"Data file recorded 2014/9/22  15:55:58"
"%  Right Stride Frequency         = 3.0"
"%  Left Stride Frequency         = 3.0"
"%  Phase (Fractional)         = 32768.0"
"%  Experiment.py "
"%  Motor Gains    = [1800, 200, 100, 0, 0, 1800, 200, 100, 0, 0]
"% Columns: "
"% time | Right Leg Pos | Left Leg Pos | Commanded Right Leg Pos | Commanded Left Leg Pos | DCR | DCL | GyroX | GryoY | GryoZ | AX | AY | AZ | RBEMF | LBEMF | VBatt "
11248,1162444,1257144,1144264,1308104,-3800,3800,-40,193,-236,460,-35,4117,-10,-2,847
12242,1162460,1257128,1144461,1308301,-3800,3800,-39,193,-235,485,-50,4101,-10,0,847
13243,1162448,1257176,1144658,1308498,-3800,3800,-37,191,-235,477,-72,4120,-10,0,847
14244,1162348,1257252,1144855,1308695,-3800,3800,-33,202,-232,487,-44,4102,-28,8,809
15245,1162176,1257300,1145052,1308892,-3800,3800,-35,223,-231,473,9,4104,-28,8,809
16246,1161916,1257348,1145249,1309089,-3800,3800,-47,192,-219,453,1,4081,-52,-7,808
17235,1161564,1257392,1145446,1309286,-3674,3800,-63,164,-196,462,151,4068,-52,-7,808
18236,1161148,1257452,1145643,1309483,-3007,3800,-68,142,-160,484,149,4113,-61,12,810
19237,1160724,1257552,1145840,1309680,-2687,3800,-52,167,-105,672,170,4107,-61,12,810
20238,1160232,1257636,1146037,1309877,-1962,3800,-42,105,-24,1063,-15,3883,-92,4,811
21239,1159732,1257760,1146234,1310074,-1608,3800,-51,24,34,1444,418,3793,-92,4,811
22240,1159256,1257872,1146431,1310271,-1465,3800,-73,-140,48,1735,696,3604,-92,15,817
23240,1158708,1258008,1146628,1310468,-690,3800,-58,-265,70,2185,499,3615,-92,15,817
24241,1158264,1258120,1146825,1310665,-1060,3800,-21,-396,62,2431,1208,3428,-96,20,822
25243,1157796,1258296,1147022,1310862,-621,3800,39,-533,-15,2675,1587,3327,-96,20,822
26244,1157348,1258464,1147219,1311059,-465,3800,41,-641,-144,2785,1294,3470,-84,27,824
27245,1156980,1258620,1147416,1311256,-718,3800,8,-572,-282,2546,1394,4063,-84,27,824
28245,1156644,1258776,1147613,1311453,-685,3800,-36,-169,-385,2245,1199,5072,-54,20,825
29247,1156320,1258956,1147810,1311650,-533,3800,-28,333,-438,2090,873,5212,-54,20,825
30248,1156076,1259136,1148007,1311847,-841,3800,9,929,-453,2057,581,5545,-56,22,824
31249,1155888,1259316,1148204,1312044,-1023,3800,9,1554,-481,1915,701,5668,-56,22,824
32249,1155700,1259496,1148401,1312241,-856,3800,6,2189,-557,1484,906,5536,-31,22,822
33251,1155580,1259664,1148598,1312438,-1143,3800,17,2714,-640,1084,1185,5276,-31,22,822
34252,1155456,1259824,1148795,1312635,-979,3800,50,3152,-667,1015,1191,5093,-17,18,823
35253,1155364,1260000,1148992,1312832,-1053,3800,68,3590,-591,1003,1179,5111,-17,18,823
36254,1155300,1260176,1149189,1313029,-1114,3800,92,3907,-427,822,1121,4573,-19,24,821
37255,1155244,1260344,1149386,1313226,-1054,3800,85,4116,-240,613,995,4386,-19,24,821
38255,1155220,1260472,1149583,1313423,-1158,3800,41,4229,-48,486,771,3962,-5,30,822
39256,1155200,1260660,1149780,1313620,-1088,3800,-42,4340,114,369,755,3914,-5,30,822
40257,1155204,1260852,1149977,1313817,-1155,3800,-100,4393,213,13,914,3621,-9,30,823
41259,1155216,1261028,1150174,1314014,-1124,3800,-118,4389,272,-380,1047,3666,-9,30,823
42260,1155212,1261180,1150371,1314211,-937,3800,-130,4384,320,-577,1207,3616,-8,18,822
43261,1155208,1261332,1150568,1314408,-850,3800,-155,4420,367,-759,1238,3698,-8,18,822
44261,1155216,1261472,1150765,1314605,-843,3800,-204,4540,426,-1012,945,3818,5,18,822
45263,1155208,1261604,1150962,1314802,-653,3800,-261,4652,486,-1238,653,3851,5,18,822
46263,1155196,1261768,1151159,1314999,-538,3800,-325,4779,525,-1360,492,4066,-4,19,823
47265,1155208,1261956,1151356,1315196,-607,3800,-383,4909,546,-1410,389,4023,-4,19,823
48265,1155208,1262108,1151553,1315393,-446,3800,-434,5011,566,-1477,402,3912,11,18,823
49267,1155208,1262268,1151750,1315590,-360,3800,-461,4959,580,-1597,384,3592,11,18,823
50268,1155212,1262444,1151947,1315787,-301,3800,-469,4837,570,-1622,373,3399,10,26,824
51269,1155208,1262608,1152144,1315984,-163,3800,-458,4645,516,-1589,386,3078,10,26,824
52270,1155208,1262784,1152341,1316181,-102,3800,-422,4327,426,-1603,344,2777,0,31,825
53271,1155220,1262976,1152538,1316378,-97,3800,-368,3915,314,-1631,246,2510,0,31,825
54271,1155220,1263192,1152735,1316575,64,3800,-314,3356,213,-1553,116,2273,7,35,826
55272,1155232,1263428,1152932,1316772,70,3800,-285,2819,138,-1404,69,2332,7,35,826
56273,1155248,1263644,1153129,1316969,124,3800,-292,2297,95,-1267,162,2489,-2,32,826
57274,1155252,1263892,1153326,1317166,284,3800,-307,1745,114,-1216,171,2319,-2,32,826
58275,1155284,1264164,1153523,1317363,181,3800,-298,1130,191,-1109,280,2235,14,40,825
59276,1155316,1264424,1153720,1317560,253,3800,-271,524,293,-1047,389,2245,14,40,825
60277,1155352,1264724,1153917,1317757,299,3800,-201,-186,388,-1198,417,1917,12,50,826
61278,1155388,1265084,1154114,1317954,369,3800,-103,-943,460,-1314,489,1882,12,50,826
62279,1155424,1265428,1154311,1318151,439,3800,-26,-1663,521,-1356,534,2206,17,69,827
63280,1155484,1265764,1154508,1318348,350,3800,14,-2193,620,-1352,559,2654,17,69,827
64281,1155536,1266164,1154705,1318545,463,3800,27,-2549,770,-1394,604,3176,22,75,827
65282,1155584,1266596,1154902,1318742,554,3800,7,-2717,949,-1450,468,3745,22,75,827
66283,1155672,1267012,1155099,1318939,351,3800,-29,-2821,1118,-1516,444,3940,25,78,828
67284,1155760,1267464,1155296,1319136,399,3800,-61,-2892,1284,-1504,204,4029,25,78,828
68285,1155848,1267988,1155493,1319333,446,3800,-84,-2935,1441,-1519,-30,4140,32,76,828
69286,1155908,1268512,1155690,1319530,682,3800,-91,-2938,1568,-1562,-77,4173,32,76,828
70287,1156036,1269124,1155887,1319727,287,3800,-83,-2894,1688,-1476,-176,4319,24,103,827
71288,1156124,1269720,1156084,1319924,585,3800,-82,-2787,1827,-1264,-454,4674,24,103,827
72289,1156212,1270304,1156281,1320121,633,3800,-71,-2506,1944,-1078,-617,5136,40,105,828
73290,1156300,1270980,1156478,1320318,681,3800,-46,-2209,2035,-910,-745,5005,40,105,828
74291,1156436,1271612,1156675,1320515,408,3800,-21,-1945,2140,-586,-986,5008,24,112,829
75293,1156568,1272312,1156872,1320712,461,3800,-19,-1688,2269,-171,-1370,4989,24,112,829
76293,1156700,1272956,1157069,1320909,490,3800,-23,-1462,2393,61,-1772,4699,36,111,829
77294,1156840,1273700,1157266,1321106,465,3800,-26,-1288,2483,237,-2077,4536,36,111,829
78295,1156960,1274384,1157463,1321303,624,3800,-18,-1154,2532,566,-2406,4363,27,127,830
79296,1157096,1275168,1157660,1321500,550,3800,-2,-1032,2546,828,-2721,4358,27,127,830
80297,1157200,1275912,1157857,1321697,792,3800,21,-850,2555,1071,-3119,4395,26,141,829
81298,1157296,1276744,1158054,1321894,887,3800,48,-657,2566,1374,-3576,4419,26,141,829
82300,1157440,1277568,1158251,1322091,610,3800,91,-438,2574,1686,-3900,4447,40,154,830
83300,1157564,1278408,1158448,1322288,767,3800,155,-237,2562,2038,-4092,4295,40,154,830
84301,1157648,1279172,1158645,1322485,1067,3800,237,-69,2500,2318,-4346,4074,27,147,830
85302,1157784,1279984,1158842,1322682,768,3800,376,5,2392,2577,-4471,3707,27,147,830
86304,1157908,1280780,1159039,1322879,877,3800,542,-13,2235,2786,-4326,3488,44,146,831
87304,1158012,1281456,1159236,1323076,1042,3800,737,-75,2032,2991,-4111,3320,44,146,831
88305,1158132,1282180,1159433,1323273,976,3800,947,-91,1745,3020,-3263,3225,43,138,830
89306,1158252,1282852,1159630,1323470,1010,3800,1162,-49,1311,2748,-1655,3228,43,138,830
90307,1158364,1283564,1159827,1323667,1097,3800,1346,34,756,2476,-729,3396,27,122,829
91308,1158480,1284264,1160024,1323864,1109,3800,1496,243,148,2294,-547,3766,27,122,829
92309,1158592,1284920,1160221,1324061,1171,3800,1605,618,-451,2178,-618,4293,44,119,828
93317,1158688,1285524,1160648,1324488,1417,3800,1675,1144,-1000,2084,-578,4586,44,119,828
94311,1158776,1286120,1160845,1324685,1516,3800,1712,1666,-1470,2019,-649,4432,47,130,827
95312,1158964,1286732,1161042,1324882,895,3800,1695,2157,-1884,1997,-872,4241,47,130,827
96313,1159144,1287320,1161239,1325079,953,3800,1647,2421,-2296,1945,-436,3469,33,115,826
97314,1159312,1287916,1161436,1325276,1041,3800,1604,2424,-2664,1783,-658,2745,33,115,826
98316,1159488,1288468,1161633,1325473,1000,3800,1591,2232,-2947,1598,-812,2196,56,110,828
99316,1159672,1289016,1161830,1325670,957,3800,1556,1785,-3118,1699,-860,1393,56,110,828
100317,1159852,1289548,1162027,1325867,989,3800,1479,1248,-3138,2066,-1542,1055,41,114,827
101318,1160024,1290096,1162224,1326064,1051,3800,1388,568,-3072,2057,-1078,478,41,114,827
102319,1160208,1290684,1162421,1326261,982,3800,1254,-109,-2984,1955,-469,641,33,109,827
103320,1160360,1291192,1162618,1326458,1202,3800,1057,-759,-2866,1703,-138,674,33,109,827
104321,1160524,1291796,1162815,1326655,1142,3800,789,-1288,-2689,1560,-2,1312,34,103,826
105322,1160680,1292304,1163012,1326852,1210,3800,512,-1583,-2406,1459,315,1895,34,103,826
106323,1160828,1292880,1163209,1327049,1283,3800,228,-1795,-1984,1359,473,2244,47,103,826
107324,1161004,1293476,1163406,1327246,1117,3800,-82,-1780,-1433,1193,105,2934,47,103,826
108325,1161144,1293984,1163603,1327443,1368,3800,-334,-1848,-717,1068,-409,2658,26,95,826
109326,1161292,1294576,1163800,1327640,1340,3800,-549,-1850,126,968,-705,3082,26,95,826
110327,1161428,1295088,1163997,1327837,1442,3800,-761,-1928,955,781,-457,2991,26,101,827
111328,1161576,1295696,1164194,1328034,1389,3800,-963,-2004,1611,546,51,3275,26,101,827
112329,1161688,1296360,1164391,1328231,1652,3800,-1165,-2071,2011,308,537,3323,39,118,826
113330,1161804,1296912,1164588,1328428,1663,3800,-1355,-2140,2198,257,422,3452,39,118,826
114331,1161960,1297476,1164785,1328625,1432,3800,-1516,-2100,2335,399,-303,4052,33,110,825
115333,1162096,1298216,1164982,1328822,1584,3800,-1640,-1937,2580,622,-1284,4566,33,110,825
116333,1162188,1298828,1165179,1329019,1906,3800,-1826,-1528,2987,842,-1880,5454,45,119,825
117334,1162344,1299448,1165376,1329216,1524,3800,-2040,-1024,3536,1118,-1972,5835,45,119,825
118335,1162480,1300300,1165573,1329413,1677,3800,-2254,-506,4062,1344,-895,6326,37,139,826
119336,1162612,1301140,1165770,1329610,1730,3800,-2488,217,4423,1326,-255,7151,37,139,826
120337,1162748,1301932,1165967,1329807,1733,3800,-2695,1013,4663,1380,-35,7338,44,163,827
121339,1162900,1302900,1166164,1330004,1654,3800,-2854,1741,4786,1723,413,7610,44,163,827
122339,1163008,1303788,1166361,1330201,1968,3800,-2975,2482,4782,1961,839,7828,43,156,827
123340,1163152,1304704,1166558,1330398,1767,3800,-3023,3114,4685,1927,1553,7633,43,156,827
124341,1163292,1305628,1166755,1330595,1818,3800,-2997,3578,4433,1747,2467,7406,45,179,828
125342,1163432,1306568,1166952,1330792,1843,3800,-2900,3847,3928,1302,3527,6996,45,179,828
126343,1163628,1307556,1167149,1330989,1495,3800,-2768,4090,3229,1207,3823,6918,53,185,827
127344,1163768,1308432,1167346,1331186,1871,3800,-2622,4220,2447,1324,3766,6486,53,185,827
128345,1163936,1309352,1167543,1331383,1709,3800,-2487,4200,1719,1375,3536,6405,52,191,828
129346,1164064,1310320,1167740,1331580,1990,3800,-2357,4176,1161,1552,2918,6736,52,191,828
130347,1164216,1311216,1167937,1331777,1861,3800,-2224,4263,764,1661,2359,7055,36,192,828
131349,1164344,1312080,1168134,1331974,2041,3800,-2119,4418,422,1469,2587,7209,36,192,828
132349,1164488,1312864,1168331,1332171,1965,3800,-2114,4466,75,1276,3203,6916,48,181,826
133350,1164656,1313672,1168528,1332368,1829,3800,-2186,4406,-283,965,3992,6766,48,181,826
134351,1164828,1314588,1168725,1332565,1815,3800,-2216,4316,-577,679,3850,6748,47,166,825
135352,1165028,1315300,1168922,1332762,1640,3800,-2157,4189,-745,106,3019,6533,47,166,825
136353,1165192,1316060,1169119,1332959,1880,3800,-2059,3993,-737,-459,1812,6470,44,163,825
137355,1165352,1316820,1169316,1333156,1922,3800,-1932,3846,-599,-918,880,6618,44,163,825
138355,1165516,1317516,1169513,1333353,1912,3800,-1778,3736,-366,-1105,55,6631,40,141,828
139357,1165696,1318216,1169710,1333550,1820,3800,-1589,3611,-86,-1273,-222,6410,40,141,828
140357,1165868,1318900,1169907,1333747,1882,3800,-1426,3355,222,-1726,-305,6022,48,129,826
141358,1166044,1319508,1170104,1333944,1868,3800,-1275,3031,566,-2301,-256,5955,48,129,826
142359,1166228,1320080,1170301,1334141,1824,3800,-1121,2681,871,-3087,108,6040,43,125,824
143360,1166412,1320600,1170498,1334338,1830,3800,-995,2480,1051,-4412,811,6487,43,125,824
144361,1166600,1321116,1170695,1334535,1810,3800,-816,147,1236,-12464,657,2609,39,108,824
145362,1166756,1321596,1170892,1334732,2029,3800,-553,-4485,1415,-14078,-920,1340,39,108,824
146363,1166932,1322032,1171089,1334929,1914,3800,-389,-7334,1673,-9353,-2156,6785,30,86,822
147364,1167084,1322456,1171286,1335126,2084,3800,-271,-7281,2210,-6075,-2433,9198,30,86,822
148365,1167256,1322832,1171483,1335323,1971,3800,-281,-5534,2737,-3719,-2487,10484,30,84,820
149366,1167400,1323176,1171680,1335520,2170,3800,-197,-4214,3155,-5249,-1606,9237,30,84,820
150367,1167588,1323552,1171877,1335717,1900,3800,144,-4493,3360,-5603,-258,6309,32,78,820
151368,1167772,1323944,1172074,1335914,1932,3800,644,-5864,3336,-4847,982,4225,32,78,820
152369,1167944,1324296,1172271,1336111,2019,3800,1217,-6813,3341,-4069,1521,5592,52,77,820
153370,1168104,1324676,1172468,1336308,2110,3800,1750,-7181,3500,-4099,728,5600,52,77,820
154371,1168272,1325080,1172665,1336505,2074,3800,2264,-7662,3764,-2954,0,5140,29,75,821
155372,1168428,1325476,1172862,1336702,2168,3800,2617,-7360,4142,-1975,-12,7629,29,75,821
156373,1168584,1325892,1173059,1336899,2187,3800,2896,-7349,4483,-1211,-89,5620,30,87,820
157374,1168752,1326276,1173256,1337096,2126,3800,3133,-7563,4771,-1110,-875,6029,30,87,820
158375,1168948,1326728,1173453,1337293,1952,3800,3355,-7849,5099,-654,-1585,5662,42,79,819
159376,1169124,1327136,1173650,1337490,2086,3800,3553,-7962,5306,206,-1829,5437,42,79,819
160364,1169320,1327620,1173847,1337687,1963,3721,3748,-8153,5337,-28,-1729,5020,56,82,821
161366,1169508,1328116,1174044,1337884,2018,3517,3934,-8532,5265,25,-1870,5121,56,82,821
162367,1169688,1328640,1174241,1338081,2076,3200,4026,-8625,5112,958,-2028,5533,50,95,821
163367,1169888,1329180,1174438,1338278,1951,2952,4091,-8458,4977,1396,-1894,5717,50,95,821
164369,1170100,1329708,1174635,1338475,1870,2882,4064,-8106,4844,1323,-2098,6199,46,108,824
165370,1170304,1330196,1174832,1338672,1918,3006,4026,-7807,4728,1401,-2303,6006,46,108,824
166370,1170484,1330772,1175029,1338869,2076,2292,3980,-7251,4677,1657,-2140,6846,51,112,827
167371,1170696,1331312,1175226,1339066,1870,2367,3972,-6634,4610,1920,-1785,6364,51,112,827
168372,1170900,1331908,1175423,1339263,1918,1844,4036,-6035,4487,1755,-1266,6176,35,110,827
169374,1171088,1332468,1175620,1339460,2023,1910,4178,-5552,4337,1628,-937,5908,35,110,827
170374,1171276,1333052,1175817,1339657,2028,1592,4309,-5053,4114,1738,-161,5830,39,110,830
171375,1171448,1333660,1176014,1339854,2140,1262,4416,-4377,3895,1826,118,6009,39,110,830
172376,1171676,1334272,1176211,1340051,1777,1056,4497,-3647,3731,1629,212,5932,45,121,832
173378,1171928,1334900,1176408,1340248,1604,768,4562,-2936,3591,1501,-109,5821,45,121,832
174378,1172128,1335484,1176605,1340445,1928,874,4622,-2239,3462,1567,-506,5549,54,100,834
175379,1172332,1336036,1176802,1340642,1901,919,4689,-1490,3361,1795,-719,5496,54,100,834
176387,1172576,1336556,1177032,1340872,1646,992,4773,-771,3291,1746,-772,5146,58,103,838
177381,1172756,1337040,1177229,1341069,2054,1092,4868,-53,3260,1609,-517,5085,58,103,838
178382,1172916,1337628,1177426,1341266,2196,270,4960,796,3255,1790,-343,5155,55,101,836
179383,1173148,1338100,1177623,1341463,1732,875,5043,1687,3279,2068,-261,4758,55,101,836
180385,1173356,1338496,1177820,1341660,1877,1264,5115,2486,3316,2063,-329,4313,43,96,834
181386,1173552,1338984,1178017,1341857,1954,561,5186,3119,3331,2035,-469,3781,43,96,834
182387,1173756,1339412,1178214,1342054,1902,836,5261,3625,3315,1973,-719,3275,36,73,837
183388,1173960,1339820,1178411,1342251,1900,868,5331,4111,3253,2002,-924,2872,36,73,837
184389,1174152,1340216,1178608,1342448,1978,856,5388,4574,3161,2017,-1128,2552,35,82,837
185390,1174396,1340568,1178805,1342645,1633,1063,5447,5053,3065,1854,-1188,2456,35,82,837
186391,1174652,1340920,1179002,1342842,1533,996,5502,5566,2999,1701,-1255,2421,55,80,836
187392,1174916,1341244,1179199,1343039,1454,1115,5538,6161,2965,1676,-1339,2470,55,80,836
188392,1175176,1341612,1179396,1343236,1452,765,5550,6821,2956,1669,-1175,2351,56,59,837
189394,1175444,1341992,1179593,1343433,1372,611,5535,7453,2936,1708,-1008,2036,56,59,837
190394,1175692,1342280,1179790,1343630,1475,1146,5496,8003,2887,1674,-858,1658,57,52,837
191396,1175972,1342524,1179987,1343827,1240,1400,5439,8460,2807,1676,-513,1354,57,52,837
192396,1176276,1342844,1180184,1344024,1043,872,5341,8752,2691,1781,-149,709,65,52,838
193398,1176528,1343112,1180381,1344221,1345,1166,5208,8877,2512,1754,142,73,65,52,838
194399,1176764,1343348,1180578,1344418,1429,1349,5041,8767,2223,1649,586,-678,43,38,838
195400,1177028,1343560,1180775,1344615,1225,1492,4858,8459,1867,1716,718,-1548,43,38,838
196400,1177308,1343716,1180972,1344812,1089,1860,4639,7964,1498,1752,790,-2180,40,44,838
197402,1177560,1343892,1181169,1345009,1240,1745,4385,7302,1079,1618,1062,-2783,40,44,838
198403,1177812,1344032,1181366,1345206,1217,1995,4106,6480,558,1596,1213,-3253,61,25,837
199403,1178048,1344172,1181563,1345403,1300,2020,3771,5699,-30,1640,1424,-3249,61,25,837
200404,1178268,1344400,1181760,1345600,1391,1457,3346,5020,-641,1496,1752,-3153,51,35,836
201406,1178532,1344564,1181957,1345797,1088,1871,2853,4447,-1264,1233,1778,-2967,51,35,836
202407,1178760,1344716,1182154,1345994,1299,1967,2352,3945,-1862,982,1517,-2898,60,29,833
203408,1179004,1344852,1182351,1346191,1179,2094,1884,3484,-2392,700,1283,-2924,60,29,833
204408,1179228,1345000,1182548,1346388,1293,2040,1426,3029,-2844,441,823,-2857,51,22,835
205410,1179432,1345136,1182745,1346585,1415,2142,962,2581,-3214,244,264,-2886,51,22,835
206411,1179616,1345268,1182942,1346782,1547,2197,531,2141,-3519,127,-24,-2959,33,33,834
207412,1179840,1345364,1183139,1346979,1285,2466,125,1755,-3767,30,-285,-2699,33,33,834
208412,1179984,1345496,1183336,1347176,1810,2270,-287,1453,-3935,-20,-832,-2467,29,25,832
209414,1180132,1345648,1183533,1347373,1807,2166,-685,1195,-3985,-60,-1021,-2264,29,25,832
210415,1180268,1345808,1183730,1347570,1909,2132,-1061,995,-3890,-94,-1070,-2023,35,35,831
211415,1180384,1345964,1183927,1347767,2070,2175,-1440,726,-3664,-125,-1083,-2224,35,35,831
212416,1180512,1346096,1184124,1347964,2027,2354,-1809,390,-3369,-182,-739,-2284,24,22,829
213418,1180640,1346224,1184321,1348161,2057,2410,-2144,-37,-3039,-190,-267,-2432,24,22,829
214419,1180784,1346368,1184518,1348358,1981,2333,-2461,-497,-2678,-98,164,-2431,31,33,828
215420,1180908,1346480,1184715,1348555,2139,2571,-2787,-977,-2278,-65,471,-2182,31,33,828
216420,1181036,1346636,1184912,1348752,2146,2314,-3123,-1403,-1836,17,551,-1855,24,34,827
217422,1181144,1346740,1185109,1348949,2310,2681,-3485,-1756,-1357,153,481,-1563,24,34,827
218423,1181260,1346868,1185306,1349146,2297,2562,-3885,-2117,-889,299,625,-1578,15,20,826
219424,1181388,1346992,1185503,1349343,2253,2619,-4311,-2617,-486,556,661,-1792,15,20,826
220425,1181512,1347208,1185700,1349540,2311,2036,-4788,-3222,-154,774,521,-1733,16,33,825
221426,1181616,1347396,1185897,1349737,2477,2215,-5310,-3842,136,974,244,-1428,16,33,825
222427,1181748,1347588,1186094,1349934,2331,2193,-5852,-4472,423,1183,-175,-1300,26,28,824
223428,1181892,1347720,1186291,1350131,2281,2597,-6372,-5015,724,1321,-537,-755,26,28,824
224428,1182012,1347852,1186488,1350328,2465,2627,-6865,-5408,1031,1518,-797,-108,30,25,824
225430,1182160,1348028,1186685,1350525,2313,2361,-7319,-5674,1334,1697,-983,381,30,25,824
226431,1182272,1348188,1186882,1350722,2576,2478,-7749,-5843,1583,1758,-953,788,36,29,824
227432,1182384,1348388,1187079,1350919,2614,2227,-8129,-5978,1743,1925,-822,1219,36,29,824
228433,1182536,1348552,1187276,1351116,2385,2467,-8488,-6111,1802,2118,-874,1522,19,37,826
229434,1182700,1348708,1187473,1351313,2325,2535,-8842,-6241,1798,2227,-1053,1886,19,37,826
230435,1182864,1348860,1187670,1351510,2341,2581,-9189,-6299,1734,2302,-1388,2375,31,41,825
231436,1183048,1349052,1187867,1351707,2222,2333,-9519,-6251,1625,2399,-1711,2901,31,41,825
232436,1183260,1349224,1188064,1351904,2042,2470,-9818,-6118,1505,2512,-2158,3359,43,26,824
233437,1183444,1349372,1188261,1352101,2223,2642,-10098,-5792,1392,2712,-2747,4400,43,26,824
234438,1183636,1349528,1188458,1352298,2177,2611,-10508,-5028,1333,2899,-3832,6221,40,35,825
235439,1183824,1349652,1188655,1352495,2206,2843,-10762,-4364,1235,3004,-3781,5245,40,35,825
236440,1184044,1349808,1188852,1352692,1997,2662,-10810,-3899,1038,3124,-3935,5600,38,37,824
237441,1184248,1349956,1189049,1352889,2095,2733,-10760,-3370,771,3224,-4150,6286,38,37,824
238442,1184508,1350144,1189246,1353086,1719,2488,-10676,-2736,474,3411,-4428,6758,43,38,824
239443,1184728,1350280,1189443,1353283,1959,2840,-10496,-2103,204,3539,-4894,6835,43,38,824
240444,1184920,1350392,1189640,1353480,2137,3029,-10179,-1595,-71,3672,-4796,6836,43,29,825
241445,1185168,1350552,1189837,1353677,1765,2745,-9805,-1024,-356,3881,-4501,7668,43,29,825
242447,1185384,1350696,1190034,1353874,1958,2869,-9408,-354,-637,3983,-4140,7962,30,29,825
243447,1185572,1350880,1190231,1354071,2138,2626,-8926,327,-939,3886,-3475,7952,30,29,825
244448,1185768,1351040,1190428,1354268,2089,2792,-8404,1001,-1306,3961,-1864,8454,49,36,827
245449,1186024,1351232,1190625,1354465,1689,2595,-7884,1616,-1729,4117,-420,8392,49,36,827
246451,1186252,1351440,1190822,1354662,1852,2491,-7278,2190,-2069,4404,-155,8700,50,35,826
247452,1186444,1351672,1191019,1354859,2080,2326,-4290,6783,-1925,3802,-3221,32767,50,35,826
248453,1186692,1351912,1191216,1355056,1708,2258,1559,17921,-1016,2205,-5832,32767,31,39,828
249454,1186880,1352164,1191413,1355253,2088,2159,5215,23062,-651,5936,1559,14439,31,39,828
250455,1187088,1352388,1191610,1355450,1959,2323,5619,21225,-999,6458,4515,1105,50,40,828
251456,1187320,1352612,1191807,1355647,1794,2312,4972,16789,-1607,6632,4781,-1602,50,40,828
252457,1187504,1352840,1192004,1355844,2101,2274,4711,13461,-2001,6149,3834,-516,37,45,829
253458,1187684,1353084,1192201,1356041,2135,2154,4819,11302,-1916,5445,1911,241,37,45,829
254459,1187884,1353324,1192398,1356238,2009,2160,4621,10450,-1465,5359,-875,3940,45,45,830
255459,1188064,1353528,1192595,1356435,2142,2383,4326,9606,-1125,4367,-317,2445,45,45,830
256460,1188228,1353740,1192792,1356632,2257,2326,3986,8478,-1035,3334,-1319,3084,29,43,828
257462,1188440,1353940,1192989,1356829,1952,2401,3494,7574,-1108,2605,-2650,3953,29,43,828
258463,1188612,1354164,1193186,1357026,2214,2239,3012,6720,-1354,1134,-1763,3625,48,39,826
259473,1188768,1354376,1193416,1357256,2347,2323,2506,6214,-1754,-24,-1472,4739,48,39,826
260465,1188928,1354628,1193613,1357453,2339,2050,2025,5690,-2107,-805,-1774,4188,42,38,828
261465,1189056,1354840,1193810,1357650,2571,2293,1647,5221,-2314,-1918,-1504,4620,42,38,828
262467,1189204,1355044,1194007,1357847,2468,2341,1380,4861,-2523,-2847,-1192,4714,38,50,826
263468,1189336,1355212,1194204,1358044,2597,2579,1162,4654,-2769,-3641,-957,5503,38,50,826
264469,1189504,1355416,1194401,1358241,2386,2352,981,4727,-2922,-4201,-982,5905,23,50,825
265470,1189620,1355632,1194598,1358438,2747,2269,897,4802,-2933,-4469,-1064,5663,23,50,825
266471,1189748,1355824,1194795,1358635,2703,2422,940,4896,-2744,-4714,-1309,5883,20,42,823
267472,1189928,1356024,1194992,1358832,2387,2370,1123,4933,-2305,-4842,-1654,5520,20,42,823
268472,1190052,1356192,1195189,1359029,2770,2584,1369,4899,-1661,-4868,-1934,5027,39,29,823
269474,1190216,1356388,1195386,1359226,2535,2410,1589,4625,-873,-5008,-1678,4309,39,29,823
270475,1190372,1356596,1195583,1359423,2604,2331,1788,4102,-6,-5037,-1433,3494,26,44,826
271476,1190528,1356820,1195780,1359620,2624,2219,2049,3380,900,-4975,-1318,2801,26,44,826
272476,1190680,1357036,1195977,1359817,2669,2262,2368,2474,1783,-4922,-1060,2245,33,48,825
273478,1190868,1357268,1196174,1360014,2449,2146,2672,1500,2573,-4709,-916,2033,33,48,825
274479,1190992,1357492,1196371,1360211,2882,2185,2959,564,3257,-4511,-578,2040,38,50,825
275480,1191140,1357704,1196568,1360408,2755,2255,3210,-178,3829,-4240,-484,2616,38,50,825
276481,1191336,1357936,1196765,1360605,2456,2114,3434,-785,4292,-4016,-524,2915,22,42,826
277481,1191468,1358172,1196962,1360802,2886,2073,3607,-1198,4651,-3739,-557,3487,22,42,826
278482,1191624,1358376,1197159,1360999,2755,2270,3709,-1518,4868,-3412,-477,3658,41,33,823
279483,1191796,1358604,1197356,1361196,2667,2108,3749,-1718,4948,-3139,-443,3973,41,33,823
280484,1191956,1358828,1197553,1361393,2759,2121,3775,-1912,4889,-2937,-191,3860,39,45,822
281486,1192108,1359040,1197750,1361590,2830,2190,3808,-2136,4709,-2644,103,3701,39,45,822
282486,1192284,1359244,1197947,1361787,2691,2237,3829,-2419,4440,-2356,254,3536,24,39,825
283488,1192472,1359492,1198144,1361984,2621,1940,3816,-2768,4128,-1982,244,3286,24,39,825
284488,1192636,1359728,1198341,1362181,2787,1998,3752,-3116,3846,-1467,97,3277,47,54,824
285490,1192816,1359980,1198538,1362378,2695,1874,3645,-3539,3639,-1015,-138,2969,47,54,824
286490,1193020,1360208,1198735,1362575,2543,2012,3504,-4017,3492,-521,-268,2834,28,43,827
287492,1193204,1360436,1198932,1362772,2675,1998,3364,-4597,3383,-130,147,2412,28,43,827
288492,1193372,1360684,1199129,1362969,2788,1852,3246,-5201,3280,261,519,2319,48,43,827
289494,1193540,1360960,1199326,1363166,2802,1642,3193,-5828,3190,565,443,2214,48,43,827
290494,1193712,1361224,1199523,1363363,2789,1688,3200,-6403,3141,763,807,2334,44,55,825
291495,1193876,1361512,1199720,1363560,2855,1499,3256,-6869,3137,932,1040,2465,44,55,825
292496,1194060,1361756,1199917,1363757,2737,1753,3330,-7199,3166,941,1120,2707,42,55,827
293497,1194240,1361920,1200114,1363954,2771,2268,3403,-7365,3190,791,1293,3185,42,55,827
294498,1194424,1362068,1200311,1364151,2753,2390,3447,-7375,3156,629,1430,3556,48,35,826
295500,1194608,1362228,1200508,1364348,2759,2332,3447,-7163,3081,403,1347,4120,48,35,826
296500,1194752,1362396,1200705,1364545,3034,2295,3401,-6688,3018,219,1278,4755,24,27,824
297502,1194864,1362632,1200902,1364742,3272,1853,3306,-6066,2974,49,1481,4958,24,27,824
298503,1195008,1362860,1201099,1364939,3096,1890,3207,-5319,2897,-170,1707,5243,21,35,824
299504,1195164,1363104,1201296,1365136,3040,1769,3124,-4523,2777,-225,1675,5295,21,35,824
300504,1195276,1363436,1201493,1365333,3355,1161,3053,-3690,2627,-253,1811,5347,22,47,822
301505,1195436,1363636,1201690,1365530,3072,1985,2957,-2834,2468,-329,2193,5322,22,47,822
302506,1195564,1363956,1201887,1365727,3303,1181,2837,-2009,2331,-255,2264,5092,38,57,824
303508,1195680,1364292,1202084,1365924,3415,1021,2727,-1250,2210,-158,2323,4797,38,57,824
304508,1195860,1364576,1202281,1366121,3023,1307,2587,-643,2099,3,2513,4373,47,56,824
305509,1196052,1364880,1202478,1366318,2952,1135,2463,-135,2060,324,1506,4167,47,56,824
306510,1196208,1365184,1202675,1366515,3196,1089,2378,269,2061,472,1216,3704,45,54,825
307511,1196384,1365484,1202872,1366712,3082,1069,2295,565,1999,482,1903,3308,45,54,825
308512,1196544,1365768,1203069,1366909,3199,1131,2149,784,1853,603,2293,2968,39,63,828
309513,1196700,1366052,1203266,1367106,3244,1093,1974,911,1653,712,2244,2782,39,63,828
310514,1196856,1366396,1203463,1367303,3263,653,1752,1022,1463,796,2284,2675,33,55,827
311516,1196996,1366740,1203660,1367500,3389,589,1510,1087,1303,857,2217,2570,33,55,827
312517,1197120,1367016,1203857,1367697,3522,980,1217,1149,1157,1037,2182,2556,43,63,825
313518,1197276,1367288,1204054,1367894,3342,972,896,1207,1009,1227,2341,2523,43,63,825
314519,1197420,1367616,1204251,1368091,3441,564,579,1323,846,1343,2532,2610,43,64,827
315520,1197572,1367888,1204448,1368288,3412,881,287,1440,667,1348,2585,2678,43,64,827
316521,1197700,1368140,1204645,1368485,3595,982,-27,1538,437,1306,2710,2659,23,43,826
317522,1197852,1368356,1204842,1368682,3465,1199,-385,1638,106,1232,3097,2659,23,43,826
318523,1197992,1368524,1205039,1368879,3566,1512,-770,1764,-327,1108,3492,2715,27,50,825
319524,1198120,1368752,1205236,1369076,3674,1123,-1162,1910,-794,1019,3519,2952,27,50,825
320525,1198300,1368972,1205433,1369273,3357,1163,-1560,2167,-1199,1054,3369,3244,32,44,824
321526,1198476,1369168,1205630,1369470,3392,1313,-1952,2569,-1448,1236,2814,3579,32,44,824
322526,1198652,1369360,1205827,1369667,3404,1340,-2330,3047,-1544,1385,2372,3714,46,32,822
323527,1198836,1369548,1206024,1369864,3360,1370,-2704,3530,-1541,1495,1896,3724,46,32,822
324528,1199012,1369744,1206221,1370061,3421,1321,-3040,3871,-1547,1479,2184,3392,30,32,824
325529,1199208,1369916,1206418,1370258,3298,1482,-3287,4085,-1602,1485,2061,3195,30,32,824
326530,1199416,1370068,1206615,1370455,3219,1627,-3427,4188,-1723,1291,2356,2874,50,47,824
327531,1199616,1370236,1206812,1370652,3269,1539,-3477,4243,-1909,1095,2381,2683,50,47,824
328533,1199820,1370424,1207009,1370849,3243,1418,-3472,4261,-2111,991,2229,2644,53,44,824
329534,1200048,1370600,1207206,1371046,3080,1502,-3478,4300,-2345,917,2374,2548,53,44,824
330535,1200264,1370800,1207403,1371243,3149,1351,-3575,4303,-2580,890,1607,2509,46,35,824
331536,1200512,1370952,1207600,1371440,2927,1671,-3759,4375,-2745,826,1238,2738,46,35,824
332536,1200760,1371092,1207797,1371637,2906,1771,-3984,4462,-2830,733,886,2922,60,29,826
333537,1200996,1371240,1207994,1371834,2966,1743,-4197,4671,-2854,576,833,3275,60,29,826
334538,1201236,1371388,1208191,1372031,2923,1764,-4382,4956,-2888,450,974,3618,60,39,825
335539,1201520,1371548,1208388,1372228,2611,1706,-4540,5287,-2948,244,777,3842,60,39,825
336540,1201756,1371728,1208585,1372425,2896,1589,-4673,5637,-3034,-32,592,3953,59,43,826
337542,1201988,1371884,1208782,1372622,2906,1757,-4773,5948,-3172,-305,348,4056,59,43,826
338543,1202248,1372036,1208979,1372819,2704,1802,-4842,6353,-3341,-598,-59,4463,48,39,828
339543,1202528,1372208,1209176,1373016,2544,1688,-4875,6770,-3534,-1006,-135,4410,48,39,828
340545,1202780,1372328,1209373,1373213,2697,2046,-4913,7190,-3776,-1376,-93,4584,67,31,826
341545,1203052,1372460,1209570,1373410,2540,2000,-4952,7478,-4064,-1679,-99,4396,67,31,826
342553,1203284,1372584,1209800,1373640,2790,2098,-4955,7675,-4420,-1841,-376,4294,56,23,828
343547,1203516,1372708,1209997,1373837,2776,2130,-4932,7804,-4846,-2028,-684,4143,56,23,828
344548,1203764,1372852,1210194,1374034,2655,2028,-4885,7805,-5280,-2246,-957,3983,58,38,826
345550,1204012,1373020,1210391,1374231,2634,1891,-4842,7752,-5640,-2353,-1438,4085,58,38,826
346551,1204232,1373220,1210588,1374428,2800,1689,-4771,7647,-5860,-2484,-2102,3950,42,28,824
347552,1204484,1373380,1210785,1374625,2576,1957,-4726,7558,-5963,-2633,-2683,4320,42,28,824
348553,1204716,1373552,1210982,1374822,2688,1893,-4721,7428,-5993,-2841,-3242,4303,44,35,827
349554,1204948,1373716,1211179,1375019,2674,1957,-4714,7277,-5954,-3136,-3773,4366,44,35,827
350554,1205180,1373896,1211376,1375216,2659,1865,-4632,6986,-5839,-3292,-4394,4098,42,46,827
351555,1205412,1374052,1211573,1375413,2645,2034,-4494,6557,-5632,-3415,-5095,3971,42,46,827
352556,1205648,1374216,1211770,1375610,2604,1998,-4335,5994,-5321,-3520,-5600,3682,48,35,826
353558,1205888,1374368,1211967,1375807,2561,2093,-4150,5277,-4953,-3694,-5902,3360,48,35,826
354559,1206144,1374520,1212164,1376004,2437,2113,-3941,4413,-4579,-4019,-5856,3190,57,42,826
355559,1206380,1374696,1212361,1376201,2546,1973,-3688,2582,-4205,-6046,-5545,1478,57,42,826
356561,1206620,1374844,1212558,1376398,2503,2169,-3301,-1394,-3744,-8181,-4912,-1011,42,41,825
357561,1206884,1374992,1212755,1376595,2325,2191,-3049,-4290,-3366,-5969,-4287,3674,42,41,825
358562,1207160,1375136,1212952,1376792,2216,2240,-1597,-4392,-3097,-4311,-3925,19500,45,25,826
359563,1207460,1375244,1213149,1376989,2022,2504,2309,-2802,-2878,-2955,-2879,32767,45,25,826
360565,1207768,1375380,1213346,1377186,1924,2356,4203,-1821,-2624,-3759,-3065,10121,66,24,826
361566,1208016,1375532,1213543,1377383,2277,2277,3960,-1680,-2276,-4001,-2535,7059,66,24,826
362567,1208328,1375696,1213740,1377580,1828,2216,3101,-1660,-1835,-4041,-2357,7562,64,43,827
363568,1208664,1375868,1213937,1377777,1618,2177,2670,-1561,-1463,-3557,-1847,6489,64,43,827
364569,1208964,1376016,1214134,1377974,1798,2350,2526,-1424,-1150,-3430,-1328,6743,65,27,827
365570,1209276,1376160,1214331,1378171,1674,2398,2460,-1318,-962,-2973,-737,6252,65,27,827
366570,1209620,1376304,1214528,1378368,1410,2422,2259,-1369,-927,-2513,-46,5995,71,41,830
367571,1209956,1376468,1214725,1378565,1400,2312,2063,-1552,-914,-2172,475,5458,71,41,830
368572,1210288,1376640,1214922,1378762,1367,2273,1914,-1814,-887,-1228,543,5182,74,44,828
369573,1210628,1376816,1215119,1378959,1255,2258,1839,-2171,-853,-564,583,4620,74,44,828
370574,1210980,1376980,1215316,1379156,1113,2348,1780,-2632,-811,-164,637,4207,65,41,831
371575,1211276,1377136,1215513,1379353,1420,2416,1743,-3191,-828,488,565,3711,65,41,831
372576,1211592,1377288,1215710,1379550,1244,2462,1743,-3880,-889,899,473,3492,58,40,832
373577,1211936,1377484,1215907,1379747,1005,2187,1766,-4468,-987,1134,276,3455,58,40,832
374578,1212252,1377640,1216104,1379944,1128,2456,1824,-5119,-1116,1335,65,3045,56,32,830
375579,1212540,1377812,1216301,1380141,1264,2367,1894,-5735,-1223,1380,-231,3279,56,32,830
376580,1212868,1377956,1216498,1380338,958,2566,2020,-6317,-1316,1487,-633,3067,67,46,833
377582,1213152,1378116,1216695,1380535,1194,2483,2172,-6775,-1419,1398,-863,3217,67,46,833
378583,1213488,1378292,1216892,1380732,809,2393,2395,-7111,-1510,1093,-1003,3474,68,32,830
379584,1213748,1378496,1217089,1380929,1258,2215,2657,-7318,-1610,875,-1208,3759,68,32,830
380584,1214000,1378692,1217286,1381126,1284,2265,2966,-7315,-1727,490,-1272,4091,44,34,831
381586,1214264,1378868,1217483,1381323,1180,2400,3277,-7085,-1837,15,-1413,4441,44,34,831
382586,1214544,1379040,1217680,1381520,1045,2436,3616,-6721,-1918,-390,-1726,4683,65,38,832
383587,1214788,1379196,1217877,1381717,1249,2555,3965,-6104,-1927,-831,-1984,5099,65,38,832
384588,1215044,1379424,1218074,1381914,1149,2092,4294,-5285,-1889,-1267,-2169,5347,61,36,832
385590,1215308,1379600,1218271,1382111,1070,2427,4623,-4408,-1817,-1717,-2311,5337,61,36,832
386591,1215540,1379812,1218468,1382308,1255,2195,4948,-3459,-1703,-2118,-2276,5346,42,47,830
387592,1215796,1380000,1218665,1382505,1079,2350,5276,-2493,-1561,-2330,-2141,4992,42,47,830
388592,1216076,1380168,1218862,1382702,894,2488,5597,-1563,-1381,-2441,-2087,4643,49,32,831
389593,1216328,1380328,1219059,1382899,1045,2555,5919,-728,-1181,-2456,-1812,4150,49,32,831
390594,1216608,1380536,1219256,1383096,834,2251,6167,-4,-963,-2389,-1396,3622,61,39,831
391595,1216912,1380720,1219453,1383293,638,2407,6357,537,-685,-2159,-1256,2929,61,39,831
392596,1217188,1380924,1219650,1383490,778,2279,6500,907,-362,-1816,-1242,2238,67,46,831
393598,1217436,1381124,1219847,1383687,931,2304,6618,1093,-28,-1504,-1215,1438,67,46,831
394598,1217736,1381356,1220044,1383884,562,2088,6713,1087,301,-1238,-1154,791,65,40,833
395600,1218020,1381604,1220241,1384081,624,1967,6782,873,613,-916,-1063,74,65,40,833
396600,1218268,1381820,1220438,1384278,827,2159,6817,515,912,-606,-1007,-591,64,56,833
397602,1218556,1382072,1220635,1384475,537,1911,6804,22,1178,-299,-865,-1005,64,56,833
398602,1218840,1382292,1220832,1384672,525,2100,6743,-583,1396,-199,-721,-1496,47,50,836
399603,1219128,1382548,1221029,1384869,460,1850,6622,-1236,1563,-67,-613,-1627,47,50,836
400604,1219404,1382772,1221226,1385066,500,2039,6441,-1872,1700,30,-514,-1714,64,56,835
401606,1219640,1383020,1221423,1385263,734,1866,6185,-2452,1817,107,-333,-1633,64,56,835
402607,1219904,1383232,1221620,1385460,530,2086,5861,-2910,1924,221,-251,-1446,39,54,837
403608,1220128,1383468,1221817,1385657,768,1918,5485,-3325,2046,348,-176,-1385,39,54,837
404608,1220376,1383704,1222014,1385854,596,1902,5059,-3726,2162,457,-65,-1451,38,48,836
405609,1220600,1383920,1222211,1386051,734,2019,4592,-4105,2239,429,130,-1457,38,48,836
406610,1220804,1384156,1222408,1386248,856,1877,4113,-4420,2306,443,125,-1342,41,37,835
407611,1221004,1384360,1222605,1386445,881,2075,3618,-4721,2377,542,190,-1370,41,37,835
408612,1221204,1384544,1222802,1386642,880,2205,3112,-4990,2487,772,411,-1300,54,43,835
409614,1221400,1384740,1222999,1386839,905,2132,2599,-5256,2664,998,549,-1317,54,43,835
410615,1221584,1384940,1223196,1387036,986,2106,2113,-5511,2911,1169,603,-1222,32,49,833
411615,1221768,1385104,1223393,1387233,993,2345,1638,-5738,3211,1248,797,-1044,32,49,833
412616,1221936,1385280,1223590,1387430,1105,2280,1172,-5888,3544,1446,1056,-767,35,43,833
413617,1222116,1385440,1223787,1387627,1038,2397,713,-5933,3902,1656,1314,-499,35,43,833
414618,1222264,1385556,1223984,1387824,1260,2708,258,-5943,4262,1815,1555,-262,43,38,833
415619,1222428,1385688,1224181,1388021,1175,2637,-204,-5874,4595,1989,1797,52,43,38,833
416620,1222604,1385812,1224378,1388218,1109,2720,-665,-5768,4880,2157,2054,269,32,18,832
417621,1222764,1385944,1224575,1388415,1226,2698,-1143,-5589,5089,2339,2426,512,32,18,832
418623,1222924,1386064,1224772,1388612,1243,2807,-1634,-5406,5212,2531,2580,729,39,16,830
419623,1223088,1386164,1224969,1388809,1232,2976,-2114,-5208,5246,2753,2552,937,39,16,830
420624,1223240,1386268,1225166,1389006,1328,2992,-2614,-4968,5196,2951,2704,1265,35,17,829
421625,1223384,1386384,1225363,1389203,1401,2953,-3139,-4701,5058,3180,2870,1579,35,17,829
422626,1223540,1386492,1225560,1389400,1345,3043,-3680,-4405,4845,3458,2934,1942,28,15,826
423627,1223712,1386612,1225757,1389597,1256,3002,-4213,-4068,4577,3731,2824,2246,28,15,826
424628,1223876,1386724,1225954,1389794,1321,3091,-4692,-3716,4295,4053,2222,2577,25,22,826
425636,1224040,1386844,1226184,1390024,1351,3089,-5122,-3391,3977,4353,1945,2695,25,22,826
426631,1224212,1386980,1226381,1390221,1312,3017,-5563,-3120,3589,4606,2159,2875,45,35,827
427632,1224368,1387108,1226578,1390418,1430,3097,-6145,-2627,3171,4965,1909,4331,45,35,827
428632,1224552,1387236,1226775,1390615,1261,3128,-6726,-2096,2750,5289,1618,4041,40,33,825
429633,1224736,1387356,1226972,1390812,1267,3213,-7197,-1827,2320,5435,1564,3341,40,33,825
430634,1224932,1387500,1227169,1391009,1194,3087,-7587,-1613,1910,5716,1406,3894,37,21,825
431635,1225100,1387644,1227366,1391206,1381,3111,-7915,-1356,1497,5832,1425,4140,37,21,825
432636,1225292,1387788,1227563,1391403,1234,3135,-8131,-1181,1042,5735,1510,3800,36,25,822
433637,1225484,1387924,1227760,1391600,1237,3212,-8215,-1055,576,5530,1260,4073,36,25,822
434638,1225656,1388096,1227957,1391797,1373,2999,-8212,-879,105,5290,1232,4303,42,18,824
435639,1225864,1388244,1228154,1391994,1144,3171,-8143,-618,-340,4956,1026,4752,42,18,824
436640,1226040,1388396,1228351,1392191,1353,3167,-8043,-243,-757,4561,855,5160,28,25,825
437641,1226228,1388556,1228548,1392388,1283,3133,-7866,169,-1159,4112,690,5434,28,25,825
438642,1226412,1388732,1228745,1392585,1314,3044,-7608,621,-1512,3740,453,5618,32,44,826
439643,1226608,1388952,1228942,1392782,1240,2760,-7280,1024,-1800,3456,15,5639,32,44,826
440644,1226784,1389176,1229139,1392979,1374,2723,-6904,1435,-2041,3257,-106,5727,28,40,825
441645,1226972,1389396,1229336,1393176,1304,2739,-6481,1855,-2246,3063,-19,5954,28,40,825
442648,1227148,1389592,1229533,1393373,1389,2890,-6021,2311,-2425,2753,90,5955,50,51,829
443649,1227324,1389804,1229730,1393570,1398,2784,-5531,2704,-2592,2270,402,5924,50,51,829
444649,1227536,1390060,1229927,1393767,1167,2484,-5049,3018,-2746,1667,479,5987,39,37,828
445651,1227696,1390288,1230124,1393964,1508,2646,-4617,3462,-2843,759,-71,6511,39,37,828
446651,1227832,1390532,1230321,1394161,1686,2526,-4186,3996,-2839,-289,-459,6653,47,40,828
447652,1227996,1390772,1230518,1394358,1526,2532,-3739,4553,-2751,-1151,-688,6958,47,40,828
448653,1228180,1391028,1230715,1394555,1408,2407,-3327,5243,-2575,-1826,-974,7595,46,51,828
449655,1228332,1391252,1230912,1394752,1627,2597,-2910,5937,-2331,-2523,-994,7442,46,51,828
450656,1228472,1391488,1231109,1394949,1728,2504,-2456,6533,-2058,-3272,-1087,7218,39,45,829
451657,1228624,1391732,1231306,1395146,1673,2435,-1980,6974,-1743,-3948,-1348,7204,39,45,829
452658,1228772,1392028,1231503,1395343,1721,2067,-1496,7396,-1386,-4372,-1574,7101,24,56,829
453659,1228892,1392280,1231700,1395540,1929,2318,-1008,7752,-995,-4670,-1760,6838,24,56,829
454660,1229028,1392520,1231897,1395737,1857,2375,-544,7988,-580,-4908,-1963,6665,37,58,828
455660,1229192,1392792,1232094,1395934,1697,2143,-135,8139,-120,-4937,-2339,6766,37,58,828
456661,1229320,1393060,1232291,1396131,1953,2137,220,8219,382,-4825,-2622,6532,35,41,828
457662,1229452,1393348,1232488,1396328,1957,1973,530,8245,905,-4660,-2855,6216,35,41,828
458663,1229544,1393620,1232685,1396525,2254,2040,811,8070,1407,-4405,-3028,5635,18,57,831
459665,1229668,1393860,1232882,1396722,2087,2222,1064,7686,1867,-4032,-3008,5158,18,57,831
460665,1229784,1394104,1233079,1396919,2172,2177,1273,7106,2246,-3593,-2921,4671,17,42,830
461666,1229892,1394404,1233276,1397116,2263,1782,1433,6376,2534,-3269,-2791,4117,17,42,830
462667,1230000,1394664,1233473,1397313,2303,2006,1550,4708,2733,-3517,-2710,2035,38,59,828
463668,1230144,1394928,1233670,1397510,2101,1951,1614,1834,2822,-3289,-2841,642,38,59,828
464669,1230268,1395168,1233867,1397707,2259,2083,1623,-628,2982,-2976,-2603,2941,34,49,829
465670,1230428,1395388,1234064,1397904,2051,2198,1563,-1513,3222,-1751,-1984,5213,34,49,829
466671,1230580,1395644,1234261,1398101,2121,1947,1436,-1399,3367,-850,-1305,5749,42,43,828
467672,1230700,1395936,1234458,1398298,2356,1681,1337,-1478,3372,-794,-530,5211,42,43,828
468673,1230848,1396232,1234655,1398495,2203,1613,1313,-1915,3247,-673,-46,5090,22,57,829
469674,1230996,1396488,1234852,1398692,2225,1838,1379,-2605,3056,-269,181,4502,22,57,829
470675,1231144,1396732,1235049,1398889,2248,1892,1500,-3116,2898,-52,160,4958,34,49,829
471676,1231276,1396988,1235246,1399086,2377,1792,1624,-3538,2777,162,238,4795,34,49,829
472677,1231456,1397320,1235443,1399283,2086,1258,1725,-3970,2674,337,360,5033,36,51,830
473678,1231604,1397600,1235640,1399480,2307,1547,1821,-4197,2617,543,412,5584,36,51,830
474679,1231776,1397888,1235837,1399677,2169,1458,1911,-4330,2565,789,491,5547,41,65,829
475681,1231956,1398144,1236034,1399874,2128,1632,2005,-4313,2513,697,592,5903,41,65,829
476681,1232160,1398424,1236231,1400071,1976,1445,2125,-4357,2450,540,728,5656,31,60,829
477683,1232340,1398756,1236428,1400268,2133,1062,2267,-4330,2343,478,799,5829,31,60,829
478683,1232520,1399056,1236625,1400465,2141,1217,2438,-4229,2212,252,800,5723,50,57,830
479684,1232708,1399340,1236822,1400662,2096,1278,2619,-4095,2071,35,735,5879,50,57,830
480685,1232896,1399592,1237019,1400859,2101,1455,2788,-3867,1944,-137,541,5980,44,63,833
481686,1233096,1399900,1237216,1401056,2026,1057,2959,-3582,1843,-310,464,6033,44,63,833
482687,1233332,1400228,1237413,1401253,1784,874,3122,-3167,1749,-457,254,6131,52,50,833
483688,1233544,1400520,1237610,1401450,1928,1057,3307,-2762,1687,-639,97,6056,52,50,833
484689,1233728,1400780,1237807,1401647,2110,1230,3513,-2290,1671,-809,-245,5980,34,46,834
485690,1233964,1401032,1238004,1401844,1769,1256,3668,-1893,1678,-888,-586,5575,34,46,834
486691,1234168,1401272,1238201,1402041,1966,1312,3779,-1546,1677,-1014,-614,5409,34,47,835
487692,1234396,1401560,1238398,1402238,1803,972,3884,-1228,1668,-1062,-729,5141,34,47,835
488693,1234612,1401836,1238595,1402435,1871,1013,3961,-887,1666,-951,-703,5026,53,57,834
489694,1234832,1402064,1238792,1402632,1837,1299,4004,-489,1711,-739,-471,4971,53,57,834
490695,1235032,1402280,1238989,1402829,1961,1366,4025,-61,1804,-482,-586,4789,39,39,836
491697,1235248,1402484,1239186,1403026,1853,1438,4036,356,1937,-308,-683,4550,39,39,836
492697,1235448,1402696,1239383,1403223,1953,1381,4039,661,2087,-147,-264,4240,44,46,834
493699,1235648,1402980,1239580,1403420,1952,894,4018,868,2150,67,603,3774,44,46,834
494699,1235880,1403208,1239777,1403617,1738,1230,3980,919,2166,309,744,3138,33,35,834
495700,1236076,1403416,1239974,1403814,1963,1350,3925,895,2191,585,642,2890,33,35,834
496701,1236268,1403608,1240171,1404011,1992,1453,3831,780,2242,876,568,2574,41,37,835
497702,1236484,1403808,1240368,1404208,1834,1401,3701,659,2303,1141,299,2317,41,37,835
498703,1236696,1403968,1240565,1404405,1854,1668,3529,473,2309,1357,593,1974,43,50,832
499704,1236876,1404204,1240762,1404602,2061,1175,3318,224,2239,1517,766,1838,43,50,832
500705,1237076,1404416,1240959,1404799,1936,1319,3091,-28,2128,1620,793,1875,42,30,832
501706,1237288,1404624,1241156,1404996,1855,1339,2847,-222,1961,1574,1009,1878,42,30,832
502707,1237488,1404812,1241353,1405193,1929,1468,2576,-320,1721,1493,1146,2032,51,41,833
503708,1237664,1405004,1241550,1405390,2089,1445,2272,-367,1420,1469,960,2072,51,41,833
504709,1237848,1405172,1241747,1405587,2046,1608,1938,-408,1088,1543,305,2186,47,36,834
505710,1238004,1405344,1241944,1405784,2240,1594,1589,-415,722,1568,254,2259,47,36,834
506711,1238160,1405576,1242141,1405981,2258,1203,1220,-408,285,1499,998,2224,24,36,832
507712,1238324,1405784,1242338,1406178,2223,1350,826,-393,-192,1433,1299,2218,24,36,832
508720,1238468,1405988,1242568,1406408,2387,1386,415,-323,-610,1482,921,2450,27,33,830
509715,1238640,1406180,1242765,1406605,2224,1463,3,-165,-887,1534,157,2520,27,33,830
510715,1238808,1406388,1242962,1406802,2263,1358,-358,-62,-1054,1529,-139,2372,45,44,830
511716,1238944,1406552,1243159,1406999,2490,1648,-673,-19,-1148,1660,-569,2199,45,44,830
512717,1239104,1406712,1243356,1407196,2357,1689,-1175,-345,-1206,1971,-600,1486,36,44,831
513718,1239240,1406912,1243553,1407393,2535,1438,-1392,-692,-1196,2009,-395,1187,36,44,831
514719,1239388,1407136,1243750,1407590,2482,1276,-1593,-1133,-1128,2046,22,1009,40,36,829
515720,1239536,1407340,1243947,1407787,2505,1398,-1798,-1577,-1014,2137,372,1132,40,36,829
516721,1239688,1407552,1244144,1407984,2500,1341,-2010,-1895,-880,2150,775,1417,21,44,829
517722,1239868,1407728,1244341,1408181,2333,1576,-2228,-2118,-745,2071,1343,1809,21,44,829
518723,1240076,1407872,1244538,1408378,2154,1799,-2445,-2238,-612,2093,1660,2232,28,43,830
519724,1240328,1408048,1244735,1408575,1856,1609,-2670,-2183,-483,2083,1680,2818,28,43,830
520725,1240560,1408280,1244932,1408772,1967,1244,-2907,-1897,-363,2064,1379,3405,49,33,829
521727,1240764,1408428,1245129,1408969,2140,1790,-3154,-1516,-255,2019,830,3614,49,33,829
522727,1240976,1408624,1245326,1409166,2083,1491,-3431,-1138,-211,1900,563,3832,36,36,831
523728,1241224,1408768,1245523,1409363,1837,1839,-3696,-732,-247,1889,261,4017,36,36,831
524729,1241488,1408940,1245720,1409560,1708,1675,-3945,-325,-361,1849,15,4167,58,28,830
525730,1241716,1409100,1245917,1409757,1921,1766,-4166,92,-511,1775,-411,4306,58,28,830
526731,1241960,1409240,1246114,1409954,1801,1916,-4351,449,-679,1893,-576,4226,59,36,831
527732,1242196,1409384,1246311,1410151,1834,1915,-4489,767,-849,2172,-722,4159,59,36,831
528733,1242384,1409492,1246508,1410348,2139,2180,-4579,1051,-999,2349,-858,4135,43,20,832
529734,1242628,1409612,1246705,1410545,1769,2139,-4651,1288,-1114,2468,-962,4068,43,20,832
530735,1242876,1409752,1246902,1410742,1723,2039,-4710,1365,-1185,2621,-1038,3840,49,37,831
531736,1243064,1409944,1247099,1410939,2103,1716,-4762,1403,-1210,2856,-1089,3840,49,37,831
532737,1243316,1410120,1247296,1411136,1679,1825,-4804,1342,-1213,3065,-1099,3550,51,23,829
533738,1243552,1410264,1247493,1411333,1762,2049,-4819,1200,-1236,3063,-978,3388,51,23,829
534739,1243764,1410424,1247690,1411530,1907,1966,-4805,1013,-1284,3026,-697,3421,56,23,831
535740,1244080,1410564,1247887,1411727,1205,2116,-4749,812,-1367,2997,-522,3431,56,23,831
536741,1244360,1410708,1248084,1411924,1394,2114,-4688,695,-1467,2872,-742,3796,43,34,831
537742,1244656,1410852,1248281,1412121,1252,2137,-4618,685,-1542,2678,-1027,4104,43,34,831
538743,1244960,1410988,1248478,1412318,1155,2215,-4520,761,-1600,2410,-1170,4426,53,21,833
539744,1245256,1411140,1248675,1412515,1162,2135,-4382,937,-1669,2099,-1138,4797,53,21,833
540745,1245496,1411284,1248872,1412712,1494,2208,-4207,1241,-1767,1770,-902,5192,47,30,832
541747,1245776,1411440,1249069,1412909,1209,2151,-3987,1609,-1887,1440,-954,5521,47,30,832
542747,1245972,1411628,1249266,1413106,1734,1956,-3701,1929,-1981,1262,-1569,5366,41,21,832
543748,1246168,1411800,1249463,1413303,1735,2067,-3409,2211,-2049,1101,-1684,5447,41,21,832
544749,1246392,1411972,1249660,1413500,1550,2078,-3124,2549,-2092,940,-1650,5400,33,23,831
545750,1246552,1412096,1249857,1413697,1966,2411,-2853,2786,-2115,777,-1105,5234,33,23,831
546751,1246728,1412236,1250054,1413894,1876,2336,-2606,2975,-2132,621,-420,5218,41,40,830
547752,1246928,1412356,1250251,1414091,1725,2495,-2382,3127,-2114,596,-480,5128,41,40,830
548753,1247120,1412536,1250448,1414288,1778,2127,-2175,3292,-2050,577,-735,5076,26,25,826
549754,1247308,1412724,1250645,1414485,1808,2082,-2009,3438,-1947,370,-1108,5063,26,25,826
550755,1247528,1412936,1250842,1414682,1598,1926,-1857,3600,-1798,169,-1954,5231,49,30,828
551756,1247760,1413112,1251039,1414879,1508,2160,-1689,3730,-1625,81,-2585,5108,49,30,828
552757,1247944,1413272,1251236,1415076,1815,2277,-1494,3849,-1477,-75,-2611,4905,32,34,830
553758,1248124,1413476,1251433,1415273,1848,1999,-1311,3882,-1376,-139,-2291,4856,32,34,830
554759,1248336,1413628,1251630,1415470,1642,2344,-1166,3893,-1298,-104,-2090,4936,49,42,830
555760,1248528,1413808,1251827,1415667,1769,2177,-1012,3878,-1213,-143,-1914,4838,49,42,830
556761,1248680,1414008,1252024,1415864,2040,2051,-872,3832,-1140,-132,-1267,4853,30,30,830
557762,1248888,1414196,1252221,1416061,1686,2131,-719,3677,-1074,7,-959,4361,30,30,830
558763,1249040,1414392,1252418,1416258,2056,2082,-557,3353,-952,248,-1497,3812,33,45,830
559764,1249216,1414580,1252615,1416455,1916,2135,-392,2852,-773,398,-1732,3360,33,45,830
560765,1249404,1414760,1252812,1416652,1846,2194,-252,2236,-587,404,-1651,3260,24,29,830
561766,1249592,1414936,1253009,1416849,1850,2228,-127,1694,-387,412,-2011,3372,24,29,830
562767,1249776,1415088,1253206,1417046,1882,2398,-45,1196,-165,404,-2031,3516,26,43,829
563768,1249980,1415292,1253403,1417243,1755,2071,14,793,64,344,-1700,3744,26,43,829
564769,1250172,1415488,1253600,1417440,1832,2121,56,497,270,349,-1389,4040,30,27,828
565770,1250376,1415684,1253797,1417637,1755,2122,94,285,425,367,-1124,4318,30,27,828
566771,1250576,1415844,1253994,1417834,1780,2364,116,140,537,366,-831,4492,40,28,829
567772,1250768,1416052,1254191,1418031,1832,2059,135,24,609,405,-672,4550,40,28,829
568773,1250940,1416244,1254388,1418228,1969,2162,191,-110,682,613,-1010,4547,46,35,830
569774,1251124,1416408,1254585,1418425,1900,2352,290,-227,791,884,-1610,4612,46,35,830
570775,1251320,1416576,1254782,1418622,1826,2340,404,-313,917,1154,-2012,4579,44,36,830
571776,1251484,1416748,1254979,1418819,2041,2327,508,-398,1001,1295,-1780,4449,44,36,830
572777,1251648,1416936,1255176,1419016,2057,2231,597,-476,1029,1227,-1719,4561,48,41,828
573779,1251852,1417112,1255373,1419213,1804,2316,700,-523,1000,937,-1631,4682,48,41,828
574779,1251996,1417284,1255570,1419410,2203,2352,831,-504,943,842,-1489,4915,28,41,827
575780,1252136,1417480,1255767,1419607,2254,2202,993,-395,884,961,-1079,4957,28,41,827
576781,1252312,1417644,1255964,1419804,2038,2418,1145,-251,862,1277,-1112,4943,37,40,827
577783,1252460,1417800,1256161,1420001,2236,2486,1243,-122,880,1369,-943,4831,37,40,827
578783,1252596,1417940,1256358,1420198,2339,2612,1281,-100,896,1292,-824,4657,22,27,827
579784,1252768,1418104,1256555,1420395,2125,2476,1269,-119,890,1306,-725,4488,22,27,827
580785,1252932,1418288,1256752,1420592,2190,2357,1251,-161,858,1251,-284,4236,22,30,825
581787,1253064,1418472,1256949,1420789,2420,2364,1249,-210,830,1055,-327,4160,22,30,825
582787,1253240,1418668,1257146,1420986,2155,2289,1268,-271,832,816,-667,4072,22,31,826
583788,1253380,1418812,1257343,1421183,2405,2638,1292,-320,861,693,-789,4089,22,31,826
584789,1253540,1419000,1257540,1421380,2297,2367,1289,-290,937,669,-1310,4289,39,38,825
585791,1253732,1419164,1257737,1421577,2101,2533,1269,-183,1039,515,-1231,4441,39,38,825
586791,1253884,1419340,1257934,1421774,2371,2467,1269,-41,1111,242,-963,4543,29,32,823
587793,1254016,1419500,1258131,1421971,2525,2584,1295,145,1169,110,-1345,4689,29,32,823
588793,1254188,1419668,1258328,1422168,2287,2547,1360,415,1212,61,-1316,4752,39,37,824
589794,1254340,1419844,1258525,1422365,2433,2507,1449,682,1251,21,-1261,4700,39,37,824
590795,1254436,1420040,1258722,1422562,2828,2383,1523,917,1292,-78,-1356,4679,33,30,823
591805,1254588,1420256,1258952,1422792,2513,2264,1556,1096,1332,-135,-1224,4545,33,30,823
592797,1254736,1420432,1259149,1422989,2560,2524,1557,1259,1331,-132,-928,4440,36,37,824
593798,1254872,1420608,1259346,1423186,2663,2533,1551,1319,1271,-123,-812,4104,36,37,824
594799,1255004,1420788,1259543,1423383,2717,2517,1542,1318,1158,-190,-523,3939,23,36,824
595800,1255160,1420968,1259740,1423580,2586,2524,1497,1277,1041,-174,-258,3936,23,36,824
596801,1255260,1421184,1259937,1423777,2980,2292,1416,1181,979,-37,-240,3779,29,47,822
597802,1255420,1421360,1260134,1423974,2622,2551,1305,1088,990,106,-416,3827,29,47,822
598803,1255584,1421572,1260331,1424171,2613,2321,1178,1054,1073,128,-663,3844,20,30,821
599804,1255736,1421752,1260528,1424368,2707,2528,1074,875,1191,146,-602,3456,20,30,821
600805,1255876,1421948,1260725,1424565,2808,2430,999,618,1309,184,-755,3332,24,35,822
601806,1256056,1422156,1260922,1424762,2567,2350,963,318,1386,19,-609,3172,24,35,822
602807,1256212,1422392,1261119,1424959,2736,2159,948,11,1387,-189,-266,3162,30,49,822
603808,1256336,1422604,1261316,1425156,2969,2302,968,-329,1329,-361,23,3051,30,49,822
604809,1256500,1422816,1261513,1425353,2734,2296,1022,-625,1277,-440,77,3316,38,49,823
605810,1256664,1423064,1261710,1425550,2750,2049,1093,-716,1279,-470,-3,3935,38,49,823
606811,1256824,1423292,1261907,1425747,2792,2161,1166,-703,1334,-606,-180,4168,42,42,822
607812,1256956,1423552,1262104,1425944,2997,1934,1225,-568,1418,-711,-414,4501,42,42,822
608813,1257136,1423788,1262301,1426141,2705,2068,1240,-444,1505,-747,-687,4635,36,53,824
609814,1257276,1424028,1262498,1426338,2981,2024,1212,-226,1587,-851,-856,4858,36,53,824
610816,1257424,1424240,1262695,1426535,2954,2193,1195,-58,1639,-1126,-412,4717,39,46,822
611816,1257604,1424484,1262892,1426732,2762,1972,1212,76,1654,-1251,-27,4731,39,46,822
612817,1257764,1424692,1263089,1426929,2905,2194,1254,160,1651,-1188,241,4665,39,40,823
613818,1257932,1424980,1263286,1427126,2868,1654,1304,263,1667,-1174,241,4685,39,40,823
614819,1258120,1425236,1263483,1427323,2748,1828,1339,338,1719,-1166,138,4640,47,42,825
615820,1258296,1425500,1263680,1427520,2834,1749,1375,338,1820,-1110,-159,4475,29,41,826
616821,1258504,1425744,1263877,1427717,2630,1854,1438,310,1946,-907,-356,4405,29,41,826
617822,1258672,1425964,1264074,1427914,2893,1993,1535,238,2034,-837,-175,4258,26,44,825
618823,1258856,1426256,1264271,1428111,2800,1503,1662,155,2088,-764,-844,4228,26,44,825
619824,1259028,1426536,1264468,1428308,2887,1541,1828,-5,2128,-684,-1099,4063,27,54,822
620825,1259204,1426800,1264665,1428505,2872,1613,1968,-144,2145,-575,-690,4284,27,54,822
621826,1259368,1427112,1264862,1428702,2963,1262,2049,-218,2166,-471,-241,4332,39,60,826
622827,1259588,1427328,1265059,1428899,2604,1854,2100,-250,2215,-395,221,4502,39,60,826
623828,1259740,1427528,1265256,1429096,3050,1953,2160,-261,2264,-455,614,4623,32,38,826
624829,1259964,1427676,1265453,1429293,2589,2300,2220,-234,2301,-423,551,4805,32,38,826
625830,1260128,1427828,1265650,1429490,2979,2295,2291,-192,2346,-357,427,4853,43,36,823
626831,1260296,1428024,1265847,1429687,2968,2020,2377,-125,2407,-272,759,4828,43,36,823
627832,1260440,1428228,1266044,1429884,3143,1968,2455,-82,2431,-267,905,4730,22,31,822
628833,1260616,1428488,1266241,1430081,2953,1591,2548,6,2413,-157,316,4942,22,31,822
629834,1260740,1428796,1266438,1430278,3312,1242,2669,68,2363,-120,367,4890,22,56,821
630835,1260884,1429100,1266635,1430475,3211,1221,2777,254,2274,-164,1124,5095,22,56,821
631836,1261032,1429320,1266832,1430672,3208,1736,2853,424,2180,-150,1486,5091,35,63,823
632837,1261164,1429620,1267029,1430869,3338,1190,2900,659,2090,-183,1705,5392,35,63,823
633838,1261320,1429940,1267226,1431066,3207,1011,2935,920,1973,-237,1731,5324,47,62,824
634839,1261524,1430244,1267423,1431263,2905,1065,2984,1166,1814,-295,1610,5176,47,62,824
635840,1261712,1430564,1267620,1431460,3010,911,3026,1411,1620,-295,1435,5213,53,61,826
636841,1261908,1430860,1267817,1431657,2961,1018,3042,1633,1383,-322,1165,4960,53,61,826
637842,1262064,1431156,1268014,1431854,3231,974,3022,1821,1117,-322,1194,4965,37,52,828
638843,1262256,1431400,1268211,1432051,3009,1279,2969,2006,859,-293,1292,4870,37,52,828
639844,1262428,1431728,1268408,1432248,3146,696,2875,2265,632,-279,1289,5006,36,54,826
640845,1262560,1432068,1268605,1432445,3426,558,2736,2542,448,-262,1355,4906,36,54,826
641846,1262724,1432364,1268802,1432642,3241,791,2594,2776,322,-130,1156,4786,35,65,826
642847,1262884,1432620,1268999,1432839,3284,1015,2470,3006,238,-18,1270,4623,35,65,826
643848,1263028,1432916,1269196,1433036,3408,721,2333,3076,148,33,1726,4087,29,66,826
644849,1263184,1433220,1269393,1433233,3353,624,2164,2970,35,138,2223,3547,29,66,826
645850,1263312,1433516,1269590,1433430,3559,631,1969,2697,-126,164,2904,3084,23,44,825
646851,1263468,1433764,1269787,1433627,3403,908,1739,2366,-356,130,3513,2834,23,44,825
647852,1263616,1433956,1269984,1433824,3476,1260,1495,2033,-630,169,3641,2821,23,41,824
648853,1263768,1434144,1270181,1434021,3472,1289,1259,1797,-897,158,3578,2888,23,41,824
649854,1263928,1434348,1270378,1434218,3440,1186,1003,1669,-1126,268,3428,3121,41,43,824
650855,1264120,1434560,1270575,1434415,3243,1129,685,1611,-1289,393,3549,3282,41,43,824
651856,1264264,1434736,1270772,1434612,3567,1363,316,1651,-1377,466,3415,3664,47,30,823
652857,1264436,1434932,1270969,1434809,3404,1238,-61,1788,-1400,539,3067,3791,47,30,823
653858,1264600,1435092,1271166,1435006,3471,1480,-424,2029,-1360,588,2666,4031,50,35,821
654859,1264800,1435260,1271363,1435203,3246,1442,-747,2241,-1317,545,2523,3888,50,35,821
655860,1264988,1435424,1271560,1435400,3326,1482,-1072,2346,-1398,415,2945,3550,36,31,822
656861,1265160,1435588,1271757,1435597,3438,1496,-1373,2430,-1568,431,2850,3579,36,31,822
657862,1265388,1435760,1271954,1435794,3076,1457,-1633,2519,-1764,512,2716,3509,40,43,823
658863,1265572,1435948,1272151,1435991,3358,1361,-1827,2596,-1976,594,2463,3397,40,43,823
659864,1265764,1436112,1272348,1436188,3311,1526,-1943,2646,-2171,651,2196,3112,43,31,824
660865,1265992,1436288,1272545,1436385,3073,1460,-2059,2699,-2331,804,1800,3266,43,31,824
661866,1266192,1436460,1272742,1436582,3249,1496,-2180,2762,-2452,897,1555,3197,53,38,823
662867,1266412,1436608,1272939,1436779,3115,1668,-2314,2839,-2550,990,1408,3342,53,38,823
663868,1266656,1436756,1273136,1436976,2945,1689,-2426,2948,-2649,1096,1162,3295,48,26,823
664869,1266868,1436884,1273333,1437173,3140,1846,-2533,3081,-2760,1056,1010,3505,48,26,823
665870,1267092,1437048,1273530,1437370,3055,1635,-2623,3246,-2887,922,687,3506,55,28,825
666871,1267328,1437204,1273727,1437567,2964,1703,-2695,3412,-3033,806,370,3669,55,28,825
667872,1267536,1437396,1273924,1437764,3135,1480,-2771,3625,-3235,531,416,3797,55,40,824
668873,1267760,1437540,1274121,1437961,3024,1804,-2845,3816,-3527,154,567,3764,55,40,824
669874,1268032,1437700,1274318,1438158,2692,1720,-2913,4100,-3909,-259,388,4150,42,39,825
670875,1268264,1437828,1274515,1438355,2929,1950,-2972,4436,-4329,-575,38,4313,42,39,825
671876,1268472,1437976,1274712,1438552,3075,1847,-3045,4758,-4744,-717,-251,4339,59,24,826
672877,1268716,1438156,1274909,1438749,2830,1654,-3174,5163,-5123,-883,-616,4634,59,24,826
673878,1268916,1438248,1275106,1438946,3105,2250,-3350,5504,-5453,-1156,-1066,4520,35,39,822
674886,1269100,1438364,1275336,1439176,3226,2150,-3537,5845,-5732,-1396,-1585,4643,35,39,822
675880,1269344,1438524,1275533,1439373,2832,1893,-3694,6048,-5913,-1615,-2157,4351,54,28,820
676881,1269552,1438692,1275730,1439570,3053,1855,-3804,6194,-5997,-1739,-2596,4224,54,28,820
677882,1269740,1438848,1275927,1439767,3183,1948,-3859,6227,-6009,-1963,-2721,3860,34,30,824
678883,1269968,1439056,1276124,1439964,2921,1619,-3850,6145,-5945,-2168,-2994,3568,34,30,824
679884,1270224,1439200,1276321,1440161,2721,2042,-3798,5910,-5803,-2309,-3395,3363,36,31,823
680885,1270428,1439320,1276518,1440358,3044,2226,-3693,5534,-5576,-2519,-3651,3125,36,31,823
681886,1270648,1439420,1276715,1440555,2936,2394,-3564,5097,-5298,-2732,-3593,3052,48,22,825
682887,1270908,1439576,1276912,1440752,2659,2062,-3415,4550,-5006,-3054,-3295,2763,48,22,825
683888,1271132,1439764,1277109,1440949,2873,1866,-3271,3928,-4732,-3242,-2751,2885,56,31,821
684889,1271364,1439920,1277306,1441146,2809,2084,-3163,3394,-4479,-3361,-2528,3341,56,31,821
685890,1271644,1440036,1277503,1441343,2473,2370,-3075,2906,-4236,-3593,-2218,3618,48,22,824
686891,1271868,1440176,1277700,1441540,2812,2246,-2982,2463,-3964,-3751,-2082,3979,48,22,824
687892,1272116,1440328,1277897,1441737,2641,2191,-2890,2060,-3632,-3715,-1785,4295,41,37,824
688893,1272388,1440484,1278094,1441934,2459,2184,-2796,1706,-3280,-3621,-1296,4494,41,37,824
689894,1272648,1440644,1278291,1442131,2508,2176,-2715,1320,-2956,-3607,-903,4576,54,30,824
690895,1272948,1440768,1278488,1442328,2214,2433,-2645,959,-2687,-3584,-618,4873,54,30,824
691896,1273224,1440900,1278685,1442525,2330,2412,-2596,599,-2467,-3478,-353,5015,52,30,826
692897,1273508,1441032,1278882,1442722,2243,2440,-2553,285,-2276,-3258,-174,5295,52,30,826
693898,1273816,1441192,1279079,1442919,2045,2282,-2502,-51,-2074,-3030,-62,5290,73,26,826
694899,1274160,1441364,1279276,1443116,1757,2218,-2437,-390,-1859,-2737,52,5329,73,26,826
695900,1274452,1441524,1279473,1443313,2041,2310,-2353,-778,-1649,-2384,249,5314,70,33,826
696901,1274760,1441680,1279670,1443510,1893,2354,-2268,-1176,-1476,-2023,342,5399,70,33,826
697902,1275128,1441820,1279867,1443707,1444,2479,-2144,-1581,-1366,-1709,332,5408,54,43,826
698903,1275480,1441964,1280064,1443904,1477,2477,-1951,-2026,-1318,-1303,202,5690,54,43,826
699904,1275804,1442136,1280261,1444101,1596,2314,-1628,-2396,-1321,-759,1,6376,62,28,829
700905,1276152,1442288,1280458,1444298,1381,2459,-1218,-2701,-1340,-221,-259,6810,62,28,829
701906,1276536,1442448,1280655,1444495,1075,2426,-824,-3026,-1349,176,-579,6424,70,30,829
702907,1276864,1442628,1280852,1444692,1368,2309,-519,-3437,-1357,429,-746,5755,70,30,829
703908,1277156,1442800,1281049,1444889,1552,2370,-247,-3811,-1379,650,-866,5494,68,32,831
704909,1277544,1442988,1281246,1445086,868,2274,5,-4212,-1438,790,-914,5429,68,32,831
705911,1277856,1443144,1281443,1445283,1294,2492,264,-4583,-1528,896,-953,5390,66,39,829
706911,1278180,1443304,1281640,1445480,1164,2485,512,-4975,-1645,994,-831,5291,66,39,829
707912,1278552,1443468,1281837,1445677,787,2474,761,-5242,-1779,1008,-844,5458,65,35,829
708913,1278856,1443616,1282034,1445874,1166,2596,1043,-5450,-1895,965,-1060,5564,65,35,829
709914,1279136,1443820,1282231,1446071,1281,2244,1362,-5546,-1982,916,-1263,5817,67,32,831
710915,1279476,1444016,1282428,1446268,843,2294,1698,-5521,-2057,738,-1325,6053,67,32,831
711916,1279784,1444188,1282625,1446465,995,2456,2043,-5371,-2129,507,-1356,6249,52,32,831
712917,1280048,1444376,1282822,1446662,1241,2360,2392,-5170,-2193,207,-1334,6353,52,32,831
713919,1280320,1444552,1283019,1446859,1159,2445,2757,-4906,-2240,-113,-1196,6381,47,44,832
714919,1280604,1444748,1283216,1447056,1045,2321,3173,-4546,-2253,-429,-1238,6419,47,44,832
715920,1280844,1444948,1283413,1447253,1302,2294,3597,-4141,-2237,-799,-1414,6309,44,36,831
716921,1281124,1445148,1283610,1447450,1016,2294,4010,-3722,-2193,-1160,-1446,6207,44,36,831
717922,1281428,1445372,1283807,1447647,820,2132,4417,-3306,-2134,-1502,-1517,6016,44,47,830
718923,1281664,1445552,1284004,1447844,1228,2416,4844,-2855,-2036,-1760,-1840,5869,44,47,830
719924,1281952,1445752,1284201,1448041,864,2289,5237,-2417,-1878,-1961,-1973,5719,64,42,832
720925,1282228,1445944,1284398,1448238,904,2343,5602,-1954,-1698,-2159,-1620,5420,64,42,832
721927,1282512,1446128,1284595,1448435,817,2398,5934,-1501,-1518,-2331,-1177,5225,69,37,832
722927,1282812,1446344,1284792,1448632,672,2190,6228,-1099,-1329,-2405,-993,4801,69,37,832
723928,1283104,1446536,1284989,1448829,680,2343,6463,-788,-1134,-2456,-987,4385,66,39,832
724929,1283384,1446772,1285186,1449026,719,2051,6640,-562,-918,-2438,-1193,3936,66,39,832
725930,1283664,1447000,1285383,1449223,683,2088,6762,-435,-698,-2351,-1389,3423,66,54,833
726931,1283988,1447240,1285580,1449420,352,1995,6846,-397,-472,-2257,-1410,2834,66,54,833
727932,1284264,1447500,1285777,1449617,618,1843,6906,-523,-247,-2108,-1463,2241,69,50,834
728933,1284552,1447744,1285974,1449814,503,1922,6954,-717,-16,-1940,-1651,1776,69,50,834
729934,1284836,1447972,1286171,1450011,490,2009,6975,-997,211,-1807,-1629,1354,45,53,835
730935,1285120,1448200,1286368,1450208,452,1996,6952,-1342,442,-1581,-1698,1030,45,53,835
731936,1285344,1448440,1286565,1450405,816,1902,6884,-1736,672,-1425,-1608,685,38,52,835
732937,1285616,1448664,1286762,1450602,483,1991,6763,-2144,898,-1217,-1450,449,38,52,835
733938,1285844,1448884,1286959,1450799,744,2006,6609,-2581,1136,-962,-1284,291,49,57,835
734939,1286124,1449120,1287156,1450996,383,1889,6440,-3046,1397,-794,-1225,82,49,57,835
735940,1286320,1449352,1287353,1451193,909,1900,6237,-3478,1658,-601,-1167,-61,52,37,835
736941,1286536,1449556,1287550,1451390,776,2071,5995,-4001,1923,-323,-1111,-443,52,37,835
737943,1286760,1449776,1287747,1451587,714,1961,5711,-4479,2221,67,-1024,-353,53,33,835
738943,1286984,1449964,1287944,1451784,702,2166,5385,-5019,2561,301,-712,-621,53,33,835
739944,1287168,1450132,1288141,1451981,958,2304,5029,-5476,2927,556,-451,-412,47,44,834
740945,1287348,1450320,1288338,1452178,991,2183,4669,-5844,3310,767,-139,-393,47,44,834
741946,1287536,1450472,1288535,1452375,946,2429,4295,-6141,3706,1091,190,-155,50,28,831
742947,1287708,1450636,1288732,1452572,1057,2368,3911,-6368,4103,1355,552,18,50,28,831
743948,1287880,1450808,1288929,1452769,1067,2329,3507,-6486,4487,1580,891,307,34,24,831
744949,1288072,1450928,1289126,1452966,945,2689,3059,-6522,4819,1836,1283,577,34,24,831
745950,1288224,1451084,1289323,1453163,1214,2482,2580,-6474,5093,2065,1634,790,26,33,831
746951,1288392,1451184,1289520,1453360,1128,2876,2083,-6342,5286,2290,2059,1039,26,33,831
747952,1288572,1451276,1289717,1453557,1061,2972,1554,-6136,5413,2517,2222,1190,34,31,829
748953,1288716,1451412,1289914,1453754,1309,2724,970,-5834,5475,2695,2334,1590,34,31,829
749954,1288860,1451504,1290111,1453951,1332,3046,357,-5440,5461,2841,2453,1851,28,14,827
750955,1289016,1451600,1290308,1454148,1276,3065,-265,-5023,5368,2987,2522,2079,28,14,827
751956,1289152,1451720,1290505,1454345,1428,2950,-897,-4545,5209,3104,2488,2397,26,12,824
752957,1289308,1451816,1290702,1454542,1321,3144,-1513,-4006,5028,3363,2089,2683,26,12,824
753958,1289464,1451904,1290899,1454739,1339,3243,-2088,-3411,4822,3613,1679,2850,29,18,825
754959,1289632,1452000,1291096,1454936,1278,3238,-2628,-2915,4561,3786,1722,2757,29,18,825
755960,1289780,1452108,1291293,1455133,1424,3203,-3195,-2525,4223,3916,1883,2655,21,30,823
756961,1289944,1452200,1291490,1455330,1339,3350,-3799,-2192,3883,4305,1563,2843,21,30,823
757969,1290108,1452320,1291720,1455560,1368,3223,-4396,-1892,3544,4632,1512,2803,30,30,823
758963,1290276,1452436,1291917,1455757,1357,3285,-4922,-1844,3153,4638,1435,2083,30,30,823
759964,1290436,1452564,1292114,1455954,1423,3240,-5356,-1945,2698,4819,1498,2028,30,14,824
760965,1290608,1452684,1292311,1456151,1359,3325,-5698,-2097,2191,5078,1664,2020,30,14,824
761967,1290784,1452800,1292508,1456348,1344,3387,-5917,-2322,1679,5152,1368,1698,33,26,823
762967,1290956,1452916,1292705,1456545,1380,3422,-6035,-2614,1215,5195,1005,1806,33,26,823
763968,1291152,1453076,1292902,1456742,1231,3165,-6139,-2771,821,5301,517,2648,39,37,822
764969,1291312,1453256,1293099,1456939,1473,3048,-6238,-2664,497,5175,115,3461,39,37,822
765970,1291488,1453420,1293296,1457136,1382,3163,-6305,-2330,222,4912,-172,4140,42,22,824
766971,1291680,1453584,1293493,1457333,1284,3178,-6345,-1807,-18,4695,-302,4817,42,22,824
767972,1291840,1453744,1293690,1457530,1501,3220,-6340,-1226,-219,4371,-293,5181,46,24,824
768973,1292020,1453912,1293887,1457727,1384,3184,-6261,-601,-418,4005,-31,5325,46,24,824
769974,1292212,1454092,1294084,1457924,1311,3116,-6097,-79,-650,3580,95,5299,44,32,823
770975,1292388,1454272,1294281,1458121,1421,3125,-5852,392,-904,3131,79,5292,44,32,823
771976,1292548,1454468,1294478,1458318,1538,3026,-5543,811,-1146,2800,104,5303,35,35,825
772977,1292724,1454692,1294675,1458515,1448,2841,-5226,1278,-1355,2599,236,5447,35,35,825
773978,1292904,1454924,1294872,1458712,1430,2775,-4870,1701,-1526,2414,305,5411,30,47,824
774979,1293096,1455148,1295069,1458909,1358,2814,-4440,2054,-1660,2277,141,5137,30,47,824
775980,1293256,1455376,1295266,1459106,1575,2777,-3963,2306,-1758,2073,116,5007,34,52,827
776981,1293416,1455624,1295463,1459303,1591,2629,-3479,2485,-1817,1692,67,4988,34,52,827
777982,1293568,1455876,1295660,1459500,1661,2581,-3021,2698,-1831,1174,-267,5075,42,42,826
778983,1293728,1456108,1295857,1459697,1628,2692,-2625,3007,-1793,479,-267,5565,42,42,826
779984,1293892,1456364,1296054,1459894,1618,2516,-2269,3405,-1724,-128,-122,5809,27,55,827
780985,1294048,1456604,1296251,1460091,1687,2598,-1916,3848,-1649,-702,-49,5877,27,55,827
781986,1294196,1456860,1296448,1460288,1758,2473,-1571,4294,-1570,-1303,-204,6096,24,42,827
782987,1294368,1457092,1296645,1460485,1619,2608,-1211,4719,-1457,-1838,-803,6122,24,42,827
783988,1294496,1457340,1296842,1460682,1925,2486,-818,5111,-1274,-2295,-1153,6176,25,51,827
784989,1294668,1457628,1297039,1460879,1661,2197,-447,5497,-1069,-2626,-1032,6107,25,51,827
785990,1294820,1457896,1297236,1461076,1807,2291,-108,5800,-878,-2820,-941,5878,32,44,826
786991,1294936,1458144,1297433,1461273,2068,2395,231,6001,-644,-3023,-1177,5601,32,44,826
787992,1295060,1458432,1297630,1461470,2051,2106,560,6115,-344,-3171,-1390,5487,38,58,828
788993,1295172,1458704,1297827,1461667,2163,2173,846,6193,8,-3204,-1534,5515,38,58,828
789994,1295296,1458996,1298024,1461864,2121,2007,1073,6286,372,-3252,-1534,5454,25,63,828
790995,1295424,1459256,1298221,1462061,2127,2179,1260,6233,688,-3156,-1498,4905,25,63,828
791996,1295544,1459496,1298418,1462258,2211,2286,1403,6089,950,-2944,-1436,4767,27,56,827
792997,1295676,1459784,1298615,1462455,2165,1946,1501,5831,1163,-2784,-1144,4451,27,56,827
793998,1295792,1460072,1298812,1462652,2302,1907,1581,5434,1340,-2688,-847,3958,26,45,826
794999,1295972,1460328,1299009,1462849,1909,2081,1657,4918,1517,-2569,-845,3766,26,45,826
796000,1296112,1460600,1299206,1463046,2185,1949,1684,4400,1707,-2267,-745,3733,28,39,826
797001,1296236,1460836,1299403,1463243,2318,2157,1666,3855,1869,-1971,-522,3536,28,39,826
798002,1296388,1461080,1299600,1463440,2163,2088,1619,3320,1978,-1830,-547,3595,41,47,828
799003,1296524,1461368,1299797,1463637,2291,1773,1561,2775,2067,-1658,-801,3704,41,47,828
800004,1296680,1461676,1299994,1463834,2184,1600,1489,2258,2138,-1464,-834,3745,34,63,827
801005,1296828,1461968,1300191,1464031,2256,1658,1399,1770,2162,-1232,-523,3768,34,63,827
802006,1297000,1462240,1300388,1464228,2118,1750,1286,1295,2147,-1078,-216,3799,26,61,829
803007,1297148,1462496,1300585,1464425,2290,1825,1191,814,2133,-979,-130,3820,26,61,829
804008,1297328,1462808,1300782,1464622,2098,1425,1149,405,2133,-897,-197,3949,27,64,829
805009,1297536,1463120,1300979,1464819,1920,1374,1160,70,2126,-812,-181,4039,27,64,829
806010,1297720,1463404,1301176,1465016,2075,1512,1205,-288,2104,-855,-75,3978,30,59,830
807011,1297876,1463664,1301373,1465213,2269,1634,1278,-616,2069,-860,7,4081,30,59,830
808012,1298076,1463952,1301570,1465410,1994,1419,1379,-965,2034,-853,84,3957,37,48,831
809013,1298272,1464284,1301767,1465607,2019,1086,1511,-1251,2001,-889,95,4055,37,48,831
810014,1298460,1464584,1301964,1465804,2074,1241,1658,-1516,1958,-987,110,4024,54,53,831
811015,1298684,1464864,1302161,1466001,1838,1329,1795,-1730,1926,-1072,175,4089,54,53,831
812016,1298904,1465104,1302358,1466198,1853,1560,1919,-1948,1880,-1089,289,4036,47,61,833
813017,1299092,1465420,1302555,1466395,2058,1034,2017,-2093,1828,-1141,363,4074,47,61,833
814018,1299328,1465760,1302752,1466592,1742,821,2088,-2164,1804,-1091,402,4244,39,56,832
815019,1299532,1466040,1302949,1466789,1939,1160,2139,-2199,1816,-1072,427,4244,39,56,832
816020,1299748,1466308,1303146,1466986,1857,1203,2187,-2154,1865,-952,59,4370,54,59,834
817021,1300004,1466544,1303343,1467183,1582,1386,2244,-2058,1959,-859,-209,4312,54,59,834
818022,1300212,1466780,1303540,1467380,1877,1369,2307,-1930,2023,-906,117,4310,59,41,832
819023,1300420,1467060,1303737,1467577,1873,1058,2391,-1806,2047,-965,196,4182,59,41,832
820024,1300648,1467352,1303934,1467774,1735,942,2489,-1686,2090,-959,-192,4147,36,46,833
821025,1300832,1467576,1304131,1467971,2016,1355,2548,-1555,2151,-909,-219,4081,36,46,833
822026,1301028,1467792,1304328,1468168,1943,1397,2569,-1428,2196,-797,34,3919,54,36,834
823027,1301264,1467996,1304525,1468365,1676,1469,2567,-1361,2234,-644,71,3739,54,36,834
824028,1301436,1468192,1304722,1468562,2088,1519,2540,-1274,2276,-407,243,3705,30,42,832
825029,1301628,1468480,1304919,1468759,1966,904,2485,-1165,2321,-218,488,3569,30,42,832
826030,1301804,1468696,1305116,1468956,2075,1346,2413,-1067,2383,102,187,3569,29,39,831
827031,1302032,1468924,1305313,1469153,1737,1257,2340,-975,2469,459,-39,3484,29,39,831
828032,1302208,1469152,1305510,1469350,2073,1244,2268,-857,2536,755,208,3439,44,45,832
829033,1302372,1469328,1305707,1469547,2162,1578,2203,-766,2554,1009,439,3266,44,45,832
830034,1302576,1469528,1305904,1469744,1910,1426,2135,-724,2505,1154,666,3023,50,37,831
831035,1302768,1469804,1306101,1469941,1987,917,2045,-705,2408,1285,786,2984,50,37,831
832036,1302984,1470048,1306298,1470138,1830,1096,1921,-732,2276,1460,733,2745,42,50,831
833037,1303172,1470280,1306495,1470335,2010,1156,1770,-802,2107,1641,627,2703,42,50,831
834038,1303352,1470476,1306692,1470532,2067,1381,1611,-854,1895,1726,925,2652,29,34,833
835039,1303520,1470656,1306889,1470729,2156,1489,1459,-890,1633,1832,1132,2613,29,34,833
836040,1303700,1470856,1307086,1470926,2089,1362,1309,-903,1315,1861,1221,2605,44,35,831
837041,1303848,1471096,1307283,1471123,2311,1093,1149,-944,943,1847,1439,2505,44,35,831
838042,1304008,1471312,1307480,1471320,2253,1235,955,-897,530,1830,1273,2675,35,38,831
839043,1304208,1471544,1307677,1471517,2003,1120,757,-855,117,1555,769,2737,35,38,831
840044,1304400,1471760,1307874,1471714,2055,1211,552,-720,-272,1416,268,3040,28,43,829
841052,1304544,1471976,1308104,1471944,2394,1217,328,-560,-596,1453,-374,3126,28,43,829
842046,1304724,1472152,1308301,1472141,2177,1477,51,-321,-829,1613,-723,3301,45,32,832
843047,1304888,1472352,1308498,1472338,2292,1325,-291,-79,-998,1680,-600,3191,45,32,832
844049,1305048,1472576,1308695,1472535,2334,1163,-668,33,-1150,1632,-361,3004,26,50,830
845049,1305216,1472776,1308892,1472732,2298,1312,-1065,81,-1265,1648,16,2925,26,50,830
846050,1305384,1473000,1309089,1472929,2311,1150,-1437,100,-1324,1712,535,2695,40,40,830
847051,1305556,1473212,1309286,1473126,2298,1219,-1747,59,-1316,1828,1108,2555,40,40,830
848052,1305768,1473400,1309483,1473323,2042,1373,-2009,-118,-1301,1888,1897,2211,27,46,830
849053,1305948,1473568,1309680,1473520,2250,1510,-2244,-317,-1299,1971,2268,2221,27,46,830
850054,1306140,1473780,1309877,1473717,2178,1229,-2471,-562,-1294,1950,2345,2101,29,35,831
851055,1306336,1473968,1310074,1473914,2154,1383,-2692,-821,-1258,1956,1966,2203,29,35,831
852056,1306540,1474176,1310271,1474111,2102,1253,-2900,-1036,-1193,2010,1505,2503,35,37,830
853057,1306748,1474344,1310468,1474308,2072,1516,-3081,-1145,-1104,2003,1076,2845,35,37,830
854058,1306964,1474520,1310665,1474505,2015,1475,-3267,-1131,-1002,1900,983,3271,54,22,831
855059,1307220,1474660,1310862,1474702,1740,1725,-3490,-1020,-903,1779,858,3488,54,22,831
856060,1307448,1474796,1311059,1474899,1901,1777,-3738,-841,-813,1739,419,3954,55,36,831
857061,1307668,1474932,1311256,1475096,1942,1804,-3981,-555,-734,1773,33,4318,55,36,831
858062,1307888,1475064,1311453,1475293,1933,1857,-4197,-233,-688,1753,-294,4541,40,24,830
859063,1308116,1475236,1311650,1475490,1870,1618,-4379,80,-685,1684,-372,4597,40,24,830
860064,1308348,1475428,1311847,1475687,1830,1495,-4534,361,-706,1633,-548,4655,56,27,829
861065,1308588,1475608,1312044,1475884,1762,1578,-4693,672,-740,1745,-807,4839,56,27,829
862066,1308808,1475772,1312241,1476081,1877,1692,-4822,918,-775,1870,-982,4674,56,33,830
863067,1309028,1475948,1312438,1476278,1868,1627,-4903,1091,-820,1976,-994,4661,56,33,830
864068,1309256,1476080,1312635,1476475,1805,1930,-4937,1216,-873,2047,-1028,4706,38,24,831
865069,1309512,1476260,1312832,1476672,1604,1639,-4931,1316,-933,2185,-1168,4647,38,24,831
866070,1309772,1476400,1313029,1476869,1553,1914,-4916,1381,-990,2296,-1136,4578,61,30,831
867071,1310068,1476552,1313226,1477066,1285,1858,-4882,1407,-1039,2300,-1123,4485,61,30,831
868072,1310300,1476692,1313423,1477263,1670,1958,-4820,1359,-1136,2250,-1148,4421,46,25,832
869073,1310572,1476848,1313620,1477460,1388,1876,-4723,1301,-1276,2253,-1289,4578,46,25,832
870074,1310876,1477012,1313817,1477657,1141,1841,-4593,1260,-1458,2119,-1263,4731,53,31,832
871075,1311124,1477168,1314014,1477854,1470,1909,-4433,1224,-1679,2003,-1330,4798,53,31,832
872076,1311328,1477332,1314211,1478051,1741,1873,-4226,1229,-1875,2023,-1559,4921,49,38,832
873077,1311524,1477480,1314408,1478248,1793,1995,-4001,1226,-1980,2085,-1753,4971,49,38,832
874078,1311708,1477616,1314605,1478445,1875,2098,-3780,1231,-2003,2055,-1621,4986,29,21,830
875079,1311892,1477740,1314802,1478642,1880,2205,-3551,1225,-2004,1923,-1092,5111,29,21,830
876080,1312052,1477856,1314999,1478839,2048,2290,-3310,1203,-2027,1727,-452,5136,30,31,829
877081,1312304,1478004,1315196,1479036,1448,2112,-3080,1183,-2057,1567,-318,5266,30,31,829
878082,1312528,1478160,1315393,1479233,1613,2080,-2858,1255,-2044,1475,-635,5510,52,40,828
879083,1312732,1478360,1315590,1479430,1734,1804,-2622,1355,-1976,1389,-1033,5595,52,40,828
880084,1312968,1478532,1315787,1479627,1518,1991,-2363,1551,-1890,1199,-1219,5924,50,26,830
881085,1313168,1478708,1315984,1479824,1742,1975,-2093,1846,-1799,918,-1511,6412,50,26,830
882086,1313380,1478880,1316181,1480021,1661,2011,-1791,2238,-1738,622,-1451,6529,51,25,831
883087,1313596,1479044,1316378,1480218,1629,2075,-1452,2615,-1719,376,-1637,6484,51,25,831
884088,1313784,1479200,1316575,1480415,1808,2143,-1127,2906,-1711,240,-1891,6285,45,39,828
885089,1313976,1479388,1316772,1480612,1786,1948,-886,3124,-1721,114,-1876,6080,45,39,828
886090,1314148,1479548,1316969,1480809,1922,2140,-721,3268,-1732,23,-2095,5780,26,36,829
887091,1314332,1479756,1317166,1481006,1854,1835,-609,3273,-1707,-18,-2139,5473,26,36,829
888092,1314496,1479936,1317363,1481203,1993,2017,-516,3189,-1606,47,-2335,5184,42,42,830
889093,1314692,1480132,1317560,1481400,1795,1919,-423,3027,-1426,28,-2512,4931,42,42,830
890094,1314876,1480292,1317757,1481597,1876,2160,-319,2790,-1233,-107,-2039,4634,39,39,830
891095,1315064,1480464,1317954,1481794,1856,2096,-210,2554,-1068,-271,-1750,4681,39,39,830
892096,1315244,1480628,1318151,1481991,1913,2160,-88,2333,-911,-394,-1682,4652,47,28,830
893097,1315448,1480824,1318348,1482188,1761,1962,47,2118,-758,-481,-1705,4616,47,28,830
894098,1315632,1480984,1318545,1482385,1892,2203,173,1910,-610,-522,-1667,4700,42,36,827
895099,1315812,1481164,1318742,1482582,1925,2086,271,1683,-459,-461,-1480,4662,42,36,827
896100,1315988,1481304,1318939,1482779,1960,2361,342,1452,-322,-375,-1111,4613,25,28,828
897101,1316144,1481452,1319136,1482976,2103,2333,392,1263,-218,-366,-924,4627,25,28,828
898102,1316292,1481604,1319333,1483173,2176,2328,444,1054,-133,-258,-1122,4483,20,38,828
899103,1316448,1481764,1319530,1483370,2144,2294,500,853,-54,-21,-1828,4536,20,38,828
900104,1316612,1481916,1319727,1483567,2109,2365,560,640,26,193,-2357,4526,40,33,826
901105,1316736,1482120,1319924,1483764,2391,2037,632,490,108,335,-2795,4659,40,33,826
902106,1316892,1482316,1320121,1483961,2210,2087,724,335,188,266,-2812,4650,41,35,826
903107,1317028,1482548,1320318,1484158,2363,1848,846,258,274,138,-2617,4791,41,35,826
904108,1317156,1482752,1320515,1484355,2444,2020,986,166,362,232,-2272,4624,36,33,826
905109,1317296,1482968,1320712,1484552,2395,1937,1134,1,466,563,-1857,4344,36,33,826
906110,1317456,1483176,1320909,1484749,2287,1982,1277,-199,603,921,-1278,4278,18,47,826
907111,1317592,1483380,1321106,1484946,2464,2005,1403,-457,780,1134,-1083,4062,18,47,826
908112,1317748,1483572,1321303,1485143,2358,2082,1489,-736,1004,1222,-1535,4049,19,49,826
909113,1317936,1483792,1321500,1485340,2163,1897,1530,-975,1251,1209,-1551,4072,19,49,826
910114,1318112,1483976,1321697,1485537,2247,2128,1542,-1169,1456,1141,-1283,4059,43,38,826
911115,1318268,1484188,1321894,1485734,2391,1947,1535,-1290,1585,1000,-1026,4154,43,38,826
912116,1318476,1484392,1322091,1485931,2062,1994,1547,-1389,1653,897,-759,4198,24,49,828
913117,1318668,1484572,1322288,1486128,2164,2152,1586,-1395,1693,875,-737,4449,24,49,828
914118,1318868,1484740,1322485,1486325,2114,2240,1633,-1271,1761,920,-1224,4722,41,31,827
915119,1319032,1484940,1322682,1486522,2355,2039,1663,-1036,1850,920,-1453,5032,41,31,827
916120,1319232,1485116,1322879,1486719,2128,2198,1673,-748,1928,874,-1383,5035,50,36,827
917121,1319420,1485308,1323076,1486916,2208,2101,1698,-446,1962,850,-1551,5054,50,36,827
918122,1319608,1485508,1323273,1487113,2213,2050,1790,-122,1932,791,-1533,4921,44,38,825
919123,1319804,1485680,1323470,1487310,2165,2236,1932,209,1858,596,-1326,5014,44,38,825
920124,1319964,1485864,1323667,1487507,2406,2168,2105,519,1737,564,-1002,4758,22,35,826
921125,1320120,1486036,1323864,1487704,2450,2254,2243,692,1573,747,-664,4479,22,35,826
922126,1320276,1486204,1324061,1487901,2469,2291,2331,921,1389,888,-607,4480,37,47,827
923127,1320416,1486392,1324258,1488098,2594,2171,2376,1094,1202,851,-541,4200,37,47,827
924137,1320584,1486572,1324488,1488328,2447,2243,2382,1206,1014,749,-263,4016,20,38,825
925129,1320740,1486736,1324685,1488525,2541,2358,2360,1211,879,784,-231,3754,20,38,825
926130,1320884,1486904,1324882,1488722,2640,2346,2304,1205,803,882,-177,3580,28,28,824
927131,1321040,1487104,1325079,1488919,2583,2145,2235,1067,776,869,-93,3108,28,28,824
928132,1321180,1487276,1325276,1489116,2710,2331,2167,857,831,850,-736,2981,38,47,821
929133,1321356,1487504,1325473,1489313,2495,1968,2108,586,1001,837,-1614,2792,38,47,821
930134,1321500,1487696,1325670,1489510,2719,2196,2053,420,1218,719,-1662,2947,24,48,823
931135,1321660,1487904,1325867,1489707,2635,2091,2002,265,1417,501,-1305,2862,24,48,823
932136,1321828,1488112,1326064,1489904,2599,2087,1952,63,1562,250,-697,2787,24,33,826
933137,1321992,1488336,1326261,1490101,2640,1975,1911,-81,1652,-49,-52,2935,24,33,826
934138,1322124,1488548,1326458,1490298,2869,2044,1884,-129,1735,-276,251,3101,28,41,825
935139,1322332,1488784,1326655,1490495,2390,1877,1869,-37,1841,-477,371,3401,28,41,825
936140,1322480,1489008,1326852,1490692,2788,1941,1855,78,1939,-679,383,3567,29,33,825
937141,1322632,1489216,1327049,1490889,2783,2036,1816,356,2008,-863,166,4035,29,33,825
938142,1322792,1489424,1327246,1491086,2750,2032,1771,690,2056,-1039,-262,4144,31,48,827
939143,1322952,1489680,1327443,1491283,2767,1706,1742,1077,2107,-1133,-884,4293,31,48,827
940144,1323120,1489884,1327640,1491480,2731,2028,1739,1391,2147,-1329,-771,4024,44,37,822
941145,1323280,1490088,1327837,1491677,2798,2026,1724,1719,2147,-1464,-222,4062,44,37,822
942146,1323476,1490304,1328034,1491874,2575,1942,1688,1887,2114,-1496,157,3620,42,41,825
943147,1323644,1490544,1328231,1492071,2763,1774,1638,1959,2080,-1426,332,3452,42,41,825
944148,1323812,1490792,1328428,1492268,2776,1701,1592,1924,2111,-1293,319,3123,50,54,824
945149,1324040,1491052,1328625,1492465,2388,1599,1565,1779,2239,-1045,52,2801,50,54,824
946150,1324200,1491280,1328822,1492662,2831,1786,1551,1595,2451,-788,-220,2645,43,43,825
947151,1324372,1491492,1329019,1492859,2768,1879,1549,1299,2704,-619,-287,2443,43,43,825
948152,1324564,1491752,1329216,1493056,2646,1553,1550,991,2915,-477,-314,2382,24,44,828
949153,1324736,1492016,1329413,1493253,2783,1498,1595,635,3070,-371,-590,2219,24,44,828
950154,1324912,1492304,1329610,1493450,2768,1308,1652,253,3158,-319,67,2311,31,58,824
951155,1325108,1492588,1329807,1493647,2644,1295,1687,-72,3215,-214,687,2600,31,58,824
952156,1325272,1492844,1330004,1493844,2859,1444,1722,-304,3269,-139,935,2861,46,56,825
953157,1325488,1493000,1330201,1494041,2527,2088,1755,-374,3311,-210,1041,3380,46,56,825
954158,1325668,1493148,1330398,1494238,2760,2160,1779,-335,3305,-372,1145,3657,45,47,828
955159,1325844,1493328,1330595,1494435,2795,1967,1809,-240,3219,-471,1168,3761,45,47,828
956160,1325980,1493500,1330792,1494632,3073,2028,1857,-97,3095,-460,1182,3978,24,43,824
957161,1326132,1493684,1330989,1494829,2994,1959,1878,90,3000,-353,1266,4184,24,43,824
958162,1326308,1493912,1331186,1495026,2854,1671,1878,330,2915,-310,562,4321,25,42,824
959163,1326436,1494180,1331383,1495223,3185,1390,1878,574,2778,-409,548,4450,25,42,824
960164,1326572,1494488,1331580,1495420,3163,1091,1873,820,2525,-500,1695,4444,29,48,823
961165,1326712,1494716,1331777,1495617,3164,1577,1833,1044,2216,-466,2292,4449,29,48,823
962166,1326876,1495016,1331974,1495814,3030,1082,1769,1211,1949,-358,2403,4252,46,56,823
963167,1327068,1495296,1332171,1496011,2858,1172,1682,1315,1710,-328,2532,4089,46,56,823
964168,1327268,1495552,1332368,1496208,2808,1296,1563,1398,1483,-280,2672,4042,50,65,824
965169,1327448,1495824,1332565,1496405,2941,1163,1425,1371,1239,-187,2613,3892,50,65,824
966170,1327608,1496144,1332762,1496602,3083,809,1276,1483,991,-155,2265,4234,33,55,827
967172,1327800,1496448,1332959,1496799,2887,862,1116,1602,780,-246,1981,4220,33,55,827
968172,1327948,1496704,1333156,1496996,3184,1136,943,1748,623,-255,1743,4387,50,67,827
969173,1328120,1496964,1333353,1497193,3046,1083,783,1917,520,-200,1237,4257,50,67,827
970174,1328272,1497248,1333550,1497390,3192,895,661,2000,474,-120,576,3951,30,67,828
971175,1328416,1497528,1333747,1497587,3266,883,542,1950,459,-65,458,3645,30,67,828
972176,1328564,1497852,1333944,1497784,3264,553,404,1742,446,-92,807,3269,26,62,825
973177,1328712,1498100,1334141,1497981,3286,1005,229,1484,387,-123,1286,3272,26,62,825
974178,1328840,1498356,1334338,1498178,3443,929,43,1252,253,-160,1951,3216,21,51,824
975179,1328972,1498632,1334535,1498375,3447,770,-141,1078,64,-201,2385,3348,21,51,824
976180,1329108,1498892,1334732,1498572,3450,842,-340,1051,-129,-72,2686,3630,20,56,825
977181,1329260,1499184,1334929,1498769,3371,600,-555,1085,-297,69,2781,3881,20,56,825
978182,1329416,1499376,1335126,1498966,3365,1227,-797,1212,-457,118,2872,4275,31,44,825
979183,1329580,1499548,1335323,1499163,3330,1363,-1054,1400,-602,147,2710,4457,31,44,825
980184,1329748,1499724,1335520,1499360,3319,1348,-1312,1698,-745,193,2539,4728,34,31,826
981185,1329920,1499904,1335717,1499557,3306,1330,-1564,2010,-925,177,2569,4817,34,31,826
982186,1330076,1500084,1335914,1499754,3425,1337,-1796,2272,-1187,133,2770,4638,46,41,823
983188,1330264,1500276,1336111,1499951,3230,1265,-2044,2479,-1559,-14,2881,4658,46,41,823
984188,1330440,1500452,1336308,1500148,3315,1374,-2296,2707,-1920,191,2550,4836,44,29,823
985189,1330628,1500624,1336505,1500345,3246,1409,-2551,2988,-2188,410,2137,4893,44,29,823
986191,1330828,1500788,1336702,1500542,3171,1473,-2774,3279,-2321,658,1661,4845,50,27,824
987191,1331032,1500948,1336899,1500739,3144,1515,-2953,3518,-2369,907,1560,4733,50,27,824
988192,1331216,1501124,1337096,1500936,3275,1424,-3050,3712,-2415,1021,1811,4639,56,42,824
989193,1331432,1501280,1337293,1501133,3068,1567,-3079,3827,-2464,1111,1582,4371,56,42,824
990194,1331664,1501440,1337490,1501330,2954,1558,-3061,3845,-2529,1192,1716,4194,39,29,824
991195,1331892,1501612,1337687,1501527,2966,1494,-2990,3784,-2620,1207,1593,3884,39,29,824
992196,1332132,1501752,1337884,1501724,2873,1719,-2882,3707,-2693,1306,1044,4030,51,35,824
993197,1332328,1501884,1338081,1501921,3150,1798,-2775,3692,-2759,1354,699,4069,51,35,824
994198,1332548,1502056,1338278,1502118,2992,1559,-2680,3678,-2847,1203,516,4255,39,28,824
995199,1332792,1502212,1338475,1502315,2822,1677,-2619,3765,-2998,893,658,4523,39,28,824
996200,1332996,1502352,1338672,1502512,3070,1802,-2603,3971,-3219,445,793,4906,40,26,822
997201,1333220,1502488,1338869,1502709,2934,1854,-2633,4293,-3504,-73,575,5351,40,26,822
998202,1333464,1502624,1339066,1502906,2789,1880,-2670,4679,-3852,-577,165,5578,53,40,826
999203,1333696,1502796,1339263,1503103,2850,1666,-2672,5173,-4256,-1089,-566,5955,53,40,826
1000204,1333912,1502956,1339460,1503300,2943,1758,-2626,5711,-4652,-1453,-1003,6085,58,23,824
1001205,1334152,1503124,1339657,1503497,2775,1721,-2580,6181,-4972,-1642,-1427,6014,58,23,824
1002206,1334364,1503244,1339854,1503694,2944,2055,-2574,6653,-5203,-1855,-1878,6048,38,24,825
1003207,1334556,1503316,1340051,1503891,3072,2410,-2592,6990,-5380,-2159,-2126,5640,38,24,825
1004208,1334772,1503412,1340248,1504088,2915,2305,-2589,7217,-5500,-2469,-2389,5408,48,24,824
1005209,1334980,1503560,1340445,1504285,2961,2001,-2514,7235,-5549,-2703,-2519,4763,48,24,824
1006210,1335196,1503652,1340642,1504482,2904,2397,-2405,7137,-5541,-2912,-2708,4625,45,29,818
1007218,1335392,1503712,1340872,1504712,3045,2672,-2295,6939,-5489,-3224,-2911,4272,45,29,818
1008212,1335656,1503808,1341069,1504909,2591,2491,-2200,6665,-5370,-3480,-3296,4192,36,17,823
1009213,1335856,1503936,1341266,1505106,2991,2323,-2113,6288,-5186,-3576,-3597,4084,36,17,823
1010214,1336068,1504100,1341463,1505303,2910,2112,-1999,5852,-4924,-3643,-3733,3913,35,31,817
1011215,1336316,1504272,1341660,1505500,2665,2073,-1857,5371,-4576,-3724,-3814,3776,35,31,817
1012216,1336536,1504420,1341857,1505697,2831,2245,-1712,4737,-4161,-3788,-3650,3550,37,34,821
1013217,1336764,1504564,1342054,1505894,2768,2294,-1576,4004,-3723,-3815,-3069,3523,37,34,821
1014218,1337024,1504700,1342251,1506091,2542,2371,-1461,3326,-3317,-3848,-2356,3627,53,30,824
1015219,1337256,1504860,1342448,1506288,2702,2237,-1352,2624,-2960,-3893,-1850,3725,53,30,824
1016220,1337476,1505008,1342645,1506485,2768,2334,-1251,1928,-2667,-3922,-1448,3885,39,26,821
1017221,1337752,1505172,1342842,1506682,2384,2249,-1177,1282,-2412,-3887,-931,4183,39,26,821
1018222,1337984,1505336,1343039,1506879,2644,2264,-1141,738,-2171,-3757,-752,4525,42,26,822
1019223,1338256,1505504,1343236,1507076,2362,2251,-1134,220,-1929,-3579,-791,4780,42,26,822
1020224,1338548,1505648,1343433,1507273,2196,2425,-1137,-258,-1694,-3399,-902,4958,58,43,825
1021225,1338832,1505828,1343630,1507470,2209,2208,-1125,-745,-1497,-3107,-864,5074,58,43,825
1022226,1339076,1506000,1343827,1507667,2439,2269,-1105,-1212,-1356,-2887,-720,5307,62,31,825
1023227,1339396,1506176,1344024,1507864,1911,2253,-1069,-1685,-1278,-2636,-379,5229,62,31,825
1024228,1339696,1506316,1344221,1508061,1992,2504,-1025,-2141,-1270,-2378,-191,5316,59,36,827
1025229,1340000,1506484,1344418,1508258,1921,2342,-924,-2558,-1295,-1985,-169,5457,59,36,827
1026230,1340312,1506624,1344615,1508455,1821,2542,-739,-2972,-1306,-1510,-465,5502,52,28,828
1027231,1340644,1506780,1344812,1508652,1638,2461,-499,-3357,-1281,-1088,-834,5561,52,28,828
1028232,1340960,1506924,1345009,1508849,1686,2559,-265,-3802,-1234,-655,-1015,5305,62,40,826
1029233,1341288,1507104,1345206,1509046,1554,2342,-71,-4241,-1215,-253,-865,5271,62,40,826
1030234,1341620,1507256,1345403,1509243,1471,2538,129,-4665,-1248,4,-601,5048,57,26,827
1031235,1341920,1507404,1345600,1509440,1627,2584,336,-5143,-1320,299,-544,5044,57,26,827
1032236,1342232,1507568,1345797,1509637,1501,2500,574,-5595,-1406,645,-626,5000,58,36,829
1033237,1342596,1507700,1345994,1509834,1104,2728,836,-5988,-1494,817,-519,5098,58,36,829
1034239,1342908,1507868,1346191,1510031,1379,2516,1097,-6291,-1588,901,-491,5252,54,40,827
1035239,1343208,1508020,1346388,1510228,1409,2637,1339,-6544,-1681,1011,-505,5301,54,40,827
1036240,1343540,1508172,1346585,1510425,1151,2657,1586,-6722,-1756,1058,-632,5446,72,41,828
1037241,1343868,1508368,1346782,1510622,1118,2383,1858,-6804,-1829,1066,-750,5585,72,41,828
1038242,1344164,1508524,1346979,1510819,1276,2651,2162,-6760,-1903,958,-872,5850,52,44,827
1039243,1344520,1508668,1347176,1511016,832,2750,2495,-6580,-1994,655,-768,6140,52,44,827
1040244,1344772,1508832,1347373,1511213,1458,2640,2833,-6272,-2120,416,-727,6388,64,36,828
1041245,1345064,1509016,1347570,1511410,1167,2521,3170,-5816,-2249,203,-863,6548,64,36,828
1042246,1345352,1509164,1347767,1511607,1152,2768,3530,-5244,-2321,-99,-1154,6686,54,40,829
1043247,1345584,1509380,1347964,1511804,1486,2335,3875,-4659,-2330,-364,-1477,6534,54,40,829
1044248,1345860,1509544,1348161,1512001,1178,2675,4190,-4064,-2268,-521,-1764,6437,44,34,830
1045249,1346156,1509736,1348358,1512198,1009,2502,4506,-3396,-2157,-730,-1864,6284,44,34,830
1046250,1346404,1509908,1348555,1512395,1288,2639,4837,-2808,-2047,-1042,-1706,5820,59,32,829
1047251,1346648,1510096,1348752,1512592,1292,2543,5149,-2253,-1968,-1332,-1148,5647,59,32,829
1048252,1346952,1510304,1348949,1512789,871,2415,5442,-1734,-1915,-1490,-599,5230,44,33,830
1049253,1347204,1510496,1349146,1512986,1172,2517,5701,-1243,-1850,-1485,-514,4939,44,33,830
1050254,1347460,1510692,1349343,1513183,1121,2493,5915,-815,-1749,-1507,-572,4577,43,45,828
1051255,1347784,1510888,1349540,1513380,641,2494,6076,-426,-1600,-1496,-766,4240,43,45,828
1052256,1348088,1511096,1349737,1513577,719,2415,6195,-107,-1397,-1382,-1162,3890,47,43,829
1053257,1348360,1511316,1349934,1513774,886,2330,6267,120,-1143,-1214,-1646,3428,47,43,829
1054258,1348656,1511512,1350131,1513971,694,2481,6286,242,-886,-1145,-1493,2860,49,44,832
1055259,1348960,1511704,1350328,1514168,597,2508,6263,254,-667,-1081,-1135,2325,49,44,832
1056260,1349252,1511928,1350525,1514365,630,2296,6226,151,-483,-983,-950,1826,63,54,832
1057261,1349544,1512144,1350722,1514562,588,2339,6179,-86,-313,-868,-892,1384,63,54,832
1058262,1349864,1512392,1350919,1514759,360,2117,6119,-383,-153,-764,-801,959,60,60,831
1059263,1350172,1512660,1351116,1514956,386,1961,6038,-800,-17,-672,-559,475,60,60,831
1060264,1350448,1512920,1351313,1515153,552,1984,5914,-1183,113,-547,-433,398,61,46,831
1061265,1350728,1513160,1351510,1515350,490,2091,5759,-1666,256,-421,-358,88,61,46,831
1062266,1350952,1513396,1351707,1515547,828,2099,5556,-2085,413,-334,-205,11,54,38,834
1063267,1351212,1513624,1351904,1515744,576,2136,5317,-2538,588,-291,-84,-230,54,38,834
1064268,1351468,1513892,1352101,1515941,576,1855,5064,-3013,790,-170,1,-280,57,50,834
1065269,1351688,1514132,1352298,1516138,791,2011,4796,-3447,998,-158,69,-303,57,50,834
1066270,1351916,1514352,1352495,1516335,727,2127,4505,-3833,1183,-109,159,-329,40,44,833
1067271,1352160,1514588,1352692,1516532,606,2010,4183,-4177,1364,49,291,-217,40,44,833
1068272,1352352,1514816,1352889,1516729,933,2046,3857,-4491,1593,266,376,-191,44,42,834
1069273,1352536,1515016,1353086,1516926,989,2221,3524,-4714,1884,485,386,-79,44,42,834
1070274,1352720,1515252,1353283,1517123,995,1979,3187,-4908,2254,620,579,-73,29,35,834
1071275,1352904,1515412,1353480,1517320,1001,2471,2842,-5066,2680,784,778,58,29,35,834
1072276,1353076,1515596,1353677,1517517,1087,2327,2494,-5190,3117,996,1042,176,46,46,831
1073277,1353256,1515784,1353874,1517714,1045,2306,2130,-5261,3532,1184,1389,239,46,46,831
1074278,1353400,1515960,1354071,1517911,1293,2391,1755,-5290,3886,1357,1706,387,40,29,830
1075279,1353584,1516128,1354268,1518108,1049,2454,1356,-5319,4150,1576,1993,454,40,29,830
1076280,1353712,1516284,1354465,1518305,1429,2547,934,-5286,4327,1848,2147,654,21,29,831
1077281,1353892,1516416,1354662,1518502,1112,2726,491,-5199,4443,2111,2030,827,21,29,831
1078282,1354040,1516544,1354859,1518699,1333,2782,13,-5089,4511,2344,1853,1127,22,17,830
1079283,1354188,1516644,1355056,1518896,1355,3000,-510,-4885,4540,2547,1693,1435,22,17,830
1080284,1354328,1516732,1355253,1519093,1431,3123,-1059,-4585,4528,2741,1643,1822,23,28,828
1081285,1354484,1516856,1355450,1519290,1349,2930,-1605,-4195,4461,2928,1621,2159,23,28,828
1082286,1354628,1516992,1355647,1519487,1447,2883,-2146,-3780,4340,3112,1569,2448,29,28,823
1083287,1354776,1517096,1355844,1519684,1444,3124,-2662,-3329,4170,3359,1464,2620,29,28,823
1084288,1354920,1517204,1356041,1519881,1492,3139,-3135,-2932,3934,3556,1535,2767,38,15,824
1085289,1355072,1517324,1356238,1520078,1462,3098,-3573,-2540,3620,3652,1769,2847,38,15,824
1086290,1355240,1517428,1356435,1520275,1376,3240,-4014,-2219,3250,3825,1938,2791,37,26,821
1087291,1355376,1517548,1356632,1520472,1602,3173,-4502,-1917,2819,3961,2223,3147,37,26,821
1088292,1355536,1517708,1356829,1520669,1469,2941,-5001,-1636,2360,4050,2175,3278,33,33,823
1089293,1355720,1517816,1357026,1520866,1324,3306,-5400,-1508,1884,4189,1971,2542,33,33,823
1090301,1355888,1517940,1357256,1521096,1453,3252,-5689,-1562,1408,4414,1709,2444,36,36,821
1091295,1356044,1518092,1357453,1521293,1546,3098,-5936,-1585,958,4602,1551,2969,36,36,821
1092296,1356232,1518252,1357650,1521490,1350,3064,-6155,-1541,520,4433,1225,3002,25,21,823
1093297,1356404,1518388,1357847,1521687,1461,3242,-6311,-1512,145,4352,806,3054,25,21,823
1094298,1356576,1518560,1358044,1521884,1473,3029,-6407,-1438,-143,4249,348,3595,49,39,823
1095299,1356776,1518748,1358241,1522081,1296,2933,-6444,-1255,-372,4050,257,3925,49,39,823
1096300,1356968,1518912,1358438,1522278,1348,3099,-6434,-905,-577,3754,234,4495,28,27,823
1097301,1357120,1519120,1358635,1522475,1619,2819,-6372,-494,-754,3345,35,4946,28,27,823
1098303,1357324,1519304,1358832,1522672,1291,2976,-6242,-35,-910,2822,-58,5157,46,31,825
1099303,1357500,1519480,1359029,1522869,1475,3036,-6025,408,-1047,2465,-117,5327,46,31,825
1100305,1357688,1519660,1359226,1523066,1404,3018,-5767,865,-1149,2276,-228,5403,28,30,825
1101305,1357860,1519860,1359423,1523263,1516,2893,-5453,1259,-1226,2028,-222,5270,28,30,825
1102306,1358044,1520068,1359620,1523460,1447,2839,-5096,1674,-1262,1575,-353,5565,45,51,824
1103307,1358216,1520300,1359817,1523657,1533,2674,-4704,2117,-1238,960,-373,5868,45,51,824
1104308,1358392,1520528,1360014,1523854,1518,2686,-4282,2602,-1195,326,-89,5955,34,38,824
1105309,1358604,1520744,1360211,1524051,1287,2754,-3854,3042,-1179,-198,131,5991,34,38,824
1106310,1358764,1520960,1360408,1524248,1628,2745,-3442,3422,-1174,-733,-94,5993,36,50,825
1107311,1358916,1521176,1360605,1524445,1699,2738,-3031,3803,-1140,-1277,-528,6095,36,50,825
1108312,1359080,1521444,1360802,1524642,1638,2382,-2618,4224,-1045,-1784,-924,6400,31,37,827
1109313,1359260,1521692,1360999,1524839,1546,2485,-2222,4664,-883,-2152,-1132,6617,31,37,827
1110314,1359412,1521912,1361196,1525036,1741,2651,-1825,5052,-668,-2399,-1208,6461,43,53,826
1111315,1359580,1522144,1361393,1525233,1654,2561,-1428,5355,-421,-2581,-1211,6318,43,53,826
1112316,1359708,1522364,1361590,1525430,1935,2627,-1029,5589,-160,-2728,-1269,6074,40,48,828
1113317,1359840,1522580,1361787,1525627,1939,2644,-638,5648,100,-2852,-1341,5778,40,48,828
1114319,1360016,1522800,1361984,1525824,1673,2609,-250,5638,358,-2975,-1415,5686,34,40,827
1115319,1360172,1523060,1362181,1526021,1816,2333,113,5534,579,-3100,-1257,5442,34,40,827
1116320,1360300,1523296,1362378,1526218,2023,2466,425,5362,745,-3136,-1231,5313,30,37,824
1117321,1360456,1523516,1362575,1526415,1866,2556,686,5138,885,-3038,-1214,5170,30,37,824
1118322,1360576,1523716,1362772,1526612,2125,2680,907,4891,1044,-2820,-1205,5065,21,51,828
1119323,1360676,1523976,1362969,1526809,2293,2278,1102,4541,1273,-2610,-1293,4907,21,51,828
1120324,1360808,1524220,1363166,1527006,2122,2358,1288,4165,1556,-2406,-1399,4920,19,56,826
1121325,1360936,1524472,1363363,1527203,2178,2285,1452,3779,1806,-2207,-1200,4762,19,56,826
1122327,1361060,1524692,1363560,1527400,2235,2475,1573,3301,1971,-1961,-669,4524,30,51,825
1123327,1361212,1524904,1363757,1527597,2081,2519,1653,2801,2060,-1664,-182,4521,30,51,825
1124328,1361352,1525120,1363954,1527794,2181,2486,1720,2282,2125,-1549,35,4447,19,52,825
1125329,1361512,1525348,1364151,1527991,2073,2398,1781,1791,2192,-1536,-106,4434,19,52,825
1126330,1361652,1525576,1364348,1528188,2223,2384,1806,1270,2240,-1423,-254,4484,22,49,823
1127331,1361804,1525796,1364545,1528385,2169,2425,1779,807,2257,-1203,-247,4579,22,49,823
1128332,1361948,1525988,1364742,1528582,2242,2602,1717,377,2266,-999,-221,4487,33,47,824
1129333,1362080,1526180,1364939,1528779,2347,2606,1656,-33,2294,-958,-90,4504,33,47,824
1130334,1362260,1526388,1365136,1528976,2054,2501,1621,-443,2336,-1011,28,4608,30,48,825
1131335,1362408,1526560,1365333,1529173,2277,2738,1639,-811,2377,-943,-9,4556,30,48,825
1132336,1362564,1526768,1365530,1529370,2245,2508,1706,-1162,2399,-896,219,4576,33,35,823
1133337,1362748,1527024,1365727,1529567,2077,2183,1806,-1495,2396,-894,510,4568,33,35,823
1134338,1362936,1527276,1365924,1529764,2057,2184,1923,-1818,2363,-1032,639,4548,30,38,823
1135339,1363120,1527540,1366121,1529961,2087,2080,2049,-2052,2317,-1181,447,4749,30,38,823
1136340,1363320,1527756,1366318,1530158,1987,2372,2179,-2165,2282,-1268,153,4981,50,54,827
1137341,1363516,1527964,1366515,1530355,2012,2418,2283,-2118,2265,-1562,-178,5341,50,54,827
1138342,1363668,1528224,1366712,1530552,2308,2066,2370,-1973,2244,-1949,-350,5440,37,40,826
1139343,1363880,1528484,1366909,1530749,1927,2039,2446,-1844,2195,-2154,-411,5418,37,40,826
1140344,1364072,1528740,1367106,1530946,2055,2038,2523,-1664,2135,-2157,-316,5410,54,56,827
1141345,1364276,1529012,1367303,1531143,1978,1906,2601,-1500,2107,-2041,-251,5209,54,56,827
1142346,1364524,1529248,1367500,1531340,1680,2114,2683,-1334,2164,-1999,-430,5185,57,41,829
1143347,1364700,1529516,1367697,1531537,2141,1883,2770,-1200,2306,-1916,-511,5001,57,41,829
1144348,1364920,1529792,1367894,1531734,1855,1799,2841,-1041,2479,-1770,-364,4807,45,50,829
1145349,1365160,1530072,1368091,1531931,1713,1737,2886,-976,2611,-1738,141,4460,45,50,829
1146350,1365368,1530388,1368288,1532128,1908,1460,2906,-989,2661,-1646,563,4189,33,50,828
1147351,1365596,1530620,1368485,1532325,1770,1971,2911,-1049,2654,-1491,766,3989,33,50,828
1148352,1365824,1530932,1368682,1532522,1757,1420,2910,-1071,2660,-1313,739,4040,53,49,831
1149353,1366008,1531224,1368879,1532719,2038,1503,2896,-1026,2697,-1091,707,3990,53,49,831
1150354,1366220,1531508,1369076,1532916,1858,1516,2863,-1017,2735,-807,813,3714,37,52,829
1151355,1366440,1531796,1369273,1533113,1797,1451,2810,-1049,2750,-527,782,3590,37,52,829
1152356,1366628,1532052,1369470,1533310,2002,1625,2737,-1114,2761,-207,419,3407,44,43,831
1153357,1366836,1532340,1369667,1533507,1873,1385,2663,-1228,2755,-27,932,3265,44,43,831
1154358,1367024,1532632,1369864,1533704,2003,1320,2568,-1414,2701,152,1242,3010,50,49,832
1155359,1367228,1532936,1370061,1533901,1899,1198,2461,-1634,2608,390,981,2790,50,49,832
1156360,1367432,1533204,1370258,1534098,1897,1391,2357,-1843,2523,635,475,2733,32,57,832
1157361,1367620,1533464,1370455,1534295,2001,1414,2254,-2071,2433,818,661,2618,32,57,832
1158362,1367816,1533728,1370652,1534492,1953,1359,2127,-2280,2323,1015,936,2651,38,49,832
1159363,1367976,1534052,1370849,1534689,2194,929,1981,-2435,2213,1287,679,2636,38,49,832
1160364,1368176,1534316,1371046,1534886,1944,1275,1833,-2598,2091,1479,665,2618,49,45,830
1161365,1368384,1534600,1371243,1535083,1890,1112,1694,-2711,1933,1602,758,2670,49,45,830
1162366,1368584,1534852,1371440,1535280,1939,1288,1535,-2790,1767,1792,830,2697,48,58,832
1163367,1368736,1535088,1371637,1535477,2259,1370,1332,-2791,1614,1933,741,2825,48,58,832
1164368,1368936,1535392,1371834,1535674,1958,898,1102,-2745,1491,2010,511,3016,47,51,833
1165369,1369088,1535692,1372031,1535871,2279,878,865,-2629,1368,2046,392,3165,47,51,833
1166370,1369264,1535948,1372228,1536068,2138,1127,649,-2441,1203,1984,640,3330,28,44,830
1167371,1369432,1536156,1372425,1536265,2202,1422,445,-2200,982,1926,1026,3471,28,44,830
1168372,1369604,1536416,1372622,1536462,2188,1070,259,-1937,714,1946,1075,3532,26,49,832
1169373,1369804,1536656,1372819,1536659,2012,1176,73,-1619,455,1887,645,3646,26,49,832
1170374,1369992,1536916,1373016,1536856,2092,1023,-111,-1255,244,1818,290,3781,40,58,829
1171375,1370148,1537172,1373213,1537053,2310,1022,-295,-851,79,1854,198,3740,40,58,829
1172376,1370308,1537388,1373410,1537250,2303,1264,-466,-507,-53,1908,178,3674,27,40,831
1173384,1370488,1537632,1373640,1537480,2200,1083,-771,181,-273,2097,341,3539,27,40,831
1174378,1370652,1537836,1373837,1537677,2315,1330,-925,516,-387,2153,429,3592,24,44,831
1175379,1370824,1538052,1374034,1537874,2277,1246,-1068,786,-500,2167,776,3392,24,44,831
1176380,1371040,1538280,1374231,1538071,1994,1158,-1200,1064,-637,2179,1540,3340,30,36,832
1177381,1371256,1538516,1374428,1538268,1986,1091,-1345,1273,-783,2305,1828,3190,30,36,832
1178382,1371468,1538736,1374625,1538465,2005,1180,-1509,1432,-921,2452,1555,3044,41,48,830
1179383,1371712,1538952,1374822,1538662,1785,1197,-1677,1566,-1026,2565,832,2898,41,48,830
1180384,1371952,1539116,1375019,1538859,1792,1537,-1816,1592,-1135,2596,355,2703,38,31,833
1181385,1372164,1539320,1375216,1539056,1961,1283,-1925,1595,-1282,2503,174,2610,38,31,833
1182386,1372396,1539500,1375413,1539253,1821,1441,-2035,1568,-1463,2445,11,2571,61,29,832
1183387,1372680,1539704,1375610,1539450,1458,1288,-2157,1454,-1668,2468,-141,2408,61,29,832
1184388,1372916,1539892,1375807,1539647,1742,1392,-2297,1273,-1852,2439,-391,2350,41,41,832
1185389,1373124,1540072,1376004,1539844,1912,1449,-2438,1091,-1984,2505,-632,2354,41,41,832
1186390,1373344,1540200,1376201,1540041,1828,1804,-2576,900,-2035,2556,-893,2395,40,22,834
1187391,1373524,1540352,1376398,1540238,2085,1673,-2717,802,-2012,2557,-900,2664,40,22,834
1188392,1373724,1540504,1376595,1540435,1960,1693,-2855,663,-1948,2557,-661,2552,48,22,831
1189393,1373940,1540612,1376792,1540632,1853,2007,-3007,501,-1858,2519,-408,2637,48,22,831
1190394,1374132,1540756,1376989,1540829,2005,1806,-3173,324,-1760,2389,84,2668,49,35,830
1191395,1374324,1540916,1377186,1541026,2008,1722,-3325,174,-1672,2263,316,2763,49,35,830
1192396,1374528,1541088,1377383,1541223,1930,1658,-3452,74,-1580,2104,112,3032,42,36,828
1193397,1374756,1541252,1377580,1541420,1768,1722,-3543,87,-1488,1909,-170,3354,42,36,828
1194398,1375000,1541380,1377777,1541617,1647,1978,-3623,243,-1415,1758,-377,3785,60,22,829
1195399,1375304,1541540,1377974,1541814,1226,1795,-3684,454,-1366,1629,-730,3989,60,22,829
1196400,1375588,1541676,1378171,1542011,1313,1972,-3709,687,-1364,1465,-968,4189,46,37,831
1197401,1375840,1541808,1378368,1542208,1489,2025,-3709,955,-1438,1202,-995,4281,46,37,831
1198402,1376124,1541936,1378565,1542405,1251,2081,-3702,1237,-1606,977,-945,4412,60,35,833
1199403,1376376,1542036,1378762,1542602,1428,2298,-3685,1520,-1826,830,-968,4520,60,35,833
1200404,1376596,1542188,1378959,1542799,1618,1993,-3638,1843,-2024,819,-1210,4677,46,31,831
1201405,1376820,1542368,1379156,1542996,1582,1825,-3593,2129,-2123,922,-1656,4617,46,31,831
1202406,1376992,1542504,1379353,1543193,1918,2127,-3563,2363,-2117,1048,-2054,4608,43,32,829
1203407,1377156,1542636,1379550,1543390,1984,2181,-3576,2558,-2037,1138,-2123,4561,43,32,829
1204408,1377324,1542788,1379747,1543587,1971,2076,-3616,2645,-1914,1320,-2012,4185,41,18,830
1205409,1377492,1542920,1379944,1543784,1984,2230,-3666,2578,-1777,1481,-1565,3850,41,18,830
1206410,1377644,1543088,1380141,1543981,2105,2018,-3702,2369,-1670,1511,-505,3450,21,18,827
1207411,1377816,1543212,1380338,1544178,1991,2325,-3708,2005,-1620,1527,248,3192,21,18,827
1208412,1378012,1543332,1380535,1544375,1842,2384,-3661,1602,-1579,1589,117,3152,32,37,827
1209413,1378204,1543464,1380732,1544572,1869,2337,-3571,1188,-1519,1730,-595,3247,32,37,827
1210414,1378404,1543640,1380929,1544769,1819,2073,-3469,878,-1463,1745,-1253,3510,29,30,826
1211415,1378644,1543868,1381126,1544966,1550,1734,-3372,701,-1415,1546,-1836,3887,29,30,826
1212416,1378836,1544036,1381323,1545163,1853,2122,-3254,616,-1418,1237,-1846,4152,38,26,827
1213417,1379020,1544216,1381520,1545360,1909,2054,-3099,584,-1484,943,-1678,4462,38,26,827
1214418,1379216,1544344,1381717,1545557,1836,2410,-2910,647,-1584,820,-1607,4742,32,29,830
1215419,1379396,1544532,1381914,1545754,1943,2040,-2759,839,-1707,794,-1320,5326,32,29,830
1216420,1379580,1544692,1382111,1545951,1925,2231,-2668,1125,-1808,891,-1483,5578,45,31,827
1217421,1379748,1544880,1382308,1546148,2038,2060,-2624,1396,-1892,902,-1588,5574,45,31,827
1218422,1379928,1545076,1382505,1546345,1971,2010,-2582,1612,-1941,858,-2058,5437,45,38,828
1219423,1380104,1545264,1382702,1546542,2005,2065,-2514,1733,-1954,778,-2515,5317,45,38,828
1220424,1380300,1545452,1382899,1546739,1882,2069,-2406,1699,-1913,736,-2962,4695,23,41,827
1221425,1380452,1545644,1383096,1546936,2176,2046,-2279,1499,-1782,704,-3092,4270,23,41,827
1222426,1380648,1545840,1383293,1547133,1903,2022,-2180,1202,-1579,655,-2879,4132,41,33,828
1223427,1380860,1546032,1383490,1547330,1796,2050,-2082,865,-1341,640,-2568,3935,41,33,828
1224428,1381044,1546216,1383687,1547527,1978,2106,-1980,567,-1060,730,-2430,4192,49,47,827
1225429,1381236,1546424,1383884,1547724,1930,1951,-1856,302,-734,836,-2244,4186,49,47,827
1226430,1381472,1546680,1384081,1547921,1639,1625,-1720,78,-393,744,-1892,4365,39,34,827
1227431,1381656,1546868,1384278,1548118,1970,2054,-1583,-122,-72,590,-1175,4487,39,34,827
1228432,1381868,1547072,1384475,1548315,1789,1952,-1453,-355,145,500,19,4454,31,50,829
1229433,1382052,1547268,1384672,1548512,1970,2002,-1314,-579,264,675,389,4458,31,50,829
1230434,1382268,1547460,1384869,1548709,1763,2029,-1148,-689,375,996,-395,4772,50,43,828
1231435,1382460,1547652,1385066,1548906,1915,2032,-970,-689,561,1338,-1926,4993,50,43,828
1232436,1382644,1547836,1385263,1549103,1971,2088,-789,-580,829,1326,-2835,5436,32,39,829
1233437,1382860,1548072,1385460,1549300,1763,1746,-622,-279,1099,1085,-3088,6043,32,39,829
1234438,1383020,1548264,1385657,1549497,2130,2023,-450,121,1249,748,-2309,6223,27,31,829
1235439,1383204,1548444,1385854,1549694,1986,2106,-258,553,1237,576,-1807,6324,27,31,829
1236440,1383368,1548620,1386051,1549891,2127,2141,-38,990,1110,761,-1646,6319,41,37,829
1237441,1383536,1548776,1386248,1550088,2114,2284,213,1474,967,1048,-1790,6362,41,37,829
1238442,1383692,1548944,1386445,1550285,2208,2222,478,1871,889,1286,-2087,6161,24,43,826
1239443,1383852,1549096,1386642,1550482,2200,2342,709,2205,866,1469,-2104,5975,24,43,826
1240444,1384012,1549300,1386839,1550679,2217,2015,872,2468,870,1583,-2061,5799,38,43,826
1241445,1384176,1549464,1387036,1550876,2206,2279,973,2655,863,1677,-1601,5337,38,43,826
1242446,1384364,1549644,1387233,1551073,2061,2186,1034,2667,834,1657,-1139,4868,41,41,825
1243447,1384520,1549816,1387430,1551270,2279,2247,1077,2586,800,1510,-700,4554,41,41,825
1244448,1384716,1550012,1387627,1551467,2031,2099,1121,2366,765,1383,-521,4103,27,44,826
1245449,1384908,1550172,1387824,1551664,2058,2340,1166,2127,724,1276,-493,4063,27,44,826
1246450,1385064,1550348,1388021,1551861,2302,2249,1220,1894,676,1175,-546,3969,39,37,825
1247451,1385252,1550508,1388218,1552058,2107,2367,1267,1683,641,1110,-740,4020,39,37,825
1248452,1385456,1550700,1388415,1552255,2004,2169,1323,1541,639,973,-856,4195,25,32,825
1249453,1385604,1550876,1388612,1552452,2376,2278,1391,1511,644,684,-1019,4494,25,32,825
1250454,1385752,1551064,1388809,1552649,2398,2207,1456,1610,622,326,-1082,4628,28,45,825
1251455,1385932,1551240,1389006,1552846,2206,2292,1523,1608,606,42,-1177,4393,28,45,825
1252456,1386060,1551424,1389203,1553043,2562,2248,1584,1556,624,-29,-1245,4275,31,33,824
1253457,1386208,1551600,1389400,1553240,2459,2307,1643,1515,651,-303,-1230,4276,31,33,824
1254458,1386352,1551800,1389597,1553437,2509,2157,1708,1519,651,-700,-1282,4311,24,45,825
1255459,1386512,1551996,1389794,1553634,2425,2182,1771,1488,611,-947,-1300,4191,24,45,825
1256469,1386660,1552196,1390024,1553864,2537,2171,1830,1505,580,-973,-1448,4272,21,45,824
1257461,1386820,1552404,1390221,1554061,2479,2117,1869,1562,627,-932,-1708,4338,21,45,824
1258462,1386984,1552604,1390418,1554258,2469,2165,1874,1623,771,-1013,-1635,4239,42,46,823
1259463,1387136,1552772,1390615,1554455,2564,2378,1841,1553,991,-1162,-1386,3892,42,46,823
1260464,1387272,1552996,1390812,1554652,2692,2017,1802,1409,1224,-1248,-1011,3653,37,50,822
1261465,1387460,1553200,1391009,1554849,2371,2139,1797,1197,1429,-1405,-816,3433,37,50,822
1262466,1387592,1553428,1391206,1555046,2751,1976,1826,956,1591,-1552,-750,3328,22,46,823
1263467,1387748,1553652,1391403,1555243,2620,1989,1877,662,1716,-1608,-875,3214,22,46,823
1264468,1387940,1553892,1391600,1555440,2397,1871,1953,406,1851,-1565,-1209,3424,28,42,825
1265469,1388076,1554116,1391797,1555637,2775,1959,2040,321,2077,-1419,-1653,3775,28,42,825
1266470,1388232,1554356,1391994,1555834,2669,1840,2132,286,2364,-1415,-1496,3848,37,41,824
1267471,1388404,1554588,1392191,1556031,2580,1876,2208,287,2614,-1391,-1013,3904,37,41,824
1268472,1388568,1554836,1392388,1556228,2645,1753,2269,226,2778,-1415,-712,3677,40,52,823
1269473,1388692,1555056,1392585,1556425,2928,1918,2302,148,2865,-1471,-562,3653,40,52,823
1270474,1388884,1555288,1392782,1556622,2506,1828,2315,-8,2914,-1539,-395,3472,40,35,825
1271475,1389068,1555520,1392979,1556819,2562,1813,2320,-165,2954,-1543,-415,3633,40,35,825
1272476,1389244,1555724,1393176,1557016,2622,1985,2324,-274,3004,-1398,-467,3711,44,38,823
1273477,1389444,1555960,1393373,1557213,2472,1768,2313,-334,3072,-1275,-499,3847,44,38,823
1274478,1389632,1556220,1393570,1557410,2552,1590,2292,-323,3140,-1174,-463,3932,34,53,826
1275479,1389784,1556464,1393767,1557607,2797,1671,2262,-375,3193,-1016,-560,3849,34,53,826
1276480,1389972,1556692,1393964,1557804,2577,1757,2242,-419,3238,-857,-359,3960,30,44,826
1277481,1390140,1556952,1394161,1558001,2716,1529,2235,-549,3253,-764,97,3720,30,44,826
1278482,1390316,1557196,1394358,1558198,2676,1609,2225,-714,3216,-654,94,3680,49,47,825
1279483,1390504,1557456,1394555,1558395,2605,1481,2223,-909,3174,-482,-74,3589,49,47,825
1280484,1390696,1557688,1394752,1558592,2583,1642,2225,-1064,3148,-228,86,3732,30,59,825
1281485,1390892,1557952,1394949,1558789,2559,1412,2206,-1145,3166,-79,219,3924,30,59,825
1282486,1391092,1558304,1395146,1558986,2534,794,2179,-1200,3221,32,57,3980,46,58,826
1283487,1391280,1558500,1395343,1559183,2613,1770,2165,-1220,3255,49,261,4111,46,58,826
1284488,1391448,1558640,1395540,1559380,2752,2145,2150,-1235,3249,44,160,4151,25,51,828
1285489,1391596,1558812,1395737,1559577,2899,1956,2142,-1187,3212,66,-25,4349,25,51,828
1286490,1391756,1558964,1395934,1559774,2842,2101,2140,-1107,3157,5,654,4471,24,43,826
1287491,1391916,1559192,1396131,1559971,2859,1613,2136,-964,3089,-59,1342,4552,24,43,826
1288492,1392056,1559408,1396328,1560168,3009,1679,2141,-758,3015,-58,1438,4817,26,30,823
1289493,1392196,1559688,1396525,1560365,3035,1243,2188,-587,2916,4,1381,4751,26,30,823
1290494,1392336,1559988,1396722,1560562,3061,1073,2269,-332,2818,98,1246,5019,40,54,825
1291495,1392520,1560308,1396919,1560759,2793,894,2327,-33,2726,109,1474,5031,40,54,825
1292496,1392724,1560572,1397116,1560956,2666,1214,2343,252,2617,67,1682,5075,53,66,824
1293497,1392896,1560768,1397313,1561153,2878,1640,2318,526,2489,-55,1867,5079,53,66,824
1294498,1393072,1561048,1397510,1561350,2862,1078,2262,838,2402,-10,1390,5009,48,66,828
1295499,1393272,1561332,1397707,1561547,2711,1015,2200,1113,2364,40,1177,4910,48,66,828
1296500,1393424,1561668,1397904,1561744,3032,630,2146,1342,2296,-50,1342,4856,47,64,825
1297501,1393580,1562000,1398101,1561941,3026,596,2113,1545,2169,-89,1212,4730,47,64,825
1298502,1393756,1562344,1398298,1562138,2911,456,2105,1720,2011,-83,1160,4664,26,58,828
1299503,1393900,1562604,1398495,1562335,3136,952,2115,1915,1831,-45,1258,4656,26,58,828
1300504,1394052,1562940,1398692,1562532,3106,416,2099,2102,1673,62,1210,4481,44,55,827
1301505,1394216,1563284,1398889,1562729,3046,302,2040,2181,1525,64,1420,4282,44,55,827
1302506,1394332,1563552,1399086,1562926,3383,745,1946,2252,1336,31,1767,4133,21,51,824
1303507,1394456,1563812,1399283,1563123,3366,768,1827,2279,1097,61,1965,4020,21,51,824
1304508,1394580,1564148,1399480,1563320,3399,232,1682,2350,840,107,2298,4084,21,61,827
1305509,1394744,1564428,1399677,1563517,3164,545,1508,2410,574,126,2641,4024,21,61,827
1306510,1394896,1564700,1399874,1563714,3260,562,1276,2498,290,184,2870,4132,45,53,825
1307511,1395056,1564912,1400071,1563911,3227,930,991,2609,19,246,2949,4240,45,53,825
1308512,1395228,1565080,1400268,1564108,3164,1217,688,2791,-252,245,2954,4259,37,34,827
1309513,1395392,1565264,1400465,1564305,3230,1123,399,2952,-542,151,3073,4235,37,34,827
1310514,1395552,1565448,1400662,1564502,3272,1129,134,3041,-880,-19,3343,3995,26,29,825
1311515,1395732,1565640,1400859,1564699,3156,1081,-129,3097,-1262,-73,3335,3890,26,29,825
1312516,1395908,1565832,1401056,1564896,3191,1083,-443,3103,-1636,-77,3377,3733,47,35,824
1313517,1396084,1566008,1401253,1565093,3201,1191,-780,3149,-1916,24,3172,3786,47,35,824
1314518,1396268,1566196,1401450,1565290,3158,1120,-1095,3176,-2069,197,2611,3676,46,35,824
1315519,1396448,1566384,1401647,1565487,3191,1124,-1349,3197,-2088,417,1980,3705,46,35,824
1316520,1396640,1566536,1401844,1565684,3119,1369,-1530,3177,-2061,587,2075,3529,45,35,824
1317521,1396856,1566692,1402041,1565881,2962,1362,-1650,3069,-2061,680,2047,3281,45,35,824
1318522,1397040,1566864,1402238,1566078,3169,1273,-1699,2909,-2087,701,1717,3205,52,39,825
1319523,1397236,1567052,1402435,1566275,3095,1176,-1664,2711,-2140,739,1823,2896,52,39,825
1320524,1397456,1567220,1402632,1566472,2936,1314,-1565,2480,-2217,780,1754,2822,32,36,825
1321525,1397644,1567380,1402829,1566669,3141,1380,-1466,2329,-2299,750,1588,3054,32,36,825
1322526,1397844,1567524,1403026,1566866,3066,1503,-1405,2212,-2397,671,1417,3231,51,41,825
1323527,1398044,1567688,1403223,1567063,3065,1393,-1396,2191,-2535,539,1091,3448,51,41,825
1324528,1398236,1567824,1403420,1567260,3119,1595,-1460,2389,-2710,329,520,4238,44,38,823
1325529,1398432,1567932,1403617,1567457,3095,1809,-1599,2891,-2952,-33,395,5080,44,38,823
1326530,1398620,1568060,1403814,1567654,3150,1713,-1722,3483,-3235,-411,-363,5278,46,30,823
1327531,1398836,1568232,1404011,1567851,2968,1449,-1749,4090,-3528,-670,-904,5320,46,30,823
1328532,1399060,1568364,1404208,1568048,2907,1728,-1740,4700,-3838,-783,-1116,5514,34,23,822
1329533,1399264,1568520,1404405,1568245,3030,1596,-1716,5234,-4133,-977,-1180,5112,34,23,822
1330534,1399464,1568676,1404602,1568442,3054,1614,-1704,5475,-4424,-1063,-1090,4336,33,22,825
1331535,1399672,1568836,1404799,1568639,3000,1605,-1778,5588,-4736,-1087,-960,4128,33,22,825
1332536,1399840,1568988,1404996,1568836,3263,1675,-1922,5634,-4992,-1220,-1101,3964,45,31,824
1333537,1400040,1569152,1405193,1569033,3063,1614,-2054,5668,-5158,-1370,-1466,3863,45,31,824
1334538,1400224,1569292,1405390,1569230,3170,1789,-2149,5584,-5262,-1642,-1496,3608,26,30,824
1335539,1400424,1569436,1405587,1569427,3069,1788,-2238,5465,-5324,-1832,-1657,3673,26,30,824
1336540,1400648,1569600,1405784,1569624,2909,1677,-2300,5325,-5330,-1908,-1930,3514,49,25,822
1337541,1400840,1569768,1405981,1569821,3112,1665,-2309,5063,-5293,-2129,-2002,3148,49,25,822
1338542,1401072,1569928,1406178,1570018,2847,1731,-2273,4706,-5187,-2254,-2212,3049,40,41,823
1339550,1401296,1570104,1406408,1570248,2901,1655,-2215,4246,-4984,-2197,-2209,2876,40,41,823
1340544,1401516,1570284,1406605,1570445,2917,1637,-2171,3743,-4725,-2315,-1544,2859,35,33,823
1341545,1401744,1570460,1406802,1570642,2854,1671,-2136,3180,-4474,-2626,-861,2818,35,33,823
1342546,1402000,1570592,1406999,1570839,2654,1975,-2116,2676,-4245,-2878,-531,3279,42,42,824
1343547,1402232,1570724,1407196,1571036,2790,2004,-2112,2312,-4028,-3039,-451,3841,42,42,824
1344548,1402484,1570892,1407393,1571233,2642,1791,-2126,2129,-3794,-3160,-994,4276,59,39,824
