"Data file recorded 2014/9/24  16:46:27"
"%  Right Stride Frequency         = 11.0"
"%  Left Stride Frequency         = 11.0"
"%  Phase (Fractional)         = 32768.0"
"%  Experiment.py "
"%  Motor Gains    = [1800, 200, 100, 0, 0, 1800, 200, 100, 0, 0]
"% Columns: "
"% time | Right Leg Pos | Left Leg Pos | Commanded Right Leg Pos | Commanded Left Leg Pos | DCR | DCL | GyroX | GryoY | GryoZ | AX | AY | AZ | RBEMF | LBEMF | VBatt "
10784,7716536,7000908,7703536,7015408,-3800,3800,-411,-468,593,353,-322,4069,-8,0,845
11785,7716540,7000904,7704280,7016152,-3800,3800,-415,-465,594,379,-327,4079,-8,-5,845
12773,7716456,7000912,7705024,7016896,-3729,3800,-418,-467,596,413,-329,4080,-8,-5,845
13774,7716288,7000908,7705768,7017640,-2807,3800,-421,-488,594,380,-343,4078,-30,28,810
14775,7716056,7001092,7706512,7018384,-1980,3800,-423,-490,590,391,-260,4126,-30,28,810
15776,7715808,7001452,7707256,7019128,-1445,3800,-434,-436,591,497,-157,4178,-44,43,814
16777,7715548,7001828,7708000,7019872,-930,3800,-462,-422,603,697,-464,4139,-44,43,814
17778,7715276,7002340,7708744,7020616,-410,3800,-515,-361,564,696,-478,4199,-54,83,822
18779,7715104,7002852,7709488,7021360,-634,3800,-585,-296,463,704,-456,4222,-54,83,822
19780,7714840,7003328,7710232,7022104,383,3800,-638,-222,383,951,-828,4214,-63,100,827
20781,7714500,7003876,7710976,7022848,1333,3800,-690,-115,325,973,-932,4365,-63,100,827
21782,7714196,7004424,7711720,7023592,1568,3800,-733,-18,222,788,-839,4173,-35,106,828
22782,7713980,7004948,7712464,7024336,1439,3800,-775,-30,41,792,-664,3984,-35,106,828
23784,7713908,7005476,7713208,7025080,898,3800,-790,-90,-185,1045,-444,3771,-24,86,825
24785,7713892,7005956,7713952,7025824,882,3800,-851,-102,-450,1172,-199,4091,-24,86,825
25786,7713836,7006436,7714696,7026568,1483,3800,-949,13,-758,1209,15,4074,-17,105,824
26787,7713852,7006920,7715440,7027312,1353,3800,-1083,104,-1071,1321,73,4030,-17,105,824
27788,7713864,7007416,7716184,7028056,1700,3800,-1186,262,-1347,1140,353,4103,17,95,825
28789,7713864,7007920,7716928,7028800,2103,3800,-1271,349,-1602,677,877,3745,17,95,825
29790,7713880,7008408,7717672,7029544,2323,3800,-1356,329,-1843,174,366,3579,26,100,825
30790,7713896,7008824,7718416,7030288,2644,3800,-1437,181,-1999,13,-60,3410,26,100,825
31811,7714036,7009276,7719176,7031048,3800,3800,-1476,-17,-2044,169,-336,3205,33,95,822
32805,7714236,7009704,7719920,7031792,3800,3800,-1484,-220,-2004,221,-512,3067,33,95,822
33806,7714472,7010136,7720664,7032536,3800,3800,-1466,-550,-1868,123,-668,2789,37,95,820
34807,7714836,7010536,7721408,7033280,3800,3800,-1440,-894,-1655,131,-982,2871,37,95,820
35808,7715272,7010912,7722152,7034024,3800,3800,-1398,-1184,-1379,108,-1072,3014,73,86,814
36809,7715716,7011252,7722896,7034768,3800,3800,-1329,-1398,-1073,-318,-1149,3290,73,86,814
37810,7716144,7011580,7723640,7035512,3800,3800,-1269,-1535,-773,-915,-1530,3708,104,82,815
38811,7716712,7011920,7724384,7036256,3800,3800,-1226,-1590,-483,-1355,-1820,4028,104,82,815
39812,7717192,7012280,7725128,7037000,3800,3800,-1197,-1604,-201,-1599,-1786,4288,104,86,815
40814,7717752,7012604,7725872,7037744,3800,3800,-1211,-1508,49,-2117,-1856,4741,104,86,815
41814,7718300,7012932,7726616,7038488,3800,3800,-1245,-1404,262,-2725,-1945,4969,119,73,815
42815,7718840,7013260,7727360,7039232,3800,3800,-1316,-1243,475,-3207,-2100,5326,119,73,815
43816,7719340,7013584,7728104,7039976,3800,3800,-1366,-1098,691,-3357,-2031,5491,117,79,814
44817,7719888,7013940,7728848,7040720,3800,3800,-1430,-1059,914,-3413,-2296,5332,117,79,814
45818,7720372,7014252,7729592,7041464,3800,3800,-1443,-1137,1163,-3182,-2333,5181,118,85,815
46819,7720868,7014580,7730336,7042208,3800,3800,-1460,-1438,1416,-2696,-1825,4656,118,85,815
47820,7721304,7014900,7731080,7042952,3800,3800,-1482,-1879,1659,-2180,-1639,4549,103,71,814
48821,7721788,7015208,7731824,7043696,3800,3800,-1434,-2393,1902,-1288,-1397,4755,103,71,814
49822,7722200,7015564,7732568,7044440,3800,3800,-487,-1413,2021,2078,-1145,20823,81,62,814
50823,7722596,7015848,7733312,7045184,3800,3800,846,47,2025,3041,-331,17020,81,62,814
51824,7723028,7016172,7734056,7045928,3800,3800,1342,-424,2080,2655,357,4271,80,59,813
52825,7723404,7016472,7734800,7046672,3800,3800,1328,-2121,2051,4255,1106,4617,80,59,813
53833,7723772,7016736,7735560,7047432,3800,3800,1208,-3871,1943,5752,1699,5592,67,71,813
54827,7724184,7017044,7736304,7048176,3800,3800,1259,-5212,1848,6201,1552,6262,67,71,813
55828,7724552,7017372,7737048,7048920,3800,3800,1279,-6149,1729,6639,1842,7496,71,75,814
56830,7724920,7017688,7737792,7049664,3800,3800,1278,-6856,1566,6891,2376,7670,71,75,814
57831,7725344,7017988,7738536,7050408,3800,3800,1209,-7497,1429,5944,2038,7182,77,62,813
58831,7725740,7018336,7739280,7051152,3800,3800,1056,-7947,1301,5066,1819,7019,77,62,813
59833,7726132,7018688,7740024,7051896,3800,3800,882,-8278,1144,4894,2252,6327,67,77,813
60834,7726512,7019060,7740768,7052640,3800,3800,684,-8545,1007,4454,2542,5569,67,77,813
61835,7726948,7019400,7741512,7053384,3800,3800,452,-8628,913,3644,2131,5762,71,77,814
62835,7727328,7019780,7742256,7054128,3800,3800,220,-8491,811,2887,1775,6218,71,77,814
63837,7727732,7020152,7743000,7054872,3800,3800,57,-8238,731,2538,1586,6242,69,75,815
64838,7728196,7020520,7743744,7055616,3800,3800,-37,-7802,658,2131,1382,6463,69,75,815
65839,7728620,7020940,7744488,7056360,3800,3800,-122,-7399,480,1203,1265,6324,74,79,815
66840,7729116,7021368,7745232,7057104,3800,3800,-213,-7075,302,819,1079,6367,74,79,815
67840,7729628,7021772,7745976,7057848,3800,3800,-261,-6724,132,538,863,5943,111,90,814
68842,7730116,7022188,7746720,7058592,3800,3800,-306,-6288,-22,223,851,6667,111,90,814
69842,7730724,7022628,7747464,7059336,3800,3800,-403,-5533,-145,-154,1065,7472,116,95,815
70843,7731312,7023060,7748208,7060080,3800,3800,-478,-4958,-173,167,1128,6311,116,95,815
71845,7731820,7023476,7748952,7060824,3800,3800,-458,-4558,-150,575,1355,5559,127,95,816
72846,7732532,7023900,7749696,7061568,3800,3800,-339,-4324,-106,305,1510,5060,127,95,816
73847,7733140,7024312,7750440,7062312,3800,3800,-161,-4299,-66,378,1577,4332,122,87,816
74847,7733792,7024696,7751184,7063056,3800,3800,20,-4383,-39,681,1396,3945,122,87,816
75855,7734512,7025048,7751944,7063816,3800,3800,215,-4349,5,638,1196,3867,137,75,816
76849,7735228,7025520,7752688,7064560,3800,3800,343,-4216,22,1021,878,4299,137,75,816
77850,7735944,7025920,7753432,7065304,3800,3800,383,-3810,70,1422,219,4998,140,93,817
78851,7736708,7026356,7754176,7066048,3800,3800,372,-3194,85,1482,42,4972,140,93,817
79852,7737548,7026788,7754920,7066792,3800,3800,363,-2644,3,1745,-485,4294,154,97,817
80853,7738412,7027236,7755664,7067536,3800,3800,567,-2080,-203,1844,-1355,2937,154,97,817
81854,7739292,7027624,7756408,7068280,3800,3800,745,-1980,-155,1947,-2379,2453,169,93,817
82855,7740280,7028128,7757152,7069024,3800,3800,976,-1871,-37,1597,-2985,2119,169,93,817
83856,7741188,7028624,7757896,7069768,3800,3800,1238,-1804,38,1136,-3029,1667,165,115,819
84857,7742112,7029128,7758640,7070512,3800,3800,1524,-1711,-3,1055,-2861,1677,165,115,819
85858,7743116,7029696,7759384,7071256,3800,3800,1769,-1356,-51,1175,-2976,2259,191,110,820
86859,7744044,7030244,7760128,7072000,3800,3800,1944,-654,35,1359,-3385,3225,191,110,820
87860,7744984,7030960,7760872,7072744,3800,3800,1991,483,217,1313,-3372,4218,193,122,821
88861,7745956,7031576,7761616,7073488,3800,3800,1977,1659,399,947,-2768,4194,193,122,821
89863,7746868,7032200,7762360,7074232,3800,3800,1963,2770,543,855,-2395,3866,184,133,820
90863,7747668,7032860,7763104,7074976,3800,3800,1983,3701,639,1063,-1996,3195,184,133,820
91865,7748676,7033548,7763848,7075720,3800,3800,2024,4356,704,1264,-1503,2382,162,143,821
92865,7749364,7034324,7764592,7076464,3800,3800,2070,4792,772,1452,-1083,1820,162,143,821
93867,7750164,7035112,7765336,7077208,3800,3800,2171,4981,889,1429,-783,753,181,153,821
94867,7751036,7035896,7766080,7077952,3800,3800,2275,4862,1051,1484,-452,16,181,153,821
95869,7751752,7036768,7766824,7078696,3800,3800,2359,4719,1199,1542,-46,-123,175,159,822
96870,7752520,7037636,7767568,7079440,3800,3800,2451,4715,1577,2050,-831,524,175,159,822
97879,7753292,7038548,7768328,7080200,3800,3800,2594,4981,2039,2004,-803,674,154,172,822
98871,7754020,7039588,7769072,7080944,3800,3800,2644,5188,2397,1981,-433,578,154,172,822
99872,7754768,7040508,7769816,7081688,3800,3800,2651,5394,2607,2118,228,433,174,191,823
100873,7755536,7041480,7770560,7082432,3800,3800,2517,5418,2598,2108,784,160,174,191,823
101874,7756236,7042452,7771304,7083176,3800,3800,2362,5542,2440,1969,810,470,160,181,821
102875,7756960,7043424,7772048,7083920,3800,3800,2154,5768,2261,1998,116,976,160,181,821
103876,7757748,7044524,7772792,7084664,3800,3800,1965,6226,2095,2280,-524,1614,138,195,822
104877,7758488,7045604,7773536,7085408,3800,3800,1784,6847,1928,2450,-708,1890,138,195,822
105879,7759164,7046612,7774280,7086152,3800,3800,1657,7442,1702,2646,-459,1593,155,196,823
106879,7759936,7047680,7775024,7086896,3800,3800,1524,7897,1417,3063,-509,1321,155,196,823
107881,7760632,7048652,7775768,7087640,3800,3800,1421,8329,1113,3326,-200,1293,148,212,824
108881,7761356,7049740,7776512,7088384,3800,3800,1303,8778,807,3553,76,1297,148,212,824
109882,7762076,7050868,7777256,7089128,3800,3800,1233,9016,459,3877,-151,593,153,213,823
110883,7762888,7051900,7778000,7089872,3800,3800,1171,8914,40,4519,-410,-112,153,213,823
111884,7763636,7052844,7778744,7090616,3800,3800,1120,8765,-367,5178,-1378,-163,151,189,823
112885,7764428,7053832,7779488,7091360,3800,3800,1007,8657,-769,5120,-1841,-262,151,189,823
113886,7765308,7054800,7780232,7092104,3800,3800,854,8563,-1215,4946,-2341,-216,173,203,823
114887,7766196,7055844,7780976,7092848,3800,3800,700,8471,-1724,4622,-2529,-390,173,203,823
115888,7767108,7056712,7781720,7093592,3800,3800,568,8417,-2328,4165,-2150,-306,182,205,824
116889,7768148,7057668,7782464,7094336,3800,3800,427,8453,-3038,3234,-384,-173,182,205,824
117890,7769056,7058652,7783208,7095080,3800,3800,233,8646,-3865,2124,59,476,172,207,824
118891,7770024,7059656,7783952,7095824,3800,3800,30,9058,-4827,1200,-737,824,172,207,824
119887,7771168,7060740,7784712,7096584,3664,3800,-128,9469,-6002,444,985,489,214,208,825
120893,7772208,7061780,7785456,7097328,3800,3800,-227,9661,-7378,38,3219,-129,214,208,825
121894,7773256,7062792,7786200,7098072,3800,3800,-352,9814,-8667,117,3309,76,233,212,825
122883,7774556,7063800,7786944,7098816,2189,3800,-626,10036,-9564,367,1407,338,233,212,825
123884,7775632,7064740,7787688,7099560,3446,3800,-978,10339,-10031,325,-932,540,216,185,825
124885,7776768,7065796,7788432,7100304,2900,3800,-1242,10650,-10182,-46,-2229,515,216,185,825
125886,7777948,7066952,7789176,7101048,2437,3800,-1414,10759,-10249,-399,-2189,-165,227,201,828
126887,7779076,7068044,7789920,7101792,2595,3800,-1487,10628,-10206,-1111,-2253,-584,227,201,828
127888,7780180,7069144,7790664,7102536,2589,3800,-1495,10422,-9948,-2349,-2470,-417,220,211,829
128889,7781288,7070172,7791408,7103280,2406,3800,-1459,10301,-9524,-3903,-2849,-146,220,211,829
129890,7782304,7071340,7792152,7104024,2863,3800,-1386,10237,-8961,-5418,-3008,-37,210,222,831
130891,7783308,7072536,7792896,7104768,2826,3800,-1249,10048,-8251,-6156,-3542,-421,210,222,831
131892,7784360,7073608,7793640,7105512,2393,3800,-1136,9653,-7526,-6432,-3160,-1074,201,234,832
132893,7785296,7074760,7794384,7106256,3034,3800,-981,9096,-6795,-7310,-2521,-1472,201,234,832
133893,7786216,7075916,7795128,7107000,3059,3800,-803,8338,-6028,-7922,-2433,-1815,196,238,831
134895,7787244,7077028,7795872,7107744,2261,3800,-609,7425,-5255,-8156,-2343,-2217,196,238,831
135896,7788168,7078168,7796616,7108488,2833,3800,-487,6382,-4500,-8385,-1917,-2328,205,235,828
136897,7789076,7079184,7797360,7109232,2863,3800,-423,5304,-3790,-8609,-1720,-2438,205,235,828
137898,7790012,7080128,7798104,7109976,2606,3800,-560,4480,-3074,-8847,-1796,-591,208,231,831
138899,7791040,7081068,7798848,7110720,1907,3800,-906,4215,-2343,-8795,-1942,1093,208,231,831
139900,7791980,7081968,7799592,7111464,2373,3800,-1220,3716,-1668,-8765,-1487,-891,189,212,828
140901,7792884,7082788,7800336,7112208,2528,3800,-1396,2599,-1151,-8721,-708,-1773,189,212,828
141908,7793820,7083684,7801096,7112968,2252,3800,-1640,1275,-802,-8030,-222,-845,180,162,830
142902,7794640,7084472,7801840,7113712,2946,3800,-1995,73,-536,-7342,19,-480,180,162,830
143904,7795412,7085200,7802584,7114456,3234,3800,-2406,-1215,-261,-6957,263,-1004,158,148,827
144905,7796280,7085888,7803328,7115200,2582,3800,-2766,-2423,108,-6871,-89,-221,158,148,827
145905,7797060,7086496,7804072,7115944,3117,3800,-3169,-3888,644,-7334,-154,-233,157,134,823
146907,7797812,7087176,7804816,7116688,3289,3800,-3337,-7006,1773,-16960,518,-1723,157,134,823
147908,7798636,7087692,7805560,7117432,2806,3800,-3247,-11516,3148,-17493,1583,-1193,152,112,823
148909,7799340,7088224,7806304,7118176,3575,3800,-3424,-14584,3683,-8289,1533,1548,152,112,823
149922,7800004,7088664,7807048,7118920,3800,3800,-3659,-15694,3618,-1528,2444,2007,134,87,820
150923,7800668,7089004,7807792,7119664,3800,3800,-3893,-16673,3557,302,1801,1983,134,87,820
151924,7801260,7089328,7808536,7120408,3800,3800,-4053,-18036,3476,1702,1383,1517,114,72,817
152925,7801748,7089632,7809280,7121152,3800,3800,-4177,-20085,3604,3015,2202,1102,114,72,817
153926,7802356,7089856,7810024,7121896,3800,3800,-4430,-21939,3733,5878,2421,1770,97,63,815
154927,7802884,7090024,7810768,7122640,3800,3800,-4774,-23998,3746,6835,2766,740,97,63,815
155929,7803456,7090164,7811512,7123384,3800,3800,-4642,-26209,3877,9432,2512,7714,100,31,813
156929,7804032,7090308,7812256,7124128,3800,3800,-2412,-28597,3845,19580,96,32767,100,31,813
157930,7804612,7090412,7813000,7124872,3800,3800,-1754,-27853,3880,18015,-964,32767,95,39,811
158931,7805120,7090520,7813744,7125616,3800,3800,-2019,-25944,3823,16449,3529,25009,95,39,811
159932,7805808,7090636,7814488,7126360,3800,3800,-272,-19658,3394,18314,5382,32767,102,21,813
160934,7806472,7090728,7815232,7127104,3800,3800,2133,-11702,2913,13575,3340,32767,102,21,813
161934,7807112,7090840,7815976,7127848,3800,3800,2116,-8860,2553,8396,4301,10224,113,31,812
162936,7807892,7090956,7816720,7128592,3800,3800,898,-10117,2017,6760,7818,4093,113,31,812
163943,7808584,7091048,7817480,7129352,3800,3800,-16,-12181,1330,5902,8397,2073,117,17,814
164937,7809268,7091152,7818224,7130096,3800,3800,-296,-13877,829,5258,7166,947,117,17,814
165938,7809908,7091240,7818968,7130840,3800,3800,-356,-14442,578,4620,5705,3034,145,21,811
166939,7810672,7091340,7819712,7131584,3800,3800,-702,-13948,590,3250,3139,5862,145,21,811
167940,7811284,7091464,7820456,7132328,3800,3800,-1229,-12960,793,1833,355,7154,131,37,812
168941,7811924,7091620,7821200,7133072,3800,3800,-1601,-11822,752,924,825,6870,131,37,812
169942,7812608,7091788,7821944,7133816,3800,3800,-1599,-11202,343,-425,1880,5054,132,37,813
170943,7813252,7091956,7822688,7134560,3800,3800,-1678,-10185,-360,-2181,2263,8120,132,37,813
171944,7813916,7092140,7823432,7135304,3800,3800,-2375,-7318,-845,-3282,-303,14478,116,35,814
172945,7814508,7092332,7824176,7136048,3800,3800,-3128,-4106,-795,-3009,-974,11939,116,35,814
173946,7814996,7092576,7824920,7136792,3800,3800,-3548,-1559,-407,-2758,-2175,9732,120,52,814
174947,7815536,7092800,7825664,7137536,3800,3800,-3483,-301,71,-2796,-2899,5664,120,52,814
175948,7816132,7093032,7826408,7138280,3800,3800,-3052,-99,532,-2467,-3327,2738,110,61,814
176949,7816588,7093268,7827152,7139024,3800,3800,-2409,-546,708,-2091,-1194,471,110,61,814
177950,7817088,7093568,7827896,7139768,3800,3800,-1772,-671,613,-1754,396,1499,102,73,814
178951,7817628,7093936,7828640,7140512,3800,3800,-1400,-139,642,-1357,-996,3380,102,73,814
179952,7818076,7094236,7829384,7141256,3800,3800,-1133,722,850,-1076,-1714,3530,103,65,814
180953,7818552,7094592,7830128,7142000,3800,3800,-746,1442,1241,-516,-2245,2946,103,65,814
181954,7819048,7095000,7830872,7142744,3800,3800,-278,2197,1715,401,-2231,3523,95,86,813
182955,7819548,7095388,7831616,7143488,3800,3800,155,3017,2150,888,-2158,3894,95,86,813
183956,7820020,7095796,7832360,7144232,3800,3800,520,4054,2544,963,-2764,4599,113,79,814
184957,7820568,7096320,7833104,7144976,3800,3800,881,5144,2870,1210,-3116,4479,113,79,814
185967,7821032,7096784,7833864,7145736,3800,3800,1206,6133,3030,1584,-3010,4395,111,83,815
186959,7821552,7097212,7834608,7146480,3800,3800,1553,7067,2965,1842,-2426,4552,111,83,815
187961,7822144,7097712,7835352,7147224,3800,3800,1854,7994,2872,2478,-2713,4838,111,94,815
188961,7822660,7098252,7836096,7147968,3800,3800,2072,9073,2874,3310,-2782,5327,111,94,815
189963,7823200,7098792,7836840,7148712,3800,3800,2154,10252,2931,4004,-2466,5634,106,114,815
190963,7823820,7099396,7837584,7149456,3800,3800,2223,11301,2971,4767,-2475,5001,106,114,815
191965,7824356,7099948,7838328,7150200,3800,3800,2346,11879,2896,5159,-2246,3743,112,125,815
192966,7824948,7100624,7839072,7150944,3800,3800,2515,12020,2698,5445,-1821,2978,112,125,815
193967,7825560,7101300,7839816,7151688,3800,3800,2680,11859,2427,5651,-1853,2200,110,129,817
194967,7826208,7102056,7840560,7152432,3800,3800,2847,11472,2170,5817,-2214,1467,110,129,817
195969,7826844,7102840,7841304,7153176,3800,3800,2988,11005,1960,5937,-2262,1209,114,148,818
196970,7827476,7103672,7842048,7153920,3800,3800,3126,10462,1754,6024,-2055,977,114,148,818
197970,7828228,7104416,7842792,7154664,3800,3800,3237,9727,1486,6216,-1548,342,148,157,820
198971,7828956,7105340,7843536,7155408,3800,3800,3299,8841,1103,5998,-896,137,148,157,820
199973,7829644,7106196,7844280,7156152,3800,3800,3331,7973,633,5785,-437,160,153,158,820
200973,7830428,7107128,7845024,7156896,3800,3800,3362,7106,94,5312,-153,-47,153,158,820
201975,7831208,7108116,7845768,7157640,3800,3800,3396,6340,-485,4576,-69,211,148,186,821
202975,7832032,7109024,7846512,7158384,3800,3800,3389,5713,-1062,3902,-512,316,148,186,821
203977,7832988,7109976,7847256,7159128,3800,3800,3302,5268,-1639,3107,-1166,901,169,182,823
204978,7833784,7111060,7848000,7159872,3800,3800,3119,5049,-2205,2261,-1587,1379,169,182,823
205979,7834664,7112104,7848744,7160616,3800,3800,2945,4935,-2806,1496,-1456,1388,177,202,823
206979,7835676,7113052,7849488,7161360,3800,3800,2828,4867,-3434,957,-1495,1231,177,202,823
207988,7836768,7114072,7850248,7162120,3800,3800,2768,4854,-4048,386,-1596,1274,181,201,823
208982,7837752,7115092,7850992,7162864,3800,3800,2749,5013,-4571,-191,-1732,1416,181,201,823
209969,7838964,7116040,7851736,7163608,3082,3800,2751,5317,-4974,-934,-1988,1663,210,196,824
210983,7840012,7116992,7852480,7164352,3800,3800,2773,5893,-5268,-1883,-2418,2100,210,196,824
211971,7841136,7118028,7853224,7165096,3337,3800,2848,6580,-5446,-2988,-3957,2152,221,218,823
212973,7842320,7119064,7853968,7165840,2770,3800,2987,7363,-5460,-3874,-5481,2335,221,218,823
213973,7843348,7119952,7854712,7166584,3622,3800,3164,8146,-5302,-4578,-5662,2199,202,222,824
214974,7844400,7120956,7855456,7167328,3340,3800,3354,8806,-5032,-4883,-5280,1617,202,222,824
215976,7845568,7122016,7856200,7168072,2431,3800,3488,9261,-4680,-5017,-4783,1168,228,228,828
216977,7846632,7123164,7856944,7168816,2942,3800,3566,9554,-4263,-5145,-4564,559,228,228,828
217978,7847588,7124236,7857688,7169560,3526,3800,3619,9564,-3837,-5169,-4413,-476,212,208,827
218979,7848576,7125304,7858432,7170304,3221,3800,3669,9228,-3493,-5003,-3794,-1570,212,208,827
219980,7849636,7126284,7859176,7171048,2633,3800,3662,8616,-3240,-4793,-3208,-2398,216,210,828
220981,7850560,7127348,7859920,7171792,3406,3800,3598,7873,-3032,-5095,-2929,-2894,216,210,828
221982,7851500,7128372,7860664,7172536,3222,3800,3418,7232,-2809,-5572,-2843,-2492,220,219,827
222983,7852544,7129528,7861408,7173280,2442,3800,3193,6667,-2571,-5759,-2420,-2685,220,219,827
223984,7853548,7130616,7862152,7174024,2580,3800,2840,5985,-2259,-5199,-2094,-2923,200,216,826
224985,7854548,7131708,7862896,7174768,2493,3800,2440,5233,-1854,-4542,-2070,-3255,200,216,826
225986,7855564,7132780,7863640,7175512,2276,3800,1967,4138,-1383,-4241,-2217,-4001,203,222,830
226987,7856560,7133916,7864384,7176256,2291,3800,1573,2730,-939,-3925,-1850,-4995,203,222,830
227988,7857608,7135164,7865128,7177000,1834,3800,1251,1039,-538,-3398,-1389,-5505,209,215,830
228989,7858672,7136324,7865872,7177744,1595,3800,988,-753,-176,-2940,-1161,-5763,209,215,830
229997,7859648,7137388,7866632,7178504,2052,3800,714,-2659,165,-2682,-529,-5954,199,251,831
230991,7860564,7138564,7867376,7179248,2352,3800,376,-4681,530,-2368,47,-5947,199,251,831
231992,7861512,7139776,7868120,7179992,2063,3800,-10,-6422,930,-1705,41,-5212,205,256,833
232993,7862428,7141072,7868864,7180736,2189,3800,-452,-7859,1436,-1987,609,-4331,205,256,833
233994,7863320,7142240,7869608,7181480,2276,3800,-952,-9100,2013,-1625,309,-3638,192,252,830
234994,7864284,7143384,7870352,7182224,1730,3800,-1510,-10057,2575,-861,27,-2602,192,252,830
235996,7865108,7144484,7871096,7182968,2571,3800,-1988,-10686,3107,-544,824,-1901,186,259,830
236997,7866008,7145608,7871840,7183712,2028,3800,-2486,-11149,3564,0,1372,-1099,186,259,830
237998,7866984,7146740,7872584,7184456,1452,3800,-2976,-11428,3963,-67,2345,-273,163,239,832
238999,7867896,7147916,7873328,7185200,1780,3800,-3457,-11267,4239,-60,4218,1016,163,239,832
240000,7868836,7148976,7874072,7185944,1519,3800,-3986,-10695,4305,246,5617,2165,181,229,831
241001,7869752,7150060,7874816,7186688,1595,3800,-4451,-10061,4275,217,5925,2229,181,229,831
242002,7870524,7151056,7875560,7187432,2484,3800,-4804,-9557,4316,767,4629,1947,184,202,832
243003,7871420,7151968,7876304,7188176,1643,3800,-5068,-9393,4446,1609,3931,1273,184,202,832
244004,7872348,7152928,7877048,7188920,1363,3800,-5260,-9374,4523,2429,4206,1359,174,181,831
245005,7873160,7153696,7877792,7189664,2059,3800,-5363,-9381,4387,2533,5178,1127,174,181,831
246006,7873928,7154384,7878536,7190408,2325,3800,-5431,-9376,4041,1845,5970,1686,165,134,828
247007,7874664,7155008,7879280,7191152,2529,3800,-5499,-9261,3542,1623,6363,2454,165,134,828
248008,7875380,7155572,7880024,7191896,2667,3800,-5662,-8815,3018,2219,5910,3909,125,135,825
249009,7876104,7156076,7880768,7192640,2627,3800,-5879,-8045,2455,2234,5624,4626,125,135,825
250010,7876752,7156576,7881512,7193384,3145,3800,-6097,-7505,1783,2008,4539,4324,138,113,823
251011,7877424,7156968,7882256,7194128,3027,3800,-6279,-7227,1092,1839,3875,4170,138,113,823
252019,7878068,7157344,7883016,7194888,3254,3800,-6449,-7339,460,2114,5040,2869,143,85,821
253013,7878648,7157712,7883760,7195632,3727,3800,-6593,-8140,-213,2927,7089,461,143,85,821
254014,7879312,7158036,7884504,7196376,3238,3800,-6690,-9595,-884,3339,7945,-1192,109,74,819
255027,7879844,7158372,7885248,7197120,3800,3800,-6716,-11430,-1458,3682,8124,-2006,109,74,819
256028,7880220,7158652,7885992,7197864,3800,3800,-6686,-13461,-1848,4606,6974,-2576,115,74,814
257029,7880744,7158932,7886736,7198608,3800,3800,-6640,-15392,-1895,5636,5092,-1972,115,74,814
258030,7881212,7159300,7887480,7199352,3800,3800,-6649,-16941,-1640,6123,3950,-618,87,82,813
259031,7881640,7159616,7888224,7200096,3800,3800,-6748,-18126,-1255,6076,3120,442,87,82,813
260032,7882072,7159944,7888968,7200840,3800,3800,-6845,-19013,-874,5987,2404,1505,89,69,814
261033,7882468,7160312,7889712,7201584,3800,3800,-4557,-16686,-264,8462,-1092,15670,89,69,814
262034,7882840,7160660,7890456,7202328,3800,3800,5618,5018,263,19648,-14002,32767,72,68,813
263035,7883228,7161008,7891200,7203072,3800,3800,14384,22784,1043,11765,-7726,31647,72,68,813
264037,7883532,7161348,7891944,7203816,3800,3800,14231,25253,2358,7162,-6682,3854,69,77,811
265037,7883828,7161744,7892688,7204560,3800,3800,9671,21847,3542,8084,-4948,3153,69,77,811
266038,7884152,7162176,7893432,7205304,3800,3800,4749,19332,4107,9249,-3272,3188,76,81,813
267039,7884452,7162560,7894176,7206048,3800,3800,1181,18085,4357,7339,-4373,-1949,76,81,813
268040,7884744,7162908,7894920,7206792,3800,3800,-326,14805,4518,6051,-4049,-11362,75,80,811
269041,7885064,7163388,7895664,7207536,3800,3800,-700,8884,4247,5887,-233,-15923,75,80,811
270042,7885384,7163820,7896408,7208280,3800,3800,-547,2112,3485,5463,3516,-15728,63,100,813
271043,7885688,7164256,7897152,7209024,3800,3800,-606,-3315,2532,4732,2552,-11042,63,100,813
272045,7886004,7164772,7897896,7209768,3800,3800,-1450,-6377,1673,4085,-74,-4800,66,102,813
273045,7886348,7165256,7898640,7210512,3800,3800,-2612,-8108,829,2925,267,-2532,66,102,813
274056,7886696,7165764,7899400,7211272,3800,3800,-3676,-9108,88,2031,-1537,-279,62,94,813
275047,7887040,7166328,7900144,7212016,3800,3800,-4482,-9947,-458,1395,-2510,1001,62,94,813
276048,7887432,7166900,7900888,7212760,3800,3800,-5145,-10276,-867,476,-2008,2998,79,101,814
277049,7887820,7167508,7901632,7213504,3800,3800,-5564,-10010,-1186,-522,-2612,4366,79,101,814
278050,7888224,7168128,7902376,7214248,3800,3800,-5814,-9101,-1383,-1370,-3738,6546,91,120,813
279051,7888700,7168748,7903120,7214992,3800,3800,-4867,-6102,-1269,-2593,-5642,20393,91,120,813
280052,7889140,7169436,7903864,7215736,3800,3800,-1013,4061,-723,-4509,-6981,32767,89,120,814
281053,7889600,7170128,7904608,7216480,3800,3800,1995,11620,-571,-3169,-2012,21855,89,120,814
282054,7890132,7170972,7905352,7217224,3800,3800,2402,13976,-825,-2262,-630,9023,106,134,816
283055,7890660,7171756,7906096,7217968,3800,3800,1554,14421,-1020,-1183,-1575,8444,106,134,816
284056,7891184,7172504,7906840,7218712,3800,3800,978,15037,-1056,-560,-1811,6774,103,146,817
285057,7891804,7173416,7907584,7219456,3800,3800,833,15910,-1010,-222,-1232,5657,103,146,817
286059,7892372,7174208,7908328,7220200,3800,3800,873,16615,-989,794,-804,4172,106,154,818
287059,7892992,7175232,7909072,7220944,3800,3800,925,16615,-1035,1651,-392,2318,106,154,818
288060,7893692,7176296,7909816,7221688,3800,3800,919,16104,-1065,2184,-144,1338,138,175,819
289061,7894392,7177216,7910560,7222432,3800,3800,985,15231,-1113,2889,177,151,138,175,819
290062,7895092,7178192,7911304,7223176,3800,3800,994,14168,-1205,3529,479,-233,139,197,820
291063,7895888,7179236,7912048,7223920,3800,3800,1075,13001,-1313,3769,405,-774,139,197,820
292064,7896656,7180272,7912792,7224664,3800,3800,1162,11627,-1443,3749,205,-1246,156,199,822
293065,7897488,7181164,7913536,7225408,3800,3800,1320,10103,-1636,3212,174,-1671,156,199,822
294066,7898340,7182100,7914280,7226152,3800,3800,1471,8567,-1908,2745,121,-1476,170,189,822
295067,7899172,7183020,7915024,7226896,3800,3800,1642,7234,-2229,2299,-596,-1105,170,189,822
296076,7900108,7183824,7915784,7227656,3800,3800,1868,6137,-2558,1436,-1241,-516,169,168,822
297069,7901064,7184648,7916528,7228400,3800,3800,2123,5447,-2954,339,-1139,638,169,168,822
298070,7902140,7185408,7917272,7229144,3800,3800,2389,5169,-3403,-728,-1460,1649,183,166,822
299071,7903124,7186196,7918016,7229888,3800,3800,2648,5273,-3813,-1621,-2142,2559,183,166,822
300072,7904160,7187008,7918760,7230632,3800,3800,2911,5627,-4125,-2588,-3053,3165,212,179,820
301073,7905352,7187744,7919504,7231376,3800,3800,3111,6384,-4348,-3738,-3396,4288,212,179,820
302074,7906444,7188504,7920248,7232120,3800,3800,3247,7322,-4610,-5082,-1758,4144,218,158,821
303075,7907500,7189352,7920992,7232864,3800,3800,3376,8191,-5005,-6143,-1055,3744,218,158,821
304064,7908652,7190168,7921736,7233608,3775,3800,3512,8937,-5449,-6850,-2284,3554,212,166,823
305077,7909740,7191032,7922480,7234352,3800,3800,3628,9576,-5761,-7158,-2859,3253,212,166,823
306065,7910872,7191876,7923224,7235096,3583,3800,3735,9950,-5874,-7113,-2282,2294,226,173,823
307067,7912020,7192780,7923968,7235840,3308,3800,3841,9851,-5821,-6795,-1516,759,226,173,823
308080,7913028,7193596,7924712,7236584,3800,3800,3946,9175,-5565,-6178,-1659,-789,201,192,824
309068,7914072,7194684,7925456,7237328,3714,3800,4010,7956,-5059,-5519,-2238,-2172,201,192,824
310069,7915136,7195452,7926200,7238072,3451,3800,3993,6372,-4379,-4966,-2556,-3187,234,197,825
311083,7916112,7196432,7926944,7238816,3800,3800,3921,4496,-3662,-5015,-2378,-4181,234,197,825
312072,7917096,7197268,7927688,7239560,3748,3800,3812,2659,-2946,-5640,-2641,-3877,229,195,823
313072,7918172,7198320,7928432,7240304,3029,3800,3692,1077,-2171,-6221,-3261,-3601,229,195,823
314074,7919152,7199392,7929176,7241048,3528,3800,3560,-606,-1372,-6053,-3011,-4390,206,200,824
315074,7920124,7200456,7929920,7241792,3479,3800,3437,-2499,-582,-5619,-2482,-4828,206,200,824
316075,7921232,7201440,7930664,7242536,2470,3800,3248,-4367,205,-5593,-2578,-4585,220,205,827
317076,7922264,7202484,7931408,7243280,2821,3800,3003,-6128,1022,-5922,-3003,-4341,220,205,827
318084,7923288,7203596,7932168,7244040,2757,3800,2680,-7708,1882,-6005,-2984,-4213,198,231,827
319079,7924380,7204752,7932912,7244784,2181,3800,2276,-9087,2669,-5469,-2659,-3699,198,231,827
320080,7925336,7205864,7933656,7245528,2939,3800,1863,-10298,3387,-4927,-2140,-3482,202,233,829
321081,7926308,7206968,7934400,7246272,2741,3800,1459,-11522,4074,-4649,-1436,-3073,202,233,829
322082,7927316,7208056,7935144,7247016,2401,3800,1087,-12527,4686,-3932,-1551,-2699,187,228,829
323083,7928248,7209072,7935888,7247760,2795,3800,722,-13300,5297,-3628,-556,-2258,187,228,829
324084,7929224,7210124,7936632,7248504,2419,3800,444,-14238,5839,-2961,668,-2806,201,213,827
325085,7930132,7211232,7937376,7249248,2774,3800,95,-15223,6333,-1649,902,-2416,201,213,827
326085,7931168,7212292,7938120,7249992,1847,3800,-300,-15930,6861,-1317,1271,-1417,201,219,829
327087,7932060,7213364,7938864,7250736,2683,3800,-657,-16259,7298,-1071,1232,-799,201,219,829
328088,7932964,7214436,7939608,7251480,2539,3800,-959,-16578,7662,-937,1175,-560,179,225,828
329089,7933912,7215516,7940352,7252224,2176,3800,-1193,-16814,7935,209,1385,-218,179,225,828
330090,7934756,7216672,7941096,7252968,2783,3800,-1413,-17225,8073,1739,1166,-908,194,228,829
331091,7935600,7217712,7941840,7253712,2740,3800,-1605,-17876,8120,2548,1205,-1128,194,228,829
332092,7936552,7218688,7942584,7254456,1975,3800,-1797,-18530,8077,3267,1577,-961,169,208,830
333093,7937428,7219644,7943328,7255200,2393,3800,-1958,-18990,8002,3799,1885,-584,169,208,830
334094,7938288,7220444,7944072,7255944,2443,3800,-2074,-19128,8033,4214,1612,-73,169,171,826
335095,7939180,7221268,7944816,7256688,2179,3800,-2126,-19019,8245,4465,383,588,169,171,826
336096,7939964,7221916,7945560,7257432,2838,3800,-2149,-18701,8555,3915,-51,1456,144,139,826
337097,7940664,7222548,7946304,7258176,3383,3800,-2209,-17911,8764,3530,315,2940,144,139,826
338098,7941508,7223152,7947048,7258920,2440,3800,-2442,-16734,8726,3090,935,3673,137,137,825
339099,7942220,7223684,7947792,7259664,3280,3800,-2633,-15591,8481,2597,1082,3295,137,137,825
340107,7942908,7224140,7948552,7260424,3463,3800,-2742,-14474,7975,2151,1014,3216,135,97,820
341101,7943652,7224596,7949296,7261168,3114,3800,-2823,-13791,7181,1921,1464,2056,135,97,820
342101,7944348,7225072,7950040,7261912,3437,3800,-2857,-13498,6203,2890,2118,1071,126,104,819
343102,7945064,7225448,7950784,7262656,3325,3800,-2944,-13556,5172,3953,3022,355,126,104,819
344116,7945704,7225892,7951528,7263400,3800,3800,-3108,-13776,4200,4209,4742,-123,137,97,818
345117,7946248,7226356,7952272,7264144,3800,3800,-3406,-14187,3280,3728,5010,-789,137,97,818
346118,7946808,7226836,7953016,7264888,3800,3800,-3845,-14735,2326,3551,4903,-914,139,103,817
347119,7947360,7227344,7953760,7265632,3800,3800,-4333,-15346,1411,4494,4355,-1067,139,103,817
348120,7947872,7227864,7954504,7266376,3800,3800,-4695,-16242,606,5876,3278,-2212,109,90,816
349121,7948332,7228336,7955248,7267120,3800,3800,-4969,-17207,-54,7253,2634,-1707,109,90,816
350122,7948812,7228860,7955992,7267864,3800,3800,-5383,-17783,-624,8377,2296,794,110,94,815
351123,7949212,7229428,7956736,7268608,3800,3800,-6627,-15698,-629,10182,-1454,11623,110,94,815
352125,7949576,7230012,7957480,7269352,3800,3800,-8329,-12211,-221,11071,-1733,12218,98,116,814
353126,7949960,7230596,7958224,7270096,3800,3800,-9672,-9902,499,11448,-3328,7644,98,116,814
354126,7950344,7231152,7958968,7270840,3800,3800,-10198,-9882,1087,11556,-2064,2627,77,115,814
355127,7950684,7231832,7959712,7271584,3800,3800,-10202,-10672,1078,12119,161,2045,77,115,814
356128,7951028,7232424,7960456,7272328,3800,3800,-10104,-11350,771,13360,738,1896,73,125,814
357129,7951404,7233184,7961200,7273072,3800,3800,-10092,-11211,550,14499,784,3994,73,125,814
358130,7951724,7233840,7961944,7273816,3800,3800,-10249,-9924,318,14534,786,7646,65,128,815
359131,7952048,7234580,7962688,7274560,3800,3800,-7438,-4414,78,17877,-1597,19289,65,128,815
360133,7952416,7235284,7963432,7275304,3800,3800,1142,12910,-555,26123,-5731,32767,85,135,815
361133,7952756,7236104,7964176,7276048,3800,3800,6960,22121,-1175,16712,841,2746,85,135,815
362143,7953116,7236904,7964936,7276808,3800,3800,7602,21505,-1761,15073,2473,1191,86,137,816
363135,7953500,7237732,7965680,7277552,3800,3800,6191,17676,-2229,15179,1724,-1073,86,137,816
364137,7953840,7238532,7966424,7278296,3800,3800,5494,15486,-2471,15249,-422,454,88,156,816
365137,7954192,7239388,7967168,7279040,3800,3800,5251,15055,-2411,14091,-1600,1323,88,156,816
366138,7954596,7240352,7967912,7279784,3800,3800,5283,14947,-2502,12709,-1141,-74,74,170,815
367139,7954964,7241300,7968656,7280528,3800,3800,5464,14120,-2963,11110,-307,-1771,74,170,815
368140,7955368,7242384,7969400,7281272,3800,3800,5611,13005,-3475,8965,-696,-1175,73,186,816
369141,7955808,7243388,7970144,7282016,3800,3800,5662,12709,-3861,7543,-2069,1590,73,186,816
370142,7956236,7244460,7970888,7282760,3800,3800,5394,13271,-3998,6132,-3331,3033,82,186,818
371143,7956668,7245408,7971632,7283504,3800,3800,5275,14235,-4039,4429,-3178,2938,82,186,818
372144,7957180,7246380,7972376,7284248,3800,3800,5258,15121,-4197,3353,-3024,2724,95,193,819
373145,7957684,7247424,7973120,7284992,3800,3800,5253,16155,-4448,1988,-3089,3308,95,193,819
374146,7958216,7248316,7973864,7285736,3800,3800,5110,17368,-4734,1065,-2648,3979,98,194,819
375147,7958828,7249192,7974608,7286480,3800,3800,4928,18849,-5095,968,-2396,3525,98,194,819
376149,7959452,7249996,7975352,7287224,3800,3800,4847,20230,-5492,547,-1981,2820,128,170,819
377149,7960092,7250712,7976096,7287968,3800,3800,4848,21395,-5977,256,-1412,2076,128,170,819
378150,7960740,7251516,7976840,7288712,3800,3800,4701,22338,-6650,199,-923,1486,142,147,818
379151,7961472,7252200,7977584,7289456,3800,3800,4413,23085,-7581,-65,329,656,142,147,818
380152,7962208,7252892,7978328,7290200,3800,3800,4030,23718,-8628,15,406,224,140,152,818
381153,7963008,7253464,7979072,7290944,3800,3800,3666,24134,-9642,11,180,-325,140,152,818
382154,7963820,7254016,7979816,7291688,3800,3800,3366,24301,-10658,-289,382,-1154,163,127,819
383155,7964588,7254556,7980560,7292432,3800,3800,3105,24187,-11765,-360,586,-1889,163,127,819
384164,7965460,7255116,7981320,7293192,3800,3800,2829,23905,-12858,-322,-203,-2158,173,116,819
385158,7966412,7255640,7982064,7293936,3800,3800,2526,23468,-13774,-391,-1714,-2674,173,116,819
386159,7967356,7256224,7982808,7294680,3800,3800,2272,22716,-14431,-586,-2367,-3665,166,123,818
387159,7968272,7256884,7983552,7295424,3800,3800,2105,21705,-14770,-841,-2361,-4079,166,123,818
388160,7969356,7257496,7984296,7296168,3800,3800,2046,20518,-14829,-1468,-2357,-4614,183,124,818
389161,7970404,7258300,7985040,7296912,3800,3800,1999,19239,-14587,-2335,-3092,-4714,183,124,818
390162,7971444,7259020,7985784,7297656,3800,3800,1958,17935,-14015,-3313,-3640,-4896,189,148,820
391163,7972552,7259832,7986528,7298400,3800,3800,1904,16459,-13233,-4087,-3719,-5478,189,148,820
392164,7973612,7260588,7987272,7299144,3800,3800,1922,14685,-12296,-4891,-4208,-6230,194,166,822
393165,7974664,7261292,7988016,7299888,3800,3800,1990,12720,-11203,-5978,-5063,-6386,194,166,822
394154,7975852,7262172,7988760,7300632,3653,3800,2078,10681,-9957,-7296,-6002,-6373,213,138,822
395167,7976900,7263024,7989504,7301376,3800,3800,2123,8828,-8620,-8436,-6250,-5976,213,138,822
396168,7977920,7263908,7990248,7302120,3800,3800,2091,7252,-7231,-9403,-6256,-5501,194,159,823
397169,7978964,7264748,7990992,7302864,3800,3800,2017,5720,-5894,-10115,-5374,-5611,194,159,823
398170,7979992,7265636,7991736,7303608,3800,3800,1761,4270,-4777,-10250,-3945,-4614,222,194,824
399171,7980968,7266616,7992480,7304352,3800,3800,1217,3426,-3988,-10371,-2656,-2568,222,194,824
400172,7981984,7267660,7993224,7305096,3800,3800,456,3127,-3369,-11146,-2512,-1312,223,204,824
401173,7982952,7268688,7993968,7305840,3800,3800,-159,2592,-2708,-12081,-3341,-2952,223,204,824
402174,7983948,7269776,7994712,7306584,3800,3800,-666,1833,-2014,-12026,-3327,-2398,218,222,825
403175,7984924,7270888,7995456,7307328,3800,3800,-1173,1634,-1256,-11690,-3093,-449,218,222,825
404163,7986000,7271900,7996200,7308072,3185,3800,-1786,1812,-473,-11817,-2678,677,194,216,825
405165,7986964,7272992,7996944,7308816,3790,3800,-2360,1265,793,-17571,-2187,757,194,216,825
406172,7987944,7273936,7997704,7309576,3596,3800,-2539,-972,3113,-24205,-1042,654,207,207,825
407166,7989044,7274912,7998448,7310320,2691,3800,-2537,-2454,5494,-19355,-404,3093,207,207,825
408168,7989972,7275868,7999192,7311064,3687,3800,-2621,-2845,6719,-10406,-1368,617,208,202,825
409169,7990988,7276848,7999936,7311808,3020,3800,-2895,-4092,6711,-4458,-1180,-3475,208,202,825
410169,7991960,7277880,8000680,7312552,3196,3800,-3120,-6281,6613,-3657,137,-2791,198,202,828
411170,7992896,7278948,8001424,7313296,3338,3800,-3248,-8540,6730,-1887,321,-1934,198,202,828
412171,7993812,7279964,8002168,7314040,3390,3800,-3357,-10654,6924,-166,807,-2002,196,202,826
413172,7994808,7280964,8002912,7314784,2780,3800,-3344,-12783,7276,513,1167,-1958,196,202,826
414173,7995700,7281936,8003656,7315528,3367,3800,-3381,-15048,7414,2376,1295,-2097,177,207,826
415174,7996588,7282860,8004400,7316272,3330,3800,-3239,-17637,7338,2787,1935,-2939,177,207,826
416175,7997560,7283804,8005144,7317016,2706,3800,-2950,-20777,7210,4980,2177,-3961,177,190,827
417177,7998436,7284648,8005888,7317760,3249,3800,-2658,-24261,6956,7640,2270,-4893,177,190,827
418178,7999340,7285332,8006632,7318504,3006,3800,-2400,-27639,6712,8491,3711,-3767,168,147,825
419179,8000476,7285880,8007376,7319248,1385,3800,-2353,-30078,6361,9831,4423,-1441,168,147,825
420180,8001416,7286404,8008120,7319992,2525,3800,-2466,-31714,5932,9967,3622,-2,188,133,822
421181,8002320,7286832,8008864,7320736,2681,3800,-2641,-32382,5625,9224,3087,2535,188,133,822
422181,8003384,7287232,8009608,7321480,1542,3800,-2870,-32212,5263,8601,3206,3955,176,94,824
423182,8004296,7287572,8010352,7322224,2419,3800,-3090,-31633,4767,7286,3051,5315,176,94,824
424184,8005184,7287828,8011096,7322968,2507,3800,-3342,-30059,4220,6005,2944,8092,167,69,821
425185,8006116,7288044,8011840,7323712,2150,3800,-3631,-27442,3663,4609,2631,10470,167,69,821
426186,8006896,7288224,8012584,7324456,3085,3800,-3912,-24483,3141,2921,2019,11401,178,44,820
427186,8007696,7288424,8013328,7325200,2937,3800,-4182,-21413,2664,2213,1704,11711,178,44,820
428195,8008464,7288576,8014088,7325960,3135,3800,-4444,-18611,2120,1772,2195,10222,139,40,820
429189,8009188,7288724,8014832,7326704,3420,3800,-4705,-16622,1492,1347,2994,7918,139,40,820
430202,8009856,7288872,8015576,7327448,3800,3800,-5027,-15213,778,1414,4187,7061,141,27,817
431190,8010580,7289024,8016320,7328192,3464,3800,-5220,-14314,182,1765,2924,5425,141,27,817
432204,8011200,7289200,8017064,7328936,3800,3800,-5221,-14045,-224,2600,3437,2872,130,28,813
433205,8011812,7289388,8017808,7329680,3800,3800,-5391,-14048,-154,3218,1467,2896,130,28,813
434206,8012400,7289576,8018552,7330424,3800,3800,-6304,-13269,461,4015,538,6362,138,51,814
435207,8013024,7289776,8019296,7331168,3800,3800,-7496,-12336,873,3931,3215,4695,138,51,814
436208,8013544,7290012,8020040,7331912,3800,3800,-7843,-13074,621,3159,4203,-1564,134,47,813
437209,8014084,7290360,8020784,7332656,3800,3800,-7472,-14984,157,3452,3202,-2533,134,47,813
438210,8014632,7290720,8021528,7333400,3800,3800,-7566,-16200,210,4739,1642,996,122,75,812
439211,8015076,7291056,8022272,7334144,3800,3800,-8162,-16586,672,5467,2049,1262,122,75,812
440212,8015544,7291456,8023016,7334888,3800,3800,-8557,-17254,998,5064,1621,-799,95,87,813
441213,8016036,7291880,8023760,7335632,3800,3800,-9249,-17676,1547,5532,-1858,2140,95,87,813
442214,8016492,7292280,8024504,7336376,3800,3800,-10579,-17380,2679,6100,-5269,3937,93,95,814
443215,8016896,7292796,8025248,7337120,3800,3800,-7103,-9785,3004,21811,-5538,32767,93,95,814
444216,8017344,7293252,8025992,7337864,3800,3800,2174,8264,940,32767,-6044,32767,79,90,813
445217,8017716,7293692,8026736,7338608,3800,3800,7300,14739,230,7939,-4730,54,79,90,813
446218,8018116,7294156,8027480,7339352,3800,3800,6748,11942,1277,5892,-3505,-1781,80,100,814
447219,8018544,7294668,8028224,7340096,3800,3800,5115,6772,2486,5318,-2734,-5898,80,100,814
448220,8018924,7295188,8028968,7340840,3800,3800,4167,3264,3131,5230,-3759,-4640,73,112,814
449221,8019292,7295728,8029712,7341584,3800,3800,4320,1427,3556,3898,-5316,-5360,73,112,814
450232,8019720,7296312,8030472,7342344,3800,3800,4367,-234,4085,4200,-6388,-3583,78,104,814
451224,8020088,7296876,8031216,7343088,3800,3800,4099,-1052,4570,4096,-6330,-1271,78,104,814
452225,8020464,7297496,8031960,7343832,3800,3800,3931,-2288,4964,3096,-6239,-2356,98,113,814
453226,8020856,7298104,8032704,7344576,3800,3800,3808,-3036,5143,3230,-6259,-975,98,113,814
454226,8021316,7298864,8033448,7345320,3800,3800,3870,-3608,5210,2848,-6213,-961,75,118,814
455227,8021748,7299476,8034192,7346064,3800,3800,4090,-3870,5108,2306,-4510,-84,75,118,814
456229,8022164,7300244,8034936,7346808,3800,3800,4325,-3447,4637,2205,-2537,2017,102,121,814
457229,8022676,7300948,8035680,7347552,3800,3800,4298,-1859,3958,2079,-2307,6393,102,121,814
458231,8023180,7301756,8036424,7348296,3800,3800,3980,1176,3306,2203,-2042,9806,92,143,816
459231,8023680,7302572,8037168,7349040,3800,3800,3678,4537,2740,3042,-1187,9838,92,143,816
460233,8024288,7303408,8037912,7349784,3800,3800,3471,7860,2226,3778,-607,10437,95,153,817
461233,8024888,7304268,8038656,7350528,3800,3800,3281,11120,1708,4400,-485,10833,95,153,817
462235,8025488,7305092,8039400,7351272,3800,3800,3156,14064,1132,5089,-714,9605,125,163,818
463235,8026172,7306080,8040144,7352016,3800,3800,3099,16494,561,5586,-1230,8250,125,163,818
464237,8026872,7307060,8040888,7352760,3800,3800,3063,18333,2,6546,-705,6889,132,190,819
465237,8027588,7308048,8041632,7353504,3800,3800,3024,19692,-670,7868,766,5218,132,190,819
466239,8028356,7309116,8042376,7354248,3800,3800,2994,20479,-1461,9021,2112,3668,144,195,820
467240,8029156,7310200,8043120,7354992,3800,3800,2983,20687,-2398,9812,3508,1940,144,195,820
468241,8029956,7311116,8043864,7355736,3800,3800,3068,20233,-3371,10199,3743,-86,165,186,821
469241,8030860,7312100,8044608,7356480,3800,3800,3284,19192,-4180,10200,3127,-1725,165,186,821
470242,8031728,7313136,8045352,7357224,3800,3800,3495,17997,-4753,9911,2123,-1687,167,198,822
471243,8032644,7314048,8046096,7357968,3800,3800,3588,17033,-5220,8632,1268,-769,167,198,822
472252,8033712,7314900,8046856,7358728,3800,3800,3642,16091,-5712,7209,948,-1426,182,175,822
473245,8034716,7315728,8047600,7359472,3800,3800,3809,14975,-6301,5926,1205,-2099,182,175,822
474247,8035724,7316472,8048344,7360216,3800,3800,3926,14106,-6927,4336,1226,-641,177,172,822
475248,8036848,7317372,8049088,7360960,3800,3800,3953,13688,-7515,3104,765,238,177,172,822
476248,8037940,7318180,8049832,7361704,3800,3800,3909,13584,-8047,2188,22,609,209,174,821
477236,8039036,7318964,8050576,7362448,3783,3800,3884,13630,-8532,1609,-819,536,209,174,821
478250,8040024,7319748,8051320,7363192,3800,3800,3868,13731,-8942,956,-1677,471,219,164,821
479238,8041216,7320528,8052064,7363936,2883,3800,3908,13720,-9230,-311,-1971,157,219,164,821
480252,8042204,7321380,8052808,7364680,3800,3800,4000,13884,-9385,-1789,-2094,588,207,167,823
481241,8043240,7322316,8053552,7365424,3626,3800,4061,14063,-9459,-3260,-2751,315,207,167,823
482241,8044324,7323108,8054296,7366168,3179,3800,4031,14076,-9607,-4160,-2609,-475,208,176,824
483243,8045308,7323976,8055040,7366912,3700,3800,4023,13981,-9684,-4578,-2423,-847,208,176,824
484256,8046236,7324828,8055784,7367656,3800,3800,4015,13935,-9505,-4589,-3293,-965,229,193,823
485245,8047280,7325796,8056528,7368400,3117,3800,3981,13731,-9067,-4635,-3577,-1656,229,193,823
486258,8048200,7326696,8057272,7369144,3800,3800,3906,13293,-8488,-5254,-4103,-2224,222,195,823
487247,8049140,7327684,8058016,7369888,3606,3800,3801,13019,-7864,-6472,-4543,-1953,222,195,823
488248,8050164,7328520,8058760,7370632,2960,3800,3640,12862,-7238,-7896,-4761,-1846,219,186,824
489249,8051112,7329552,8059504,7371376,3346,3800,3459,12852,-6585,-8225,-4974,-1680,219,186,824
490250,8052084,7330536,8060248,7372120,3098,3800,3226,12704,-5858,-7831,-4462,-2685,199,196,824
491251,8053176,7331556,8060992,7372864,2196,3800,2989,11849,-5101,-7750,-3734,-4466,199,196,824
492252,8054132,7332560,8061736,7373608,2955,3800,2756,10601,-4318,-8077,-3979,-4892,203,203,825
493253,8055132,7333680,8062480,7374352,2569,3800,2504,9042,-3463,-8148,-4146,-6019,203,203,825
494260,8056168,7334836,8063240,7375112,2224,3800,2308,6871,-2605,-7281,-3733,-8194,199,235,829
495255,8057040,7335908,8063984,7375856,3194,3800,2064,4114,-1736,-6562,-2755,-9063,199,235,829
496256,8057920,7337028,8064728,7376600,3086,3800,1673,1301,-744,-6070,-2341,-8427,189,235,829
497257,8058900,7338204,8065472,7377344,2359,3800,1204,-1114,337,-5422,-1578,-7442,189,235,829
498257,8059808,7339240,8066216,7378088,2738,3800,755,-3411,1459,-5274,-320,-7436,204,231,826
499259,8060748,7340272,8066960,7378832,2452,3800,308,-5738,2534,-4437,-217,-7175,204,231,826
500260,8061720,7341276,8067704,7379576,2153,3800,-182,-7866,3565,-4029,-564,-5875,191,217,828
501261,8062600,7342288,8068448,7380320,2670,3800,-699,-9434,4485,-4006,-353,-4384,191,217,828
502261,8063440,7343440,8069192,7381064,2879,3800,-1194,-10739,5283,-3836,-450,-3851,185,227,828
503263,8064272,7344456,8069936,7381808,2892,3800,-1616,-11830,6024,-3754,-220,-2921,185,227,828
504264,8065148,7345456,8070680,7382552,2560,3800,-2034,-12764,6636,-3410,422,-1998,175,211,827
505265,8066012,7346500,8071424,7383296,2583,3800,-2497,-13385,6998,-2789,1518,-730,175,211,827
506266,8066824,7347464,8072168,7384040,2879,3800,-2946,-13876,7147,-1784,2274,-403,165,204,827
507267,8067756,7348372,8072912,7384784,2047,3800,-3386,-14552,7215,-470,2690,-741,165,204,827
508268,8068680,7349356,8073656,7385528,2019,3800,-3835,-15190,7305,858,3555,15,179,197,827
509269,8069472,7350168,8074400,7386272,2824,3800,-4203,-15700,7355,1703,4441,110,179,197,827
510269,8070352,7350912,8075144,7387016,2215,3800,-4587,-16192,7385,2296,4067,344,173,154,826
511270,8071184,7351500,8075888,7387760,2478,3800,-5039,-16191,7497,1813,3341,2083,173,154,826
512272,8071952,7352028,8076632,7388504,2868,3800,-5383,-15590,7645,313,4068,3474,151,131,823
513273,8072832,7352500,8077376,7389248,2109,3800,-5728,-14728,7551,-402,5110,4304,151,131,823
514274,8073568,7352900,8078120,7389992,3013,3800,-6071,-13747,7034,-326,7104,4507,148,96,822
515275,8074288,7353244,8078864,7390736,3124,3800,-6325,-12948,6114,-2,8645,3620,148,96,822
516283,8075024,7353512,8079624,7391496,3036,3800,-6535,-12642,5012,249,9545,2801,145,58,822
517277,8075760,7353748,8080368,7392240,3041,3800,-6730,-12767,4071,595,9931,2660,145,58,822
518278,8076440,7353984,8081112,7392984,3420,3800,-6848,-13119,3308,1284,10470,1660,128,62,817
519292,8077012,7354196,8081856,7393728,3800,3800,-7105,-13571,2731,1675,8629,1778,128,62,817
520293,8077624,7354336,8082600,7394472,3800,3800,-7494,-14104,2319,1271,9142,1272,127,48,816
521293,8078216,7354484,8083344,7395216,3800,3800,-7881,-15039,1972,986,9645,517,127,48,816
522294,8078868,7354584,8084088,7395960,3800,3800,-8181,-16024,1642,1383,8440,633,134,38,812
523295,8079404,7354680,8084832,7396704,3800,3800,-8430,-17026,1417,1968,7477,271,134,38,812
524296,8079968,7354780,8085576,7397448,3800,3800,-8621,-18061,1372,2159,6084,285,115,27,812
525297,8080544,7354908,8086320,7398192,3800,3800,-8930,-19038,1502,2562,4579,1385,115,27,812
526298,8081060,7355052,8087064,7398936,3800,3800,-10025,-18090,1930,3762,1885,8923,102,34,812
527299,8081524,7355200,8087808,7399680,3800,3800,-12185,-14754,2792,4082,-2362,14250,102,34,812
528300,8082040,7355360,8088552,7400424,3800,3800,-14194,-11659,3327,4084,572,10994,102,48,811
529301,8082536,7355620,8089296,7401168,3800,3800,-15277,-10285,3322,4191,1338,7437,102,48,811
530302,8082988,7355908,8090040,7401912,3800,3800,-15957,-10336,3027,4814,650,5230,88,62,812
531303,8083388,7356176,8090784,7402656,3800,3800,-11205,-2792,2662,15427,-7408,32767,88,62,812
532304,8083832,7356404,8091528,7403400,3800,3800,7,18896,1799,26959,-12126,32767,87,56,810
533305,8084224,7356708,8092272,7404144,3800,3800,6329,27203,963,10255,300,1881,87,56,810
534306,8084604,7357036,8093016,7404888,3800,3800,6446,22809,423,8262,2549,-6630,74,72,811
535307,8084960,7357348,8093760,7405632,3800,3800,4771,14838,-107,8694,1675,-9080,74,72,811
536309,8085296,7357636,8094504,7406376,3800,3800,3966,8871,-643,8305,196,-9172,63,67,811
537309,8085636,7357928,8095248,7407120,3800,3800,3996,5207,-871,7421,-1668,-6498,63,67,811
538319,8085988,7358284,8096008,7407880,3800,3800,3985,2867,-700,7682,-4096,-4382,63,61,811
539311,8086324,7358608,8096752,7408624,3800,3800,3213,1182,-133,7978,-8024,-767,63,61,811
540313,8086652,7358964,8097496,7409368,3800,3800,2288,76,437,6889,-7846,642,58,68,811
541313,8087048,7359256,8098240,7410112,3800,3800,1332,-700,725,6324,-7687,2280,58,68,811
542314,8087436,7359584,8098984,7410856,3800,3800,72,-717,-101,7517,-30880,-1980,66,79,811
543315,8087832,7359964,8099728,7411600,3800,3800,-1550,-507,-1160,4911,-23574,-1484,66,79,811
544316,8088288,7360320,8100472,7412344,3800,3800,-2186,-543,-1604,4562,-4431,3126,75,68,811
545317,8088736,7360648,8101216,7413088,3800,3800,-2260,-1002,-1659,3859,-4040,2649,75,68,811
546318,8089200,7361064,8101960,7413832,3800,3800,-2141,-1200,-1615,2475,-3671,4616,80,80,812
547319,8089752,7361468,8102704,7414576,3800,3800,-2094,-816,-1742,1870,-3414,4484,80,80,812
548320,8090272,7361856,8103448,7415320,3800,3800,-2191,-552,-2076,839,-2350,4315,93,86,813
549321,8090864,7362276,8104192,7416064,3800,3800,-2427,404,-2475,-320,-1228,7335,93,86,813
550322,8091508,7362768,8104936,7416808,3800,3800,-2880,2197,-2940,-604,-376,9403,106,97,813
551323,8092108,7363276,8105680,7417552,3800,3800,-2993,3735,-3355,-1397,-568,7016,106,97,813
552325,8092756,7363812,8106424,7418296,3800,3800,-2766,4801,-3604,-2042,-177,6820,121,102,814
553325,8093512,7364372,8107168,7419040,3800,3800,-2403,5888,-3737,-2178,438,7246,121,102,814
554326,8094220,7364900,8107912,7419784,3800,3800,-2123,7216,-3624,-2148,-283,8207,136,113,815
555327,8094980,7365520,8108656,7420528,3800,3800,-1786,8483,-3237,-2705,-1291,7207,136,113,815
556329,8095700,7366224,8109400,7421272,3800,3800,-1324,9045,-2842,-3209,-497,4870,160,115,817
557329,8096572,7366848,8110144,7422016,3800,3800,-710,8933,-2521,-3446,711,3357,160,115,817
558330,8097448,7367552,8110888,7422760,3800,3800,-96,8510,-2194,-3512,1095,2871,173,120,818
559331,8098296,7368248,8111632,7423504,3800,3800,459,8107,-1787,-3631,1505,2687,173,120,818
560339,8099280,7369004,8112392,7424264,3800,3800,969,7714,-1292,-3830,2345,2611,184,154,819
561333,8100272,7369872,8113136,7425008,3800,3800,1465,7367,-749,-3985,2929,2483,184,154,819
562334,8101240,7370604,8113880,7425752,3800,3800,1961,6795,-155,-4239,3197,1791,170,142,820
563335,8102336,7371504,8114624,7426496,3800,3800,2536,5999,384,-4592,3470,878,170,142,820
564337,8103360,7372360,8115368,7427240,3800,3800,3115,4980,875,-5035,3529,425,207,158,820
565337,8104388,7373288,8116112,7427984,3800,3800,3571,4158,1369,-5648,2334,1270,207,158,820
566338,8105480,7374240,8116856,7428728,3800,3800,3861,3594,1896,-6215,660,1839,214,177,821
567339,8106524,7375236,8117600,7429472,3800,3800,4164,3097,2423,-6409,-205,1413,214,177,821
568340,8107556,7376188,8118344,7430216,3800,3800,4497,2481,2885,-6528,-780,1175,209,207,822
569328,8108656,7377140,8119088,7430960,3425,3800,4884,1853,3299,-6594,-1615,1214,209,207,822
570342,8109640,7378000,8119832,7431704,3800,3800,5166,1338,3743,-6292,-2558,1803,211,187,822
571343,8110616,7378904,8120576,7432448,3800,3800,5376,873,4151,-5509,-2541,1502,211,187,822
572331,8111624,7379924,8121320,7433192,3682,3800,5486,259,4448,-4904,-2931,992,206,195,824
573345,8112572,7380736,8122064,7433936,3800,3800,5613,-504,4606,-4550,-3430,247,206,195,824
574346,8113504,7381600,8122808,7434680,3800,3800,5667,-1379,4684,-4278,-3649,70,227,191,822
575334,8114532,7382472,8123552,7435424,3265,3800,5661,-2180,4685,-3928,-3781,116,227,191,822
576335,8115468,7383380,8124296,7436168,3758,3800,5473,-2887,4651,-3116,-4063,167,207,196,822
577336,8116444,7384288,8125040,7436912,3408,3800,5276,-3616,4565,-2411,-3780,-568,207,196,822
578337,8117516,7385316,8125784,7437656,2665,3800,5062,-4549,4383,-2158,-3731,-771,215,184,825
579338,8118524,7386280,8126528,7438400,2951,3800,4877,-5335,4108,-2044,-4036,-287,215,184,825
580339,8119524,7387228,8127272,7439144,2889,3800,4562,-5905,3812,-1810,-4018,52,203,188,825
581341,8120564,7388204,8128016,7439888,2511,3800,4213,-6555,3376,-1360,-2961,-742,203,188,825
582349,8121612,7389096,8128776,7440648,2336,3800,3919,-7648,2738,-432,-1597,-2091,224,189,826
583343,8122560,7390032,8129520,7441392,2873,3800,3705,-9038,2034,793,-1309,-2435,224,189,826
584344,8123496,7391036,8130264,7442136,2865,3800,3529,-10457,1543,1285,-2243,-2237,217,179,826
585345,8124496,7391876,8131008,7442880,2353,3800,3322,-11570,1340,1378,-3129,-1579,217,179,826
586346,8125416,7392836,8131752,7443624,2778,3800,3070,-12435,1263,921,-2233,-1411,202,183,825
587347,8126312,7393736,8132496,7444368,2862,3800,2651,-13247,1199,1566,-996,-890,202,183,825
588348,8127380,7394852,8133240,7445112,1646,3800,2094,-13729,1209,2573,-968,103,198,205,825
589349,8128192,7395880,8133984,7445856,3217,3800,1436,-13774,1411,2745,-758,1262,198,205,825
590350,8129128,7396936,8134728,7446600,2358,3800,134,-12638,1938,3858,-467,5713,169,213,826
591350,8130152,7397988,8135472,7447344,1686,3800,-945,-12077,2457,2935,-362,295,169,213,826
592352,8131064,7398976,8136216,7448088,2314,3800,-1358,-12616,2686,2750,1047,-1196,172,226,826
593353,8131972,7400160,8136960,7448832,2267,3800,-1385,-13482,2861,2881,1054,-1248,172,226,826
594354,8132940,7401360,8137704,7449576,1795,3800,-1436,-14078,3068,2560,1399,-237,186,224,830
595355,8133856,7402464,8138448,7450320,2045,3800,-1595,-13864,3328,2254,2096,1082,186,224,830
596356,8134748,7403620,8139192,7451064,2131,3800,-1835,-13367,3604,2358,2917,1186,169,228,830
597357,8135736,7404744,8139936,7451808,1425,3800,-1938,-12871,3832,2304,3576,798,169,228,830
598358,8136588,7405832,8140680,7452552,2229,3800,-1935,-12468,4016,2129,3706,926,176,221,830
599359,8137408,7406992,8141424,7453296,2395,3800,-1777,-12064,4196,1765,3055,701,176,221,830
600360,8138272,7408020,8142168,7454040,2069,3800,-1625,-11471,4403,1300,2828,1848,176,228,831
601361,8139024,7409040,8142912,7454784,2766,3800,-1419,-10423,4606,1038,2871,2720,176,228,831
602362,8139768,7410040,8143656,7455528,2817,3800,-1365,-9115,4762,1407,3875,3660,167,210,828
603363,8140560,7411040,8144400,7456272,2496,3800,-1507,-7284,4831,1824,4838,5206,167,210,828
604371,8141336,7412116,8145160,7457032,2590,3800,-1688,-5418,4889,1541,4939,4666,153,223,826
605365,8142024,7413052,8145904,7457776,3166,3800,-1661,-4126,4843,1231,5770,2598,153,223,826
606378,8142552,7413900,8146648,7458520,3800,3800,-1464,-3422,4662,1486,6168,1446,156,208,826
607367,8143252,7414760,8147392,7459264,3206,3800,-1256,-3034,4426,2137,6452,1015,156,208,826
608368,8143868,7415504,8148136,7460008,3788,3800,-1187,-2597,4257,2660,5991,1179,151,168,821
609382,8144452,7416204,8148880,7460752,3800,3800,-1249,-2101,4098,3022,6080,1320,151,168,821
610382,8145068,7416804,8149624,7461496,3800,3800,-1312,-1646,3886,3666,6330,1169,140,134,820
611383,8145608,7417332,8150368,7462240,3800,3800,-1447,-1255,3471,3673,6812,1377,140,134,820
612384,8146108,7417800,8151112,7462984,3800,3800,-2111,-402,2599,3733,8159,4137,128,114,816
613385,8146656,7418184,8151856,7463728,3800,3800,-3417,1196,1358,4264,8126,6708,128,114,816
614386,8147128,7418604,8152600,7464472,3800,3800,-4986,2931,494,5715,3589,6273,103,84,815
615387,8147604,7418984,8153344,7465216,3800,3800,-6039,3319,-15,6492,2011,849,103,84,815
616388,8148108,7419276,8154088,7465960,3800,3800,-6493,1892,-628,6737,2532,-3154,109,81,814
617389,8148532,7419576,8154832,7466704,3800,3800,-6736,-137,-1435,6972,2122,-3150,109,81,814
618390,8148924,7419824,8155576,7467448,3800,3800,-7035,-1808,-2218,7355,990,-2003,83,59,813
619391,8149320,7420064,8156320,7468192,3800,3800,-7498,-2631,-2779,7758,-656,415,83,59,813
620392,8149676,7420280,8157064,7468936,3800,3800,-8010,-2858,-3113,8016,-2049,1711,78,41,810
621393,8150004,7420508,8157808,7469680,3800,3800,-8461,-2914,-3350,8062,-2881,2504,78,41,810
622394,8150336,7420696,8158552,7470424,3800,3800,-8718,-3148,-3656,8181,-2636,1721,59,48,810
623395,8150636,7420864,8159296,7471168,3800,3800,-8894,-3410,-4052,8067,-2620,2564,59,48,810
624396,8150932,7421124,8160040,7471912,3800,3800,-9224,-2907,-4391,7690,-3639,5706,62,61,810
625397,8151216,7421380,8160784,7472656,3800,3800,-9694,-1777,-4642,7281,-4300,7078,62,61,810
626407,8151512,7421620,8161544,7473416,3800,3800,-9999,-695,-4880,6739,-4140,6275,69,54,810
627399,8151780,7421828,8162288,7474160,3800,3800,-6289,5798,-4436,5207,-12603,24839,69,54,810
628400,8152072,7422064,8163032,7474904,3800,3800,3643,25498,-2756,4054,-22819,32767,66,52,809
629401,8152380,7422328,8163776,7475648,3800,3800,8885,32297,-2190,10405,-4901,-4653,66,52,809
630402,8152692,7422592,8164520,7476392,3800,3800,8900,31763,-2402,11383,-2518,-2385,69,56,809
631403,8153016,7422880,8165264,7477136,3800,3800,6806,25698,-2796,11023,-1996,-6818,69,56,809
632404,8153380,7423128,8166008,7477880,3800,3800,5888,21220,-3212,10244,-2236,-6445,71,44,809
633405,8153756,7423376,8166752,7478624,3800,3800,5497,17971,-3236,8713,-1919,-4896,71,44,809
634406,8154192,7423672,8167496,7479368,3800,3800,4818,16151,-3154,9272,-597,-2550,65,56,810
635407,8154656,7423960,8168240,7480112,3800,3800,3450,14678,-3375,8483,805,-839,65,56,810
636408,8155140,7424252,8168984,7480856,3800,3800,2018,13176,-3941,6295,2245,-1254,84,58,811
637409,8155648,7424568,8169728,7481600,3800,3800,988,11117,-4622,5859,1800,-2870,84,58,811
638410,8156236,7424840,8170472,7482344,3800,3800,537,8353,-5158,4834,935,-4192,93,52,812
639411,8156808,7425164,8171216,7483088,3800,3800,113,6121,-5383,3386,777,-1446,93,52,812
640412,8157392,7425536,8171960,7483832,3800,3800,-529,5315,-5419,2224,203,2029,113,78,813
641413,8158044,7425900,8172704,7484576,3800,3800,-1375,5003,-5510,-1028,721,2574,113,78,813
642414,8158692,7426276,8173448,7485320,3800,3800,-2074,4702,-5630,-3431,1407,3123,119,83,813
643415,8159376,7426752,8174192,7486064,3800,3800,-2625,4576,-5955,-5090,2351,3353,119,83,813
644416,8160168,7427220,8174936,7486808,3800,3800,-3027,3940,-6380,-8863,3149,2387,152,96,814
645417,8160876,7427660,8175680,7487552,3800,3800,-3119,1623,-6711,-12560,3042,76,152,96,814
646418,8161612,7428232,8176424,7488296,3800,3800,-3110,-1458,-6785,-14945,1850,1486,148,102,816
647419,8162484,7428808,8177168,7489040,3800,3800,-3069,-3299,-6460,-15040,1287,4554,148,102,816
648428,8163328,7429468,8177928,7489800,3800,3800,-3199,-3185,-5810,-13947,535,7468,159,109,817
649421,8164204,7430120,8178672,7490544,3800,3800,-3472,-960,-4939,-13084,-424,10291,159,109,817
650423,8165192,7430764,8179416,7491288,3800,3800,-3731,1914,-3863,-13055,-863,10537,169,133,818
651423,8166160,7431520,8180160,7492032,3800,3800,-3726,4192,-2670,-13206,-1054,8756,169,133,818
652425,8167144,7432300,8180904,7492776,3800,3800,-3577,5543,-1475,-12907,-1060,7212,199,142,818
653425,8168240,7433192,8181648,7493520,3800,3800,-3277,6226,-334,-12343,-875,5362,199,142,818
654426,8169180,7434072,8182392,7494264,3800,3800,-2955,6273,740,-11433,-708,3353,199,157,818
655427,8170204,7434880,8183136,7495008,3800,3800,-2536,5804,1731,-10501,-522,1773,199,157,818
656428,8171176,7435848,8183880,7495752,3800,3800,-2145,5062,2646,-9367,-407,1377,206,165,821
657429,8172292,7436756,8184624,7496496,3800,3800,-1754,4025,3551,-8054,-964,372,206,165,821
658430,8173284,7437776,8185368,7497240,3800,3800,-1331,2611,4516,-6668,-1955,-691,222,193,821
659431,8174276,7438804,8186112,7497984,3800,3800,-814,759,5424,-5325,-2449,-2030,222,193,821
660432,8175324,7439772,8186856,7498728,3800,3800,-273,-1365,6260,-3745,-3116,-2488,225,203,823
661433,8176336,7440732,8187600,7499472,3800,3800,306,-3594,7037,-2307,-4541,-2786,225,203,823
662434,8177256,7441724,8188344,7500216,3800,3800,878,-5782,7782,-937,-6251,-2494,208,208,823
663435,8178252,7442732,8189088,7500960,3800,3800,1398,-7402,8403,-79,-6687,-521,208,208,823
664436,8179224,7443720,8189832,7501704,3800,3800,1860,-8329,8800,244,-6442,1193,222,202,822
665437,8180148,7444672,8190576,7502448,3800,3800,2317,-8865,8969,482,-6128,1742,222,202,822
666425,8181204,7445576,8191320,7503192,3729,3800,2696,-9217,8853,873,-5011,2315,224,210,823
667439,8182188,7446548,8192064,7503936,3800,3800,3055,-9397,8529,1301,-4585,2755,224,210,823
668440,8183196,7447388,8192808,7504680,3800,3800,3344,-9451,8106,1525,-4964,3307,225,199,823
669428,8184336,7448428,8193552,7505424,2815,3800,3595,-9258,7635,1625,-5134,3921,225,199,823
670436,8185340,7449448,8194312,7506184,3559,3800,3777,-8731,7117,2055,-4569,4456,212,204,823
671430,8186396,7450448,8195056,7506928,3098,3800,3970,-8019,6512,2997,-3765,4367,212,204,823
672432,8187508,7451456,8195800,7507672,2588,3800,4082,-7348,5876,3809,-2926,3964,207,210,826
673433,8188540,7452484,8196544,7508416,2964,3800,4202,-6877,5160,3925,-614,2983,207,210,826
674433,8189568,7453600,8197288,7509160,2865,3800,4333,-6825,4309,3624,-637,1784,206,194,825
675435,8190624,7454504,8198032,7509904,2555,3800,4499,-6825,3319,3236,-773,1471,206,194,825
676435,8191652,7455396,8198776,7510648,2606,3800,4601,-6685,2345,2728,-500,1437,200,187,825
677436,8192720,7456400,8199520,7511392,2215,3800,4626,-6610,1421,2724,241,671,200,187,825
678437,8193840,7457380,8200264,7512136,1727,3800,4549,-6572,586,2516,925,509,213,194,827
679439,8194768,7458372,8201008,7512880,2847,3800,4340,-6369,-43,2111,419,967,213,194,827
680440,8195696,7459440,8201752,7513624,2767,3800,3995,-6111,-513,1791,-274,544,198,180,827
681441,8196792,7460444,8202496,7514368,1563,3800,3455,-6074,-843,1551,-299,39,198,180,827
682442,8197796,7461488,8203240,7515112,2025,3800,2110,-4941,-774,3201,527,4674,193,191,826
683442,8198736,7462608,8203984,7515856,2340,3800,865,-3907,-594,2764,602,550,193,191,826
684444,8199844,7463708,8204728,7516600,1131,3800,238,-4374,-632,1937,695,-2792,202,217,830
685444,8200764,7464880,8205472,7517344,2229,3800,163,-5289,-640,2528,-77,-3171,202,217,830
686445,8201816,7465968,8206216,7518088,1270,3800,120,-6486,-381,2811,-553,-4062,208,239,828
687446,8202740,7467144,8206960,7518832,1992,3800,112,-7420,30,2749,-299,-4082,208,239,828
688448,8203712,7468308,8207704,7519576,1593,3800,-37,-8259,407,2530,459,-4183,187,258,830
689449,8204584,7469500,8208448,7520320,2163,3800,-219,-8792,717,1763,1118,-3603,187,258,830
690449,8205472,7470740,8209192,7521064,1999,3800,-394,-9127,1016,1225,1708,-3235,164,261,830
691451,8206356,7471896,8209936,7521808,1964,3800,-592,-9256,1293,1125,2051,-2806,164,261,830
692458,8207248,7472976,8210696,7522568,1857,3800,-775,-8957,1637,445,2630,-1779,168,247,829
693452,8207960,7474080,8211440,7523312,2996,3800,-943,-8548,2052,-84,2781,-1531,168,247,829
694453,8208696,7475180,8212184,7524056,2850,3800,-939,-8127,2503,-129,2871,-1614,184,233,830
695455,8209404,7476200,8212928,7524800,3042,3800,-926,-7384,2846,-201,4149,-581,184,233,830
696456,8210076,7477328,8213672,7525544,3299,3800,-1025,-5969,3099,-213,4189,813,159,223,827
697457,8210752,7478316,8214416,7526288,3305,3800,-1189,-4831,3434,-454,2741,-29,159,223,827
698470,8211356,7479248,8215160,7527032,3800,3800,-1199,-4017,3715,193,2386,-499,131,211,824
699471,8211940,7480092,8215904,7527776,3800,3800,-1147,-3353,3964,1220,1552,-362,131,211,824
700459,8212568,7480944,8216648,7528520,3789,3800,-1110,-2873,4267,1438,90,-584,131,182,822
701473,8213168,7481768,8217392,7529264,3800,3800,-998,-2880,4596,1640,-505,-1915,131,182,822
702474,8213708,7482408,8218136,7530008,3800,3800,-900,-3342,4759,2441,-241,-2693,144,140,819
703475,8214256,7483040,8218880,7530752,3800,3800,-947,-3773,4765,3587,-497,-2300,144,140,819
704476,8214796,7483564,8219624,7531496,3800,3800,-1106,-4200,4647,4300,-1096,-2072,117,124,816
705477,8215284,7484056,8220368,7532240,3800,3800,-1409,-4490,4288,4654,-1526,-851,117,124,816
706478,8215800,7484544,8221112,7532984,3800,3800,-1870,-4491,3752,5502,-1864,527,100,98,815
707479,8216272,7484988,8221856,7533728,3800,3800,-2538,-4114,3089,6426,-1850,1995,100,98,815
708480,8216724,7485388,8222600,7534472,3800,3800,-3428,-3562,2331,6798,-2636,2686,104,90,813
709481,8217140,7485716,8223344,7535216,3800,3800,-4344,-3352,1422,6928,-2377,1817,104,90,813
710482,8217580,7486028,8224088,7535960,3800,3800,-5229,-3257,338,7528,-1865,2512,78,78,813
711483,8217988,7486308,8224832,7536704,3800,3800,-6238,-2727,-836,8221,-1474,4607,78,78,813
712485,8218388,7486608,8225576,7537448,3800,3800,-7385,-1499,-1953,8583,-1333,6810,75,64,811
713485,8218788,7486944,8226320,7538192,3800,3800,-8635,182,-2982,9049,-1438,8503,75,64,811
714496,8219164,7487236,8227080,7538952,3800,3800,-9848,1935,-3880,9582,-1698,8724,69,67,811
715487,8219568,7487516,8227824,7539696,3800,3800,-10873,3317,-4761,10083,-932,7878,69,67,811
716489,8220020,7487848,8228568,7540440,3800,3800,-11713,4422,-5662,10639,-375,7805,88,69,811
717489,8220456,7488192,8229312,7541184,3800,3800,-12423,5376,-6385,10786,-883,7962,88,69,811
718490,8220896,7488520,8230056,7541928,3800,3800,-9307,9745,-6455,9975,-3187,12038,79,69,811
719491,8221396,7488836,8230800,7542672,3800,3800,1362,28369,-5169,8782,-7648,32767,79,69,811
720493,8221916,7489224,8231544,7543416,3800,3800,9405,32297,-4544,15673,-452,-2193,91,76,811
721493,8222440,7489616,8232288,7544160,3800,3800,10240,32297,-4861,15737,2159,-12291,91,76,811
722494,8223008,7489992,8233032,7544904,3800,3800,8337,29566,-5402,14741,2545,-8088,113,74,812
723495,8223580,7490376,8233776,7545648,3800,3800,7289,23660,-5839,13482,2472,-10552,113,74,812
724496,8224176,7490808,8234520,7546392,3800,3800,7000,19263,-5859,11401,2802,-8021,110,80,814
725497,8224860,7491268,8235264,7547136,3800,3800,6667,15921,-5485,10106,2203,-5253,110,80,814
726498,8225500,7491700,8236008,7547880,3800,3800,5582,13052,-5312,8738,2671,-3809,146,104,815
727499,8226192,7492220,8236752,7548624,3800,3800,3942,10555,-5627,6629,5049,-2680,146,104,815
728501,8226972,7492820,8237496,7549368,3800,3800,2373,8772,-6629,5119,7863,-279,146,110,815
729501,8227756,7493348,8238240,7550112,3800,3800,723,6835,-8131,1830,9115,-929,146,110,815
730503,8228532,7494008,8238984,7550856,3800,3800,-396,2399,-9064,-6585,6727,-5240,154,122,815
731503,8229360,7494596,8239728,7551600,3800,3800,-1332,-3963,-9138,-11028,3332,-4064,154,122,815
732505,8230204,7495364,8240472,7552344,3800,3800,-2847,-10682,-8693,-9364,3334,2262,166,130,816
733505,8231124,7496112,8241216,7553088,3800,3800,-3331,-10574,-8643,-9163,3268,5513,166,130,816
734506,8232012,7496952,8241960,7553832,3800,3800,-3844,-8448,-8459,-9876,2162,10381,182,136,818
735494,8233060,7497708,8242704,7554576,3664,3800,-4324,-4898,-7974,-11487,867,12440,182,136,818
736503,8234108,7498588,8243464,7555336,3539,3800,-4575,-2028,-7178,-12888,98,10895,191,159,820
737510,8235012,7499464,8244208,7556080,3800,3800,-4692,744,-6248,-13965,-1240,12387,191,159,820
738498,8236068,7500324,8244952,7556824,3286,3800,-4680,3427,-5108,-15506,-2022,11614,174,183,821
739499,8237032,7501468,8245696,7557568,3765,3800,-4637,6049,-3891,-15434,-2596,11368,174,183,821
740500,8238048,7502360,8246440,7558312,3322,3800,-4522,8418,-2696,-15071,-2549,9969,189,189,821
741501,8239120,7503364,8247184,7559056,2830,3800,-4289,10175,-1539,-14235,-2421,8129,189,189,821
742502,8240032,7504420,8247928,7559800,3757,3800,-3841,11215,-557,-12309,-3114,5653,190,199,822
743502,8240968,7505408,8248672,7560544,3525,3800,-3214,11306,433,-10621,-5120,3062,190,199,822
744503,8241976,7506564,8249416,7561288,2960,3800,-2420,10593,1452,-8510,-6664,190,206,198,826
745505,8242844,7507496,8250160,7562032,3783,3800,-1540,8836,2476,-6780,-7358,-2807,206,198,826
746506,8243708,7508488,8250904,7562776,3756,3800,-544,6635,3534,-5540,-7801,-3767,189,200,824
747506,8244712,7509524,8251648,7563520,2768,3800,336,4281,4571,-4002,-7652,-3994,189,200,824
748508,8245584,7510428,8252392,7564264,3538,3800,1215,1820,5477,-2755,-7947,-4684,189,205,824
749508,8246500,7511360,8253136,7565008,3189,3800,2086,-844,6174,-1427,-7698,-5001,189,205,824
750509,8247552,7512400,8253880,7565752,2204,3800,2963,-3392,6635,-93,-7635,-4594,186,200,826
751510,8248448,7513288,8254624,7566496,3114,3800,3728,-5652,6851,968,-5341,-3578,186,200,826
752512,8249444,7514200,8255368,7567240,2380,3800,4397,-7385,6864,1724,-4451,-2523,192,198,824
753513,8250516,7515204,8256112,7567984,1762,3800,5021,-8782,6605,2431,-3433,-2000,192,198,824
754514,8251520,7516188,8256856,7568728,2073,3800,5527,-9845,6125,2974,-2549,-1143,190,190,826
755514,8252440,7517308,8257600,7569472,2522,3800,5775,-10177,5503,3236,-2184,1534,190,190,826
756515,8253412,7518348,8258344,7570216,2098,3800,5759,-9667,4861,2881,-2853,3237,188,212,828
757517,8254324,7519344,8259088,7570960,2400,3800,5664,-8559,4151,2373,-2679,3870,188,212,828
758524,8255188,7520264,8259848,7571720,2655,3800,5518,-7301,3433,2026,-2276,4190,183,181,827
759518,8256092,7521140,8260592,7572464,2336,3800,5184,-6129,2712,2429,-551,4010,183,181,827
760520,8257040,7522308,8261336,7573208,1971,3800,4746,-4955,2027,3003,1377,3870,188,190,827
761521,8257984,7523120,8262080,7573952,1910,3800,4263,-4192,1371,3062,1937,2298,188,190,827
762522,8258876,7524172,8262824,7574696,2170,3800,3786,-3774,683,2811,1854,1469,182,190,826
763523,8259796,7525136,8263568,7575440,1919,3800,3262,-3537,44,2475,1643,1224,182,190,826
764524,8260640,7526128,8264312,7576184,2350,3800,2746,-3365,-514,2452,1467,579,186,191,826
765524,8261548,7527192,8265056,7576928,1879,3800,2178,-3384,-961,2568,1314,-327,186,191,826
766525,8262568,7528344,8265800,7577672,1059,3800,1514,-3621,-1258,2514,822,-874,182,227,828
767526,8263400,7529548,8266544,7578416,2195,3800,872,-4011,-1400,2289,109,-1430,182,227,828
768527,8264268,7530612,8267288,7579160,1917,3800,305,-4416,-1316,1826,-589,-1498,189,217,829
769529,8265308,7531708,8268032,7579904,713,3800,-153,-4787,-1078,1830,-590,-1921,189,217,829
770530,8266136,7532836,8268776,7580648,2001,3800,-543,-5288,-714,2112,-945,-2443,183,224,830
771530,8267036,7534088,8269520,7581392,1483,3800,-845,-5777,-242,2169,-603,-2630,183,224,830
772531,8268040,7535280,8270264,7582136,719,3800,-1055,-6451,241,2174,183,-3543,190,237,833
773533,8268848,7536408,8271008,7582880,1917,3800,-1194,-7329,653,1591,349,-4203,190,237,833
774533,8269672,7537588,8271752,7583624,1782,3800,-1242,-8170,1014,782,-167,-4463,181,236,830
775534,8270456,7538692,8272496,7584368,2014,3800,-1153,-9318,1286,597,519,-5906,181,236,830
776536,8271224,7540016,8273240,7585112,2104,3800,-1033,-10448,1463,595,1735,-5787,169,238,830
777537,8271944,7541176,8273984,7585856,2415,3800,-978,-11117,1648,84,2639,-5021,169,238,830
778538,8272776,7542324,8274728,7586600,1677,3800,-1085,-11512,1800,-448,3174,-4536,168,235,830
779539,8273340,7543472,8275472,7587344,3431,3800,-1285,-11655,1973,-690,2969,-3431,168,235,830
780547,8273904,7544596,8276232,7588104,3518,3800,-1463,-11546,2187,96,3001,-2998,138,225,828
781541,8274544,7545644,8276976,7588848,3089,3800,-1674,-11304,2424,580,2462,-2535,138,225,828
782542,8275100,7546756,8277720,7589592,3697,3800,-1947,-10801,2818,383,1227,-1318,135,223,824
783542,8275696,7547648,8278464,7590336,3513,3800,-2079,-10193,3355,594,-282,-1003,134,173,822
784544,8276296,7548436,8279208,7591080,3551,3800,-2036,-9505,3956,1212,-1164,-660,134,173,822
785558,8276868,7549156,8279952,7591824,3800,3800,-1937,-9004,4553,1826,-1070,-1210,121,139,819
786558,8277404,7549832,8280696,7592568,3800,3800,-2018,-8758,4987,2408,-833,-1307,121,139,819
787560,8277972,7550496,8281440,7593312,3800,3800,-2205,-8648,5327,2918,-1024,-705,123,126,817
788560,8278524,7551044,8282184,7594056,3800,3800,-2293,-8847,5527,3650,-695,-1948,123,126,817
789561,8279104,7551532,8282928,7594800,3800,3800,-2387,-9498,5468,4285,-142,-2585,105,109,816
790562,8279640,7551904,8283672,7595544,3800,3800,-2719,-9441,5420,4972,-1129,1600,105,109,816
791563,8280224,7552312,8284416,7596288,3800,3800,-3070,-8834,5451,5346,-2202,2234,117,85,814
792564,8280744,7552760,8285160,7597032,3800,3800,-3278,-8509,5335,5683,-2062,905,117,85,814
793565,8281304,7553080,8285904,7597776,3800,3800,-3561,-8133,4961,6216,-1307,2576,102,87,814
794566,8281860,7553468,8286648,7598520,3800,3800,-3996,-7513,4414,6713,-1099,3708,102,87,814
795567,8282356,7553844,8287392,7599264,3800,3800,-4442,-6613,3915,7152,-1132,4503,94,83,813
796568,8282872,7554188,8288136,7600008,3800,3800,-5051,-5199,3485,7554,-1494,7061,94,83,813
797569,8283404,7554544,8288880,7600752,3800,3800,-6576,-1885,3069,8349,-1547,14671,115,84,813
798570,8283920,7554996,8289624,7601496,3800,3800,-9273,4018,2205,10197,3881,22436,115,84,813
799571,8284408,7555380,8290368,7602240,3800,3800,-12223,10423,898,10757,5671,22024,103,79,813
800572,8284948,7555756,8291112,7602984,3800,3800,-13744,13904,-679,10545,6276,11941,103,79,813
801573,8285444,7556124,8291856,7603728,3800,3800,-13925,14015,-2325,10652,6094,5019,106,91,813
802583,8285984,7556592,8292616,7604488,3800,3800,-7335,22606,-2715,9139,-4716,24512,106,91,813
803575,8286556,7557044,8293360,7605232,3800,3800,3022,32297,-2174,12185,-5186,32767,121,93,814
804576,8287104,7557440,8294104,7605976,3800,3800,7888,32297,-2628,15996,2389,-3276,121,93,814
805577,8287684,7557968,8294848,7606720,3800,3800,7409,32297,-3662,15115,2827,-11473,111,92,812
806578,8288280,7558456,8295592,7607464,3800,3800,6445,25903,-4626,14479,2329,-12899,111,92,812
807579,8288884,7558948,8296336,7608208,3800,3800,5710,20209,-5178,12689,1036,-9763,124,116,813
808580,8289520,7559544,8297080,7608952,3800,3800,5352,16791,-5396,10762,1028,-5414,124,116,813
809581,8290244,7560140,8297824,7609696,3800,3800,4693,13665,-5615,9891,1768,-5189,131,119,814
810582,8290920,7560800,8298568,7610440,3800,3800,3676,10765,-6069,9020,2291,-3913,131,119,814
811583,8291608,7561436,8299312,7611184,3800,3800,2421,8446,-6613,7261,2950,-1575,145,126,817
812584,8292368,7562104,8300056,7611928,3800,3800,886,6259,-7440,5560,4753,-2001,145,126,817
813585,8293116,7562840,8300800,7612672,3800,3800,-402,4073,-8502,2945,4219,-2227,157,138,817
814586,8293892,7563664,8301544,7613416,3800,3800,-1447,1560,-9453,-1318,3567,-1820,157,138,817
815587,8294780,7564416,8302288,7614160,3800,3800,-2348,-1180,-10260,-4044,2846,-1789,175,154,818
816588,8295656,7565288,8303032,7614904,3800,3800,-3042,-3482,-10840,-5888,1898,726,175,154,818
817576,8296552,7566000,8303776,7615648,3633,3800,-3580,-4249,-11166,-6892,1472,4243,177,176,819
818578,8297488,7566960,8304520,7616392,3300,3800,-4219,-2860,-11222,-7160,-40,8769,177,176,819
819579,8298524,7567956,8305264,7617136,2548,3800,-4687,-59,-11040,-9616,-977,10519,165,193,821
820580,8299564,7568876,8306008,7617880,2394,3800,-4815,1669,-10659,-11213,-2508,8925,165,193,821
821580,8300508,7569908,8306752,7618624,2907,3800,-4826,3827,-10058,-12178,-4324,12093,179,201,825
822581,8301504,7570872,8307496,7619368,2473,3800,-4750,6210,-9030,-13833,-4712,11753,179,201,825
823582,8302448,7571868,8308240,7620112,2712,3800,-4739,8724,-7850,-13842,-5223,11924,195,201,825
824591,8303388,7572864,8309000,7620872,2659,3800,-4669,10714,-6625,-14088,-5424,10041,195,201,825
825584,8304380,7573948,8309744,7621616,2226,3800,-4400,12213,-5327,-13781,-6723,8635,193,191,826
826586,8305296,7574916,8310488,7622360,2626,3800,-3910,12852,-4102,-12616,-7322,5434,193,191,826
827586,8306132,7575828,8311232,7623104,3087,3800,-3289,12667,-2875,-11836,-6508,3503,184,208,826
828588,8307064,7576724,8311976,7623848,2405,3800,-2601,11850,-1673,-10000,-6479,995,184,208,826
829588,8307920,7577608,8312720,7624592,2832,3800,-1912,10408,-589,-8230,-5700,-811,185,191,823
830590,8308764,7578492,8313464,7625336,2864,3800,-1205,8680,413,-7512,-5188,-1491,185,191,823
831590,8309608,7579408,8314208,7626080,2820,3800,-463,6475,1351,-6577,-5398,-3089,180,190,825
832591,8310436,7580408,8314952,7626824,2884,3800,360,3971,2215,-5611,-5617,-3844,180,190,825
833592,8311276,7581284,8315696,7627568,2768,3800,1116,1534,3036,-4266,-5147,-3284,183,181,824
834593,8312220,7582212,8316440,7628312,2031,3800,1779,-774,3746,-2809,-4357,-3488,183,181,824
835594,8313080,7583272,8317184,7629056,2506,3800,2381,-3165,4182,-1973,-3147,-3506,184,194,825
836595,8313972,7584252,8317928,7629800,2242,3800,3012,-5418,4252,-1154,-3129,-3125,184,194,825
837596,8314916,7585132,8318672,7630544,1829,3800,3628,-7640,3985,-395,-2507,-3229,175,197,826
838597,8315796,7586064,8319416,7631288,2170,3800,4148,-9534,3479,-283,-1496,-1858,175,197,826
839598,8316600,7586964,8320160,7632032,2620,3800,4454,-10759,2908,-752,-1618,23,166,194,826
840599,8317480,7587956,8320904,7632776,2085,3800,4535,-11029,2468,-731,-1571,2202,166,194,826
841600,8318192,7588880,8321648,7633520,3150,3800,4365,-10934,2169,-796,-334,3387,164,171,825
842601,8318924,7589928,8322392,7634264,3032,3800,4030,-10471,1960,-506,249,4694,164,171,825
843603,8319676,7590856,8323136,7635008,2903,3800,3516,-9412,1798,-1343,24,6320,145,186,823
844604,8320396,7591876,8323880,7635752,3115,3800,3044,-8040,1597,-1644,601,6304,145,186,823
845605,8321172,7592928,8324624,7636496,2751,3800,2682,-7367,1385,-682,1585,4326,172,215,824
846612,8321904,7594008,8325384,7637256,3039,3800,2392,-7225,1277,1087,911,3561,172,215,824
847606,8322708,7594968,8326128,7638000,2563,3800,2135,-7273,1230,1600,96,2766,141,219,826
848608,8323584,7596164,8326872,7638744,2056,3800,1893,-7646,1262,1030,-195,1821,141,219,826
849609,8324336,7597316,8327616,7639488,2828,3800,1595,-8297,1288,1128,76,835,150,233,827
850609,8325296,7598512,8328360,7640232,1434,3800,1190,-9043,1303,1550,524,202,150,233,827
851611,8326128,7599748,8329104,7640976,2196,3800,751,-9653,1349,1813,599,-45,161,231,827
852612,8327000,7600888,8329848,7641720,1890,3800,316,-10321,1470,1538,416,-398,161,231,827
853613,8327892,7601964,8330592,7642464,1701,3800,96,-10993,1635,1288,674,-513,165,233,829
854613,8328880,7603076,8331336,7643208,994,3800,-22,-11600,1813,1407,444,-507,165,233,829
855614,8329704,7604148,8332080,7643952,1985,3800,-64,-11984,2019,1475,417,-461,175,256,830
856616,8330656,7605300,8332824,7644696,1093,3800,-105,-12567,2235,883,987,-1027,175,256,830
857616,8331476,7606512,8333568,7645440,1886,3800,-159,-12981,2392,918,1383,-733,163,244,830
858617,8332284,7607664,8334312,7646184,1933,3800,-206,-13563,2443,1445,1805,-1736,163,244,830
859619,8333104,7608864,8335056,7646928,1824,3800,-263,-14220,2381,2100,2532,-2040,141,233,830
860620,8333860,7609996,8335800,7647672,2220,3800,-389,-14730,2271,1947,3058,-1690,141,233,830
861620,8334556,7611112,8336544,7648416,2616,3800,-529,-14959,2270,1329,2229,-1254,158,232,829
862622,8335320,7612324,8337288,7649160,2182,3800,-722,-14657,2424,1119,1877,-40,158,232,829
863622,8335944,7613324,8338032,7649904,3111,3800,-865,-13972,2706,473,1786,646,145,200,826
864624,8336604,7614288,8338776,7650648,2923,3800,-1039,-12769,3060,86,1185,2042,145,200,826
865625,8337272,7615148,8339520,7651392,2907,3800,-1184,-11372,3446,-354,1177,2171,135,183,823
866625,8337972,7615956,8340264,7652136,2727,3800,-1251,-10129,3812,-339,1731,1714,135,183,823
867627,8338576,7616792,8341008,7652880,3388,3800,-1161,-9048,4155,-51,1755,1014,126,151,823
868647,8339088,7617532,8341768,7653640,3800,3800,-955,-8398,4518,62,1534,-106,126,151,823
869629,8339680,7618240,8342512,7654384,3640,3800,-707,-8074,4869,87,1471,-885,114,141,819
870642,8340228,7618892,8343256,7655128,3800,3800,-408,-8065,5194,158,1385,-1760,114,141,819
871630,8340840,7619572,8344000,7655872,3661,3800,-127,-8343,5444,744,1216,-2559,117,125,816
872644,8341384,7620212,8344744,7656616,3800,3800,-13,-8759,5558,1387,1324,-2093,117,125,816
873645,8341888,7620928,8345488,7657360,3800,3800,-128,-8539,5599,1748,793,741,113,119,816
874646,8342404,7621524,8346232,7658104,3800,3800,-390,-7938,5567,2020,415,1554,113,119,816
875647,8342952,7622188,8346976,7658848,3800,3800,-799,-6769,5619,2962,-171,4586,103,129,815
876649,8343428,7622796,8347720,7659592,3800,3800,-1857,-3629,6092,4570,-3322,13130,103,129,815
877649,8343928,7623500,8348464,7660336,3800,3800,-3634,1212,7255,6735,-7276,16954,122,126,816
878650,8344484,7624232,8349208,7661080,3800,3800,-5212,5077,8287,7570,-4902,11420,122,126,816
879651,8344956,7625012,8349952,7661824,3800,3800,-5985,6220,8508,7832,-1759,4427,98,141,816
880652,8345432,7625748,8350696,7662568,3800,3800,-6087,5335,7984,8173,-435,817,98,141,816
881653,8345952,7626628,8351440,7663312,3800,3800,-5987,3760,6966,8240,1057,-410,97,150,816
882654,8346432,7627412,8352184,7664056,3800,3800,-5826,2077,5780,8422,1524,-1446,97,150,816
883655,8346876,7628332,8352928,7664800,3800,3800,-5712,833,4630,9028,877,99,96,171,815
884656,8347368,7629344,8353672,7665544,3800,3800,-5723,473,3579,9651,515,2623,96,171,815
885657,8347836,7630256,8354416,7666288,3800,3800,-5898,864,2539,9887,609,4890,105,183,817
886658,8348272,7631244,8355160,7667032,3800,3800,-5978,1435,1532,9943,-42,4865,105,183,817
887659,8348756,7632236,8355904,7667776,3800,3800,-6022,2051,604,9853,-313,6041,92,199,818
888660,8349216,7633224,8356648,7668520,3800,3800,-6160,3141,-343,9499,-285,7835,92,199,818
889661,8349684,7634328,8357392,7669264,3800,3800,-6436,4739,-1344,8986,-606,9197,94,193,818
890671,8350192,7635460,8358152,7670024,3800,3800,-5910,7199,-2237,7941,-2352,12832,94,193,818
891663,8350712,7636500,8358896,7670768,3800,3800,-982,18149,-1991,3663,-10254,32767,95,209,819
892664,8351216,7637528,8359640,7671512,3800,3800,4404,26963,-2017,7721,-3919,19906,95,209,819
893665,8351816,7638532,8360384,7672256,3800,3800,5613,27906,-2889,9753,153,2086,128,207,818
894666,8352396,7639564,8361128,7673000,3800,3800,5032,25430,-4087,9508,220,796,128,207,818
895667,8352996,7640528,8361872,7673744,3800,3800,4162,22241,-5187,9300,-252,-1699,131,195,818
896668,8353708,7641332,8362616,7674488,3800,3800,4135,20533,-5891,8299,-810,-1080,131,195,818
897669,8354336,7642212,8363360,7675232,3800,3800,4241,18742,-6287,7605,-1197,-2263,147,165,819
898670,8354988,7642984,8364104,7675976,3800,3800,4201,16942,-6783,7037,-942,-2589,147,165,819
899671,8355732,7643756,8364848,7676720,3800,3800,4193,14549,-7453,5002,711,-3879,156,157,818
900672,8356452,7644512,8365592,7677464,3800,3800,4101,12124,-8251,3822,975,-3427,156,157,818
901673,8357240,7645212,8366336,7678208,3800,3800,3984,10033,-9044,3215,203,-2910,155,150,818
902674,8358000,7645932,8367080,7678952,3800,3800,3734,8420,-9558,2208,-552,-1309,155,150,818
903675,8358920,7646572,8367824,7679696,3800,3800,3426,7565,-9847,1135,-1131,28,163,141,819
904676,8359760,7647248,8368568,7680440,3800,3800,3084,6884,-10130,-1046,-900,768,163,141,819
905677,8360656,7647920,8369312,7681184,3800,3800,2801,6315,-10527,-3560,-536,1284,190,140,818
906665,8361660,7648612,8370056,7681928,3558,3800,2481,5972,-11101,-4511,-850,2076,190,140,818
907666,8362652,7649212,8370800,7682672,3525,3800,2146,6664,-11582,-5748,-2045,3916,203,146,818
908668,8363608,7649920,8371544,7683416,3659,3800,1850,7520,-11749,-7940,-2665,3985,203,146,818
909669,8364768,7650572,8372288,7684160,2202,3800,1659,8029,-11691,-9456,-2902,3629,205,143,819
910670,8365676,7651260,8373032,7684904,3707,3800,1465,8738,-11339,-10836,-3419,4881,205,143,819
911670,8366744,7651952,8373776,7685648,2566,3800,1385,9706,-10631,-11690,-4332,4763,189,156,824
912679,8367788,7652720,8374536,7686408,2592,3800,1376,10489,-9715,-12369,-4821,3999,189,156,824
913673,8368736,7653540,8375280,7687152,3104,3800,1465,11005,-8582,-13391,-4835,3655,204,166,822
914674,8369704,7654244,8376024,7687896,2882,3800,1595,11199,-7310,-13159,-5499,2630,204,166,822
915675,8370784,7655052,8376768,7688640,2035,3800,1793,10979,-5902,-13047,-6146,1350,207,143,822
916676,8371676,7655928,8377512,7689384,3146,3800,2050,10241,-4385,-13084,-6076,66,207,143,822
917677,8372572,7656740,8378256,7690128,3055,3800,2317,8900,-2840,-12622,-5793,-1899,208,169,825
918678,8373516,7657640,8379000,7690872,2669,3800,2678,5532,-852,-16638,-4478,-5483,208,169,825
919678,8374416,7658376,8379744,7691616,2877,3800,3350,-879,1986,-22119,-2961,-8122,171,201,824
920680,8375208,7659348,8380488,7692360,3532,3800,3739,-6591,4958,-21079,-3118,-2316,171,201,824
921680,8376104,7660412,8381232,7693104,2816,3800,3562,-8466,6932,-14110,-4219,1714,182,209,825
922681,8376940,7661452,8381976,7693848,3152,3800,3055,-8273,7941,-11163,-5113,1311,182,209,825
923682,8377768,7662472,8382720,7694592,3166,3800,2700,-8276,8861,-11749,-5107,1567,161,215,824
924683,8378600,7663488,8383464,7695336,3102,3800,2375,-8617,9779,-10728,-4664,2603,161,215,824
925684,8379400,7664400,8384208,7696080,3278,3800,2210,-9382,10599,-9721,-4137,1681,177,202,823
926685,8380160,7665352,8384952,7696824,3522,3800,2032,-10038,11349,-8065,-4334,2919,177,202,823
927686,8380988,7666328,8385696,7697568,3061,3800,1918,-11067,11889,-5175,-3702,987,155,202,822
928687,8381752,7667192,8386440,7698312,3454,3800,1781,-12407,12191,-1925,-1696,931,155,202,822
929701,8382456,7668084,8387184,7699056,3800,3800,1655,-13839,12259,732,126,593,140,192,822
930702,8383104,7668968,8387928,7699800,3800,3800,1512,-15462,12068,2401,1271,138,140,192,822
931703,8383748,7669848,8388672,7700544,3800,3800,1417,-16975,11830,3430,1767,1246,122,203,819
932704,8384420,7670856,8389416,7701288,3800,3800,1255,-17957,11643,4982,1755,2923,122,203,819
933705,8384884,7671772,8390160,7702032,3800,3800,1022,-18342,11462,6379,1969,4099,117,192,819
934713,8385564,7672628,8390920,7702792,3800,3800,816,-18719,11266,7292,2213,3716,117,192,819
935707,8386064,7673500,8391664,7703536,3800,3800,638,-19255,10921,8664,2865,3766,102,202,819
936708,8386712,7674392,8392408,7704280,3800,3800,515,-20017,10447,9761,3561,3285,102,202,819
937709,8387288,7675324,8393152,7705024,3800,3800,486,-21080,9853,10336,4432,2683,117,165,818
938710,8387944,7676140,8393896,7705768,3800,3800,410,-21891,9207,10976,4237,3259,117,165,818
939711,8388600,7676956,8394640,7706512,3800,3800,305,-22214,8696,10858,3651,4093,126,172,817
940712,8389348,7677716,8395384,7707256,3800,3800,199,-22238,8250,10282,3175,4241,126,172,817
941713,8390072,7678448,8396128,7708000,3800,3800,61,-22101,7729,10013,3100,4531,153,137,818
942714,8390800,7679060,8396872,7708744,3800,3800,-596,-20503,7087,9976,4684,10947,153,137,818
943702,8391632,7679732,8397616,7709488,3614,3800,-1893,-17035,6072,9305,7495,15081,156,128,817
944716,8392400,7680240,8398360,7710232,3800,3800,-2936,-14282,4881,8423,7422,9137,156,128,817
945704,8393260,7680792,8399104,7710976,3380,3800,-3542,-12436,3963,7984,6083,8020,153,111,817
946705,8394220,7681260,8399848,7711720,2661,3800,-3912,-11482,3348,7950,5811,5228,153,111,817
947706,8395116,7681716,8400592,7712464,2995,3800,-4011,-11107,2794,6990,4957,2470,162,103,818
948707,8396120,7682200,8401336,7713208,2207,3800,-3854,-10984,2223,5283,4245,984,162,103,818
949708,8397104,7682564,8402080,7713952,2227,3800,-3499,-10956,1643,4099,3661,90,174,91,818
950709,8398040,7682892,8402824,7714696,2444,3800,-3191,-10667,1165,3087,2650,736,174,91,818
951710,8398920,7683188,8403568,7715440,2735,3800,-3112,-9374,1132,2801,1101,3637,159,86,820
952712,8399844,7683536,8404312,7716184,2382,3800,-3330,-7276,1276,2336,2300,4818,159,86,820
953712,8400760,7683884,8405056,7716928,2357,3800,-3485,-5350,1144,950,4316,2903,171,73,819
954714,8401568,7684140,8405800,7717672,3005,3800,-3394,-4426,545,-260,6384,319,171,73,819
955714,8402440,7684492,8406544,7718416,2550,3800,-3480,-2815,-297,-88,6612,4297,158,63,820
956722,8403260,7684796,8407304,7719176,2849,3800,-3800,-778,-532,-243,2531,3797,158,63,820
957716,8404076,7685100,8408048,7719920,2843,3800,-3633,48,-131,-1049,538,-1721,181,69,818
958730,8404716,7685404,8408792,7720664,3800,3800,-2991,-469,469,-1178,74,-3691,181,69,818
959718,8405504,7685772,8409536,7721408,3046,3800,-2077,-1059,1029,-833,-712,-3654,151,77,816
960732,8406168,7686156,8410280,7722152,3800,3800,-1318,-1232,1572,-594,-1623,-2906,151,77,816
961733,8406808,7686532,8411024,7722896,3800,3800,-719,-1136,1994,-549,-1711,-2668,152,80,816
962721,8407504,7686908,8411768,7723640,3725,3800,-760,-319,2549,1108,-3768,1616,152,80,816
963735,8408044,7687296,8412512,7724384,3800,3800,-1635,2629,3383,2871,-5275,8745,123,78,814
964736,8408580,7687804,8413256,7725128,3800,3800,-2273,5152,4119,2807,-4428,3664,123,78,814
965737,8409156,7688240,8414000,7725872,3800,3800,-2253,5716,4418,2994,-2946,-1075,107,90,814
966738,8409680,7688760,8414744,7726616,3800,3800,-2090,5076,4292,4062,-2445,-1782,107,90,814
967739,8410148,7689284,8415488,7727360,3800,3800,-2069,4628,3974,5148,-2197,-1056,114,103,813
968740,8410652,7689812,8416232,7728104,3800,3800,-2269,4725,3689,5707,-3093,590,114,103,813
969741,8411044,7690436,8416976,7728848,3800,3800,-2529,4856,3487,6307,-3758,319,85,112,813
970742,8411472,7691092,8417720,7729592,3800,3800,-2602,4604,3272,7009,-3868,-525,85,112,813
971743,8411932,7691800,8418464,7730336,3800,3800,-2678,4242,2907,7635,-3365,15,84,123,812
972744,8412324,7692460,8419208,7731080,3800,3800,-2752,3832,2347,7733,-2919,-91,84,123,812
973745,8412736,7693192,8419952,7731824,3800,3800,-2912,3673,1690,8110,-2647,1647,95,131,814
974747,8413188,7693932,8420696,7732568,3800,3800,-3181,4215,983,8888,-2626,3874,95,131,814
975747,8413620,7694820,8421440,7733312,3800,3800,-3469,5127,284,9116,-2857,4515,102,154,814
976749,8414056,7695592,8422184,7734056,3800,3800,-3677,6081,-415,8688,-2949,4758,102,154,814
977750,8414560,7696500,8422928,7734800,3800,3800,-3737,6993,-1096,8298,-3789,5634,88,165,815
978760,8415032,7697340,8423688,7735560,3800,3800,-3679,8093,-1660,8184,-4594,6549,88,165,815
979751,8415512,7698260,8424432,7736304,3800,3800,-3616,9398,-2117,8073,-4766,6669,94,182,816
980752,8416076,7699336,8425176,7737048,3800,3800,-3610,10736,-2502,7726,-4862,6857,94,182,816
981753,8416604,7700336,8425920,7737792,3800,3800,-3592,12016,-2847,7095,-4801,7128,99,183,817
982754,8417172,7701276,8426664,7738536,3800,3800,-3549,13333,-3152,6476,-5225,7420,99,183,817
983755,8417820,7702316,8427408,7739280,3800,3800,-3402,14409,-3446,5938,-4751,6227,126,192,818
984757,8418448,7703316,8428152,7740024,3800,3800,-3063,15154,-3815,5282,-3511,5211,126,192,818
985757,8419100,7704172,8428896,7740768,3800,3800,-2700,15755,-4100,4804,-3842,5616,127,198,819
986759,8419780,7705224,8429640,7741512,3800,3800,-2378,16512,-4192,4488,-4159,5852,127,198,819
987759,8420564,7706120,8430384,7742256,3800,3800,-2048,17086,-4193,4233,-3562,4871,154,188,819
988760,8421332,7706928,8431128,7743000,3800,3800,-1566,17263,-4296,3786,-2566,3277,154,188,819
989761,8422132,7707768,8431872,7743744,3800,3800,-1069,16958,-4504,3063,-2067,2336,164,171,820
990763,8423000,7708540,8432616,7744488,3800,3800,-618,16564,-4818,2015,-1355,2140,164,171,820
991763,8423848,7709320,8433360,7745232,3800,3800,-200,15983,-5307,401,-355,1420,181,163,819
992765,8424684,7709988,8434104,7745976,3800,3800,215,15248,-5897,-1457,434,843,181,163,819
993766,8425708,7710684,8434848,7746720,3800,3800,577,14433,-6463,-3099,951,961,175,147,817
994754,8426728,7711348,8435592,7747464,3770,3800,733,14346,-7034,-4509,1382,3070,175,147,817
995767,8427704,7712000,8436336,7748208,3800,3800,664,14992,-7610,-6515,1502,4402,182,149,819
996756,8428816,7712720,8437080,7748952,2934,3800,580,15379,-8154,-8439,1061,3892,182,149,819
997757,8429884,7713360,8437824,7749696,3069,3800,528,15940,-8591,-10199,800,5355,201,140,819
998758,8430908,7714052,8438568,7750440,3222,3800,569,16652,-8864,-11572,1051,5675,201,140,819
999759,8432036,7714680,8439312,7751184,2405,3800,712,17303,-9155,-12261,1317,4951,187,120,822
1000767,8433080,7715300,8440072,7751944,2806,3800,872,17669,-9501,-13263,1492,4651,187,120,822
1001761,8434096,7715868,8440816,7752688,2863,3800,1146,16798,-9733,-14984,970,1882,186,120,823
1002762,8435204,7716436,8441560,7753432,2130,3800,1750,10913,-9422,-20046,-413,-5768,186,120,823
1003763,8436172,7717048,8442304,7754176,2907,3800,2564,1646,-8385,-23433,-3056,-6574,181,124,820
1004764,8437088,7717596,8443048,7754920,3158,3800,2911,-6421,-6568,-22648,-5397,-1279,181,124,820
1005764,8438072,7718192,8443792,7755664,2628,3800,2727,-9663,-4469,-19582,-4533,5198,187,128,821
1006766,8438972,7718900,8444536,7756408,3086,3800,2183,-8845,-2610,-16861,-3610,8394,187,128,821
1007767,8439900,7719424,8445280,7757152,2831,3800,1791,-6950,-984,-16752,-2789,7594,182,121,822
1008768,8440804,7719968,8446024,7757896,2911,3800,1791,-6403,397,-15662,-2475,4513,182,121,822
1009769,8441696,7720456,8446768,7758640,2922,3800,2036,-6797,1742,-15393,-3388,4082,192,113,820
1010770,8442552,7720952,8447512,7759384,3099,3800,2380,-7373,3206,-14950,-3689,3734,192,113,820
1011771,8443500,7721484,8448256,7760128,2436,3800,2623,-7848,4625,-13489,-3331,2938,166,115,821
1012772,8444368,7722132,8449000,7760872,2882,3800,2878,-8681,6007,-12811,-2503,1554,166,115,821
1013773,8445232,7722704,8449744,7761616,2855,3800,3136,-9780,7240,-11715,-2489,923,188,129,821
1014773,8446112,7723276,8450488,7762360,2697,3800,3373,-11297,8345,-10352,-3047,-251,188,129,821
1015775,8447064,7723888,8451232,7763104,2156,3800,3556,-12700,9399,-8461,-3576,410,188,120,820
1016776,8447900,7724496,8451976,7763848,2841,3800,3694,-14062,10307,-5925,-3520,-140,188,120,820
1017777,8448696,7725188,8452720,7764592,3069,3800,3638,-15163,11088,-3464,-3317,1382,164,124,822
1018778,8449608,7725812,8453464,7765336,2271,3800,3275,-15383,11741,-1461,-2449,4367,164,124,822
1019779,8450376,7726472,8454208,7766080,3161,3800,2571,-15006,12417,215,-3316,5443,155,141,820
1020780,8451128,7727100,8454952,7766824,3258,3800,1409,-13855,13442,1533,-6238,7975,155,141,820
1021780,8452004,7727752,8455696,7767568,2426,3800,260,-12481,14247,2011,-4141,7855,153,130,822
1022788,8452732,7728436,8456456,7768328,3366,3800,-231,-12455,14485,2940,-4310,2590,153,130,822
1023783,8453572,7729216,8457200,7769072,2625,3800,-34,-13584,14390,4362,-4791,398,165,141,819
1024784,8454480,7729884,8457944,7769816,2128,3800,348,-14980,14133,5178,-4149,441,165,141,819
1025785,8455196,7730596,8458688,7770560,3341,3800,580,-15762,13668,5941,-2520,2160,149,142,819
1026786,8456112,7731284,8459432,7771304,2016,3800,319,-15270,13040,6502,-1656,5945,149,142,819
1027787,8456888,7731980,8460176,7772048,2877,3800,193,-14520,12316,7012,-2096,4276,156,144,822
1028788,8457724,7732580,8460920,7772792,2463,3800,299,-14076,11479,7328,-2266,3790,156,144,822
1029789,8458600,7733280,8461664,7773536,2155,3800,583,-13742,10562,6881,-919,3974,161,136,823
1030789,8459472,7733904,8462408,7774280,2125,3800,811,-12938,9489,6137,787,5008,161,136,823
1031791,8460348,7734516,8463152,7775024,2043,3800,885,-11865,8303,5335,975,5158,166,122,822
1032792,8461188,7735084,8463896,7775768,2226,3800,1005,-10645,7184,4902,599,5178,166,122,822
1033792,8462092,7735688,8464640,7776512,1756,3800,1119,-9290,6158,4771,476,5598,163,123,823
1034793,8462940,7736312,8465384,7777256,2061,3800,1207,-7712,5131,4363,606,5811,163,123,823
1035794,8463752,7736920,8466128,7778000,2257,3800,1210,-6225,4072,3756,606,5359,175,126,822
1036796,8464548,7737476,8466872,7778744,2334,3800,1143,-4900,2996,3379,587,4580,175,126,822
1037796,8465284,7738028,8467616,7779488,2712,3800,1014,-3856,1976,3214,780,3740,152,123,822
1038797,8466068,7738572,8468360,7780232,2396,3800,856,-3085,1050,3286,709,2792,152,123,822
1039799,8466844,7739164,8469104,7780976,2432,3800,709,-2740,291,3668,780,1350,133,119,821
1040800,8467588,7739700,8469848,7781720,2633,3800,591,-2714,-273,4364,1224,348,133,119,821
1041801,8468288,7740248,8470592,7782464,2927,3800,395,-2697,-605,5541,1823,466,135,116,821
1042802,8469032,7740764,8471336,7783208,2653,3800,162,-2818,-698,6194,3233,-606,135,116,821
1043803,8469736,7741288,8472080,7783952,2921,3800,64,-3697,-826,5789,5009,-3472,141,122,820
1044823,8470296,7741760,8472840,7784712,3800,3800,150,-5134,-974,5459,5028,-4640,141,122,820
1045805,8470900,7742336,8473584,7785456,3696,3800,387,-6665,-1036,5044,4697,-5028,143,102,819
1046806,8471536,7742808,8474328,7786200,3544,3800,662,-8160,-1025,4241,4681,-5473,143,102,819
1047819,8472108,7743284,8475072,7786944,3800,3800,600,-9282,-975,4324,5178,-3393,118,98,815
1048821,8472632,7743684,8475816,7787688,3800,3800,-57,-8415,-510,5694,3706,3835,118,98,815
1049821,8473192,7744072,8476560,7788432,3800,3800,-1043,-6272,235,5283,2591,5354,131,80,813
1050822,8473688,7744412,8477304,7789176,3800,3800,-1714,-4986,778,3875,2662,1367,131,80,813
1051823,8474148,7744732,8478048,7789920,3800,3800,-1781,-5447,915,3081,3680,-2728,106,74,813
1052825,8474648,7745068,8478792,7790664,3800,3800,-1741,-6428,862,3279,3495,-1968,106,74,813
1053825,8475108,7745356,8479536,7791408,3800,3800,-2018,-6182,1019,4038,2241,2286,90,56,812
1054826,8475520,7745660,8480280,7792152,3800,3800,-2522,-4921,1545,4192,528,4241,90,56,812
1055827,8475924,7745996,8481024,7792896,3800,3800,-2896,-3371,2078,3807,285,4321,82,71,811
1056828,8476288,7746300,8481768,7793640,3800,3800,-3122,-2054,2394,3896,959,4291,82,71,811
1057829,8476640,7746636,8482512,7794384,3800,3800,-3311,-820,2508,4348,1721,4899,91,72,811
1058830,8477004,7746964,8483256,7795128,3800,3800,-3546,534,2530,5031,2256,5918,91,72,811
1059831,8477340,7747320,8484000,7795872,3800,3800,-3816,2075,2529,6051,2985,6474,75,82,810
1060832,8477656,7747680,8484744,7796616,3800,3800,-4057,3574,2478,6998,3832,6367,75,82,810
1061833,8477988,7748088,8485488,7797360,3800,3800,-4193,4779,2300,7667,4979,5654,68,77,809
1062834,8478272,7748456,8486232,7798104,3800,3800,-4293,5620,2012,8180,5518,5748,68,77,809
1063835,8478560,7748784,8486976,7798848,3800,3800,-4338,6323,1687,8784,5999,5491,68,89,810
1064837,8478872,7749212,8487720,7799592,3800,3800,-4350,6922,1326,8975,6501,5557,68,89,810
1065837,8479148,7749552,8488464,7800336,3800,3800,-4353,7711,971,8727,5877,6585,54,90,811
1066847,8479404,7749992,8489224,7801096,3800,3800,-4433,8766,681,7884,4285,7790,54,90,811
1067839,8479684,7750416,8489968,7801840,3800,3800,-3399,11488,597,7210,1559,20928,46,86,810
1068840,8479980,7750796,8490712,7802584,3800,3800,-168,19087,724,7596,-1489,32767,46,86,810
1069841,8480284,7751176,8491456,7803328,3800,3800,2096,23215,434,8026,3712,10431,52,85,810
1070842,8480640,7751628,8492200,7804072,3800,3800,2232,22732,-179,7593,4824,2790,52,85,810
1071843,8480984,7752112,8492944,7804816,3800,3800,1554,20507,-825,7237,4067,1076,60,82,809
1072845,8481332,7752512,8493688,7805560,3800,3800,1035,18885,-1340,6826,2991,1737,60,82,809
1073845,8481724,7752944,8494432,7806304,3800,3800,760,17986,-1591,5948,2490,1616,67,96,811
1074846,8482188,7753448,8495176,7807048,3800,3800,546,17144,-1839,5683,2537,1121,67,96,811
1075847,8482612,7753868,8495920,7807792,3800,3800,182,16217,-2250,5122,2896,1360,84,102,812
1076849,8483080,7754400,8496664,7808536,3800,3800,-325,15132,-2737,4040,3335,947,84,102,812
1077849,8483624,7754996,8497408,7809280,3800,3800,-728,13907,-3286,3318,2913,164,108,100,813
1078850,8484124,7755532,8498152,7810024,3800,3800,-1101,12577,-3809,1840,2419,-78,108,100,813
1079851,8484652,7756192,8498896,7810768,3800,3800,-1509,11646,-4172,-85,1634,1492,104,120,814
1080853,8485236,7756776,8499640,7811512,3800,3800,-2100,11149,-4460,-1711,336,2673,104,120,814
1081853,8485804,7757500,8500384,7812256,3800,3800,-2715,10884,-4752,-3300,-437,3130,114,141,813
1082854,8486384,7758232,8501128,7813000,3800,3800,-3253,10718,-4979,-4632,-985,3479,114,141,813
1083855,8487072,7759064,8501872,7813744,3800,3800,-3640,10754,-5108,-5711,-2313,4069,135,140,814
1084856,8487716,7759772,8502616,7814488,3800,3800,-3880,10297,-5021,-8266,-3513,2958,135,140,814
1085857,8488376,7760688,8503360,7815232,3800,3800,-3880,7136,-4688,-11586,-5161,-1421,146,148,817
1086858,8489116,7761516,8504104,7815976,3800,3800,-3803,2533,-4191,-13101,-6696,-1005,146,148,817
1087859,8489868,7762460,8504848,7816720,3800,3800,-3901,283,-3415,-12268,-7543,4698,147,173,818
1088867,8490612,7763420,8505608,7817480,3800,3800,-4179,1967,-2331,-11367,-7571,9526,147,173,818
1089861,8491476,7764296,8506352,7818224,3800,3800,-4322,4742,-1225,-11749,-7312,8677,156,191,819
1090862,8492340,7765224,8507096,7818968,3800,3800,-4170,6498,-290,-12103,-7810,7251,156,191,819
1091863,8493244,7766312,8507840,7819712,3800,3800,-3826,7509,613,-12371,-8377,6857,171,189,820
1092864,8494224,7767228,8508584,7820456,3800,3800,-3363,7966,1519,-11828,-8736,4930,171,189,820
1093865,8495120,7768312,8509328,7821200,3800,3800,-2900,8131,2408,-10934,-8645,4060,180,193,820
1094866,8496172,7769340,8510072,7821944,3800,3800,-2399,7975,3309,-10142,-7878,2832,180,193,820
1095867,8497176,7770300,8510816,7822688,3800,3800,-1899,7656,4130,-8729,-7083,2100,170,199,821
1096869,8498164,7771120,8511560,7823432,3800,3800,-1361,6978,4913,-7908,-6997,966,170,199,821
1097869,8499152,7772000,8512304,7824176,3800,3800,-742,6084,5683,-7055,-6889,297,200,175,822
1098870,8500304,7772888,8513048,7824920,3800,3800,-108,4846,6397,-5758,-6757,-632,200,175,822
1099871,8501348,7773648,8513792,7825664,3800,3800,494,3620,7057,-4744,-6270,-426,215,163,822
1100872,8502336,7774404,8514536,7826408,3800,3800,1046,2535,7648,-3678,-5631,-120,215,163,822
1101873,8503288,7775072,8515280,7827152,3800,3800,1544,1451,8157,-2917,-4766,-169,205,160,822
1102874,8504360,7775804,8516024,7827896,3800,3800,2032,565,8545,-2558,-3499,508,205,160,822
1103875,8505320,7776584,8516768,7828640,3800,3800,2453,-87,8766,-2134,-2536,902,212,148,819
1104876,8506276,7777212,8517512,7829384,3800,3800,2828,-494,8769,-2397,-1443,1266,212,148,819
1105878,8507308,7777740,8518256,7830128,3800,3800,3063,-584,8584,-2991,-495,2332,206,132,819
1106878,8508288,7778260,8519000,7830872,3800,3800,3126,-303,8111,-3388,615,2977,206,132,819
1107879,8509316,7778736,8519744,7831616,3800,3800,2998,52,7324,-3777,1009,2859,191,114,819
1108880,8510424,7779132,8520488,7832360,3800,3800,2846,397,6282,-3753,1159,2757,191,114,819
1109881,8511480,7779620,8521232,7833104,3800,3800,2568,554,5266,-3566,372,2475,193,102,818
1110889,8512468,7780020,8521992,7833864,3800,3800,2270,713,4420,-3305,-266,2092,193,102,818
1111870,8513668,7780388,8522736,7834608,2908,3800,1796,398,3772,-2978,-195,460,202,80,818
1112884,8514656,7780768,8523480,7835352,3800,3800,1440,-449,3194,-2928,-205,-1395,202,80,818
1113885,8515656,7781120,8524224,7836096,3800,3800,1088,-1815,2747,-2843,-689,-2589,210,72,817
1114874,8516728,7781484,8524968,7836840,3350,3800,859,-3573,2562,-2404,-1337,-3522,210,72,817
1115875,8517712,7781784,8525712,7837584,3796,3800,537,-5255,2690,-1804,-3110,-2956,188,80,815
1116876,8518712,7782148,8526456,7838328,3585,3800,196,-6620,2981,-2140,-2797,-2753,188,80,815
1117877,8519844,7782492,8527200,7839072,2591,3800,-74,-8244,3215,-1692,-2049,-3723,191,69,818
1118878,8520844,7782792,8527944,7839816,3305,3800,-260,-10038,3377,-526,-1982,-3871,191,69,818
1119878,8521872,7783116,8528688,7840560,3006,3800,-430,-11757,3701,-425,-2338,-3549,208,76,817
1120880,8523104,7783444,8529432,7841304,1518,3800,-739,-13290,4192,-177,-3720,-3237,208,76,817
1121881,8524172,7783804,8530176,7842048,2402,3800,-1145,-14670,4793,-533,-3677,-3049,206,91,818
1122882,8525288,7784364,8530920,7842792,1940,3800,-1616,-15557,5425,-838,-3235,-1757,206,91,818
1123883,8526464,7784788,8531664,7843536,1376,3800,-2088,-15806,6004,-1001,-3189,-720,193,114,823
1124884,8527480,7785408,8532408,7844280,2257,3800,-2537,-15624,6633,-1919,-3063,525,193,114,823
1125885,8528520,7786220,8533152,7845024,1978,3800,-2857,-15076,7271,-2108,-1950,1158,207,125,822
1126886,8529668,7786948,8533896,7845768,1127,3800,-3115,-14625,7845,-1078,-896,411,207,125,822
1127886,8530632,7787672,8534640,7846512,2181,3800,-3350,-14468,8359,477,-771,-233,200,154,823
1128888,8531584,7788420,8535384,7847256,2164,3800,-3579,-14282,8876,1124,-1687,146,200,154,823
1129889,8532600,7789176,8536128,7848000,1646,3800,-3735,-13998,9378,-256,-2879,231,191,194,827
1130890,8533472,7790180,8536872,7848744,2491,3800,-3829,-13763,9803,-1239,-3940,86,191,194,827
1131891,8534296,7791072,8537616,7849488,2756,3800,-3817,-13415,10146,-1006,-3983,190,181,198,826
1132899,8535168,7791992,8538376,7850248,2407,3800,-3814,-13024,10431,-196,-3581,256,181,198,826
1133892,8535888,7792872,8539120,7850992,3369,3800,-3767,-12622,10730,664,-4493,484,169,201,825
1134893,8536640,7793788,8539864,7851736,3165,3800,-3676,-12381,11022,412,-5773,448,169,201,825
1135894,8537404,7794732,8540608,7852480,3083,3800,-3405,-12183,11193,576,-6027,215,166,181,825
1136896,8538196,7795512,8541352,7853224,2887,3800,-2975,-12279,11142,1110,-5926,-701,166,181,825
1137897,8538916,7796268,8542096,7853968,3348,3800,-2416,-12459,10910,1481,-6129,-408,160,156,821
1138898,8539584,7797044,8542840,7854712,3707,3800,-1809,-12540,10640,1664,-6687,-13,160,156,821
1139899,8540292,7797784,8543584,7855456,3473,3800,-1148,-12503,10352,1849,-7028,475,142,145,822
1140900,8540956,7798524,8544328,7856200,3784,3800,-559,-12259,10016,2297,-6616,1194,142,145,822
1141914,8541544,7799328,8545072,7856944,3800,3800,-26,-12031,9598,3023,-4857,1029,124,156,818
1142914,8542144,7800120,8545816,7857688,3800,3800,383,-11881,9112,3360,-3833,1541,124,156,818
1143915,8542724,7800932,8546560,7858432,3800,3800,827,-11719,8503,3519,-2820,1822,114,162,817
1144916,8543232,7801732,8547304,7859176,3800,3800,1324,-11563,7884,4089,-2486,2338,114,162,817
1145917,8543784,7802544,8548048,7859920,3800,3800,1869,-11421,7456,5005,-2561,2757,110,156,817
1146918,8544268,7803356,8548792,7860664,3800,3800,2459,-11178,7105,5912,-1419,3372,110,156,817
1147919,8544760,7804128,8549536,7861408,3800,3800,2982,-10781,6800,6747,-819,4149,99,152,816
1148920,8545216,7804940,8550280,7862152,3800,3800,6504,-4600,6232,15002,409,30340,99,152,816
1149921,8545632,7805688,8551024,7862896,3800,3800,13798,10019,5110,21236,1638,32767,82,161,815
1150922,8546036,7806452,8551768,7863640,3800,3800,16889,15539,4532,10168,-1422,-2440,82,161,815
1151923,8546464,7807188,8552512,7864384,3800,3800,16221,14631,4152,10480,1353,2473,80,150,815
1152924,8546844,7807996,8553256,7865128,3800,3800,13016,14490,3800,12783,1031,13127,80,150,815
1153925,8547252,7808704,8554000,7865872,3800,3800,8611,19597,3793,14757,295,21504,92,163,814
1154935,8547712,7809376,8554760,7866632,3800,3800,4748,23853,3691,15730,5943,13726,92,163,814
1155927,8548136,7809992,8555504,7867376,3800,3800,2987,23521,2677,13503,7155,411,82,117,814
1156928,8548576,7810560,8556248,7868120,3800,3800,2513,19933,1064,12443,7799,-4537,82,117,814
1157929,8549068,7811100,8556992,7868864,3800,3800,2575,14738,-391,12010,7748,-9013,87,118,814
1158930,8549520,7811592,8557736,7869608,3800,3800,2404,9393,-1517,11614,6561,-10197,87,118,814
1159931,8550004,7812092,8558480,7870352,3800,3800,2000,4785,-2179,10659,5477,-8650,87,101,812
1160932,8550488,7812548,8559224,7871096,3800,3800,1068,1588,-2234,10083,4182,-3725,87,101,812
1161933,8551028,7813056,8559968,7871840,3800,3800,-630,315,-2457,9110,5552,1754,116,111,813
1162934,8551604,7813596,8560712,7872584,3800,3800,-2333,-911,-3137,7067,7438,-87,116,111,813
1163935,8552140,7814040,8561456,7873328,3800,3800,-3392,-3063,-4063,5836,7677,-2462,114,96,813
1164936,8552756,7814560,8562200,7874072,3800,3800,-3891,-5658,-5043,5700,7744,-2569,114,96,813
1165937,8553440,7815048,8562944,7874816,3800,3800,-4352,-7834,-5935,4623,7964,-327,114,118,814
1166938,8554052,7815616,8563688,7875560,3800,3800,-5074,-8588,-6472,3115,5801,3705,114,118,814
1167939,8554780,7816184,8564432,7876304,3800,3800,-6121,-7823,-6349,939,2558,7298,122,112,814
1168940,8555464,7816824,8565176,7877048,3800,3800,-6849,-6947,-6020,-1617,3889,7081,122,112,814
1169941,8556180,7817496,8565920,7877792,3800,3800,-7150,-6115,-5933,-3119,4908,8378,148,119,814
1170942,8557036,7818080,8566664,7878536,3800,3800,-7371,-5039,-6009,-4886,4560,9459,148,119,814
1171943,8557856,7818808,8567408,7879280,3800,3800,-7655,-4429,-6028,-7599,2749,8998,164,141,816
1172944,8558692,7819464,8568152,7880024,3800,3800,-7890,-4636,-5721,-10184,98,8991,164,141,816
1173945,8559612,7820312,8568896,7880768,3800,3800,-7921,-5047,-5045,-11537,-1554,11300,162,159,818
1174946,8560496,7821092,8569640,7881512,3800,3800,-6991,-3250,-3796,-13175,-4734,26999,162,159,818
1175947,8561456,7821988,8570384,7882256,3800,3800,-5480,305,-2295,-13227,-4738,28372,194,160,818
1176955,8562460,7822980,8571144,7883016,3800,3800,-4655,2949,-1228,-11302,-576,12185,194,160,818
1177949,8563464,7823808,8571888,7883760,3800,3800,-4453,4012,-580,-10418,818,8281,182,190,820
1178950,8564432,7824920,8572632,7884504,3800,3800,-4257,4335,-19,-9799,728,6560,182,190,820
1179939,8565540,7825920,8573376,7885248,3026,3800,-3727,4397,690,-9520,40,5265,187,199,821
1180940,8566528,7826936,8574120,7885992,3671,3800,-2950,4104,1484,-8298,-1430,3273,187,199,821
1181940,8567512,7827948,8574864,7886736,3591,3800,-2161,3434,2313,-7258,-2219,2358,194,210,821
1182942,8568520,7829032,8575608,7887480,3326,3800,-1361,2555,3161,-6609,-3075,1688,194,210,821
1183942,8569488,7830092,8576352,7888224,3480,3800,-587,1349,3917,-5803,-3734,474,199,206,823
1184956,8570380,7831324,8577096,7888968,3800,3800,287,-81,4599,-5467,-4089,-501,199,206,823
1185945,8571340,7832320,8577840,7889712,3372,3800,1131,-1660,5163,-4896,-4722,-839,184,203,824
1186946,8572236,7833384,8578584,7890456,3707,3800,2066,-3318,5607,-4494,-4719,-1609,184,203,824
1187947,8573120,7834504,8579328,7891200,3722,3800,2870,-5045,6046,-4136,-5231,-1109,184,210,822
1188948,8574076,7835476,8580072,7891944,3179,3800,3609,-6231,6514,-2921,-5888,26,184,210,822
1189948,8575016,7836600,8580816,7892688,3194,3800,4124,-6930,6964,-1989,-5699,1561,202,215,821
1190949,8575916,7837604,8581560,7893432,3377,3800,4638,-7300,7275,-1643,-5323,1391,202,215,821
1191950,8576840,7838652,8582304,7894176,3149,3800,5195,-7837,7352,-1201,-5417,778,184,220,823
1192952,8577868,7839676,8583048,7894920,2375,3800,5824,-8499,7386,-643,-6312,287,184,220,823
1193952,8578836,7840668,8583792,7895664,2652,3800,6411,-9072,7361,35,-6492,577,190,222,823
1194953,8579784,7841912,8584536,7896408,2689,3800,6778,-9211,7268,966,-6938,1763,190,222,823
1195954,8580772,7843032,8585280,7897152,2333,3800,7052,-9102,7087,1824,-5956,1620,186,224,827
1196956,8581644,7844120,8586024,7897896,3002,3800,7315,-8889,6841,2591,-5422,1835,186,224,827
1197956,8582532,7845232,8586768,7898640,2840,3800,7493,-8494,6497,2883,-5012,2128,169,227,826
1198964,8583576,7846236,8587528,7899400,1741,3800,7542,-8049,6018,2827,-3239,1956,169,227,826
1199958,8584428,7847180,8588272,7900144,2895,3800,7491,-7444,5550,2987,-2602,2061,205,206,825
1200959,8585348,7848276,8589016,7900888,2392,3800,7319,-6707,5162,2798,-3124,2160,205,206,825
1201960,8586444,7849284,8589760,7901632,1139,3800,7039,-5711,4859,2509,-4261,2163,198,210,828
1202961,8587360,7850404,8590504,7902376,2189,3800,6674,-4711,4603,2251,-4651,1453,198,210,828
1203963,8588296,7851600,8591248,7903120,1980,3800,6266,-3748,4389,2187,-4585,1179,190,213,826
1204964,8589280,7852780,8591992,7903864,1575,3800,5209,-1793,4539,3220,-4941,5127,190,213,826
1205965,8590176,7853980,8592736,7904608,2059,3800,4005,-61,4804,3603,-4666,1795,174,217,828
1206965,8591048,7855192,8593480,7905352,2153,3800,3373,271,4680,4265,-3156,-2228,174,217,828
1207967,8592068,7856340,8594224,7906096,1107,3800,3056,-105,4292,5190,-2215,-3064,172,230,830
1208968,8592968,7857516,8594968,7906840,1789,3800,2764,-707,3828,5265,-1847,-3959,172,230,830
1209969,8593860,7858636,8595712,7907584,1774,3800,2428,-1620,3503,5096,-2272,-4686,186,255,829
1210970,8594792,7860048,8596456,7908328,1442,3800,2167,-2272,3411,5496,-2175,-3954,186,255,829
1211970,8595600,7861304,8597200,7909072,2190,3800,1882,-2584,3484,5959,-1440,-3758,153,274,830
1212971,8596388,7862540,8597944,7909816,2295,3800,1520,-3068,3538,6639,-354,-4426,153,274,830
1213972,8597256,7863712,8598688,7910560,1741,3800,1080,-3462,3538,6817,466,-4026,169,257,830
1214973,8597996,7864844,8599432,7911304,2544,3800,710,-3915,3591,6429,791,-4632,169,257,830
1215974,8598756,7865892,8600176,7912048,2412,3800,438,-4453,3603,6284,1861,-5031,159,227,827
1216975,8599520,7867020,8600920,7912792,2378,3800,326,-4946,3548,5582,3500,-5075,159,227,827
1217976,8600304,7868012,8601664,7913536,2235,3800,302,-5135,3332,5270,5478,-4570,143,207,827
1218977,8600988,7868920,8602408,7914280,2888,3800,302,-4794,3113,4718,5273,-3251,143,207,827
1219979,8601608,7869804,8603152,7915024,3342,3800,380,-3828,3056,3573,4925,-1933,151,178,825
1220986,8602348,7870656,8603912,7915784,2601,3800,520,-2535,3134,3198,4425,-1204,151,178,825
1221981,8602976,7871468,8604656,7916528,3352,3800,562,-855,3295,3470,3445,630,166,162,823
1222981,8603632,7872156,8605400,7917272,3216,3800,540,965,3343,2802,3203,442,166,162,823
1223982,8604328,7872784,8606144,7918016,2988,3800,536,2281,3026,1983,3416,-1005,142,129,822
1224984,8604960,7873344,8606888,7918760,3437,3800,540,3204,2504,1995,3401,-1097,142,129,822
1225984,8605576,7873856,8607632,7919504,3594,3800,522,3958,2001,2695,2838,-950,135,97,816
1226985,8606284,7874380,8608376,7920248,3035,3800,492,4493,1525,3827,2321,-1245,135,97,816
1227986,8606896,7874792,8609120,7920992,3694,3800,401,4494,1052,4502,2382,-2080,140,91,817
1229000,8607468,7875176,8609864,7921736,3800,3800,381,3822,630,5551,2087,-3605,140,91,817
1229988,8608104,7875496,8610608,7922480,3667,3800,398,2409,196,6599,1934,-4750,137,81,817
1231002,8608692,7875836,8611352,7923224,3800,3800,404,573,-315,7392,2309,-5359,137,81,817
1232003,8609264,7876136,8612096,7923968,3800,3800,276,-1405,-990,7860,3111,-4873,128,76,813
1233004,8609844,7876424,8612840,7924712,3800,3800,-339,-2648,-1916,8108,5104,-924,128,76,813
1234005,8610380,7876664,8613584,7925456,3800,3800,-1352,-3084,-2872,8871,5027,1089,111,64,812
1235006,8610896,7876908,8614328,7926200,3800,3800,-2585,-3137,-3718,9922,5015,1863,111,64,812
1236007,8611440,7877184,8615072,7926944,3800,3800,-3909,-2960,-4421,10431,4994,3605,94,50,810
1237008,8611936,7877448,8615816,7927688,3800,3800,-5235,-2386,-4886,10778,4161,5733,94,50,810
1238009,8612364,7877740,8616560,7928432,3800,3800,-6559,-1476,-5186,11006,4079,7222,91,62,810
1239010,8612872,7877980,8617304,7929176,3800,3800,-7844,-238,-5397,11071,4246,8307,91,62,810
1240011,8613312,7878268,8618048,7929920,3800,3800,-9147,1194,-5556,10924,4676,9274,86,63,810
1241013,8613760,7878556,8618792,7930664,3800,3800,-10495,3203,-5683,10563,5009,12009,86,63,810
1242013,8614248,7878840,8619536,7931408,3800,3800,-11930,5869,-5696,10056,4800,14169,81,64,810
1243023,8614708,7879168,8620296,7932168,3800,3800,-13266,8719,-5608,9358,4510,14153,81,64,810
1244015,8615176,7879456,8621040,7932912,3800,3800,-14441,11014,-5523,8427,4406,12461,88,66,810
1245017,8615728,7879768,8621784,7933656,3800,3800,-15422,12558,-5505,7506,4714,10890,88,66,810
1246017,8616212,7880188,8622528,7934400,3800,3800,-16243,13284,-5505,7019,5114,8714,93,87,811
1247018,8616756,7880596,8623272,7935144,3800,3800,-13237,18056,-4994,4766,314,29456,93,87,811
1248019,8617264,7881024,8624016,7935888,3800,3800,-3808,32297,-2936,2123,-8024,32767,119,94,812
1249020,8617912,7881588,8624760,7936632,3800,3800,2241,32297,-1953,12497,4586,3303,119,94,812
1250021,8618516,7882080,8625504,7937376,3800,3800,2931,32297,-2287,11414,7524,-5964,125,111,813
1251022,8619168,7882652,8626248,7938120,3800,3800,4277,28035,-2583,-3150,1554,4556,125,111,813
1252023,8619872,7883264,8626992,7938864,3800,3800,7356,12801,-2569,-13191,-1765,-4645,127,110,814
1253025,8620552,7883796,8627736,7939608,3800,3800,8162,-1859,-2878,-10170,957,-15051,127,110,814
1254025,8621240,7884524,8628480,7940352,3800,3800,7078,-10895,-3161,-7130,-133,-7385,148,127,815
1255026,8622068,7885140,8629224,7941096,3800,3800,5265,-14412,-3053,-4520,117,1742,148,127,815
1256027,8622860,7885908,8629968,7941840,3800,3800,3803,-13714,-2852,-2420,1556,5966,170,135,816
1257028,8623700,7886644,8630712,7942584,3800,3800,2679,-11953,-2814,-2369,2745,6989,170,135,816
1258017,8624672,7887484,8631456,7943328,3477,3800,2071,-10019,-3151,-3560,3812,7056,176,145,817
1259018,8625596,7888356,8632200,7944072,3699,3800,1660,-9138,-3628,-5786,3478,5478,176,145,817
1260018,8626504,7889252,8632944,7944816,3729,3800,1375,-8509,-3960,-7449,2618,7079,165,181,818
1261020,8627568,7890240,8633688,7945560,2614,3800,869,-6559,-3966,-8352,879,10127,165,181,818
1262020,8628552,7891192,8634432,7946304,3009,3800,371,-3950,-3547,-9836,-1556,10319,195,195,820
1263022,8629460,7892160,8635176,7947048,3413,3800,-147,-1092,-2889,-10789,-2466,10957,195,195,820
1264022,8630528,7893240,8635920,7947792,2272,3800,-446,1481,-2177,-11271,-2576,9350,177,196,824
1265031,8631492,7894348,8636680,7948552,2833,3800,-513,3811,-1502,-11332,-2885,8318,177,196,824
1266025,8632456,7895316,8637424,7949296,2738,3800,-536,5726,-874,-10955,-3400,6904,202,202,823
1267026,8633388,7896344,8638168,7950040,2856,3800,-520,7334,-204,-10142,-3695,5934,202,202,823
1268026,8634272,7897496,8638912,7950784,3096,3800,-495,8647,583,-8573,-4600,4417,198,200,825
1269028,8635176,7898532,8639656,7951528,2901,3800,-339,9312,1462,-7287,-6054,1682,198,200,825
1270029,8636100,7899656,8640400,7952272,2698,3800,-92,9112,2402,-6302,-6950,-468,195,207,824
1271030,8636920,7900620,8641144,7953016,3316,3800,310,8279,3323,-5387,-7905,-2686,195,207,824
1272031,8637768,7901612,8641888,7953760,3095,3800,760,6907,4178,-4493,-8387,-4251,202,194,825
1273032,8638708,7902608,8642632,7954504,2435,3800,1287,5346,4983,-3827,-9082,-5281,202,194,825
1274033,8639620,7903548,8643376,7955248,2537,3800,1788,3443,5733,-2924,-9437,-5922,178,201,823
1275034,8640496,7904484,8644120,7955992,2705,3800,2301,1579,6394,-2017,-9367,-5785,178,201,823
1276035,8641376,7905584,8644864,7956736,2620,3800,2685,-47,6977,-1334,-9552,-4913,210,208,825
1277036,8642388,7906508,8645608,7957480,1679,3800,3107,-1437,7523,-777,-10280,-5063,210,208,825
1278037,8643384,7907472,8646352,7958224,1669,3800,3523,-2811,8029,-110,-10566,-4757,193,202,825
1279037,8644212,7908344,8647096,7958968,2682,3800,4032,-3866,8301,608,-8617,-4498,193,202,825
1280038,8645200,7909180,8647840,7959712,1576,3800,4467,-4647,8359,1303,-7534,-3814,179,189,826
1281039,8646124,7909972,8648584,7960456,1897,3800,4775,-5127,8190,1472,-5384,-3218,179,189,826
1282041,8646980,7910728,8649328,7961200,2273,3800,4873,-5220,7850,1407,-2961,-2286,184,151,823
1283041,8647932,7911364,8650072,7961944,1582,3800,4820,-4526,7383,846,-2059,-656,184,151,823
1284042,8648788,7912076,8650816,7962688,2134,3800,4566,-3074,6828,-74,-1187,975,182,140,824
1285043,8649712,7912700,8651560,7963432,1630,3800,4147,-1409,6234,-122,-374,985,182,140,824
1286045,8650684,7913360,8652304,7964176,1229,3800,3572,210,5677,751,-261,1107,168,131,824
1287052,8651488,7913924,8653064,7964936,2261,3800,2925,1722,5236,1278,-479,921,168,131,824
1288046,8652284,7914416,8653808,7965680,2288,3800,2285,2918,4829,1211,-1080,79,176,109,824
1289048,8653248,7914936,8654552,7966424,1142,3800,1607,3879,4449,938,-1247,-290,176,109,824
1290048,8654056,7915408,8655296,7967168,2088,3800,865,4894,4143,1289,-875,-345,178,104,820
1291049,8654888,7915720,8656040,7967912,1901,3800,63,5715,3967,2077,-1355,-1205,178,104,820
1292050,8655736,7916028,8656784,7968656,1755,3800,-694,6152,3963,2437,-2243,-2173,153,68,822
1293051,8656592,7916312,8657528,7969400,1656,3800,-1374,6059,4012,2365,-2430,-3493,153,68,822
1294053,8657460,7916612,8658272,7970144,1526,3800,-1959,5488,3979,2032,-2335,-4667,166,65,820
1295053,8658396,7916944,8659016,7970888,1017,3800,-2471,4569,3848,2145,-2371,-5401,166,65,820
1296054,8659228,7917236,8659760,7971632,1629,3800,-2882,3500,3653,2386,-2516,-6146,155,82,821
1297056,8660048,7917652,8660504,7972376,1671,3800,-3167,2330,3423,2233,-2644,-6560,155,82,821
