"Data file recorded 2014/9/22  16:23:46"
"%  Right Stride Frequency         = 3.0"
"%  Left Stride Frequency         = 3.0"
"%  Phase (Fractional)         = 32768.0"
"%  Experiment.py "
"%  Motor Gains    = [1800, 200, 100, 0, 0, 1800, 200, 100, 0, 0]
"% Columns: "
"% time | Right Leg Pos | Left Leg Pos | Commanded Right Leg Pos | Commanded Left Leg Pos | DCR | DCL | GyroX | GryoY | GryoZ | AX | AY | AZ | RBEMF | LBEMF | VBatt "
11340,2312828,2290140,2318063,2285295,2481,-1974,54,-86,-162,96,-346,4097,9,7,897
12340,2312820,2290140,2318260,2285492,2646,-1838,55,-87,-161,113,-326,4127,-2,6,896
13342,2312848,2290144,2318457,2285689,2497,-1779,56,-88,-160,101,-332,4103,-2,6,896
14343,2312860,2290104,2318654,2285886,2680,-1401,53,-95,-164,98,-339,4114,-11,1,897
15343,2312908,2290076,2318851,2286083,2521,-1378,50,-107,-166,132,-284,4102,-11,1,897
16344,2312960,2290024,2319048,2286280,2561,-1120,45,-95,-168,128,-239,4096,-11,-6,880
17346,2313048,2290008,2319245,2286477,2385,-1251,40,-43,-167,133,-206,4120,-11,-6,880
18346,2313144,2289992,2319442,2286674,2380,-1159,40,-48,-155,140,-172,4098,14,-8,879
19347,2313260,2289972,2319639,2286871,2292,-1039,48,-20,-138,177,-236,4173,14,-8,879
20348,2313412,2289956,2319836,2287068,2089,-971,73,25,-135,161,-84,4196,19,-4,882
21350,2313560,2289956,2320033,2287265,2136,-985,107,42,-161,183,119,4209,19,-4,882
22351,2313704,2289932,2320230,2287462,2185,-738,141,65,-204,307,134,4088,34,-1,883
23352,2313884,2289940,2320427,2287659,1969,-856,170,57,-226,434,-52,4140,34,-1,883
24352,2314044,2289924,2320624,2287856,2112,-612,171,145,-229,278,-250,4324,21,8,884
25354,2314212,2289924,2320821,2288053,2076,-627,143,253,-232,94,-255,4357,21,8,884
26354,2314408,2289928,2321018,2288250,1902,-567,100,365,-244,123,-315,4542,42,11,886
27356,2314568,2289916,2321215,2288447,2145,-375,74,518,-255,259,-321,4698,42,11,886
28356,2314748,2289924,2321412,2288644,2029,-418,62,725,-270,251,20,4775,41,-3,886
29358,2314912,2289932,2321609,2288841,2145,-335,60,941,-306,224,305,4872,41,-3,886
30359,2315048,2289928,2321806,2289038,2347,-172,79,1141,-376,232,518,4669,35,-2,887
31360,2315192,2289932,2322003,2289235,2322,-137,125,1241,-474,299,438,4461,35,-2,887
32360,2315328,2289928,2322200,2289432,2400,2,174,1273,-564,398,70,4202,32,0,888
33361,2315452,2289912,2322397,2289629,2509,169,192,1243,-656,386,9,4061,32,0,888
34362,2315568,2289916,2322594,2289826,2595,129,169,1195,-748,402,-449,4039,20,11,888
35363,2315668,2289920,2322791,2290023,2740,214,115,1117,-817,420,-926,3903,20,11,888
36364,2315776,2289928,2322988,2290220,2730,272,17,1143,-864,350,-1313,4316,12,-2,887
37365,2315904,2289920,2323185,2290417,2636,462,-100,1215,-897,236,-1574,4392,12,-2,887
38366,2316032,2289920,2323382,2290614,2668,499,-220,1253,-926,232,-1732,4351,20,5,885
39367,2316164,2289940,2323579,2290811,2673,452,-337,1330,-961,261,-1632,4376,20,5,885
40368,2316292,2289932,2323776,2291008,2730,717,-443,1375,-1020,132,-1278,4332,21,6,883
41370,2316420,2289932,2323973,2291205,2762,754,-539,1380,-1105,-69,-841,4321,21,6,883
42370,2316556,2289960,2324170,2291402,2739,653,-624,1367,-1182,-222,-702,4173,24,3,885
43372,2316672,2289964,2324367,2291599,2902,889,-685,1326,-1214,-251,-654,4074,24,3,885
44372,2316796,2289984,2324564,2291796,2885,867,-691,1275,-1218,-334,-673,4007,39,17,885
45374,2316916,2290000,2324761,2291993,2946,971,-636,1127,-1203,-440,-779,3752,39,17,885
46374,2317032,2290016,2324958,2292190,3008,1052,-530,936,-1166,-484,-901,3756,19,0,883
47375,2317140,2290032,2325155,2292387,3099,1131,-398,766,-1101,-517,-1048,3813,19,0,883
48376,2317260,2290040,2325352,2292584,3059,1264,-246,600,-1005,-635,-1156,3859,16,2,881
49378,2317364,2290028,2325549,2292781,3201,1482,-85,513,-899,-847,-1023,4057,16,2,881
50379,2317456,2290048,2325746,2292978,3325,1360,72,418,-800,-1076,-855,4118,22,18,880
51379,2317552,2290100,2325943,2293175,3345,1225,212,409,-686,-1070,-947,4378,22,18,880
52380,2317632,2290140,2326140,2293372,3498,1370,347,453,-555,-1030,-826,4396,18,5,879
53382,2317740,2290188,2326337,2293569,3363,1385,468,462,-436,-1200,-546,4299,18,5,879
54382,2317836,2290220,2326534,2293766,3485,1559,557,451,-346,-1205,-357,4438,18,26,877
55384,2317916,2290280,2326731,2293963,3638,1445,619,413,-270,-1068,-141,4264,18,26,877
56384,2318024,2290304,2326928,2294160,3503,1746,649,406,-199,-989,4,4374,9,7,877
57385,2318140,2290344,2327125,2294357,3491,1716,663,404,-129,-884,30,4230,9,7,877
58386,2318220,2290392,2327322,2294554,3769,1733,682,280,-48,-744,54,3984,25,20,877
59387,2318348,2290440,2327519,2294751,3501,1799,690,152,30,-589,146,4082,25,20,877
60388,2318464,2290488,2327716,2294948,3613,1864,697,-9,97,-415,18,3884,16,20,874
61389,2318564,2290556,2327913,2295145,3758,1797,709,-165,172,-239,-169,3873,16,20,874
62390,2318684,2290600,2328110,2295342,3669,2015,713,-308,242,-70,-217,3894,21,8,873
63391,2318820,2290668,2328307,2295539,3598,1923,707,-425,281,77,-224,3951,21,8,873
64392,2318984,2290748,2328504,2295736,3438,1900,701,-517,263,369,-18,3989,26,20,874
65393,2319176,2290796,2328701,2295933,3267,2167,691,-654,207,683,230,4035,26,20,874
66394,2319376,2290876,2328898,2296130,3218,2019,680,-859,226,1197,-138,3982,28,17,872
67395,2319636,2290948,2329095,2296327,2817,2125,659,-1011,327,1474,-891,4037,28,17,872
68396,2319876,2291024,2329292,2296524,2925,2154,634,-1045,378,1235,-1273,4199,50,12,873
69397,2320120,2291116,2329489,2296721,2881,2102,634,-1212,332,985,-1517,3910,50,12,873
70398,2320352,2291188,2329686,2296918,2942,2283,622,-1276,191,1016,-1688,4159,43,17,875
71399,2320560,2291288,2329883,2297115,3090,2151,603,-1261,24,1073,-1588,4263,43,17,875
72400,2320752,2291344,2330080,2297312,3194,2489,585,-1219,-67,1180,-1528,4499,42,29,875
73401,2320952,2291408,2330277,2297509,3143,2499,569,-1073,-115,1423,-980,4706,42,29,875
74402,2321144,2291504,2330474,2297706,3198,2345,584,-1014,-202,1558,-117,4354,54,22,877
75403,2321348,2291568,2330671,2297903,3122,2604,634,-1032,-383,1647,714,4141,54,22,877
76404,2321576,2291632,2330868,2298100,2960,2664,713,-1143,-658,1612,949,3883,42,28,875
77406,2321772,2291716,2331065,2298297,3162,2590,790,-1262,-893,1598,212,4250,42,28,875
78407,2321984,2291792,2331262,2298494,3057,2694,857,-1249,-973,1744,-719,4445,35,19,873
79407,2322256,2291864,2331459,2298691,2651,2776,929,-1213,-952,1905,-858,4163,35,19,873
80408,2322488,2291928,2331656,2298888,2887,2885,993,-1132,-902,1873,-1052,4461,39,19,873
81409,2322692,2292004,2331853,2299085,3061,2864,1053,-1128,-841,1880,-1142,4241,39,19,873
82410,2322940,2292080,2332050,2299282,2765,2919,1088,-1058,-789,1715,-1164,4587,57,20,872
83411,2323180,2292152,2332247,2299479,2798,3000,1085,-784,-742,1450,-1400,5111,57,20,872
84412,2323396,2292228,2332444,2299676,2942,3030,1087,-405,-699,1222,-1519,5273,59,29,874
85413,2323640,2292296,2332641,2299873,2748,3138,1085,41,-706,784,-1027,5346,59,29,874
86414,2323860,2292384,2332838,2300070,2889,3062,1076,349,-801,450,-240,4992,46,11,872
87415,2324056,2292492,2333035,2300267,3041,2978,1083,617,-922,629,83,4794,46,11,872
88416,2324252,2292580,2333232,2300464,3044,3152,1130,744,-993,649,387,4224,39,30,872
89417,2324436,2292676,2333429,2300661,3126,3149,1195,763,-1028,359,311,4038,39,30,872
90418,2324616,2292792,2333626,2300858,3160,3060,1262,760,-1079,193,233,3936,55,19,872
91419,2324808,2292900,2333823,2301055,3089,3151,1338,745,-1113,66,188,3754,55,19,872
92420,2324968,2293008,2334020,2301252,3307,3191,1423,713,-1128,-104,324,3723,36,30,871
93454,2325112,2293144,2334250,2301482,3800,3800,1500,601,-1144,-321,627,3495,36,30,871
94448,2325232,2293244,2334447,2301679,3800,3800,1551,523,-1143,-414,808,3647,47,23,869
95449,2325384,2293352,2334644,2301876,3800,3800,1563,534,-1138,-448,1026,3727,47,23,869
96450,2325508,2293472,2334841,2302073,3800,3800,1553,547,-1166,-640,1197,3585,33,27,870
97451,2325624,2293608,2335038,2302270,3800,3800,1514,505,-1196,-982,987,3761,33,27,870
98452,2325764,2293748,2335235,2302467,3800,3800,1439,545,-1208,-1157,598,3801,41,37,861
99453,2325896,2293868,2335432,2302664,3800,3800,1332,637,-1212,-1296,316,3937,41,37,861
100454,2326040,2294008,2335629,2302861,3800,3800,1210,773,-1215,-1382,223,3899,39,39,861
101455,2326220,2294144,2335826,2303058,3800,3800,1076,820,-1192,-1199,208,3696,39,39,861
102455,2326384,2294284,2336023,2303255,3800,3800,929,782,-1109,-940,-118,3469,36,39,859
103457,2326596,2294420,2336220,2303452,3800,3800,764,693,-987,-853,-727,3396,36,39,859
104457,2326784,2294580,2336417,2303649,3800,3800,582,613,-894,-997,-1219,3283,36,35,860
105459,2326972,2294720,2336614,2303846,3800,3800,443,309,-802,-895,-1633,2652,36,35,860
106459,2327160,2294860,2336811,2304043,3800,3800,324,-61,-675,-553,-1926,2586,41,27,861
107461,2327400,2295016,2337008,2304240,3800,3800,227,-464,-541,-378,-1618,2280,41,27,861
108462,2327664,2295156,2337205,2304437,3800,3800,135,-912,-439,-316,-1159,2385,44,29,862
109463,2327920,2295328,2337402,2304634,3800,3800,34,-1346,-373,71,-743,2404,44,29,862
110451,2328240,2295476,2337599,2304831,3499,3800,-51,-1868,-321,494,-187,2246,45,45,862
111452,2328592,2295648,2337796,2305028,3233,3800,-126,-2207,-336,430,105,2931,45,45,862
112453,2329012,2295816,2337993,2305225,2712,3800,-196,-2517,-456,226,-32,3013,50,34,862
113454,2329500,2295996,2338190,2305422,2160,3800,-259,-2774,-595,350,-743,3041,50,34,862
114455,2329952,2296172,2338387,2305619,2275,3800,-351,-2974,-700,490,-819,3319,84,32,864
115456,2330400,2296384,2338584,2305816,2192,3800,-478,-3144,-714,682,-1055,3440,84,32,864
116457,2330972,2296556,2338781,2306013,1253,3800,-608,-3226,-627,704,-1040,3824,91,45,866
117458,2331472,2296752,2338978,2306210,1572,3800,-701,-3299,-550,479,-401,3790,91,45,866
118459,2332008,2296944,2339175,2306407,1199,3800,-773,-3334,-572,300,90,4062,108,43,872
119460,2332540,2297140,2339372,2306604,1078,3800,-782,-3304,-618,102,-47,3933,108,43,872
120461,2333096,2297380,2339569,2306801,772,3800,-743,-3384,-600,-130,-281,3854,102,41,872
121462,2333604,2297572,2339766,2306998,936,3800,-655,-3513,-547,-257,-107,3721,102,41,872
122463,2334092,2297756,2339963,2307195,935,3800,-510,-3776,-501,-511,238,3373,108,51,874
123464,2334576,2297936,2340160,2307392,834,3800,-334,-3973,-486,-837,348,3594,108,51,874
124465,2334964,2298108,2340357,2307589,1351,3800,-135,-4190,-503,-1168,320,3424,103,52,876
125466,2335372,2298348,2340554,2307786,1135,3800,66,-4373,-473,-1397,75,3778,103,52,876
126467,2335836,2298604,2340751,2307983,668,3800,256,-4385,-377,-1449,-24,4104,78,53,875
127468,2336200,2298848,2340948,2308180,1221,3800,390,-4341,-237,-1679,-343,4387,78,53,875
128469,2336540,2299084,2341145,2308377,1309,3800,484,-4137,-52,-1944,-870,4947,94,55,876
129470,2336936,2299336,2341342,2308574,873,3800,570,-4024,206,-2132,-1303,4708,94,55,876
130458,2337264,2299596,2341539,2308771,1241,3742,627,-3714,513,-2369,-1550,5491,65,62,876
131459,2337552,2299880,2341736,2308968,1452,3555,673,-3273,818,-2860,-1192,5705,65,62,876
132460,2337876,2300152,2341933,2309165,1171,3599,683,-2891,1092,-2894,-746,5725,62,51,875
133462,2338164,2300420,2342130,2309362,1357,3595,658,-2409,1361,-2573,-293,6175,62,51,875
134462,2338420,2300660,2342327,2309559,1532,3752,621,-1938,1642,-2385,307,6053,57,52,876
135463,2338708,2300924,2342524,2309756,1293,3575,569,-1514,1854,-2114,793,5996,57,52,876
136464,2338948,2301184,2342721,2309953,1575,3574,509,-1304,1992,-1848,1293,5421,53,64,876
137465,2339204,2301428,2342918,2310150,1450,3654,448,-1266,2080,-1484,1731,5117,53,64,876
138479,2339460,2301640,2343115,2310347,1425,3800,374,-1230,2138,-1111,1827,5011,65,45,875
139480,2339704,2301832,2343312,2310544,1480,3800,267,-1297,2209,-976,1603,5002,65,45,875
140481,2339924,2302028,2343509,2310741,1620,3800,124,-1198,2317,-898,1242,5738,63,52,876
141482,2340148,2302204,2343706,2310938,1584,3800,-66,-1092,2416,-771,1073,5727,63,52,876
142483,2340356,2302400,2343903,2311135,1680,3800,-235,-952,2448,-822,1022,5786,44,51,875
143484,2340560,2302560,2344100,2311332,1702,3800,-403,-917,2419,-799,947,5752,44,51,875
144485,2340756,2302704,2344297,2311529,1754,3800,-536,-1034,2354,-535,858,5325,49,43,874
145486,2340984,2302808,2344494,2311726,1541,3800,-672,-1117,2282,-250,891,5549,49,43,874
146487,2341172,2302924,2344691,2311923,1795,3800,-797,-1228,2209,-6,715,5414,36,25,873
147488,2341348,2303036,2344888,2312120,1880,3800,-925,-1379,2138,228,482,5453,36,25,873
148489,2341552,2303080,2345085,2312317,1703,3800,-1026,-1519,2054,324,720,5611,36,20,871
149490,2341716,2303152,2345282,2312514,1968,3800,-1108,-1647,1928,362,1114,5755,36,20,871
150491,2341872,2303232,2345479,2312711,2037,3800,-1158,-1757,1745,489,1348,5776,32,14,871
151492,2342032,2303296,2345676,2312908,2029,3800,-1175,-1865,1625,519,1006,5798,32,14,871
152493,2342204,2303344,2345873,2313105,1965,3800,-1229,-1801,1619,622,676,6678,45,10,871
153494,2342364,2303384,2346070,2313302,2057,3800,-1322,-1595,1645,407,716,6902,45,10,871
154495,2342532,2303404,2346267,2313499,2021,3800,-1378,-1457,1649,1,740,6789,35,6,870
155496,2342672,2303440,2346464,2313696,2222,3800,-1375,-1343,1618,-200,892,6711,35,6,870
156497,2342808,2303468,2346661,2313893,2274,3800,-1307,-1301,1568,-195,1153,6629,31,2,869
157498,2342936,2303504,2346858,2314090,2355,3800,-1193,-1245,1509,-261,1219,6540,31,2,869
158499,2343076,2303540,2347055,2314287,2306,3800,-1030,-1307,1461,-247,930,6061,41,2,869
159500,2343228,2303576,2347252,2314484,2251,3800,-819,-1459,1421,-211,755,5814,41,2,869
160501,2343384,2303628,2347449,2314681,2245,3800,-576,-1611,1395,-319,548,5923,21,18,867
161502,2343512,2303656,2347646,2314878,2451,3800,-313,-1727,1396,-539,197,5852,21,18,867
162503,2343644,2303688,2347843,2315075,2456,3800,-34,-1848,1418,-882,-91,5793,24,7,868
163504,2343768,2303708,2348040,2315272,2539,3800,261,-1934,1457,-1175,-266,5769,24,7,868
164505,2343888,2303748,2348237,2315469,2598,3800,567,-1991,1499,-1240,-371,5801,30,0,868
165506,2344000,2303780,2348434,2315666,2686,3800,879,-2066,1530,-1171,-416,5614,30,0,868
166507,2344120,2303828,2348631,2315863,2671,3800,1194,-2188,1554,-952,-356,5360,21,3,867
167508,2344256,2303876,2348828,2316060,2599,3800,1505,-2273,1575,-713,-372,5338,21,3,867
168509,2344388,2303948,2349025,2316257,2653,3800,1798,-2301,1603,-624,-388,5275,17,13,867
169510,2344540,2304028,2349222,2316454,2549,3800,2067,-2273,1648,-727,-520,5389,17,13,867
170511,2344716,2304092,2349419,2316651,2409,3800,2309,-2138,1704,-899,-551,5491,17,19,865
171512,2344880,2304172,2349616,2316848,2499,3800,2542,-1934,1748,-1119,-322,5545,17,19,865
172513,2345024,2304316,2349813,2317045,2648,3800,2775,-1694,1787,-1160,-86,5491,40,10,865
173514,2345192,2304476,2350010,2317242,2512,3800,3006,-1504,1832,-956,159,5189,40,10,865
174515,2345348,2304680,2350207,2317439,2606,3800,3209,-1268,1904,-746,253,5142,26,12,865
175516,2345508,2304948,2350404,2317636,2598,3800,3382,-1088,1930,-592,513,4663,26,12,865
176524,2345684,2305232,2350634,2317866,2523,3800,3513,-989,1874,-638,-57,4281,29,27,868
177518,2345860,2305532,2350831,2318063,2533,3800,3612,-843,1753,-586,-850,4290,29,27,868
178519,2346056,2305864,2351028,2318260,2409,3800,3704,-689,1642,-338,-1444,4060,48,46,868
179520,2346300,2306172,2351225,2318457,2090,3800,3775,-469,1600,-93,-1973,3972,48,46,868
180521,2346488,2306556,2351422,2318654,2445,3800,3862,-234,1610,-133,-2150,3703,53,58,868
181522,2346660,2306924,2351619,2318851,2557,3800,3956,-199,1588,-275,-2152,2965,53,58,868
182523,2346852,2307268,2351816,2319048,2435,3800,4066,-291,1492,-71,-1393,2407,58,60,869
183524,2347032,2307636,2352013,2319245,2518,3800,4166,-446,1408,268,-1217,2204,58,60,869
184525,2347200,2308012,2352210,2319442,2607,3800,4267,-604,1438,723,-1604,1986,37,78,871
185526,2347444,2308404,2352407,2319639,2113,3800,4409,-731,1541,430,-2074,1981,37,78,871
186514,2347640,2308812,2352604,2319836,2414,3743,4501,-673,1653,-36,-2879,2641,35,70,870
187528,2347832,2309188,2352801,2320033,2441,3800,4493,-330,1755,-325,-3423,3218,35,70,870
188517,2348028,2309664,2352998,2320230,2418,3121,4468,10,1827,-354,-3172,2893,45,76,871
189518,2348244,2310084,2353195,2320427,2285,3375,4444,202,1742,-30,-2314,2255,45,76,871
190519,2348428,2310520,2353392,2320624,2492,3172,4373,195,1488,435,-2112,1735,47,85,873
191519,2348644,2311064,2353589,2320821,2285,2346,4252,144,1176,704,-2192,1657,47,85,873
192520,2348852,2311488,2353786,2321018,2331,2998,4059,217,879,382,-2640,1979,36,85,871
193521,2349008,2311976,2353983,2321215,2675,2472,3779,381,587,-169,-2639,2029,36,85,871
194522,2349176,2312436,2354180,2321412,2614,2533,3446,452,304,-265,-1891,1467,47,92,873
195523,2349316,2312872,2354377,2321609,2815,2580,3115,273,28,76,-1428,636,47,92,873
196524,2349484,2313320,2354574,2321806,2653,2397,2803,-145,-254,552,-1261,209,43,82,879
197526,2349656,2313856,2354771,2322003,2640,1699,2508,-731,-481,893,-1583,-220,43,82,879
198526,2349848,2314296,2354968,2322200,2519,2194,2209,-1302,-606,1110,-2401,-182,39,99,877
199527,2350012,2314776,2355165,2322397,2709,1821,1930,-1822,-667,1112,-2592,-281,39,99,877
200528,2350176,2315256,2355362,2322594,2725,1698,1753,-2473,-682,1111,-2186,-652,47,101,876
201529,2350336,2315704,2355559,2322791,2767,1789,1640,-3077,-666,1428,-1237,-385,47,101,876
202530,2350488,2316236,2355756,2322988,2838,1119,1529,-3658,-623,1762,-532,-247,50,93,880
203531,2350616,2316732,2355953,2323185,3019,1213,1408,-4216,-595,2282,424,-225,50,93,880
204532,2350756,2317152,2356150,2323382,2970,1591,1285,-4605,-584,2579,937,256,44,97,878
205534,2350912,2317712,2356347,2323579,2889,558,1143,-4780,-554,2632,963,1011,44,97,878
206535,2351056,2318212,2356544,2323776,2988,801,966,-4620,-477,2523,518,2145,20,104,879
207535,2351256,2318636,2356741,2323973,2638,1177,765,-4099,-306,2428,375,3188,20,104,879
208536,2351436,2319156,2356938,2324170,2771,436,564,-3296,-53,2414,233,3830,36,87,879
209537,2351620,2319660,2357135,2324367,2753,402,379,-2414,203,2318,439,4023,36,87,879
210538,2351776,2320048,2357332,2324564,2947,1044,225,-1542,394,2131,691,3995,47,80,882
211539,2351908,2320476,2357529,2324761,3127,694,126,-794,504,2326,777,3617,47,80,882
212540,2352040,2320868,2357726,2324958,3156,834,116,-166,592,2765,644,3256,32,96,882
213541,2352228,2321288,2357923,2325155,2811,562,154,417,683,3046,526,3239,32,96,882
214542,2352392,2321660,2358120,2325352,2977,785,228,915,741,3029,298,2813,20,71,882
215543,2352576,2322028,2358317,2325549,2859,736,342,1311,673,2814,380,2552,20,71,882
216544,2352768,2322388,2358514,2325746,2813,715,478,1666,467,2764,598,2448,26,69,879
217545,2352996,2322684,2358711,2325943,2575,1072,626,1862,184,3089,544,2003,26,69,879
218546,2353168,2322952,2358908,2326140,2937,1216,803,1965,-108,3442,400,1736,30,73,882
219547,2353352,2323364,2359105,2326337,2869,223,992,1973,-367,3700,401,1620,30,73,882
220548,2353532,2323676,2359302,2326534,2902,797,1152,1984,-605,4202,113,1744,45,57,882
221550,2353720,2324008,2359499,2326731,2857,614,1273,1974,-874,4337,212,1530,45,57,882
222551,2353908,2324204,2359696,2326928,2862,1465,1385,1898,-1212,4120,693,1273,26,69,882
223551,2354104,2324500,2359893,2327125,2813,797,1423,1893,-1714,3689,1255,1682,26,69,882
224552,2354328,2324820,2360090,2327322,2628,593,1286,2207,-2289,3450,626,3179,39,68,883
225553,2354508,2325132,2360287,2327519,2912,593,1003,2776,-2764,3985,187,3672,39,68,883
226554,2354720,2325388,2360484,2327716,2707,918,712,3275,-3189,4592,700,3011,46,51,882
227555,2354900,2325664,2360681,2327913,2915,759,497,3446,-3660,4631,1358,2165,46,51,882
228556,2355072,2325892,2360878,2328110,2977,1045,313,3470,-4227,4259,1893,2036,33,52,882
229558,2355292,2326176,2361075,2328307,2668,658,63,3610,-4749,3814,1236,2620,33,52,882
230558,2355464,2326432,2361272,2328504,2980,807,-237,3927,-5164,3368,871,3107,30,46,882
231559,2355704,2326612,2361469,2328701,2537,1290,-545,4424,-5490,3016,467,3454,30,46,882
232560,2355924,2326784,2361666,2328898,2653,1352,-810,4741,-5775,2821,422,2727,34,49,882
233562,2356112,2326940,2361863,2329095,2858,1470,-1001,4746,-6051,2861,657,1901,34,49,882
234562,2356300,2327072,2362060,2329292,2863,1649,-1131,4464,-6281,2901,603,1170,33,31,883
235563,2356472,2327280,2362257,2329489,2976,1169,-1226,4040,-6400,2780,149,908,33,31,883
236564,2356664,2327436,2362454,2329686,2854,1512,-1313,3553,-6416,2464,-219,861,46,41,880
237565,2356856,2327604,2362651,2329883,2857,1451,-1379,3102,-6355,1915,-588,888,46,41,880
238566,2357072,2327788,2362848,2330080,2700,1357,-1451,2754,-6253,1490,-802,1229,36,30,878
239567,2357228,2327936,2363045,2330277,3094,1604,-1536,2470,-6133,1033,-859,1474,36,30,878
240568,2357408,2328100,2363242,2330474,2952,1519,-1660,2352,-5991,857,-928,2284,32,27,880
241569,2357552,2328228,2363439,2330671,3202,1775,-1799,2380,-5809,1078,-645,2539,32,27,880
242570,2357708,2328348,2363636,2330868,3146,1859,-1931,2515,-5554,1222,-330,3139,45,41,879
243571,2357860,2328488,2363833,2331065,3191,1760,-2082,2734,-5206,1465,-209,3557,45,41,879
244572,2358004,2328648,2364030,2331262,3267,1651,-2540,3446,-4821,1515,-193,5794,37,40,877
245573,2358156,2328836,2364227,2331459,3237,1481,-2944,3825,-4450,1196,19,3423,37,40,877
246574,2358304,2329036,2364424,2331656,3285,1405,-3152,3668,-4173,1227,837,2707,43,37,875
247575,2358440,2329208,2364621,2331853,3388,1592,-3371,3209,-3900,1584,978,2760,43,37,875
248576,2358572,2329360,2364818,2332050,3442,1737,-3653,2765,-3552,2146,996,2879,39,41,875
249577,2358700,2329508,2365015,2332247,3499,1784,-3977,2380,-3221,2488,1675,2893,39,41,875
250578,2358828,2329664,2365212,2332444,3531,1752,-4274,1979,-2964,2752,2694,3000,18,38,876
251579,2359008,2329812,2365409,2332641,3214,1825,-4541,1557,-2703,2892,2732,3410,18,38,876
252580,2359140,2329940,2365606,2332838,3544,1980,-4732,1081,-2440,2931,2780,3389,33,38,875
253581,2359292,2330136,2365803,2333035,3440,1556,-4896,746,-2216,3118,2733,4055,33,38,875
254583,2359500,2330328,2366000,2333232,3086,1584,-5064,420,-2070,3067,2629,4264,41,40,874
255583,2359668,2330520,2366197,2333429,3351,1587,-5229,129,-2003,2824,2365,4822,41,40,874
256584,2359836,2330672,2366394,2333626,3364,1857,-5367,-1,-2013,2468,2117,5293,33,30,875
257585,2359996,2330820,2366591,2333823,3432,1904,-5475,-158,-2124,2172,1724,5352,33,30,875
258586,2360176,2330980,2366788,2334020,3315,1845,-5555,-146,-2292,2134,706,6122,34,25,874
259594,2360336,2331116,2367018,2334250,3473,2038,-5598,-122,-2511,2047,-76,6166,34,25,874
260588,2360544,2331312,2367215,2334447,3169,1664,-5581,-156,-2779,1995,-663,6170,25,27,875
261589,2360696,2331492,2367412,2334644,3540,1772,-5508,-195,-3045,2085,-1217,6338,25,27,875
262590,2360908,2331688,2367609,2334841,3160,1673,-5416,-256,-3270,2126,-1717,6478,45,29,874
263591,2361132,2331880,2367806,2335038,3074,1700,-4579,647,-3476,3271,-2512,15374,45,29,874
264592,2361296,2332064,2368003,2335235,3465,1757,-1379,6291,-3702,6315,-4882,32767,32,37,873
265593,2361504,2332248,2368200,2335432,3186,1764,1394,9880,-4074,3557,-1376,18071,32,37,873
266594,2361732,2332424,2368397,2335629,3049,1823,1841,8980,-4523,2975,546,1580,40,37,873
267595,2361948,2332596,2368594,2335826,3117,1860,1314,5574,-4828,3306,-648,-1251,40,37,873
268596,2362132,2332808,2368791,2336023,3324,1603,913,2358,-4929,3630,-1712,-918,33,37,877
269597,2362336,2333040,2368988,2336220,3197,1464,834,-130,-4942,3176,-1305,-1183,33,37,877
270599,2362580,2333204,2369185,2336417,2928,1904,811,-2306,-4983,2779,-1624,-764,51,39,875
271599,2362788,2333404,2369382,2336614,3149,1678,635,-4001,-5115,2274,-1699,621,51,39,875
272600,2363036,2333604,2369579,2336811,2878,1678,354,-5367,-5276,1433,-1967,1960,53,46,876
273601,2363304,2333804,2369776,2337008,2724,1678,55,-6092,-5409,1209,-2732,3787,53,46,876
274602,2363520,2334020,2369973,2337205,3041,1569,-230,-6495,-5464,854,-2935,4510,56,49,878
275603,2363768,2334272,2370170,2337402,2820,1321,-488,-6652,-5438,219,-2674,5635,56,49,878
276604,2364092,2334476,2370367,2337599,2290,1618,-591,-6598,-5388,-49,-2183,5746,51,40,877
277605,2364368,2334672,2370564,2337796,2556,1669,-492,-6615,-5337,-428,-1495,5850,51,40,877
278607,2364632,2334856,2370761,2337993,2604,1751,-256,-6503,-5255,-801,-964,6624,60,43,879
279607,2365020,2335080,2370958,2338190,1746,1489,28,-6135,-5097,-777,-875,6979,60,43,879
280608,2365380,2335244,2371155,2338387,1850,1880,226,-5464,-4863,-967,-827,7937,51,47,879
281609,2365800,2335428,2371352,2338584,1378,1760,385,-4566,-4574,-959,-638,8197,51,47,879
282610,2366196,2335664,2371549,2338781,1442,1419,652,-3790,-4330,-813,145,7546,67,38,880
283611,2366620,2335844,2371746,2338978,1168,1778,948,-2918,-4107,-798,306,8103,67,38,880
284612,2367036,2336052,2371943,2339175,1123,1598,1116,-1761,-3812,-1117,223,8753,64,43,886
285613,2367520,2336216,2372140,2339372,573,1888,1283,-757,-3465,-1330,1051,7412,64,43,886
286614,2367968,2336384,2372337,2339569,688,1876,1591,-87,-3072,-1417,1685,6575,69,52,886
287615,2368300,2336544,2372534,2339766,1355,1943,1988,372,-2618,-1368,1949,6295,69,52,886
288616,2368700,2336768,2372731,2339963,841,1533,2384,784,-2105,-1415,1589,5879,86,45,886
289617,2369072,2336956,2372928,2340160,940,1762,2758,1216,-1566,-1632,1515,5458,86,45,886
290618,2369364,2337128,2373125,2340357,1399,1873,3124,1561,-1121,-1608,2257,4891,76,32,887
291619,2369688,2337300,2373322,2340554,1144,1884,3433,1672,-813,-1332,2603,3931,76,32,887
292620,2369968,2337476,2373519,2340751,1383,1870,3676,1734,-540,-1273,2354,3738,78,49,884
293621,2370232,2337640,2373716,2340948,1455,1960,3918,1818,-251,-1523,1787,3702,78,49,884
294622,2370468,2337772,2373913,2341145,1613,2189,4135,2078,28,-1771,1333,3833,66,34,887
295623,2370728,2337916,2374110,2341342,1436,2138,4314,2386,263,-2122,1722,3626,66,34,887
296624,2370980,2338000,2374307,2341539,1463,2564,4433,2635,368,-2318,2214,3290,64,38,886
297625,2371208,2338120,2374504,2341736,1600,2373,4475,2796,232,-2550,2767,2879,64,38,886
298626,2371444,2338232,2374701,2341933,1533,2461,4499,2894,-110,-2624,3194,2520,39,34,883
299627,2371668,2338364,2374898,2342130,1597,2365,4440,2950,-534,-2467,2676,2410,39,34,883
300628,2371888,2338508,2375095,2342327,1613,2314,4306,2980,-888,-2196,1376,2046,56,23,883
301629,2372108,2338600,2375292,2342524,1603,2686,4166,2984,-1045,-1939,75,1867,56,23,883
302630,2372332,2338712,2375489,2342721,1567,2599,4007,3029,-985,-1692,-849,1758,52,30,880
303631,2372544,2338804,2375686,2342918,1635,2771,3779,3123,-753,-1631,-1280,1986,52,30,880
304632,2372788,2338892,2375883,2343115,1416,2844,3500,3283,-414,-1721,-1638,2183,39,16,880
305633,2372976,2339012,2376080,2343312,1771,2679,3161,3572,-74,-1792,-1542,2366,39,16,880
306634,2373172,2339120,2376277,2343509,1721,2794,2785,3901,208,-1960,-930,2187,52,22,879
307635,2373376,2339220,2376474,2343706,1669,2888,2367,4115,516,-2149,-1287,1700,52,22,879
308636,2373564,2339336,2376671,2343903,1773,2824,1931,4056,788,-2280,-1111,722,34,33,879
309638,2373744,2339460,2376868,2344100,1831,2808,1539,3780,937,-2364,-583,37,34,33,879
310638,2373960,2339568,2377065,2344297,1598,2947,1078,3517,1073,-2418,-1080,168,30,30,878
311640,2374168,2339680,2377262,2344494,1644,2960,449,3385,1245,-2635,-1100,450,30,30,878
312640,2374336,2339788,2377459,2344691,1908,3025,-207,3253,1326,-2883,481,183,27,27,877
313641,2374508,2339920,2377656,2344888,1894,2905,-763,3081,1217,-2835,2410,280,27,27,877
314642,2374664,2340040,2377853,2345085,2013,3015,-1286,2995,998,-2826,2608,688,39,17,876
315643,2374808,2340160,2378050,2345282,2111,3049,-1805,3073,777,-3031,2074,987,39,17,876
316644,2374960,2340300,2378247,2345479,2082,2950,-2292,3207,559,-3198,1979,1142,33,34,877
317645,2375120,2340444,2378444,2345676,2049,2950,-2749,3329,321,-3335,2050,1214,33,34,877
318646,2375236,2340568,2378641,2345873,2360,3108,-3144,3413,40,-3632,2117,916,30,34,876
319648,2375372,2340696,2378838,2346070,2263,3114,-3475,3340,-220,-3866,2086,571,30,34,876
320648,2375592,2340844,2379035,2346267,1729,3012,-3794,3196,-335,-3899,1711,638,28,37,875
321649,2375772,2340972,2379232,2346464,1986,3168,-4085,3048,-327,-3885,1854,778,28,37,875
322650,2375952,2341116,2379429,2346661,1994,3092,-4364,2899,-300,-3899,2140,789,26,28,876
323651,2376140,2341256,2379626,2346858,1949,3143,-4645,2708,-292,-3903,2185,839,26,28,876
324652,2376324,2341408,2379823,2347055,1980,3089,-4908,2504,-210,-3897,1076,885,46,29,873
325653,2376488,2341572,2380020,2347252,2121,3030,-5123,2159,-9,-3947,-242,681,46,29,873
326654,2376660,2341736,2380217,2347449,2083,3045,-5260,1766,206,-4170,-145,554,40,28,874
327655,2376800,2341868,2380414,2347646,2308,3275,-5319,1291,325,-4469,678,495,40,28,874
328656,2376952,2342036,2380611,2347843,2253,3064,-5372,861,361,-4553,646,791,40,27,875
329657,2377096,2342196,2380808,2348040,2328,3132,-5467,498,448,-4451,-165,1247,40,27,875
330658,2377224,2342352,2381005,2348237,2458,3176,-5595,278,650,-4362,-945,1732,45,35,875
331659,2377340,2342560,2381202,2348434,2570,2847,-5732,251,955,-4266,-1425,2552,45,35,875
332660,2377476,2342756,2381399,2348631,2472,2923,-5850,290,1222,-4534,-1239,2702,25,47,873
333661,2377588,2342952,2381596,2348828,2661,2925,-5894,208,1400,-4664,-1565,2695,25,47,873
334662,2377704,2343100,2381793,2349025,2671,3247,-5850,70,1478,-4676,-1625,2675,21,40,873
335663,2377840,2343296,2381990,2349222,2574,2949,-5817,-116,1478,-4631,-1495,2879,21,40,873
336664,2377960,2343468,2382187,2349419,2709,3112,-5795,-301,1448,-4462,-1722,3006,19,34,873
337665,2378084,2343648,2382384,2349616,2717,3070,-5728,-500,1455,-4223,-2331,3100,19,34,873
338666,2378204,2343888,2382581,2349813,2777,2677,-5569,-726,1498,-3907,-2728,3244,31,30,873
339667,2378304,2344104,2382778,2350010,2945,2820,-5340,-993,1546,-3417,-3010,3445,31,30,873
340668,2378408,2344328,2382975,2350207,2961,2759,-5119,-1199,1612,-2846,-3350,4064,25,46,874
341669,2378516,2344540,2383172,2350404,2977,2828,-4939,-1173,1731,-2173,-3849,4781,25,46,874
342679,2378612,2344704,2383402,2350634,3111,3158,-4724,-1210,1920,-1464,-4162,4591,17,39,872
343671,2378700,2344792,2383599,2350831,3210,3682,-4450,-1380,2099,-926,-4209,4438,17,39,872
344685,2378808,2344856,2383796,2351028,3125,3800,-4145,-1710,2214,-424,-4053,4236,16,39,872
345686,2378924,2344928,2383993,2351225,3112,3800,-3859,-2134,2236,172,-3721,4294,16,39,872
346687,2379016,2344964,2384190,2351422,3309,3800,-3397,-2385,2192,1147,-3575,6444,25,17,870
347688,2379124,2345016,2384387,2351619,3249,3800,-538,580,1889,6861,-3763,32767,25,17,870
348689,2379256,2345068,2384584,2351816,3129,3800,4473,6316,1238,9987,-3751,32767,37,7,862
349690,2379372,2345144,2384781,2352013,3266,3800,7085,8618,913,4597,-2951,12230,37,7,862
350691,2379484,2345208,2384978,2352210,3329,3800,6776,7334,1018,3581,-2429,2364,37,21,864
351692,2379628,2345264,2385175,2352407,3153,3800,5683,4956,1196,4112,-2412,1024,37,21,864
352693,2379748,2345332,2385372,2352604,3338,3800,4901,3047,1291,4246,-2399,1098,29,11,864
353694,2379856,2345460,2385569,2352801,3453,3800,4516,1675,1316,3923,-2862,959,29,11,864
354682,2380000,2345648,2385766,2352998,3252,3648,4169,357,1235,3838,-3174,704,40,9,860
355683,2380096,2345940,2385963,2353195,3598,2958,3725,-1012,1013,3658,-2889,742,40,9,860
356684,2380196,2346312,2386160,2353392,3616,2382,3141,-2320,649,3409,-2324,1289,22,38,864
357685,2380296,2346724,2386357,2353589,3660,2039,2520,-3473,97,3301,-1667,1531,22,38,864
358699,2380380,2347104,2386554,2353786,3800,2160,1967,-4470,-589,2886,-912,2032,18,59,860
359700,2380460,2347500,2386751,2353983,3800,1973,1493,-5080,-1269,2533,-612,3280,18,59,860
360688,2380564,2348012,2386948,2354180,3781,1111,1036,-5352,-1894,2237,-516,4067,13,80,867
361702,2380668,2348476,2387145,2354377,3800,1296,543,-5379,-2471,1803,-460,4986,13,80,867
362703,2380772,2348868,2387342,2354574,3800,1661,81,-5240,-2993,1497,-451,5212,34,101,871
363691,2380904,2349288,2387539,2354771,3720,1389,-235,-5233,-3480,1540,-114,4781,34,101,871
364705,2381028,2349748,2387736,2354968,3800,1024,-408,-5250,-3883,1524,305,4819,26,103,871
365706,2381144,2350176,2387933,2355165,3800,1124,-532,-5292,-4179,1504,218,4756,26,103,871
366707,2381264,2350624,2388130,2355362,3800,890,-648,-5329,-4366,1791,229,4656,41,88,873
367695,2381416,2351196,2388327,2355559,3722,-49,-762,-5245,-4389,2105,365,5081,41,88,873
368696,2381564,2351664,2388524,2355756,3769,483,-936,-4947,-4224,2389,203,5679,29,100,872
369697,2381732,2352144,2388721,2355953,3658,283,-1166,-4583,-3959,2507,400,5704,29,100,872
370698,2381928,2352556,2388918,2356150,3485,615,-1404,-4211,-3708,2400,1093,5919,22,98,873
371699,2382116,2353044,2389115,2356347,3540,13,-1649,-3782,-3533,2310,1920,5926,22,98,873
372700,2382280,2353432,2389312,2356544,3706,554,-1877,-3415,-3402,2202,2515,5511,32,99,877
373701,2382436,2353808,2389509,2356741,3776,551,-2054,-3109,-3271,2151,2933,5470,32,99,877
374715,2382564,2354192,2389706,2356938,3800,420,-2163,-2763,-3148,2343,3127,5589,33,90,878
375716,2382664,2354548,2389903,2357135,3800,525,-2204,-2343,-3057,2515,3603,5639,33,90,878
376717,2382768,2354940,2390100,2357332,3800,216,-2190,-1943,-2953,2643,3576,5446,25,83,879
377718,2382860,2355224,2390297,2357529,3800,852,-1981,-1431,-2712,2817,3214,4804,25,83,879
378719,2382928,2355564,2390494,2357726,3800,440,-1771,-1223,-2592,2858,3153,4519,27,68,876
379720,2382996,2355844,2390691,2357923,3800,779,-1550,-1057,-2469,3019,2953,4432,27,68,876
380721,2383068,2356172,2390888,2358120,3800,422,-1291,-858,-2356,3111,2615,4507,32,71,875
381722,2383116,2356412,2391085,2358317,3800,954,-1001,-524,-2279,3174,2226,4848,32,71,875
382723,2383192,2356648,2391282,2358514,3800,962,-673,-37,-2253,3233,1769,5078,27,63,874
383724,2383240,2356828,2391479,2358711,3800,1319,-321,507,-2271,3143,1187,5235,27,63,874
384725,2383296,2357036,2391676,2358908,3800,1140,35,1153,-2326,2912,488,5289,8,66,874
385726,2383336,2357280,2391873,2359105,3800,895,401,1754,-2431,2779,-355,4831,8,66,874
386727,2383388,2357532,2392070,2359302,3800,820,806,2283,-2546,2603,-1196,4577,3,66,873
387728,2383444,2357788,2392267,2359499,3800,770,1206,2765,-2645,2295,-1862,4473,3,66,873
388729,2383488,2357960,2392464,2359696,3800,1306,1578,3207,-2731,2099,-2653,4333,14,51,872
389730,2383532,2358140,2392661,2359893,3800,1264,1936,3663,-2792,1890,-3267,4092,14,51,872
390731,2383564,2358284,2392858,2360090,3800,1513,2276,4141,-2864,1482,-3347,4148,7,53,873
391732,2383596,2358404,2393055,2360287,3800,1697,2621,4467,-2970,1126,-3383,3564,7,53,873
392733,2383632,2358528,2393252,2360484,3800,1704,2926,4632,-3147,790,-3224,3180,0,40,873
393734,2383664,2358656,2393449,2360681,3800,1710,3101,4791,-3410,402,-3390,3285,0,40,873
394735,2383684,2358784,2393646,2360878,3800,1741,3176,4933,-3662,215,-3985,3360,0,34,872
395736,2383732,2358904,2393843,2361075,3800,1826,3234,5033,-3843,-10,-3999,3114,0,34,872
396737,2383792,2359024,2394040,2361272,3800,1859,3288,5053,-3937,-131,-3565,2857,-2,19,870
397738,2383852,2359172,2394237,2361469,3800,1706,3332,4954,-3979,-212,-2598,2395,-2,19,870
398739,2383920,2359316,2394434,2361666,3800,1755,3364,4602,-3959,-322,-2063,1616,1,37,870
399740,2383988,2359492,2394631,2361863,3800,1564,3419,4050,-3837,-433,-1790,1152,1,37,870
400741,2384068,2359624,2394828,2362060,3800,1869,3473,3377,-3621,-460,-1350,896,7,40,870
401742,2384140,2359768,2395025,2362257,3800,1817,3504,2649,-3303,-428,-861,766,7,40,870
402743,2384216,2359940,2395222,2362454,3800,1654,3496,1885,-2862,-386,-790,575,7,41,869
403744,2384280,2360116,2395419,2362651,3800,1639,3464,1142,-2330,-371,-556,601,7,41,869
404745,2384316,2360328,2395616,2362848,3800,1408,3396,425,-1798,-461,-95,807,7,35,871
405746,2384376,2360516,2395813,2363045,3800,1562,3285,-234,-1300,-531,387,1058,7,35,871
406747,2384436,2360676,2396010,2363242,3800,1754,3114,-762,-809,-563,611,1422,3,49,870
407748,2384492,2360860,2396207,2363439,3800,1610,2875,-1121,-307,-590,832,1810,3,49,870
408749,2384572,2361040,2396404,2363636,3800,1643,2577,-1363,195,-569,1202,2203,8,38,871
409750,2384636,2361224,2396601,2363833,3800,1624,2203,-1424,675,-557,1724,2811,8,38,871
410751,2384708,2361424,2396798,2364030,3800,1524,1730,-1267,1123,-516,2019,3360,19,38,871
411752,2384772,2361600,2396995,2364227,3800,1683,1206,-1042,1513,-513,2258,3464,19,38,871
412753,2384836,2361780,2397192,2364424,3800,1666,664,-866,1830,-459,2410,3438,12,43,870
413753,2384896,2361948,2397389,2364621,3800,1754,48,-613,2074,-337,2468,3922,12,43,870
414755,2384944,2362104,2397586,2364818,3800,1848,-734,-103,2228,-175,2691,4766,28,35,870
415756,2384980,2362296,2397783,2365015,3800,1625,-1489,389,2281,-256,2643,4304,28,35,870
416757,2385024,2362460,2397980,2365212,3800,1816,-2117,633,2181,-401,2375,3584,13,48,870
417758,2385072,2362644,2398177,2365409,3800,1697,-2589,603,1964,-240,1888,3031,13,48,870
418759,2385108,2362792,2398374,2365606,3800,1944,-2982,429,1660,-58,1246,2824,22,50,870
419760,2385124,2362956,2398571,2365803,3800,1859,-3345,205,1262,-74,791,2674,22,50,870
420761,2385148,2363112,2398768,2366000,3800,1928,-3597,-187,777,-101,512,1901,14,36,871
421762,2385160,2363284,2398965,2366197,3800,1839,-3754,-750,276,63,6,1656,14,36,871
422763,2385148,2363408,2399162,2366394,3800,2172,-3914,-1282,-143,257,-648,1948,-1,42,870
423764,2385168,2363532,2399359,2366591,3800,2204,-4070,-1730,-520,286,-810,2075,-1,42,870
424765,2385156,2363672,2399556,2366788,3800,2130,-4143,-2338,-959,122,-737,1475,-2,38,867
425772,2385156,2363844,2399786,2367018,3800,1956,-4085,-3183,-1475,-51,-638,997,-2,38,867
426767,2385148,2364020,2399983,2367215,3800,1941,-3915,-4070,-2022,-98,-658,1152,-7,25,869
427768,2385164,2364180,2400180,2367412,3800,2058,-3719,-4801,-2449,-40,-1257,1804,-7,25,869
428769,2385172,2364352,2400377,2367609,3800,1994,-3551,-5286,-2657,-43,-1792,2627,14,30,867
429770,2385172,2364492,2400574,2367806,3800,2220,-3410,-5448,-2706,-143,-1847,3443,14,30,867
430771,2385172,2364628,2400771,2368003,3800,2273,-3265,-5532,-2696,-352,-1665,3781,-4,43,869
431772,2385176,2364808,2400968,2368200,3800,2005,-3075,-5620,-2687,-672,-1255,3966,-4,43,869
432773,2385168,2364976,2401165,2368397,3800,2094,-2841,-5700,-2684,-967,-929,4228,1,36,868
433774,2385180,2365112,2401362,2368594,3800,2322,-2618,-5604,-2621,-1120,-936,4968,1,36,868
434776,2385184,2365252,2401559,2368791,3800,2322,-2422,-5303,-2454,-1259,-990,5687,6,44,867
435776,2385200,2365376,2401756,2368988,3800,2455,-2219,-4811,-2201,-1408,-907,6064,6,44,867
436777,2385200,2365512,2401953,2369185,3800,2408,-2002,-4232,-1916,-1549,-836,6578,-7,31,867
437778,2385208,2365616,2402150,2369382,3800,2648,-1780,-3515,-1637,-1608,-536,7420,-7,31,867
438779,2385232,2365748,2402347,2369579,3800,2503,-854,-1542,-1390,-798,1,18468,-5,31,867
439780,2385260,2365892,2402544,2369776,3800,2452,965,2288,-1246,250,845,30047,-5,31,867
440781,2385284,2366016,2402741,2369973,3800,2610,2154,4284,-1107,-951,694,9112,14,23,866
441782,2385316,2366144,2402938,2370170,3800,2616,2384,4222,-911,-934,791,4882,14,23,866
442783,2385396,2366284,2403135,2370367,3800,2567,2237,3385,-678,-427,542,4105,8,39,865
443784,2385464,2366428,2403332,2370564,3800,2566,2162,2871,-448,-251,235,4142,8,39,865
444785,2385564,2366572,2403529,2370761,3800,2590,2162,2518,-258,-267,185,3673,22,41,866
445786,2385680,2366684,2403726,2370958,3800,2828,2145,2115,-211,-25,533,3333,22,41,866
446787,2385784,2366796,2403923,2371155,3800,2866,2047,1593,-297,53,570,3077,20,24,865
447788,2385896,2366908,2404120,2371352,3800,2904,1899,1002,-413,6,70,3011,20,24,865
448789,2386028,2367016,2404317,2371549,3800,2970,1700,464,-557,128,-137,3115,16,23,867
449790,2386136,2367120,2404514,2371746,3800,3036,1472,-49,-730,94,-147,3224,16,23,867
450792,2386272,2367244,2404711,2371943,3800,2944,1225,-381,-918,63,-385,3590,37,18,865
451792,2386392,2367320,2404908,2372140,3800,3299,983,-698,-1109,128,-712,3555,37,18,865
452793,2386504,2367416,2405105,2372337,3800,3218,778,-947,-1264,16,-1057,3825,26,17,865
453795,2386632,2367524,2405302,2372534,3800,3183,627,-1132,-1376,-48,-1184,4036,26,17,865
454795,2386768,2367604,2405499,2372731,3800,3411,553,-1349,-1466,-49,-1168,3689,37,18,864
455796,2386896,2367704,2405696,2372928,3800,3329,516,-1496,-1484,-114,-1323,4045,37,18,864
456797,2387008,2367804,2405893,2373125,3800,3373,483,-1584,-1414,-134,-1529,4145,32,32,862
457798,2387128,2367900,2406090,2373322,3800,3443,461,-1718,-1296,-13,-1234,4049,32,32,862
458799,2387276,2367980,2406287,2373519,3800,3596,476,-1788,-1143,-113,-699,4289,39,34,862
459800,2387376,2368060,2406484,2373716,3800,3648,518,-1818,-994,-76,-83,4328,39,34,862
460801,2387504,2368172,2406681,2373913,3800,3486,560,-1761,-881,-4,522,4386,19,23,863
461802,2387624,2368264,2406878,2374110,3800,3660,650,-1741,-782,-206,1172,4151,19,23,863
462803,2387744,2368356,2407075,2374307,3800,3707,774,-1720,-696,-280,1272,4359,34,31,861
463804,2387856,2368460,2407272,2374504,3800,3674,905,-1590,-601,-357,1216,4555,34,31,861
464805,2387972,2368556,2407469,2374701,3800,3769,1045,-1460,-498,-735,1371,4592,18,19,861
465806,2388064,2368660,2407666,2374898,3800,3761,1191,-1305,-445,-884,1491,4566,18,19,861
466820,2388160,2368744,2407863,2375095,3800,3800,1315,-1154,-416,-1027,1511,4557,31,25,860
467808,2388280,2368876,2408060,2375292,3800,3667,1397,-916,-348,-1248,1520,4730,31,25,860
468822,2388344,2368980,2408257,2375489,3800,3800,1435,-716,-272,-1335,1450,4491,23,25,859
469823,2388464,2369096,2408454,2375686,3800,3800,1454,-599,-226,-1364,1604,4196,23,25,859
470824,2388540,2369184,2408651,2375883,3800,3800,1438,-552,-168,-1256,1443,4098,16,34,860
471825,2388624,2369284,2408848,2376080,3800,3800,1388,-568,-101,-1087,1112,3703,16,34,860
472826,2388684,2369356,2409045,2376277,3800,3800,1328,-678,-47,-1124,845,3407,28,26,860
473827,2388748,2369452,2409242,2376474,3800,3800,1266,-806,-18,-1064,805,3113,28,26,860
474828,2388824,2369552,2409439,2376671,3800,3800,1171,-1029,-20,-757,916,2954,12,17,856
475829,2388892,2369652,2409636,2376868,3800,3800,1054,-1264,-9,-441,1072,2732,12,17,856
476830,2388960,2369748,2409833,2377065,3800,3800,933,-1615,18,-75,1313,2477,14,28,858
477831,2388992,2369832,2410030,2377262,3800,3800,771,-1957,32,306,1531,2586,14,28,858
478832,2389056,2369956,2410227,2377459,3800,3800,575,-2252,30,483,1428,2698,26,23,858
479833,2389096,2370056,2410424,2377656,3800,3800,359,-2458,10,771,1483,2859,26,23,858
480834,2389160,2370164,2410621,2377853,3800,3800,124,-2522,-17,1156,1434,3396,3,19,857
481835,2389196,2370268,2410818,2378050,3800,3800,-118,-2441,-32,1386,1476,3777,3,19,857
482836,2389256,2370356,2411015,2378247,3800,3800,-361,-2292,-73,1596,1540,3903,24,32,858
483837,2389308,2370488,2411212,2378444,3800,3800,-570,-2229,-156,1697,1470,3604,24,32,858
484838,2389356,2370608,2411409,2378641,3800,3800,-732,-2232,-252,1722,1361,3493,25,22,859
485839,2389412,2370708,2411606,2378838,3800,3800,-870,-2228,-316,1783,928,3565,25,22,859
486840,2389472,2370804,2411803,2379035,3800,3800,-976,-2224,-340,1793,627,3328,23,28,859
487841,2389560,2370896,2412000,2379232,3800,3800,-1029,-2275,-351,1615,376,3238,23,28,859
488842,2389680,2370976,2412197,2379429,3800,3800,-1044,-2298,-362,1552,30,3287,4,30,858
489843,2389792,2371032,2412394,2379626,3800,3800,-1018,-2365,-365,1462,-183,3296,4,30,858
490844,2389948,2371100,2412591,2379823,3800,3800,-953,-2332,-349,1351,-323,3496,19,26,858
491845,2390080,2371160,2412788,2380020,3800,3800,-849,-2276,-330,1196,-548,3529,19,26,858
492846,2390244,2371236,2412985,2380217,3800,3800,-708,-2148,-325,1033,-606,3635,37,24,859
493847,2390408,2371296,2413182,2380414,3800,3800,-546,-1952,-336,897,-502,3907,37,24,859
494848,2390568,2371348,2413379,2380611,3800,3800,-385,-1668,-368,757,-406,4178,45,19,859
495849,2390728,2371420,2413576,2380808,3800,3800,-238,-1296,-405,680,-370,4536,45,19,859
496850,2390864,2371464,2413773,2381005,3800,3800,-96,-884,-430,589,-396,4515,32,10,859
497851,2391016,2371532,2413970,2381202,3800,3800,55,-512,-455,526,-477,4314,32,10,859
498852,2391136,2371596,2414167,2381399,3800,3800,237,-196,-458,364,-617,4049,27,19,859
499853,2391248,2371660,2414364,2381596,3800,3800,454,19,-432,253,-844,3736,27,19,859
500854,2391364,2371736,2414561,2381793,3800,3800,666,175,-387,197,-990,3581,28,20,858
501855,2391460,2371792,2414758,2381990,3800,3800,866,237,-338,119,-947,3286,28,20,858
502856,2391568,2371888,2414955,2382187,3800,3800,1025,234,-309,118,-748,3141,20,23,858
503857,2391672,2371956,2415152,2382384,3800,3800,1154,180,-292,184,-596,2895,20,23,858
504858,2391784,2372028,2415349,2382581,3800,3800,1262,108,-259,279,-535,2888,26,12,857
505859,2391872,2372076,2415546,2382778,3800,3800,1345,75,-223,358,-430,2775,26,12,857
506860,2391976,2372132,2415743,2382975,3800,3800,1394,-18,-223,372,-261,2696,17,10,859
507861,2392088,2372224,2415940,2383172,3800,3800,1394,-4,-264,434,-93,3123,17,10,859
508869,2392168,2372288,2416170,2383402,3800,3800,1328,38,-313,603,-42,3290,13,8,858
509863,2392272,2372372,2416367,2383599,3800,3800,1217,141,-392,828,505,3339,13,8,858
510864,2392388,2372444,2416564,2383796,3800,3800,1083,224,-519,1031,990,3300,27,10,859
511865,2392492,2372504,2416761,2383993,3800,3800,914,314,-699,1128,1253,3258,27,10,859
512866,2392604,2372576,2416958,2384190,3800,3800,717,338,-911,1198,1456,3093,35,11,857
513867,2392732,2372660,2417155,2384387,3800,3800,518,293,-1101,1330,1459,2891,35,11,857
514868,2392848,2372712,2417352,2384584,3800,3800,324,171,-1241,1517,1375,2776,26,11,859
515869,2392984,2372796,2417549,2384781,3800,3800,139,24,-1345,1513,1270,2711,26,11,859
516870,2393140,2372856,2417746,2384978,3800,3800,-27,-191,-1438,1427,1160,2546,19,26,858
517871,2393252,2372932,2417943,2385175,3800,3800,-188,-373,-1510,1422,982,2663,19,26,858
518872,2393400,2373016,2418140,2385372,3800,3800,-351,-497,-1529,1343,851,2826,18,27,859
519873,2393560,2373072,2418337,2385569,3800,3800,-509,-584,-1505,1255,722,2971,18,27,859
520874,2393720,2373136,2418534,2385766,3800,3800,-654,-643,-1490,1106,693,3091,19,26,859
521875,2393892,2373200,2418731,2385963,3800,3800,-790,-703,-1493,887,618,3167,19,26,859
522876,2394060,2373268,2418928,2386160,3800,3800,-905,-729,-1502,743,485,3321,19,23,858
523877,2394260,2373340,2419125,2386357,3800,3800,-997,-739,-1513,585,418,3428,19,23,858
524878,2394464,2373416,2419322,2386554,3800,3800,-1060,-725,-1514,458,403,3435,48,25,858
525879,2394640,2373480,2419519,2386751,3800,3800,-1112,-696,-1493,409,348,3616,48,25,858
526880,2394868,2373548,2419716,2386948,3800,3800,-1149,-599,-1464,261,339,3773,31,11,859
527881,2395056,2373648,2419913,2387145,3800,3800,-1169,-562,-1420,92,213,3809,31,11,859
528882,2395268,2373736,2420110,2387342,3800,3800,-1164,-549,-1374,62,200,3708,29,13,859
529883,2395508,2373828,2420307,2387539,3800,3800,-1145,-539,-1329,-41,16,3828,29,13,859
530884,2395768,2373944,2420504,2387736,3800,3800,-1107,-489,-1268,-142,-45,3817,32,31,859
531885,2396032,2374112,2420701,2387933,3800,3800,-1055,-504,-1225,-259,250,3721,32,31,859
532886,2396340,2374324,2420898,2388130,3800,3800,-984,-540,-1223,-338,720,3698,49,16,860
533887,2396652,2374584,2421095,2388327,3800,3800,-905,-619,-1273,-335,967,3665,49,16,860
534888,2396964,2374960,2421292,2388524,3800,3800,-851,-715,-1338,-377,112,3752,47,40,859
535889,2397300,2375384,2421489,2388721,3800,3800,-799,-795,-1401,-570,-774,3847,47,40,859
536890,2397620,2375792,2421686,2388918,3800,3800,-729,-949,-1508,-380,-1108,3314,48,49,861
537891,2397960,2376252,2421883,2389115,3800,3800,-589,-1208,-1577,110,-1625,3135,48,49,861
538892,2398328,2376792,2422080,2389312,3800,3800,-373,-1482,-1461,808,-2191,3190,72,85,863
539880,2398676,2377356,2422277,2389509,3800,3629,-144,-1828,-1196,1356,-2190,2751,72,85,863
540881,2399020,2378016,2422474,2389706,3800,2829,110,-2379,-928,1459,-1490,2237,67,100,864
541882,2399436,2378580,2422671,2389903,3800,3269,366,-2909,-729,1469,-1101,2545,67,100,864
542883,2399824,2379232,2422868,2390100,3800,2521,629,-3377,-572,1696,-1241,2752,81,121,865
543884,2400196,2379864,2423065,2390297,3800,2457,904,-3659,-420,1870,-1070,3358,81,121,865
544885,2400596,2380576,2423262,2390494,3800,1733,1171,-3675,-231,2059,-1038,4161,86,130,865
545886,2401044,2381280,2423459,2390691,3800,1562,1408,-3612,-97,2153,-750,4260,86,130,865
546887,2401468,2382004,2423656,2390888,3800,1208,1576,-3448,-128,1954,70,4722,75,134,867
547888,2401904,2382684,2423853,2391085,3800,1271,1655,-3242,-364,2236,1303,4731,75,134,867
548889,2402424,2383424,2424050,2391282,3800,660,1691,-3004,-645,2880,1212,4765,73,137,872
549890,2402908,2384088,2424247,2391479,3800,931,1706,-2637,-867,3320,1014,5198,73,137,872
550891,2403428,2384796,2424444,2391676,3800,433,1710,-2226,-1044,3685,984,5401,85,136,875
551892,2403984,2385476,2424641,2391873,3800,397,1703,-1810,-1204,3963,885,5128,85,136,875
552893,2404584,2386108,2424838,2392070,3800,507,1741,-1477,-1335,3898,1024,4954,99,144,876
553894,2405164,2386708,2425035,2392267,3800,531,1793,-1161,-1396,3764,752,5114,99,144,876
554895,2405808,2387300,2425232,2392464,3800,409,1884,-931,-1392,3504,596,4682,111,123,878
555896,2406452,2387860,2425429,2392661,3800,450,1983,-831,-1319,3273,216,4493,111,123,878
556897,2407100,2388380,2425626,2392858,3800,559,2071,-659,-1149,3197,-415,4489,132,116,879
557898,2407784,2388892,2425823,2393055,3800,471,2151,-559,-906,3040,-701,4222,132,116,879
558899,2408460,2389396,2426020,2393252,3800,387,2252,-529,-653,2830,-893,4007,130,111,879
559900,2409160,2389796,2426217,2393449,3800,949,2327,-502,-414,2695,-1504,4120,130,111,879
560901,2409892,2390276,2426414,2393646,3800,325,2389,-419,-195,2690,-1400,3968,143,116,880
561902,2410504,2390716,2426611,2393843,3800,469,2447,-393,2,2499,-1418,3698,143,116,880
562903,2411144,2391148,2426808,2394040,3800,416,2558,-536,129,2658,-1538,3120,151,98,881
563904,2411784,2391576,2427005,2394237,3800,340,2614,-631,215,3037,-2176,3505,151,98,881
564905,2412388,2391988,2427202,2394434,3800,346,2660,-617,285,3530,-2665,3143,128,93,879
565907,2412968,2392368,2427399,2394631,3800,466,2718,-923,305,3760,-2654,2094,128,93,879
566907,2413584,2392640,2427596,2394828,3800,1109,2780,-1035,305,4082,-2504,2908,127,78,879
567909,2414168,2392988,2427793,2395025,3800,568,2759,-1003,337,4294,-2314,3229,127,78,879
568909,2414692,2393256,2427990,2395222,3800,1037,2701,-504,365,4487,-2095,3970,131,67,879
569910,2415188,2393524,2428187,2395419,3800,1006,2583,0,304,3778,-2168,4059,131,67,879
570911,2415720,2393732,2428384,2395616,3800,1376,2377,992,183,3344,-2296,5522,111,61,880
571912,2416208,2393916,2428581,2395813,3800,1533,2091,2099,-16,2373,-2617,5767,111,61,880
572913,2416652,2394132,2428778,2396010,3800,1325,1651,3802,-273,1437,-2704,7607,97,63,879
573914,2417160,2394332,2428975,2396207,3800,1423,1205,5260,-644,691,-1196,5787,97,63,879
574915,2417624,2394516,2429172,2396404,3800,1530,789,6513,-1191,-279,-628,5862,96,52,877
575916,2418116,2394648,2429369,2396601,3800,1884,394,7749,-1917,-999,965,5235,96,52,877
576917,2418616,2394772,2429566,2396798,3800,1967,24,8499,-2788,-1968,1412,3952,91,33,875
577906,2419156,2394896,2429763,2396995,3620,1999,-444,9185,-3728,-2594,1310,4092,91,33,875
578919,2419576,2395012,2429960,2397192,3800,2085,-894,9836,-4654,-3840,779,3560,97,25,873
579907,2420196,2395124,2430157,2397389,2840,2148,-1405,10432,-5350,-4246,-1699,3863,97,25,873
580908,2420692,2395248,2430354,2397586,3485,2105,-1950,11043,-5696,-3600,-3203,3693,108,37,873
581910,2421160,2395356,2430551,2397783,3542,2245,-2339,11304,-5669,-2873,-3162,2349,108,37,873
582911,2421708,2395460,2430748,2397980,2890,2311,-2717,11170,-5437,-2365,-2797,1881,104,39,874
583912,2422244,2395552,2430945,2398177,2818,2433,-3003,10749,-5206,-3114,-1766,586,104,39,874
584912,2422772,2395716,2431142,2398374,2725,1998,-3579,10329,-4766,-3093,-3007,1895,98,23,877
585914,2423408,2395844,2431339,2398571,1858,2254,-4648,10583,-4110,-3147,-4502,3435,98,23,877
586914,2423892,2395972,2431536,2398768,2684,2284,-5354,10018,-3461,-4003,-4452,-636,93,27,873
587916,2424420,2396112,2431733,2398965,2264,2235,-5651,8743,-2889,-3591,-3312,-712,93,27,873
588916,2425184,2396196,2431930,2399162,542,2635,-5721,7196,-2428,-4079,-2514,-556,114,24,876
589918,2425596,2396300,2432127,2399359,2649,2552,-5695,5713,-1978,-4607,-2225,-219,114,24,876
590919,2426292,2396400,2432324,2399556,655,2619,-5826,4760,-1517,-4549,-2087,1922,105,20,879
591926,2426880,2396504,2432554,2399786,1174,2651,-5945,4194,-1130,-5012,-1083,2465,105,20,879
592920,2427480,2396628,2432751,2399983,923,2559,-6114,3849,-844,-5286,-534,4078,101,20,879
593921,2428064,2396756,2432948,2400180,854,2564,-6233,3582,-691,-5476,-37,4351,101,20,879
594922,2428548,2396960,2433145,2400377,1354,2087,-6127,3082,-672,-6279,3,3885,106,33,876
595923,2429200,2397156,2433342,2400574,105,2138,-5752,2464,-723,-6338,189,3982,106,33,876
596924,2429772,2397376,2433539,2400771,441,1978,-5269,1919,-836,-6083,405,4611,113,39,880
597925,2430292,2397620,2433736,2400968,625,1809,-4886,1864,-842,-4911,110,6566,113,39,880
598927,2430880,2397816,2433933,2401165,28,2109,-4521,1796,-726,-3726,-1077,6137,104,54,882
599928,2431400,2398012,2434130,2401362,312,2111,-4076,1372,-584,-2581,-1010,5424,104,54,882
600928,2431924,2398264,2434327,2401559,144,1737,-1503,310,-349,-2051,-876,21467,112,59,884
601930,2432476,2398480,2434524,2401756,-186,1954,3788,336,-208,605,-338,32767,112,59,884
602930,2432868,2398684,2434721,2401953,728,2027,6377,768,-30,-517,-65,9994,86,55,886
603931,2433336,2398892,2434918,2402150,135,1998,5868,640,226,-1386,80,6766,86,55,886
604932,2433680,2399116,2435115,2402347,845,1886,4784,640,459,-793,-273,6040,86,51,885
605933,2434060,2399320,2435312,2402544,540,2009,4182,-125,616,-108,397,4366,86,51,885
606935,2434408,2399572,2435509,2402741,673,1685,4022,-622,744,853,281,4797,68,44,886
607935,2434772,2399816,2435706,2402938,501,1715,3948,-1526,760,1958,1494,2840,68,44,886
608936,2435080,2400048,2435903,2403135,802,1776,3805,-2790,762,2755,1899,2304,60,50,886
609937,2435332,2400304,2436100,2403332,1128,1600,3644,-4219,762,3034,2027,1632,60,50,886
610938,2435592,2400504,2436297,2403529,1050,1950,3585,-5605,693,2808,1700,1505,60,49,885
611939,2435844,2400720,2436494,2403726,1076,1841,3541,-6746,665,2355,1141,2374,60,49,885
612940,2436080,2400908,2436691,2403923,1159,2021,3503,-7518,732,1960,767,3004,55,52,886
613941,2436264,2401116,2436888,2404120,1490,1892,3415,-7975,838,1905,907,3669,55,52,886
614942,2436492,2401376,2437085,2404317,1202,1540,3286,-8157,933,1807,976,4245,58,47,886
615943,2436684,2401624,2437282,2404514,1429,1594,3093,-8076,1010,1481,875,4711,58,47,886
616944,2436896,2401860,2437479,2404711,1298,1651,2865,-7916,1038,1080,1034,4721,34,46,885
617945,2437100,2402068,2437676,2404908,1345,1823,2677,-7737,1002,639,1293,4427,34,46,885
618946,2437280,2402268,2437873,2405105,1502,1871,2591,-7592,920,169,1341,3905,50,60,883
619947,2437464,2402468,2438070,2405302,1483,1871,2525,-7448,890,-364,782,3983,50,60,883
620948,2437644,2402692,2438267,2405499,1515,1709,2469,-7206,909,-801,1003,3922,30,47,885
621949,2437836,2402892,2438464,2405696,1442,1859,2444,-6838,937,-1155,1479,3895,30,47,885
622951,2438024,2403096,2438661,2405893,1471,1831,2423,-6368,945,-1648,1791,3893,33,52,882
623951,2438228,2403308,2438858,2406090,1369,1775,2429,-5910,933,-2131,2045,3643,33,52,882
624952,2438388,2403464,2439055,2406287,1661,2143,2473,-5463,881,-2390,2669,3300,51,37,883
625953,2438568,2403652,2439252,2406484,1543,1948,2512,-4967,813,-2604,2386,3121,51,37,883
626954,2438736,2403796,2439449,2406681,1631,2246,2560,-4545,814,-2789,1813,2596,42,36,883
627955,2438888,2403964,2439646,2406878,1751,2110,2633,-4266,917,-2750,1284,1949,42,36,883
628956,2439040,2404108,2439843,2407075,1770,2284,2691,-4166,1121,-2518,915,1375,45,43,884
629957,2439216,2404252,2440040,2407272,1630,2308,2713,-4119,1419,-2205,595,943,45,43,884
630959,2439356,2404368,2440237,2407469,1881,2519,2709,-4186,1768,-1968,497,379,27,26,882
631960,2439540,2404476,2440434,2407666,1611,2608,2670,-4317,2141,-1727,648,135,27,26,882
632961,2439700,2404592,2440631,2407863,1778,2595,2536,-4409,2532,-1297,854,255,23,37,879
633962,2439836,2404724,2440828,2408060,1954,2525,2335,-4437,2906,-744,1247,124,23,37,879
634963,2440004,2404820,2441025,2408257,1767,2794,2060,-4398,3222,-340,2025,347,24,20,879
635963,2440148,2404912,2441222,2408454,1940,2866,1731,-4286,3455,-44,2785,557,24,20,879
636964,2440288,2405036,2441419,2408651,1992,2699,1451,-4224,3604,297,3125,172,40,21,878
637965,2440420,2405136,2441616,2408848,2070,2892,1210,-4165,3676,737,3064,52,40,21,878
638966,2440564,2405272,2441813,2409045,2018,2695,937,-4024,3681,1083,2765,345,39,26,877
639967,2440652,2405388,2442010,2409242,2416,2856,601,-3841,3585,1329,2041,450,39,26,877
640968,2440756,2405520,2442207,2409439,2358,2785,239,-3602,3373,1503,1597,560,25,17,875
641969,2440864,2405656,2442404,2409636,2372,2788,-136,-3334,3104,1776,1179,832,25,17,875
642970,2441016,2405804,2442601,2409833,2117,2735,-495,-3034,2861,2067,665,836,20,35,875
643971,2441168,2405948,2442798,2410030,2137,2784,-829,-2709,2663,2298,567,1001,20,35,875
644972,2441324,2406096,2442995,2410227,2131,2781,-1133,-2388,2482,2470,434,1088,42,39,873
645974,2441468,2406264,2443192,2410424,2229,2670,-1398,-2146,2283,2610,172,961,42,39,873
646974,2441588,2406416,2443389,2410621,2413,2790,-1627,-1963,2064,2799,76,904,45,37,874
647975,2441704,2406568,2443586,2410818,2475,2811,-1827,-1810,1849,3285,-104,1109,45,37,874
648976,2441848,2406732,2443783,2411015,2323,2752,-2031,-1641,1662,3859,-279,1299,28,25,875
649977,2441980,2406928,2443980,2411212,2426,2552,-2242,-1429,1499,4302,-460,1560,28,25,875
650978,2442096,2407136,2444177,2411409,2563,2473,-2462,-1156,1328,4665,-626,1966,22,33,875
651979,2442224,2407320,2444374,2411606,2518,2630,-2699,-854,1113,4780,-779,2381,22,33,875
652980,2442344,2407524,2444571,2411803,2603,2503,-2976,-421,876,4931,-1280,3102,26,44,873
653981,2442464,2407704,2444768,2412000,2637,2661,-3301,184,641,5096,-1985,3809,26,44,873
654982,2442608,2407916,2444965,2412197,2511,2455,-3658,954,402,5208,-2446,4395,22,49,874
655983,2442724,2408176,2445162,2412394,2722,2128,-3993,1740,157,5351,-2675,4596,22,49,874
656984,2442852,2408424,2445359,2412591,2677,2182,-4287,2465,-116,5420,-2688,4593,28,39,873
657985,2442952,2408620,2445556,2412788,2896,2508,-4548,3091,-448,5401,-2617,4518,28,39,873
658986,2443084,2408852,2445753,2412985,2724,2269,-4766,3650,-834,5306,-2603,4275,29,37,874
659988,2443200,2409032,2445950,2413182,2861,2601,-4935,4111,-1236,5134,-2825,4110,20,38,875
660988,2443316,2409276,2446147,2413379,2897,2182,-5060,4485,-1639,4865,-2978,4074,20,38,875
661989,2443480,2409512,2446344,2413576,2612,2215,-5138,4823,-2054,4539,-2455,4093,18,50,872
662990,2443616,2409768,2446541,2413773,2815,2066,-5181,5108,-2504,4196,-1588,3979,18,50,872
663992,2443748,2409980,2446738,2413970,2868,2335,-5183,5302,-2970,3841,-1406,3715,24,49,872
664992,2443900,2410212,2446935,2414167,2764,2195,-5131,5341,-3401,3484,-1406,3433,24,49,872
665994,2444052,2410344,2447132,2414364,2784,2849,-5016,5272,-3777,3204,-1329,3167,36,56,875
666994,2444184,2410444,2447329,2414561,2939,3093,-4847,5138,-4080,2989,-1326,3159,36,56,875
667996,2444328,2410504,2447526,2414758,2887,3404,-4638,5000,-4297,2799,-1369,3066,39,45,874
668996,2444476,2410576,2447723,2414955,2884,3384,-4397,4808,-4427,2552,-1405,3034,39,45,874
669997,2444608,2410672,2447920,2415152,3014,3279,-4157,4669,-4465,2185,-1596,3430,30,29,871
670998,2444760,2410792,2448117,2415349,2909,3164,-3896,4553,-4418,1969,-1543,3317,30,29,871
671999,2444936,2410924,2448314,2415546,2769,3119,-3626,4360,-4324,1753,-1043,3058,43,23,867
673000,2445060,2411088,2448511,2415743,3127,2934,-3351,4059,-4226,1416,-309,2865,43,23,867
674001,2445220,2411288,2448708,2415940,2918,2709,-3022,3778,-4097,846,168,2822,43,28,867
675011,2445368,2411556,2448938,2416170,3030,2268,-2694,3699,-3910,-136,-198,3792,43,28,867
676003,2445532,2411916,2449135,2416367,2946,1623,-2420,3885,-3705,-1404,-469,4732,47,48,869
677004,2445700,2412316,2449332,2416564,2934,1283,-2189,4467,-3552,-2638,-846,5884,47,48,869
678006,2445856,2412692,2449529,2416761,3028,1356,-1957,5266,-3477,-3650,-1003,6321,50,63,870
679006,2446016,2412944,2449726,2416958,3020,2107,-1763,6029,-3492,-4773,-999,6370,50,63,870
680008,2446124,2413324,2449923,2417155,3384,1228,-1599,6784,-3521,-5677,-1456,6827,47,71,877
681008,2446280,2413768,2450120,2417352,3103,720,-1461,7553,-3516,-6381,-2002,6923,47,71,877
682009,2446396,2414164,2450317,2417549,3390,933,-1312,8308,-3400,-6811,-2774,7163,44,86,877
683010,2446508,2414540,2450514,2417746,3453,980,-1083,9107,-3181,-7095,-3235,7827,44,86,877
684011,2446636,2414912,2450711,2417943,3383,928,-252,10750,-2789,-7796,-4550,17584,36,83,875
685012,2446740,2415276,2450908,2418140,3575,906,1137,12922,-2335,-7050,-4377,20342,36,83,875
686013,2446840,2415628,2451105,2418337,3644,914,2040,13683,-2097,-5371,-2731,8187,36,72,876
687014,2446968,2416052,2451302,2418534,3500,364,2196,12775,-2057,-4822,-1791,2735,36,72,876
688015,2447084,2416492,2451499,2418731,3611,158,2065,10611,-1965,-5526,-961,281,17,88,874
689016,2447220,2416936,2451696,2418928,3513,25,2104,6527,-1474,-8178,25,-2316,17,88,874
690017,2447356,2417308,2451893,2419125,3541,398,2252,1786,-586,-8514,790,-1215,21,77,874
691018,2447516,2417648,2452090,2419322,3409,536,2222,-1679,292,-6295,563,1216,21,77,874
692019,2447648,2417928,2452287,2419519,3613,875,1877,-2794,645,-2717,-127,3663,43,67,877
693020,2447780,2418252,2452484,2419716,3643,544,1275,-2710,342,-393,-312,4027,43,67,877
694034,2447892,2418608,2452681,2419913,3800,275,727,-2827,-126,15,749,4277,24,74,877
695035,2448004,2418952,2452878,2420110,3800,285,292,-2928,-523,608,1212,5265,24,74,877
696036,2448108,2419220,2453075,2420307,3800,729,-39,-3241,-986,1773,1142,4059,39,59,875
697037,2448196,2419480,2453272,2420504,3800,752,-279,-3569,-1312,2154,1243,5077,39,59,875
698038,2448280,2419764,2453469,2420701,3800,563,-728,-2883,-1336,3636,1375,8039,32,62,874
699039,2448380,2420040,2453666,2420898,3800,580,-1327,-2057,-1356,4771,1816,7054,32,62,874
700040,2448520,2420312,2453863,2421095,3800,572,-1665,-1601,-1464,4530,1996,6113,12,54,873
701041,2448656,2420376,2454060,2421292,3800,1930,-1750,-1484,-1544,4731,1378,5669,12,54,873
702042,2448812,2420588,2454257,2421489,3800,998,-1748,-1648,-1654,5312,740,4796,32,46,874
703031,2449020,2420844,2454454,2421686,3498,698,-1748,-1762,-1746,4969,216,5248,32,46,874
704031,2449212,2421052,2454651,2421883,3602,993,-1711,-1688,-1779,4380,-780,5326,36,41,875
705033,2449412,2421220,2454848,2422080,3551,1256,-1660,-1558,-1808,3922,-2015,5412,36,41,875
706033,2449628,2421372,2455045,2422277,3444,1376,-1552,-1364,-1809,2991,-2285,5943,48,53,873
707035,2449812,2421508,2455242,2422474,3651,1503,-1397,-1003,-1836,2408,-2276,6145,48,53,873
708048,2449968,2421684,2455439,2422671,3800,1262,-1186,-552,-2018,1732,-1907,6021,46,37,875
709049,2450116,2421840,2455636,2422868,3800,1405,-897,-188,-2340,258,-968,6026,46,37,875
710050,2450248,2421996,2455833,2423065,3800,1423,-548,193,-2806,-505,-612,6137,41,42,874
711051,2450360,2422168,2456030,2423262,3800,1335,-120,560,-3326,-752,-1379,6241,41,42,874
712052,2450488,2422332,2456227,2423459,3800,1400,408,971,-3627,-1354,-2637,6490,39,34,872
713053,2450588,2422468,2456424,2423656,3800,1602,933,1268,-3743,-1717,-2930,5687,39,34,872
714054,2450684,2422596,2456621,2423853,3800,1682,1401,1261,-3864,-1947,-1881,4704,35,27,871
715055,2450764,2422740,2456818,2424050,3800,1606,1801,1121,-3968,-2078,-843,4417,35,27,871
716056,2450832,2422884,2457015,2424247,3800,1629,2082,827,-3968,-1860,-514,3684,30,27,871
717057,2450896,2423028,2457212,2424444,3800,1653,2325,201,-3805,-1874,-161,2631,30,27,871
718058,2450960,2423160,2457409,2424641,3800,1756,2568,-575,-3460,-1693,232,2568,27,24,870
719059,2451004,2423304,2457606,2424838,3800,1706,2789,-1352,-2987,-921,520,2395,27,24,870
720060,2451076,2423412,2457803,2425035,3800,1970,2936,-1919,-2400,-371,417,3156,15,39,869
721061,2451116,2423536,2458000,2425232,3800,1902,3012,-2096,-1706,-169,344,4359,15,39,869
722062,2451164,2423680,2458197,2425429,3800,1801,2992,-1978,-1050,168,566,5097,2,27,868
723063,2451220,2423784,2458394,2425626,3800,2092,2850,-1571,-494,384,991,5962,2,27,868
724064,2451268,2423884,2458591,2425823,3800,2160,2596,-1003,-27,455,1498,6525,3,33,868
725065,2451328,2423992,2458788,2426020,3800,2150,2271,-450,336,637,1861,6425,3,33,868
726066,2451384,2424084,2458985,2426217,3800,2296,1958,57,618,809,1983,6220,8,22,867
727067,2451448,2424204,2459182,2426414,3800,2155,1687,488,859,974,1843,5801,8,22,867
728068,2451520,2424348,2459379,2426611,3800,2029,1467,767,1040,1049,1702,5316,6,35,867
729069,2451568,2424468,2459576,2426808,3800,2213,1323,745,1161,1016,1680,4217,6,35,867
730070,2451620,2424592,2459773,2427005,3800,2221,1201,504,1174,1073,1896,3845,10,25,866
731071,2451684,2424732,2459970,2427202,3800,2146,1066,294,1038,1331,1779,3984,10,25,866
732072,2451744,2424864,2460167,2427399,3800,2226,956,129,796,1452,1360,3789,21,20,867
733073,2451792,2425020,2460364,2427596,3800,2094,906,-136,491,1738,966,3438,21,20,867
734074,2451852,2425156,2460561,2427793,3800,2246,894,-527,152,2277,1018,3058,25,39,867
735075,2451896,2425340,2460758,2427990,3800,1952,887,-956,-190,2708,1082,3083,25,39,867
736076,2451948,2425468,2460955,2428187,3800,2333,861,-1326,-543,2920,1059,3081,18,42,867
737077,2452000,2425624,2461152,2428384,3800,2176,794,-1638,-896,3008,836,3463,18,42,867
738078,2452068,2425776,2461349,2428581,3800,2222,701,-1749,-1229,3039,599,3882,13,29,867
739079,2452092,2425924,2461546,2428778,3800,2269,616,-1778,-1536,3082,451,3930,13,29,867
740080,2452156,2426076,2461743,2428975,3800,2264,558,-1834,-1824,2913,267,3749,24,35,867
741081,2452204,2426208,2461940,2429172,3800,2418,534,-1960,-2082,2675,-3,3704,24,35,867
742082,2452260,2426336,2462137,2429369,3800,2474,518,-2015,-2273,2525,-438,3818,6,41,866
743083,2452332,2426456,2462334,2429566,3800,2558,512,-2040,-2379,2323,-803,3804,6,41,866
744084,2452412,2426580,2462531,2429763,3800,2566,524,-2071,-2425,1954,-1016,3609,6,31,866
745085,2452492,2426708,2462728,2429960,3800,2573,555,-2127,-2412,1565,-1414,3529,6,31,866
746086,2452600,2426880,2462925,2430157,3800,2309,587,-2065,-2336,1140,-1916,3951,29,39,866
747087,2452700,2427020,2463122,2430354,3800,2535,623,-1840,-2221,581,-2240,4218,29,39,866
748088,2452800,2427176,2463319,2430551,3800,2453,685,-1550,-2135,40,-1970,4225,29,23,866
749089,2452944,2427340,2463516,2430748,3800,2418,785,-1262,-2135,-542,-1261,4287,29,23,866
750090,2453056,2427528,2463713,2430945,3800,2273,896,-955,-2211,-928,-691,4247,34,43,867
751091,2453208,2427700,2463910,2431142,3800,2384,1000,-664,-2311,-1082,-492,4040,34,43,867
752092,2453340,2427896,2464107,2431339,3800,2236,1126,-482,-2370,-1204,-448,3569,19,42,866
753093,2453504,2428096,2464304,2431536,3800,2210,1248,-459,-2389,-1310,-230,3092,19,42,866
754094,2453660,2428288,2464501,2431733,3800,2262,1330,-639,-2397,-1439,9,2423,27,36,867
755095,2453792,2428508,2464698,2431930,3800,2078,1384,-964,-2379,-1466,14,2066,27,36,867
756096,2453968,2428688,2464895,2432127,3800,2337,1432,-1372,-2297,-1326,272,1925,40,50,867
757097,2454112,2428876,2465092,2432324,3800,2291,1450,-1681,-2110,-1097,267,2183,40,50,867
758105,2454260,2429040,2465322,2432554,3800,2471,1422,-1855,-1834,-922,343,2678,30,38,867
759099,2454432,2429224,2465519,2432751,3800,2352,1371,-1905,-1568,-775,818,2783,30,38,867
760100,2454600,2429460,2465716,2432948,3800,2010,1313,-1915,-1343,-554,1125,3015,41,43,867
761101,2454744,2429672,2465913,2433145,3800,2155,1242,-1866,-1137,-500,1270,3207,41,43,867
762102,2454936,2429872,2466110,2433342,3800,2229,1143,-1864,-955,-431,1132,3224,30,55,867
763103,2455108,2430092,2466307,2433539,3800,2094,1003,-1766,-784,-144,766,3499,30,55,867
764104,2455272,2430284,2466504,2433736,3800,2272,806,-1549,-610,-11,559,4028,46,46,868
765105,2455456,2430524,2466701,2433933,3800,1955,570,-1209,-457,95,377,4337,46,46,868
766106,2455636,2430736,2466898,2434130,3800,2123,317,-855,-350,326,392,4402,46,56,867
767107,2455844,2430908,2467095,2434327,3800,2385,50,-485,-312,565,847,4488,46,56,867
768108,2456068,2431088,2467292,2434524,3800,2343,-219,-199,-373,673,1222,4173,52,54,868
769109,2456264,2431264,2467489,2434721,3800,2378,-460,-192,-495,823,963,3521,52,54,868
770110,2456436,2431420,2467686,2434918,3800,2522,-648,-374,-593,1140,525,3073,52,32,868
771111,2456652,2431572,2467883,2435115,3800,2567,-791,-700,-643,1489,293,2699,52,32,868
772112,2456828,2431712,2468080,2435312,3800,2668,-928,-1062,-696,1750,229,2751,43,36,868
773113,2457084,2431884,2468277,2435509,3800,2480,-1057,-1384,-778,1949,473,2954,43,36,868
774114,2457328,2432036,2468474,2435706,3800,2625,-1190,-1636,-902,2339,1015,3187,47,32,867
775115,2457624,2432192,2468671,2435903,3800,2618,-1335,-1836,-1098,2686,2002,3383,47,32,867
776116,2457904,2432356,2468868,2436100,3800,2584,-1550,-1868,-1357,2637,2545,4301,47,27,865
777117,2458244,2432488,2469065,2436297,3800,2813,-1842,-1646,-1485,2760,1582,5093,47,27,865
778118,2458660,2432604,2469262,2436494,3800,2949,-2154,-1154,-1462,2301,507,5656,62,24,867
779119,2459024,2432752,2469459,2436691,3800,2772,-2407,-958,-1507,2024,869,4332,62,24,867
780120,2459376,2432872,2469656,2436888,3800,2981,-2635,-863,-1688,2234,1370,4684,59,31,867
781121,2459788,2432992,2469853,2437085,3800,3016,-2872,-661,-1881,2289,1335,5273,59,31,867
782122,2460192,2433128,2470050,2437282,3800,2943,-3006,-411,-2127,1663,1696,4943,81,28,865
783123,2460580,2433256,2470247,2437479,3800,3024,-2947,-305,-2544,266,1441,4077,81,28,865
784124,2461004,2433392,2470444,2437676,3800,3002,-2793,-559,-3019,-374,851,3430,84,35,866
785125,2461444,2433504,2470641,2437873,3800,3190,-2664,-831,-3375,-67,120,3802,84,35,866
786113,2461896,2433648,2470838,2438070,3658,3015,-2480,-1159,-3563,108,-474,3237,83,25,865
787114,2462400,2433772,2471035,2438267,3199,3173,-2192,-1619,-3672,-297,-1042,2839,83,25,865
788115,2462888,2433884,2471232,2438464,3173,3285,-1875,-2069,-3728,-834,-1706,3054,92,27,865
789116,2463428,2433988,2471429,2438661,2700,3377,-1595,-2510,-3671,-1052,-2188,3131,92,27,865
790117,2464044,2434092,2471626,2438858,2041,3419,-1303,-2850,-3518,-1112,-2264,3294,96,28,867
791118,2464652,2434200,2471823,2439055,1913,3434,-942,-3253,-3340,-1241,-2043,3192,96,28,867
792119,2465288,2434292,2472020,2439252,1546,3581,-554,-3623,-3168,-1356,-1897,3561,111,31,868
793120,2465916,2434428,2472217,2439449,1407,3334,-120,-3856,-2992,-1534,-1365,3760,111,31,868
794121,2466412,2434580,2472414,2439646,2102,3255,307,-4053,-2776,-1707,-900,4141,105,37,871
795122,2466964,2434772,2472611,2439843,1598,3008,606,-4065,-2418,-1664,-1640,4813,105,37,871
796123,2467472,2435016,2472808,2440040,1737,2663,798,-3764,-1890,-1463,-1683,5308,111,38,872
797124,2468040,2435276,2473005,2440237,1200,2537,942,-3469,-1210,-1554,-1394,5304,111,38,872
798125,2468568,2435604,2473202,2440434,1306,2055,1017,-3124,-535,-2494,-1810,5743,110,49,872
799127,2469100,2435972,2473399,2440631,1134,1731,1080,-2664,115,-3671,-2673,5925,110,49,872
800127,2469672,2436200,2473596,2440828,720,2593,1120,-2096,752,-4280,-3114,6364,124,64,878
801128,2470140,2436480,2473793,2441025,1252,2232,1154,-1396,1368,-4316,-3306,6645,124,64,878
802129,2470624,2436780,2473990,2441222,1027,2063,1259,-971,1866,-3927,-2991,5641,104,65,882
803130,2471084,2437080,2474187,2441419,1061,2018,1462,-946,2187,-2870,-2967,4725,104,65,882
804131,2471480,2437388,2474384,2441616,1375,1921,1674,-1183,2482,-1599,-3614,4340,110,58,883
805132,2471860,2437688,2474581,2441813,1394,1926,1964,-1463,2806,-1014,-4116,3651,110,58,883
806133,2472224,2437988,2474778,2442010,1422,1882,2306,-1960,3102,-1153,-4062,2986,79,71,883
807134,2472528,2438248,2474975,2442207,1750,2104,2658,-2465,3388,-913,-3881,3557,79,71,883
808135,2472836,2438484,2475172,2442404,1677,2238,2903,-2761,3664,110,-3184,3830,77,68,883
809136,2473112,2438752,2475369,2442601,1842,2008,3093,-3051,3888,1279,-2303,3337,77,68,883
810137,2473396,2438980,2475566,2442798,1755,2245,3295,-3509,3969,1983,-1287,2901,61,48,883
811138,2473628,2439196,2475763,2442995,2065,2312,3443,-3989,3901,2299,-698,3315,61,48,883
812139,2473872,2439388,2475960,2443192,1970,2465,3565,-4225,3713,2342,-133,3981,66,57,881
813140,2474088,2439572,2476157,2443389,2137,2522,3679,-4178,3371,2132,1029,4512,66,57,881
814141,2474288,2439716,2476354,2443586,2235,2795,3817,-4001,2923,1896,1684,4643,61,49,880
815142,2474504,2439892,2476551,2443783,2128,2605,3861,-3681,2385,1818,2188,5358,61,49,880
816143,2474684,2440032,2476748,2443980,2361,2856,3750,-3076,1727,1701,2816,6063,49,35,878
817144,2474820,2440164,2476945,2444177,2663,2936,3491,-2283,1016,1392,2949,6517,49,35,878
818145,2474960,2440348,2477142,2444374,2663,2617,3138,-1418,326,956,3177,6597,39,45,875
819146,2475064,2440532,2477339,2444571,2929,2623,2758,-617,-304,663,3513,6580,39,45,875
820147,2475144,2440724,2477536,2444768,3132,2577,2333,261,-832,686,3478,6783,31,42,873
821148,2475244,2440876,2477733,2444965,3049,2847,1887,948,-1223,993,3442,5778,31,42,873
822149,2475320,2441048,2477930,2445162,3253,2734,1498,1174,-1567,1114,3889,4407,34,32,872
823150,2475404,2441196,2478127,2445359,3253,2906,1209,1075,-1886,846,3728,3628,34,32,872
824151,2475512,2441392,2478324,2445556,3143,2607,984,906,-2083,455,2772,3435,13,37,870
825152,2475660,2441604,2478521,2445753,2915,2502,763,782,-2101,45,1852,3495,13,37,870
826153,2475784,2441852,2478718,2445950,3098,2255,516,668,-1941,-472,507,3401,12,48,869
827154,2475924,2442096,2478915,2446147,3023,2260,248,529,-1647,-805,-152,3123,12,48,869
828156,2476076,2442320,2479112,2446344,2969,2374,0,327,-1242,-1182,-585,2872,25,54,869
829156,2476192,2442512,2479309,2446541,3230,2577,-238,104,-693,-1842,-1445,3035,25,54,869
830158,2476308,2442756,2479506,2446738,3266,2232,-456,-145,-109,-2532,-1759,2809,45,39,872
831159,2476420,2443052,2479703,2446935,3329,1865,-625,-483,391,-2767,-1647,2353,45,39,872
832160,2476504,2443296,2479900,2447132,3554,2169,-742,-849,838,-2465,-1753,2421,39,50,872
833160,2476584,2443552,2480097,2447329,3631,2069,-816,-1099,1214,-2337,-1438,2736,39,50,872
834161,2476688,2443800,2480294,2447526,3523,2098,-892,-1116,1537,-2542,-1736,3540,20,54,871
835162,2476820,2444036,2480491,2447723,3377,2156,-953,-964,1797,-2640,-1696,3752,20,54,871
836163,2476968,2444276,2480688,2447920,3299,2113,-989,-815,1974,-2474,-1533,3805,13,45,870
837164,2477156,2444612,2480885,2448117,3054,1453,-968,-676,2102,-2285,-1394,3925,13,45,870
838166,2477320,2444916,2481082,2448314,3220,1607,-895,-534,2189,-2249,-1306,4109,22,53,870
839166,2477464,2445192,2481279,2448511,3368,1747,-824,-327,2239,-2359,-1394,4393,22,53,870
840167,2477576,2445428,2481476,2448708,3606,1981,-713,-186,2239,-2185,-1061,4155,46,49,872
841175,2477684,2445732,2481706,2448938,3686,1523,-503,-210,2165,-1313,-404,3522,46,49,872
842182,2477780,2446092,2481903,2449135,3800,1103,-243,-357,2028,-412,-301,3374,40,52,873
843170,2477928,2446372,2482100,2449332,3503,1567,39,-596,1870,346,-409,3071,40,52,873
844172,2478088,2446664,2482297,2449529,3445,1451,331,-844,1710,907,-518,3043,35,57,871
845172,2478296,2446968,2482494,2449726,3141,1330,606,-1012,1565,1260,-486,3382,35,57,871
846174,2478556,2447292,2482691,2449923,2790,1149,840,-1001,1417,1767,-391,3945,35,53,872
847175,2478772,2447624,2482888,2450120,3056,1040,1023,-826,1283,2356,-524,4240,35,53,872
848175,2478964,2447964,2483085,2450317,3209,928,1182,-665,1169,2462,-767,4302,51,72,874
849176,2479128,2448240,2483282,2450514,3400,1294,1356,-634,1023,2540,-493,3969,51,72,874
850177,2479316,2448584,2483479,2450711,3255,804,1569,-700,775,2924,-219,3374,52,64,878
851178,2479524,2448888,2483676,2450908,3126,1008,1794,-865,504,3379,-678,3159,52,64,878
852179,2479740,2449172,2483873,2451105,3068,1095,1973,-943,325,3540,-1629,3616,31,56,877
853180,2479984,2449496,2484070,2451302,2873,789,2062,-753,239,3038,-2538,4301,31,56,877
854182,2480200,2449780,2484267,2451499,3041,1002,2122,-321,171,2129,-3048,4833,33,56,876
855182,2480388,2450096,2484464,2451696,3221,750,2223,106,75,1780,-2748,4695,33,56,876
856184,2480624,2450376,2484661,2451893,2905,938,2310,535,-75,2235,-1988,4490,40,51,878
857184,2480836,2450648,2484858,2452090,3048,956,2373,903,-238,2960,-1109,4075,40,51,878
858186,2481072,2450916,2485055,2452287,2882,950,2421,1117,-395,3345,-367,3745,44,59,878
859186,2481308,2451136,2485252,2452484,2866,1240,2441,1370,-561,2949,-237,3841,44,59,878
860187,2481512,2451408,2485449,2452681,3064,882,2452,1738,-784,2037,300,4017,42,49,879
861188,2481696,2451660,2485646,2452878,3194,984,2442,2237,-1044,1849,780,4449,42,49,879
862189,2481920,2451896,2485843,2453075,2933,1067,2350,2835,-1259,2320,709,4463,38,57,879
863190,2482116,2452112,2486040,2453272,3110,1183,2261,3304,-1500,2712,1530,3559,38,57,879
864191,2482352,2452348,2486237,2453469,2844,1041,2208,3587,-1764,2619,1476,3198,29,41,877
865192,2482604,2452524,2486434,2453666,2720,1425,2133,3868,-2010,1864,1012,3372,29,41,877
866193,2482804,2452736,2486631,2453863,3044,1195,1995,4211,-2232,680,504,3558,39,42,878
867194,2482976,2452980,2486828,2454060,3231,974,1824,4646,-2391,275,-78,3548,39,42,878
868195,2483144,2453204,2487025,2454257,3269,1087,1672,4848,-2505,615,-19,2608,47,51,878
869196,2483312,2453440,2487222,2454454,3283,995,1601,4654,-2583,945,378,1427,47,51,878
870197,2483456,2453616,2487419,2454651,3457,1379,1568,4183,-2636,737,289,863,39,44,877
871198,2483644,2453788,2487616,2454848,3187,1416,1516,3721,-2618,118,-258,827,39,44,877
872199,2483848,2454012,2487813,2455045,3084,1079,1430,3332,-2487,-438,-442,1040,43,49,875
873200,2484016,2454252,2488010,2455242,3323,961,1283,3117,-2358,-699,53,1555,43,49,875
874201,2484152,2454452,2488207,2455439,3550,1209,1055,3018,-2259,-886,232,1768,30,51,874
875202,2484304,2454700,2488404,2455636,3471,887,789,2951,-2233,-943,630,1716,30,51,874
876203,2484444,2454888,2488601,2455833,3572,1267,483,2867,-2267,-765,845,2058,40,50,876
877204,2484604,2455104,2488798,2456030,3464,1083,119,2887,-2281,-633,847,2482,40,50,876
878205,2484796,2455248,2488995,2456227,3267,1557,-242,2988,-2236,-598,765,2438,34,47,874
879206,2485000,2455444,2489192,2456424,3190,1232,-537,2933,-2160,-897,735,2043,34,47,874
880207,2485188,2455684,2489389,2456621,3295,938,-759,2714,-2088,-1153,916,1833,44,40,873
881208,2485400,2455864,2489586,2456818,3139,1322,-957,2477,-1981,-1094,902,1895,44,40,873
882209,2485540,2456080,2489783,2457015,3614,1088,-1137,2110,-1846,-932,958,1792,36,35,875
883210,2485704,2456276,2489980,2457212,3480,1214,-1292,1735,-1728,-673,656,1747,36,35,875
884211,2485876,2456444,2490177,2457409,3442,1402,-1436,1235,-1645,9,390,1562,24,47,876
885212,2486056,2456612,2490374,2457606,3400,1414,-1583,781,-1573,806,531,1970,24,47,876
886213,2486224,2456832,2490571,2457803,3489,1079,-1708,518,-1503,912,678,2334,39,49,873
887214,2486460,2456996,2490768,2458000,3047,1445,-1797,227,-1470,548,780,2458,39,49,873
888215,2486652,2457208,2490965,2458197,3325,1138,-1857,-21,-1508,301,868,2934,51,31,873
889216,2486828,2457352,2491162,2458394,3435,1586,-1905,-328,-1606,443,962,2760,51,31,873
890217,2487000,2457500,2491359,2458591,3472,1583,-1965,-712,-1725,1195,965,2682,60,36,875
891231,2487124,2457648,2491556,2458788,3800,1604,-2071,-1155,-1875,1980,1234,2869,60,36,875
892219,2487276,2457800,2491753,2458985,3651,1600,-2206,-1574,-2012,2826,1454,3060,29,22,875
893220,2487460,2457932,2491950,2459182,3457,1754,-2397,-1768,-2125,3370,1456,3683,29,22,875
894222,2487644,2458064,2492147,2459379,3463,1782,-2581,-1941,-2196,3330,1431,3728,19,24,872
895223,2487844,2458200,2492344,2459576,3363,1784,-2741,-2161,-2252,3143,1589,3991,19,24,872
896223,2488044,2458388,2492541,2459773,3363,1464,-2908,-2332,-2327,3239,1735,4095,27,30,870
897225,2488208,2458596,2492738,2459970,3603,1334,-3037,-2551,-2383,3415,1528,3958,27,30,870
898225,2488384,2458776,2492935,2460167,3538,1517,-3142,-2651,-2427,3447,1014,4528,53,41,870
899226,2488528,2458948,2493132,2460364,3763,1578,-3200,-2853,-2533,3593,1216,4147,53,41,870
900227,2488744,2459108,2493329,2460561,3304,1670,-3215,-2964,-2657,3994,1216,4559,21,40,873
901228,2488932,2459260,2493526,2460758,3484,1740,-3204,-2971,-2763,4032,1191,4875,21,40,873
902230,2489132,2459400,2493723,2460955,3409,1840,-3154,-2976,-2865,3451,1010,5025,38,43,872
903230,2489380,2459544,2493920,2461152,3088,1838,-3072,-2844,-2982,2739,745,5483,38,43,872
904231,2489528,2459708,2494117,2461349,3735,1729,-2938,-2743,-3133,2367,939,5245,39,34,873
905232,2489704,2459844,2494314,2461546,3570,1930,-2787,-2565,-3269,2532,562,5750,39,34,873
906233,2489868,2460020,2494511,2461743,3661,1690,-2636,-2295,-3375,2832,598,5688,37,24,872
907234,2490036,2460152,2494708,2461940,3650,1994,-2461,-2138,-3496,3133,854,5468,37,24,872
908235,2490232,2460296,2494905,2462137,3475,1943,-2327,-1849,-3607,3178,561,6362,20,23,870
909236,2490428,2460440,2495102,2462334,3477,1966,-2216,-1443,-3675,2846,376,6391,20,23,870
910237,2490624,2460580,2495299,2462531,3478,2017,-2083,-1040,-3689,2414,331,6294,43,30,869
911238,2490800,2460728,2495496,2462728,3613,1988,-1921,-776,-3671,2132,371,5995,43,30,869
912239,2490976,2460868,2495693,2462925,3623,2064,-1739,-688,-3649,2128,442,5611,41,25,870
913240,2491152,2461028,2495890,2463122,3634,1956,-1603,-497,-3600,2394,15,5989,41,25,870
914241,2491324,2461224,2496087,2463319,3671,1731,-1495,-416,-3538,2662,82,5498,29,35,870
915242,2491540,2461412,2496284,2463516,3388,1786,-1381,-366,-3477,2788,147,5462,29,35,870
916243,2491724,2461608,2496481,2463713,3595,1737,-1241,-301,-3426,2614,249,5329,39,48,869
917244,2491980,2461788,2496678,2463910,3120,1845,-1074,-291,-3395,2108,335,5254,39,48,869
918245,2492204,2461944,2496875,2464107,3308,2013,-904,-126,-3359,1551,360,5720,37,38,869
919246,2492436,2462124,2497072,2464304,3244,1871,-715,-2,-3325,1192,663,5491,37,38,869
920247,2492668,2462288,2497269,2464501,3229,1986,-536,145,-3330,1261,945,5756,40,46,870
921248,2492884,2462480,2497466,2464698,3322,1813,-364,321,-3402,1626,1400,5403,40,46,870
922249,2493092,2462664,2497663,2464895,3368,1870,-185,342,-3511,1933,1861,4933,51,34,873
923250,2493332,2462832,2497860,2465092,3150,1983,-23,305,-3603,1953,1816,4929,51,34,873
924258,2493568,2463032,2498090,2465322,3174,1796,137,307,-3671,1430,1540,4998,55,37,873
925252,2493800,2463216,2498287,2465519,3184,1903,274,472,-3719,602,1285,5516,55,37,873
926253,2494028,2463388,2498484,2465716,3196,1989,363,670,-3769,223,1178,5564,60,45,873
927254,2494288,2463564,2498681,2465913,2969,1974,399,857,-3843,855,1297,5438,60,45,873
928255,2494564,2463756,2498878,2466110,2835,1876,398,1092,-3880,1659,1222,5335,37,31,873
929256,2494856,2463952,2499075,2466307,2695,1852,435,1161,-3882,1815,1115,4790,37,31,873
930257,2495140,2464180,2499272,2466504,2707,1639,509,1149,-3892,1263,878,4690,59,38,872
931258,2495424,2464352,2499469,2466701,2670,2001,521,1268,-3882,327,145,5546,59,38,872
932259,2495672,2464532,2499666,2466898,2873,1958,451,1588,-3868,-49,-36,5801,62,51,875
933260,2495948,2464708,2499863,2467095,2664,1992,360,1858,-3882,459,355,4979,62,51,875
934262,2496264,2464904,2500060,2467292,2363,1869,316,1709,-3957,1266,1178,3878,61,49,876
935262,2496576,2465132,2500257,2467489,2337,1655,267,1328,-4055,1630,1067,3663,61,49,876
936263,2496876,2465352,2500454,2467686,2368,1696,151,1119,-4120,1149,522,4099,60,39,876
937264,2497204,2465564,2500651,2467883,2136,1740,-98,1232,-4134,242,135,4927,60,39,876
938265,2497492,2465788,2500848,2468080,2347,1654,-377,1309,-4178,-277,303,4366,68,58,877
939266,2497788,2466008,2501045,2468277,2254,1669,-604,1095,-4278,-1,766,3350,68,58,877
940267,2498168,2466236,2501242,2468474,1649,1606,-872,780,-4353,293,810,3305,62,49,879
941268,2498456,2466416,2501439,2468671,2184,1913,-1266,532,-4350,229,370,3587,62,49,879
942270,2498784,2466612,2501636,2468868,1878,1814,-1655,210,-4324,104,537,2773,61,48,879
943270,2499164,2466852,2501833,2469065,1472,1521,-1974,-245,-4285,415,718,2409,61,48,879
944271,2499536,2467064,2502030,2469262,1446,1689,-2260,-622,-4257,1010,1238,2562,51,37,879
945272,2499880,2467268,2502227,2469459,1557,1737,-2619,-774,-4199,1262,1134,3251,51,37,879
946273,2500232,2467476,2502424,2469656,1440,1708,-2973,-967,-4109,1346,939,2761,68,40,880
947274,2500616,2467648,2502621,2469853,1158,1944,-3188,-1401,-3941,1159,11,1978,68,40,880
948275,2501000,2467836,2502818,2470050,1076,1848,-3285,-1801,-3740,370,299,2021,54,49,884
949276,2501288,2468024,2503015,2470247,1636,1852,-3307,-2168,-3626,-245,1907,1995,54,49,884
950277,2501620,2468220,2503212,2470444,1302,1804,-3315,-2429,-3558,-483,2136,2518,73,48,883
951278,2501916,2468400,2503409,2470641,1485,1911,-3272,-2343,-3377,-466,1925,3227,73,48,883
952279,2502228,2468572,2503606,2470838,1334,1973,-3191,-2215,-3095,-375,1670,3131,62,49,882
953280,2502560,2468732,2503803,2471035,1150,2065,-3098,-2067,-2836,-519,1180,3301,62,49,882
954281,2502856,2468908,2504000,2471232,1331,1974,-2994,-1932,-2560,-380,-175,3199,66,47,881
955282,2503124,2469060,2504197,2471429,1476,2145,-2926,-1604,-2244,25,-1417,3810,66,47,881
956283,2503440,2469192,2504394,2471626,1124,2298,-2892,-1024,-1932,-155,-2015,4359,51,47,882
957284,2503740,2469312,2504591,2471823,1178,2408,-2814,-357,-1647,-841,-2318,4379,51,47,882
958285,2503976,2469452,2504788,2472020,1561,2308,-2711,171,-1431,-1333,-2642,4224,48,40,882
959287,2504248,2469568,2504985,2472217,1303,2495,-2608,674,-1230,-1389,-3058,4565,48,40,882
960288,2504480,2469676,2505182,2472414,1539,2584,-2521,1401,-925,-1441,-3304,4887,54,36,881
961289,2504764,2469788,2505379,2472611,1176,2597,-2398,2020,-508,-1675,-3460,4130,54,36,881
962289,2505008,2469876,2505576,2472808,1405,2795,-2247,2324,-18,-1811,-3539,3854,61,18,881
963291,2505284,2469964,2505773,2473005,1170,2844,-2103,2565,543,-1507,-3483,3910,61,18,881
964291,2505520,2470072,2505970,2473202,1403,2759,-1946,2865,1147,-1024,-3398,3820,51,14,879
965292,2505736,2470200,2506167,2473399,1520,2664,-1773,3139,1759,-981,-3754,3808,51,14,879
966294,2505916,2470300,2506364,2473596,1752,2883,-1577,3276,2347,-1104,-4042,3636,54,30,879
967295,2506080,2470436,2506561,2473793,1867,2685,-1397,3377,2863,-821,-4077,3841,54,30,879
968296,2506228,2470608,2506758,2473990,1988,2472,-1221,3484,3294,-430,-3917,3628,34,29,878
969297,2506348,2470704,2506955,2474187,2197,2992,-1044,3499,3653,-212,-3878,3457,34,29,878
970298,2506516,2470840,2507152,2474384,1911,2769,-869,3488,3968,-174,-4052,3732,37,35,878
971298,2506716,2470976,2507349,2474581,1710,2797,-750,3512,4246,-9,-3718,3895,37,35,878
972299,2506904,2471116,2507546,2474778,1789,2798,-695,3659,4440,126,-2718,4144,27,28,876
973300,2507096,2471276,2507743,2474975,1766,2689,-663,3755,4559,19,-2348,4196,27,28,876
974301,2507268,2471420,2507940,2475172,1902,2813,-642,3808,4596,21,-2087,4260,30,24,872
975303,2507448,2471552,2508137,2475369,1859,2918,-645,3819,4494,27,-1310,3900,30,24,872
976303,2507604,2471724,2508334,2475566,2027,2679,-658,3610,4203,-49,-521,3395,32,33,875
977305,2507740,2471908,2508531,2475763,2179,2611,-641,3251,3772,-142,-500,3156,32,33,875
978305,2507880,2472052,2508728,2475960,2180,2885,-614,2860,3309,-304,-822,3367,35,32,877
979307,2508032,2472244,2508925,2476157,2125,2588,-624,2646,2856,-539,-226,3906,35,32,877
980307,2508168,2472416,2509122,2476354,2252,2724,-693,2491,2410,-661,192,4040,22,42,875
981308,2508320,2472612,2509319,2476551,2172,2576,-805,2320,2008,-762,-8,4210,22,42,875
982309,2508452,2472816,2509516,2476748,2325,2523,-910,2123,1707,-855,-242,4234,32,41,875
983311,2508580,2473008,2509713,2476945,2380,2602,-953,1873,1518,-810,-353,3953,32,41,875
984312,2508716,2473200,2509910,2477142,2358,2604,-926,1418,1405,-880,-204,3339,24,47,875
985312,2508864,2473432,2510107,2477339,2305,2339,-816,841,1369,-993,-713,3232,24,47,875
986314,2508984,2473668,2510304,2477536,2514,2298,-638,279,1441,-982,-2021,3389,24,48,874
987314,2509100,2473904,2510501,2477733,2574,2282,-137,204,1623,-1052,-2948,7276,24,48,874
988315,2509228,2474140,2510698,2477930,2530,2265,1269,2201,2021,-1879,-3928,23932,28,54,875
989316,2509344,2474356,2510895,2478127,2641,2383,2593,3893,2297,-1439,-1527,12316,28,54,875
990317,2509464,2474576,2511092,2478324,2650,2349,2932,3674,2279,-1168,77,3202,20,41,876
991319,2509584,2474832,2511289,2478521,2685,2099,2699,2408,2183,-786,369,2270,20,41,876
992320,2509692,2475124,2511486,2478718,2799,1832,2410,1215,2178,-479,-27,2351,24,41,875
993320,2509840,2475404,2511683,2478915,2570,1871,2247,445,2277,-603,-188,2683,24,41,875
994321,2509948,2475740,2511880,2479112,2861,1461,2072,-86,2324,-858,-225,3227,21,60,874
995322,2510072,2475952,2512077,2479309,2793,2230,1817,-430,2213,-929,-619,3670,21,60,874
996323,2510188,2476108,2512274,2479506,2878,2599,1538,-804,2008,-968,-931,3530,19,52,875
997324,2510316,2476284,2512471,2479703,2835,2484,1265,-1130,1724,-939,-840,3922,19,52,875
998326,2510444,2476480,2512668,2479900,2865,2359,1021,-1421,1344,-827,-469,4183,37,47,876
999326,2510560,2476740,2512865,2480097,2976,1933,851,-1558,1000,-457,192,4505,37,47,876
1000328,2510692,2477040,2513062,2480294,2905,1637,733,-1521,714,-201,859,4754,39,41,874
1001328,2510836,2477416,2513259,2480491,2853,1085,626,-1449,442,71,1145,4958,39,41,874
1002330,2510952,2477788,2513456,2480688,3065,1034,569,-1343,173,212,1109,5051,33,57,873
1003330,2511128,2478040,2513653,2480885,2699,1760,581,-1416,-83,484,759,4475,33,57,873
1004331,2511324,2478424,2513850,2481082,2576,854,679,-1558,-302,982,560,4170,40,64,875
1005332,2511528,2478752,2514047,2481279,2522,1146,802,-1688,-465,1173,733,4411,40,64,875
1006333,2511712,2479124,2514244,2481476,2654,795,919,-1827,-583,1520,1081,4373,33,81,879
1007343,2511916,2479468,2514474,2481706,2541,920,1003,-1958,-642,2013,694,4426,33,81,879
1008336,2512108,2479768,2514671,2481903,2619,1151,1033,-1862,-653,2117,-129,5245,54,76,876
1009336,2512316,2480072,2514868,2482100,2514,1079,1037,-1439,-706,1547,-659,5744,54,76,876
1010337,2512504,2480420,2515065,2482297,2644,737,1081,-1111,-934,930,-497,5252,57,70,881
1011338,2512656,2480736,2515262,2482494,2889,886,1140,-847,-1377,898,-130,5302,57,70,881
1012339,2512860,2481144,2515459,2482691,2562,218,1206,-500,-1827,1347,-249,5242,33,70,881
1013340,2513040,2481456,2515656,2482888,2719,768,1231,-23,-2147,1308,-563,5685,33,70,881
1014342,2513220,2481824,2515853,2483085,2728,344,1183,558,-2450,952,-206,5905,37,79,881
1015342,2513388,2482200,2516050,2483282,2815,215,1135,1031,-2829,950,1111,5366,37,79,881
1016343,2513516,2482500,2516247,2483479,3097,645,1092,1483,-3232,1171,1576,5272,51,67,879
1017344,2513632,2482832,2516444,2483676,3207,385,1058,1824,-3555,1370,1438,4825,51,67,879
1018345,2513744,2483192,2516641,2483873,3271,139,1029,2012,-3729,1517,1186,4456,41,65,879
1019346,2513864,2483528,2516838,2484070,3254,229,1026,2069,-3816,1682,1267,3838,41,65,879
1020348,2513956,2483892,2517035,2484267,3477,-20,1055,1992,-3852,1835,1179,3302,38,71,879
1021348,2514068,2484168,2517232,2484464,3389,496,1063,1909,-3856,1713,793,3340,38,71,879
1022349,2514176,2484468,2517429,2484661,3454,300,1028,1739,-3844,1590,650,3091,34,59,878
1023350,2514288,2484700,2517626,2484858,3467,710,945,1669,-3800,1710,666,3342,34,59,878
1024352,2514408,2484936,2517823,2485055,3451,668,833,1753,-3723,1774,602,3474,12,43,876
1025353,2514540,2485164,2518020,2485252,3406,704,697,1865,-3649,1473,430,3423,12,43,876
1026353,2514692,2485384,2518217,2485449,3302,744,539,2007,-3586,1137,-202,3533,18,41,877
1027354,2514840,2485596,2518414,2485646,3348,787,384,2167,-3508,938,-759,3529,18,41,877
1028355,2514988,2485824,2518611,2485843,3371,674,242,2423,-3422,777,-800,3670,40,57,875
1029356,2515136,2485968,2518808,2486040,3393,1222,130,2671,-3316,643,-848,3363,40,57,875
1030358,2515280,2486140,2519005,2486237,3441,1058,71,2833,-3154,420,-1436,3316,44,51,873
1031358,2515428,2486276,2519202,2486434,3439,1310,44,3098,-2994,-2,-1501,3496,44,51,873
1032372,2515524,2486468,2519399,2486631,3800,962,45,3387,-2922,-554,-1366,3379,26,52,876
1033373,2515624,2486660,2519596,2486828,3800,964,58,3699,-2945,-979,-1052,3334,26,52,876
1034362,2515752,2486852,2519793,2487025,3683,967,66,3996,-2972,-1277,-1019,3443,25,54,874
1035375,2515848,2487028,2519990,2487222,3800,1076,94,4305,-2969,-1396,-1055,3497,25,54,874
1036376,2515944,2487216,2520187,2487419,3800,1005,161,4589,-2943,-1547,-1021,3237,34,46,873
1037377,2516044,2487376,2520384,2487616,3800,1196,263,4716,-2907,-1816,-1082,2751,34,46,873
1038378,2516132,2487532,2520581,2487813,3800,1239,360,4712,-2838,-2068,-1184,2362,35,41,872
1039379,2516212,2487696,2520778,2488010,3800,1203,413,4563,-2692,-2244,-1188,2045,35,41,872
1040380,2516304,2487804,2520975,2488207,3800,1593,447,4285,-2479,-2386,-1200,1640,17,42,871
1041381,2516368,2487908,2521172,2488404,3800,1658,521,3850,-2208,-2560,-1276,1283,17,42,871
1042382,2516460,2487984,2521369,2488601,3800,1887,622,3354,-1866,-2717,-1258,1122,17,37,870
1043383,2516592,2488096,2521566,2488798,3800,1700,724,2807,-1467,-2741,-1043,1064,17,37,870
1044384,2516764,2488216,2521763,2488995,3800,1684,832,2201,-1046,-2598,-684,803,15,20,871
1045372,2516944,2488328,2521960,2489192,3797,1771,949,1491,-582,-2303,-466,762,15,20,871
1046373,2517172,2488432,2522157,2489389,3484,1862,1048,703,-43,-1978,-1087,912,37,21,869
1047374,2517428,2488556,2522354,2489586,3284,1769,1060,99,539,-1848,-2024,1487,37,21,869
1048375,2517640,2488668,2522551,2489783,3554,1881,1027,-389,1098,-2142,-2393,1641,53,19,870
1049376,2517888,2488780,2522748,2489980,3307,1920,973,-802,1555,-2259,-2352,1926,53,19,870
1050377,2518176,2488888,2522945,2490177,3018,1984,865,-1190,1854,-1977,-1717,2131,59,37,870
1051378,2518448,2489024,2523142,2490374,3085,1836,723,-1572,2063,-1619,-1052,2259,59,37,870
1052379,2518720,2489124,2523339,2490571,3053,2103,515,-1806,2236,-1250,-609,2744,37,23,872
1053380,2519028,2489220,2523536,2490768,2781,2174,241,-2112,2379,-946,-201,2723,37,23,872
1054381,2519312,2489308,2523733,2490965,2893,2272,-100,-2414,2446,-538,458,2948,57,38,872
1055382,2519600,2489408,2523930,2491162,2829,2239,-478,-2647,2400,-75,779,3036,57,38,872
1056383,2519904,2489476,2524127,2491359,2683,2497,-893,-2891,2228,210,859,3275,60,31,875
1057385,2520176,2489576,2524324,2491556,2851,2340,-1309,-2971,1983,568,805,3793,60,31,875
1058386,2520432,2489688,2524521,2491753,2925,2302,-1709,-3056,1703,1079,936,3981,63,20,875
1059386,2520708,2489784,2524718,2491950,2767,2447,-2491,-2521,1111,1996,249,5108,63,20,875
1060387,2520932,2489872,2524915,2492147,3081,2545,-2824,-2346,805,2166,528,4981,64,33,874
1061388,2521160,2489960,2525112,2492344,3043,2594,-3086,-2238,471,2577,622,5101,64,33,874
1062389,2521396,2490052,2525309,2492541,2976,2615,-3302,-2051,111,2902,942,5398,54,21,871
1063390,2521604,2490132,2525506,2492738,3147,2742,-3463,-1880,-272,2940,1052,5188,54,21,871
1064391,2521784,2490220,2525703,2492935,3331,2741,-3536,-1958,-719,2880,1337,4467,40,18,872
1065392,2521968,2490332,2525900,2493132,3312,2628,-3518,-2270,-1198,2978,1440,4156,40,18,872
1066393,2522152,2490416,2526097,2493329,3318,2854,-2942,-2035,-1630,3518,819,9575,48,30,870
1067394,2522316,2490528,2526294,2493526,3459,2717,-377,1906,-1902,4173,-2281,32767,48,30,870
1068395,2522472,2490616,2526491,2493723,3528,2915,2328,5072,-2211,2515,-727,19752,35,32,869
1069396,2522648,2490756,2526688,2493920,3413,2616,3157,4404,-2736,2724,1583,185,35,32,869
1070397,2522816,2490920,2526885,2494117,3476,2480,2848,1769,-3279,2901,1192,-790,47,22,867
1071398,2522968,2491076,2527082,2494314,3596,2549,2427,-569,-3649,2776,421,-159,47,22,867
1072399,2523124,2491272,2527279,2494511,3590,2301,2217,-1879,-3765,2255,-46,1217,42,34,867
1073400,2523276,2491456,2527476,2494708,3636,2382,2081,-2813,-3836,1851,377,1480,42,34,867
1074401,2523440,2491624,2527673,2494905,3577,2495,1931,-3567,-4037,1519,947,1635,41,48,867
1075402,2523580,2491828,2527870,2495102,3752,2267,1800,-4548,-4266,838,957,1352,41,48,867
1076403,2523724,2492016,2528067,2495299,3751,2372,1669,-5302,-4408,584,361,2794,22,38,867
1077404,2523900,2492224,2528264,2495496,3561,2243,1492,-5442,-4361,448,-474,4349,22,38,867
1078406,2524068,2492428,2528461,2495693,3625,2265,1292,-5151,-4109,-8,-1092,5351,43,46,868
1079406,2524236,2492636,2528658,2495890,3639,2236,1093,-4549,-3817,-385,-1147,5887,43,46,868
1080407,2524392,2492852,2528855,2496087,3733,2179,950,-4050,-3503,-718,-1119,5829,41,56,868
1081408,2524580,2493084,2529052,2496284,3537,2064,885,-3485,-3145,-881,-788,6277,41,56,868
1082409,2524736,2493284,2529249,2496481,3756,2263,880,-2941,-2779,-833,-326,5835,34,40,869
1083410,2524908,2493536,2529446,2496678,3668,1914,964,-2617,-2414,-900,148,5087,34,40,869
1084411,2525128,2493772,2529643,2496875,3359,1998,1101,-2376,-2058,-897,734,5042,26,48,868
1085412,2525328,2494012,2529840,2497072,3483,1955,1268,-2218,-1743,-751,1347,4685,26,48,868
1086413,2525532,2494232,2530037,2497269,3456,2070,1398,-1967,-1450,-505,1616,5013,36,44,869
1087414,2525776,2494444,2530234,2497466,3187,2115,1483,-1671,-1133,-280,1701,5011,36,44,869
1088415,2525988,2494672,2530431,2497663,3380,2001,1533,-1428,-827,-46,1916,4844,45,55,870
1089416,2526188,2494900,2530628,2497860,3455,1988,1567,-1188,-591,80,2164,4642,45,55,870
1090424,2526444,2495132,2530858,2498090,3094,1962,1621,-1189,-462,129,2475,3907,40,51,871
1091419,2526680,2495380,2531055,2498287,3203,1841,1663,-1330,-432,271,2664,3613,40,51,871
1092419,2526920,2495604,2531252,2498484,3160,1980,1687,-1575,-455,269,2727,3154,35,63,872
1093420,2527176,2495856,2531449,2498681,3035,1781,1683,-1971,-468,447,2362,2788,35,63,872
1094422,2527480,2496076,2531646,2498878,2688,1972,1641,-2353,-444,757,1657,2726,40,59,872
1095422,2527756,2496332,2531843,2499075,2830,1721,1563,-2762,-379,883,1181,2722,40,59,872
1096423,2528028,2496532,2532040,2499272,2823,2071,1445,-3017,-309,1020,1008,3206,64,53,873
1097424,2528312,2496748,2532237,2499469,2710,1962,1303,-3242,-280,1160,1447,3150,64,53,873
1098426,2528588,2496932,2532434,2499666,2726,2169,1120,-3382,-303,1264,2172,3623,61,40,875
1099426,2528880,2497148,2532631,2499863,2585,1961,870,-3308,-338,1362,2248,4183,61,40,875
1100427,2529208,2497344,2532828,2500060,2303,2087,592,-3177,-322,1469,1690,4251,64,44,876
1101428,2529476,2497580,2533025,2500257,2648,1820,322,-3020,-210,1744,1100,4427,64,44,876
1102430,2529732,2497780,2533222,2500454,2697,2045,41,-2833,-41,1989,1131,4494,63,43,876
1103431,2530040,2497964,2533419,2500651,2324,2150,-287,-2628,102,2121,1772,4688,63,43,876
1104431,2530300,2498148,2533616,2500848,2598,2157,-623,-2335,179,2221,2430,4982,49,43,877
1105432,2530564,2498344,2533813,2501045,2543,2082,-926,-2006,118,2083,3300,4911,49,43,877
1106433,2530868,2498468,2534010,2501242,2247,2566,-1170,-1735,-118,1682,3769,4580,44,44,875
1107434,2531140,2498636,2534207,2501439,2414,2303,-1347,-1681,-495,1430,3532,3923,44,44,875
1108435,2531412,2498776,2534404,2501636,2382,2504,-1488,-1873,-911,1447,2559,3284,59,45,876
1109436,2531676,2498952,2534601,2501833,2404,2289,-1569,-2182,-1265,1513,1396,2958,59,45,876
1110438,2531960,2499120,2534798,2502030,2241,2352,-1649,-2501,-1501,1464,449,2902,53,30,876
1111438,2532196,2499276,2534995,2502227,2525,2446,-1695,-2867,-1647,1386,-79,2702,53,30,876
1112439,2532472,2499428,2535192,2502424,2240,2491,-1690,-3235,-1759,1315,-234,2554,57,43,876
1113440,2532744,2499584,2535389,2502621,2233,2485,-1604,-3664,-1880,1254,-174,2253,57,43,876
1114442,2533012,2499740,2535586,2502818,2227,2503,-1481,-4158,-1963,1286,-626,2303,43,25,876
1115442,2533276,2499948,2535783,2503015,2223,2174,-1335,-4554,-1938,1383,-1437,2669,43,25,876
1116443,2533596,2500168,2535980,2503212,1819,2089,-1187,-4837,-1827,1468,-1936,2857,45,40,874
1117444,2533860,2500400,2536177,2503409,2141,2000,-998,-4959,-1694,1341,-2058,3213,45,40,874
1118445,2534144,2500604,2536374,2503606,1977,2173,-757,-4979,-1545,1008,-2280,3742,57,33,875
1119446,2534432,2500824,2536571,2503803,1913,2063,-496,-4681,-1401,673,-2320,4556,57,33,875
1120447,2534724,2501072,2536768,2504000,1847,1866,-191,-4164,-1294,549,-1911,5156,48,34,878
1121448,2534996,2501284,2536965,2504197,1939,2085,121,-3418,-1228,354,-1783,5895,48,34,878
1122450,2535340,2501516,2537162,2504394,1425,1945,433,-2593,-1234,173,-1599,5911,48,53,879
1123451,2535632,2501756,2537359,2504591,1708,1876,769,-1831,-1295,-5,-1584,5803,48,53,879
1124452,2535904,2501976,2537556,2504788,1800,1992,1109,-1042,-1348,-228,-2254,5905,49,60,879
1125452,2536220,2502192,2537753,2504985,1474,2009,1448,-243,-1369,-635,-2834,5836,49,60,879
1126454,2536504,2502412,2537950,2505182,1636,1975,1804,478,-1347,-977,-3235,5542,54,40,879
1127454,2536784,2502592,2538147,2505379,1624,2232,2158,1104,-1275,-1313,-3392,5468,54,40,879
1128455,2537100,2502756,2538344,2505576,1347,2348,2477,1641,-1213,-1567,-2863,5244,67,51,880
1129456,2537384,2502956,2538541,2505773,1510,2122,2725,2023,-1276,-1659,-1409,4444,67,51,880
1130457,2537652,2503160,2538738,2505970,1579,2094,2929,2059,-1461,-1520,-673,3411,67,52,880
1131458,2537920,2503364,2538935,2506167,1548,2092,3089,1855,-1676,-793,-366,2606,67,52,880
1132459,2538172,2503564,2539132,2506364,1623,2116,3259,1393,-1822,-14,-344,1497,45,41,879
1133460,2538428,2503764,2539329,2506561,1573,2116,3394,599,-1824,649,-949,807,45,41,879
1134461,2538668,2503948,2539526,2506758,1655,2221,3485,-185,-1696,1039,-1398,720,52,51,881
1135462,2538920,2504144,2539723,2506955,1555,2148,3531,-905,-1510,871,-1396,936,52,51,881
1136463,2539140,2504348,2539920,2507152,1745,2095,3515,-1443,-1314,396,-1538,1328,63,49,881
1137464,2539388,2504572,2540117,2507349,1548,1959,3462,-1829,-1119,93,-1793,1686,63,49,881
1138465,2539604,2504760,2540314,2507546,1740,2188,3341,-1990,-948,-14,-1533,2382,62,51,881
1139466,2539832,2504960,2540511,2507743,1651,2112,3097,-1883,-806,-73,-1186,3280,62,51,881
1140467,2540036,2505152,2540708,2507940,1799,2165,2752,-1568,-655,-478,-1298,3814,44,42,880
1141468,2540240,2505336,2540905,2508137,1796,2221,2313,-984,-472,-1007,-1476,4717,44,42,880
1142469,2540404,2505508,2541102,2508334,2060,2307,1819,-207,-324,-1545,-1226,5099,58,34,881
1143470,2540548,2505696,2541299,2508531,2209,2212,1308,535,-260,-1843,-668,4943,58,34,881
1144471,2540708,2505892,2541496,2508728,2125,2164,792,1188,-238,-1959,-376,4656,37,36,880
1145472,2540852,2506124,2541693,2508925,2248,1923,305,1574,-219,-1949,-50,3845,37,36,880
1146473,2540976,2506332,2541890,2509122,2405,2070,-120,1703,-188,-1912,57,3053,46,48,879
1147474,2541112,2506520,2542087,2509319,2358,2199,-422,1587,-102,-1994,-194,2308,46,48,879
1148475,2541240,2506704,2542284,2509516,2438,2230,-622,1261,55,-2127,-508,1926,30,39,877
1149476,2541372,2506880,2542481,2509713,2442,2289,-763,906,261,-2255,-781,1720,30,39,877
1150477,2541508,2507076,2542678,2509910,2444,2166,-890,596,494,-2334,-1109,1846,27,43,877
1151478,2541624,2507296,2542875,2510107,2604,2006,-983,400,725,-2536,-1463,2220,27,43,877
1152479,2541724,2507496,2543072,2510304,2748,2130,-1040,195,947,-2705,-1770,2216,21,48,875
1153480,2541844,2507692,2543269,2510501,2657,2156,-1069,-23,1147,-2662,-1706,2247,21,48,875
1154481,2541936,2507884,2543466,2510698,2878,2184,-1093,-274,1320,-2666,-1633,2356,39,33,875
1155483,2542032,2508056,2543663,2510895,2897,2320,-1103,-482,1473,-2839,-1859,2456,39,33,875
1156483,2542132,2508228,2543860,2511092,2916,2332,-1093,-627,1584,-3018,-1726,2704,17,38,876
1157484,2542232,2508424,2544057,2511289,2959,2184,-1079,-725,1652,-2903,-1188,3038,17,38,876
1158486,2542316,2508624,2544254,2511486,3108,2157,-1107,-670,1665,-2671,-819,3690,33,45,874
1159486,2542460,2508812,2544451,2511683,2757,2237,-1184,-437,1658,-2714,-1046,4135,33,45,874
1160487,2542596,2509000,2544648,2511880,2834,2241,-1294,-155,1680,-2926,-1378,4670,22,31,872
1161488,2542768,2509176,2544845,2512077,2621,2326,-1435,232,1700,-3110,-1104,5097,22,31,872
1162489,2542916,2509376,2545042,2512274,2793,2175,-1582,592,1693,-3256,-865,5005,18,47,872
1163490,2543040,2509560,2545239,2512471,2975,2282,-1722,781,1666,-3158,-833,4654,18,47,872
1164491,2543152,2509760,2545436,2512668,3088,2180,-1833,718,1633,-2715,-532,4156,39,37,873
1165492,2543268,2510028,2545633,2512865,3099,1725,-1937,552,1624,-2095,-688,3987,39,37,873
1166493,2543352,2510280,2545830,2513062,3349,1801,-2022,282,1639,-1595,-878,3752,24,44,874
1167495,2543464,2510512,2546027,2513259,3212,1912,-2091,-12,1678,-1371,-1059,3912,24,44,874
1168495,2543568,2510740,2546224,2513456,3304,1924,-2135,-276,1733,-1284,-1214,4085,35,49,873
1169496,2543728,2510940,2546421,2513653,2970,2098,-2143,-558,1752,-1138,-1046,4215,35,49,873
1170497,2543868,2511228,2546618,2513850,3121,1509,-2120,-828,1718,-1027,-1094,4293,32,56,874
1171498,2544036,2511520,2546815,2514047,2959,1442,-2101,-1110,1703,-1163,-1594,4487,32,56,874
1172499,2544168,2511804,2547012,2514244,3213,1455,-2083,-1318,1750,-1380,-1997,4971,23,57,872
1173507,2544268,2512068,2547242,2514474,3470,1565,-2024,-1598,1829,-1049,-1985,4888,23,57,872
1174501,2544356,2512304,2547439,2514671,3594,1723,-1923,-1963,1861,-206,-1672,4513,26,54,873
1175502,2544424,2512644,2547636,2514868,3776,1011,-1787,-2416,1835,702,-1202,4282,26,54,873
1176516,2544472,2512932,2547833,2515065,3800,1296,-1614,-2917,1746,1136,-840,4289,30,58,876
1177517,2544516,2513240,2548030,2515262,3800,1123,-1450,-3215,1631,1250,-965,5224,30,58,876
1178518,2544584,2513520,2548227,2515459,3800,1262,-1313,-3202,1563,1401,-1113,6051,5,50,872
1179519,2544668,2513780,2548424,2515656,3800,1359,-1161,-3110,1489,1799,-646,6203,5,50,872
1180507,2544784,2514120,2548621,2515853,3755,797,-967,-3016,1354,2205,-414,6204,8,52,871
1181508,2544900,2514460,2548818,2516050,3790,734,-730,-2978,1169,2438,-426,6129,8,52,871
1182509,2545044,2514744,2549015,2516247,3640,1046,-464,-2863,936,2372,-476,6493,30,66,871
1183510,2545208,2515032,2549212,2516444,3530,982,-194,-2649,642,2253,-560,6755,30,66,871
1184511,2545392,2515320,2549409,2516641,3412,942,74,-2298,392,2278,-1082,7108,18,65,870
1185525,2545504,2515620,2549606,2516838,3800,822,365,-1946,237,2533,-889,6958,18,65,870
1186526,2545604,2515948,2549803,2517035,3800,590,677,-1640,91,2669,-198,7136,30,68,873
1187527,2545704,2516208,2550000,2517232,3800,988,1006,-1311,-120,2828,378,7069,30,68,873
1188528,2545768,2516460,2550197,2517429,3800,1013,1385,-1095,-379,3340,1000,6314,37,65,873
1189529,2545836,2516692,2550394,2517626,3800,1123,1784,-870,-636,3701,1278,6342,37,65,873
1190530,2545928,2516940,2550591,2517823,3800,1001,2180,-698,-887,3524,1347,6224,30,47,872
1191531,2546092,2517200,2550788,2518020,3800,898,2527,-406,-1055,3138,366,6624,30,47,872
1192520,2546300,2517472,2550985,2518217,3561,791,2790,177,-1138,2724,-225,7163,14,49,872
1193520,2546556,2517716,2551182,2518414,3236,945,3066,726,-1246,2510,1018,6451,14,49,872
1194521,2546876,2517976,2551379,2518611,2783,818,3403,1022,-1478,2643,2108,5670,42,44,870
1195522,2547168,2518136,2551576,2518808,2918,1459,3708,1324,-1741,2818,2116,5900,42,44,870
1196523,2547392,2518376,2551773,2519005,3332,940,3970,1717,-1886,2773,1835,5845,62,55,872
1197524,2547608,2518656,2551970,2519202,3374,653,4157,2215,-1873,2873,957,6118,62,55,872
1198525,2547816,2518912,2552167,2519399,3420,778,4269,2759,-1776,2994,639,6022,63,53,877
1199526,2548008,2519104,2552364,2519596,3523,1180,4341,3203,-1714,2659,656,5427,63,53,877
1200527,2548192,2519288,2552561,2519793,3579,1236,4390,3548,-1744,2107,311,4979,44,52,877
1201541,2548316,2519512,2552758,2519990,3800,975,4445,3631,-1795,1770,7,4038,44,52,877
1202529,2548476,2519724,2552955,2520187,3780,1043,4482,3667,-1749,2081,-596,4008,29,37,876
1203530,2548644,2520004,2553152,2520384,3744,581,4464,3675,-1616,2728,-836,3259,29,37,876
1204531,2548832,2520224,2553349,2520581,3624,946,4441,3456,-1448,3299,-399,2113,39,41,873
1205532,2549020,2520432,2553546,2520778,3627,1017,4445,2981,-1294,3258,-15,1692,39,41,873
1206533,2549216,2520636,2553743,2520975,3579,1038,4402,2517,-1114,3020,-498,2009,28,57,871
1207534,2549440,2520828,2553940,2521172,3393,1116,4243,2411,-894,2813,-649,2846,28,57,871
1208535,2549612,2521040,2554137,2521369,3730,984,4011,2526,-709,2550,-221,2976,44,55,874
1209536,2549788,2521248,2554334,2521566,3715,1004,3755,2618,-627,2439,45,2827,44,55,874
1210550,2549952,2521468,2554531,2521763,3800,919,3437,2762,-652,2553,79,3252,54,47,874
1211538,2550144,2521668,2554728,2521960,3634,1043,3083,3003,-712,2590,-150,3420,54,47,874
1212539,2550364,2521852,2554925,2522157,3449,1149,2723,3440,-772,2193,-404,3779,20,35,875
1213540,2550608,2521988,2555122,2522354,3279,1475,2398,3815,-820,1345,-387,3485,20,35,875
1214541,2550860,2522164,2555319,2522551,3206,1235,2122,4068,-866,706,-54,3230,49,48,873
1215542,2551084,2522328,2555516,2522748,3370,1325,1905,4259,-961,429,433,2719,49,48,873
1216543,2551260,2522480,2555713,2522945,3680,1420,1742,4135,-1143,417,775,1778,41,27,872
1217544,2551424,2522624,2555910,2523142,3771,1493,1595,3727,-1414,726,1131,1334,41,27,872
1218545,2551636,2522748,2556107,2523339,3465,1650,1426,3232,-1694,1142,1324,943,41,26,874
1219546,2551804,2522892,2556304,2523536,3753,1549,1188,2837,-1926,1072,1350,1416,41,26,874
1220547,2552012,2523016,2556501,2523733,3499,1706,931,2506,-2141,374,1342,1318,26,27,873
1221548,2552236,2523136,2556698,2523930,3388,1764,725,2040,-2347,-295,1361,935,26,27,873
1222550,2552464,2523268,2556895,2524127,3351,1718,544,1419,-2540,-176,1756,646,53,27,870
1223550,2552664,2523372,2557092,2524324,3525,1934,357,670,-2707,554,1891,346,53,27,870
1224551,2552832,2523488,2557289,2524521,3739,1895,99,-102,-2797,1506,1833,530,41,21,871
1225552,2553024,2523636,2557486,2524718,3592,1717,-210,-859,-2803,1937,1753,679,41,21,871
1226553,2553188,2523808,2557683,2524915,3782,1578,-507,-1528,-2764,1762,1861,849,31,21,872
1227554,2553376,2524004,2557880,2525112,3637,1428,-755,-2001,-2759,1030,2069,1348,31,21,872
1228555,2553560,2524200,2558077,2525309,3669,1429,-956,-2486,-2828,603,2642,1374,26,36,868
1229569,2553672,2524388,2558274,2525506,3800,1484,-1139,-3037,-2954,909,3040,1587,26,36,868
1230570,2553832,2524576,2558471,2525703,3800,1488,-1339,-3426,-3058,1594,2563,2094,40,39,871
1231559,2554008,2524744,2558668,2525900,3784,1626,-1561,-3740,-3143,2134,2740,2257,40,39,871
1232572,2554156,2524888,2558865,2526097,3800,1799,-1779,-3981,-3207,2462,2530,2564,40,30,872
1233560,2554360,2525040,2559062,2526294,3629,1770,-1958,-4213,-3254,2168,2190,2526,40,30,872
1234561,2554560,2525208,2559259,2526491,3653,1682,-2104,-4403,-3274,1799,1476,2958,40,43,870
1235562,2554748,2525404,2559456,2526688,3733,1508,-2276,-4449,-3274,1662,924,3325,40,43,870
1236563,2554952,2525600,2559653,2526885,3631,1508,-2438,-4527,-3237,1943,907,3218,43,30,870
1237577,2555112,2525764,2559850,2527082,3800,1724,-2606,-4537,-3153,2418,705,3866,43,30,870
1238578,2555260,2525936,2560047,2527279,3800,1685,-2773,-4480,-3104,2760,939,3810,39,27,871
1239579,2555416,2526092,2560244,2527476,3800,1803,-2913,-4421,-3120,3270,1220,3776,39,27,871
1240567,2555624,2526260,2560441,2527673,3661,1740,-3050,-4251,-3162,3766,1250,4272,41,39,870
1241581,2555796,2526432,2560638,2527870,3800,1727,-3179,-4045,-3206,3898,1244,4354,41,39,870
1242569,2556040,2526568,2560835,2528067,3429,1979,-3259,-3826,-3242,3840,1147,4427,33,45,868
1243570,2556276,2526768,2561032,2528264,3463,1578,-3263,-3697,-3283,3691,1087,4138,33,45,868
1244571,2556476,2526984,2561229,2528461,3686,1470,-3214,-3590,-3346,3543,909,4300,34,48,870
1245572,2556696,2527184,2561426,2528658,3552,1569,-3170,-3305,-3423,3583,433,4852,34,48,870
1246573,2556888,2527380,2561623,2528855,3730,1595,-3131,-2961,-3514,3768,206,4885,44,32,870
1247575,2557140,2527548,2561820,2529052,3332,1782,-3052,-2547,-3630,3993,133,5017,44,32,870
1248575,2557388,2527724,2562017,2529249,3336,1743,-2941,-2084,-3779,3897,12,5230,41,31,873
1249576,2557660,2527936,2562214,2529446,3154,1511,-2778,-1578,-3934,3504,-128,5457,41,31,873
1250577,2557916,2528156,2562411,2529643,3229,1451,-2575,-1068,-4094,2982,348,5468,53,46,871
1251578,2558176,2528344,2562608,2529840,3177,1655,-2327,-656,-4285,2774,738,5070,53,46,871
1252579,2558440,2528556,2562805,2530037,3123,1499,-2082,-286,-4521,3099,599,4976,48,49,873
1253581,2558740,2528720,2563002,2530234,2853,1814,-1766,-79,-4755,3492,422,4233,48,49,873
1254582,2558996,2528908,2563199,2530431,3104,1668,-1351,-97,-4932,3565,491,3431,43,42,875
1255583,2559252,2529088,2563396,2530628,3079,1726,-910,-189,-5051,2775,400,3695,43,42,875
1256590,2559540,2529300,2563626,2530858,2854,1534,-551,54,-5118,1514,-6,4795,58,52,875
1257584,2559800,2529508,2563823,2531055,3002,1554,-279,551,-5208,1126,172,4981,58,52,875
1258586,2560060,2529708,2564020,2531252,2975,1603,-31,1042,-5335,1601,741,4628,59,48,876
1259586,2560380,2529920,2564217,2531449,2547,1522,203,1463,-5451,1859,1071,4775,59,48,876
1260587,2560684,2530096,2564414,2531646,2601,1757,407,1959,-5531,1348,1022,4918,43,48,874
1261588,2560984,2530304,2564611,2531843,2580,1552,559,2488,-5568,349,746,5036,43,48,874
1262589,2561292,2530488,2564808,2532040,2483,1709,663,3034,-5567,-304,619,5127,60,40,875
1263590,2561580,2530724,2565005,2532237,2569,1366,745,3609,-5549,-158,849,4911,60,40,875
1264591,2561884,2530948,2565202,2532434,2422,1430,832,4059,-5520,75,1314,4275,55,39,879
1265592,2562268,2531160,2565399,2532631,1840,1498,900,4277,-5482,-49,1869,3871,55,39,879
1266593,2562576,2531368,2565596,2532828,2268,1519,934,4476,-5424,-377,2089,3795,56,51,878
1267594,2562856,2531544,2565793,2533025,2406,1728,961,4608,-5349,-583,2385,3326,56,51,878
1268595,2563288,2531716,2565990,2533222,1354,1764,978,4663,-5272,-267,2494,3070,69,37,879
1269596,2563680,2531884,2566187,2533419,1518,1803,972,4671,-5179,555,2517,2796,69,37,879
1270598,2564016,2532012,2566384,2533616,1808,2083,893,4682,-4955,1322,2110,2883,50,30,881
1271598,2564416,2532196,2566581,2533813,1319,1739,318,5445,-4533,1286,711,5622,50,30,881
1272599,2564880,2532408,2566778,2534010,803,1558,-469,6212,-4027,441,341,4017,69,37,877
1273600,2565284,2532552,2566975,2534207,1087,2007,-1108,6663,-3624,-170,1569,3260,69,37,877
1274601,2565624,2532744,2567172,2534404,1424,1709,-1576,6577,-3229,-302,1857,1841,87,52,882
1275602,2565956,2532916,2567369,2534601,1415,1845,-1867,5884,-2860,-224,2655,8,87,52,882
1276603,2566284,2533088,2567566,2534798,1383,1857,-2015,4777,-2663,-128,4234,-934,63,49,883
1277604,2566608,2533228,2567763,2534995,1352,2082,-2127,3661,-2572,86,4728,-678,63,49,883
1278605,2566912,2533412,2567960,2535192,1430,1813,-2356,2970,-2399,77,3619,719,61,46,883
1279606,2567216,2533576,2568157,2535389,1384,1953,-2658,2616,-2191,-319,2509,1256,61,46,883
1280607,2567492,2533748,2568354,2535586,1524,1914,-2951,2516,-2025,-531,1843,2212,73,44,882
1281608,2567784,2533916,2568551,2535783,1383,1952,-3286,2701,-1880,-833,1495,3110,73,44,882
1282609,2568064,2534084,2568748,2535980,1421,1966,-3639,2963,-1865,-1467,2708,2964,56,37,880
1283610,2568320,2534224,2568945,2536177,1545,2166,-3913,3075,-2078,-1906,4167,2406,56,37,880
1284611,2568620,2534392,2569142,2536374,1225,2004,-4099,3045,-2435,-2172,4011,2159,65,35,881
1285612,2568888,2534528,2569339,2536571,1394,2231,-4235,2970,-2704,-2251,2131,2124,65,35,881
1286614,2569136,2534652,2569536,2536768,1497,2338,-4346,2857,-2791,-2454,677,1935,63,43,882
1287614,2569440,2534772,2569733,2536965,1100,2398,-4451,2730,-2721,-2811,-121,2165,63,43,882
1288615,2569684,2534920,2569930,2537162,1455,2245,-4565,2658,-2515,-2957,-1109,2213,47,37,880
1289616,2569908,2535044,2570127,2537359,1568,2428,-4672,2580,-2204,-3078,-2135,2218,47,37,880
1290618,2570128,2535200,2570324,2537556,1583,2246,-4726,2530,-1849,-3374,-2611,2266,50,40,880
1291618,2570348,2535336,2570521,2537753,1573,2398,-4712,2255,-1488,-3528,-3254,1793,50,40,880
1292619,2570548,2535448,2570718,2537950,1696,2586,-4599,1861,-1076,-3335,-3966,1622,41,31,880
1293620,2570764,2535576,2570915,2538147,1588,2516,-4399,1376,-555,-3135,-4613,1527,41,31,880
1294622,2570968,2535712,2571112,2538344,1660,2494,-4130,888,49,-3023,-5040,1446,32,37,878
1295622,2571128,2535844,2571309,2538541,1951,2548,-3858,366,706,-2999,-5525,1624,32,37,878
1296623,2571260,2536008,2571506,2538738,2155,2363,-3636,-121,1400,-2841,-5936,1932,49,28,879
1297624,2571416,2536172,2571703,2538935,2023,2378,-3504,-492,2084,-2618,-6012,2443,49,28,879
1298625,2571552,2536352,2571900,2539132,2174,2286,-3416,-774,2729,-2597,-5922,2709,23,27,878
1299626,2571664,2536484,2572097,2539329,2362,2615,-3335,-1092,3268,-2464,-5902,3001,23,27,878
1300627,2571796,2536644,2572294,2539526,2265,2457,-3293,-1325,3667,-2119,-5658,3435,20,26,876
1301628,2571900,2536848,2572491,2539723,2481,2180,-3295,-1269,3962,-1878,-5592,4619,20,26,876
1302630,2572036,2537008,2572688,2539920,2308,2471,-3350,-1041,4132,-1664,-5640,5185,37,41,877
1303631,2572228,2537176,2572885,2540117,1960,2435,-3433,-933,4208,-1394,-5854,4887,37,41,877
1304631,2572388,2537376,2573082,2540314,2177,2234,-3487,-799,4235,-1024,-5645,5255,45,43,873
1305632,2572544,2537548,2573279,2540511,2220,2421,-3560,-660,4123,-496,-4983,5511,45,43,873
1306633,2572704,2537704,2573476,2540708,2212,2539,-3683,-502,3888,80,-4262,5810,40,45,874
1307634,2572852,2537896,2573673,2540905,2308,2317,-3771,-415,3654,487,-3430,5491,40,45,874
1308635,2573004,2538036,2573870,2541102,2303,2667,-2826,846,3358,2754,-1822,18212,37,38,877
1309636,2573164,2538236,2574067,2541299,2269,2292,1027,7798,2584,8982,427,32767,37,38,877
1310637,2573312,2538396,2574264,2541496,2367,2559,4493,12595,1901,4832,-954,25920,43,25,875
1311638,2573452,2538568,2574461,2541693,2442,2495,5172,11821,1484,1895,239,224,43,25,875
1312639,2573612,2538744,2574658,2541890,2333,2480,4430,7939,1112,2316,59,-2823,45,41,876
1313640,2573760,2538948,2574855,2542087,2430,2302,3789,4343,852,2804,-1205,-2608,45,41,876
1314641,2573892,2539156,2575052,2542284,2558,2273,3052,2598,904,3116,-635,1201,43,30,876
1315642,2574024,2539364,2575249,2542481,2588,2269,1721,2246,1009,3286,439,3813,43,30,876
1316643,2574148,2539564,2575446,2542678,2670,2318,572,1582,645,2137,1332,1051,45,50,874
1317644,2574272,2539760,2575643,2542875,2702,2344,-2,-97,46,1172,1051,-753,45,50,874
1318645,2574412,2539948,2575840,2543072,2627,2398,-401,-2041,-406,1028,470,240,30,33,875
1319646,2574580,2540156,2576037,2543269,2466,2270,-592,-3798,-595,417,-114,-257,30,33,875
1320647,2574744,2540388,2576234,2543466,2505,2105,-452,-5625,-624,-450,-351,-799,22,50,874
1321648,2574908,2540624,2576431,2543663,2520,2063,-313,-6800,-636,-1093,-1461,1788,22,50,874
1322649,2575084,2540876,2576628,2543860,2454,1940,-299,-7245,-626,-2005,-2876,3947,25,45,874
1323650,2575252,2541148,2576825,2544057,2518,1782,-236,-7262,-543,-2601,-3744,4880,25,45,874
1324651,2575412,2541348,2577022,2544254,2584,2232,-61,-6922,-405,-2881,-3666,5637,50,53,875
1325652,2575588,2541456,2577219,2544451,2493,2846,160,-6436,-242,-3755,-2800,6579,50,53,875
1326653,2575760,2541552,2577416,2544648,2530,2966,373,-5724,-143,-4588,-1898,7352,40,56,875
1327654,2575904,2541648,2577613,2544845,2729,3011,585,-4858,-142,-4866,-1321,7522,40,56,875
1328655,2576100,2541800,2577810,2545042,2404,2681,826,-3896,-125,-4870,-1122,7790,40,37,877
1329656,2576244,2541980,2578007,2545239,2753,2515,1064,-2932,-12,-4536,-1010,7854,40,37,877
1330657,2576432,2542208,2578204,2545436,2482,2201,1291,-1979,226,-4169,-1241,7751,29,33,872
1331658,2576592,2542476,2578401,2545633,2673,1921,1545,-1106,554,-3688,-1280,7361,29,33,872
1332659,2576752,2542784,2578598,2545830,2691,1623,1845,-391,842,-3053,-915,6658,30,46,870
1333660,2576920,2543180,2578795,2546027,2653,986,2208,84,1017,-2595,-497,5828,30,46,870
1334661,2577096,2543456,2578992,2546224,2613,1702,2589,363,1090,-2170,170,5228,45,66,873
1335662,2577236,2543828,2579189,2546421,2864,1025,2924,507,1090,-1522,961,4789,45,66,873
1336663,2577408,2544184,2579386,2546618,2675,1056,3172,588,1080,-756,1260,4578,25,62,876
1337664,2577584,2544524,2579583,2546815,2659,1093,3327,607,1088,86,806,4303,25,62,876
1338665,2577756,2544872,2579780,2547012,2696,978,3394,563,1079,877,119,4018,42,69,878
1339675,2577904,2545204,2580010,2547242,2882,1033,3405,445,1002,1434,121,3676,42,69,878
1340667,2578084,2545476,2580207,2547439,2690,1375,3373,226,759,1888,254,3329,40,69,878
1341668,2578244,2545800,2580404,2547636,2832,995,3277,-32,343,2289,207,3099,40,69,878
1342669,2578420,2546156,2580601,2547833,2741,725,3110,-301,-140,2606,167,2994,28,58,879
1343670,2578584,2546544,2580798,2548030,2831,442,2864,-522,-658,3009,325,3046,28,58,879
1344671,2578772,2546872,2580995,2548227,2685,760,2562,-726,-1240,3316,727,2963,43,74,878
1345672,2578932,2547240,2581192,2548424,2878,435,2221,-931,-1888,3476,1236,2915,43,74,878
1346673,2579072,2547620,2581389,2548621,3028,279,1826,-1061,-2555,3734,1204,3182,39,74,879
