"Data file recorded 2014/9/24  14:0:14"
"%  Right Stride Frequency         = 7.0"
"%  Left Stride Frequency         = 7.0"
"%  Phase (Fractional)         = 32768.0"
"%  Experiment.py "
"%  Motor Gains    = [1800, 200, 100, 0, 0, 1800, 200, 100, 0, 0]
"% Columns: "
"% time | Right Leg Pos | Left Leg Pos | Commanded Right Leg Pos | Commanded Left Leg Pos | DCR | DCL | GyroX | GryoY | GryoZ | AX | AY | AZ | RBEMF | LBEMF | VBatt "
11497,12594592,13421996,12599170,13418370,2323,-1257,119,916,-1192,333,-453,3845,-14,-8,885
12490,12594600,13422004,12599638,13418838,2500,-1106,104,926,-1197,370,-469,3852,-4,5,885
13491,12594620,13421988,12600106,13419306,2623,-744,90,932,-1199,370,-467,3866,-4,5,885
14493,12594680,13421992,12600574,13419774,2554,-665,80,953,-1201,338,-472,3860,12,3,870
15493,12594768,13421996,12601042,13420242,2547,-462,70,934,-1193,376,-573,3860,12,3,870
16494,12594892,13421984,12601510,13420710,2475,-151,55,892,-1192,417,-454,3837,17,-6,869
17495,12595048,13421992,12601978,13421178,2413,-74,35,876,-1187,495,-588,3840,17,-6,869
18496,12595280,13422004,12602446,13421646,2043,101,16,870,-1180,586,-561,3745,23,-4,870
19497,12595516,13421984,12602914,13422114,2122,515,4,765,-1176,757,-290,3648,23,-4,870
20498,12595796,13421988,12603382,13422582,1930,569,9,643,-1164,985,-477,3595,37,-4,874
21499,12596100,13421996,12603850,13423050,1853,747,31,513,-1160,1160,-473,3488,37,-4,874
22500,12596412,13422004,12604318,13423518,1874,949,44,419,-1168,1237,-408,3669,66,14,875
23501,12596756,13422000,12604786,13423986,1729,1231,54,410,-1194,1187,-244,3819,66,14,875
24502,12597076,13421996,12605254,13424454,1946,1439,42,533,-1227,1019,-433,4335,45,3,875
25503,12597420,13422000,12605722,13424922,1853,1594,39,671,-1281,890,-415,4308,45,3,875
26504,12597816,13421992,12606190,13425390,1560,1878,44,870,-1364,876,-486,4621,49,16,873
27505,12598148,13422032,12606658,13425858,2022,1767,49,1179,-1448,819,-535,4923,49,16,873
28506,12598440,13422152,12607126,13426326,2351,1421,72,1465,-1524,712,-537,4805,71,13,871
29507,12598740,13422252,12607594,13426794,2376,1708,92,1721,-1590,608,-810,4784,71,13,871
30508,12598960,13422396,12608062,13427262,2987,1577,114,1893,-1611,465,-1546,4593,62,33,870
31509,12599284,13422504,12608530,13427730,2402,1960,152,2020,-1592,503,-1961,4478,62,33,870
32510,12599592,13422656,12608998,13428198,2574,1825,227,2036,-1577,396,-1184,4134,69,32,868
33511,12599952,13422840,12609466,13428666,2298,1751,294,2067,-1601,197,-189,4312,69,32,868
34512,12600260,13423004,12609934,13429134,2696,2011,316,2103,-1647,74,-57,4365,59,42,867
35513,12600572,13423188,12610402,13429602,2741,2012,330,2114,-1693,-29,30,4292,59,42,867
36514,12600908,13423432,12610870,13430070,2651,1737,350,2213,-1728,-94,130,4510,57,50,867
37515,12601200,13423676,12611338,13430538,3005,1836,371,2331,-1734,-171,-24,4538,57,50,867
38516,12601500,13423948,12611806,13431006,3031,1749,387,2504,-1722,-167,-84,4754,68,52,864
39517,12601856,13424236,12612274,13431474,2732,1729,438,2718,-1660,-229,-261,4894,68,52,864
40518,12602136,13424488,12612742,13431942,3291,2050,527,3024,-1558,-250,-590,5193,59,57,864
41519,12602428,13424792,12613210,13432410,3296,1799,654,3409,-1443,-259,-986,5400,59,57,864
42520,12602732,13425088,12613678,13432878,3295,1926,1108,4174,-1336,-492,-871,9326,62,53,866
43521,12603016,13425376,12614146,13433346,3503,2057,2020,5917,-1234,-783,-539,16663,62,53,866
44522,12603328,13425696,12614614,13433814,3399,1923,2561,6750,-1198,-708,-207,5845,64,62,862
45523,12603640,13426032,12615082,13434282,3470,1883,2590,6584,-1209,-676,236,3755,64,62,862
46537,12603908,13426404,12615550,13434750,3800,1701,2438,6085,-1193,-535,155,3459,74,66,860
47538,12604160,13426768,12616018,13435218,3800,1799,2355,5789,-1138,-464,138,3727,74,66,860
48526,12604468,13427116,12616486,13435686,3754,1953,2339,5656,-1038,-586,-2,3762,63,81,859
49540,12604748,13427464,12616954,13436154,3800,2007,2353,5576,-953,-480,209,3643,63,81,859
50541,12605040,13427880,12617422,13436622,3800,1607,2355,5403,-880,-459,-54,3573,65,75,858
51542,12605344,13428208,12617890,13437090,3800,2220,2374,5158,-742,-523,-1755,3617,65,75,858
52530,12605692,13428512,12618358,13437558,3799,2444,2421,5033,-595,-762,-2656,3854,59,67,857
53544,12606032,13428808,12618826,13438026,3800,2571,2455,4963,-486,-1169,-2804,3984,59,67,857
54545,12606356,13429100,12619294,13438494,3800,2676,2454,5053,-464,-1248,-2003,4569,77,59,857
55546,12606696,13429384,12619762,13438962,3800,2808,2387,5254,-555,-1378,-772,4889,77,59,857
56547,12607004,13429652,12620230,13439430,3800,2997,2239,5469,-764,-1681,321,4944,69,48,855
57548,12607312,13429924,12620698,13439898,3800,3061,2049,5678,-1057,-1740,879,4922,69,48,855
58549,12607648,13430148,12621166,13440366,3800,3470,1848,5697,-1407,-1732,1235,4363,54,63,851
59550,12608012,13430388,12621634,13440834,3800,3472,1680,5596,-1739,-1601,1547,4056,54,63,851
60545,12608364,13430612,12615086,13434286,3770,3186,1564,5267,-2004,-1439,1839,3358,72,57,850
61539,12608740,13430856,12615554,13434754,3661,3160,1459,4738,-2153,-1095,1029,3050,72,57,850
62565,12609096,13431004,12616022,13435222,3800,3800,1341,4329,-2226,-977,-293,3542,79,42,848
63553,12609492,13431136,12616490,13435690,3620,3800,1225,3927,-2320,-1389,-984,3274,79,42,848
64555,12609884,13431280,12616958,13436158,3679,3800,1077,3414,-2492,-1757,-452,2850,85,25,851
65568,12610240,13431408,12617426,13436626,3800,3800,906,2703,-2732,-1790,880,2436,85,25,851
66557,12610628,13431564,12617894,13437094,3792,3800,696,1782,-2968,-1376,1246,2322,86,29,846
67570,12611012,13431736,12618362,13437562,3800,3800,443,1038,-3118,-1241,577,2586,86,29,846
68571,12611384,13431900,12618830,13438030,3800,3800,193,253,-3134,-1515,-290,2394,84,43,845
69572,12611788,13432044,12619298,13438498,3800,3800,7,-636,-3069,-1105,-849,2489,84,43,845
70561,12612212,13432212,12619766,13438966,3698,3800,276,-1568,-2961,-233,-1141,5500,76,30,844
71574,12612592,13432360,12620234,13439434,3800,3800,1806,-2375,-2876,690,-1133,17097,76,30,844
72563,12613012,13432492,12620702,13439902,3786,3800,3159,-3045,-2772,400,-1680,9241,85,42,844
73576,12613384,13432628,12621170,13440370,3800,3800,3366,-3701,-2537,10,-1718,3584,85,42,844
74577,12613796,13432748,12621638,13440838,3800,3800,2957,-3938,-2255,305,-1228,4306,77,41,845
75578,12614196,13432868,12622106,13441306,3800,3800,2553,-4136,-2017,416,-847,3948,77,41,845
76580,12614572,13433012,12622574,13441774,3800,3800,2287,-4397,-1871,620,-496,4240,88,29,845
77580,12614980,13433152,12623042,13442242,3800,3800,2130,-4494,-1756,749,-6,4670,88,29,845
78581,12615348,13433296,12623510,13442710,3800,3800,2000,-4567,-1658,1096,606,4484,68,42,845
79582,12615724,13433424,12623978,13443178,3800,3800,1862,-4491,-1598,1442,620,4960,68,42,845
80584,12616092,13433560,12624446,13443646,3800,3800,1765,-4371,-1548,1439,541,5017,62,27,844
81584,12616444,13433688,12624914,13444114,3800,3800,1695,-4155,-1564,1797,866,5326,62,27,844
82585,12616796,13433820,12625382,13444582,3800,3800,1652,-3961,-1672,2134,1276,4894,65,41,844
83586,12617160,13433972,12625850,13445050,3800,3800,1665,-3923,-1836,2213,1481,4640,65,41,844
84587,12617468,13434112,12626318,13445518,3800,3800,1719,-3852,-2024,2282,1429,4568,64,38,844
85588,12617784,13434252,12626786,13445986,3800,3800,1805,-3931,-2222,2414,1339,4033,64,38,844
86589,12618156,13434392,12627254,13446454,3800,3800,1913,-3947,-2427,2464,1331,3949,56,30,843
87590,12618488,13434528,12627722,13446922,3800,3800,2047,-4054,-2634,2379,1160,3458,56,30,843
88592,12618796,13434664,12628190,13447390,3800,3800,2192,-4208,-2845,2225,941,3336,64,25,844
89593,12619196,13434812,12628658,13447858,3800,3800,2329,-4313,-3052,1999,1226,3419,64,25,844
90594,12619608,13434920,12629126,13448326,3800,3800,2442,-4409,-3254,1846,1488,3235,65,23,844
91595,12620068,13435052,12629594,13448794,3800,3800,2526,-4441,-3457,1619,1165,3423,65,23,844
92596,12620556,13435192,12630062,13449262,3800,3800,2643,-4395,-3597,1029,233,3417,86,27,843
93584,12621168,13435344,12630530,13449730,3356,3800,2788,-4296,-3690,568,-538,3534,86,27,843
94585,12621792,13435496,12630998,13450198,3214,3800,2938,-4078,-3767,126,-902,3607,102,27,845
95593,12622436,13435660,12631470,13450670,3015,3800,3056,-3811,-3832,-312,-1039,3711,102,27,845
96587,12623184,13435820,12631938,13451138,2243,3800,3135,-3529,-3871,-371,-1260,3638,125,46,850
97588,12623844,13436020,12632406,13451606,2711,3800,3187,-3221,-3844,-574,-1128,3605,125,46,850
98589,12624460,13436192,12632874,13452074,2922,3800,3243,-2788,-3741,-958,-642,3611,119,55,852
99590,12625220,13436392,12633342,13452542,1896,3800,3243,-2485,-3603,-1473,-478,3090,119,55,852
100591,12625936,13436612,12633810,13453010,2064,3800,3225,-2254,-3372,-1937,-1163,2987,144,51,853
101592,12626652,13436808,12634278,13453478,1956,3800,3201,-1898,-3015,-2320,-2161,3198,144,51,853
102593,12627424,13437012,12634746,13453946,1474,3800,3203,-1548,-2617,-2868,-2446,3080,149,56,856
103594,12628124,13437220,12635214,13454414,1823,3800,3191,-1120,-2135,-3319,-2756,3475,149,56,856
104594,12628792,13437444,12635682,13454882,1936,3800,3199,-708,-1602,-3826,-2802,3297,136,46,856
105596,12629480,13437656,12636150,13455350,1717,3800,3199,-263,-1051,-4479,-2769,3408,136,46,856
106597,12630108,13437864,12636618,13455818,2022,3800,3210,134,-474,-5144,-2581,3426,118,56,858
107598,12630672,13438084,12637086,13456286,2381,3800,3209,532,119,-5423,-2290,3529,118,56,858
108599,12631304,13438304,12637554,13456754,1885,3800,3214,778,735,-5306,-1829,3043,126,47,858
109600,12631840,13438504,12638022,13457222,2457,3800,3226,850,1349,-4959,-1340,2650,126,47,858
110601,12632324,13438676,12638490,13457690,2776,3800,3224,647,1916,-4411,-984,1985,114,41,855
111602,12632836,13438864,12638958,13458158,2583,3800,3211,350,2455,-4000,-932,1865,114,41,855
112602,12633316,13439004,12639426,13458626,2779,3800,3182,-42,2957,-3476,-623,1602,101,35,854
113604,12633736,13439144,12639894,13459094,3176,3800,3111,-487,3433,-2876,-388,1678,101,35,854
114605,12634112,13439268,12640362,13459562,3492,3800,2951,-986,3853,-1906,236,1589,74,44,851
115618,12634448,13439412,12640830,13460030,3800,3800,2741,-1643,4200,-448,526,1123,74,44,851
116619,12634772,13439552,12641298,13460498,3800,3800,2460,-2354,4466,675,881,1141,89,30,849
117620,12635072,13439696,12641766,13460966,3800,3800,2133,-3183,4629,1485,899,868,89,30,849
118621,12635368,13439796,12642234,13461434,3800,3800,1711,-4041,4688,2385,688,1103,62,40,843
119622,12635612,13439916,12642702,13461902,3800,3800,1249,-4731,4649,3101,1130,1444,62,40,843
120623,12635800,13440012,12643170,13462370,3800,3800,665,-5136,4544,3780,1100,2375,66,34,844
121624,12636004,13440112,12643638,13462838,3800,3800,21,-5454,4402,4225,680,2862,66,34,844
122625,12636160,13440216,12644106,13463306,3800,3800,-677,-5537,4223,4489,366,3903,44,27,842
123627,12636356,13440316,12644574,13463774,3800,3800,-1404,-5275,3998,5354,390,4531,44,27,842
124627,12636576,13440396,12645042,13464242,3800,3800,-2101,-5017,3685,5988,710,4300,26,16,841
125629,12636740,13440492,12645510,13464710,3800,3800,-2784,-4644,3291,5871,697,5558,26,16,841
126629,12636900,13440544,12645978,13465178,3800,3800,-3451,-4002,2892,5635,572,6275,49,15,841
127630,12637024,13440628,12646446,13465646,3800,3800,-4036,-3506,2470,5579,546,5729,49,15,841
128631,12637112,13440712,12646914,13466114,3800,3800,-4517,-3079,1975,5707,726,5665,14,12,841
129632,12637192,13440784,12647382,13466582,3800,3800,-4878,-2815,1432,6045,952,5105,14,12,841
130640,12637268,13440852,12647854,13467054,3800,3800,-5107,-2889,855,6507,1009,3844,9,12,840
131635,12637364,13440940,12648322,13467522,3800,3800,-5234,-3131,296,6386,832,3564,9,12,840
132635,12637464,13441020,12648790,13467990,3800,3800,-5272,-3405,-186,5649,235,3524,12,11,840
133636,12637616,13441116,12649258,13468458,3800,3800,-5275,-3602,-605,4942,-497,3888,12,11,840
134637,12637804,13441200,12649726,13468926,3800,3800,-5228,-3778,-986,4474,-756,3653,15,12,841
135638,12638020,13441288,12650194,13469394,3800,3800,-5108,-3917,-1358,4113,-643,3685,15,12,841
136639,12638256,13441396,12650662,13469862,3800,3800,-4953,-3827,-1699,3289,-71,4431,56,32,841
137640,12638540,13441508,12651130,13470330,3800,3800,-4732,-3717,-1958,2029,150,4443,56,32,841
138641,12638832,13441616,12651598,13470798,3800,3800,-4451,-3533,-2159,1584,253,4765,50,33,843
139642,12639124,13441748,12652066,13471266,3800,3800,-4139,-3080,-2169,1924,-196,5593,50,33,843
140643,12639496,13441844,12652534,13471734,3800,3800,-3855,-2316,-2155,1515,375,6849,70,32,843
141644,12639836,13441968,12653002,13472202,3800,3800,-3581,-1070,-2166,91,-248,8112,70,32,843
142645,12640176,13442076,12653470,13472670,3800,3800,-3060,-166,-2194,-1051,294,6537,55,38,844
143646,12640560,13442188,12653938,13473138,3800,3800,-2348,564,-2133,-1732,-339,6956,55,38,844
144647,12640948,13442300,12654406,13473606,3800,3800,-1621,1445,-2044,-1348,1152,7188,64,17,844
145648,12641328,13442408,12654874,13474074,3800,3800,-981,2295,-2102,-1176,2554,6759,64,17,844
146649,12641776,13442512,12655342,13474542,3800,3800,-391,3010,-2072,-948,1375,6745,82,27,842
147651,12642232,13442628,12655810,13475010,3800,3800,100,3846,-1883,-1192,660,7381,82,27,842
148651,12642760,13442744,12656278,13475478,3800,3800,450,5057,-1617,-1260,471,8556,82,33,843
149652,12643268,13442880,12656746,13475946,3800,3800,704,6330,-1357,-1092,390,8050,82,33,843
150653,12643876,13443000,12657214,13476414,3800,3800,1014,7217,-1174,-1368,381,6870,88,36,845
151654,12644432,13443120,12657682,13476882,3800,3800,1356,7819,-1089,-1626,299,6590,88,36,845
152655,12645052,13443240,12658150,13477350,3800,3800,1737,8285,-1053,-1442,226,6097,124,28,846
153656,12645760,13443356,12658618,13477818,3800,3800,2042,8506,-937,-1095,-650,5508,124,28,846
154657,12646436,13443476,12659086,13478286,3800,3800,2259,8779,-738,-767,-1004,5655,129,38,846
155658,12647104,13443612,12659554,13478754,3800,3800,2414,8841,-568,-93,-868,4567,129,38,846
156647,12647924,13443724,12660022,13479222,3375,3800,2550,8642,-453,554,-903,3800,120,22,847
157648,12648676,13443840,12660490,13479690,3677,3800,2633,8289,-381,761,-994,3445,120,22,847
158649,12649408,13443956,12660958,13480158,3688,3800,2583,7865,-307,1339,-1135,3519,153,34,846
159650,12650224,13444064,12661426,13480626,3012,3800,2070,8215,-11,2501,-1461,6292,153,34,846
160651,12651036,13444204,12661894,13481094,2888,3800,1630,7930,109,1995,-777,2110,140,30,849
161651,12651800,13444324,12662362,13481562,3061,3800,1473,7299,-162,2442,-445,2051,140,30,849
162653,12652784,13444428,12662830,13482030,1461,3800,1347,6239,-481,3281,-863,1227,142,38,851
163654,12653684,13444556,12663298,13482498,1797,3800,1391,5147,-794,4009,-884,876,142,38,851
164655,12654540,13444680,12663766,13482966,1904,3800,1383,4188,-1126,4641,-1193,1152,165,43,852
165665,12655516,13444796,12664238,13483438,934,3800,1358,3369,-1500,4802,-1554,1212,165,43,852
166657,12656432,13444952,12664706,13483906,1115,3800,1277,2754,-1961,4441,-1444,1635,159,40,857
167658,12657248,13445076,12665174,13484374,1588,3800,1209,2221,-2533,3230,-793,1716,159,40,857
168659,12658220,13445204,12665642,13484842,393,3800,1112,2074,-3216,2352,-101,2824,164,44,858
169660,12658964,13445364,12666110,13485310,1698,3800,963,2321,-3916,1446,-103,3832,164,44,858
170661,12659752,13445536,12666578,13485778,1284,3800,772,2951,-4518,542,-618,4843,153,46,856
171662,12660452,13445760,12667046,13486246,1733,3800,565,3753,-5069,-521,-695,5122,153,46,856
172663,12661212,13445964,12667514,13486714,1231,3800,504,4056,-5583,-1299,-343,3526,134,39,857
173664,12661856,13446204,12667982,13487182,1880,3800,545,4340,-6066,-1736,136,3976,134,39,857
174665,12662512,13446492,12668450,13487650,1724,3800,681,4530,-6454,-2482,440,3090,129,61,858
175666,12663276,13446844,12668918,13488118,920,3800,841,4548,-6622,-2809,-365,2860,129,61,858
176667,12663952,13447168,12669386,13488586,1379,3800,1000,4512,-6511,-3072,-1725,2723,141,67,858
177667,12664468,13447528,12669854,13489054,2359,3800,1171,4495,-6163,-3421,-2900,2589,141,67,858
178669,12665092,13447940,12670322,13489522,1617,3800,1441,4251,-5802,-4114,-1826,1489,125,76,861
179670,12665676,13448320,12670790,13489990,1817,3800,1797,3560,-5476,-5030,-1534,394,125,76,861
180671,12666248,13448676,12671258,13490458,1847,3800,2163,2849,-5103,-5205,-1460,531,141,91,856
181672,12666812,13449084,12671726,13490926,1856,3800,2470,2206,-4640,-5246,-1334,445,141,91,856
182673,12667348,13449520,12672194,13491394,2002,3800,2725,1641,-4064,-5522,-1222,735,117,77,858
183674,12667792,13449920,12672662,13491862,2589,3800,2900,1140,-3425,-5690,-872,850,117,77,858
184674,12668252,13450284,12673130,13492330,2493,3800,3043,655,-2727,-5337,-408,822,112,76,858
185675,12668664,13450736,12673598,13492798,2818,3800,3112,317,-1990,-4866,54,1081,112,76,858
186677,12669040,13451200,12674066,13493266,3084,3800,3124,-27,-1271,-4306,342,1005,86,96,854
187678,12669420,13451624,12674534,13493734,3099,3800,3102,-506,-579,-3522,293,720,86,96,854
188679,12669736,13452168,12675002,13494202,3567,3800,2998,-996,130,-2571,-56,1012,71,93,854
189692,12669996,13452628,12675470,13494670,3800,3800,2909,-1493,835,-1761,-135,626,71,93,854
190694,12670232,13453132,12675938,13495138,3800,3800,2773,-2150,1445,-1089,-381,494,53,105,851
191694,12670484,13453656,12676406,13495606,3800,3800,2615,-2839,1935,-428,-442,393,53,105,851
192696,12670708,13454132,12676874,13496074,3800,3800,2411,-3465,2320,412,-342,877,57,93,845
193696,12670920,13454724,12677342,13496542,3800,3800,2116,-3759,2584,1224,-203,1924,57,93,845
194697,12671160,13455296,12677810,13497010,3800,3800,1751,-3944,2793,1765,-433,2098,60,101,847
195698,12671368,13455812,12678278,13497478,3800,3800,1390,-4125,2955,2335,-691,2179,60,101,847
196699,12671536,13456448,12678746,13497946,3800,3800,1002,-4238,2978,2973,-523,2721,53,103,847
197700,12671740,13456992,12679214,13498414,3800,3800,559,-4136,2888,3550,-437,3810,53,103,847
198701,12671896,13457656,12679682,13498882,3800,3800,83,-3729,2718,4125,-79,4423,42,113,846
199702,12672076,13458300,12680150,13499350,3800,3800,-376,-3335,2390,4685,1228,4229,42,113,846
200710,12672240,13459044,12680622,13499822,3800,3800,-784,-2969,1921,5269,2314,4385,40,118,847
201704,12672392,13459720,12681090,13500290,3800,3800,-1226,-2492,1298,5495,3599,5016,40,118,847
202705,12672556,13460464,12681558,13500758,3800,3800,-1697,-2077,542,5566,4704,4719,45,123,846
203707,12672784,13461200,12682026,13501226,3800,3800,-2089,-1804,-331,5708,5473,4599,45,123,846
204707,12673020,13462164,12682494,13501694,3800,3800,-2433,-1505,-1215,6146,5632,4933,51,155,848
205708,12673288,13462980,12682962,13502162,3800,3800,-2824,-1022,-2005,6615,5182,5703,51,155,848
206709,12673628,13463916,12683430,13502630,3800,3800,-3213,-393,-2623,6864,4291,5579,61,172,850
207710,12673964,13464872,12683898,13503098,3800,3800,-3449,20,-3154,6805,3755,4722,61,172,850
208711,12674348,13465764,12684366,13503566,3800,3800,-3550,298,-3665,6785,3747,4683,76,195,851
209712,12674768,13466724,12684834,13504034,3800,3800,-3644,734,-4186,6684,3878,5576,76,195,851
210713,12675236,13467816,12685302,13504502,3800,3800,-3821,1319,-4624,6313,2390,5649,85,183,852
211714,12675704,13468704,12685770,13504970,3800,3800,-3976,1965,-4900,5688,770,5625,85,183,852
212715,12676220,13469584,12686238,13505438,3800,3800,-4147,2737,-5065,4931,-310,6141,97,190,852
213716,12676808,13470540,12686706,13505906,3800,3800,-4304,3627,-5159,4632,-908,6225,97,190,852
214717,12677360,13471324,12687174,13506374,3800,3800,-4256,4282,-5223,4079,-1316,4803,112,185,851
215706,12677992,13472372,12687642,13506842,3561,3800,-3956,4481,-5327,3195,-1537,3408,112,185,851
216706,12678728,13473304,12688110,13507310,2795,3800,-3412,4248,-5492,2539,-1727,2110,112,189,855
217707,12679392,13474200,12688578,13507778,3160,3800,-2689,3893,-5619,1954,-2180,1805,112,189,855
218708,12680156,13475080,12689046,13508246,2407,3800,-1816,3616,-5627,1279,-3148,1952,136,187,857
219710,12680920,13475996,12689514,13508714,2279,3800,-1007,3777,-5389,617,-5337,3208,136,187,857
220711,12681656,13476784,12689982,13509182,2338,3800,-384,4586,-4891,79,-6715,5235,141,177,859
221712,12682444,13477732,12690450,13509650,1874,3800,222,5762,-4348,-541,-6471,5666,141,177,859
222713,12683268,13478628,12690918,13510118,1494,3800,871,6916,-3969,-1342,-6391,5447,149,184,863
223714,12684048,13479444,12691386,13510586,1633,3800,1623,8005,-3791,-2318,-5840,5306,149,184,863
224715,12684760,13480348,12691854,13511054,1953,3800,2344,9064,-3778,-3316,-4768,5402,153,191,864
225716,12685600,13481288,12692322,13511522,991,3800,2982,10321,-3936,-4177,-3481,5740,153,191,864
226717,12686408,13482304,12692790,13511990,1042,3800,3448,11862,-4210,-4727,-2821,6626,167,187,865
227718,12687192,13483156,12693258,13512458,1054,3800,3739,13473,-4572,-4933,-1888,6379,167,187,865
228719,12687916,13483996,12693726,13512926,1319,3800,3882,14582,-5131,-5268,-862,4778,145,182,867
229720,12688768,13484780,12694194,13513394,351,3800,3991,15157,-5782,-5140,-269,3715,145,182,867
230721,12689548,13485632,12694662,13513862,665,3800,4097,15349,-6273,-4333,-154,2862,155,170,867
231722,12690268,13486436,12695130,13514330,930,3800,4196,15283,-6442,-3486,-897,2135,155,170,867
232722,12691056,13487340,12695598,13514798,365,3800,4274,15010,-6315,-3129,-1289,1453,161,165,868
233724,12691700,13488260,12696066,13515266,1188,3800,4347,14417,-6031,-3040,-1558,538,161,165,868
234725,12692296,13489156,12696534,13515734,1433,3800,4406,13486,-5711,-2765,-1289,-25,144,180,865
235733,12692988,13490064,12697006,13516206,737,3800,4533,12414,-5329,-2235,-1692,-344,144,180,865
236727,12693596,13491024,12697474,13516674,1202,3800,4722,11035,-4795,-1807,-2181,-1145,119,188,866
237728,12694204,13492068,12697942,13517142,1141,3800,4843,9625,-4125,-1493,-2378,-714,119,188,866
238728,12694808,13492896,12698410,13517610,1106,3800,4781,8223,-3401,-1483,-2500,-595,117,199,868
239729,12695380,13493984,12698878,13518078,1262,3800,4593,6727,-2686,-1668,-2529,-830,117,199,868
240730,12695872,13495044,12699346,13518546,1752,3800,4319,5084,-2010,-2305,-2203,-1076,120,219,867
241731,12696412,13496124,12699814,13519014,1421,3800,3984,3351,-1436,-3026,-1906,-931,123,218,868
242732,12696840,13497144,12700282,13519482,2139,3800,3599,1811,-959,-3722,-2026,-200,123,218,868
243733,12697312,13498200,12700750,13519950,1863,3800,3097,621,-486,-4371,-2434,1214,96,201,867
244735,12697740,13499152,12701218,13520418,2156,3800,2604,-236,40,-4795,-2970,1873,96,201,867
245736,12698196,13500012,12701686,13520886,1987,3800,2095,-972,639,-5257,-3262,2753,107,198,862
246736,12698544,13500848,12702154,13521354,2716,3800,1646,-1479,1303,-5556,-3511,3625,107,198,862
247737,12698944,13501688,12702622,13521822,2421,3800,1161,-1906,1975,-5519,-3889,4393,93,181,861
248738,12699280,13502456,12703090,13522290,2880,3800,727,-2174,2625,-5337,-4089,4617,93,181,861
249739,12699584,13503196,12703558,13522758,3153,3800,312,-2675,3244,-4413,-3803,4200,66,159,860
250740,12699864,13503892,12704026,13523226,3386,3800,-59,-3412,3813,-3319,-3689,3748,66,159,860
251741,12700152,13504512,12704494,13523694,3416,3800,-408,-4305,4349,-2400,-3191,3462,70,143,855
252743,12700404,13505012,12704962,13524162,3737,3800,-686,-5412,4824,-1565,-2567,2753,70,143,855
253744,12700668,13505484,12705430,13524630,3752,3800,-902,-6799,5187,-514,-1988,2235,47,100,851
254745,12700968,13505936,12705898,13525098,3602,3800,-1044,-8288,5443,493,-1537,2006,47,100,851
255758,12701192,13506276,12706366,13525566,3800,3800,-1165,-9769,5616,971,-1106,1972,66,84,846
256759,12701412,13506544,12706834,13526034,3800,3800,-1342,-11099,5729,706,-950,2615,66,84,846
257760,12701612,13506756,12707302,13526502,3800,3800,-1598,-12257,5769,149,-305,3513,34,53,843
258761,12701840,13506912,12707770,13526970,3800,3800,-1802,-13284,5595,854,2955,5138,34,53,843
259762,12702016,13507008,12708238,13527438,3800,3800,-1928,-14095,4976,2762,7150,6957,42,29,843
260763,12702212,13507044,12708706,13527906,3800,3800,-2139,-14834,3970,4054,10813,9315,42,29,843
261764,12702352,13507076,12709174,13528374,3800,3800,-2535,-14996,2848,5159,11718,12993,29,16,841
262765,12702440,13507076,12709642,13528842,3800,3800,-2971,-14662,1747,5121,11280,15059,29,16,841
263766,12702520,13507092,12710110,13529310,3800,3800,-3526,-13560,684,4589,9810,18204,26,4,839
264767,12702552,13507092,12710578,13529778,3800,3800,-4659,-11100,-415,4067,9101,22586,26,4,839
265768,12702600,13507132,12711046,13530246,3800,3800,-5668,-9300,-1689,3140,8418,17647,20,4,839
266769,12702636,13507180,12711514,13530714,3800,3800,-6084,-9007,-2905,2322,5294,14002,20,4,839
267770,12702664,13507248,12711982,13531182,3800,3800,-6087,-9581,-3718,1200,1358,11271,-3,9,838
268771,12702688,13507320,12712450,13531650,3800,3800,-5998,-10057,-3753,181,-4850,11976,-3,9,838
269772,12702708,13507404,12712918,13532118,3800,3800,-4478,-7437,-2725,243,-12865,32767,-4,13,838
270780,12702736,13507536,12713390,13532590,3800,3800,-2000,-2629,-1377,-700,-11538,32767,-4,13,838
271774,12702784,13507668,12713858,13533058,3800,3800,-819,-2109,-783,-690,-5152,1962,13,31,839
272775,12702828,13507824,12714326,13533526,3800,3800,-694,-5375,-697,-566,-4924,-2353,13,31,839
273776,12702904,13507992,12714794,13533994,3800,3800,-558,-9213,-573,-210,-4692,-3106,4,26,840
274777,12702984,13508176,12715262,13534462,3800,3800,-36,-12377,-239,980,-4249,-3867,4,26,840
275778,12703104,13508380,12715730,13534930,3800,3800,673,-14787,187,1532,-3521,-2560,15,50,841
276779,12703264,13508636,12716198,13535398,3800,3800,1126,-16064,696,2306,-2797,1657,15,50,841
277780,12703432,13508828,12716666,13535866,3800,3800,1193,-16154,1237,3649,-2425,4961,27,56,842
278781,12703600,13509088,12717134,13536334,3800,3800,1158,-15271,1789,3920,-2113,7256,27,56,842
279782,12703772,13509372,12717602,13536802,3800,3800,1229,-14087,2143,2853,-847,8318,30,57,842
280783,12703900,13509636,12718070,13537270,3800,3800,1495,-13027,2246,2104,-361,8235,30,57,842
281784,12704044,13509920,12718538,13537738,3800,3800,1952,-11762,2193,1711,257,9049,18,61,842
282785,12704192,13510204,12719006,13538206,3800,3800,2552,-10302,2087,1779,785,8698,18,61,842
283786,12704364,13510500,12719474,13538674,3800,3800,3038,-8700,1802,2179,1957,9422,38,62,842
284787,12704580,13510768,12719942,13539142,3800,3800,3423,-6657,1445,2178,2782,10792,38,62,842
285789,12704828,13511048,12720410,13539610,3800,3800,3762,-4372,1255,2495,2432,10976,59,62,843
286790,12705116,13511312,12720878,13540078,3800,3800,4146,-1916,1260,2443,1766,10953,59,62,843
287791,12705376,13511580,12721346,13540546,3800,3800,4626,350,1354,1729,2148,10543,45,66,843
288792,12705692,13511860,12721814,13541014,3800,3800,5165,2356,1429,2038,2541,9630,45,66,843
289793,12706016,13512152,12722282,13541482,3800,3800,5723,4014,1432,2722,2855,8187,66,57,843
290794,12706368,13512420,12722750,13541950,3800,3800,6298,5270,1404,2906,3093,6526,66,57,843
291795,12706740,13512676,12723218,13542418,3800,3800,6849,6064,1348,3165,3327,5052,74,56,844
292796,12707132,13512980,12723686,13542886,3800,3800,7305,6564,1350,3230,3354,4347,74,56,844
293797,12707568,13513320,12724154,13543354,3800,3800,7737,6855,1486,3094,3048,3350,83,60,844
294798,12708008,13513672,12724622,13543822,3800,3800,8121,6932,1613,3144,2865,1975,83,60,844
295799,12708540,13514032,12725090,13544290,3800,3800,8488,6748,1693,3286,2657,683,98,66,847
296800,12709060,13514420,12725558,13544758,3800,3800,8828,6353,1804,3035,1806,329,98,66,847
297801,12709636,13514848,12726026,13545226,3800,3800,8960,6281,2011,1974,-400,1418,116,73,847
298802,12710276,13515300,12726494,13545694,3800,3800,8959,6633,2255,546,-1310,1877,116,73,847
299803,12710956,13515700,12726962,13546162,3800,3800,8944,6894,2373,207,-1276,696,137,100,849
300804,12711624,13516128,12727430,13546630,3800,3800,8874,6865,2372,680,-1695,55,137,100,849
301805,12712380,13516596,12727898,13547098,3800,3800,8617,7110,2442,695,-2492,1229,142,103,849
302806,12713084,13517052,12728366,13547566,3800,3800,8198,7674,2553,359,-2942,1544,142,103,849
303807,12713784,13517616,12728834,13548034,3800,3800,7727,8128,2552,-52,-2673,714,145,98,851
304808,12714620,13518116,12729302,13548502,3800,3800,7282,8524,2414,-54,-2375,474,145,98,851
305818,12715412,13518656,12729774,13548974,3800,3800,6745,8931,2228,501,-2524,480,132,101,851
306797,12716360,13519260,12730242,13549442,3609,3800,6087,9453,2014,896,-2319,608,132,101,851
307811,12717160,13519792,12730710,13549910,3800,3800,5418,10017,1724,757,-1819,125,155,131,852
308799,12718056,13520480,12731178,13550378,3606,3800,4723,10506,1374,1257,-1865,-149,155,131,852
309800,12718984,13521148,12731646,13550846,3206,3800,3761,11184,1218,2067,-2956,500,180,135,854
310801,12720044,13521900,12732114,13551314,2124,3800,2937,11376,936,1456,-2880,-1888,180,135,854
311802,12721068,13522600,12732582,13551782,2106,3800,2364,11350,443,1184,-2843,-1940,203,145,856
312803,12722124,13523436,12733050,13552250,1650,3800,1900,11193,-77,989,-2714,-2161,203,145,856
313804,12723112,13524280,12733518,13552718,1848,3800,1479,11286,-524,1172,-2511,-1845,192,177,862
314805,12724144,13525236,12733986,13553186,1328,3800,1063,11344,-802,1757,-2055,-1938,192,177,862
315806,12725104,13526176,12734454,13553654,1563,3800,599,11369,-755,3121,-2333,-1232,191,178,864
316807,12726016,13527088,12734922,13554122,1670,3800,130,11429,-558,3434,-2179,-1114,191,178,864
317808,12726900,13528068,12735390,13554590,1663,3800,-111,10973,-476,2633,-1308,-3130,162,195,866
318809,12727692,13529128,12735858,13555058,2098,3800,-147,9964,-553,2614,-690,-4151,162,195,866
319810,12728508,13530148,12736326,13555526,1797,3800,-10,8409,-704,2415,-362,-5790,157,194,866
320811,12729396,13531248,12736794,13555994,1164,3800,231,6570,-833,2082,-230,-6534,157,194,866
321812,12730116,13532284,12737262,13556462,2105,3800,552,4802,-844,1961,-251,-6232,165,198,865
322813,12730820,13533400,12737730,13556930,2102,3800,846,3542,-701,1880,-36,-4617,165,198,865
323814,12731560,13534364,12738198,13557398,1759,3800,1024,3045,-402,1985,-153,-2543,157,196,865
324815,12732288,13535296,12738666,13557866,1720,3800,1156,3275,-55,1675,142,-1114,157,196,865
325817,12733016,13536404,12739134,13558334,1608,3800,1231,4043,202,857,439,573,178,202,865
326817,12733732,13537328,12739602,13558802,1575,3800,1355,5240,407,-5,142,1524,178,202,865
327818,12734420,13538308,12740070,13559270,1654,3800,1542,6562,520,-639,341,1693,146,187,867
328819,12735132,13539276,12740538,13559738,1398,3800,1772,7889,498,-974,474,1965,146,187,867
329820,12735860,13540316,12741006,13560206,1185,3800,1961,9178,332,-1111,652,2126,152,185,867
330821,12736508,13541360,12741474,13560674,1607,3800,2033,10544,20,-1069,741,2483,152,185,867
331822,12737136,13542388,12741942,13561142,1663,3800,1966,11839,-404,-563,421,2008,135,195,868
332823,12737748,13543356,12742410,13561610,1700,3800,1865,12439,-865,457,986,-552,135,195,868
333824,12738396,13544368,12742878,13562078,1397,3800,1797,12170,-1314,2008,1861,-2471,144,190,865
334825,12739012,13545372,12743346,13562546,1533,3800,1804,11285,-1802,3053,3224,-3892,144,190,865
335826,12739616,13546408,12743814,13563014,1549,3800,1833,10072,-2276,2953,3145,-4752,137,194,867
336827,12740248,13547592,12744282,13563482,1302,3800,1741,8840,-2758,2472,3223,-4554,137,194,867
337828,12740804,13548636,12744750,13563950,1740,3800,1466,7911,-3348,2173,3974,-3542,123,198,867
338829,12741272,13549628,12745218,13564418,2291,3800,989,7351,-4152,1836,4251,-2975,123,198,867
339830,12741808,13550616,12745686,13564886,1837,3800,451,6947,-5169,828,4504,-2966,101,189,865
340838,12742248,13551628,12746158,13565358,2451,3800,17,6437,-6206,-55,3778,-3328,101,189,865
341832,12742672,13552496,12746626,13565826,2571,3800,-309,5696,-6991,-107,2777,-3927,96,179,864
342821,12743104,13553672,12747094,13566294,2538,2575,-511,4480,-7441,341,1753,-5368,96,179,864
343821,12743432,13554740,12747562,13566762,3250,2990,-799,2730,-7680,590,892,-6513,77,194,860
344822,12743780,13555724,12748030,13567230,3178,3290,-1134,860,-7748,189,-185,-6440,77,194,860
345823,12744152,13556752,12748498,13567698,3071,2771,-1482,-710,-7617,-548,-457,-5281,64,206,859
346825,12744464,13557752,12748966,13568166,3516,2714,-1859,-1700,-7338,-645,-642,-3723,64,206,859
347825,12744760,13558908,12749434,13568634,3693,1439,-2191,-2447,-6948,-465,-724,-3475,73,206,862
348827,12745080,13559744,12749902,13569102,3609,3279,-2482,-3368,-6467,-321,-543,-3710,73,206,862
349827,12745420,13560892,12750370,13569570,3541,1032,-2742,-4308,-5879,-524,-399,-3272,80,210,860
350829,12745744,13561984,12750838,13570038,3705,1110,-2981,-5091,-5257,-1303,303,-2518,80,210,860
351829,12746080,13562992,12751306,13570506,3689,1399,-3261,-5644,-4655,-1893,1110,-1718,64,220,862
352831,12746452,13563928,12751774,13570974,3507,1645,-3585,-6097,-4082,-2088,1922,-1464,64,220,862
353831,12746804,13564892,12752242,13571442,3684,1253,-3955,-6396,-3529,-2179,2358,-643,88,189,861
354845,12747144,13565700,12752710,13571910,3800,2080,-4310,-6553,-2991,-2669,2954,-121,88,189,861
355834,12747500,13566420,12753178,13572378,3767,2520,-4669,-6632,-2438,-3248,3007,725,82,153,860
356835,12747864,13567120,12753646,13572846,3763,2545,-5101,-6289,-1845,-3297,2298,2614,82,153,860
357848,12748216,13567700,12754114,13573314,3800,3247,-5577,-5489,-1155,-3184,1162,3906,74,139,856
358849,12748564,13568308,12754582,13573782,3800,3011,-6021,-4584,-384,-3071,-30,4296,74,139,856
359850,12748892,13568804,12755050,13574250,3800,3700,-6509,-3812,362,-2730,-667,4760,81,117,852
360864,12749264,13569260,12755518,13574718,3800,3800,-7027,-2989,1003,-2252,-914,5464,81,117,852
361865,12749652,13569664,12755986,13575186,3800,3800,-7622,-1993,1520,-2014,-1327,6398,80,94,848
362866,12750008,13569996,12756454,13575654,3800,3800,-8299,-787,1925,-2133,-1661,7779,80,94,848
363867,12750372,13570284,12756922,13576122,3800,3800,-8907,208,2154,-2478,-1202,7286,78,66,846
364868,12750788,13570548,12757390,13576590,3800,3800,-9450,989,2116,-2757,-384,7286,78,66,846
365869,12751208,13570776,12757858,13577058,3800,3800,-9446,1515,1786,-2224,657,10806,83,51,844
366870,12751612,13570992,12758326,13577526,3800,3800,2390,-1598,-92,12561,-1897,32767,83,51,844
367858,12752052,13571148,12758794,13577994,3723,3800,12345,4796,-1563,15222,-7289,32767,64,37,843
368872,12752468,13571296,12759262,13578462,3800,3800,11600,12388,-2148,1996,3827,15790,64,37,843
369873,12752892,13571432,12759730,13578930,3800,3800,7218,13300,-2886,-2982,4413,1125,89,25,844
370874,12753320,13571548,12760198,13579398,3800,3800,4925,10473,-4000,-4248,4285,-1454,89,25,844
371875,12753728,13571656,12760666,13579866,3800,3800,4446,5863,-5214,-3640,4051,-7072,82,21,843
372876,12754168,13571780,12761134,13580334,3800,3800,4314,1854,-5915,-2884,565,-5282,82,21,843
373877,12754596,13571920,12761602,13580802,3800,3800,3570,-967,-5852,-3387,-1619,-3591,76,25,843
374865,12755068,13572044,12762070,13581270,3647,3800,2139,-3121,-5042,-2127,-4820,-3047,76,25,843
375886,12755484,13572236,12762542,13581742,3800,3800,843,-5703,-3827,-2244,-5847,-4590,86,40,844
376880,12755932,13572404,12763010,13582210,3800,3800,-9,-8559,-2851,-3037,-3247,-4814,86,40,844
377868,12756444,13572604,12763478,13582678,3415,3800,-287,-11639,-2315,-3595,-746,-5344,88,41,843
378882,12756880,13572828,12763946,13583146,3800,3800,-564,-14401,-1947,-3397,332,-3890,88,41,843
379870,12757360,13573064,12764414,13583614,3626,3800,-944,-16468,-1565,-2805,769,-2900,95,49,847
380871,12757904,13573384,12764882,13584082,3194,3800,-1551,-18057,-1140,-2350,765,-1147,95,49,847
381872,12758380,13573688,12765350,13584550,3617,3800,-2130,-18755,-690,-2812,975,1195,86,54,847
382873,12758904,13574008,12765818,13585018,3294,3800,-2778,-18486,-250,-3102,1961,5188,86,54,847
383874,12759500,13574348,12766286,13585486,2789,3800,-3287,-17486,214,-3534,1377,6191,117,74,847
384875,12760044,13574704,12766754,13585954,3081,3800,-3559,-16601,720,-4096,928,6144,117,74,847
385876,12760592,13575100,12767222,13586422,3023,3800,-3683,-15547,1220,-3793,878,7510,100,92,852
386877,12761168,13575536,12767690,13586890,2802,3800,-3836,-14309,1611,-3451,982,8605,100,92,852
387878,12761736,13575960,12768158,13587358,2809,3800,-3839,-12861,1910,-3456,1176,8839,106,88,850
388879,12762288,13576364,12768626,13587826,2873,3800,-3875,-11301,2231,-3310,764,9825,106,88,850
389880,12762864,13576776,12769094,13588294,2677,3800,-3923,-9449,2608,-3028,294,10970,122,94,851
390881,12763400,13577156,12769562,13588762,2898,3800,-4015,-7517,2999,-2600,550,11372,122,94,851
391882,12763968,13577620,12770030,13589230,2655,3800,-4022,-5860,3300,-1810,972,10350,131,89,854
392883,12764444,13578004,12770498,13589698,3228,3800,-3911,-4652,3484,-1218,1144,9105,131,89,854
393884,12764992,13578336,12770966,13590166,2744,3800,-3663,-3968,3622,-712,980,7741,89,83,853
394885,12765464,13578692,12771434,13590634,3218,3800,-3252,-3816,3726,247,828,6099,89,83,853
395886,12765896,13579056,12771902,13591102,3486,3800,-2715,-4204,3807,1521,590,4427,103,75,853
396887,12766364,13579368,12772370,13591570,3262,3800,-2043,-4857,3900,2472,414,3456,103,75,853
397888,12766808,13579708,12772838,13592038,3423,3800,-1358,-5744,3934,3375,379,2646,98,66,849
398889,12767200,13580036,12773306,13592506,3783,3800,-616,-6846,3940,4510,-21,1930,98,66,849
399890,12767688,13580316,12773774,13592974,3175,3800,113,-7905,3951,5115,-627,2546,87,52,847
400891,12768104,13580580,12774242,13593442,3649,3800,785,-8601,3915,5649,-688,3420,87,52,847
401892,12768532,13580844,12774710,13593910,3593,3800,1397,-9024,3776,5599,-642,4027,98,63,847
402893,12769016,13581088,12775178,13594378,3237,3800,2018,-9134,3571,5246,-728,4648,98,63,847
403894,12769424,13581280,12775646,13594846,3740,3800,2654,-9271,3277,6158,409,4388,96,49,847
404908,12769792,13581548,12776114,13595314,3800,3800,3286,-9147,2911,6180,322,5363,96,49,847
405896,12770204,13581816,12776582,13595782,3785,3800,3871,-8466,2568,4701,-488,7012,79,46,846
406910,12770596,13582028,12777050,13596250,3800,3800,4342,-7376,2207,3877,-517,8320,79,46,846
407911,12770968,13582240,12777518,13596718,3800,3800,4610,-5654,1936,3839,-997,10326,87,57,844
408899,12771396,13582504,12777986,13597186,3782,3800,4760,-3284,1779,3335,-671,10951,87,57,844
409913,12771808,13582824,12778454,13597654,3800,3800,4934,-1347,1488,3627,1333,9319,84,49,843
410921,12772232,13583204,12778926,13598126,3800,3800,5068,427,1052,3347,1535,9634,84,49,843
411902,12772724,13583604,12779394,13598594,3422,3800,5178,2324,713,2643,1708,9408,81,70,844
412903,12773212,13584036,12779862,13599062,3439,3800,5332,3874,550,3431,1825,7672,81,70,844
413904,12773680,13584540,12780330,13599530,3565,3800,5489,5054,543,3763,1280,6691,109,90,849
414905,12774192,13585064,12780798,13599998,3273,3800,5746,5900,654,3157,937,5270,109,90,849
415906,12774828,13585612,12781266,13600466,2425,3800,6057,6318,717,3448,456,3269,116,131,850
416907,12775400,13586244,12781734,13600934,2780,3800,6383,6248,758,3176,-669,1895,116,131,850
417908,12775952,13586872,12782202,13601402,2869,3800,6595,6591,829,1510,-1807,3646,109,141,856
418909,12776548,13587556,12782670,13601870,2539,3800,6702,7213,1081,1274,-2947,3231,109,141,856
419910,12777096,13588312,12783138,13602338,2806,3800,6897,7387,1394,1602,-2265,1500,99,136,856
420911,12777700,13589056,12783606,13602806,2397,3800,7139,7626,1590,1010,-1606,1950,99,136,856
421912,12778244,13589836,12784074,13603274,2740,3800,7399,7695,1563,1240,-1021,826,121,160,856
422913,12778820,13590620,12784542,13603742,2493,3800,7550,8015,1473,1375,-1267,2014,121,160,856
423914,12779388,13591480,12785010,13604210,2500,3800,7605,8640,1490,1089,-1331,2190,124,161,857
424915,12779996,13592380,12785478,13604678,2190,3800,7560,9381,1506,1513,-1445,2077,124,161,857
425903,12780568,13593428,12785946,13605146,2370,3148,7470,10115,1475,1432,-1349,1789,114,179,860
426905,12781152,13594344,12786414,13605614,2245,3778,7378,10752,1431,1251,-1350,1466,114,179,860
427905,12781872,13595312,12786882,13606082,1285,3235,7259,11482,1373,1478,-1829,1543,124,192,864
428907,12782588,13596356,12787350,13606550,1202,2509,7109,12308,1356,1538,-2025,1697,124,192,864
429907,12783068,13597400,12787818,13607018,2673,2258,6852,13383,1341,1805,-2423,2087,129,207,867
430908,12783780,13598516,12788286,13607486,1117,1525,6505,14422,1233,2034,-2585,1624,129,207,867
431909,12784424,13599424,12788754,13607954,1465,2634,6100,15299,1015,2058,-2212,1275,137,188,868
432911,12785096,13600392,12789222,13608422,1202,2040,5637,16223,761,2447,-1690,1422,137,188,868
433911,12785792,13601260,12789690,13608890,951,2492,5182,17010,518,2608,-1974,459,129,181,871
434913,12786572,13602056,12790158,13609358,290,2798,4814,17530,313,2752,-2604,-562,129,181,871
435914,12787208,13602892,12790626,13609826,1118,2389,4519,17625,78,2961,-2074,-1997,145,181,872
436915,12787864,13603788,12791094,13610294,911,1827,4273,17223,-199,3339,-1809,-3059,145,181,872
437916,12788520,13604544,12791562,13610762,828,2576,4079,16537,-425,3935,-2158,-3562,144,166,872
438916,12789196,13605284,12792030,13611230,613,2557,3966,15602,-570,4406,-2357,-4501,144,166,872
439917,12789780,13606008,12792498,13611698,1137,2547,3902,14366,-690,4812,-1875,-5224,123,144,872
440918,12790392,13606716,12792966,13612166,900,2543,3861,13091,-810,5007,-1277,-5048,123,144,872
441919,12790976,13607484,12793434,13612634,1024,2037,3794,11961,-907,4979,-1085,-4630,130,143,871
442921,12791528,13608128,12793902,13613102,1188,2735,3738,10876,-1017,4400,-913,-4566,130,143,871
443921,12792096,13608760,12794370,13613570,1044,2739,3694,10070,-1234,3535,-526,-3899,96,141,871
444922,12792624,13609380,12794838,13614038,1268,2748,3628,9654,-1587,2644,-410,-3346,96,141,871
445932,12793120,13610008,12795310,13614510,1458,2630,3466,9602,-2023,1795,-254,-2321,120,140,869
446924,12793648,13610564,12795778,13614978,1232,3042,3179,9987,-2506,1165,-8,-1251,120,140,869
447925,12794108,13611248,12796246,13615446,1661,2148,2847,10551,-3055,813,571,-1194,90,114,869
448927,12794656,13611784,12796714,13615914,1076,3044,2500,11007,-3709,368,1685,-1318,90,114,869
449927,12795188,13612360,12797182,13616382,1149,2748,2089,11354,-4564,-186,2912,-1566,109,112,869
450929,12795580,13612864,12797650,13616850,2057,3183,1633,11450,-5687,-770,4278,-2550,109,112,869
451930,12796048,13613424,12798118,13617318,1582,2793,1199,11201,-6980,-1093,5232,-3308,105,113,868
452931,12796520,13613968,12798586,13617786,1556,2860,798,10773,-8172,-1039,4476,-3779,105,113,868
453932,12797000,13614464,12799054,13618254,1501,3149,388,10232,-8974,-810,3137,-4027,95,98,864
454933,12797448,13614988,12799522,13618722,1711,2949,-77,9794,-9384,-864,2582,-3357,95,98,864
455933,12797880,13615520,12799990,13619190,1827,2872,-713,9756,-9555,-1006,2396,-2016,101,102,864
456935,12798332,13616008,12800458,13619658,1709,3140,-1265,9448,-9644,-1434,2568,-3991,101,102,864
457935,12798728,13616600,12800926,13620126,2091,2436,-1577,8254,-9710,-1494,2051,-6172,96,109,864
458937,12799072,13617168,12801394,13620594,2471,2542,-1773,6383,-9657,-1076,995,-7538,96,109,864
459938,12799432,13617584,12801862,13621062,2419,3516,-2033,4208,-9455,-756,224,-8105,72,109,865
460938,12799744,13618040,12802330,13621530,2788,3272,-2543,2290,-9104,-1089,-1017,-6875,72,109,865
461939,12800016,13618636,12802798,13621998,3125,2341,-3270,945,-8527,-2198,-2725,-5141,63,92,858
462940,12800320,13619276,12803266,13622466,2997,1991,-4015,-356,-7728,-2626,-4040,-5527,63,92,858
463941,12800584,13619940,12803734,13622934,3338,1755,-4737,-1786,-6825,-2268,-4159,-5727,73,116,859
464942,12800804,13620516,12804202,13623402,3722,2259,-5528,-3319,-5824,-2451,-4576,-5336,73,116,859
465943,12801052,13620892,12804670,13623870,3644,3550,-6350,-4387,-4775,-3380,-5317,-3571,49,127,859
466957,12801244,13621560,12805138,13624338,3800,1637,-7102,-5334,-3695,-4156,-5529,-3363,49,127,859
467958,12801408,13622236,12805606,13624806,3800,1497,-7729,-6547,-2643,-3538,-5322,-4017,49,129,850
468959,12801596,13622856,12806074,13625274,3800,1780,-8319,-7740,-1638,-2958,-5107,-3024,49,129,850
469960,12801772,13623568,12806542,13625742,3800,1099,-8918,-8622,-671,-3796,-4998,-1456,51,115,856
470961,12801936,13624140,12807010,13626210,3800,1928,-9468,-9572,239,-4503,-5246,-1623,51,115,856
471962,12802148,13624792,12807478,13626678,3800,1347,-9865,-10511,1123,-4311,-5242,-1096,54,130,857
472963,12802356,13625388,12807946,13627146,3800,1642,-10251,-11069,2016,-3889,-4900,762,54,130,857
473964,12802564,13626092,12808414,13627614,3800,863,-10749,-11455,2836,-3830,-4717,1509,55,132,855
474965,12802736,13626980,12808882,13628082,3800,-471,-11217,-11875,3629,-3707,-4748,2305,55,132,855
475966,12802964,13627564,12809350,13628550,3800,1379,-11574,-12062,4411,-2937,-4544,3948,44,123,856
476967,12803172,13628060,12809818,13629018,3800,1916,-11895,-11904,5127,-2250,-4243,5400,44,123,856
477968,12803392,13628500,12810286,13629486,3800,2279,-12590,-10775,5704,-1567,-3139,9890,55,120,858
478969,12803648,13629080,12810754,13629954,3800,1355,-4670,-11257,4566,16681,1788,32767,55,120,858
479970,12803940,13629556,12811222,13630422,3800,2001,8085,-9,1897,30182,4119,32767,61,124,855
480978,12804268,13630088,12811694,13630894,3800,1625,8326,16940,1002,4634,1726,32767,61,124,855
481972,12804688,13630460,12812162,13631362,3800,2668,3295,23810,842,814,2546,11038,60,92,858
482973,12805072,13630772,12812630,13631830,3800,3111,834,21141,641,333,412,-1834,60,92,858
483974,12805508,13631056,12813098,13632298,3800,3367,1364,15711,256,-543,2078,-5312,93,70,857
484975,12806044,13631284,12813566,13632766,3582,3800,2425,10968,-269,-536,1187,-6506,93,70,857
485989,12806528,13631512,12814034,13633234,3800,3800,3006,7661,-831,-1467,1087,-6540,107,56,850
486977,12807040,13631684,12814502,13633702,3708,3800,3083,4949,-1093,-1951,724,-4350,107,56,850
487978,12807576,13631848,12814970,13634170,3530,3800,2701,3585,-1206,-1069,-1270,-391,104,39,843
488992,12808044,13631996,12815438,13634638,3800,3800,2292,2162,-1295,-3154,-2307,-950,104,39,843
489993,12808512,13632136,12815906,13635106,3800,3800,1543,-65,-1766,-3910,-3352,925,97,43,845
490981,12809008,13632268,12816374,13635574,3772,3800,1007,-747,-2179,-5755,-2897,1664,97,43,845
491995,12809456,13632424,12816842,13636042,3800,3800,852,-1641,-3033,-7759,-655,-650,95,42,844
492996,12809896,13632576,12817310,13636510,3800,3800,928,-3401,-4037,-8450,-545,-1899,95,42,844
493997,12810324,13632716,12817778,13636978,3800,3800,1171,-4996,-4745,-8353,-1194,-1289,80,44,842
494998,12810760,13632892,12818246,13637446,3800,3800,1331,-6431,-5042,-8333,-2271,-1334,80,44,842
495999,12811172,13633060,12818714,13637914,3800,3800,1609,-8027,-5051,-8033,-3459,-2282,95,48,843
497000,12811564,13633272,12819182,13638382,3800,3800,1901,-9541,-4837,-7101,-4442,-1335,95,48,843
498001,12811988,13633468,12819650,13638850,3800,3800,2141,-10644,-4405,-5918,-5031,-363,88,47,844
499002,12812360,13633700,12820118,13639318,3800,3800,2298,-11556,-3866,-5209,-4546,-140,88,47,844
500003,12812720,13633936,12820586,13639786,3800,3800,2552,-12460,-3221,-4979,-4168,155,87,50,842
501004,12813124,13634208,12821054,13640254,3800,3800,2795,-13177,-2517,-4008,-3397,838,87,50,842
502005,12813512,13634480,12821522,13640722,3800,3800,2901,-13605,-1835,-3026,-2592,1691,82,57,844
503006,12813872,13634864,12821990,13641190,3800,3800,2837,-13736,-1149,-2560,-2347,2547,82,57,844
504007,12814272,13635232,12822458,13641658,3800,3800,2699,-13724,-519,-1978,-1951,2973,67,70,845
505008,12814684,13635584,12822926,13642126,3800,3800,2454,-13488,-6,-1056,-591,3807,67,70,845
506008,12815096,13635920,12823394,13642594,3800,3800,2098,-12745,317,-403,835,5625,72,90,845
507010,12815572,13636312,12823862,13643062,3800,3800,1769,-11780,498,-107,1421,5684,72,90,845
508011,12816028,13636772,12824330,13643530,3800,3800,1543,-10795,619,441,2080,6089,96,93,847
509012,12816528,13637180,12824798,13643998,3800,3800,1380,-9584,676,1159,3041,6855,96,93,847
510000,12817092,13637616,12825266,13644466,3731,3800,1191,-8317,624,1748,3523,6745,96,88,846
511001,12817640,13638044,12825734,13644934,3796,3800,1010,-7251,477,1999,3780,6067,96,88,846
512014,12818164,13638460,12826202,13645402,3800,3800,886,-6401,323,2426,4133,5881,93,85,847
513003,12818744,13638900,12826670,13645870,3526,3800,809,-5557,197,3105,4674,5937,93,85,847
514004,12819364,13639412,12827138,13646338,3211,3800,762,-4752,102,3789,4751,5600,111,87,847
515005,12819956,13639820,12827606,13646806,3332,3800,734,-4088,-14,4190,4943,5086,111,87,847
516013,12820536,13640260,12828078,13647278,3362,3800,708,-3616,-172,4524,5091,4666,103,104,850
517007,12821164,13640720,12828546,13647746,2993,3800,667,-3278,-380,4672,5205,4301,103,104,850
518008,12821748,13641148,12829014,13648214,3218,3800,682,-3079,-626,4372,4810,3721,103,84,852
519009,12822320,13641620,12829482,13648682,3249,3800,782,-3119,-940,3798,4284,3036,103,84,852
520010,12822952,13642020,12829950,13649150,2803,3800,931,-3278,-1256,3137,3439,2857,96,80,852
521011,12823532,13642436,12830418,13649618,3081,3800,1099,-3416,-1557,2525,2873,2827,96,80,852
522012,12824108,13642836,12830886,13650086,3059,3800,1275,-3560,-1834,1858,2590,2384,101,81,848
523013,12824744,13643232,12831354,13650554,2611,3800,1495,-3845,-2013,1318,2087,2118,101,81,848
524014,12825308,13643608,12831822,13651022,3020,3800,1628,-3966,-2003,967,1210,2958,108,73,851
525015,12825900,13643968,12832290,13651490,2793,3800,1681,-3845,-1804,556,624,3447,108,73,851
526016,12826556,13644344,12832758,13651958,2311,3800,1732,-3681,-1508,74,507,3152,122,84,854
527017,12827108,13644684,12833226,13652426,2925,3800,1798,-3607,-1238,-446,407,2920,122,84,854
528018,12827668,13644996,12833694,13652894,2836,3800,1860,-3661,-997,-945,400,2460,118,81,854
529019,12828244,13645316,12834162,13653362,2689,3800,1941,-3838,-756,-1547,552,2020,118,81,854
530020,12828816,13645684,12834630,13653830,2669,3800,2029,-4014,-502,-2311,624,2203,105,56,852
531021,12829348,13646028,12835098,13654298,2893,3800,2074,-4054,-139,-2934,455,2829,105,56,852
532022,12829840,13646388,12835566,13654766,3134,3800,2075,-3976,321,-3399,498,2965,106,72,851
533023,12830412,13646792,12836034,13655234,2589,3800,2064,-3882,885,-3537,384,2997,106,72,851
534024,12830836,13647212,12836502,13655702,3534,3800,2026,-3844,1475,-3366,169,2941,105,76,851
535025,12831256,13647652,12836970,13656170,3582,3800,1933,-4031,2009,-2745,-8,2189,105,76,851
536026,12831720,13648140,12837438,13656638,3309,3800,1894,-4448,2469,-1698,48,1299,98,97,854
537027,12832112,13648644,12837906,13657106,3794,3800,1889,-5233,2858,-342,-339,368,98,97,854
538041,12832468,13649176,12838374,13657574,3800,3800,1885,-5929,3301,880,-1454,1085,94,110,849
539042,12832860,13649732,12838842,13658042,3800,3800,1712,-6141,3960,1394,-3253,2640,94,110,849
540043,12833228,13650336,12839310,13658510,3800,3800,1486,-6286,4593,2289,-2804,2217,86,113,847
541044,12833568,13650948,12839778,13658978,3800,3800,1247,-6338,4987,2730,-2816,2626,86,113,847
542032,12833932,13651660,12840246,13659446,3800,3637,1024,-6161,5284,2756,-4141,3514,80,126,848
543046,12834292,13652264,12840714,13659914,3800,3800,776,-5910,5447,3066,-4351,3640,80,126,848
544034,12834648,13652980,12841182,13660382,3800,3446,546,-5533,5491,2888,-4676,4143,74,145,846
545035,12835060,13653684,12841650,13660850,3800,3420,430,-4888,5657,3031,-5256,4420,74,145,846
546036,12835464,13654448,12842118,13661318,3800,2916,384,-4287,5881,4274,-4588,4191,91,129,850
547038,12835896,13655308,12842586,13661786,3800,2144,272,-3413,5874,5168,-2130,5814,91,129,850
548026,12836372,13656116,12843054,13662254,3672,2322,145,-2096,5550,5130,149,6945,91,156,852
549027,12836844,13656928,12843522,13662722,3697,2147,163,-819,5056,5360,552,5858,91,156,852
550040,12837280,13657680,12843990,13663190,3800,2398,323,-78,4524,5755,938,4817,86,156,858
551035,12837752,13658584,12844462,13663662,3713,1259,449,952,3939,5950,2083,6338,86,156,858
552029,12838240,13659424,12844930,13664130,3605,1497,604,2329,3431,5737,1516,6316,101,162,858
553030,12838780,13660316,12845398,13664598,3251,986,796,3471,2843,5860,2288,5352,101,162,858
554031,12839288,13661176,12845866,13665066,3434,1015,988,4777,2189,5749,2584,5867,110,174,861
555033,12839888,13661936,12846334,13665534,2802,1512,1300,6054,1568,5436,2394,5446,110,174,861
556033,12840540,13662768,12846802,13666002,2397,903,1667,7271,983,5510,1408,5610,126,164,865
557035,12841124,13663556,12847270,13666470,2773,1038,2061,8647,443,4702,1130,5710,126,164,865
558035,12841852,13664416,12847738,13666938,1760,416,2434,10153,25,4725,304,6022,132,147,868
559036,12842484,13665036,12848206,13667406,2289,1850,2720,11555,-386,5155,-331,5592,132,147,868
560037,12843148,13665708,12848674,13667874,2004,1435,3004,12835,-780,5088,-407,5054,125,150,869
561038,12843856,13666280,12849142,13668342,1624,2016,3314,13921,-1124,5236,-876,4118,125,150,869
562039,12844556,13666920,12849610,13668810,1573,1515,3589,14643,-1499,4959,-1604,3047,117,129,869
563040,12845260,13667556,12850078,13669278,1446,1466,3792,15338,-1800,4330,-2231,3150,117,129,869
564042,12846016,13668112,12850546,13669746,995,1929,3931,16055,-2048,4413,-2042,2292,142,132,871
565043,12846728,13668644,12851014,13670214,1164,2050,4001,16436,-2266,4715,-1996,1038,142,132,871
566044,12847340,13669152,12851482,13670682,1727,2183,4018,16634,-2503,4694,-1295,587,123,99,872
567044,12848032,13669612,12851950,13671150,1128,2487,4034,16501,-2845,4280,-711,-724,123,99,872
568046,12848652,13670064,12852418,13671618,1512,2544,3991,16258,-3208,3683,-1112,-841,119,92,872
569046,12849356,13670456,12852886,13672086,885,2953,3806,16161,-3502,3123,-1162,-468,119,92,872
570047,12850032,13670836,12853354,13672554,969,3067,3509,16177,-3820,3145,-989,-537,138,89,869
571049,12850736,13671144,12853822,13673022,691,3588,3070,16338,-4173,3152,-976,-264,138,89,869
572050,12851304,13671444,12854290,13673490,1498,3712,2601,16313,-4657,2442,-401,-1216,114,71,866
573063,12851960,13671664,12854758,13673958,865,3800,2172,15929,-5360,2011,208,-2006,114,71,866
574064,12852676,13671908,12855226,13674426,382,3800,1818,15336,-6188,1713,724,-2405,117,67,862
575065,12853280,13672120,12855694,13674894,1022,3800,1395,14978,-7007,1479,628,-1417,117,67,862
576066,12853868,13672288,12856162,13675362,1071,3800,857,15118,-7683,706,-158,-15,119,43,858
577067,12854552,13672428,12856630,13675830,376,3800,220,15584,-8179,-239,-874,799,119,43,858
578068,12855076,13672540,12857098,13676298,1352,3800,-398,16127,-8595,-323,-536,654,92,34,856
579069,12855528,13672640,12857566,13676766,1809,3800,-929,16266,-9101,-30,181,-848,92,34,856
580070,12856100,13672724,12858034,13677234,1013,3800,-1392,15880,-9771,-368,835,-1863,109,15,859
581071,12856648,13672808,12858502,13677702,1129,3800,-1761,15391,-10487,-1848,1311,-2014,109,15,859
582072,12857040,13672864,12858970,13678170,2138,3800,-1988,14824,-11119,-3245,1025,-2128,96,18,854
583073,12857544,13672956,12859438,13678638,1422,3800,-2092,14339,-11621,-3840,115,-2129,96,18,854
584074,12858000,13673152,12859906,13679106,1728,3800,-2120,14074,-11863,-4472,-1163,-1550,80,43,857
585075,12858480,13673548,12860374,13679574,1573,3800,-2125,13919,-11889,-5491,-1425,-1457,80,43,857
586085,12858980,13674008,12860846,13680046,1437,3800,-2120,13478,-11788,-6421,-1720,-1925,87,77,858
587077,12859460,13674496,12861314,13680514,1556,3800,-2085,12842,-11537,-6756,-2178,-2163,87,77,858
588078,12859952,13674960,12861782,13680982,1471,3800,-2038,12041,-11149,-7095,-2338,-2689,89,88,858
589079,12860436,13675404,12862250,13681450,1515,3800,-2080,11222,-10623,-8040,-2790,-2149,89,88,858
590080,12860864,13675824,12862718,13681918,1882,3800,-2234,9308,-9794,-11794,-3397,-3927,90,103,859
591081,12861176,13676312,12863186,13682386,2676,3800,-2313,4125,-8569,-16201,-5090,-8830,90,103,859
592082,12861572,13676800,12863654,13682854,2183,3800,-2384,-2905,-7080,-17980,-7134,-9044,74,91,860
593071,12861956,13677380,12864122,13683322,2295,3693,-2455,-9459,-5532,-16350,-7622,-7787,74,91,860
594071,12862284,13678008,12864590,13683790,2707,3323,-2771,-13287,-4041,-11983,-7965,-3320,78,127,855
595072,12862588,13678680,12865058,13684258,2930,2960,-3209,-14408,-2649,-7355,-7098,-800,78,127,855
596073,12862900,13679388,12865526,13684726,2949,2630,-3686,-14124,-1284,-4702,-6395,873,72,133,858
597087,12863160,13679892,12865994,13685194,3366,3800,-4152,-13651,40,-3222,-5998,1082,72,133,858
598075,12863392,13680432,12866462,13685662,3645,3635,-4563,-14211,1346,-2708,-5950,357,64,106,856
599076,12863640,13680944,12866930,13686130,3642,3792,-4916,-15247,2484,-1401,-5706,668,64,106,856
600103,12863832,13681448,12867398,13686598,3800,3800,-5213,-16240,3392,-444,-4906,915,55,97,848
601091,12864052,13682036,12867866,13687066,3800,3250,-5499,-17243,4122,867,-4557,1311,55,97,848
602092,12864276,13682740,12868334,13687534,3800,2422,-5794,-18006,4712,2474,-4094,2268,38,113,847
603093,12864456,13683284,12868802,13688002,3800,3390,-6002,-18666,5286,3929,-3565,2754,38,113,847
604094,12864664,13683960,12869270,13688470,3800,2474,-6112,-19247,5840,5578,-3746,3191,41,120,849
605095,12864896,13684584,12869738,13688938,3800,2732,-6149,-19721,6385,6599,-4171,4044,41,120,849
606096,12865140,13685176,12870206,13689406,3800,2878,-6118,-19953,6946,7653,-4076,4997,42,130,850
607097,12865388,13685944,12870674,13689874,3800,1648,-6085,-19874,7438,9044,-3472,6135,42,130,850
608098,12865692,13686656,12871142,13690342,3800,1890,-4086,-16689,7746,14031,-3191,22831,62,147,853
609099,12865960,13687376,12871610,13690810,3800,1731,5380,4367,6038,32767,5698,32767,62,147,853
610100,12866244,13688052,12872078,13691278,3800,1915,13302,21417,4307,19806,893,32767,53,146,856
611101,12866520,13688844,12872546,13691746,3800,1048,14112,22908,3808,9010,718,1945,53,146,856
612102,12866820,13689504,12873014,13692214,3800,1789,12015,17753,3828,9201,3130,-1229,63,146,856
613103,12867080,13690332,12873482,13692682,3800,581,10600,12689,3535,9054,3944,-3560,63,146,856
614104,12867312,13690980,12873950,13693150,3800,1628,10145,9720,2881,8295,4775,-3153,49,147,859
615105,12867596,13691736,12874418,13693618,3800,827,9933,8040,2242,7750,4858,-2342,49,147,859
616106,12867864,13692484,12874886,13694086,3800,755,9448,5921,1728,7006,3815,-4082,62,147,860
617107,12868136,13693196,12875354,13694554,3800,872,8636,3741,1052,6072,4957,-2582,62,147,860
618108,12868428,13693856,12875822,13695022,3800,1113,7325,2409,116,4548,5832,959,63,146,860
619109,12868704,13694480,12876290,13695490,3800,1269,5972,1614,-936,3276,3607,692,63,146,860
620110,12868976,13695088,12876758,13695958,3800,1309,5185,509,-1864,2347,1781,-874,56,132,859
621118,12869280,13695656,12877230,13696430,3800,1517,4799,-718,-2576,1013,781,-454,56,132,859
622112,12869580,13696112,12877698,13696898,3800,2222,4486,-1699,-3299,-215,1615,148,55,124,857
623113,12869912,13696544,12878166,13697366,3800,2388,3989,-1779,-3842,-1215,352,2854,55,124,857
624114,12870276,13696936,12878634,13697834,3800,2671,3328,-912,-4143,-2088,200,4601,55,91,858
625115,12870624,13697224,12879102,13698302,3800,3400,2726,271,-4433,-2944,569,4789,55,91,858
626116,12871012,13697488,12879570,13698770,3800,3641,2307,1596,-4777,-4589,467,5506,61,53,853
627130,12871460,13697716,12880038,13699238,3800,3800,1981,3101,-5172,-5691,628,6042,61,53,853
628131,12871872,13697944,12880506,13699706,3800,3800,1704,4489,-5687,-6402,1165,5007,84,64,846
629132,12872256,13698176,12880974,13700174,3800,3800,1397,5785,-6180,-7144,1110,4961,84,64,846
630133,12872728,13698388,12881442,13700642,3800,3800,1083,7108,-6437,-7381,152,4964,80,45,845
631134,12873144,13698592,12881910,13701110,3800,3800,746,8381,-6452,-6997,-450,4540,80,45,845
632135,12873532,13698768,12882378,13701578,3800,3800,405,9604,-6270,-6466,-581,4250,72,55,843
633136,12873932,13698968,12882846,13702046,3800,3800,56,10512,-5921,-5904,-1118,3159,72,55,843
634137,12874360,13699180,12883314,13702514,3800,3800,-289,10924,-5443,-5180,-1969,1942,72,49,844
635138,12874720,13699432,12883782,13702982,3800,3800,-631,11018,-4758,-4462,-2735,1353,72,49,844
636139,12875112,13699652,12884250,13703450,3800,3800,-1046,10982,-3892,-3230,-3046,1238,65,57,844
637140,12875496,13699904,12884718,13703918,3800,3800,-1494,10572,-3005,-2269,-2584,153,65,57,844
638141,12875844,13700184,12885186,13704386,3800,3800,-1773,9423,-2307,-2082,-1694,-2005,72,65,844
639142,12876172,13700476,12885654,13704854,3800,3800,-1778,7402,-1931,-1962,-1197,-4253,72,65,844
640142,12876556,13700792,12886122,13705322,3800,3800,-1589,4755,-1822,-1855,-941,-5635,81,57,843
641143,12876892,13701116,12886590,13705790,3800,3800,-1362,1900,-1804,-1799,-1187,-5821,81,57,843
642144,12877212,13701408,12887058,13706258,3800,3800,-1202,-751,-1775,-1315,-1225,-5369,62,72,843
643146,12877556,13701752,12887526,13706726,3800,3800,-1171,-3055,-1665,-454,-1051,-4084,62,72,843
644147,12877900,13702100,12887994,13707194,3800,3800,-1230,-4815,-1496,-34,-1178,-2351,59,74,844
645147,12878188,13702476,12888462,13707662,3800,3800,-1308,-6057,-1329,5,-1071,-537,59,74,844
646149,12878540,13702908,12888930,13708130,3800,3800,-1348,-6855,-1290,-120,-220,665,54,73,845
647150,12878832,13703320,12889398,13708598,3800,3800,-1247,-7541,-1386,-459,416,759,54,73,845
648151,12879132,13703740,12889866,13709066,3800,3800,-947,-8290,-1612,-928,810,481,50,84,844
649152,12879432,13704140,12890334,13709534,3800,3800,-560,-9005,-1939,-1361,1462,1111,50,84,844
650153,12879716,13704596,12890802,13710002,3800,3800,-260,-9406,-2323,-1521,2036,2219,62,82,845
651154,12879996,13705024,12891270,13710470,3800,3800,-65,-9602,-2691,-1626,2367,2437,62,82,845
652155,12880320,13705456,12891738,13710938,3800,3800,16,-9638,-2998,-1743,2615,3210,56,84,845
653156,12880644,13705912,12892206,13711406,3800,3800,67,-9566,-3233,-1860,2816,3626,56,84,845
654157,12880916,13706328,12892674,13711874,3800,3800,166,-9603,-3410,-1905,2984,3072,52,87,843
655158,12881216,13706744,12893142,13712342,3800,3800,361,-9871,-3501,-2029,2703,2341,52,87,843
656166,12881568,13707156,12893614,13712814,3800,3800,519,-10178,-3479,-1924,2200,2910,69,92,844
657160,12881912,13707576,12894082,13713282,3800,3800,568,-10171,-3353,-1914,1872,3964,69,92,844
658161,12882272,13707936,12894550,13713750,3800,3800,582,-10069,-3151,-1906,1613,3737,59,77,843
659162,12882656,13708288,12895018,13714218,3800,3800,568,-9900,-2888,-1736,1523,4062,59,77,843
660163,12883000,13708648,12895486,13714686,3800,3800,435,-9535,-2518,-1573,1051,5085,65,65,845
661164,12883364,13708984,12895954,13715154,3800,3800,239,-9112,-2057,-1437,685,4682,65,65,845
662165,12883772,13709280,12896422,13715622,3800,3800,118,-9023,-1581,-1199,1130,3516,60,71,844
663166,12884164,13709580,12896890,13716090,3800,3800,89,-9236,-1138,-971,1779,2830,60,71,844
664167,12884564,13709888,12897358,13716558,3800,3800,35,-9548,-725,-808,2037,2944,74,60,843
665168,12885012,13710228,12897826,13717026,3800,3800,-91,-9833,-341,-672,2453,2866,74,60,843
666169,12885476,13710592,12898294,13717494,3800,3800,-223,-10099,17,-631,2667,2831,67,65,843
667170,12885984,13711024,12898762,13717962,3800,3800,-322,-10308,394,-664,2347,2885,67,65,843
668171,12886552,13711496,12899230,13718430,3800,3800,-428,-10401,850,-778,1276,3539,110,79,845
669172,12887144,13711984,12899698,13718898,3800,3800,-590,-10140,1398,-638,32,4758,110,79,845
670173,12887752,13712416,12900166,13719366,3800,3800,-765,-9741,1897,-358,-100,4693,117,96,847
671174,12888520,13712996,12900634,13719834,3800,3800,-849,-9480,2213,-62,-276,3962,117,96,847
672175,12889196,13713488,12901102,13720302,3800,3800,-888,-9390,2359,-26,-699,3859,147,106,850
673175,12889956,13714100,12901570,13720770,3800,3800,-946,-9175,2456,-146,-1032,4514,147,106,850
674164,12890684,13714732,12902038,13721238,3800,3682,-1026,-8737,2584,-507,-1254,4944,140,124,849
675152,12891532,13715412,12902506,13721706,3402,3290,-1157,-8251,2764,-981,-1499,5138,140,124,849
676153,12892328,13716068,12902974,13722174,3585,3359,-1316,-7779,3063,-1318,-2160,5298,146,141,849
677154,12893096,13716784,12903442,13722642,3630,2876,-1394,-7264,3445,-2055,-2666,5811,146,141,849
678156,12893888,13717544,12903910,13723110,3340,2473,-1368,-6751,3860,-2779,-3575,6114,155,149,858
679157,12894620,13718372,12904378,13723578,3601,1891,-1388,-6000,4420,-3040,-5878,7075,155,149,858
680158,12895328,13719120,12904846,13724046,3647,2269,-1377,-5415,5028,-2794,-6034,6005,165,159,859
681158,12896080,13719980,12905314,13724514,3249,1398,-1104,-5484,5350,-2041,-3904,3664,165,159,859
682172,12896656,13720768,12905782,13724982,3800,1708,-615,-6239,5292,-840,-2236,2243,138,161,862
683174,12897252,13721600,12906250,13725450,3800,1274,-98,-7379,5088,1005,-2430,1501,138,161,862
684174,12897844,13722376,12906718,13725918,3800,1489,354,-8280,5006,3087,-2954,1864,128,164,865
685175,12898336,13723252,12907186,13726386,3800,686,707,-8870,5017,4721,-3535,2427,128,164,865
686176,12898860,13724064,12907654,13726854,3800,936,935,-8738,5021,5593,-3198,4705,113,152,861
687177,12899416,13724788,12908122,13727322,3800,1373,1238,-8301,5134,6166,-3704,5060,113,152,861
688178,12899968,13725660,12908590,13727790,3800,272,1894,-7978,5210,6550,-3047,4062,112,165,861
689179,12900460,13726400,12909058,13728258,3800,977,2816,-7497,5124,6472,-1656,5380,112,165,861
690167,12901084,13727244,12909526,13728726,3716,162,3648,-6629,4704,6910,-182,6852,111,153,861
691188,12901648,13727940,12909998,13729198,3800,989,4043,-4353,4110,7240,-135,11414,111,153,861
692169,12902312,13728652,12910466,13729666,3343,782,4198,-1423,3744,7538,-1210,12016,134,136,863
693170,12902972,13729344,12910934,13730134,3284,809,4403,1494,3260,7089,-87,11453,134,136,863
694171,12903660,13730004,12911402,13730602,3015,924,4757,3922,2518,6311,479,10237,123,141,864
695172,12904284,13730584,12911870,13731070,3347,1375,5262,5716,1586,5932,693,8514,123,141,864
696173,12904940,13731232,12912338,13731538,3067,872,5719,7440,629,6368,325,8451,126,134,866
697174,12905644,13731756,12912806,13732006,2664,1622,6153,9052,-93,6354,-698,7940,126,134,866
698175,12906324,13732356,12913274,13732474,2723,1089,6512,10852,-610,6602,-808,8028,127,105,863
699177,12906956,13732868,12913742,13732942,2952,1620,6880,12458,-1054,6692,-296,6480,127,105,863
700177,12907736,13733292,12914210,13733410,1891,2189,7246,13652,-1363,7003,-469,5733,121,122,867
701178,12908472,13733884,12914678,13733878,2050,1085,7566,14578,-1635,7378,-495,4637,121,122,867
702179,12909164,13734336,12915146,13734346,2227,1967,7807,14994,-1973,7300,-326,2803,158,88,866
703181,12909976,13734748,12915614,13734814,1327,2242,7943,15023,-2392,7377,-193,1769,158,88,866
704181,12910692,13735132,12916082,13735282,1819,2453,7956,14815,-2904,7310,265,847,144,79,872
705182,12911348,13735480,12916550,13735750,2113,2731,7802,14512,-3504,7282,1134,177,144,79,872
706183,12912216,13735792,12917018,13736218,613,3025,7437,14332,-4114,7518,1324,542,131,77,870
707184,12912892,13736072,12917486,13736686,1722,3307,6742,14610,-4524,7533,528,1925,131,77,870
708185,12913616,13736312,12917954,13737154,1311,3658,5468,15580,-4635,7422,404,3637,132,64,862
709199,12914396,13736508,12918422,13737622,825,3800,4688,15466,-5262,5449,2715,-2562,132,64,862
710200,12915064,13736732,12918890,13738090,1437,3800,4206,14658,-6282,4513,2965,-2249,146,47,859
711201,12915840,13736940,12919358,13738558,627,3800,3687,14055,-7236,3804,2304,-1407,146,47,859
712202,12916628,13737132,12919826,13739026,413,3800,3057,14090,-8009,2553,1824,-637,132,59,858
713203,12917308,13737304,12920294,13739494,995,3800,2419,14433,-8695,1326,2167,-478,132,59,858
714204,12918000,13737432,12920762,13739962,822,3800,1769,14713,-9456,1064,2243,-590,143,42,859
715205,12918660,13737548,12921230,13740430,938,3800,1094,14993,-10258,929,2339,-300,143,42,859
716206,12919372,13737656,12921698,13740898,507,3800,424,15327,-10919,597,1382,-219,132,38,858
717207,12920044,13737748,12922166,13741366,667,3800,-255,15586,-11378,270,13,-332,132,38,858
718208,12920648,13737844,12922634,13741834,1033,3800,-793,15709,-11633,-332,-394,-846,127,28,857
719209,12921292,13737916,12923102,13742302,706,3800,-1245,15585,-11795,-700,-483,-1602,127,28,857
720210,12921884,13737976,12923570,13742770,977,3800,-1607,15036,-11967,-1359,-431,-2850,124,23,856
721211,12922432,13738120,12924038,13743238,1217,3800,-1824,14220,-12070,-2500,-388,-3190,124,23,856
722212,12923112,13738364,12924506,13743706,299,3800,-1863,13384,-11994,-3643,-913,-3470,96,48,858
723213,12923616,13738680,12924974,13744174,1383,3800,-1786,12505,-11692,-4526,-1446,-3527,96,48,858
724214,12924092,13739108,12925442,13744642,1556,3800,-1629,11752,-11159,-5306,-2048,-3241,114,80,859
725215,12924636,13739540,12925910,13745110,1097,3800,-1445,10973,-10506,-6115,-2625,-3409,114,80,859
726225,12925180,13739964,12926382,13745582,1066,3800,-1273,9990,-9823,-6832,-3125,-3831,102,78,859
727217,12925712,13740380,12926850,13746050,1113,3800,-1176,8723,-9117,-7099,-3492,-4260,102,78,859
728218,12926168,13740816,12927318,13746518,1594,3800,-1185,7287,-8359,-6748,-3819,-4822,98,94,860
729219,12926524,13741308,12927786,13746986,2268,3800,-1285,5563,-7553,-6415,-3600,-5457,98,94,860
730220,12926836,13741816,12928254,13747454,2612,3800,-1528,4035,-6742,-6407,-3644,-4461,79,115,859
731208,12927224,13742432,12928722,13747922,2172,3367,-2056,3055,-5881,-6319,-3851,-2093,79,115,859
732209,12927564,13743052,12929190,13748390,2529,3276,-2705,2128,-4948,-5408,-4316,-2406,73,119,855
733210,12927868,13743748,12929658,13748858,2826,2702,-3246,797,-3945,-4594,-4305,-3593,73,119,855
734211,12928144,13744452,12930126,13749326,3085,2549,-3656,-1028,-2863,-4179,-4335,-4223,73,137,860
735212,12928452,13745056,12930594,13749794,2957,3116,-4055,-3199,-1724,-4477,-4621,-4232,73,137,860
736213,12928688,13745580,12931062,13750262,3509,3592,-4436,-6165,-518,-5562,-4464,-5061,64,129,859
737214,12928924,13746132,12931530,13750730,3611,3381,-4938,-9275,551,-4989,-3657,-3286,64,129,859
738215,12929156,13746656,12931998,13751198,3740,3532,-5627,-11323,1309,-3767,-2254,-416,42,101,856
739229,12929384,13747240,12932466,13751666,3800,3108,-6340,-12037,1785,-2354,-1510,1281,42,101,856
740230,12929600,13747980,12932934,13752134,3800,2013,-7000,-12326,2033,-1490,-1052,1719,63,126,850
741231,12929860,13748492,12933402,13752602,3800,3420,-7568,-12958,2224,-913,-1097,2064,63,126,850
742232,12930084,13749048,12933870,13753070,3800,3107,-8063,-13285,2526,-183,-1522,4026,47,106,849
743233,12930308,13749652,12934338,13753538,3800,2748,-8504,-13393,2920,470,-2010,4854,47,106,849
744234,12930576,13750224,12934806,13754006,3800,2903,-8992,-12914,3340,1377,-2160,7526,58,136,848
745235,12930856,13751012,12935274,13754474,3800,1413,-9542,-11719,3770,2576,-1310,9856,58,136,848
746236,12931152,13751808,12935742,13754942,3800,1220,-8728,-10780,3803,6547,136,17421,54,140,852
747225,12931520,13752472,12936210,13755410,3709,1959,-812,-11571,2076,24068,2007,32767,54,140,852
748238,12931864,13752920,12936678,13755878,3800,3318,3225,-5259,307,15351,2236,32767,84,148,858
749239,12932228,13753584,12937146,13756346,3800,1883,659,2158,-238,5107,3477,22399,84,148,858
750227,12932620,13754360,12937614,13756814,3695,1048,-1959,3906,-320,3333,2029,6244,90,145,857
751241,12932996,13755096,12938082,13757282,3800,1181,-2461,2827,-551,2056,2563,4263,90,145,857
752242,12933380,13755844,12938550,13757750,3800,983,-1931,827,-1006,1753,2595,2594,86,154,856
753230,12933784,13756456,12939018,13758218,3729,1770,-1185,-541,-1626,1940,2115,1048,86,154,856
754244,12934124,13757176,12939486,13758686,3800,985,-677,-1849,-2054,1207,2066,709,87,129,858
755245,12934444,13757888,12939954,13759154,3800,928,-185,-2677,-2324,1738,1801,1847,87,129,858
756246,12934736,13758676,12940422,13759622,3800,312,266,-3284,-2578,1268,1556,1943,70,135,857
757247,12935020,13759356,12940890,13760090,3800,894,946,-4092,-2796,-563,1016,1599,70,135,857
758248,12935252,13759940,12941358,13760558,3800,1444,1598,-4841,-3155,-1050,887,1594,51,134,860
759249,12935468,13760520,12941826,13761026,3800,1420,2313,-5546,-3600,-1583,296,1231,51,134,860
760250,12935752,13761076,12942294,13761494,3800,1531,3068,-6141,-3925,-2572,-13,1412,55,120,859
761258,12936032,13761560,12942766,13761966,3800,1976,3635,-6348,-4180,-2563,-800,2808,55,120,859
762252,12936332,13762004,12943234,13762434,3800,2236,3760,-5473,-4133,-2242,-1087,6940,47,99,856
763253,12936740,13762344,12943702,13762902,3800,2943,3643,-3640,-3786,-2178,-668,8883,47,99,856
764254,12937116,13762620,12944170,13763370,3800,3427,3609,-1820,-3590,-3390,-1005,8118,72,58,854
765268,12937560,13762848,12944638,13763838,3800,3800,3699,-267,-3617,-5356,-1424,8215,72,58,854
766269,12938052,13763056,12945106,13764306,3800,3800,3763,1271,-3770,-6029,-1401,7844,103,59,849
767270,12938512,13763276,12945574,13764774,3800,3800,3878,2623,-3859,-5959,-1646,6270,103,59,849
768271,12938992,13763476,12946042,13765242,3800,3800,4107,3553,-3644,-5850,-2211,4778,80,41,844
769272,12939496,13763656,12946510,13765710,3800,3800,4270,3928,-3184,-4995,-2869,3451,80,41,844
770273,12939980,13763840,12946978,13766178,3800,3800,4438,3947,-2687,-4309,-2849,1968,108,42,844
771274,12940460,13764008,12947446,13766646,3800,3800,4703,3598,-2218,-3971,-2607,941,108,42,844
772262,12941024,13764160,12947914,13767114,3480,3800,5048,3024,-1850,-3422,-2495,267,98,33,844
773275,12941492,13764352,12948382,13767582,3800,3800,5309,2284,-1573,-2945,-1621,62,98,33,844
774276,12941976,13764528,12948850,13768050,3800,3800,5465,1695,-1349,-2196,-850,393,98,38,840
775265,12942512,13764716,12949318,13768518,3622,3800,5441,1368,-1167,-1363,-1122,1110,98,38,840
776278,12942968,13764936,12949786,13768986,3800,3800,5145,1320,-983,-571,-1792,2647,95,44,843
777280,12943440,13765132,12950254,13769454,3800,3800,4750,1529,-806,645,-1223,2871,95,44,843
778281,12943864,13765364,12950722,13769922,3800,3800,4211,1640,-681,2065,-835,2983,101,53,845
779282,12944348,13765600,12951190,13770390,3800,3800,3716,1826,-500,2850,-1298,3007,101,53,845
780283,12944796,13765856,12951658,13770858,3800,3800,3169,1846,-334,3163,-684,3046,78,49,844
781284,12945216,13766108,12952126,13771326,3800,3800,2714,1757,-337,3398,-196,2300,78,49,844
782285,12945652,13766388,12952594,13771794,3800,3800,2239,1371,-508,3687,166,1762,82,64,844
783286,12946100,13766644,12953062,13772262,3800,3800,1780,873,-840,4001,628,1431,82,64,844
784286,12946516,13766924,12953530,13772730,3800,3800,1267,269,-1289,4362,1062,1709,91,56,844
785288,12946996,13767228,12953998,13773198,3800,3800,787,-292,-1757,4645,1455,1776,91,56,844
786288,12947420,13767540,12954466,13773666,3800,3800,402,-919,-2190,4973,1667,1477,81,63,843
787290,12947896,13767880,12954934,13774134,3800,3800,54,-1512,-2584,5168,1771,1719,81,63,843
788291,12948404,13768204,12955402,13774602,3800,3800,-278,-1995,-2940,4978,1968,2129,90,66,846
789292,12948844,13768592,12955870,13775070,3800,3800,-603,-2366,-3226,4841,1982,2484,90,66,846
790293,12949304,13768972,12956338,13775538,3800,3800,-892,-2633,-3419,4703,1872,2908,75,76,845
791294,12949816,13769332,12956806,13776006,3800,3800,-1155,-2715,-3534,4441,1937,3575,75,76,845
792295,12950252,13769672,12957274,13776474,3800,3800,-1337,-2702,-3634,3845,1939,3584,98,82,846
793296,12950716,13770044,12957742,13776942,3800,3800,-1436,-2724,-3751,3075,1903,3554,98,82,846
794284,12951244,13770412,12958210,13777410,3768,3800,-1455,-2655,-3866,2354,1826,3820,93,69,843
795297,12951696,13770804,12958678,13777878,3800,3800,-1443,-2552,-3928,1811,1587,3948,93,69,843
796305,12952192,13771160,12959150,13778350,3800,3800,-1392,-2362,-3909,1072,1612,4179,99,81,842
797300,12952704,13771524,12959618,13778818,3800,3800,-1302,-2233,-3845,100,1925,4042,99,81,842
798300,12953204,13771872,12960086,13779286,3800,3800,-1161,-2061,-3794,-842,2046,3956,86,87,844
799289,12953720,13772204,12960554,13779754,3791,3800,-982,-2014,-3722,-1592,2485,3449,86,87,844
800290,12954244,13772580,12961022,13780222,3718,3800,-784,-2075,-3583,-2281,2710,3125,114,67,846
801291,12954820,13772920,12961490,13780690,3347,3800,-555,-2281,-3374,-2854,2690,2650,114,67,846
802292,12955396,13773228,12961958,13781158,3300,3800,-322,-2502,-3020,-3505,1820,2806,107,60,846
803293,12955996,13773532,12962426,13781626,3093,3800,-129,-2620,-2516,-3781,1009,3244,107,60,846
804294,12956680,13773836,12962894,13782094,2475,3800,19,-2566,-1892,-4309,563,3738,120,66,848
805295,12957244,13774132,12963362,13782562,3184,3800,163,-2322,-1223,-4928,498,3971,120,66,848
806296,12957836,13774468,12963830,13783030,2956,3800,282,-2368,-588,-5373,752,3024,118,55,850
807297,12958480,13774704,12964298,13783498,2554,3800,443,-2561,-8,-5659,1039,3094,118,55,850
808298,12959052,13774948,12964766,13783966,2960,3800,580,-2734,572,-6409,1038,3205,116,54,848
809299,12959596,13775208,12965234,13784434,3102,3800,682,-2871,1205,-7200,622,3513,116,54,848
810300,12960264,13775444,12965702,13784902,2240,3800,740,-2887,1889,-7524,214,4035,110,48,852
811302,12960760,13775684,12966170,13785370,3304,3800,734,-2845,2642,-7377,27,4222,110,48,852
812302,12961292,13775896,12966638,13785838,3052,3800,711,-2838,3430,-6999,-70,4188,108,48,850
813304,12961840,13776076,12967106,13786306,2918,3800,611,-3007,4173,-6844,-110,4264,108,48,850
814304,12962296,13776248,12967574,13786774,3499,3800,439,-3132,4838,-6219,-170,4713,119,49,847
815305,12962760,13776428,12968042,13787242,3453,3800,235,-3738,5397,-5212,-152,2812,119,49,847
816306,12963232,13776576,12968510,13787710,3402,3800,142,-4721,5878,-3906,231,2080,98,29,849
817307,12963656,13776728,12968978,13788178,3722,3800,24,-5762,6256,-2652,489,2539,98,29,849
818321,12964048,13776820,12969446,13788646,3800,3800,-213,-6592,6520,-1473,417,3278,101,35,844
819322,12964432,13776916,12969914,13789114,3800,3800,-519,-7312,6638,-49,487,3209,101,35,844
820323,12964808,13777012,12970382,13789582,3800,3800,-839,-8056,6641,1394,250,3380,74,32,841
821324,12965140,13777068,12970850,13790050,3800,3800,-1152,-8625,6599,2402,-64,4693,74,32,841
822325,12965484,13777128,12971318,13790518,3800,3800,-1404,-9243,6477,3989,8,5237,61,13,841
823326,12965864,13777208,12971786,13790986,3800,3800,-1648,-9701,6232,4992,-153,5394,61,13,841
824327,12966232,13777272,12972254,13791454,3800,3800,-1820,-9914,5898,5618,-456,7176,75,28,842
825328,12966672,13777332,12972722,13791922,3800,3800,-1918,-9818,5465,6939,1061,7708,75,28,842
826329,12967068,13777408,12973190,13792390,3800,3800,-1893,-9733,4923,7797,2539,7605,84,25,842
827330,12967504,13777496,12973658,13792858,3800,3800,-1920,-9397,4250,7998,3750,8222,84,25,842
828331,12967904,13777644,12974126,13793326,3800,3800,-1958,-8789,3564,7955,3982,8307,79,31,842
829332,12968312,13777836,12974594,13793794,3800,3800,-1983,-8068,2930,7855,3805,7810,79,31,842
830333,12968672,13778032,12975062,13794262,3800,3800,-1956,-7273,2284,6826,3432,7969,82,41,841
831341,12969012,13778308,12975534,13794734,3800,3800,-1875,-6097,1678,5882,2765,9154,82,41,841
832335,12969396,13778620,12976002,13795202,3800,3800,-1714,-4774,1258,5991,1304,9118,59,64,843
833336,12969792,13778948,12976470,13795670,3800,3800,-1541,-3269,1014,5809,-473,9703,59,64,843
834337,12970188,13779288,12976938,13796138,3800,3800,-1264,-1574,836,4880,-811,9376,71,68,844
835325,12970704,13779692,12977406,13796606,3774,3800,-686,-481,510,4480,-98,7023,71,68,844
836326,12971224,13780108,12977874,13797074,3728,3800,129,184,103,4105,-409,6220,87,94,845
837327,12971780,13780532,12978342,13797542,3465,3800,993,1102,-181,2939,-850,7358,87,94,845
838328,12972348,13781004,12978810,13798010,3347,3800,1697,2756,-286,2248,-2101,8978,101,87,847
839329,12972964,13781552,12979278,13798478,2983,3800,2258,4623,-260,2306,-2131,8872,101,87,847
840330,12973512,13782032,12979746,13798946,3375,3800,2910,6317,-280,1776,-1246,8064,101,99,849
841331,12974100,13782608,12980214,13799414,3073,3800,3624,7753,-371,1343,-1097,7239,101,99,849
842332,12974724,13783140,12980682,13799882,2781,3800,4357,8723,-482,929,-1057,5787,102,104,851
843333,12975360,13783768,12981150,13800350,2633,3800,5013,9607,-452,329,-1823,5705,102,104,851
844334,12976008,13784448,12981618,13800818,2480,3800,5537,10497,-323,381,-2472,5009,113,120,853
845335,12976756,13785144,12982086,13801286,1733,3800,5982,11247,-207,525,-2410,4252,113,120,853
846336,12977472,13785848,12982554,13801754,1825,3800,6337,11928,-166,301,-2374,3696,137,142,857
847337,12978084,13786668,12983022,13802222,2413,3800,6595,12300,-239,449,-2422,2373,137,142,857
848338,12978784,13787456,12983490,13802690,1762,3800,6670,12465,-409,840,-1961,1937,131,143,861
849339,12979488,13788340,12983958,13803158,1634,3800,6603,12582,-617,982,-1607,1546,131,143,861
850340,12980148,13789296,12984426,13803626,1825,3800,6407,12676,-795,1439,-1710,1241,136,182,859
851341,12980900,13790224,12984894,13804094,1127,3800,6155,12675,-887,1620,-1792,815,136,182,859
852342,12981536,13791260,12985362,13804562,1778,3800,5980,12455,-930,1481,-1683,60,144,186,861
853343,12982168,13792260,12985830,13805030,1732,3800,5831,12130,-977,1626,-1820,-119,144,186,861
854344,12982828,13793256,12986298,13805498,1473,3800,5690,11876,-957,1649,-2107,-13,109,196,866
855332,12983404,13794384,12986766,13805966,1951,3034,5514,11770,-860,1824,-2338,231,109,196,866
856333,12984000,13795504,12987234,13806434,1771,2800,5343,11595,-805,1698,-2096,-258,108,203,864
857334,12984620,13796432,12987702,13806902,1555,3800,5184,11354,-825,1595,-2054,-302,108,203,864
858336,12985164,13797356,12988170,13807370,1996,3626,5018,11096,-919,1487,-2381,-445,125,189,866
859337,12985724,13798348,12988638,13807838,1857,2973,4871,10808,-1098,1235,-2491,-611,125,189,866
860338,12986276,13799200,12989106,13808306,1870,3681,4803,10453,-1402,844,-1511,-1028,100,189,864
861339,12986836,13800224,12989574,13808774,1781,2364,4774,10027,-1797,916,-954,-1289,100,189,864
862339,12987328,13801132,12990042,13809242,2196,2897,4741,9676,-2194,1119,-757,-1022,104,177,865
863340,12987868,13802012,12990510,13809710,1865,2892,4673,9456,-2546,1066,-706,-887,104,177,865
864341,12988404,13802816,12990978,13810178,1861,3222,4644,9317,-2894,1025,-811,-1006,93,160,867
865342,12988928,13803652,12991446,13810646,1911,2861,4620,9129,-3243,1059,-886,-985,93,160,867
866352,12989416,13804468,12991918,13811118,2130,2836,4609,8889,-3582,1123,-986,-1251,102,163,866
867344,12989984,13805260,12992386,13811586,1586,2845,4586,8594,-3927,1200,-995,-1610,102,163,866
868345,12990416,13806108,12992854,13812054,2452,2329,4503,8280,-4315,940,-740,-1615,102,167,866
869346,12990932,13806864,12993322,13812522,1907,2779,4374,8165,-4830,175,-433,-1325,102,167,866
870347,12991460,13807664,12993790,13812990,1805,2359,4190,7948,-5560,-761,326,-1935,93,175,867
871348,12991848,13808452,12994258,13813458,2717,2294,3927,7637,-6522,-833,1623,-2050,93,175,867
872349,12992192,13809312,12994726,13813926,3046,1673,3564,7214,-7490,-292,1883,-2176,104,152,865
873350,12992636,13810056,12995194,13814394,2433,2278,3155,6787,-8180,93,913,-2179,104,152,865
874351,12993012,13810728,12995662,13814862,2898,2639,2671,6220,-8612,-13,951,-2513,100,147,862
875353,12993440,13811324,12996130,13815330,2592,3058,2213,5356,-8831,123,1410,-3373,100,147,862
876353,12993856,13811944,12996598,13815798,2689,2842,1784,4192,-8827,652,1432,-3800,82,124,864
877355,12994240,13812576,12997066,13816266,2927,2696,1383,2817,-8535,753,899,-4346,82,124,864
878355,12994604,13813172,12997534,13816734,3098,2866,996,1312,-7932,562,933,-4511,74,127,860
879357,12994996,13813760,12998002,13817202,2957,2863,509,-128,-7123,686,2045,-3920,74,127,860
880357,12995348,13814284,12998470,13817670,3258,3239,-71,-1287,-6282,1187,3139,-3300,77,121,860
881358,12995668,13814852,12998938,13818138,3525,2922,-662,-2341,-5487,1609,3214,-3121,77,121,860
882359,12995972,13815552,12999406,13818606,3698,1995,-1289,-3471,-4706,1706,3143,-2964,75,114,858
883361,12996304,13816240,12999874,13819074,3582,1974,-2871,-3015,-3494,3734,2547,4504,75,114,858
884374,12996600,13816900,13000342,13819542,3800,2065,-5530,-752,-1347,4562,-1074,7501,71,124,852
885375,12996896,13817552,13000810,13820010,3800,2035,-7837,96,510,2828,771,824,71,124,852
886376,12997216,13818128,13001278,13820478,3800,2462,-9506,-501,978,1591,5164,-271,64,142,857
887377,12997472,13818792,13001746,13820946,3800,1827,-11048,-1498,867,1832,5725,-63,64,142,857
888378,12997740,13819556,13002214,13821414,3800,1072,-12156,-3056,961,2337,4840,-3172,73,154,855
889379,12998004,13820248,13002682,13821882,3800,1425,-12772,-4883,1223,1940,3313,-3647,73,154,855
890380,12998236,13820872,13003150,13822350,3800,1781,-13202,-6599,1640,1441,702,-2324,45,123,856
891381,12998472,13821524,13003618,13822818,3800,1525,-13761,-7513,2366,1419,-3417,1100,45,123,856
892382,12998764,13822136,13004086,13823286,3800,1712,-14291,-7814,3445,1436,-5323,2306,50,124,856
893383,12999052,13822868,13004554,13823754,3800,847,-14695,-7945,4523,1131,-5311,2564,50,124,856
894384,12999348,13823616,13005022,13824222,3800,624,-14884,-8181,5282,329,-5175,2667,77,144,857
895385,12999684,13824312,13005490,13824690,3800,849,-14977,-8411,5643,-876,-4623,3986,77,144,857
896386,13000004,13824928,13005958,13825158,3800,1284,-14848,-8315,5646,-1703,-4695,5099,74,141,858
897387,13000328,13825532,13006426,13825626,3800,1299,-14503,-7980,5291,-2218,-4563,5351,74,141,858
898388,13000676,13826112,13006894,13826094,3800,1400,-9249,-69,4324,7374,-5583,32767,78,122,860
899389,13001036,13826672,13007362,13826562,3800,1484,2974,22840,2698,17947,-9171,32767,78,122,860
900390,13001412,13827116,13007830,13827030,3800,2220,10195,-32012,1236,1258,-2067,12291,64,117,859
901398,13001836,13827536,13008302,13827502,3800,2393,10561,31401,135,-748,-670,-2392,64,117,859
902392,13002272,13827920,13008770,13827970,3800,2654,8860,24789,-754,-209,-2306,-5886,84,93,857
903393,13002728,13828220,13009238,13828438,3800,3253,8141,20037,-1420,253,-3597,-5561,84,93,857
904394,13003208,13828456,13009706,13828906,3800,3755,8217,17208,-1628,5,-2773,-4752,101,72,853
905382,13003780,13828704,13010174,13829374,3346,3777,8432,14835,-1734,687,-2079,-5898,101,72,853
906396,13004316,13828888,13010642,13829842,3542,3800,8233,12154,-2020,37,-2845,-4991,114,46,847
907397,13004856,13829068,13011110,13830310,3487,3800,7578,9979,-1880,-1239,-6892,-1854,114,46,847
908398,13005452,13829248,13011578,13830778,3082,3800,6590,8288,-1542,-1141,-8462,-1674,103,55,845
909399,13006012,13829412,13012046,13831246,3268,3800,5864,6071,-1514,-2694,-7167,-4564,103,55,845
910400,13006604,13829596,13012514,13831714,3015,3800,5434,3266,-1864,-4574,-5637,-5802,117,43,847
911401,13007216,13829716,13012982,13832182,2827,3800,5080,90,-2624,-5953,-4320,-6098,117,43,847
912402,13007856,13829864,13013450,13832650,2578,3800,4549,-2604,-3399,-7508,-3906,-3814,119,33,846
913403,13008476,13829972,13013918,13833118,2637,3800,3896,-4591,-4101,-8645,-2568,-2532,119,33,846
914404,13009156,13830120,13014386,13833586,2170,3800,3141,-5928,-4809,-8772,-1894,-658,125,38,850
915405,13009784,13830228,13014854,13834054,2426,3800,1910,-6247,-5263,-8591,-2137,3711,125,38,850
916406,13010416,13830384,13015322,13834522,2329,3800,502,-5732,-5452,-8780,-2386,4892,137,28,851
917407,13011112,13830544,13015790,13834990,1830,3800,-280,-5778,-5719,-9829,-2587,2435,137,28,851
918408,13011768,13830736,13016258,13835458,1999,3800,-494,-6199,-5950,-9980,-2672,2851,133,34,850
919409,13012436,13830940,13016726,13835926,1837,3800,-561,-6405,-5972,-9464,-2939,3720,133,34,850
920410,13013160,13831184,13017194,13836394,1375,3800,-728,-6246,-5693,-8737,-3531,4229,112,46,855
921411,13013864,13831500,13017662,13836862,1397,3800,-1027,-5846,-5096,-7794,-4525,4924,112,46,855
922412,13014544,13831808,13018130,13837330,1454,3800,-1330,-5454,-4269,-6855,-5199,4626,121,59,856
923413,13015252,13832140,13018598,13837798,1175,3800,-1460,-5543,-3361,-6192,-5184,3276,121,59,856
924414,13015924,13832468,13019066,13838266,1310,3800,-1534,-6150,-2558,-5503,-3984,2187,132,69,858
925415,13016564,13832832,13019534,13838734,1436,3800,-1604,-7205,-1946,-4817,-2834,1085,132,69,858
926416,13017156,13833260,13020002,13839202,1681,3800,-1602,-8511,-1467,-4157,-2201,52,139,86,858
927417,13017868,13833756,13020470,13839670,825,3800,-1518,-10123,-1058,-3433,-1488,-696,139,86,858
928418,13018464,13834244,13020938,13840138,1495,3800,-1409,-11823,-773,-2561,-491,-454,121,104,858
929419,13019060,13834764,13021406,13840606,1438,3800,-1252,-13195,-616,-1867,674,544,121,104,858
930420,13019720,13835264,13021874,13841074,954,3800,-1061,-14158,-427,-1164,1011,1687,128,104,861
931421,13020260,13835824,13022342,13841542,1673,3800,-853,-14676,-157,-555,528,3065,128,104,861
932422,13020796,13836356,13022810,13842010,1669,3800,-547,-14811,181,-527,210,3955,104,111,859
933410,13021376,13836948,13023278,13842478,1345,3785,-232,-14499,518,-467,490,5828,104,111,859
934424,13021856,13837512,13023746,13842946,1965,3800,52,-13822,809,-550,510,6827,113,125,859
935425,13022380,13838072,13024214,13843414,1665,3800,407,-13135,1095,-758,313,6681,113,125,859
936433,13022872,13838592,13024686,13843886,1858,3800,819,-12503,1341,-551,786,6823,89,113,861
937427,13023360,13839084,13025154,13844354,1874,3800,1177,-11855,1495,-410,1470,7198,89,113,861
938428,13023772,13839564,13025622,13844822,2373,3800,1543,-11137,1580,-617,1759,7293,103,98,859
939429,13024216,13839980,13026090,13845290,2185,3800,1854,-10399,1747,-626,1290,7367,103,98,859
940430,13024608,13840352,13026558,13845758,2543,3800,2274,-9633,2035,-450,1360,7108,78,79,855
941431,13025008,13840684,13027026,13846226,2523,3800,2655,-8962,2331,-260,1947,7117,78,79,855
942432,13025352,13841000,13027494,13846694,2929,3800,3014,-8394,2534,-314,2260,6455,75,75,854
943433,13025788,13841364,13027962,13847162,2368,3800,3264,-8029,2714,-568,1745,5871,75,75,854
944434,13026140,13841752,13028430,13847630,2945,3800,3481,-8039,2832,-336,2039,4369,87,69,852
945435,13026448,13842224,13028898,13848098,3290,3800,3682,-8453,2861,-18,2687,3147,87,69,852
946436,13026784,13842724,13029366,13848566,3174,3800,3837,-8968,2910,7,2282,2961,78,80,852
947437,13027108,13843296,13029834,13849034,3312,3800,3887,-9504,3049,335,944,2759,78,80,852
948438,13027388,13843744,13030302,13849502,3671,3800,3836,-9925,3302,1428,-63,3215,56,90,848
949439,13027684,13844228,13030770,13849970,3647,3800,3746,-10112,3593,2555,-337,3375,56,90,848
950453,13027944,13844716,13031238,13850438,3800,3800,3697,-10487,3769,3377,-179,2334,69,101,847
951454,13028220,13845292,13031706,13850906,3800,3800,3801,-11219,3817,3922,-376,1160,69,101,847
952455,13028516,13845856,13032174,13851374,3800,3800,3959,-12120,3761,4147,-398,931,62,132,846
953443,13028792,13846504,13032642,13851842,3800,3372,4000,-12830,3613,4666,-109,1447,62,132,846
954444,13029024,13847120,13033110,13852310,3800,3508,3929,-13243,3635,5344,-1334,2223,74,113,845
955445,13029296,13847836,13033578,13852778,3800,2775,3692,-12888,3966,5130,-3102,4916,74,113,845
956446,13029552,13848524,13034046,13853246,3800,2854,3175,-11506,4701,5215,-6259,7898,58,136,849
957447,13029816,13849232,13034514,13853714,3800,2624,2601,-9460,5859,5848,-8629,9024,58,136,849
958448,13030120,13849928,13034982,13854182,3800,2600,2078,-6785,6588,5384,-5349,11020,50,145,851
959449,13030396,13850688,13035450,13854650,3800,2073,1861,-4393,6715,5165,-3674,9351,50,145,851
960450,13030688,13851492,13035918,13855118,3800,1651,2096,-2823,6516,5150,-2859,6637,58,133,853
961451,13031056,13852268,13036386,13855586,3800,1691,2589,-1841,6117,4850,-940,5838,58,133,853
962452,13031384,13853000,13036854,13856054,3800,1851,3118,-621,5434,4902,1213,6559,72,139,854
963453,13031708,13853844,13037322,13856522,3800,986,3527,1056,4583,5281,1880,7178,72,139,854
964454,13032024,13854516,13037790,13856990,3800,1972,3895,2931,3801,5673,2359,7100,83,168,858
965455,13032384,13855316,13038258,13857458,3800,1027,4222,4873,3139,5857,2335,7641,83,168,858
966456,13032724,13856112,13038726,13857926,3800,908,4587,6741,2551,5222,1811,7011,64,153,858
967457,13033088,13856888,13039194,13858394,3800,897,5099,8220,1912,4685,2072,5355,64,153,858
968458,13033472,13857612,13039662,13858862,3800,1111,5771,9020,1180,4705,2301,3115,65,147,859
969459,13033884,13858356,13040130,13859330,3800,865,6491,9435,506,4936,1964,2355,65,147,859
970460,13034340,13859040,13040598,13859798,3800,1145,7132,10086,-43,4788,1949,3041,88,130,860
971468,13034792,13859772,13041070,13860270,3800,730,7579,11020,-357,5320,1600,3708,88,130,860
972449,13035304,13860460,13041538,13860738,3702,909,7856,12012,-680,5723,2575,3384,94,134,859
973451,13035856,13861140,13042006,13861206,3416,866,8148,12717,-1184,5622,2632,1899,94,134,859
974451,13036432,13861676,13042474,13861674,3220,1736,8559,12879,-1853,5348,1385,134,106,115,860
975452,13037064,13862244,13042942,13862142,2800,1492,8999,12705,-2530,5050,368,-442,106,115,860
976453,13037696,13862744,13043410,13862610,2729,1903,9230,12769,-2969,5002,-870,625,108,110,864
977454,13038408,13863276,13043878,13863078,2122,1674,9171,13167,-3238,4827,-472,790,108,110,864
978455,13039020,13863804,13044346,13863546,2685,1673,8976,13574,-3579,4738,1134,149,134,114,866
979456,13039692,13864196,13044814,13864014,2221,2557,8695,13944,-4019,4608,1845,344,134,114,866
980457,13040364,13864720,13045282,13864482,2133,1707,8207,14276,-4518,4705,1745,442,136,103,868
981458,13041032,13865208,13045750,13864950,2071,1923,7689,14431,-5101,4475,1866,-1014,136,103,868
982459,13041684,13865688,13046218,13865418,2091,1968,7220,14167,-5807,3874,2115,-2159,125,99,864
983460,13042372,13866096,13046686,13865886,1770,2444,6727,13778,-6620,3606,2298,-2161,125,99,864
984461,13043052,13866484,13047154,13866354,1727,2604,6089,13497,-7389,3384,2435,-1683,137,78,867
985462,13043764,13866812,13047622,13866822,1421,3041,5329,13591,-8077,3150,2069,-1140,137,78,867
986463,13044432,13867096,13048090,13867290,1609,3397,4549,13671,-8720,2713,2113,-1620,108,64,866
987464,13045060,13867380,13048558,13867758,1790,3478,3876,13485,-9331,2507,1681,-2386,108,64,866
988465,13045648,13867660,13049026,13868226,1987,3585,3242,13207,-9877,2471,1036,-2533,109,54,863
989479,13046308,13867916,13049494,13868694,1454,3800,2573,13009,-10295,2430,865,-2248,109,54,863
990480,13047116,13868164,13049962,13869162,379,3800,1864,12974,-10545,2390,636,-1734,140,60,859
991481,13047668,13868444,13050430,13869630,1943,3800,1164,13162,-10633,2169,289,-1452,140,60,859
992469,13048420,13868796,13050898,13870098,569,3460,464,13248,-10659,1922,6,-2009,120,67,857
993470,13049100,13869244,13051366,13870566,926,2868,-131,13059,-10678,1792,-81,-2775,120,67,857
994471,13049756,13869600,13051834,13871034,994,3493,-596,12541,-10692,1506,24,-3549,120,77,855
995472,13050396,13869920,13052302,13871502,1019,3784,-966,11644,-10724,1197,498,-4430,120,77,855
996473,13051068,13870264,13052770,13871970,729,3688,-1321,10619,-10711,972,385,-4651,129,72,864
997474,13051652,13870640,13053238,13872438,1228,3529,-1726,9634,-10570,609,-62,-4469,129,72,864
998475,13052232,13870988,13053706,13872906,1205,3757,-2175,8785,-10290,242,-461,-4171,103,72,860
999476,13052816,13871396,13054174,13873374,1129,3409,-2614,7990,-9892,-175,-698,-3976,103,72,860
1000477,13053392,13871808,13054642,13873842,1132,3408,-2977,7227,-9434,-499,-712,-3944,101,76,860
1001478,13053864,13872248,13055110,13874310,1781,3247,-3271,6364,-9000,-818,-650,-4269,101,76,860
1002479,13054412,13872660,13055578,13874778,1271,3446,-3554,5459,-8649,-1331,-533,-4263,96,97,862
1003480,13054964,13873168,13056046,13875246,1209,2829,-3811,4800,-8394,-2464,-493,-3482,96,97,862
1004481,13055432,13873680,13056514,13875714,1734,2785,-4047,4527,-8211,-3841,-826,-2561,117,96,861
1005482,13055904,13874172,13056982,13876182,1707,2900,-4343,4515,-8136,-4677,-1235,-1924,117,96,861
1006492,13056488,13874672,13057454,13876654,959,2838,-4724,4657,-8155,-5071,-1397,-1345,90,100,865
1007484,13056952,13875100,13057922,13877122,1711,3306,-5071,4771,-8162,-5477,-1659,-1360,90,100,865
1008485,13057336,13875576,13058390,13877590,2248,3003,-5409,4826,-8160,-6065,-1175,-1183,90,101,864
1009486,13057684,13876036,13058858,13878058,2525,3107,-5773,4918,-8063,-6387,-1182,-754,90,101,864
1010487,13058036,13876484,13059326,13878526,2551,3191,-6243,5108,-7804,-6166,-1681,15,71,96,860
1011488,13058368,13876952,13059794,13878994,2737,3067,-6773,5198,-7310,-5378,-2161,-456,71,96,860
1012489,13058700,13877392,13060262,13879462,2797,3254,-7243,4600,-6539,-4346,-2772,-2095,89,96,858
1013490,13058980,13877800,13060730,13879930,3205,3481,-7609,3091,-5550,-3098,-3944,-3452,89,96,858
1014491,13059236,13878272,13061198,13880398,3449,3080,-7996,1126,-4451,-2264,-4372,-3674,73,95,857
1015492,13059500,13878780,13061666,13880866,3488,2837,-8428,-1007,-3366,-1891,-4031,-4081,73,95,857
1016493,13059736,13879236,13062134,13881334,3765,3167,-8848,-3415,-2328,-1513,-3669,-4642,55,103,850
1017507,13059948,13879608,13062602,13881802,3800,3736,-9225,-6250,-1236,-2121,-3436,-4766,55,103,850
1018508,13060200,13879996,13063070,13882270,3800,3671,-9595,-9527,-112,-1901,-3534,-4287,43,79,851
1019509,13060408,13880476,13063538,13882738,3800,3092,-9992,-12319,905,-839,-3837,-2295,43,79,851
1020510,13060636,13880984,13064006,13883206,3800,2899,-10290,-14450,1972,-1467,-3469,-1160,40,94,844
1021511,13060884,13881668,13064474,13883674,3800,1705,-10471,-16388,3096,-1157,-3182,-152,40,94,844
1022512,13061104,13882280,13064942,13884142,3800,2092,-10757,-17612,3915,433,-3698,2233,50,121,849
1023513,13061328,13882688,13065410,13884610,3800,3393,-11050,-18414,4502,792,-3878,3568,50,121,849
1024514,13061576,13883272,13065878,13885078,3800,2243,-7014,-20383,4280,9980,-3072,20804,52,126,855
1025515,13061876,13883956,13066346,13885546,3800,1523,3041,-20170,2351,25396,-3232,32767,52,126,855
1026516,13062152,13884608,13066814,13886014,3800,1642,3011,-8490,1938,8284,-1008,32767,62,136,849
1027517,13062468,13885296,13067282,13886482,3800,1322,-3391,2757,2255,1425,1978,30807,62,136,849
1028518,13062828,13885892,13067750,13886950,3800,1840,-6338,5713,2320,-486,-550,6687,82,133,854
1029519,13063160,13886548,13068218,13887418,3800,1383,-5482,3337,1886,-1367,1059,4562,82,133,854
1030520,13063516,13887156,13068686,13887886,3800,1621,-3684,644,1162,-1209,1090,4314,79,120,858
1031521,13063892,13887756,13069154,13888354,3800,1613,-2598,-722,212,-1016,192,4986,79,120,858
1032522,13064236,13888432,13069622,13888822,3800,1047,-1894,-1186,-437,-2043,-210,3575,66,121,858
1033523,13064580,13889036,13070090,13889290,3800,1438,-1416,-1584,-794,-1487,-1609,2563,66,121,858
1034524,13064960,13889672,13070558,13889758,3800,1164,-559,-2495,-1095,-1877,-2211,887,72,132,858
1035525,13065304,13890184,13071026,13890226,3800,1920,380,-3665,-1210,-2974,-2229,1538,72,132,858
1036526,13065608,13890664,13071494,13890694,3800,2115,1420,-4629,-1323,-2584,-1823,570,78,108,858
1037527,13065936,13891128,13071962,13891162,3800,2216,2286,-5491,-1347,-2471,-1892,1168,78,108,858
1038528,13066204,13891488,13072430,13891630,3800,2914,2977,-5349,-1305,-3181,-1791,4381,58,86,854
1039529,13066492,13891808,13072898,13892098,3800,3229,3274,-4440,-1690,-4503,-101,7070,58,86,854
1040530,13066748,13892120,13073366,13892566,3800,3347,3338,-2672,-2535,-5264,2032,9674,57,68,852
1041538,13066968,13892376,13073838,13893038,3800,3792,3394,-373,-3292,-5064,1260,10412,57,68,852
1042544,13067140,13892600,13074306,13893506,3800,3800,3792,927,-3649,-5146,-900,5899,37,61,846
1043546,13067332,13892816,13074774,13893974,3800,3800,4450,1190,-3676,-5446,-1956,4474,37,61,846
1044547,13067476,13893004,13075242,13894442,3800,3800,5027,1093,-3710,-4564,-1256,3677,36,41,841
1045548,13067608,13893176,13075710,13894910,3800,3800,5442,1096,-3723,-2927,-1275,3217,36,41,841
1046548,13067708,13893324,13076178,13895378,3800,3800,5848,980,-3573,-2464,-1573,2243,17,27,839
1047550,13067812,13893468,13076646,13895846,3800,3800,6134,913,-3372,-2031,-1370,3342,17,27,839
1048551,13067892,13893608,13077114,13896314,3800,3800,6162,1145,-3293,-1346,-467,4316,12,23,838
1049552,13067968,13893732,13077582,13896782,3800,3800,6028,1659,-3210,-643,-305,4652,12,23,838
1050553,13068056,13893844,13078050,13897250,3800,3800,5762,2193,-3026,226,-575,4756,8,22,838
1051553,13068128,13893964,13078518,13897718,3800,3800,5382,2623,-2857,1097,240,4778,8,22,838
1052554,13068200,13894068,13078986,13898186,3800,3800,4980,3009,-2723,2132,729,4393,26,19,838
1053556,13068320,13894196,13079454,13898654,3800,3800,4635,3158,-2639,2975,1028,3365,26,19,838
1054556,13068420,13894328,13079922,13899122,3800,3800,4259,3057,-2564,3342,1041,3367,21,21,839
1055558,13068524,13894468,13080390,13899590,3800,3800,3603,3271,-2381,3849,864,4949,21,21,839
1056559,13068676,13894624,13080858,13900058,3800,3800,2762,3667,-2239,4604,1954,4674,19,29,839
1057560,13068788,13894812,13081326,13900526,3800,3800,2135,3612,-2281,4761,2731,2710,19,29,839
1058560,13068924,13894988,13081794,13900994,3800,3800,1771,2946,-2535,4695,3179,1554,17,46,839
1059562,13069088,13895204,13082262,13901462,3800,3800,1423,2071,-2936,4869,3265,1473,17,46,839
1060563,13069256,13895352,13082730,13901930,3800,3800,1030,1152,-3383,5049,3024,1126,28,36,839
1061564,13069436,13895540,13083198,13902398,3800,3800,659,288,-3798,5114,2882,1040,28,36,839
1062564,13069640,13895764,13083666,13902866,3800,3800,314,-466,-4131,4997,2714,1691,37,49,839
1063565,13069836,13895972,13084134,13903334,3800,3800,-19,-941,-4383,4856,2841,2543,37,49,839
1064567,13070052,13896172,13084602,13903802,3800,3800,-308,-1165,-4579,4595,2608,3058,32,50,840
1065567,13070300,13896408,13085070,13904270,3800,3800,-545,-1231,-4795,4053,2655,3188,32,50,840
1066568,13070504,13896620,13085538,13904738,3800,3800,-733,-1331,-5099,3415,2846,3298,46,53,841
1067570,13070720,13896852,13086006,13905206,3800,3800,-867,-1377,-5456,2861,2483,3550,46,53,841
1068570,13070948,13897096,13086474,13905674,3800,3800,-936,-1346,-5738,2401,1817,3902,52,42,841
1069572,13071176,13897340,13086942,13906142,3800,3800,-979,-1092,-5877,1911,1413,4477,52,42,841
1070572,13071384,13897588,13087410,13906610,3800,3800,-1025,-651,-5927,1206,1475,4947,37,59,841
1071574,13071592,13897792,13087878,13907078,3800,3800,-1005,-143,-5870,390,976,4951,37,59,841
1072575,13071808,13898004,13088346,13907546,3800,3800,-907,318,-5741,-391,618,4632,51,45,840
1073576,13071980,13898240,13088814,13908014,3800,3800,-755,649,-5581,-1117,449,4235,51,45,840
1074577,13072188,13898500,13089282,13908482,3800,3800,-575,882,-5358,-1644,-154,4062,36,46,838
1075578,13072396,13898736,13089750,13908950,3800,3800,-373,1037,-5041,-2017,-418,3806,36,46,838
1076586,13072600,13899008,13090222,13909422,3800,3800,-141,1068,-4671,-2423,-160,3223,34,48,841
1077580,13072816,13899248,13090690,13909890,3800,3800,123,920,-4289,-2769,-92,2599,34,48,841
1078581,13073036,13899500,13091158,13910358,3800,3800,401,682,-3863,-3146,-275,2236,37,51,840
1079582,13073224,13899736,13091626,13910826,3800,3800,659,416,-3322,-3409,-745,2375,37,51,840
1080583,13073420,13899980,13092094,13911294,3800,3800,872,231,-2685,-3495,-982,2517,47,52,841
1081584,13073624,13900244,13092562,13911762,3800,3800,1060,4,-2030,-3632,-964,2359,47,52,841
1082585,13073804,13900480,13093030,13912230,3800,3800,1249,-271,-1406,-3843,-976,2170,29,58,839
1083586,13073968,13900700,13093498,13912698,3800,3800,1415,-643,-837,-3904,-852,1966,29,58,839
1084587,13074176,13900964,13093966,13913166,3800,3800,1554,-1007,-315,-3751,-600,2020,27,47,840
1085588,13074352,13901224,13094434,13913634,3800,3800,1670,-1376,170,-3478,-439,2036,27,47,840
1086589,13074528,13901492,13094902,13914102,3800,3800,1731,-1661,613,-3326,-349,2339,29,57,840
1087590,13074716,13901760,13095370,13914570,3800,3800,1674,-1852,1022,-3179,-325,2924,29,57,840
1088591,13074908,13902040,13095838,13915038,3800,3800,1540,-1966,1355,-2884,-52,2963,27,63,841
1089592,13075080,13902320,13096306,13915506,3800,3800,1387,-2168,1560,-2596,615,2692,27,63,841
1090593,13075280,13902616,13096774,13915974,3800,3800,1169,-2467,1633,-2233,1149,2528,29,54,841
1091594,13075472,13902916,13097242,13916442,3800,3800,891,-2725,1611,-1800,1810,2956,29,54,841
1092595,13075680,13903224,13097710,13916910,3800,3800,584,-2856,1504,-1269,2400,3368,39,66,841
1093596,13075860,13903524,13098178,13917378,3800,3800,255,-2935,1301,-792,2801,3417,39,66,841
1094597,13076076,13903828,13098646,13917846,3800,3800,-79,-3075,1020,-457,3043,3408,29,67,839
1095598,13076304,13904128,13099114,13918314,3800,3800,-440,-3227,702,61,3043,3503,29,67,839
1096599,13076504,13904436,13099582,13918782,3800,3800,-814,-3470,351,722,3274,3223,43,56,842
1097600,13076772,13904732,13100050,13919250,3800,3800,-1151,-3728,-29,1302,3385,3220,43,56,842
1098601,13077020,13905088,13100518,13919718,3800,3800,-1391,-4040,-439,1699,3784,3174,48,62,842
1099602,13077260,13905420,13100986,13920186,3800,3800,-1562,-4384,-842,2034,3875,3087,48,62,842
1100603,13077544,13905720,13101454,13920654,3800,3800,-1717,-4710,-1191,2371,3659,3476,45,56,842
1101604,13077812,13906004,13101922,13921122,3800,3800,-1871,-4953,-1501,2564,3339,3620,45,56,842
1102605,13078116,13906300,13102390,13921590,3800,3800,-1989,-5258,-1822,2525,3002,3381,45,74,841
1103606,13078468,13906632,13102858,13922058,3800,3800,-2066,-5529,-2151,2343,2574,3538,45,74,841
1104607,13078808,13906948,13103326,13922526,3800,3800,-2131,-5693,-2429,2233,2070,3970,75,58,842
1105608,13079180,13907220,13103794,13922994,3800,3800,-2212,-5718,-2609,2138,1488,4277,75,58,842
1106609,13079588,13907492,13104262,13923462,3800,3800,-2253,-5697,-2723,1879,1382,4415,74,69,841
1107610,13079988,13907776,13104730,13923930,3800,3800,-2206,-5646,-2827,1422,1522,4486,74,69,841
1108611,13080412,13908020,13105198,13924398,3800,3800,-2117,-5547,-2939,935,1269,4793,81,61,843
1109612,13080908,13908268,13105666,13924866,3800,3800,-2005,-5290,-3013,494,859,5187,81,61,843
1110613,13081364,13908476,13106134,13925334,3800,3800,-1846,-4895,-3002,159,589,5561,72,45,843
1111621,13081844,13908664,13106606,13925806,3800,3800,-1659,-4445,-2953,-356,305,5738,72,45,843
1112615,13082380,13908824,13107074,13926274,3800,3800,-1433,-3996,-2894,-862,258,5786,78,39,841
1113616,13082924,13908984,13107542,13926742,3800,3800,-1168,-3582,-2805,-1188,439,5769,78,39,841
1114617,13083504,13909192,13108010,13927210,3800,3800,-878,-3090,-2681,-1314,685,6019,114,43,843
1115618,13084032,13909360,13108478,13927678,3800,3800,-593,-2591,-2526,-1449,1012,5839,114,43,843
1116619,13084672,13909600,13108946,13928146,3800,3800,-309,-2135,-2315,-1334,1372,5658,116,37,842
1117620,13085296,13909864,13109414,13928614,3800,3800,-36,-1714,-2021,-1216,1611,5769,116,37,842
1118621,13085904,13910156,13109882,13929082,3800,3800,310,-1273,-1649,-1754,1843,5485,114,44,844
1119622,13086628,13910512,13110350,13929550,3800,3800,672,-984,-1287,-2395,1679,5346,114,44,844
1120623,13087280,13910952,13110818,13930018,3800,3800,1015,-603,-940,-3050,157,5610,122,66,845
1121624,13087956,13911396,13111286,13930486,3800,3800,1292,-179,-582,-3349,-1095,5958,122,66,845
1122625,13088732,13911904,13111754,13930954,3800,3800,1620,242,-299,-3646,-1422,5347,142,93,847
1123626,13089404,13912420,13112222,13931422,3800,3800,2045,316,-117,-3889,-1541,4392,142,93,847
1124627,13090084,13912944,13112690,13931890,3800,3800,2472,192,22,-3824,-1963,4200,158,108,849
1125628,13090844,13913664,13113158,13932358,3800,3800,2803,-9,236,-3181,-1867,4264,158,108,849
1126629,13091544,13914288,13113626,13932826,3800,3800,3119,-139,569,-2589,-1213,4281,137,140,850
1127630,13092204,13915044,13114094,13933294,3800,3800,3407,-212,1013,-2725,-1887,4613,137,140,850
1128631,13092904,13915744,13114562,13933762,3800,3800,3669,14,1622,-2874,-3040,5513,138,139,850
1129631,13093476,13916548,13115030,13934230,3800,3800,3874,221,2318,-2691,-2924,5345,138,139,850
1130632,13094004,13917336,13115498,13934698,3800,3800,4027,232,2940,-2004,-2610,4718,133,144,851
1131634,13094584,13918244,13115966,13935166,3800,3800,4173,-14,3452,-1147,-2020,3707,133,144,851
1132634,13095064,13919148,13116434,13935634,3800,3800,4332,-690,3763,-103,-1030,2382,107,161,851
1133636,13095484,13920016,13116902,13936102,3800,3800,4408,-1445,3925,1519,-1140,2544,107,161,851
1134636,13095868,13921048,13117370,13936570,3800,3800,4359,-2086,4043,3113,-996,2496,94,174,851
1135637,13096196,13921940,13117838,13937038,3800,3800,4023,-2328,4308,4569,-2955,3588,94,174,851
1136638,13096516,13923064,13118306,13937506,3800,3800,3258,-1948,4983,5301,-6054,5129,79,183,850
1137640,13096764,13924076,13118774,13937974,3800,3800,2403,-1709,5660,6012,-5329,3994,79,183,850
1138641,13096956,13925160,13119242,13938442,3800,3800,1894,-1867,5976,6703,-4517,2818,70,200,849
1139642,13097076,13926192,13119710,13938910,3800,3800,1956,-2473,5902,6985,-3140,1586,70,200,849
1140643,13097164,13927180,13120178,13939378,3800,3800,2263,-3091,5572,7321,-2641,2363,49,196,849
1141644,13097216,13928188,13120646,13939846,3800,3800,2496,-3208,5321,7390,-3657,3518,49,196,849
1142632,13097224,13929308,13121114,13940314,3800,3168,2622,-2639,5193,7091,-3093,5066,21,195,846
1143646,13097208,13930196,13121582,13940782,3800,3800,2704,-1802,4975,7057,-2920,5077,21,195,846
1144634,13097240,13931156,13122050,13941250,3800,3771,2793,-983,4522,6810,-3493,5222,0,202,846
1145635,13097272,13932092,13122518,13941718,3800,3718,2373,1027,3107,12321,-9261,8364,0,202,846
1146658,13097356,13932932,13122990,13942190,3800,3800,1020,5314,-645,20090,-21713,5324,4,187,846
1147637,13097596,13933860,13123458,13942658,3800,3407,127,7981,-2643,5268,-7907,2218,4,187,846
1148651,13097876,13934648,13123926,13943126,3800,3800,466,9226,-2801,5351,-3996,5645,37,182,845
1149652,13098164,13935372,13124394,13943594,3800,3800,1077,9671,-2187,3573,-2772,4054,37,182,845
1150653,13098556,13936136,13124862,13944062,3800,3800,1756,10270,-1904,3304,-2437,3252,69,151,848
1151654,13098988,13936888,13125330,13944530,3800,3800,2330,10196,-2172,2904,-1778,-190,69,151,848
1152654,13099508,13937624,13125798,13944998,3800,3800,2776,9870,-2442,3271,-1271,198,111,157,849
1153643,13099996,13938428,13126266,13945466,3800,3418,3232,9763,-2534,3366,-1334,-47,111,157,849
1154657,13100484,13939136,13126734,13945934,3800,3800,3497,9654,-2410,1899,-1645,227,107,164,849
1155645,13100992,13939864,13127202,13946402,3800,3676,3827,10082,-2099,1136,-1261,1464,107,164,849
1156659,13101496,13940520,13127670,13946870,3800,3800,3984,10374,-1842,761,46,882,95,148,851
1157660,13102036,13941148,13128138,13947338,3800,3800,4210,10861,-1870,72,1840,913,95,148,851
1158661,13102620,13941764,13128606,13947806,3800,3800,4127,11234,-2068,-271,3000,912,106,130,849
1159662,13103276,13942228,13129074,13948274,3800,3800,4071,11535,-2344,-616,3093,53,106,130,849
1160663,13104000,13942700,13129542,13948742,3800,3800,3808,11922,-2566,-730,3957,1082,138,120,845
1161664,13104688,13943112,13130010,13949210,3800,3800,3412,12582,-2763,-485,5003,1217,138,120,845
1162665,13105460,13943436,13130478,13949678,3800,3800,2725,12975,-2968,-459,6115,975,142,80,847
1163666,13106376,13943748,13130946,13950146,3800,3800,1457,13549,-3574,-1090,6915,947,142,80,847
1164667,13107180,13944064,13131414,13950614,3800,3800,800,13982,-3761,-1491,5221,1365,160,67,849
1165668,13108024,13944312,13131882,13951082,3800,3800,238,14287,-3907,-2491,4327,534,160,67,849
1166669,13108932,13944476,13132350,13951550,3800,3800,-89,14067,-4289,-2944,4319,-894,169,52,847
1167670,13109812,13944580,13132818,13952018,3800,3800,-444,13665,-4845,-2976,3615,-479,169,52,847
1168670,13110772,13944596,13133286,13952486,3800,3800,-942,13538,-5356,-3119,2472,592,160,19,846
1169672,13111800,13944584,13133754,13952954,3800,3800,-1474,13549,-5650,-2943,880,777,160,19,846
1170673,13112992,13944580,13134222,13953422,3800,3800,-2015,13557,-5803,-2703,402,1062,193,6,845
1171674,13113924,13944572,13134690,13953890,3800,3800,-2513,13391,-5910,-2510,-288,692,193,6,845
1172675,13114980,13944604,13135158,13954358,3800,3800,-3010,12841,-6117,-2423,-568,-105,200,24,845
1173676,13116160,13944824,13135626,13954826,3800,3800,-3410,11807,-6402,-2522,-956,-1115,200,24,845
1174677,13117344,13945060,13136094,13955294,3800,3800,-3663,10530,-6641,-2261,-1374,-1712,204,43,847
1175677,13118324,13945496,13136562,13955762,3800,3800,-3810,8834,-6756,-1892,-1900,-3006,204,43,847
1176666,13119712,13945976,13137030,13956230,3666,3800,-3915,6787,-6760,-1574,-2322,-3679,205,80,850
1177679,13120752,13946404,13137498,13956698,3800,3800,-4022,4530,-6772,-1281,-2216,-4042,205,80,850
1178681,13121876,13947016,13137966,13957166,3800,3800,-4124,2091,-6872,-1165,-1649,-4526,235,110,852
1179681,13123060,13947544,13138434,13957634,3800,3800,-4306,-372,-6990,-960,-1593,-4230,235,110,852
1180683,13124032,13948172,13138902,13958102,3800,3800,-4485,-2884,-6968,-582,-2772,-4291,221,116,853
1181690,13124972,13948748,13139374,13958574,3800,3800,-4710,-4964,-6736,-364,-4466,-2738,221,116,853
1182685,13125988,13949420,13139842,13959042,3800,3800,-4917,-6531,-6253,-966,-5273,-1741,228,128,853
1183686,13126816,13950108,13140310,13959510,3800,3800,-5121,-8216,-5591,-823,-6152,-1457,228,128,853
1184686,13127576,13950884,13140778,13959978,3800,3800,-5370,-9520,-4902,-319,-6215,172,187,160,854
1185687,13128408,13951668,13141246,13960446,3800,3800,-5584,-10402,-4212,-1021,-5879,1043,187,160,854
1186676,13129024,13952576,13141714,13960914,3800,3391,-5768,-10951,-3507,-2011,-6545,2142,163,173,853
1187677,13129540,13953412,13142182,13961382,3800,3681,-5845,-11305,-2711,-3027,-6825,3394,163,173,853
1188678,13130036,13954264,13142650,13961850,3800,3413,-5880,-11261,-1872,-2982,-6014,4912,132,171,852
1189679,13130388,13955124,13143118,13962318,3800,3193,-5934,-10721,-1004,-2185,-5206,6207,132,171,852
1190680,13130660,13955876,13143586,13962786,3800,3744,-2017,-10964,-336,754,-2804,29136,85,163,851
1191681,13130876,13956680,13144054,13963254,3800,3272,8613,-10215,-777,10204,-146,32767,85,163,851
1192682,13131016,13957384,13144522,13963722,3800,3796,12646,-3499,-480,2095,-6953,32767,43,152,849
1193683,13131104,13958096,13144990,13964190,3800,3640,8984,3466,1042,-1855,-6568,22162,43,152,849
1194697,13131160,13958736,13145458,13964658,3800,3800,3900,10028,1887,-2459,155,22906,36,128,847
1195698,13131188,13959332,13145926,13965126,3800,3800,1853,11938,2107,-4402,583,8193,36,128,847
1196698,13131188,13959840,13146394,13965594,3800,3800,2445,11387,2180,-3447,439,3899,20,118,845
1197699,13131192,13960348,13146862,13966062,3800,3800,3280,9653,2345,-2516,1166,926,20,118,845
1198700,13131196,13960732,13147330,13966530,3800,3800,3692,7998,2509,-2368,2342,-278,16,99,842
1199701,13131188,13961040,13147798,13966998,3800,3800,3681,6683,2578,-1841,1830,3,16,99,842
1200702,13131200,13961312,13148266,13967466,3800,3800,3629,5467,2672,-2456,1394,364,8,77,840
1201703,13131208,13961556,13148734,13967934,3800,3800,3560,4956,2800,-3354,920,2446,8,77,840
1202705,13131248,13961756,13149202,13968402,3800,3800,3430,4112,2686,-4560,1661,896,11,57,839
1203706,13131272,13961904,13149670,13968870,3800,3800,3187,3428,2137,-5228,2343,2143,11,57,839
1204707,13131348,13962000,13150138,13969338,3800,3800,2882,2909,1222,-5406,4146,2124,-2,28,837
1205708,13131436,13962088,13150606,13969806,3800,3800,2412,2331,-9,-5283,6628,2028,-2,28,837
1206709,13131536,13962144,13151074,13970274,3800,3800,1583,2071,-1285,-5090,7913,3908,6,13,838
1207710,13131688,13962208,13151542,13970742,3800,3800,596,1823,-2423,-4868,7840,3218,6,13,838
1208711,13131836,13962236,13152010,13971210,3800,3800,-269,1208,-3643,-4546,8934,1612,17,14,838
1209712,13132000,13962272,13152478,13971678,3800,3800,-975,-46,-5005,-5385,8688,140,17,14,838
1210713,13132196,13962296,13152946,13972146,3800,3800,-1384,-2045,-6173,-4669,6632,-2397,40,20,838
1211714,13132368,13962336,13153414,13972614,3800,3800,-1591,-4638,-6794,-2791,4518,-3980,40,20,838
1212715,13132532,13962392,13153882,13973082,3800,3800,-1667,-7337,-6773,-1599,2332,-3958,27,20,838
1213716,13132704,13962448,13154350,13973550,3800,3800,-1767,-9672,-6247,-272,657,-2936,27,20,838
1214717,13132876,13962504,13154818,13974018,3800,3800,-1955,-11534,-5340,560,-1082,-1930,37,5,834
1215718,13133044,13962572,13155286,13974486,3800,3800,-2388,-12657,-4017,1039,-3250,351,37,5,834
1216726,13133180,13962652,13155758,13974958,3800,3800,-2585,-13679,-2906,540,-2262,-750,41,9,837
1217720,13133308,13962768,13156226,13975426,3800,3800,-2526,-14987,-2226,236,-1336,-702,41,9,837
1218720,13133428,13962896,13156694,13975894,3800,3800,-2350,-16011,-1732,20,-1459,605,17,21,838
1219722,13133524,13963072,13157162,13976362,3800,3800,-2277,-16389,-1254,-278,-1691,2706,17,21,838
1220723,13133628,13963248,13157630,13976830,3800,3800,-2488,-15712,-863,-796,-1757,5796,29,34,838
1221724,13133708,13963436,13158098,13977298,3800,3800,-2958,-14000,-617,-1459,-2056,8965,29,34,838
1222725,13133808,13963644,13158566,13977766,3800,3800,-3371,-11825,-451,-1960,-2745,9459,20,54,838
1223726,13133896,13963908,13159034,13978234,3800,3800,-3473,-9725,-276,-2302,-2978,9277,20,54,838
1224727,13133972,13964172,13159502,13978702,3800,3800,-3361,-7576,-117,-2431,-2814,10224,23,64,839
1225727,13134048,13964468,13159970,13979170,3800,3800,-3172,-5178,16,-2302,-2810,11128,23,64,839
1226728,13134136,13964788,13160438,13979638,3800,3800,-2911,-2685,115,-2035,-2769,10987,30,70,839
1227730,13134236,13965148,13160906,13980106,3800,3800,-2499,-478,129,-1618,-2478,9790,30,70,839
1228731,13134304,13965496,13161374,13980574,3800,3800,-2002,1280,17,-1102,-1863,8586,29,68,840
1229732,13134420,13965876,13161842,13981042,3800,3800,-1425,2493,-203,-595,-1505,7063,29,68,840
1230732,13134528,13966280,13162310,13981510,3800,3800,-774,3244,-450,90,-1722,5673,15,74,840
1231734,13134636,13966692,13162778,13981978,3800,3800,-82,3641,-649,986,-1639,4605,15,74,840
1232734,13134760,13967104,13163246,13982446,3800,3800,609,3630,-766,1808,-1576,3303,14,85,841
1233736,13134904,13967476,13163714,13982914,3800,3800,1338,3250,-825,2448,-1426,2111,14,85,841
1234736,13135040,13967860,13164182,13983382,3800,3800,2135,2544,-856,2962,-934,1216,18,92,841
1235738,13135204,13968304,13164650,13983850,3800,3800,2959,1710,-906,3232,-480,726,18,92,841
1236739,13135392,13968676,13165118,13984318,3800,3800,3738,773,-959,3420,-136,487,25,85,841
1237740,13135576,13969040,13165586,13984786,3800,3800,4437,-95,-966,3686,-2,726,25,85,841
1238741,13135776,13969416,13166054,13985254,3800,3800,5018,-805,-939,3755,183,1276,39,70,841
1239742,13135988,13969748,13166522,13985722,3800,3800,5504,-1303,-951,3552,343,1603,39,70,841
1240743,13136212,13970080,13166990,13986190,3800,3800,5904,-1669,-993,3102,98,1987,34,62,842
1241744,13136412,13970416,13167458,13986658,3800,3800,6195,-1793,-1020,2618,-184,2706,35,73,841
1242744,13136636,13970732,13167926,13987126,3800,3800,6349,-1657,-1040,2116,-370,3472,35,73,841
1243746,13136844,13971056,13168394,13987594,3800,3800,6387,-1257,-1048,1537,-479,4099,55,62,841
1244747,13137052,13971352,13168862,13988062,3800,3800,6304,-679,-1047,1167,-384,4737,55,62,841
1245748,13137268,13971652,13169330,13988530,3800,3800,6117,14,-1047,777,-10,4878,31,62,840
1246748,13137464,13972044,13169798,13988998,3800,3800,5844,764,-1031,446,411,5094,31,62,840
1247750,13137656,13972460,13170266,13989466,3800,3800,5496,1582,-975,274,604,5121,41,85,841
1248751,13137864,13972844,13170734,13989934,3800,3800,5120,2289,-887,108,1006,4660,41,85,841
1249752,13138068,13973300,13171202,13990402,3800,3800,4681,2875,-813,54,1636,4343,56,92,842
1250752,13138284,13973764,13171670,13990870,3800,3800,4210,3193,-763,90,2108,3449,56,92,842
1251761,13138492,13974228,13172142,13991342,3800,3800,3734,3242,-726,145,2240,2742,46,96,843
1252755,13138696,13974696,13172610,13991810,3800,3800,3319,3092,-623,155,1853,2125,46,96,843
1253756,13138900,13975196,13173078,13992278,3800,3800,2951,2820,-395,234,1465,1711,49,100,843
1254757,13139088,13975664,13173546,13992746,3800,3800,2563,2522,-66,263,1347,1508,49,100,843
1255758,13139268,13976192,13174014,13993214,3800,3800,2155,2122,286,268,1612,1278,52,96,843
1256759,13139444,13976728,13174482,13993682,3800,3800,1773,1589,589,184,2027,740,52,96,843
1257759,13139624,13977344,13174950,13994150,3800,3800,1406,882,816,-63,2421,477,40,105,843
1258760,13139812,13977960,13175418,13994618,3800,3800,1060,173,958,-287,2420,386,40,105,843
1259762,13139980,13978520,13175886,13995086,3800,3800,761,-521,1083,-559,2252,411,50,111,843
1260763,13140140,13979212,13176354,13995554,3800,3800,487,-1160,1176,-766,2296,387,50,111,843
1261764,13140320,13979848,13176822,13996022,3800,3800,219,-1761,1210,-768,2497,718,45,120,844
