"Data file recorded 2014/9/24  13:28:25"
"%  Right Stride Frequency         = 3.0"
"%  Left Stride Frequency         = 3.0"
"%  Phase (Fractional)         = 32768.0"
"%  Experiment.py "
"%  Motor Gains    = [1800, 200, 100, 0, 0, 1800, 200, 100, 0, 0]
"% Columns: "
"% time | Right Leg Pos | Left Leg Pos | Commanded Right Leg Pos | Commanded Left Leg Pos | DCR | DCL | GyroX | GryoY | GryoZ | AX | AY | AZ | RBEMF | LBEMF | VBatt "
11353,10263248,11470896,10228297,11506249,-3800,3800,-371,-561,365,158,-328,4039,10,6,857
12354,10263244,11470920,10228494,11506446,-3800,3800,-373,-563,363,157,-323,4051,10,6,857
13355,10263168,11470936,10228691,11506643,-3800,3800,-374,-565,362,125,-330,4052,10,-7,857
14356,10263084,11470964,10228888,11506840,-3800,3800,-378,-539,364,151,-372,4102,10,-7,857
15357,10262944,11470984,10229085,11507037,-3800,3800,-391,-532,385,229,-545,4114,7,-9,857
16358,10262752,11471004,10229282,11507234,-3800,3800,-418,-497,415,300,-568,4114,7,-9,857
17359,10262552,11471028,10229479,11507431,-3800,3800,-453,-502,442,393,-606,4132,-21,-8,822
18360,10262272,11471036,10229676,11507628,-3800,3800,-498,-497,470,489,-624,4110,-21,-8,822
19362,10261936,11471044,10229873,11507825,-3800,3800,-554,-482,500,587,-467,4173,-28,-14,822
20362,10261624,11471072,10230070,11508022,-3800,3800,-626,-420,543,781,-741,4185,-28,-14,822
21363,10261268,11471100,10230267,11508219,-3800,3800,-694,-397,594,942,-716,4133,-60,2,823
22364,10260832,11471128,10230464,11508416,-3800,3800,-750,-343,657,1124,-801,4333,-60,2,823
23365,10260436,11471152,10230661,11508613,-3800,3800,-799,-274,734,1288,-831,4439,-75,-11,823
24366,10260048,11471196,10230858,11508810,-3800,3800,-848,-197,811,1432,-736,4591,-75,-11,823
25367,10259620,11471232,10231055,11509007,-3800,3800,-912,-40,884,1390,-672,4886,-87,0,824
26368,10259212,11471272,10231252,11509204,-3800,3800,-937,263,969,1191,-1081,5741,-87,0,824
27369,10258800,11471328,10231449,11509401,-3800,3800,-803,982,1083,913,-1754,8857,-89,8,823
28370,10258400,11471368,10231646,11509598,-3800,3800,-699,1552,1178,869,-1900,6448,-89,8,823
29371,10258016,11471408,10231843,11509795,-3800,3800,-793,1803,1253,829,-2171,5049,-82,0,823
30372,10257632,11471432,10232040,11509992,-3800,3800,-1023,1914,1345,731,-2656,5049,-82,0,823
31373,10257224,11471472,10232237,11510189,-3800,3800,-1256,1995,1461,492,-2953,4782,-69,4,824
32374,10256876,11471496,10232434,11510386,-3800,3800,-1439,2116,1607,302,-3270,5014,-69,4,824
33375,10256512,11471532,10232631,11510583,-3800,3800,-1444,2476,1816,5,-3986,6780,-72,5,824
34376,10256132,11471568,10232828,11510780,-3800,3800,-1219,3147,2165,-218,-4743,9532,-72,5,824
35371,10255824,11471592,10244484,11522436,-1965,3800,-1044,3447,2414,-10,-3380,5492,-80,2,824
36365,10255500,11471620,10244681,11522633,-1638,3800,-1004,3024,2508,10,-2476,2995,-80,2,824
37366,10255208,11471644,10244878,11522830,-1625,3800,-978,2261,2560,-14,-2401,2638,-68,-11,824
38367,10254968,11471648,10245075,11523027,-1760,3800,-811,1896,2712,-273,-3425,5310,-68,-11,824
39368,10254812,11471664,10245272,11523224,-2132,3800,-450,2304,2965,-357,-4247,9001,-59,-12,822
40369,10254688,11471704,10245469,11523421,-2193,3800,-209,2437,3192,-56,-3762,4861,-59,-12,822
41370,10254584,11471728,10245666,11523618,-2187,3800,-235,2136,3357,66,-3275,3397,-49,-5,833
42372,10254500,11471752,10245863,11523815,-2190,3800,-332,1548,3419,-153,-2394,2946,-49,-5,833
43372,10254444,11471780,10246060,11524012,-2256,3800,-409,989,3385,-423,-2085,3034,-24,-9,832
44374,10254412,11471804,10246257,11524209,-2306,3800,-478,649,3371,-579,-2422,3650,-24,-9,832
45374,10254384,11471828,10246454,11524406,-2234,3800,-555,499,3386,-513,-2347,4104,-17,-8,830
46375,10254372,11471852,10246651,11524603,-2244,3800,-627,489,3357,-539,-2143,4395,-17,-8,830
47376,10254368,11471868,10246848,11524800,-2207,3800,-644,380,3280,-764,-1773,4279,-15,-2,829
48378,10254348,11471880,10247045,11524997,-2013,3800,-621,235,3148,-738,-1479,4272,-15,-2,829
49378,10254348,11471912,10247242,11525194,-2053,3800,-603,97,3000,-790,-1455,4221,4,-7,828
50380,10254356,11471936,10247439,11525391,-2021,3800,-598,-31,2861,-963,-1458,4058,4,-7,828
51380,10254300,11471956,10247636,11525588,-1511,3800,-588,-229,2723,-1021,-1508,3827,8,-4,828
52382,10254224,11471992,10247833,11525785,-1268,3800,-552,-519,2571,-1017,-1386,3499,8,-4,828
53382,10254108,11472020,10248030,11525982,-881,3800,-464,-875,2389,-929,-954,3324,7,-8,830
54383,10253984,11472068,10248227,11526179,-691,3800,-316,-1271,2179,-990,-556,3073,7,-8,830
55384,10253912,11472120,10248424,11526376,-899,3800,-135,-1813,1974,-958,-8,2833,-11,-7,830
56385,10253828,11472204,10248621,11526573,-702,3800,62,-2331,1742,-824,916,2747,-11,-7,830
57386,10253768,11472300,10248818,11526770,-740,3800,296,-2891,1489,-692,1706,2532,-8,2,833
58388,10253704,11472408,10249015,11526967,-601,3800,525,-3422,1253,-550,2114,2738,-8,2,833
59388,10253640,11472528,10249212,11527164,-487,3800,719,-3905,1090,-456,1918,2812,0,4,836
60390,10253596,11472700,10249409,11527361,-507,3800,909,-4365,1025,-483,1306,2719,0,4,836
61390,10253596,11472888,10249606,11527558,-697,3800,1117,-4741,997,-719,998,2913,-19,26,834
62391,10253572,11473100,10249803,11527755,-451,3800,1358,-5119,942,-880,1071,2732,-19,26,834
63392,10253540,11473368,10250000,11527952,-300,3800,1619,-5462,886,-652,737,3038,-9,23,837
64394,10253512,11473672,10250197,11528149,-227,3800,1838,-5543,862,-594,1496,3720,-9,23,837
65394,10253504,11473944,10250394,11528346,-263,3800,1965,-5416,897,-679,1310,4141,-14,39,838
66396,10253500,11474264,10250591,11528543,-200,3800,2072,-5214,940,-792,1174,4098,-14,39,838
67396,10253508,11474616,10250788,11528740,-193,3800,2193,-4987,978,-688,1797,4267,8,67,839
68397,10253488,11474944,10250985,11528937,78,3800,2289,-4641,1074,-393,1256,4714,8,67,839
69398,10253456,11475220,10251182,11529134,252,3800,2388,-4240,1211,-251,808,4521,-4,58,839
70399,10253440,11475488,10251379,11529331,246,3800,2495,-3902,1373,-194,547,4356,-4,58,839
71400,10253428,11475712,10251576,11529528,312,3800,2594,-3579,1512,-19,868,4097,-6,56,838
72401,10253432,11475940,10251773,11529725,296,3800,2672,-3344,1630,220,1047,3829,-6,56,838
73402,10253432,11476084,10251970,11529922,408,3800,2745,-3082,1737,392,1225,3781,-3,48,838
74403,10253432,11476200,10252167,11530119,495,3800,2792,-2896,1808,453,1397,3522,-3,48,838
75404,10253444,11476276,10252364,11530316,500,3800,2789,-2738,1839,663,1769,3361,-4,39,839
76405,10253452,11476312,10252561,11530513,608,3800,2722,-2575,1805,843,2456,3246,-4,39,839
77406,10253464,11476356,10252758,11530710,664,3800,2595,-2450,1709,956,2793,2923,-3,23,837
78407,10253464,11476384,10252955,11530907,826,3800,2422,-2412,1570,1072,2977,2674,-3,23,837
79408,10253456,11476404,10253152,11531104,966,3800,2201,-2383,1408,1250,3214,2551,-3,13,836
80409,10253460,11476448,10253349,11531301,976,3800,1931,-2411,1231,1364,3312,2376,-3,13,836
81410,10253480,11476476,10253546,11531498,954,3800,1623,-2500,1030,1455,3483,2116,-6,-1,836
82411,10253496,11476496,10253743,11531695,1058,3800,1294,-2632,815,1525,3537,2113,-6,-1,836
83412,10253512,11476532,10253940,11531892,1138,3800,930,-2695,565,1556,3724,2284,15,1,834
84413,10253548,11476576,10254137,11532089,1083,3800,513,-2602,254,1563,4170,2792,15,1,834
85414,10253588,11476584,10254334,11532286,1127,3800,30,-2363,32,1800,3786,3289,0,3,835
86415,10253624,11476612,10254531,11532483,1223,3800,-465,-2068,-82,1953,3666,3370,0,3,835
87416,10253688,11476648,10254728,11532680,1107,3800,-895,-1912,-226,1747,4049,2877,15,-4,834
88417,10253760,11476672,10254925,11532877,1111,3800,-1273,-1800,-451,1575,4242,2950,15,-4,834
89418,10253832,11476704,10255122,11533074,1167,3800,-1718,-1535,-656,1546,3830,3773,23,1,834
90419,10253912,11476724,10255319,11533271,1169,3800,-2217,-1011,-717,1476,3283,4315,23,1,834
91420,10254012,11476780,10255516,11533468,1086,3800,-2654,-485,-724,1330,3463,4021,14,12,833
92421,10254112,11476808,10255713,11533665,1129,3800,-2955,-123,-797,968,3553,3602,14,12,833
93422,10254208,11476876,10255910,11533862,1199,3800,-3132,11,-956,568,3485,3295,29,6,833
94423,10254332,11476908,10256107,11534059,1057,3800,-3205,-12,-1139,131,3007,2689,29,6,833
95424,10254452,11476964,10256304,11534256,1115,3800,-3196,-160,-1271,-152,2375,2433,19,8,833
96425,10254584,11476988,10256501,11534453,1070,3800,-3139,-231,-1345,-411,1999,2652,19,8,833
97426,10254708,11477032,10256698,11534650,1152,3800,-3046,-322,-1378,-723,1696,2633,14,15,834
98427,10254836,11477096,10256895,11534847,1157,3800,-2931,-382,-1379,-1017,1293,2763,14,15,834
99428,10254988,11477148,10257092,11535044,1028,3800,-2833,-423,-1333,-1247,880,3115,39,14,834
100429,10255168,11477224,10257289,11535241,861,3800,-2764,-314,-1253,-1419,790,3696,39,14,834
101430,10255316,11477260,10257486,11535438,1083,3800,-2692,-98,-1156,-1549,1093,3998,35,7,834
102431,10255456,11477320,10257683,11535635,1158,3800,-2605,127,-1075,-1732,1471,3955,35,7,834
103432,10255632,11477392,10257880,11535832,942,3800,-2527,395,-1023,-1693,1594,4299,38,7,834
104433,10255788,11477472,10258077,11536029,1086,3800,-2476,715,-960,-1548,1467,4577,38,7,834
105434,10255980,11477536,10258274,11536226,864,3800,-2426,1032,-850,-1447,1098,4674,25,4,834
106435,10256132,11477644,10258471,11536423,1134,3800,-2350,1283,-732,-1333,1023,4600,25,4,834
107436,10256344,11477732,10258668,11536620,753,3800,-2250,1456,-634,-1126,1012,4380,43,23,834
108437,10256464,11477828,10258865,11536817,1363,3800,-2142,1569,-546,-858,998,4351,43,23,834
109438,10256620,11477940,10259062,11537014,1156,3800,-2027,1622,-474,-656,1206,4224,44,16,835
110439,10256836,11478088,10259259,11537211,773,3800,-1911,1642,-404,-352,1210,4275,44,16,835
111440,10256972,11478212,10259456,11537408,1300,3800,-1805,1629,-316,-31,1149,4291,45,21,835
112441,10257140,11478360,10259653,11537605,1114,3800,-1697,1558,-209,196,1108,4216,45,21,835
113441,10257304,11478512,10259850,11537802,1153,3800,-1563,1452,-122,315,1054,4201,30,18,834
114443,10257452,11478692,10260047,11537999,1275,3800,-1206,1506,-80,725,1001,6851,30,18,834
115444,10257608,11478880,10260244,11538196,1244,3800,-481,2225,-102,1445,927,12213,29,40,835
116445,10257772,11479064,10260441,11538393,1208,3800,96,2551,-126,897,1125,6267,29,40,835
117446,10257912,11479260,10260638,11538590,1384,3800,245,2260,-117,741,1192,3868,35,39,834
118454,10258092,11479444,10260868,11538820,1156,3800,180,1684,-72,843,1032,3701,35,39,834
119448,10258276,11479644,10261065,11539017,1138,3800,99,1174,-16,881,943,3652,40,28,835
120449,10258436,11479828,10261262,11539214,1305,3800,78,723,27,664,905,3546,40,28,835
121450,10258604,11480024,10261459,11539411,1268,3800,81,246,29,431,911,3206,44,44,835
122451,10258812,11480224,10261656,11539608,1014,3800,56,-297,-2,296,727,3206,44,44,835
123452,10259008,11480412,10261853,11539805,1090,3800,-12,-818,-31,131,621,3303,40,46,835
124453,10259216,11480576,10262050,11540002,1011,3800,-112,-1312,-47,-35,526,3433,40,46,835
125454,10259448,11480748,10262247,11540199,846,3800,-221,-1797,-57,-204,750,3361,36,30,835
126455,10259648,11480956,10262444,11540396,1045,3800,-305,-2253,-58,-280,734,3403,36,30,835
127456,10259888,11481120,10262641,11540593,776,3800,-362,-2707,-43,-318,210,3423,42,40,835
128457,10260112,11481324,10262838,11540790,865,3800,-379,-3121,-22,-549,-22,3499,42,40,835
129458,10260356,11481560,10263035,11540987,720,3800,-350,-3539,15,-748,-405,3491,45,43,835
130459,10260576,11481756,10263232,11541184,861,3800,-291,-3982,71,-794,-697,3470,45,43,835
131460,10260816,11482004,10263429,11541381,717,3800,-221,-4380,171,-821,-909,3628,39,51,836
132461,10261116,11482256,10263626,11541578,298,3800,-155,-4710,327,-866,-930,3713,39,51,836
133462,10261324,11482468,10263823,11541775,868,3800,-89,-5018,504,-861,-686,3711,54,42,837
134463,10261600,11482708,10264020,11541972,409,3800,-35,-5246,684,-790,-476,3924,54,42,837
135464,10261840,11482904,10264217,11542169,615,3800,15,-5474,866,-744,-155,3827,63,55,837
136465,10262064,11483108,10264414,11542366,704,3800,75,-5643,1041,-727,-222,3986,63,55,837
137466,10262276,11483308,10264611,11542563,773,3800,129,-5769,1218,-684,-300,4201,40,48,836
138467,10262540,11483496,10264808,11542760,419,3800,187,-5806,1393,-480,-378,4429,40,48,836
139468,10262760,11483664,10265005,11542957,684,3800,245,-5707,1559,-268,-410,4825,47,39,837
140469,10262972,11483820,10265202,11543154,727,3800,299,-5551,1702,-207,-353,4759,47,39,837
141470,10263212,11483968,10265399,11543351,535,3800,332,-5390,1824,61,-337,4894,60,44,835
142471,10263368,11484128,10265596,11543548,1078,3800,341,-5165,1950,394,-448,4981,60,44,835
143472,10263540,11484308,10265793,11543745,990,3800,339,-4959,2037,577,-271,4835,39,45,837
144473,10263712,11484496,10265990,11543942,1001,3800,338,-4743,2060,713,-300,4880,39,45,837
145473,10263868,11484672,10266187,11544139,1120,3800,333,-4571,2056,929,-427,4812,40,43,837
146475,10264080,11484848,10266384,11544336,763,3800,318,-4308,2050,1180,-556,4896,40,43,837
147476,10264256,11485024,10266581,11544533,997,3800,300,-3991,2041,1321,-739,4853,28,42,835
148477,10264404,11485216,10266778,11544730,1195,3800,282,-3708,2019,1478,-877,4791,28,42,835
149478,10264568,11485428,10266975,11544927,1109,3800,267,-3464,1981,1625,-1042,4660,49,36,835
150479,10264760,11485644,10267172,11545124,937,3800,257,-3279,1931,1771,-1327,4514,49,36,835
151480,10264976,11485872,10267369,11545321,779,3800,250,-3086,1861,1839,-1464,4478,36,39,836
152481,10265160,11486112,10267566,11545518,986,3800,247,-2899,1767,1879,-1395,4375,36,39,836
153482,10265336,11486360,10267763,11545715,1045,3800,244,-2659,1681,2085,-1624,4417,43,47,835
154484,10265520,11486600,10267960,11545912,1002,3800,222,-2371,1618,2275,-1702,4608,43,47,835
155484,10265692,11486888,10268157,11546109,1088,3800,174,-2053,1576,2275,-2002,4650,51,47,837
156485,10265848,11487180,10268354,11546306,1207,3800,106,-1685,1546,2085,-2345,4931,51,47,837
157486,10266000,11487476,10268551,11546503,1252,3800,35,-1264,1517,1815,-2305,4989,36,44,836
158487,10266160,11487776,10268748,11546700,1219,3800,-24,-855,1500,1754,-2277,4970,36,44,836
159488,10266328,11488072,10268945,11546897,1182,3800,-71,-386,1497,1690,-2169,5023,41,48,835
160489,10266492,11488412,10269142,11547094,1222,3800,-135,76,1519,1529,-2160,5098,41,48,835
161490,10266660,11488776,10269339,11547291,1210,3800,-222,605,1558,1412,-2268,5207,43,60,834
162491,10266804,11489100,10269536,11547488,1384,3800,-309,1056,1607,1315,-2216,5065,43,60,834
163492,10266980,11489400,10269733,11547685,1193,3800,-377,1496,1675,1260,-2308,5061,42,73,836
164493,10267100,11489840,10269930,11547882,1578,3800,-416,1873,1763,1192,-2365,4757,42,73,836
165494,10267252,11490220,10270127,11548079,1398,3800,-435,2136,1856,1181,-2433,4378,45,55,836
166495,10267420,11490584,10270324,11548276,1312,3800,-441,2327,1948,1212,-2585,4124,45,55,836
167496,10267536,11490972,10270521,11548473,1672,3800,-395,2400,2057,1177,-2757,3737,41,68,836
168497,10267664,11491416,10270718,11548670,1629,3800,-304,2346,2180,1157,-2968,3523,41,68,836
169498,10267808,11491920,10270915,11548867,1552,3800,-167,2213,2285,1098,-3018,3092,44,83,836
170499,10267964,11492360,10271112,11549064,1496,3800,12,2012,2357,1054,-2840,2979,44,83,836
171500,10268120,11492908,10271309,11549261,1515,3800,208,1830,2445,1112,-2991,3049,23,74,835
172501,10268272,11493456,10271506,11549458,1560,3800,420,1640,2540,988,-3072,2920,23,74,835
173502,10268408,11493988,10271703,11549655,1687,3800,632,1510,2625,861,-3069,3056,44,97,836
174503,10268552,11494636,10271900,11549852,1661,3800,877,1354,2687,895,-2944,2964,44,97,836
175504,10268712,11495280,10272097,11550049,1578,3800,1171,1117,2695,950,-2278,2934,29,88,836
176505,10268844,11495984,10272294,11550246,1783,3800,1454,1089,2679,1114,-1825,3469,29,88,836
177506,10269004,11496652,10272491,11550443,1624,3800,1743,1151,2718,1336,-1679,3607,30,120,837
178507,10269192,11497456,10272688,11550640,1454,3800,2039,1335,2799,1457,-1576,3996,30,120,837
179508,10269364,11498152,10272885,11550837,1566,3800,2359,1633,2853,1133,-1299,4083,34,132,837
180509,10269504,11499008,10273082,11551034,1791,3800,2683,1843,2891,774,-1381,3942,34,132,837
181510,10269696,11499732,10273279,11551231,1469,3800,2965,2230,2941,566,-1614,4576,30,129,837
182511,10269848,11500532,10273476,11551428,1740,3800,3210,2798,3009,266,-1095,4737,30,129,837
183512,10270004,11501352,10273673,11551625,1733,3800,3435,3347,3051,477,-558,4443,40,146,838
184513,10270184,11502140,10273870,11551822,1591,3800,3647,3835,3068,883,-325,4080,40,146,838
185514,10270360,11502932,10274067,11552019,1627,3800,3859,4193,3080,1145,-557,3663,47,151,838
186515,10270536,11503728,10274264,11552216,1637,3800,4082,4496,3102,1408,-1588,3279,47,151,838
187516,10270736,11504512,10274461,11552413,1485,3800,4316,4668,3143,1328,-2045,2702,36,143,838
188517,10270916,11505164,10274658,11552610,1619,3800,4504,4772,3190,1499,-2328,2450,36,143,838
189518,10271100,11505928,10274855,11552807,1601,3800,4648,4839,3227,1630,-2380,1994,54,139,839
190519,10271280,11506588,10275052,11553004,1633,3800,4770,4842,3247,1547,-2196,1624,54,139,839
191520,10271492,11507320,10275249,11553201,1428,3800,4879,4808,3250,1438,-2229,1387,35,134,838
192521,10271668,11507912,10275446,11553398,1663,3800,4895,4756,3223,1211,-1769,1420,35,134,838
193522,10271832,11508524,10275643,11553595,1753,3800,4816,4794,3144,961,-1602,1451,59,121,838
194523,10272060,11509072,10275840,11553792,1340,3800,4694,4784,2981,684,-1697,866,59,121,838
195524,10272240,11509640,10276037,11553989,1648,3800,4549,4649,2766,367,-1727,558,56,125,838
196525,10272412,11510244,10276234,11554186,1710,3800,4352,4506,2533,42,-1574,544,56,125,838
197526,10272600,11510752,10276431,11554383,1614,3800,4078,4399,2261,-251,-1214,514,39,125,837
198527,10272768,11511292,10276628,11554580,1753,3800,3719,4254,1911,-681,-738,226,39,125,837
199528,10272936,11511772,10276825,11554777,1767,3800,3336,4014,1477,-1185,63,-211,39,100,838
200529,10273116,11512316,10277022,11554974,1700,3800,2901,3658,1024,-1491,340,-225,39,100,838
201536,10273280,11512792,10277252,11555204,1829,3800,2399,3339,577,-1834,816,-168,55,99,837
202531,10273408,11513284,10277449,11555401,2085,3800,1886,2969,171,-2336,1341,-538,55,99,837
203532,10273528,11513732,10277646,11555598,2170,3800,1389,2400,-254,-2652,2142,-1015,48,104,835
204533,10273640,11514172,10277843,11555795,2259,3800,897,1715,-741,-2872,3304,-1243,48,104,835
205534,10273724,11514556,10278040,11555992,2483,3800,375,854,-1224,-2920,3322,-1692,28,103,835
206535,10273804,11514952,10278237,11556189,2561,3800,-198,-95,-1601,-2569,2645,-1646,28,103,835
207536,10273880,11515384,10278434,11556386,2640,3800,-776,-1144,-1697,-2263,1433,-1744,20,91,833
208537,10273936,11515732,10278631,11556583,2828,3800,-1374,-2156,-1458,-1529,409,-1255,20,91,833
209538,10273980,11516124,10278828,11556780,2971,3800,-1963,-3007,-936,-1049,-29,-780,27,71,832
210539,10274020,11516520,10279025,11556977,3066,3800,-2515,-3860,-231,-1110,-6,-585,27,71,832
211540,10274052,11516908,10279222,11557174,3189,3800,-3034,-4678,486,-1014,-55,-387,15,70,831
212541,10274120,11517264,10279419,11557371,3022,3800,-3450,-5770,1139,-1029,347,-1058,15,70,831
213542,10274184,11517736,10279616,11557568,3107,3800,-3739,-7058,1728,-1148,430,-1159,4,82,829
214543,10274268,11518196,10279813,11557765,3032,3800,-4007,-8409,2285,-1083,-9,-995,4,82,829
215544,10274360,11518616,10280010,11557962,3029,3800,-4343,-9610,2849,-812,-124,32,18,79,827
216545,10274432,11519132,10280207,11558159,3210,3800,-5150,-9613,3540,66,-376,4556,18,79,827
217546,10274504,11519672,10280404,11558356,3266,3800,-6322,-8936,4266,413,-931,5593,32,82,828
218547,10274576,11520192,10280601,11558553,3322,3800,-7372,-8268,4786,414,-1172,5364,32,82,828
219548,10274628,11520644,10280798,11558750,3512,3800,-7832,-8611,5073,452,-1076,2464,18,90,828
220549,10274668,11521164,10280995,11558947,3657,3800,-7832,-9713,5262,949,-1331,1678,18,90,828
221550,10274704,11521740,10281192,11559144,3755,3800,-7814,-10592,5502,1275,-2125,3388,12,89,828
222564,10274740,11522328,10281389,11559341,3800,3800,-7957,-10798,5882,1726,-2774,5249,12,89,828
223552,10274796,11522932,10281586,11559538,3764,3800,-8105,-10714,6325,2525,-2881,5618,6,99,827
224566,10274840,11523632,10281783,11559735,3800,3800,-4580,-5367,6304,11596,-1545,27705,6,99,827
225566,10274908,11524348,10281980,11559932,3800,3800,4343,11784,4738,25089,1356,32767,27,115,824
226568,10274964,11525092,10282177,11560129,3800,3800,9343,18664,3799,5417,-1905,8485,27,115,824
227569,10275048,11525844,10282374,11560326,3800,3800,9323,15997,3878,3139,-1379,706,32,139,825
228570,10275132,11526680,10282571,11560523,3800,3800,7862,10061,4166,3308,-1543,-4453,32,139,825
229571,10275212,11527592,10282768,11560720,3800,3800,6687,6367,4546,3421,-3949,-1376,25,154,826
230572,10275320,11528364,10282965,11560917,3800,3800,6247,4879,5002,2430,-3691,-120,25,154,826
231560,10275460,11529220,10283162,11561114,3651,3800,5980,3286,5158,2521,-1555,-1852,37,151,827
232561,10275624,11530104,10283359,11561311,3518,3800,5629,1707,4851,2298,610,-546,37,151,827
233562,10275808,11530936,10283556,11561508,3399,3800,4993,-250,4339,856,2359,-804,22,170,827
234563,10275996,11531824,10283753,11561705,3380,3800,4333,-2208,3740,508,2101,-1173,22,170,827
235564,10276144,11532520,10283950,11561902,3653,3800,3835,-4026,3280,-412,2089,-549,41,182,829
236578,10276252,11533208,10284147,11562099,3800,3800,3359,-5181,3005,-1754,2513,1753,41,182,829
237579,10276336,11533820,10284344,11562296,3800,3800,2794,-5650,2664,-2576,2614,3321,41,167,829
238580,10276436,11534440,10284541,11562493,3800,3800,2147,-5899,2293,-3402,3041,4036,41,167,829
239581,10276532,11535008,10284738,11562690,3800,3800,1552,-5609,1949,-3570,3828,5538,44,146,830
240582,10276684,11535624,10284935,11562887,3800,3800,987,-5104,1567,-3980,4331,5873,44,146,830
241570,10276864,11536132,10285132,11563084,3665,3800,425,-4322,1249,-4735,4416,6914,37,120,826
242571,10277092,11536612,10285329,11563281,3353,3800,-96,-3254,1073,-4637,4303,7407,37,120,826
243572,10277336,11537112,10285526,11563478,3234,3800,-509,-2320,1079,-4378,3668,6280,37,112,825
244573,10277580,11537592,10285723,11563675,3215,3800,-835,-1594,1219,-4754,3869,6338,37,112,825
245574,10277780,11538080,10285920,11563872,3491,3800,-1155,-882,1436,-4855,4379,6387,65,102,826
246575,10277988,11538480,10286117,11564069,3437,3800,-1555,-125,1793,-4171,4417,6353,65,102,826
247576,10278224,11538804,10286314,11564266,3247,3800,-1994,641,2216,-3520,4782,5730,45,102,828
248577,10278464,11539128,10286511,11564463,3204,3800,-2303,1019,2653,-2926,4351,4188,45,102,828
249578,10278700,11539444,10286708,11564660,3214,3800,-2518,1179,3223,-2440,3351,4016,54,83,827
250579,10278940,11539716,10286905,11564857,3171,3800,-2702,1423,3853,-2998,2957,4076,54,83,827
251580,10279120,11540032,10287102,11565054,3555,3800,-2808,1508,4304,-3564,3420,3238,58,65,826
252581,10279308,11540296,10287299,11565251,3510,3800,-2885,1401,4447,-3547,3958,2886,58,65,826
253582,10279532,11540556,10287496,11565448,3275,3800,-3009,1169,4302,-3007,4199,2268,49,67,828
254583,10279748,11540784,10287693,11565645,3318,3800,-3069,592,4006,-2364,3526,1045,49,67,828
255584,10279944,11541028,10287890,11565842,3445,3800,-3046,-167,3732,-2266,2539,875,38,59,826
256585,10280104,11541280,10288087,11566039,3688,3800,-3009,-840,3577,-2875,1044,1465,38,59,826
257598,10280232,11541524,10288284,11566236,3800,3800,-3051,-1324,3485,-2983,58,2060,58,49,825
258599,10280340,11541784,10288481,11566433,3800,3800,-3166,-1712,3312,-2263,132,2114,58,49,825
259601,10280444,11542028,10288678,11566630,3800,3800,-3281,-2308,2973,-1108,691,1325,39,62,824
260601,10280552,11542284,10288875,11566827,3800,3800,-3375,-3099,2476,-263,914,1095,39,62,824
261603,10280696,11542588,10289072,11567024,3800,3800,-3431,-4004,1929,-170,860,1139,24,51,822
262603,10280856,11542884,10289269,11567221,3800,3800,-3406,-4919,1388,-15,834,1095,24,51,822
263592,10281048,11543212,10289466,11567418,3690,3800,-3352,-5719,910,589,643,1598,29,62,822
264593,10281248,11543548,10289663,11567615,3640,3800,-3249,-6362,535,1280,924,1732,29,62,822
265607,10281384,11543872,10289860,11567812,3800,3800,-3069,-7043,260,1775,1317,1746,26,56,822
266608,10281488,11544252,10290057,11568009,3800,3800,-2897,-7527,71,1881,1450,2706,26,56,822
267609,10281572,11544672,10290254,11568206,3800,3800,-2750,-7813,-98,1794,1957,3147,53,77,824
268609,10281620,11545072,10290451,11568403,3800,3800,-2627,-8060,-313,2173,2564,3112,53,77,824
269610,10281656,11545444,10290648,11568600,3800,3800,-2547,-8309,-556,2472,3073,3428,16,66,823
270611,10281684,11545832,10290845,11568797,3800,3800,-2502,-8352,-751,2095,3019,4229,16,66,823
271612,10281732,11546248,10291042,11568994,3800,3800,-2472,-8174,-870,1866,2924,4946,11,91,822
272613,10281776,11546636,10291239,11569191,3800,3800,-2408,-7762,-895,2013,2955,5437,11,91,822
273614,10281820,11546972,10291436,11569388,3800,3800,-2264,-7282,-836,2421,3467,5495,22,79,823
274615,10281864,11547352,10291633,11569585,3800,3800,-2092,-6777,-708,2585,3611,5678,22,79,823
275617,10281940,11547732,10291830,11569782,3800,3800,-1926,-6286,-536,2144,3302,5815,7,68,823
276617,10282024,11548088,10292027,11569979,3800,3800,-1764,-5774,-347,1493,2817,5802,7,68,823
277619,10282156,11548500,10292224,11570176,3800,3800,-1575,-5320,-177,1072,2486,5485,20,84,822
278620,10282340,11548944,10292421,11570373,3800,3800,-1410,-4827,1,614,1527,5816,20,84,822
279621,10282592,11549360,10292618,11570570,3800,3800,-1268,-4268,158,109,873,5731,14,67,821
280622,10282872,11549768,10292815,11570767,3800,3800,-1073,-3827,280,-466,480,5296,14,67,821
281610,10283216,11550308,10293012,11570964,3377,3800,-863,-3211,400,-1247,-340,6189,34,81,822
282611,10283532,11550772,10293209,11571161,3502,3800,-663,-2609,655,-1120,-934,5850,34,81,822
283612,10283872,11551388,10293406,11571358,3291,3800,-352,-2325,903,-610,-103,4201,54,94,825
284622,10284316,11551964,10293636,11571588,2549,3800,59,-2232,1091,-584,-299,3789,54,94,825
285614,10284752,11552556,10293833,11571785,2496,3800,489,-2201,1324,-943,-1212,3647,57,100,826
286615,10285144,11553212,10294030,11571982,2686,3800,840,-2112,1674,-1612,-2424,3782,57,100,826
287616,10285612,11553800,10294227,11572179,2094,3800,1144,-2105,2085,-1822,-2554,3261,92,107,828
288617,10286144,11554564,10294424,11572376,1549,3800,1466,-2284,2418,-983,-1612,2443,92,107,828
289618,10286632,11555236,10294621,11572573,1697,3800,1873,-2543,2597,54,-339,1926,98,126,834
290619,10287108,11555984,10294818,11572770,1652,3800,2316,-2941,2705,552,114,2112,98,126,834
291620,10287636,11556736,10295015,11572967,1182,3800,2655,-2893,2839,894,-300,3626,111,126,833
292621,10288140,11557520,10295212,11573164,1199,3800,2888,-2526,2954,1004,622,3616,111,126,833
293622,10288632,11558396,10295409,11573361,1146,3800,3133,-2314,2953,1297,1353,2844,100,155,837
294623,10289100,11559344,10295606,11573558,1178,3800,3401,-2269,2824,1465,1614,2790,100,155,837
295611,10289536,11560384,10295803,11573755,1275,3038,3637,-2058,2686,1942,1568,3391,95,170,839
296612,10289960,11561292,10296000,11573952,1251,3554,3769,-1517,2639,2637,1153,4089,95,170,839
297613,10290432,11562208,10296197,11574149,831,3190,3781,-585,2647,2667,915,4864,95,179,841
298615,10290832,11563220,10296394,11574346,1193,2235,3542,734,2709,2468,33,5940,95,179,841
299615,10291196,11564280,10296591,11574543,1345,1558,3565,1595,2586,2497,931,3275,84,175,842
300617,10291580,11565156,10296788,11574740,1139,2411,3740,2113,2320,2740,1012,3507,84,175,842
301617,10291920,11566056,10296985,11574937,1352,1954,3901,2775,2092,2825,273,3956,79,194,843
302618,10292248,11566964,10297182,11575134,1371,1593,3998,3531,1917,2868,-186,3814,79,194,843
303619,10292640,11567776,10297379,11575331,886,1925,4125,4351,1769,2664,-840,3570,87,176,846
304620,10292996,11568608,10297576,11575528,1042,1522,4322,4954,1617,2947,-974,2403,87,176,846
305621,10293312,11569432,10297773,11575725,1241,1298,4568,5267,1405,3042,-1019,1773,82,175,847
306622,10293708,11570212,10297970,11575922,654,1318,4733,5671,1190,2810,-1536,2549,82,175,847
307623,10294104,11570920,10298167,11576119,567,1544,4808,6326,966,2589,-1964,2759,78,171,848
308624,10294444,11571588,10298364,11576316,855,1588,4890,6869,705,2457,-1784,1868,78,171,848
309625,10294732,11572244,10298561,11576513,1141,1463,4954,7348,401,2627,-1266,1934,63,145,849
310627,10295044,11572888,10298758,11576710,942,1342,4929,7857,79,2926,-1020,1932,63,145,849
311628,10295360,11573500,10298955,11576907,864,1360,4859,8156,-303,2753,-539,1002,57,128,851
312628,10295636,11574032,10299152,11577104,1081,1714,4784,8349,-746,2579,-341,735,57,128,851
313629,10295980,11574524,10299349,11577301,592,1834,4715,8430,-1129,2455,-860,558,67,118,848
314631,10296248,11575072,10299546,11577498,1036,1331,4585,8594,-1433,2290,-1081,811,67,118,848
315631,10296468,11575576,10299743,11577695,1327,1471,4363,8762,-1774,2126,-491,493,56,117,849
316632,10296728,11576060,10299940,11577892,1050,1471,4122,8758,-2300,1991,332,-332,56,117,849
317633,10297048,11576544,10300137,11578089,621,1344,3847,8505,-2922,1974,465,-1015,50,96,847
318635,10297328,11576996,10300334,11578286,835,1433,3490,7946,-3523,2374,534,-1819,50,96,847
319635,10297632,11577496,10300531,11578483,638,1000,3027,7166,-4047,2663,683,-2074,51,95,849
320636,10297844,11577908,10300728,11578680,1208,1456,2521,6413,-4392,2506,134,-1859,51,95,849
321637,10298116,11578380,10300925,11578877,800,960,1981,5795,-4545,2223,-530,-1517,48,102,849
322639,10298376,11578760,10301122,11579074,848,1454,1369,5354,-4596,1965,-69,-1004,48,102,849
323639,10298588,11579128,10301319,11579271,1143,1454,697,5066,-4589,2234,531,-640,52,96,849
324640,10298820,11579472,10301516,11579468,1002,1540,-389,5274,-4247,2789,-1311,1203,52,96,849
325641,10299076,11579816,10301713,11579665,827,1475,-1648,5329,-3723,2318,-1417,-209,62,93,847
326643,10299288,11580184,10301910,11579862,1096,1250,-2639,4688,-3436,1841,719,-2137,62,93,847
327643,10299552,11580516,10302107,11580059,742,1416,-3524,3625,-3259,1554,1162,-2386,54,72,849
329645,10299928,11581052,10302501,11580453,1201,1778,-5790,1850,-2680,545,1373,-1915,43,73,848
330647,10300132,11581284,10302698,11580650,1123,1963,-6947,1112,-2420,321,2932,-2048,43,73,848
331647,10300304,11581528,10302895,11580847,1334,1867,-8012,284,-2150,-8,3018,-2152,42,50,849
332649,10300452,11581764,10303092,11581044,1507,1900,-9001,-661,-1822,-186,2834,-2187,42,50,849
333649,10300676,11581984,10303289,11581241,1020,1989,-9865,-1589,-1475,-323,2994,-2002,53,50,846
334650,10300920,11582216,10303486,11581438,875,1899,-10603,-2368,-1158,-594,3387,-1508,53,50,846
335651,10301080,11582444,10303683,11581635,1416,1910,-11294,-2888,-855,-1064,3293,-544,46,34,844
336652,10301272,11582648,10303880,11581832,1220,2057,-11892,-3174,-574,-1674,2865,78,46,34,844
337653,10301492,11582896,10304077,11582029,1034,1759,-12294,-3349,-266,-1915,1774,179,29,40,844
338654,10301664,11583156,10304274,11582226,1346,1657,-12489,-3647,176,-1770,117,-108,29,40,844
339655,10301848,11583416,10304471,11582423,1277,1629,-12616,-3981,423,-2054,-68,272,36,51,847
340656,10301992,11583648,10304668,11582620,1551,1788,-12734,-4197,516,-2281,-1234,737,36,51,847
341657,10302168,11583868,10304865,11582817,1361,1853,-12946,-4455,713,-2102,-2932,892,39,58,845
342658,10302348,11584104,10305062,11583014,1344,1735,-13194,-4888,1033,-1750,-3684,551,39,58,845
343660,10302516,11584368,10305259,11583211,1432,1531,-13404,-5388,1398,-1552,-4203,603,40,49,846
344660,10302696,11584628,10305456,11583408,1365,1527,-13521,-6061,1774,-1095,-4737,363,40,49,846
345661,10302888,11584884,10305653,11583605,1294,1526,-13523,-6821,2218,-580,-5806,621,27,41,845
346662,10303060,11585200,10305850,11583802,1430,1099,-13453,-7477,2721,-81,-7398,1366,27,41,845
347663,10303272,11585408,10306047,11583999,1174,1769,-13324,-7956,3208,644,-8666,1773,38,49,845
348664,10303476,11585604,10306244,11584196,1221,1844,-13057,-8547,3637,1164,-9016,1538,38,49,845
349665,10303668,11585780,10306441,11584393,1299,1978,-12735,-9238,3936,1607,-8086,1912,34,42,847
350666,10303944,11585940,10306638,11584590,739,2094,-12407,-9821,4131,2231,-8473,2393,34,42,847
351667,10304124,11586156,10306835,11584787,1348,1736,-9355,-7021,4174,8628,-10580,20110,51,47,847
352668,10304304,11586376,10307032,11584984,1355,1700,676,12171,2813,31711,-14730,32767,51,47,847
353669,10304512,11586632,10307229,11585181,1176,1449,8688,24165,1772,12225,-10400,18450,35,38,845
354670,10304688,11586952,10307426,11585378,1386,995,9992,23027,1768,5620,-6616,-3438,35,38,845
355672,10304884,11587124,10307623,11585575,1262,1931,8204,16605,2212,5816,-5363,-6679,51,40,846
356672,10305064,11587392,10307820,11585772,1370,1299,7090,10853,2488,6061,-5498,-7879,51,40,846
357673,10305196,11587652,10308017,11585969,1699,1321,6719,7418,2813,5732,-6197,-5201,30,64,845
358674,10305380,11587936,10308214,11586166,1380,1133,6235,5763,3535,5648,-7898,-2419,30,64,845
359675,10305604,11588216,10308411,11586363,1119,1120,5619,3666,4073,5137,-6282,-5271,52,57,847
360676,10305836,11588496,10308608,11586560,1054,1084,5253,834,4185,3669,-4160,-5544,52,57,847
361677,10306040,11588896,10308805,11586757,1227,245,4769,-1614,4083,2882,-3649,-2554,44,48,847
362678,10306256,11589300,10309002,11586954,1143,128,4230,-3644,3788,2092,-3245,-3026,44,48,847
363679,10306484,11589588,10309199,11587151,1056,813,3814,-5315,3396,761,-2227,-1778,61,61,848
364680,10306664,11589884,10309396,11587348,1364,718,3392,-6356,2990,-7,-2128,432,61,61,848
365681,10306856,11590136,10309593,11587545,1291,969,2981,-6894,2570,-977,-2029,1413,39,66,850
366682,10307068,11590404,10309790,11587742,1161,837,2561,-6993,2138,-2117,-950,3353,39,66,850
367690,10307248,11590684,10310020,11587972,1383,740,2145,-6339,1612,-2564,213,5030,55,47,852
368684,10307416,11591012,10310217,11588169,1471,381,1695,-5158,1033,-3178,462,6169,55,47,852
369685,10307588,11591296,10310414,11588366,1457,618,1316,-3808,522,-4151,689,6578,33,62,849
370686,10307756,11591608,10310611,11588563,1496,391,970,-2499,146,-4343,442,6851,33,62,849
371687,10307904,11591936,10310808,11588760,1643,234,737,-1190,-38,-4293,268,6836,46,67,850
372688,10308104,11592248,10311005,11588957,1317,282,624,17,11,-4261,-13,6401,46,67,850
373689,10308260,11592588,10311202,11589154,1610,43,590,1066,207,-3808,94,5894,46,68,850
374690,10308424,11592896,10311399,11589351,1576,195,581,1854,516,-3203,714,5163,46,68,850
375692,10308612,11593208,10311596,11589548,1430,118,552,2385,899,-2577,1381,3995,35,54,850
376693,10308788,11593532,10311793,11589745,1515,-14,578,2265,1335,-2203,1391,1795,35,54,850
377694,10308956,11593880,10311990,11589942,1579,-230,639,1592,1826,-1880,1496,719,41,72,851
378695,10309156,11594176,10312187,11590139,1377,50,722,682,2371,-1352,1586,39,41,72,851
379695,10309352,11594456,10312384,11590336,1404,113,766,-292,2968,-685,1609,-246,51,71,849
380696,10309536,11594720,10312581,11590533,1485,183,757,-1209,3618,-243,1596,21,51,71,849
381697,10309756,11595004,10312778,11590730,1251,18,723,-1994,4224,55,1989,244,45,57,849
382699,10309972,11595312,10312975,11590927,1267,-181,716,-2689,4671,164,2285,536,45,57,849
383699,10310144,11595496,10313172,11591124,1554,599,741,-3173,4979,33,2010,1189,55,63,851
384700,10310364,11595704,10313369,11591321,1245,443,770,-3342,5207,-19,1718,2274,55,63,851
385701,10310584,11595896,10313566,11591518,1235,545,743,-3155,5347,-48,1715,3306,51,66,850
386702,10310756,11596084,10313763,11591715,1547,573,623,-2596,5383,-75,1840,4328,51,66,850
387703,10310964,11596244,10313960,11591912,1317,763,444,-1735,5323,-91,1586,5044,53,47,851
388704,10311172,11596360,10314157,11592109,1313,1073,216,-738,5179,-244,374,5617,53,47,851
389705,10311352,11596384,10314354,11592306,1496,1723,-38,350,4977,-486,-376,6151,54,37,851
390706,10311532,11596508,10314551,11592503,1504,1129,-325,1531,4662,-586,-239,6396,54,37,851
391707,10311720,11596652,10314748,11592700,1459,1027,-620,2638,4175,-787,711,5999,41,26,849
392708,10311912,11596784,10314945,11592897,1436,1130,-894,3515,3517,-1083,2054,5270,41,26,849
393709,10312088,11596888,10315142,11593094,1547,1345,-1183,4195,2756,-1109,1873,4943,32,32,849
394710,10312280,11596996,10315339,11593291,1449,1358,-1494,4578,1961,-1065,1243,3986,32,32,849
395711,10312432,11597088,10315536,11593488,1720,1503,-1788,4626,1124,-1165,1521,3022,32,21,847
396712,10312608,11597180,10315733,11593685,1580,1550,-2012,4314,229,-1351,1244,1840,32,21,847
398714,10312908,11597340,10316127,11594079,1747,1775,-2322,2938,-1495,-1370,-1047,758,30,17,847
399715,10313044,11597412,10316324,11594276,1899,1830,-2550,2226,-2160,-1419,-1557,836,39,24,847
400716,10313192,11597496,10316521,11594473,1846,1804,-2865,1492,-2752,-1493,-1476,923,39,24,847
401717,10313336,11597544,10316718,11594670,1896,2095,-3175,721,-3253,-1700,-1432,888,39,13,844
402718,10313480,11597620,10316915,11594867,1919,1972,-3386,-114,-3648,-1922,-1163,640,39,13,844
403719,10313632,11597688,10317112,11595064,1890,2077,-3508,-909,-3936,-2180,-1180,882,31,18,843
404720,10313780,11597772,10317309,11595261,1937,2027,-3575,-1641,-4129,-2385,-1075,1204,31,18,843
405721,10313940,11597852,10317506,11595458,1879,2102,-3612,-2234,-4167,-2290,-2066,1802,33,11,843
406722,10314080,11597940,10317703,11595655,2030,2100,-3622,-2619,-4002,-2275,-3288,2621,33,11,843
407723,10314256,11598024,10317900,11595852,1815,2175,-3623,-2801,-3704,-2588,-3811,3374,36,20,842
408725,10314396,11598116,10318097,11596049,2065,2170,-2805,-1791,-3282,-3607,-4353,14016,36,20,842
409725,10314544,11598196,10318294,11596246,2037,2297,355,4087,-2408,-6511,-5536,32767,24,13,841
410727,10314724,11598280,10318491,11596443,1846,2320,3047,7962,-1820,-3976,-1929,16642,24,13,841
411728,10314880,11598360,10318688,11596640,2014,2397,3539,7649,-1643,-2588,-438,1559,19,20,841
412729,10315040,11598444,10318885,11596837,2006,2421,2965,5500,-1501,-1948,-914,756,19,20,841
413729,10315236,11598552,10319082,11597034,1783,2309,2405,3778,-1247,-1433,-1364,1215,35,27,839
414731,10315400,11598648,10319279,11597231,1998,2429,2172,2982,-864,-1721,-1224,1884,35,27,839
415731,10315584,11598744,10319476,11597428,1879,2473,2040,2283,-556,-1532,-629,1355,24,28,840
416733,10315756,11598848,10319673,11597625,1966,2464,1852,1544,-482,-1538,24,1491,24,28,840
417733,10315948,11598956,10319870,11597822,1844,2477,1617,678,-531,-2143,309,1556,48,30,839
418735,10316100,11599068,10320067,11598019,2115,2490,1349,-162,-670,-1995,59,1755,48,30,839
419735,10316304,11599192,10320264,11598216,1787,2447,1055,-865,-794,-1995,-515,2254,30,28,839
420737,10316488,11599324,10320461,11598413,1918,2425,768,-1205,-809,-2057,-1402,3463,30,28,839
421737,10316672,11599452,10320658,11598610,1925,2480,482,-1292,-826,-1853,-1867,3768,28,37,839
422739,10316884,11599560,10320855,11598807,1745,2644,248,-1413,-873,-1878,-1428,3935,28,37,839
423739,10317064,11599684,10321052,11599004,1952,2576,62,-1244,-957,-1752,-492,4937,49,28,837
424740,10317248,11599804,10321249,11599201,1934,2635,-68,-1052,-1117,-1395,-211,4692,49,28,837
425741,10317448,11599904,10321446,11599398,1833,2802,-152,-950,-1241,-1471,-501,4690,30,28,838
426742,10317656,11600016,10321643,11599595,1780,2764,-217,-712,-1310,-1530,-239,5075,30,28,838
427743,10317852,11600120,10321840,11599792,1855,2855,-264,-624,-1371,-1360,-166,4460,33,19,839
428744,10318052,11600220,10322037,11599989,1830,2923,-292,-539,-1399,-1240,-269,4640,33,19,839
429745,10318252,11600344,10322234,11600186,1829,2805,-280,-518,-1379,-1127,-216,4303,38,30,838
430746,10318424,11600428,10322431,11600383,2016,3105,-244,-694,-1388,-854,202,3685,38,30,838
431747,10318604,11600536,10322628,11600580,1974,2994,-205,-878,-1429,-595,610,3804,39,25,838
432748,10318808,11600656,10322825,11600777,1822,2953,-164,-1127,-1452,-422,779,3365,39,25,838
433749,10318980,11600772,10323022,11600974,2034,3013,-117,-1492,-1473,-182,781,3038,34,24,836
434750,10319196,11600896,10323219,11601171,1751,2995,-68,-1934,-1475,-216,1049,2838,34,24,836
435751,10319416,11601020,10323416,11601368,1717,3027,-32,-2483,-1473,-207,1145,2549,36,28,834
436752,10319612,11601160,10323613,11601565,1868,2952,-33,-3015,-1465,-205,852,2424,36,28,834
437753,10319804,11601300,10323810,11601762,1896,2978,-53,-3578,-1403,-409,334,2470,35,20,837
438754,10320020,11601448,10324007,11601959,1739,2949,-77,-4029,-1286,-300,-687,2754,35,20,837
439755,10320244,11601620,10324204,11602156,1678,2810,-87,-4431,-1158,-249,-916,2786,49,35,836
440756,10320464,11601776,10324401,11602353,1693,2928,-92,-4717,-1046,-364,-762,3132,49,35,836
441757,10320716,11601964,10324598,11602550,1469,2732,-119,-4942,-962,-322,-144,3290,41,36,837
442759,10320936,11602156,10324795,11602747,1660,2709,-150,-5152,-892,-293,416,3434,41,36,837
443759,10321152,11602340,10324992,11602944,1678,2766,-209,-5228,-807,-247,828,3773,57,47,837
444760,10321400,11602536,10325189,11603141,1456,2691,-296,-5302,-720,-219,971,3652,57,47,837
445761,10321624,11602760,10325386,11603338,1595,2505,-363,-5406,-621,-192,956,3704,43,50,837
446762,10321844,11602976,10325583,11603535,1611,2546,-379,-5466,-483,-174,596,3897,43,50,837
447763,10322072,11603204,10325780,11603732,1547,2458,-377,-5516,-324,-17,431,3783,44,54,837
448764,10322280,11603428,10325977,11603929,1668,2471,-371,-5575,-147,100,526,3583,44,54,837
449765,10322492,11603632,10326174,11604126,1638,2593,-366,-5733,38,168,781,3488,43,53,841
450773,10322732,11603836,10326404,11604356,1459,2604,-377,-5836,231,287,891,3643,43,53,841
451767,10322928,11604028,10326601,11604553,1735,2681,-397,-5952,437,430,1217,3617,35,44,841
452768,10323148,11604240,10326798,11604750,1576,2550,-400,-6024,645,507,1253,3608,35,44,841
453769,10323324,11604448,10326995,11604947,1861,2571,-391,-6094,854,640,1128,3653,45,37,841
454770,10323536,11604660,10327192,11605144,1629,2539,-393,-6125,1073,708,996,3793,45,37,841
455771,10323732,11604888,10327389,11605341,1731,2426,-394,-6063,1281,775,908,4017,40,36,840
456772,10323916,11605168,10327586,11605538,1812,2064,-387,-5950,1460,843,751,4037,40,36,840
457773,10324144,11605400,10327783,11605735,1524,2349,-363,-5846,1607,967,773,4167,33,46,840
458774,10324360,11605660,10327980,11605932,1591,2146,-325,-5666,1718,1078,896,4302,33,46,840
459775,10324576,11605948,10328177,11606129,1584,1931,-289,-5419,1783,1216,863,4462,41,43,841
460776,10324820,11606216,10328374,11606326,1388,2025,-265,-5136,1826,1292,970,4602,41,43,841
461777,10325024,11606488,10328571,11606523,1636,1967,-253,-4796,1849,1302,1229,4657,48,45,842
462778,10325256,11606748,10328768,11606720,1447,2014,-253,-4500,1848,1443,1400,4569,48,45,842
463779,10325472,11607020,10328965,11606917,1539,1906,-249,-4244,1821,1609,1387,4434,48,54,843
464780,10325716,11607312,10329162,11607114,1344,1739,-231,-4017,1787,1651,1153,4398,48,54,843
465781,10325948,11607576,10329359,11607311,1404,1885,-203,-3861,1736,1676,985,4122,36,53,844
466782,10326196,11607836,10329556,11607508,1282,1882,-179,-3718,1660,1785,900,4129,36,53,844
467784,10326428,11608128,10329753,11607705,1368,1641,-161,-3531,1571,1901,926,4127,43,51,843
468784,10326680,11608380,10329950,11607902,1220,1866,-155,-3380,1461,2007,1148,4014,43,51,843
469785,10326924,11608652,10330147,11608099,1249,1708,-158,-3262,1331,2173,1180,3939,39,57,845
470786,10327156,11608916,10330344,11608296,1309,1729,-166,-3186,1192,2196,1287,3783,39,57,845
471787,10327376,11609168,10330541,11608493,1375,1780,-188,-3150,1043,2150,1423,3635,57,48,845
472788,10327604,11609376,10330738,11608690,1312,2049,-222,-3124,893,2134,1434,3586,57,48,845
473789,10327852,11609636,10330935,11608887,1165,1696,-261,-3082,748,2077,1458,3677,44,60,845
474791,10328084,11609884,10331132,11609084,1250,1749,-301,-3002,604,2071,1398,3813,44,60,845
475791,10328312,11610096,10331329,11609281,1262,1967,-354,-2868,475,2086,1078,3967,48,57,846
476792,10328520,11610312,10331526,11609478,1383,1934,-417,-2689,371,2008,612,4094,48,57,846
477793,10328708,11610520,10331723,11609675,1512,1979,-479,-2474,310,2005,-130,4344,39,51,845
478795,10328900,11610740,10331920,11609872,1491,1893,-520,-2234,279,2004,-461,4344,39,51,845
479795,10329112,11610924,10332117,11610069,1359,2124,-551,-1962,257,1977,-478,4489,53,42,845
480796,10329332,11611084,10332314,11610266,1300,2290,-587,-1631,219,1856,48,4513,53,42,845
481797,10329520,11611284,10332511,11610463,1504,2039,-617,-1352,154,1760,716,4401,44,38,845
482798,10329692,11611452,10332708,11610660,1616,2251,-637,-1139,79,1665,1084,4324,44,38,845
483799,10329884,11611636,10332905,11610857,1494,2157,-653,-969,21,1587,1074,4388,39,45,844
484800,10330072,11611796,10333102,11611054,1523,2323,-658,-739,-11,1576,735,4336,39,45,844
485801,10330288,11611936,10333299,11611251,1341,2472,-654,-518,-26,1346,90,4425,33,42,843
486802,10330504,11612080,10333496,11611448,1332,2471,-636,-269,-32,1218,-429,4496,33,42,843
487803,10330724,11612216,10333693,11611645,1298,2548,-619,10,-32,1180,-918,4636,54,36,842
488805,10330960,11612348,10333890,11611842,1181,2601,-596,339,-34,962,-1018,4644,54,36,841
489805,10331148,11612532,10334087,11612039,1486,2282,-563,603,-39,672,-867,4509,54,36,841
490807,10331336,11612700,10334284,11612236,1490,2395,-528,805,-43,406,-651,4230,39,23,841
491807,10331548,11612848,10334481,11612433,1334,2541,-529,996,-21,232,-468,4436,39,23,841
492808,10331724,11613036,10334678,11612630,1570,2295,-553,1182,-12,-136,-44,4236,31,43,842
493809,10331920,11613216,10334875,11612827,1445,2353,-536,1221,-47,-603,-171,3839,31,43,842
494810,10332136,11613396,10335072,11613024,1313,2359,-496,1254,-91,-863,-543,3948,45,29,842
495811,10332336,11613564,10335269,11613221,1411,2447,-460,1298,-112,-1065,-675,4045,45,29,842
496812,10332524,11613756,10335466,11613418,1491,2299,-441,1362,-108,-1459,-930,4032,31,40,841
497813,10332704,11613936,10335663,11613615,1549,2381,-459,1449,-67,-1911,-1421,4183,31,40,841
498814,10332868,11614132,10335860,11613812,1664,2282,-500,1495,18,-2277,-1748,4088,31,41,842
499815,10333028,11614324,10336057,11614009,1707,2309,-524,1480,133,-2423,-1662,3812,31,41,842
500816,10333196,11614528,10336254,11614206,1669,2231,-499,1362,273,-2597,-1797,3564,36,31,841
501817,10333376,11614740,10336451,11614403,1603,2174,-444,1168,447,-2636,-1835,3445,36,31,841
502818,10333552,11614932,10336648,11614600,1637,2302,-394,926,644,-2524,-1764,3410,44,30,841
503819,10333716,11615120,10336845,11614797,1728,2331,-343,664,853,-2449,-1544,3280,44,30,841
504820,10333912,11615324,10337042,11614994,1528,2227,-306,378,1060,-2335,-1570,3264,42,41,842
505821,10334068,11615600,10337239,11615191,1797,1743,-258,57,1272,-2161,-1755,3049,42,41,842
506823,10334248,11615860,10337436,11615388,1655,1815,-204,-356,1491,-2009,-1857,2951,47,51,842
507823,10334412,11616104,10337633,11615585,1770,1894,-165,-726,1702,-1876,-1672,3072,47,51,842
508824,10334592,11616304,10337830,11615782,1678,2168,-150,-1132,1915,-1727,-1691,3090,48,55,842
509825,10334764,11616568,10338027,11615979,1740,1738,-126,-1514,2142,-1488,-1589,3241,48,55,842
510827,10334960,11616852,10338224,11616176,1591,1574,-115,-1809,2365,-1137,-1387,3434,46,42,842
511827,10335132,11617160,10338421,11616373,1753,1376,-121,-1953,2562,-867,-1298,3858,46,42,842
512828,10335292,11617412,10338618,11616570,1844,1701,-138,-2014,2756,-732,-1309,4225,32,51,841
513829,10335468,11617628,10338815,11616767,1754,1918,-149,-2011,2942,-389,-1207,4490,32,51,841
514830,10335620,11617876,10339012,11616964,1925,1696,-183,-1966,3113,-59,-1255,4875,31,44,845
515831,10335764,11618132,10339209,11617161,1998,1620,-218,-1855,3261,102,-1245,4935,31,44,845
516832,10335936,11618404,10339406,11617358,1835,1486,-250,-1746,3382,335,-1302,4864,24,48,844
517833,10336096,11618624,10339603,11617555,1928,1801,-272,-1666,3503,638,-1316,4923,24,48,844
518834,10336232,11618816,10339800,11617752,2104,1978,-298,-1571,3639,874,-1260,4977,41,40,843
519835,10336404,11619036,10339997,11617949,1891,1793,-305,-1521,3740,1052,-1121,4700,41,40,843
520836,10336548,11619208,10340194,11618146,2091,2104,-285,-1600,3804,1184,-1034,4462,43,53,844
521837,10336700,11619468,10340391,11618343,2061,1525,-253,-1755,3853,1413,-1043,4408,43,53,844
522838,10336840,11619704,10340588,11618540,2162,1658,-215,-1884,3893,1614,-1109,4258,28,48,840
523839,10336972,11619936,10340785,11618737,2241,1668,-161,-2031,3909,1684,-1250,4076,28,48,840
524840,10337112,11620168,10340982,11618934,2216,1652,-90,-2219,3906,1673,-1479,3981,22,39,840
525841,10337252,11620364,10341179,11619131,2242,1877,-17,-2425,3893,1664,-1755,3958,22,39,840
526842,10337380,11620544,10341376,11619328,2349,1984,59,-2588,3874,1575,-2169,4030,20,38,842
527843,10337532,11620836,10341573,11619525,2219,1242,131,-2724,3838,1341,-2528,4186,20,38,842
528844,10337676,11621068,10341770,11619722,2293,1602,210,-2770,3781,1106,-2631,4278,37,41,841
529845,10337816,11621332,10341967,11619919,2344,1372,311,-2781,3695,899,-2427,4334,37,41,841
530846,10337948,11621560,10342164,11620116,2423,1583,424,-2754,3572,995,-1980,4342,38,53,840
531847,10338076,11621768,10342361,11620313,2480,1703,547,-2710,3454,1185,-1760,4432,38,53,840
532848,10338204,11622064,10342558,11620510,2511,1110,667,-2612,3376,1285,-1592,4530,26,56,841
533856,10338344,11622352,10342788,11620740,2476,1133,787,-2532,3330,1262,-1596,4533,26,56,841
534850,10338456,11622648,10342985,11620937,2689,1040,922,-2402,3297,1099,-1646,4566,29,56,840
535851,10338624,11622900,10343182,11621134,2353,1290,1048,-2222,3271,959,-1801,4651,29,56,840
536852,10338768,11623164,10343379,11621331,2527,1185,1142,-1969,3258,850,-1947,4763,38,47,842
537853,10338888,11623480,10343576,11621528,2712,808,1220,-1654,3266,721,-1986,4869,38,47,842
538854,10339028,11623832,10343773,11621725,2613,515,1308,-1324,3294,698,-1866,4881,43,51,841
539856,10339136,11624128,10343970,11621922,2853,820,1426,-1034,3334,907,-1620,4662,43,51,841
540857,10339240,11624416,10344167,11622119,2920,830,1546,-778,3394,1156,-1348,4539,30,64,842
541857,10339360,11624680,10344364,11622316,2855,950,1670,-563,3467,1432,-1190,4184,30,64,842
542859,10339456,11624960,10344561,11622513,3050,813,1820,-494,3523,1636,-993,3658,37,49,843
543859,10339572,11625304,10344758,11622710,2962,348,1981,-468,3567,1645,-1191,3553,37,49,843
544860,10339700,11625600,10344955,11622907,2918,604,2135,-413,3594,1540,-1409,3606,38,49,840
545861,10339812,11625872,10345152,11623104,3056,720,2274,-268,3592,1366,-1782,3750,38,49,840
546862,10339964,11626088,10345349,11623301,2827,1062,2382,7,3565,1137,-2033,4026,35,54,840
547864,10340120,11626356,10345546,11623498,2821,705,2480,349,3515,988,-1913,3955,35,54,840
548864,10340288,11626700,10345743,11623695,2760,165,2573,691,3431,761,-1848,4090,41,50,841
549865,10340448,11626956,10345940,11623892,2827,688,2629,1295,3312,316,-1360,4724,41,50,841
550866,10340664,11627152,10346137,11624089,2470,1063,2666,1835,3161,329,-332,4019,47,49,841
551867,10340868,11627404,10346334,11624286,2543,688,2750,1992,2953,925,451,2791,47,49,841
552868,10341088,11627644,10346531,11624483,2433,743,2864,2169,2717,959,1065,2908,47,60,844
553869,10341292,11627852,10346728,11624680,2531,939,2947,2301,2457,661,1243,2591,47,60,844
554871,10341568,11628096,10346925,11624877,2048,692,2985,2339,2136,755,1481,2220,36,48,842
555872,10341780,11628332,10347122,11625074,2442,725,3003,2425,1806,699,1953,2304,36,48,842
556873,10341992,11628492,10347319,11625271,2436,1215,2998,2567,1505,580,1839,2373,47,52,843
557873,10342204,11628652,10347516,11625468,2431,1230,2965,2689,1239,314,1369,2149,47,52,843
558874,10342400,11628788,10347713,11625665,2532,1407,2885,2676,1032,279,1170,1964,47,30,846
559875,10342632,11628916,10347910,11625862,2293,1486,2753,2726,822,599,1190,1848,47,30,846
560876,10342888,11629056,10348107,11626059,2118,1436,2637,2710,603,604,1006,1503,53,41,842
561877,10343120,11629212,10348304,11626256,2254,1353,2489,2775,398,127,766,2051,53,41,842
562878,10343356,11629376,10348501,11626453,2212,1317,2270,2997,228,-377,473,2229,47,22,841
563879,10343608,11629528,10348698,11626650,2089,1412,2002,3227,65,-547,611,2149,47,22,841
564880,10343848,11629668,10348895,11626847,2146,1511,1724,3450,-142,-543,869,1973,42,24,843
565881,10344064,11629808,10349092,11627044,2289,1536,1436,3453,-414,-664,1082,1659,42,24,843
566882,10344296,11629940,10349289,11627241,2175,1613,1084,3555,-700,-891,1092,2073,49,22,843
567883,10344476,11630056,10349486,11627438,2508,1749,649,3819,-955,-1265,1223,2482,49,22,843
568884,10344648,11630176,10349683,11627635,2570,1757,191,3994,-1209,-1691,1419,1952,57,36,843
569885,10344848,11630300,10349880,11627832,2395,1764,-265,3929,-1505,-1726,1880,1421,57,36,843
570886,10345036,11630476,10350077,11628029,2475,1447,-719,3592,-1852,-1276,2472,641,39,22,842
571887,10345268,11630632,10350274,11628226,2185,1590,-1183,3060,-2232,-796,2738,231,39,22,842
572889,10345496,11630804,10350471,11628423,2198,1500,-1651,2469,-2551,-1034,2301,280,45,31,839
573889,10345692,11630968,10350668,11628620,2398,1565,-2090,1811,-2781,-1555,1823,164,45,31,839
574890,10345892,11631148,10350865,11628817,2373,1471,-2506,1155,-2956,-1560,1451,-126,51,24,841
575891,10346096,11631284,10351062,11629014,2346,1773,-2846,195,-3082,-1013,802,-818,51,24,841
576892,10346280,11631444,10351259,11629211,2478,1639,-3125,-904,-3174,-344,-383,-879,51,24,842
577893,10346476,11631580,10351456,11629408,2404,1815,-3352,-2069,-3237,76,-1051,-893,51,24,842
578895,10346740,11631756,10351653,11629605,1951,1574,-3548,-3155,-3257,122,-1256,-428,46,28,840
579895,10346952,11631960,10351850,11629802,2270,1395,-3730,-3990,-3245,-72,-1242,395,46,28,840
580896,10347140,11632160,10352047,11629999,2425,1419,-3872,-4602,-3193,-267,-1183,1191,50,44,841
581897,10347340,11632352,10352244,11630196,2350,1471,-3953,-4979,-3118,-91,-715,2086,50,44,841
582898,10347548,11632512,10352441,11630393,2296,1686,-4020,-5187,-3052,241,-371,2675,36,29,843
583899,10347720,11632680,10352638,11630590,2533,1649,-4099,-5258,-2983,483,-324,3366,36,29,843
584900,10347904,11632804,10352835,11630787,2464,1955,-4189,-5171,-2927,369,-86,4017,27,32,842
585901,10348184,11632924,10353032,11630984,1829,2014,-4290,-4979,-2882,114,54,4516,27,32,842
586902,10348404,11633084,10353229,11631181,2195,1780,-4398,-4664,-2805,128,-28,5244,41,30,841
587903,10348600,11633196,10353426,11631378,2346,2117,-4501,-4199,-2685,307,188,5894,41,30,841
588905,10348836,11633320,10353623,11631575,2080,2074,-4554,-3718,-2553,634,465,6118,41,30,839
589905,10349060,11633488,10353820,11631772,2143,1810,-4557,-3248,-2447,968,443,6324,41,30,839
590906,10349304,11633648,10354017,11631969,1999,1877,-4516,-2757,-2343,1217,482,6494,35,30,841
591907,10349624,11633776,10354214,11632166,1471,2107,-4466,-2159,-2249,1272,386,6750,35,30,841
592908,10349892,11633912,10354411,11632363,1765,2084,-4381,-1666,-2120,1105,-33,6624,58,39,840
593909,10350180,11634024,10354608,11632560,1601,2270,-4289,-1209,-1940,1040,-501,6751,58,39,840
594910,10350488,11634120,10354805,11632757,1429,2415,-4084,-692,-1753,1525,-1159,7625,65,35,842
595911,10350748,11634224,10355002,11632954,1702,2405,-1704,3760,-1758,6860,-3668,32767,65,35,842
596912,10351044,11634348,10355199,11633151,1433,2311,1330,8472,-1974,6233,-2615,30062,59,17,842
597913,10351360,11634488,10355396,11633348,1257,2237,2572,9049,-2085,2350,-927,2141,59,17,842
598914,10351676,11634580,10355593,11633545,1206,2583,2271,7105,-1991,1972,-1630,1876,69,18,841
599915,10351932,11634712,10355790,11633742,1556,2361,1885,4751,-1824,1702,-2703,-263,69,18,841
600916,10352272,11634828,10355987,11633939,968,2497,1817,3091,-1602,2119,-2725,918,54,36,841
601917,10352580,11634968,10356184,11634136,1120,2371,1696,1968,-1353,2662,-2064,1589,54,36,841
602918,10352848,11635112,10356381,11634333,1340,2369,1478,1197,-1223,2586,-2226,2003,52,35,841
603919,10353180,11635236,10356578,11634530,882,2526,1256,220,-1161,1647,-2242,1486,52,35,841
604920,10353480,11635348,10356775,11634727,1036,2639,1077,-940,-1203,1133,-1897,1761,65,21,842
605921,10353740,11635464,10356972,11634924,1260,2649,855,-1825,-1363,1266,-1649,2825,65,21,842
606922,10354016,11635596,10357169,11635121,1125,2578,589,-2274,-1420,903,-1918,3759,64,19,842
607923,10354260,11635740,10357366,11635318,1305,2526,382,-2519,-1424,536,-1659,4143,64,19,842
608924,10354536,11635912,10357563,11635515,1072,2362,237,-2799,-1523,168,-1111,4096,58,36,842
609925,10354816,11636048,10357760,11635712,1010,2614,156,-3021,-1699,278,-298,4501,58,36,842
610926,10355088,11636208,10357957,11635909,1028,2479,119,-3107,-1931,647,181,4527,61,27,841
611927,10355288,11636384,10358154,11636106,1477,2388,117,-3264,-2100,601,350,4504,61,27,841
612928,10355520,11636532,10358351,11636303,1263,2585,139,-3106,-2205,605,1051,5566,60,36,843
613929,10355856,11636712,10358548,11636500,552,2392,195,-2838,-2387,564,2041,5202,60,36,843
614930,10356160,11636856,10358745,11636697,705,2641,283,-2619,-2648,614,2269,5346,56,30,842
615931,10356348,11636996,10358942,11636894,1434,2691,410,-2344,-2871,680,1889,5500,56,30,842
616941,10356608,11637132,10359172,11637124,972,2757,598,-2232,-2980,619,1365,4792,39,33,840
617933,10356752,11637272,10359369,11637321,1721,2757,770,-1980,-3038,475,1119,5577,39,33,840
618934,10356928,11637436,10359566,11637518,1531,2622,893,-1578,-3094,123,992,5492,59,34,843
619935,10357248,11637624,10359763,11637715,577,2475,1034,-1420,-3152,233,764,4643,59,34,843
620936,10357508,11637772,10359960,11637912,925,2747,1183,-1299,-3152,772,712,4783,59,41,840
621937,10357688,11637920,10360157,11638109,1433,2769,1241,-1173,-3025,1056,560,4700,59,41,840
622938,10357948,11638072,10360354,11638306,906,2763,1180,-1068,-2878,1043,350,4139,41,23,839
623939,10358176,11638228,10360551,11638503,1092,2756,1077,-1273,-2744,1022,571,3369,41,23,839
624940,10358396,11638412,10360748,11638700,1133,2587,966,-1577,-2582,1444,623,3348,39,24,840
625941,10358724,11638580,10360945,11638897,401,2700,760,-1749,-2336,2138,300,3503,39,24,840
626942,10359028,11638732,10361142,11639094,505,2821,481,-1932,-2035,2466,561,3324,50,44,841
627943,10359176,11638904,10361339,11639291,1501,2707,201,-2106,-1760,2636,895,3235,50,44,841
628944,10359396,11639084,10361536,11639488,1041,2664,-97,-2306,-1508,2631,655,3083,41,36,842
629945,10359628,11639252,10361733,11639685,952,2752,-377,-2592,-1246,2597,507,2792,41,36,842
630946,10359840,11639400,10361930,11639882,1070,2898,-602,-2913,-1013,2700,883,2524,37,32,842
631947,10360092,11639564,10362127,11640079,797,2813,-864,-3224,-811,2920,781,2692,37,32,842
632948,10360336,11639732,10362324,11640276,826,2801,-1209,-3359,-659,3144,725,3111,39,26,839
633949,10360572,11639920,10362521,11640473,859,2680,-1504,-3467,-567,3232,1167,2716,39,26,839
634950,10360752,11640108,10362718,11640670,1217,2683,-1676,-3709,-527,3034,1189,2450,35,30,840
635951,10360948,11640288,10362915,11640867,1118,2741,-1796,-3905,-497,2644,781,2895,35,30,840
636952,10361152,11640492,10363112,11641064,1065,2588,-1855,-3969,-477,2423,1086,2938,33,51,841
637953,10361348,11640624,10363309,11641261,1116,3067,-1863,-3954,-515,2264,1293,3058,33,51,841
638954,10361588,11640820,10363506,11641458,822,2668,-1888,-3757,-607,1901,1273,3691,33,43,841
639955,10361784,11640984,10363703,11641655,1099,2882,-1929,-3409,-727,1552,1402,3883,33,43,841
640956,10361976,11641208,10363900,11641852,1126,2496,-1947,-3012,-835,1351,1167,3787,44,26,841
641957,10362164,11641408,10364097,11642049,1155,2644,-1927,-2606,-893,1026,908,3817,44,26,841
642958,10362368,11641572,10364294,11642246,1053,2884,-1886,-2200,-944,741,913,3728,28,32,840
643959,10362548,11641816,10364491,11642443,1210,2363,-1861,-1821,-1021,523,848,3611,28,32,840
644960,10362772,11642008,10364688,11642640,923,2690,-1845,-1446,-1093,267,460,3519,41,47,841
645962,10363000,11642244,10364885,11642837,886,2399,-1872,-1074,-1144,39,415,3393,41,47,841
646962,10363232,11642488,10365082,11643034,845,2328,-1948,-804,-1169,-211,603,3055,26,54,840
647963,10363408,11642708,10365279,11643231,1205,2468,-2041,-612,-1142,-345,615,2902,26,54,840
648964,10363564,11642996,10365476,11643428,1349,2003,-2121,-454,-1074,-442,828,2506,32,48,842
649965,10363732,11643240,10365673,11643625,1286,2258,-2178,-440,-990,-347,963,1939,32,48,842
650966,10363876,11643484,10365870,11643822,1461,2237,-2221,-542,-881,-112,987,1710,46,49,844
651967,10364016,11643752,10366067,11644019,1511,2056,-2266,-716,-745,129,1014,1493,46,49,844
652968,10364180,11644004,10366264,11644216,1375,2132,-2312,-991,-623,772,907,851,33,42,843
653969,10364368,11644220,10366461,11644413,1230,2348,-2382,-1532,-543,1494,507,276,33,42,843
654970,10364532,11644464,10366658,11644610,1395,2153,-2548,-2011,-477,1874,-403,728,40,59,841
655971,10364716,11644700,10366855,11644807,1276,2186,-3022,-1997,-321,1838,-2108,2399,40,59,841
656972,10365044,11644956,10367052,11645004,319,2035,-3445,-1918,-231,1613,-2080,1401,42,44,843
657973,10365196,11645176,10367249,11645201,1439,2249,-3768,-1779,-170,1714,-2476,2389,42,44,843
658974,10365344,11645332,10367446,11645398,1486,2668,-4074,-1520,-33,1984,-2814,2828,27,47,843
659975,10365552,11645528,10367643,11645595,1106,2418,-4260,-1344,43,1984,-1893,2563,27,47,843
660976,10365792,11645724,10367840,11645792,889,2418,-4328,-1101,21,1727,-1140,3169,41,34,846
661977,10365984,11645908,10368037,11645989,1191,2499,-4354,-800,-86,1601,-260,3241,41,34,846
662978,10366172,11646100,10368234,11646186,1220,2451,-4387,-367,-209,1560,-122,3769,34,41,841
663979,10366436,11646272,10368431,11646383,716,2587,-4436,202,-260,1397,-494,4134,34,41,841
664980,10366660,11646420,10368628,11646580,954,2759,-4418,596,-277,1702,-846,3517,43,28,843
665981,10366804,11646584,10368825,11646777,1478,2673,-4361,791,-280,2148,-725,3479,43,28,843
666982,10367068,11646752,10369022,11646974,699,2661,-4289,1470,-195,1957,-467,3933,32,37,841
667983,10367272,11646948,10369219,11647171,1071,2486,-4255,1873,-182,1494,-258,4259,32,37,841
668984,10367496,11647128,10369416,11647368,935,2594,-4150,2262,-158,1038,-308,4380,46,27,842
669985,10367720,11647296,10369613,11647565,923,2682,-4010,2696,-118,840,-1004,4477,46,27,842
670987,10367952,11647488,10369810,11647762,858,2535,-3843,3125,-22,240,-1628,4523,39,42,841
671987,10368164,11647724,10370007,11647959,977,2243,-3676,3396,127,-222,-1104,4297,39,42,841
672988,10368388,11647944,10370204,11648156,891,2333,-3536,3516,273,5,-1190,3997,37,31,841
673989,10368560,11648176,10370401,11648353,1227,2242,-3390,3604,404,-68,-1333,4010,37,31,841
674990,10368736,11648392,10370598,11648550,1212,2334,-3198,3886,523,-756,-1612,4982,52,46,842
675991,10368920,11648656,10370795,11648747,1167,2004,-1550,6802,915,-2853,-3924,28710,52,46,842
676992,10369100,11648944,10370992,11648944,1200,1815,1060,11329,1414,-3194,-3623,32767,51,43,843
677993,10369268,11649188,10371189,11649141,1289,2069,2352,12541,1503,-1236,-455,2760,51,43,843
678995,10369476,11649468,10371386,11649338,1034,1807,2223,11230,1413,-1154,-106,1316,31,57,843
679995,10369640,11649736,10371583,11649535,1323,1851,1841,9359,1356,-1004,-257,179,31,57,843
680996,10369824,11650040,10371780,11649732,1205,1579,1554,8104,1454,-1143,-252,1294,39,44,845
681997,10369992,11650360,10371977,11649929,1318,1425,1457,7414,1720,-1323,-242,1338,39,44,845
682999,10370156,11650684,10372174,11650126,1358,1344,1320,6708,1965,-1116,-112,1290,39,51,845
683999,10370300,11650956,10372371,11650323,1507,1635,1135,5751,2099,-1734,478,953,39,51,845
685000,10370452,11651140,10372568,11650520,1476,2191,982,4492,2112,-2213,829,234,28,53,846
686001,10370568,11651332,10372765,11650717,1738,2143,857,3174,1979,-2126,66,113,28,53,846
687003,10370688,11651532,10372962,11650914,1747,2092,811,1800,1858,-2557,-1735,222,34,41,846
688003,10370848,11651768,10373159,11651111,1514,1850,751,808,1809,-2790,-2623,1603,34,41,846
689004,10371032,11652040,10373356,11651308,1370,1592,580,94,1806,-2877,-2228,2245,47,36,842
690005,10371176,11652356,10373553,11651505,1644,1265,323,-388,1876,-2945,-1758,3198,47,36,842
691006,10371340,11652696,10373750,11651702,1534,1052,61,-496,2046,-2646,-1956,4257,27,49,841
692007,10371492,11652876,10373947,11651899,1628,2058,-125,-643,2308,-2657,-1954,4423,27,49,841
693008,10371640,11653188,10374144,11652096,1676,1183,19,-594,2605,-2539,-1878,7569,35,68,845
694009,10371764,11653476,10374341,11652293,1858,1293,1062,220,2824,-1740,-1503,17917,35,68,845
695010,10371920,11653760,10374538,11652490,1677,1279,2350,1071,2922,-1522,-1163,14962,42,64,846
696011,10372048,11654104,10374735,11652687,1882,839,2770,1272,3042,-2393,-1413,5851,42,64,846
697012,10372172,11654448,10374932,11652884,1940,774,2510,844,3248,-2319,-1658,3874,23,68,845
698013,10372304,11654856,10375129,11653081,1919,281,2126,460,3474,-1897,-1477,4300,23,68,845
699014,10372428,11655248,10375326,11653278,2002,296,1865,283,3649,-1736,-918,4219,20,65,844
700022,10372536,11655536,10375556,11653508,2156,919,1702,75,3703,-1524,-326,3821,20,65,844
701016,10372700,11655832,10375753,11653705,1821,826,1562,-177,3634,-1340,289,3713,21,55,845
702017,10372836,11656152,10375950,11653902,2024,621,1442,-528,3533,-1231,620,3443,21,55,845
703018,10372960,11656500,10376147,11654099,2131,379,1347,-884,3443,-862,229,3294,30,60,847
704019,10373088,11656804,10376344,11654296,2137,606,1283,-1305,3350,-660,-278,3033,30,60,847
705020,10373232,11657072,10376541,11654493,2061,800,1243,-1777,3238,-549,-501,2939,28,66,845
706021,10373348,11657420,10376738,11654690,2272,234,1184,-2161,3113,-264,-732,2980,28,66,845
707022,10373536,11657788,10376935,11654887,1827,33,1104,-2517,3026,-23,-717,2980,40,57,846
708023,10373672,11658112,10377132,11655084,2179,251,998,-2788,3001,192,-419,3343,40,57,846
709024,10373836,11658412,10377329,11655281,2020,356,917,-2991,2977,228,590,3260,45,68,844
710025,10374000,11658756,10377526,11655478,2035,15,854,-3154,2972,265,116,3493,45,68,844
711026,10374180,11659120,10377723,11655675,1942,-183,786,-3220,3002,285,-514,3678,48,59,847
712028,10374368,11659464,10377920,11655872,1897,-124,757,-3363,2999,423,-717,3366,48,59,847
713028,10374548,11659768,10378117,11656069,1956,78,782,-3463,2939,580,-460,3331,32,60,846
714029,10374756,11660068,10378314,11656266,1776,58,842,-3529,2849,722,-178,3381,32,60,846
715030,10374964,11660356,10378511,11656463,1772,92,916,-3527,2731,712,327,3567,50,62,847
716031,10375136,11660596,10378708,11656660,2009,372,944,-3436,2583,760,1293,3687,50,62,847
717032,10375348,11660880,10378905,11656857,1753,58,969,-3320,2407,804,2187,3626,42,58,847
718033,10375556,11661068,10379102,11657054,1774,662,1008,-3134,2255,941,1274,3827,42,58,847
719034,10375784,11661204,10379299,11657251,1636,1012,1051,-2828,2113,749,1034,4038,35,67,848
720035,10376012,11661440,10379496,11657448,1623,369,1093,-2477,1899,424,2155,4087,35,67,848
721036,10376232,11661624,10379693,11657645,1663,699,1073,-2019,1604,400,2461,4584,48,57,847
722037,10376432,11661780,10379890,11657842,1788,892,976,-1366,1304,297,2197,5041,48,57,847
723038,10376640,11661920,10380087,11658039,1733,1016,814,-535,993,-111,2039,5263,42,53,846
724039,10376844,11662048,10380284,11658236,1756,1120,622,264,574,-673,2319,5204,42,53,846
725040,10377024,11662156,10380481,11658433,1915,1283,356,1196,-16,-957,2591,5877,34,27,847
726041,10377248,11662272,10380678,11658630,1628,1269,-4,2213,-605,-624,2094,5731,34,27,847
727042,10377460,11662372,10380875,11658827,1697,1411,-377,3035,-1158,-358,2124,4874,51,27,846
728043,10377668,11662468,10381072,11659024,1718,1479,-695,3419,-1704,-441,1412,3692,51,27,846
729044,10377884,11662544,10381269,11659221,1660,1657,-962,3332,-2302,-465,1242,2574,34,16,845
730045,10378096,11662652,10381466,11659418,1679,1495,-1224,3022,-2888,-129,453,1991,34,16,845
731046,10378276,11662736,10381663,11659615,1888,1694,-1470,2605,-3327,8,-425,1475,39,14,844
732047,10378484,11662820,10381860,11659812,1708,1744,-1710,2079,-3621,47,-595,1249,39,14,844
733048,10378668,11662916,10382057,11660009,1865,1712,-1946,1449,-3849,159,-445,871,29,23,844
734049,10378880,11662992,10382254,11660206,1684,1890,-2133,657,-4032,354,-605,409,29,23,844
735050,10379076,11663076,10382451,11660403,1785,1889,-2283,-153,-4179,578,-789,535,36,28,843
736051,10379292,11663156,10382648,11660600,1652,1965,-2449,-988,-4296,555,-462,670,36,28,843
737052,10379508,11663252,10382845,11660797,1644,1909,-2656,-1667,-4379,667,-329,1312,32,22,842
738053,10379696,11663392,10383042,11660994,1824,1659,-2897,-2091,-4425,840,-13,2010,32,22,842
739054,10379916,11663500,10383239,11661191,1615,1897,-3154,-2322,-4448,756,396,2710,39,15,842
740055,10380132,11663620,10383436,11661388,1631,1856,-3407,-2353,-4417,787,-304,3539,39,15,842
741056,10380320,11663736,10383633,11661585,1811,1915,-3615,-2238,-4300,773,-639,4187,35,23,842
742057,10380560,11663856,10383830,11661782,1469,1924,-2845,-570,-4000,154,-993,17370,35,23,842
743058,10380784,11663992,10384027,11661979,1557,1850,-231,5253,-3377,-1346,-1718,32767,31,23,841
744059,10380984,11664120,10384224,11662176,1706,1930,1498,8221,-3041,660,923,9087,31,23,841
745060,10381220,11664264,10384421,11662373,1465,1853,1643,8006,-2966,1192,1566,2969,53,23,842
746061,10381444,11664384,10384618,11662570,1528,2036,1123,6199,-2890,1581,1481,1179,53,23,842
747062,10381664,11664524,10384815,11662767,1544,1936,830,4880,-2732,1763,1138,1606,52,23,843
748063,10381912,11664660,10385012,11662964,1347,1988,716,4089,-2466,1317,1001,1675,52,23,843
749064,10382136,11664804,10385209,11663161,1486,1960,667,3243,-2204,1418,519,909,51,29,842
750065,10382372,11664960,10385406,11663358,1395,1903,544,2420,-2042,1231,419,1335,51,29,842
751066,10382632,11665096,10385603,11663555,1217,2055,408,1547,-1968,183,767,1377,59,36,843
752067,10382836,11665244,10385800,11663752,1565,2001,275,756,-2001,-199,258,1867,59,36,843
753068,10383052,11665392,10385997,11663949,1482,2022,101,213,-2018,-674,-444,2595,39,40,843
754069,10383304,11665520,10386194,11664146,1234,2178,-97,44,-1922,-1113,-1040,3873,39,40,843
755070,10383540,11665664,10386391,11664343,1316,2101,-310,308,-1793,-1176,-1868,4740,37,27,843
756071,10383748,11665768,10386588,11664540,1488,2391,-452,540,-1639,-1644,-1920,4529,37,27,843
757072,10383976,11665888,10386785,11664737,1349,2325,-542,858,-1488,-1674,-1487,4974,37,24,843
758073,10384184,11665980,10386982,11664934,1470,2546,-606,999,-1392,-1558,-821,4347,37,24,843
759074,10384384,11666072,10387179,11665131,1519,2592,-633,988,-1309,-1687,-390,4131,35,30,843
760075,10384580,11666168,10387376,11665328,1545,2610,-609,967,-1209,-1683,35,3985,35,30,843
761076,10384812,11666276,10387573,11665525,1306,2574,-574,721,-1106,-1514,292,3125,47,14,841
762077,10384996,11666380,10387770,11665722,1612,2640,-548,401,-984,-1388,409,3000,47,14,841
763078,10385184,11666504,10387967,11665919,1591,2547,-473,-60,-810,-1438,281,2373,36,27,840
764079,10385380,11666636,10388164,11666116,1542,2526,-360,-709,-588,-1229,-474,2066,36,27,840
765080,10385580,11666744,10388361,11666313,1517,2715,-227,-1271,-333,-1125,-747,2186,37,31,839
766081,10385768,11666856,10388558,11666510,1596,2727,-73,-1864,-94,-1083,-833,1899,37,31,839
767082,10386008,11666964,10388755,11666707,1253,2792,99,-2412,81,-1029,-1022,1939,51,36,839
768083,10386196,11667084,10388952,11666904,1582,2750,267,-2961,217,-1241,-697,2087,51,36,839
769084,10386376,11667180,10389149,11667101,1640,2945,403,-3378,307,-1319,-259,2358,31,19,840
770085,10386604,11667288,10389346,11667298,1326,2909,494,-3664,346,-1427,-347,2567,31,19,840
771086,10386792,11667452,10389543,11667495,1581,2573,558,-3912,370,-1657,-423,2825,49,22,838
772087,10386968,11667576,10389740,11667692,1666,2855,592,-4058,361,-1491,-261,3052,49,22,838
773088,10387184,11667712,10389937,11667889,1408,2807,595,-4202,339,-1277,-564,3004,51,30,839
774089,10387392,11667852,10390134,11668086,1453,2807,575,-4231,333,-1102,-1406,3294,51,30,839
775090,10387572,11667988,10390331,11668283,1637,2859,541,-4261,334,-869,-1736,3077,51,23,838
776091,10387788,11668140,10390528,11668480,1404,2779,494,-4401,317,-592,-1131,2821,51,23,838
777092,10387972,11668296,10390725,11668677,1610,2772,445,-4531,286,-342,-253,2984,35,28,837
778093,10388164,11668420,10390922,11668874,1563,3004,399,-4725,255,-25,-208,2589,35,28,837
779094,10388396,11668584,10391119,11669071,1298,2769,358,-5031,230,202,63,2308,29,23,839
780095,10388592,11668756,10391316,11669268,1525,2730,341,-5404,225,477,404,2155,29,23,839
781096,10388780,11668920,10391513,11669465,1579,2794,325,-5808,242,856,24,2083,35,29,839
782097,10389008,11669092,10391710,11669662,1316,2755,293,-6097,261,1072,37,2230,35,29,839
783105,10389184,11669264,10391940,11669892,1665,2780,235,-6331,310,1132,60,2385,40,34,836
784099,10389388,11669428,10392137,11670089,1488,2845,133,-6454,380,1314,63,2800,40,34,836
785100,10389580,11669580,10392334,11670286,1565,2941,-10,-6403,467,1349,29,3286,30,42,838
786101,10389828,11669764,10392531,11670483,1193,2746,-160,-6237,564,1269,-39,3509,30,42,838
787102,10390068,11669928,10392728,11670680,1224,2886,-320,-6025,644,1175,-111,3589,43,41,839
788103,10390288,11670160,10392925,11670877,1340,2446,-496,-5727,711,1026,-104,3948,43,41,839
789104,10390528,11670388,10393122,11671074,1196,2457,-684,-5332,766,933,-158,4120,39,49,838
790105,10390748,11670620,10393319,11671271,1312,2417,-858,-4975,813,895,-332,3923,39,49,838
791106,10390956,11670852,10393516,11671468,1383,2401,-996,-4668,858,871,-457,3912,36,49,841
792107,10391232,11671124,10393713,11671665,924,2119,-1117,-4316,903,927,-513,3974,36,49,841
793108,10391472,11671416,10393910,11671862,1130,1952,-1241,-4100,924,973,-432,3582,42,56,842
794109,10391700,11671692,10394107,11672059,1192,2018,-1350,-3937,937,1058,-519,3500,42,56,842
795110,10391956,11671932,10394304,11672256,991,2224,-1424,-3803,967,1145,-744,3232,55,47,841
796111,10392208,11672192,10394501,11672453,992,2071,-1451,-3842,1007,1306,-893,3004,55,47,841
797112,10392416,11672464,10394698,11672650,1263,1963,-1464,-3880,1044,1404,-674,3038,60,60,845
798113,10392668,11672764,10394895,11672847,964,1743,-1482,-3981,1060,1343,-422,2780,60,60,845
799114,10392896,11673056,10395092,11673044,1102,1751,-1492,-4113,1046,1341,-331,2755,40,52,844
800115,10393116,11673332,10395289,11673241,1141,1817,-1504,-4244,1028,1353,-305,2914,40,52,844
801116,10393376,11673604,10395486,11673438,865,1809,-1523,-4302,994,1397,-340,3131,55,59,845
802117,10393596,11673864,10395683,11673635,1105,1856,-1560,-4253,938,1441,-414,3390,55,59,845
803119,10393792,11674156,10395880,11673832,1255,1614,-1606,-4190,878,1438,-621,3626,57,56,846
804120,10393996,11674456,10396077,11674029,1203,1519,-1661,-4059,818,1461,-829,3994,57,56,846
805120,10394176,11674708,10396274,11674226,1360,1795,-1709,-3862,756,1432,-974,4202,55,53,846
806122,10394360,11674932,10396471,11674423,1342,1958,-1752,-3613,703,1419,-708,4486,55,53,846
807123,10394536,11675160,10396668,11674620,1401,1918,-1812,-3216,642,1477,-192,4855,44,48,846
808123,10394700,11675412,10396865,11674817,1491,1744,-1878,-2815,580,1501,119,4968,44,48,846
809124,10394892,11675656,10397062,11675014,1319,1773,-1946,-2414,528,1614,250,5124,32,55,846
810126,10395076,11675860,10397259,11675211,1375,2020,-2003,-2032,505,1817,225,5157,32,55,846
811127,10395252,11676072,10397456,11675408,1435,1964,-1669,-1221,490,2651,100,9573,42,49,843
812128,10395432,11676264,10397653,11675605,1418,2091,-380,1631,377,4335,46,26702,42,49,843
813129,10395592,11676456,10397850,11675802,1559,2093,603,3359,282,2489,5,8265,32,51,844
814129,10395788,11676624,10398047,11675999,1335,2256,694,3307,224,2274,403,3218,32,51,844
815130,10395968,11676816,10398244,11676196,1443,2108,368,2410,245,2435,-91,2760,35,32,843
816131,10396164,11676980,10398441,11676393,1344,2297,68,1763,314,2527,-392,3100,35,32,843
817132,10396380,11677164,10398638,11676590,1211,2177,-105,1326,359,2141,-102,2623,33,30,843
818134,10396560,11677292,10398835,11676787,1444,2558,-159,757,323,1825,-233,1829,33,30,843
819135,10396720,11677424,10399032,11676984,1586,2561,-228,180,270,1696,-670,2439,30,23,842
820136,10396912,11677568,10399229,11677181,1388,2509,-362,-234,288,1323,-866,2835,30,23,842
821137,10397116,11677704,10399426,11677378,1311,2586,-524,-513,312,989,-964,3180,48,28,841
822138,10397268,11677836,10399623,11677575,1655,2640,-681,-727,299,519,-986,3459,48,28,841
823139,10397472,11677972,10399820,11677772,1328,2642,-777,-847,283,58,-1269,3777,30,34,840
824140,10397668,11678128,10400017,11677969,1379,2535,-847,-794,274,-62,-1810,4202,30,34,840
825140,10397856,11678300,10400214,11678166,1434,2446,-889,-721,284,-431,-1869,4360,42,22,841
826141,10398044,11678456,10400411,11678363,1438,2564,-915,-519,329,-847,-1621,4824,42,22,841
827143,10398200,11678620,10400608,11678560,1657,2528,-941,-272,387,-1036,-1681,4908,50,33,839
828143,10398360,11678784,10400805,11678757,1648,2543,-936,10,486,-1240,-1418,5061,50,33,839
829144,10398528,11678948,10401002,11678954,1612,2557,-925,311,619,-1431,-749,5208,35,37,841
830145,10398668,11679108,10401199,11679151,1812,2598,-903,472,758,-1532,-524,4689,35,37,841
831146,10398832,11679324,10401396,11679348,1676,2240,-857,567,925,-1722,-755,4787,40,44,839
832147,10399008,11679516,10401593,11679545,1611,2392,-759,659,1129,-2014,-790,4557,40,44,839
833148,10399192,11679704,10401790,11679742,1567,2421,-633,580,1343,-2193,-965,4291,32,29,839
834149,10399332,11679888,10401987,11679939,1868,2452,-494,519,1571,-2332,-1491,4322,32,29,839
835151,10399512,11680088,10402184,11680136,1626,2351,-333,308,1835,-2376,-1774,3843,44,38,839
836152,10399664,11680308,10402381,11680333,1821,2215,-169,24,2107,-2263,-1883,3670,44,38,839
837152,10399824,11680496,10402578,11680530,1788,2419,-11,-360,2384,-2257,-1588,3331,24,32,840
838153,10399952,11680684,10402775,11680727,2019,2423,138,-840,2635,-2157,-1169,3084,24,32,840
839154,10400132,11680896,10402972,11680924,1703,2267,261,-1324,2839,-1915,-1014,3012,45,34,839
840155,10400304,11681152,10403169,11681121,1764,1966,358,-1821,3030,-1794,-1009,3128,45,34,839
841156,10400464,11681420,10403366,11681318,1856,1860,454,-2243,3195,-1559,-1057,3358,45,50,840
842157,10400628,11681672,10403563,11681515,1845,1936,541,-2586,3327,-1402,-1468,3738,45,50,840
843159,10400800,11681876,10403760,11681712,1807,2232,617,-2797,3447,-1211,-1629,4027,33,46,838
844159,10400940,11682108,10403957,11681909,2032,2042,660,-2948,3547,-839,-1638,4152,33,46,838
845161,10401096,11682384,10404154,11682106,1951,1732,658,-3113,3614,-344,-1438,4254,35,41,842
846161,10401248,11682672,10404351,11682303,1996,1617,635,-3234,3662,189,-1200,4348,35,41,842
847162,10401388,11682960,10404548,11682500,2097,1576,627,-3356,3676,779,-684,4189,33,55,842
848163,10401584,11683172,10404745,11682697,1749,2045,620,-3483,3668,1094,-528,4454,33,55,842
849164,10401728,11683424,10404942,11682894,2097,1771,596,-3531,3649,1143,-496,4826,27,45,840
850165,10401884,11683712,10405139,11683091,2041,1506,549,-3486,3621,1120,-848,4978,27,45,840
851167,10402040,11683964,10405336,11683288,2059,1706,507,-3344,3574,1295,-941,5173,36,58,843
852168,10402192,11684184,10405533,11683485,2105,1896,488,-3187,3517,1769,-407,5138,36,58,843
853168,10402324,11684420,10405730,11683682,2259,1779,463,-3042,3451,2368,64,5217,33,44,841
854169,10402484,11684636,10405927,11683879,2101,1896,416,-2909,3383,2608,189,5189,33,44,841
855170,10402612,11684848,10406124,11684076,2332,1914,382,-2828,3316,2594,58,4987,28,43,842
856171,10402740,11685104,10406321,11684273,2363,1612,364,-2743,3263,2547,-273,4934,28,43,842
857172,10402876,11685372,10406518,11684470,2340,1506,341,-2627,3244,2315,-830,5009,41,43,841
858173,10403024,11685620,10406715,11684667,2288,1609,313,-2473,3236,2057,-1271,5041,41,43,841
859175,10403152,11685852,10406912,11684864,2444,1693,308,-2352,3211,1830,-1492,4791,23,42,841
860175,10403304,11686060,10407109,11685061,2315,1838,338,-2247,3160,1611,-1358,4858,23,42,841
861176,10403456,11686328,10407306,11685258,2334,1431,384,-2129,3076,1550,-1043,4883,24,47,841
862177,10403572,11686584,10407503,11685455,2596,1480,451,-1940,2988,1582,-1062,4769,24,47,841
863179,10403692,11686840,10407700,11685652,2606,1454,524,-1748,2939,1593,-1137,4693,39,48,841
864179,10403844,11687116,10407897,11685849,2426,1295,609,-1593,2917,1495,-1245,4489,39,48,841
865180,10403964,11687328,10408094,11686046,2660,1688,715,-1536,2904,1235,-1149,4231,39,45,839
866188,10404080,11687576,10408324,11686276,2737,1454,853,-1499,2899,900,-1224,4140,39,45,839
867183,10404248,11687844,10408521,11686473,2425,1298,1016,-1442,2897,785,-1314,4258,36,43,840
868184,10404384,11688140,10408718,11686670,2653,1080,1179,-1235,2891,628,-1178,4501,36,43,840
869184,10404504,11688408,10408915,11686867,2787,1223,1331,-921,2896,484,-865,4556,29,51,841
870185,10404640,11688664,10409112,11687064,2715,1271,1497,-639,2914,674,-461,4250,29,51,841
871186,10404732,11688928,10409309,11687261,3037,1192,1670,-409,2945,859,-121,4303,30,57,839
872187,10404836,11689260,10409506,11687458,3004,708,1821,-107,2988,833,-114,4374,30,57,839
873188,10404944,11689548,10409703,11687655,3019,942,1975,151,3006,741,-316,3857,37,51,841
874189,10405064,11689888,10409900,11687852,2979,554,2116,356,3009,757,-692,3783,37,51,841
875190,10405180,11690144,10410097,11688049,3040,1053,2224,666,3011,707,-1174,4054,26,61,838
876191,10405296,11690432,10410294,11688246,3077,812,2276,1079,3009,535,-1790,4208,26,61,838
877192,10405448,11690748,10410491,11688443,2873,585,2295,1583,2997,345,-2033,4340,38,58,839
878193,10405588,11691052,10410688,11688640,2974,612,2326,2063,2993,381,-1696,4161,38,58,839
879194,10405744,11691336,10410885,11688837,2893,698,2392,2532,3014,706,-1417,3948,27,70,840
880195,10405900,11691604,10411082,11689034,2912,766,2487,2850,3037,874,-1090,3382,27,70,840
881196,10406064,11691888,10411279,11689231,2877,628,2585,3001,3022,1052,-642,2871,42,69,839
882197,10406268,11692184,10411476,11689428,2625,508,2632,3101,2935,1086,-140,2735,42,69,839
883198,10406476,11692452,10411673,11689625,2596,652,2627,3221,2787,941,555,2414,44,59,841
884200,10406692,11692740,10411870,11689822,2539,486,2628,3266,2566,905,1110,1955,44,59,841
885200,10406956,11693000,10412067,11690019,2211,633,2633,3240,2308,1149,1252,1792,37,47,841
886201,10407216,11693280,10412264,11690216,2208,471,2638,3210,2063,1368,1357,1647,37,47,841
887202,10407460,11693536,10412461,11690413,2288,595,2660,3222,1862,1331,1286,1708,60,52,842
888203,10407684,11693708,10412658,11690610,2402,1130,2699,3256,1721,1032,568,1899,60,52,842
889204,10407928,11693828,10412855,11690807,2258,1488,2766,3322,1625,934,33,1723,58,48,844
890205,10408172,11694048,10413052,11691004,2238,853,2823,3293,1501,1246,-16,1345,58,48,844
891207,10408404,11694256,10413249,11691201,2299,922,2862,3178,1364,1371,-197,956,45,49,846
892207,10408652,11694388,10413446,11691398,2177,1426,2887,3000,1249,1203,-290,1028,45,49,846
893208,10408884,11694540,10413643,11691595,2263,1319,2853,3025,1137,804,-181,1564,42,32,843
894209,10409132,11694720,10413840,11691792,2141,1151,2744,3200,1012,562,142,1774,42,32,843
895210,10409396,11694900,10414037,11691989,2013,1158,2594,3532,853,606,109,1931,54,34,844
896211,10409644,11695084,10414234,11692186,2092,1138,2427,3826,651,311,25,1823,54,34,844
897212,10409892,11695216,10414431,11692383,2070,1492,2261,4057,436,-53,225,1916,59,45,842
898213,10410144,11695372,10414628,11692580,2021,1359,2030,4510,204,-618,444,2368,59,45,842
899214,10410364,11695512,10414825,11692777,2212,1484,1724,4895,-54,-1143,709,2192,64,27,843
900216,10410572,11695652,10415022,11692974,2283,1508,1351,5225,-381,-1054,1091,2063,64,27,843
901216,10410820,11695800,10415219,11693171,2012,1479,962,5436,-781,-871,1451,1500,47,22,844
902218,10411032,11695952,10415416,11693368,2231,1473,571,5493,-1209,-1131,1578,1232,47,22,844
903218,10411220,11696116,10415613,11693565,2386,1412,155,5473,-1625,-1668,1388,1219,35,35,843
904219,10411460,11696300,10415810,11693762,2043,1292,-286,5259,-2045,-2083,1700,446,35,35,843
905220,10411660,11696440,10416007,11693959,2292,1592,-743,4694,-2500,-1740,2481,-488,35,30,842
906221,10411876,11696624,10416204,11694156,2184,1322,-1202,3869,-2986,-1296,2893,-1234,35,30,842
907222,10412120,11696816,10416401,11694353,1990,1274,-1614,2737,-3489,-1348,2594,-1924,45,25,842
908223,10412348,11696972,10416598,11694550,2077,1516,-1983,1547,-3875,-1525,1445,-1888,45,25,842
909224,10412556,11697136,10416795,11694747,2198,1481,-2365,492,-4059,-1561,526,-1040,56,26,843
910225,10412772,11697328,10416992,11694944,2140,1307,-2772,-296,-4039,-1358,-33,-384,56,26,843
911226,10412916,11697528,10417189,11695141,2614,1256,-3146,-1122,-3876,-979,-568,-540,53,31,843
912227,10413088,11697732,10417386,11695338,2451,1226,-3467,-2039,-3672,-541,-862,-347,53,31,843
913228,10413256,11697888,10417583,11695535,2490,1544,-3708,-2970,-3458,-407,-1376,-144,45,42,843
914229,10413448,11698044,10417780,11695732,2343,1562,-3902,-3766,-3210,-719,-1929,341,45,42,843
915230,10413676,11698196,10417977,11695929,2106,1606,-4102,-4365,-2964,-1179,-1853,1060,29,35,843
916231,10413884,11698336,10418174,11696126,2226,1706,-4321,-4807,-2778,-1263,-971,1757,29,35,843
917232,10414100,11698476,10418371,11696323,2168,1730,-4555,-5165,-2648,-1034,-579,2245,44,34,841
918233,10414288,11698616,10418568,11696520,2348,1755,-4825,-5458,-2576,-939,-316,2605,44,34,841
919234,10414488,11698728,10418765,11696717,2273,1967,-5112,-5609,-2540,-707,-181,3362,38,24,840
920235,10414692,11698844,10418962,11696914,2246,1977,-5408,-5561,-2488,-551,-121,4126,38,24,840
921236,10414948,11698996,10419159,11697111,1895,1772,-5679,-5383,-2393,-544,43,4502,32,21,840
922237,10415220,11699156,10419356,11697308,1763,1737,-5880,-5156,-2242,-596,76,4804,32,21,840
923238,10415516,11699280,10419553,11697505,1571,1994,-5999,-4874,-2046,-637,67,5281,37,38,840
924239,10415744,11699400,10419750,11697702,1983,2053,-6048,-4663,-1847,-176,156,5389,37,38,840
925240,10415992,11699540,10419947,11697899,1837,1952,-6050,-4474,-1710,676,295,5444,45,32,840
926241,10416260,11699664,10420144,11698096,1680,2084,-6017,-4295,-1639,1392,371,5358,45,32,840
927242,10416560,11699768,10420341,11698293,1436,2250,-5968,-4162,-1610,1563,343,5421,60,35,843
928243,10416860,11699892,10420538,11698490,1392,2156,-5885,-4135,-1630,1085,207,5532,60,35,843
929244,10417176,11700012,10420735,11698687,1240,2215,-5477,-3897,-1670,1261,-669,8108,51,35,841
930245,10417404,11700116,10420932,11698884,1777,2356,-1971,2612,-2008,9382,-3192,32767,51,35,841
931246,10417732,11700260,10421129,11699081,1095,2129,2161,8836,-2440,6671,-1931,28734,53,21,841
932247,10418052,11700376,10421326,11699278,1091,2339,3589,9232,-2570,2628,-190,1238,53,21,841
933249,10418336,11700532,10421523,11699475,1279,2107,3237,6597,-2372,2996,-645,588,71,22,842
934250,10418648,11700684,10421720,11699672,1055,2152,2604,3536,-2160,3037,-1487,-1185,71,22,842
935251,10418944,11700824,10421917,11699869,1111,2252,2480,1694,-2024,2736,-1635,-113,59,27,840
936251,10419240,11700988,10422114,11700066,1068,2116,2276,356,-1812,2722,-2194,924,59,27,840
937252,10419500,11701128,10422311,11700263,1266,2290,1977,-573,-1662,3081,-2139,1212,68,40,843
938253,10419756,11701292,10422508,11700460,1266,2155,1736,-1781,-1560,2305,-1706,665,68,40,843
939255,10420060,11701448,10422705,11700657,919,2223,1545,-3053,-1560,2044,-1379,1325,68,27,844
940255,10420340,11701576,10422902,11700854,1033,2428,1231,-3745,-1697,2212,-1250,3379,68,27,844
941257,10420548,11701724,10423099,11701051,1479,2325,845,-3896,-1773,1537,-1021,4427,62,41,843
942257,10420788,11701884,10423296,11701248,1261,2266,487,-3697,-1825,1261,-1085,4947,62,41,843
943258,10421020,11702044,10423493,11701445,1295,2282,256,-3662,-1937,975,-806,4653,48,34,843
944259,10421340,11702200,10423690,11701642,692,2324,89,-3426,-2160,716,483,5904,48,34,843
945260,10421680,11702356,10423887,11701839,504,2342,-23,-3086,-2442,1102,996,5275,42,40,843
946261,10421908,11702488,10424084,11702036,1192,2521,-71,-2863,-2693,1269,1672,4986,42,40,843
947262,10422132,11702620,10424281,11702233,1205,2549,-26,-2598,-2878,981,2031,5562,56,33,843
948263,10422360,11702756,10424478,11702430,1167,2551,131,-2336,-3036,551,1410,4816,56,33,843
949274,10422600,11702904,10424708,11702660,1088,2512,351,-2292,-3215,77,1365,4313,40,22,844
950265,10422928,11703052,10424905,11702857,480,2534,488,-2003,-3299,227,1335,5285,40,22,844
951266,10423184,11703204,10425102,11703054,905,2529,599,-1756,-3292,335,989,4538,41,31,841
952267,10423276,11703324,10425299,11703251,1977,2762,723,-1509,-3267,176,976,4808,41,31,841
953268,10423508,11703488,10425496,11703448,1086,2502,859,-1211,-3189,-79,837,4741,40,38,840
954269,10423816,11703652,10425693,11703645,563,2516,991,-1077,-3107,106,730,3998,40,38,840
955271,10424084,11703816,10425890,11703842,782,2531,1089,-1137,-2985,544,615,3589,50,32,843
956271,10424440,11704000,10426087,11704039,163,2412,1046,-1063,-2784,955,450,4264,50,32,843
957273,10424744,11704140,10426284,11704236,441,2712,880,-967,-2533,1082,74,3764,63,37,837
958273,10424952,11704304,10426481,11704433,1036,2576,749,-1078,-2259,1002,275,2882,63,37,837
959274,10425156,11704476,10426678,11704630,1058,2537,572,-1278,-1950,1196,-9,3167,56,44,843
960275,10425420,11704648,10426875,11704827,655,2548,303,-1365,-1619,1631,-173,3110,56,44,843
961276,10425672,11704820,10427072,11705024,706,2559,42,-1511,-1306,1716,197,2639,47,33,844
962277,10426024,11704988,10427269,11705221,13,2597,-233,-1699,-1004,1838,29,2808,47,33,844
963278,10426264,11705148,10427466,11705418,694,2663,-515,-2011,-728,1963,50,2324,47,28,841
964279,10426396,11705332,10427663,11705615,1398,2519,-802,-2261,-500,2030,322,2474,47,28,841
965280,10426564,11705512,10427860,11705812,1186,2551,-1149,-2338,-314,2172,234,2803,37,41,842
966281,10426796,11705696,10428057,11706009,771,2532,-1475,-2622,-202,2416,626,1929,37,41,842
967282,10427044,11705880,10428254,11706206,648,2538,-1724,-2943,-182,2708,980,2144,36,44,844
968283,10427328,11706044,10428451,11706403,386,2677,-1945,-3159,-175,2783,701,2514,36,44,844
969284,10427508,11706208,10428648,11706600,1043,2692,-2145,-3286,-185,2520,647,2598,54,45,841
970285,10427660,11706400,10428845,11706797,1238,2519,-2316,-3263,-219,2198,1066,2864,54,45,841
971286,10427856,11706588,10429042,11706994,964,2549,-2450,-3238,-310,2046,1303,2626,40,42,843
972287,10428028,11706800,10429239,11707191,1126,2392,-2559,-3228,-437,2158,1235,2782,40,42,843
973288,10428272,11706996,10429436,11707388,655,2493,-2699,-3080,-574,1978,1185,3351,36,34,843
974289,10428520,11707156,10429633,11707585,608,2734,-2867,-2823,-718,1706,972,3337,36,34,843
975290,10428712,11707372,10429830,11707782,960,2376,-2948,-2674,-844,1489,890,2738,39,34,841
976291,10428856,11707596,10430027,11707979,1283,2314,-2956,-2642,-907,1233,792,2902,39,34,841
977292,10429028,11707844,10430224,11708176,1120,2141,-2996,-2356,-941,1239,583,3430,33,54,842
978293,10429160,11708068,10430421,11708373,1399,2280,-3082,-2139,-1015,1440,718,2775,33,54,842
979294,10429284,11708264,10430618,11708570,1481,2455,-3177,-2113,-1130,2045,211,2188,28,40,842
980295,10429416,11708528,10430815,11708767,1459,2001,-3307,-2148,-1212,2544,-535,2071,28,40,842
981296,10429564,11708768,10431012,11708964,1382,2132,-3404,-2557,-1277,2721,-394,858,46,40,843
982297,10429800,11709004,10431209,11709161,815,2139,-3517,-2847,-1290,3022,-839,1665,46,40,843
983298,10430140,11709260,10431406,11709358,102,1989,-3687,-2859,-1173,3078,-1199,2143,27,49,842
984299,10430304,11709476,10431603,11709555,1216,2230,-3844,-2805,-1009,2879,-1437,2038,27,49,842
985300,10430544,11709700,10431800,11709752,723,2168,-3993,-2611,-837,2328,-2063,2785,38,53,842
986301,10430708,11709912,10431997,11709949,1213,2237,-4128,-2200,-648,1589,-2145,3426,38,53,842
987302,10430768,11710136,10432194,11710146,1923,2150,-4224,-1673,-514,1219,-1758,3816,48,47,844
988303,10430964,11710372,10432391,11710343,1074,2058,-4282,-1058,-378,708,-1772,4160,48,47,844
989304,10431256,11710568,10432588,11710540,433,2308,-4298,-436,-222,372,-1726,4255,37,39,843
990305,10431468,11710760,10432785,11710737,926,2335,-4262,150,-58,489,-1828,3864,37,39,843
991306,10431648,11710924,10432982,11710934,1134,2525,-4161,496,102,553,-1674,3585,52,40,843
992307,10431908,11711124,10433179,11711131,606,2299,-4038,895,262,804,-1621,3849,52,40,843
993308,10432144,11711288,10433376,11711328,740,2538,-3936,1241,421,830,-1508,3683,34,34,844
994309,10432380,11711472,10433573,11711525,723,2419,-3855,1544,578,712,-1326,3760,34,34,844
995310,10432608,11711628,10433770,11711722,759,2612,-3816,1860,716,605,-671,3807,30,32,843
996311,10432704,11711800,10433967,11711919,1629,2523,-3764,2120,858,441,-386,3655,30,32,843
997312,10432952,11711952,10434164,11712116,657,2668,-3661,2392,1011,-62,-451,3988,52,33,843
998314,10433104,11712132,10434361,11712313,1277,2500,-3543,2795,1190,-665,-829,4446,52,33,843
999315,10433320,11712336,10434558,11712510,869,2347,-3411,3192,1371,-994,-1049,4511,51,29,843
1000316,10433564,11712540,10434755,11712707,673,2344,-3244,3575,1522,-939,-1296,4496,51,29,843
1001316,10433764,11712728,10434952,11712904,948,2448,-3059,3825,1622,-858,-2088,4306,46,47,839
1002318,10433944,11712936,10435149,11713101,1080,2319,-2640,4134,1699,-855,-2907,5875,46,47,839
1003319,10434112,11713160,10435346,11713298,1168,2207,-671,7827,2055,-2444,-4472,32767,38,31,841
1004319,10434300,11713380,10435543,11713495,1047,2222,1698,11850,2377,-2298,-2076,23715,38,31,841
1005320,10434448,11713616,10435740,11713692,1318,2105,2469,12391,2343,-1262,81,2109,27,50,844
1006321,10434640,11713820,10435937,11713889,1046,2302,2153,10727,2173,-772,696,888,27,50,844
1007322,10434820,11714068,10436134,11714086,1129,2004,1699,8814,2099,-206,936,141,23,47,842
1008323,10435040,11714352,10436331,11714283,869,1741,1469,7590,2206,-349,900,852,23,47,842
1009324,10435224,11714628,10436528,11714480,1100,1756,1382,6471,2449,-663,629,159,42,47,843
1010325,10435408,11714904,10436725,11714677,1106,1722,1241,5473,2642,-579,530,917,42,47,843
1011326,10435564,11715168,10436922,11714874,1299,1767,1105,4424,2755,-969,-77,645,37,59,843
1012327,10435712,11715464,10437119,11715071,1371,1523,1011,3183,2792,-1091,-1711,472,37,59,843
1013328,10435828,11715764,10437316,11715268,1606,1453,960,1970,2693,-1344,-2220,861,27,61,846
1014329,10435952,11716088,10437513,11715465,1589,1247,843,882,2495,-1832,-2017,1538,27,61,846
1015330,10436072,11716460,10437710,11715662,1648,870,453,467,2359,-2007,-2715,3611,39,61,845
1016331,10436164,11716680,10437907,11715859,1869,1810,51,86,2306,-2608,-1404,3519,39,61,845
1017332,10436300,11716872,10438104,11716056,1622,1987,262,138,2408,-3516,-1634,10344,21,56,846
1018333,10436456,11717072,10438301,11716253,1515,1936,1402,1208,2750,-3722,-3046,20893,21,56,846
1019335,10436636,11717316,10438498,11716450,1373,1640,2438,2106,3074,-2185,-2009,12941,22,41,844
1020335,10436808,11717592,10438695,11716647,1435,1404,2496,2182,3300,-1995,-1444,5175,22,41,844
1021336,10436968,11717952,10438892,11716844,1526,808,1911,1744,3456,-1769,-1324,4115,34,39,842
1022337,10437092,11718304,10439089,11717041,1783,789,1416,1178,3539,-1498,-413,3454,34,39,842
1023338,10437264,11718568,10439286,11717238,1495,1310,1255,598,3577,-1415,253,2794,49,47,843
1024339,10437400,11718748,10439483,11717435,1747,1841,1272,-255,3627,-1071,95,2079,49,47,843
1025340,10437532,11719084,10439680,11717632,1801,805,1289,-1123,3727,-642,107,2359,29,57,846
1026341,10437660,11719372,10439877,11717829,1857,1065,1244,-1763,3898,-189,61,2983,29,57,846
1027342,10437784,11719688,10440074,11718026,1914,838,1172,-2176,4075,74,-33,3350,39,64,846
1028343,10437912,11720088,10440271,11718223,1920,223,1135,-2495,4170,-202,156,3454,39,64,846
1029344,10438048,11720476,10440468,11718420,1897,214,1161,-2809,4152,-394,127,3495,22,58,842
1030345,10438208,11720780,10440665,11718617,1764,692,1226,-3060,4081,-312,-424,3756,22,58,842
1031346,10438336,11721080,10440862,11718814,1995,671,1293,-3201,4029,-500,-996,4030,21,61,845
1032354,10438476,11721392,10441092,11719044,1960,560,1333,-3225,3950,-620,-860,4241,21,61,845
1033348,10438592,11721708,10441289,11719241,2146,481,1346,-3161,3797,-563,-307,4384,21,54,847
1034349,10438720,11722060,10441486,11719438,2102,188,1343,-3020,3579,-655,531,4600,21,54,847
1035351,10438884,11722344,10441683,11719635,1892,574,1338,-2860,3278,-609,1174,4453,41,68,846
1036351,10439032,11722628,10441880,11719832,2014,536,1352,-2771,2933,-529,847,4074,41,68,846
1037352,10439200,11722984,10442077,11720029,1902,15,1374,-2718,2648,-379,6,4221,32,56,846
1038353,10439344,11723316,10442274,11720226,2076,106,1430,-2645,2438,-167,-360,3900,32,56,846
1039355,10439528,11723708,10442471,11720423,1832,-356,1518,-2631,2252,-120,-472,3623,37,71,846
1040355,10439700,11723980,10442668,11720620,1919,360,1615,-2577,2094,3,-734,3692,37,71,846
1041356,10439880,11724296,10442865,11720817,1877,33,1728,-2593,1967,172,-707,3249,49,55,845
1042357,10440084,11724668,10443062,11721014,1724,-395,1847,-2621,1863,321,-589,3255,49,55,845
1043359,10440268,11724992,10443259,11721211,1856,-152,1954,-2575,1771,379,-27,3411,51,67,847
1044359,10440472,11725268,10443456,11721408,1728,113,2040,-2514,1680,479,280,3415,51,67,847
1045360,10440704,11725508,10443653,11721605,1538,318,2106,-2309,1586,534,681,3646,50,62,847
1046361,10440904,11725736,10443850,11721802,1737,379,2173,-1997,1510,459,521,3684,50,62,847
1047362,10441108,11725996,10444047,11721999,1710,151,2249,-1621,1462,462,27,3800,54,63,847
1048363,10441344,11726184,10444244,11722196,1494,604,2324,-1174,1381,305,471,3900,54,63,847
1049364,10441572,11726352,10444441,11722393,1530,741,2350,-702,1228,62,1670,4012,59,53,848
1050365,10441772,11726576,10444638,11722590,1705,378,2283,-159,983,-60,3085,4105,59,53,848
1051366,10442008,11726804,10444835,11722787,1463,338,2094,516,678,-265,3365,4581,57,52,847
1052367,10442208,11726968,10445032,11722984,1688,753,1747,1555,315,-499,3135,5650,57,52,847
1053368,10442412,11727120,10445229,11723181,1659,846,1284,2815,-32,-512,2168,5784,49,39,847
1054369,10442640,11727228,10445426,11723378,1497,1160,820,3865,-388,-673,1289,5043,49,39,847
1055370,10442844,11727320,10445623,11723575,1644,1305,409,4627,-826,-789,681,4239,47,31,847
1056371,10443056,11727404,10445820,11723772,1588,1404,23,5126,-1339,-702,315,3606,47,31,847
1057372,10443284,11727488,10446017,11723969,1475,1453,-361,5386,-1824,-582,47,2877,47,18,847
1058373,10443472,11727560,10446214,11724166,1729,1582,-735,5278,-2293,-584,271,1719,47,18,847
1059374,10443676,11727616,10446411,11724363,1626,1744,-1092,4828,-2811,-515,164,592,42,12,846
1060375,10443868,11727676,10446608,11724560,1705,1778,-1414,4090,-3352,-399,10,-16,42,12,846
1061376,10444056,11727732,10446805,11724757,1734,1865,-1719,3202,-3840,-359,-173,-450,54,21,845
1062377,10444244,11727808,10447002,11724954,1739,1792,-2014,2279,-4196,-264,-772,-430,54,21,845
1063378,10444468,11727876,10447199,11725151,1502,1898,-2279,1355,-4428,-271,-816,-240,35,8,843
1064380,10444652,11727956,10447396,11725348,1758,1874,-2558,578,-4617,-225,-161,226,35,8,843
1065380,10444828,11728032,10447593,11725545,1819,1952,-2850,-92,-4781,-330,-37,498,50,7,843
1066381,10445036,11728128,10447790,11725742,1614,1871,-3113,-736,-4904,-476,-225,871,50,7,843
1067383,10445248,11728224,10447987,11725939,1583,1914,-3361,-1171,-4996,-425,-232,1802,32,22,843
1068384,10445448,11728320,10448184,11726136,1657,1959,-3623,-1366,-5029,-450,-230,2595,32,22,843
1069385,10445632,11728448,10448381,11726333,1764,1789,-3901,-1385,-4977,-464,-349,3265,34,30,842
1070385,10445836,11728536,10448578,11726530,1635,2086,-4172,-1260,-4819,-494,-734,3955,34,30,842
1071386,10446004,11728648,10448775,11726727,1874,1973,-4382,-1007,-4546,-460,-801,4480,48,29,843
1072387,10446212,11728740,10448972,11726924,1619,2143,-4536,-603,-4228,-447,-190,5082,48,29,843
1073388,10446440,11728868,10449169,11727121,1482,1949,-4649,-179,-3923,-677,598,5227,35,19,841
1074389,10446644,11728980,10449366,11727318,1629,2086,-4478,356,-3582,-969,594,7212,35,19,841
1075390,10446832,11729132,10449563,11727515,1734,1855,-2252,4541,-2814,-2688,-1251,32767,39,21,840
1076391,10447052,11729252,10449760,11727712,1524,2089,869,9538,-1907,-2267,-1047,32767,39,21,840
1077392,10447280,11729392,10449957,11727909,1461,1989,2130,10496,-1399,-533,1070,2854,34,36,842
1078393,10447472,11729512,10450154,11728106,1688,2148,1861,8796,-1185,-297,1242,1264,34,36,842
1079394,10447704,11729628,10450351,11728303,1424,2207,1414,6554,-1043,554,843,-96,35,23,842
1080396,10447932,11729756,10450548,11728500,1435,2163,1243,4985,-788,721,711,397,35,23,842
1081396,10448160,11729860,10450745,11728697,1422,2353,1279,3657,-498,687,1235,-85,54,27,842
1082397,10448400,11729972,10450942,11728894,1329,2341,1223,2451,-336,870,984,501,54,27,842
1083399,10448608,11730096,10451139,11729091,1525,2297,1118,1326,-226,142,759,871,57,21,841
1084399,10448824,11730216,10451336,11729288,1466,2356,941,261,-209,-358,727,1132,57,21,841
1085400,10449044,11730376,10451533,11729485,1432,2122,678,-592,-330,-421,-197,1825,47,37,841
1086401,10449272,11730512,10451730,11729682,1369,2299,461,-1182,-374,-835,-1519,2652,47,37,841
1087402,10449484,11730628,10451927,11729879,1463,2459,258,-1401,-372,-838,-1902,3712,35,24,842
1088403,10449692,11730744,10452124,11730076,1483,2495,15,-1571,-422,-799,-1713,3635,35,24,842
1089404,10449896,11730856,10452321,11730273,1506,2556,-219,-1667,-508,-893,-881,4100,46,25,841
1090405,10450104,11730948,10452518,11730470,1476,2727,-388,-1720,-706,-795,688,3907,46,25,841
1091407,10450296,11731072,10452715,11730667,1580,2560,-509,-1961,-960,-958,1039,3647,51,19,841
1092407,10450508,11731176,10452912,11730864,1448,2725,-603,-2056,-1171,-1035,1115,4127,51,19,841
1093408,10450696,11731292,10453109,11731061,1602,2686,-666,-2244,-1295,-821,542,3501,43,32,840
1094409,10450872,11731424,10453306,11731258,1687,2615,-679,-2511,-1298,-623,-493,3427,43,32,840
1095410,10451064,11731528,10453503,11731455,1589,2830,-638,-2780,-1231,-683,-401,3169,30,22,838
1096411,10451252,11731656,10453700,11731652,1619,2711,-561,-3322,-1181,-508,-132,2308,30,22,838
1097412,10451476,11731780,10453897,11731849,1382,2768,-457,-3883,-1135,-234,-34,2452,36,31,838
1098413,10451672,11731872,10454094,11732046,1559,3014,-343,-4403,-1037,-304,-45,2325,36,31,838
1099414,10451868,11732004,10454291,11732243,1559,2793,-229,-4974,-944,-351,-172,2076,51,20,839
1100415,10452060,11732120,10454488,11732440,1587,2928,-117,-5506,-878,-520,-228,2274,51,20,839
1101416,10452256,11732244,10454685,11732637,1563,2910,-7,-5959,-791,-679,-201,2355,30,28,838
1102417,10452428,11732348,10454882,11732834,1725,3076,69,-6310,-702,-551,10,2606,30,28,838
1103418,10452608,11732476,10455079,11733031,1682,2956,120,-6599,-575,-721,-64,2796,48,25,837
1104419,10452820,11732580,10455276,11733228,1477,3147,168,-6734,-413,-753,-550,3278,48,25,837
1105420,10453008,11732708,10455473,11733425,1631,3028,201,-6733,-271,-689,-680,3413,48,18,837
1106421,10453188,11732840,10455670,11733622,1688,3032,209,-6649,-128,-769,-726,3745,48,18,837
1107422,10453388,11733000,10455867,11733819,1563,2873,172,-6388,26,-672,-756,4201,39,24,835
1108423,10453588,11733148,10456064,11734016,1562,2970,125,-6110,192,-450,-664,4201,39,24,835
1109424,10453780,11733292,10456261,11734213,1615,3018,109,-5762,379,-174,-522,4392,34,34,836
1110425,10453988,11733452,10456458,11734410,1510,2934,133,-5381,550,50,-210,4226,34,34,836
1111426,10454164,11733600,10456655,11734607,1720,3031,167,-5133,690,327,227,3986,33,26,836
1112427,10454352,11733744,10456852,11734804,1649,3080,177,-4878,810,621,432,4064,33,26,836
1113428,10454552,11733936,10457049,11735001,1574,2783,194,-4679,915,845,287,3663,28,40,837
1114429,10454748,11734140,10457246,11735198,1599,2704,222,-4548,984,1062,377,3424,28,40,837
1115437,10454920,11734300,10457476,11735428,1776,3010,228,-4434,1041,1193,303,3519,48,44,838
1116431,10455124,11734492,10457673,11735625,1573,2812,209,-4311,1083,1495,300,3410,48,44,838
1117432,10455340,11734704,10457870,11735822,1490,2682,154,-4153,1102,1778,142,3473,44,47,836
1118433,10455624,11734884,10458067,11736019,1027,2889,76,-4040,1100,1788,88,3327,44,47,836
1119434,10455836,11735044,10458264,11736216,1471,3031,-24,-3965,1064,1851,22,3348,42,30,838
1120435,10456068,11735236,10458461,11736413,1331,2833,-147,-3881,997,1906,104,3330,42,30,838
1121436,10456304,11735412,10458658,11736610,1290,2943,-305,-3768,929,1901,-214,3455,38,34,838
1122437,10456512,11735628,10458855,11736807,1460,2685,-473,-3645,872,1925,-647,3308,38,34,838
1123438,10456804,11735856,10459052,11737004,893,2596,-623,-3600,812,1871,-774,3219,41,49,839
1124439,10457044,11736112,10459249,11737201,1200,2395,-768,-3532,749,1876,-1050,3313,41,49,839
1125440,10457300,11736348,10459446,11737398,1075,2503,-906,-3433,686,1972,-1300,3315,54,57,839
1126441,10457564,11736596,10459643,11737595,996,2407,-1046,-3372,620,1996,-1187,3399,54,57,839
1127442,10457820,11736868,10459840,11737792,1020,2224,-1167,-3280,540,1945,-603,3449,64,44,840
1128443,10458076,11737132,10460037,11737989,995,2244,-1267,-3146,431,1819,193,3462,64,44,840
1129444,10458316,11737428,10460234,11738186,1076,2001,-1337,-2984,316,1700,417,3640,44,51,841
1130445,10458568,11737708,10460431,11738383,977,2064,-1402,-2821,220,1503,211,3677,44,51,841
1131447,10458812,11737960,10460628,11738580,1008,2215,-1442,-2678,144,1391,-261,3662,60,49,842
1132447,10459052,11738260,10460825,11738777,1014,1871,-1473,-2582,74,1343,-634,3712,60,49,842
1133449,10459284,11738536,10461022,11738974,1048,1986,-1490,-2416,27,1346,-846,3818,53,65,844
1134449,10459480,11738856,10461219,11739171,1275,1657,-1513,-2225,8,1353,-1117,3972,53,65,844
1135451,10459688,11739124,10461416,11739368,1195,1951,-1539,-2004,-4,1292,-1157,4072,59,58,845
1136451,10459884,11739400,10461613,11739565,1270,1866,-1544,-1796,-11,1241,-1032,4129,59,58,845
1137452,10460068,11739680,10461810,11739762,1352,1805,-1523,-1629,-18,1266,-729,4145,38,54,845
1138453,10460280,11739972,10462007,11739959,1170,1688,-1504,-1480,-16,1297,-351,4174,38,54,845
1139454,10460468,11740200,10462204,11740156,1324,2074,-1506,-1304,2,1308,110,4211,28,65,844
1140455,10460652,11740460,10462401,11740353,1356,1846,-1519,-1181,29,1372,333,4140,28,65,844
1141456,10460832,11740684,10462598,11740550,1389,2060,-1530,-1123,64,1347,437,4112,40,61,843
1142457,10461000,11740952,10462795,11740747,1476,1753,-1540,-1088,101,1320,252,4093,40,61,843
1143458,10461164,11741176,10462992,11740944,1517,2017,-1560,-1033,141,1361,-203,4166,37,56,846
1144459,10461344,11741388,10463189,11741141,1424,2085,-1592,-968,200,1386,-577,4468,37,56,846
1145460,10461548,11741620,10463386,11741338,1271,1945,-1626,-825,285,1433,-871,4726,27,45,844
1146461,10461732,11741808,10463583,11741535,1403,2224,-1642,-661,365,1349,-904,4767,27,45,844
1147463,10461936,11742004,10463780,11741732,1275,2174,-1252,177,525,759,-1483,10814,30,37,844
1148463,10462140,11742188,10463977,11741929,1272,2254,-298,2010,783,-25,-1556,17911,30,37,844
1149464,10462308,11742348,10464174,11742126,1511,2420,263,2707,872,930,-343,5185,51,42,843
1150465,10462476,11742536,10464371,11742323,1523,2249,253,2355,881,1144,-541,3502,51,42,843
1151466,10462680,11742728,10464568,11742520,1295,2226,34,1529,902,1291,-693,2731,38,44,842
1152467,10462856,11742868,10464765,11742717,1480,2576,-106,841,927,1185,-789,2660,38,44,842
1153468,10463052,11743024,10464962,11742914,1356,2494,-147,202,925,747,-620,2259,43,35,842
1154469,10463272,11743156,10465159,11743111,1196,2673,-148,-497,889,628,-963,2201,43,35,842
1155470,10463452,11743272,10465356,11743308,1454,2808,-196,-1069,872,388,-1656,2801,41,22,841
1156471,10463636,11743436,10465553,11743505,1435,2523,-269,-1425,905,110,-2043,3398,41,22,841
1157472,10463812,11743584,10465750,11743702,1495,2644,-347,-1623,908,-71,-1825,3693,37,34,839
1158473,10463972,11743748,10465947,11743899,1611,2559,-388,-1786,865,-546,-1366,3823,37,34,839
1159474,10464128,11743908,10466144,11744096,1654,2600,-416,-1798,843,-746,-1445,4517,26,39,840
1160475,10464316,11744092,10466341,11744293,1459,2456,-468,-1711,864,-745,-1287,4745,26,39,840
1161476,10464484,11744248,10466538,11744490,1597,2649,-521,-1626,920,-959,-728,4832,23,38,839
1162477,10464664,11744424,10466735,11744687,1530,2533,-566,-1506,1007,-1120,-601,4986,23,38,839
1163478,10464820,11744588,10466932,11744884,1699,2623,-596,-1473,1123,-1250,-619,4770,26,44,838
1164479,10464988,11744768,10467129,11745081,1636,2531,-611,-1374,1298,-1517,-650,5186,26,44,838
1165480,10465144,11744964,10467326,11745278,1730,2431,-604,-1209,1520,-1806,-599,5368,23,37,840
1166481,10465320,11745136,10467523,11745475,1615,2592,-573,-1048,1754,-2017,-954,5285,23,37,840
1167482,10465472,11745344,10467720,11745672,1785,2363,-507,-907,2002,-2068,-1352,5179,29,29,839
1168483,10465624,11745540,10467917,11745869,1805,2438,-384,-949,2250,-1936,-1185,4577,29,29,839
1169484,10465788,11745712,10468114,11746066,1745,2599,-243,-1173,2502,-1699,-892,4317,45,28,839
1170485,10465948,11745896,10468311,11746263,1787,2530,-98,-1414,2747,-1542,-418,4128,45,28,839
1171486,10466112,11746096,10468508,11746460,1776,2428,54,-1768,2958,-1429,16,3724,46,38,839
1172487,10466272,11746304,10468705,11746657,1819,2374,190,-2096,3121,-1318,23,3905,46,38,839
1173488,10466428,11746564,10468902,11746854,1862,2021,329,-2371,3255,-1272,-276,4057,35,49,839
1174489,10466572,11746812,10469099,11747051,1961,2074,455,-2536,3373,-1103,-867,4346,35,49,839
1175490,10466716,11747048,10469296,11747248,1984,2131,568,-2695,3469,-923,-1210,4455,41,38,839
1176491,10466860,11747284,10469493,11747445,2009,2114,666,-2803,3550,-530,-1133,4615,41,38,839
1177492,10467012,11747508,10469690,11747642,1978,2177,738,-2827,3597,55,-854,4575,22,39,839
1178493,10467160,11747828,10469887,11747839,2026,1523,792,-2889,3620,359,-726,4652,22,39,839
1179495,10467320,11748108,10470084,11748036,1967,1737,818,-2825,3620,499,-776,5023,30,57,840
1180495,10467472,11748356,10470281,11748233,2038,1914,832,-2744,3598,671,-930,5026,30,57,840
1181496,10467600,11748616,10470478,11748430,2218,1812,841,-2629,3569,763,-1114,5219,32,63,839
1182497,10467764,11748848,10470675,11748627,2009,1971,860,-2514,3523,988,-1092,5185,32,63,839
1183498,10467912,11749168,10470872,11748824,2130,1367,897,-2467,3469,1436,-994,4920,29,46,842
1184499,10468032,11749420,10471069,11749021,2340,1768,924,-2372,3410,1924,-641,5028,29,46,842
1185500,10468200,11749660,10471266,11749218,2053,1824,934,-2298,3323,2351,-288,4809,36,60,840
1186501,10468312,11749892,10471463,11749415,2441,1859,922,-2275,3207,2616,-297,4707,36,60,840
1187502,10468444,11750120,10471660,11749612,2346,1870,902,-2224,3095,2593,-393,4741,41,56,840
1188503,10468600,11750348,10471857,11749809,2214,1857,887,-2185,2998,2508,-532,4708,41,56,840
1189504,10468744,11750636,10472054,11750006,2313,1442,861,-2069,2914,2383,-962,4931,40,41,839
1190505,10468876,11750900,10472251,11750203,2417,1562,825,-1858,2863,2159,-1286,5090,40,41,839
1191506,10469032,11751140,10472448,11750400,2286,1692,800,-1616,2825,2063,-1248,5029,42,47,839
1192507,10469160,11751360,10472645,11750597,2492,1807,791,-1441,2768,2047,-1005,4837,42,47,839
1193508,10469272,11751572,10472842,11750794,2629,1851,809,-1292,2706,1925,-689,4681,36,41,840
1194509,10469396,11751852,10473039,11750991,2587,1389,849,-1192,2650,1855,-512,4523,36,41,840
1195511,10469544,11752112,10473236,11751188,2460,1486,889,-1129,2605,1793,-653,4311,34,48,839
1196511,10469680,11752376,10473433,11751385,2563,1432,912,-1077,2577,1575,-901,4114,34,48,839
1197513,10469808,11752604,10473630,11751582,2643,1642,933,-1070,2545,1350,-897,3807,30,59,839
1198520,10469960,11752832,10473860,11751812,2528,1643,972,-1140,2510,1036,-959,3705,30,59,839
1199514,10470088,11753104,10474057,11752009,2710,1335,1016,-1069,2499,628,-1198,4043,22,50,840
1200515,10470192,11753384,10474254,11752206,2901,1249,1072,-894,2522,468,-1074,3982,22,50,840
1201516,10470312,11753652,10474451,11752403,2835,1293,1163,-683,2543,360,-862,4055,18,50,840
1202517,10470428,11753912,10474648,11752600,2897,1314,1293,-497,2554,457,-437,3861,18,50,840
1203518,10470524,11754144,10474845,11752797,3067,1474,1460,-485,2569,858,-124,3270,36,55,839
1204519,10470656,11754416,10475042,11752994,2872,1191,1635,-372,2605,824,-110,3381,36,55,839
1205520,10470816,11754756,10475239,11753191,2713,703,1795,-233,2666,429,-290,3375,30,60,838
1206521,10470964,11755032,10475436,11753388,2811,1067,1917,-54,2693,157,-609,3374,30,60,838
1207522,10471176,11755340,10475633,11753585,2405,818,1996,299,2679,-267,-473,3812,39,47,837
1208523,10471356,11755608,10475830,11753782,2614,1037,2045,713,2614,-454,147,3648,39,47,837
1209524,10471536,11755860,10476027,11753979,2622,1112,2088,1131,2488,-346,604,3488,45,58,839
1210525,10471768,11756204,10476224,11754176,2283,472,2150,1552,2360,-501,975,3552,45,58,839
1211527,10471964,11756512,10476421,11754373,2509,649,2250,1902,2240,-371,1139,3096,39,49,840
1212527,10472148,11756804,10476618,11754570,2590,706,2369,2129,2097,-121,1362,2586,39,49,840
1213528,10472380,11757112,10476815,11754767,2275,557,2514,2212,1991,-54,1169,2295,58,54,842
1214529,10472608,11757376,10477012,11754964,2288,802,2669,2337,1912,63,565,2236,58,54,842
1215530,10472820,11757688,10477209,11755161,2382,451,2810,2421,1885,185,310,2010,45,53,844
1216531,10473040,11757988,10477406,11755358,2323,480,2913,2598,1910,241,403,2206,45,53,844
1217532,10473252,11758280,10477603,11755555,2368,488,2992,2730,1948,331,379,1850,52,67,842
1218533,10473472,11758524,10477800,11755752,2307,766,3069,2712,1967,564,388,1481,52,67,842
1219535,10473716,11758760,10477997,11755949,2138,799,3114,2752,1943,774,368,1615,45,59,844
1220535,10473980,11759036,10478194,11756146,1984,513,3099,2778,1896,804,231,1469,45,59,844
1221536,10474232,11759296,10478391,11756343,2036,586,3018,2918,1879,623,-28,1922,39,49,845
1222537,10474456,11759528,10478588,11756540,2200,744,2885,3212,1882,281,76,2259,39,49,845
1223538,10474704,11759740,10478785,11756737,2028,863,2747,3492,1852,340,545,1869,53,42,844
1224539,10474940,11759864,10478982,11756934,2087,1444,2612,3666,1763,612,950,1726,53,42,844
1225540,10475160,11760004,10479179,11757131,2178,1368,2480,3781,1619,848,1163,1554,45,37,846
1226541,10475400,11760204,10479376,11757328,2035,992,2295,3888,1439,1047,1271,1615,45,37,846
1227542,10475616,11760368,10479573,11757525,2177,1230,2012,4156,1214,621,1360,2067,45,33,844
1228543,10475824,11760540,10479770,11757722,2223,1191,1648,4459,947,175,1519,2025,45,33,844
1229544,10476076,11760708,10479967,11757919,1924,1228,1260,4652,593,291,2123,1321,37,45,842
1230545,10476324,11760868,10480164,11758116,1928,1294,877,4680,181,650,2431,1091,37,45,842
1231546,10476560,11761000,10480361,11758313,1987,1497,484,4637,-238,739,2257,979,35,42,844
1232547,10476808,11761152,10480558,11758510,1889,1391,77,4551,-636,372,2059,822,35,42,844
1233548,10477068,11761264,10480755,11758707,1788,1678,-358,4446,-1017,-189,2103,788,39,41,843
1234549,10477304,11761408,10480952,11758904,1922,1501,-829,4312,-1413,-367,2152,549,39,41,843
1235550,10477540,11761580,10481149,11759101,1904,1336,-1308,3967,-1852,-162,2197,-196,40,31,844
1236551,10477788,11761764,10481346,11759298,1808,1267,-1790,3370,-2331,-109,2063,-785,40,31,844
1237552,10478040,11761952,10481543,11759495,1760,1245,-2287,2616,-2794,-447,1026,-964,62,31,844
1238553,10478300,11762152,10481740,11759692,1682,1168,-2772,1850,-3186,-1058,236,-767,62,31,844
1239554,10478504,11762312,10481937,11759889,2030,1434,-3239,1220,-3482,-1495,-97,-293,53,41,842
1240555,10478724,11762492,10482134,11760086,1921,1316,-3682,672,-3670,-1492,-489,-202,53,41,842
1241556,10478900,11762652,10482331,11760283,2205,1456,-4080,43,-3765,-1306,-1124,-328,51,40,844
1242557,10479144,11762844,10482528,11760480,1761,1259,-4409,-632,-3797,-1383,-1851,-293,51,40,844
1243558,10479396,11763044,10482725,11760677,1687,1206,-4689,-1301,-3772,-1721,-2488,65,48,40,845
1244559,10479592,11763252,10482922,11760874,2038,1151,-4946,-1851,-3653,-2017,-2708,667,48,40,845
1245560,10479828,11763452,10483119,11761071,1772,1200,-5189,-2325,-3463,-2046,-2307,1071,54,42,844
1246561,10480020,11763632,10483316,11761268,2050,1332,-5423,-2766,-3275,-1899,-1767,1265,54,42,844
1247562,10480228,11763808,10483513,11761465,1945,1366,-5607,-3188,-3109,-1762,-1717,1585,56,27,844
1248563,10480484,11763992,10483710,11761662,1620,1321,-5726,-3527,-2925,-1518,-1372,1964,56,27,844
1249564,10480748,11764140,10483907,11761859,1541,1567,-5858,-3788,-2709,-1490,-871,2578,45,29,843
1250565,10481016,11764244,10484104,11762056,1486,1882,-6021,-3864,-2465,-1788,-684,3425,45,29,843
1251566,10481264,11764384,10484301,11762253,1589,1682,-6161,-3865,-2211,-1911,-555,3758,59,25,841
1252567,10481512,11764532,10484498,11762450,1567,1653,-6242,-3918,-1996,-1425,-90,3759,59,25,841
1253568,10481752,11764688,10484695,11762647,1599,1621,-6300,-3976,-1814,-594,139,4100,41,24,845
1254569,10482052,11764852,10484892,11762844,1179,1585,-6315,-3946,-1638,-179,-89,4475,41,24,845
1255570,10482304,11764980,10485089,11763041,1455,1839,-6316,-3816,-1480,-314,-487,5210,46,24,843
1256571,10482584,11765088,10485286,11763238,1244,2004,-6294,-3514,-1355,-642,-977,5881,46,24,843
1257572,10482912,11765208,10485483,11763435,887,1962,-6271,-3260,-1267,-468,-1077,6048,50,30,844
1258573,10483188,11765316,10485680,11763632,1178,2075,-6221,-3079,-1243,361,-794,5817,50,30,844
1259574,10483468,11765456,10485877,11763829,1117,1901,-6120,-3003,-1265,1053,-871,5660,60,19,845
1260575,10483744,11765572,10486074,11764026,1107,2086,-4089,149,-1426,6027,-2370,31548,60,19,845
1261576,10484016,11765656,10486271,11764223,1100,2335,523,8743,-1992,11055,-3309,32767,66,18,843
1262577,10484324,11765784,10486468,11764420,827,2090,3051,11673,-2372,2583,-748,4477,66,18,843
1263578,10484592,11765916,10486665,11764617,1046,2094,3181,9792,-2494,2215,-250,535,49,32,843
1264579,10484844,11766060,10486862,11764814,1122,2042,2550,6126,-2417,3229,-1384,-1377,49,32,843
1265580,10485144,11766184,10487059,11765011,777,2198,2103,3639,-2138,3511,-2602,-167,68,21,843
1266581,10485388,11766304,10487256,11765208,1107,2257,2054,1919,-1858,2675,-2351,-456,68,21,843
1267582,10485792,11766452,10487453,11765405,16,2103,1834,569,-1668,2965,-2968,596,59,32,844
1268584,10486040,11766584,10487650,11765602,969,2232,1492,-629,-1653,3010,-1740,616,59,32,844
1269584,10486268,11766692,10487847,11765799,1081,2420,1155,-2062,-1768,2250,-966,742,67,33,844
1270585,10486512,11766848,10488044,11765996,961,2138,790,-3132,-1953,1877,-2092,2233,67,33,844
1271586,10486768,11766968,10488241,11766193,860,2397,400,-3717,-2112,1275,-2348,3578,64,34,842
1272587,10487008,11767088,10488438,11766390,942,2431,22,-3761,-2219,1184,-1901,4720,64,34,842
1273588,10487212,11767192,10488635,11766587,1164,2572,-267,-3729,-2405,1528,-1103,4634,57,34,842
1274589,10487416,11767332,10488832,11766784,1161,2372,-445,-3735,-2613,897,-642,5113,57,34,842
1275590,10487688,11767460,10489029,11766981,703,2477,-485,-3576,-2811,355,-398,5264,36,22,844
1276591,10487936,11767576,10489226,11767178,831,2588,-409,-3604,-3037,140,100,4422,36,22,844
1277592,10488212,11767656,10489423,11767375,622,2863,-270,-3604,-3243,-273,271,4863,34,19,842
1278593,10488488,11767756,10489620,11767572,587,2781,-80,-3389,-3391,-675,-14,5243,34,19,842
1279594,10488752,11767856,10489817,11767769,633,2823,187,-3224,-3534,-981,-34,4839,60,30,842
1280595,10488980,11767924,10490014,11767966,845,3080,471,-2829,-3634,-1253,-117,5838,60,30,842
1281605,10489212,11768036,10490244,11768196,819,2857,681,-2195,-3661,-1401,0,6229,38,10,841
1282597,10489492,11768168,10490441,11768393,483,2760,735,-1388,-3693,-1211,393,6670,38,10,841
1283598,10489784,11768280,10490638,11768590,366,2923,784,-687,-3718,-1180,622,5888,62,12,840
1284599,10490084,11768440,10490835,11768787,271,2639,971,-399,-3663,-977,224,4550,62,12,840
1285600,10490388,11768644,10491032,11768984,199,2362,1203,-486,-3517,-848,-81,3822,64,36,839
1286601,10490700,11768840,10491229,11769181,99,2412,1428,-726,-3306,-837,228,3285,64,36,839
1287602,10491036,11769000,10491426,11769378,-112,2654,1589,-1081,-3052,-415,226,2886,64,44,842
1288603,10491272,11769164,10491623,11769575,496,2643,1662,-1386,-2738,69,99,2925,64,44,842
1289604,10491556,11769296,10491820,11769772,158,2872,1549,-1414,-2307,404,-366,3775,51,40,843
1290605,10491812,11769472,10492017,11769969,307,2606,1419,-1582,-1895,643,-305,2530,51,40,843
1291606,10492052,11769648,10492214,11770166,388,2615,1327,-1992,-1607,879,-81,2214,45,35,844
1292607,10492268,11769800,10492411,11770363,529,2785,1217,-2392,-1361,1392,-199,2402,45,35,844
