"Data file recorded 2014/9/22  15:28:36"
"%  Right Stride Frequency         = 3.0"
"%  Left Stride Frequency         = 3.0"
"%  Phase (Fractional)         = 32768.0"
"%  Experiment.py "
"%  Motor Gains    = [1800, 200, 100, 0, 0, 1800, 200, 100, 0, 0]
"% Columns: "
"% time | Right Leg Pos | Left Leg Pos | Commanded Right Leg Pos | Commanded Left Leg Pos | DCR | DCL | GyroX | GryoY | GryoZ | AX | AY | AZ | RBEMF | LBEMF | VBatt "
11931,1880,-33416,16988,-15780,3800,3800,-3,131,238,547,-557,4062,-11,-8,921
12925,1868,-33424,17185,-15583,3800,3800,-3,132,237,549,-568,4063,-11,-8,921
13926,1880,-33424,17382,-15386,3800,3800,-4,126,238,538,-565,4020,11,32,882
14927,2012,-33292,17579,-15189,3800,3800,-5,122,238,534,-577,4023,11,32,882
15928,2268,-33008,17776,-14992,3800,3800,-4,128,241,560,-600,4006,37,41,879
16929,2584,-32684,17973,-14795,3800,3800,3,62,244,692,-305,3848,37,41,879
17930,2948,-32368,18170,-14598,3800,3800,32,-23,226,902,80,3665,62,58,881
18931,3308,-31996,18367,-14401,3800,3800,70,-137,187,1071,282,3654,62,58,881
19932,3768,-31544,18564,-14204,3800,3800,115,-246,159,1250,352,3613,91,74,882
20933,4264,-31104,18761,-14007,3800,3800,122,-347,147,1486,401,3885,91,74,882
21934,4832,-30632,18958,-13810,3800,3800,106,-289,114,1565,874,4088,113,83,884
22922,5404,-30148,19155,-13613,3729,3800,69,-101,70,1132,466,4463,113,83,884
23923,6020,-29660,19352,-13416,3273,3800,-51,333,123,640,-1398,5274,118,91,884
24924,6648,-29268,19549,-13219,3011,3800,-220,907,249,619,-2040,5290,118,91,884
25925,7308,-28768,19746,-13022,2610,3800,-293,1191,299,773,-1468,3792,126,89,887
26926,8044,-28212,19943,-12825,1901,3800,-203,1061,229,1068,-954,2638,126,89,887
27927,8704,-27732,20140,-12628,2174,3800,-72,631,84,1432,-1028,2151,119,99,891
28928,9396,-27252,20337,-12431,1760,3800,84,229,-81,1785,-1072,2135,119,99,891
30930,10696,-26420,20731,-12037,1290,3800,175,116,-206,2633,-1335,3252,125,93,893
31931,11216,-26028,20928,-11840,2300,3800,126,305,-160,3080,-1086,3408,111,85,893
32932,11816,-25576,21125,-11643,1624,3800,110,429,-135,3364,-459,3173,111,85,893
33933,12380,-25252,21322,-11446,1690,3800,124,520,-201,3375,-63,3135,105,77,891
34934,12840,-24928,21519,-11249,2227,3800,184,493,-387,2975,358,2543,105,77,891
35935,13308,-24612,21716,-11052,2059,3800,254,392,-714,2456,571,2444,98,70,892
36936,13816,-24324,21913,-10855,1674,3800,298,567,-1075,2079,-138,3352,98,70,892
37937,14196,-24092,22110,-10658,2395,3800,236,1134,-1364,1602,-1004,4352,81,61,889
39939,15044,-23732,22504,-10264,1824,3800,47,3041,-1544,1016,-2057,5701,94,48,888
40940,15416,-23500,22701,-10067,2173,3800,-11,4092,-1560,889,-2037,5598,94,48,888
41941,15704,-23216,22898,-9870,2660,3800,-48,4990,-1592,637,-1904,4973,64,65,890
42942,15944,-22932,23095,-9673,2942,3800,-17,5740,-1690,366,-1606,4290,64,65,890
43943,16208,-22652,23292,-9476,2764,3800,30,6061,-1866,331,-1016,3362,74,50,888
44944,16520,-22404,23489,-9279,2415,3800,59,6219,-1981,744,-1103,3128,74,50,888
45945,16816,-22184,23686,-9082,2473,3800,61,6196,-1985,1077,-1265,2620,79,49,886
46946,17068,-22004,23883,-8885,2724,3800,92,5979,-1906,1332,-1412,2232,79,49,886
47947,17320,-21844,24080,-8688,2702,3800,157,5853,-1738,1404,-1316,2710,69,44,886
48948,17544,-21664,24277,-8491,2866,3800,210,5711,-1545,983,-930,2608,69,44,886
49949,17772,-21484,24474,-8294,2829,3800,301,5395,-1364,702,-1116,2122,49,42,885
50950,17968,-21348,24671,-8097,3030,3800,426,5049,-1192,415,-732,2415,49,42,885
51951,18184,-21220,24868,-7900,2899,3800,540,4656,-1030,313,-32,2677,46,31,883
52952,18372,-21108,25065,-7703,3079,3800,653,4422,-886,517,217,3524,46,31,883
53953,18556,-20996,25262,-7506,3110,3800,1122,4704,-700,143,31,7262,36,33,882
54954,18760,-20912,25459,-7309,2983,3800,2715,7833,-261,-911,-1006,31868,36,33,882
55955,18956,-20812,25656,-7112,3036,3800,4227,10282,50,-114,529,11978,55,18,881
56956,19140,-20704,25853,-6915,3118,3800,4530,10302,111,174,1429,3695,55,18,881
57957,19320,-20576,26050,-6718,3151,3800,4257,9370,138,420,1456,3444,49,28,881
58958,19544,-20432,26247,-6521,2866,3800,3900,8657,295,919,1106,4557,49,28,881
59959,19720,-20236,26444,-6324,3176,3800,3574,8800,616,898,858,5830,41,37,879
60960,19920,-20100,26641,-6127,3026,3800,2977,9388,1116,940,733,7064,41,37,879
61961,20124,-19920,26838,-5930,2999,3800,2440,9717,1405,-28,1397,5100,43,48,882
62962,20304,-19764,27035,-5733,3158,3800,2189,9281,1480,-1214,1123,3875,43,48,882
63963,20508,-19568,27232,-5536,3006,3800,2182,8594,1573,-1713,548,3908,37,33,883
64964,20704,-19388,27429,-5339,3058,3800,2241,8032,1787,-2214,-480,4277,37,33,883
65965,20916,-19136,27626,-5142,2953,3800,2274,7688,2091,-2871,-1030,4502,38,53,883
66966,21116,-18916,27823,-4945,3028,3800,2130,7522,2461,-3179,-1101,5316,38,53,883
67967,21304,-18708,28020,-4748,3108,3800,1982,7567,2867,-3544,-1148,5633,54,51,883
68968,21480,-18452,28217,-4551,3193,3800,1849,7495,3215,-4041,-1107,5384,54,51,883
69969,21648,-18228,28414,-4354,3258,3800,1751,7291,3452,-4332,-944,4905,50,50,881
70970,21812,-17992,28611,-4157,3298,3800,1650,6793,3615,-4520,-855,4241,50,50,881
71971,21952,-17724,28808,-3960,3474,3800,1650,6172,3640,-4694,-416,4261,24,41,881
72972,22080,-17496,29005,-3763,3582,3800,1767,5375,3459,-4773,-325,4303,24,41,881
73973,22232,-17272,29202,-3566,3452,3800,1861,4464,3119,-4250,5,4666,30,62,880
74975,22376,-17016,29399,-3369,3527,3800,1991,3350,2814,-3337,187,4539,30,62,880
75976,22536,-16740,29596,-3172,3445,3800,2089,2034,2618,-2845,120,3643,32,49,879
76977,22700,-16396,29793,-2975,3436,3800,2119,678,2400,-2750,601,2892,32,49,879
77977,22844,-16072,29990,-2778,3585,3800,2072,-665,2165,-2341,1349,2860,47,73,879
78978,22980,-15736,30187,-2581,3664,3800,2000,-1784,1920,-1928,1829,3283,47,73,879
79980,23120,-15336,30384,-2384,3665,3800,1969,-2610,1695,-1271,1790,3789,40,76,879
80993,23236,-14920,30581,-2187,3800,3800,1971,-3086,1438,-929,1639,4446,40,76,879
81982,23356,-14408,30778,-1990,3800,3680,1992,-3391,1096,-740,2032,4500,21,89,878
82995,23488,-14048,30975,-1793,3800,3800,2015,-3670,728,-421,2262,4347,21,89,878
83983,23632,-13704,31172,-1596,3767,3800,2029,-4093,378,-125,2297,4197,30,76,878
84984,23824,-13292,31369,-1399,3470,3800,1989,-4377,26,199,2344,4861,30,76,878
85985,24060,-12904,31566,-1202,3179,3800,1932,-4501,-289,437,2196,5030,37,89,879
86974,24324,-12352,31763,-1005,2977,2971,1876,-4657,-561,480,2026,4447,37,89,879
87975,24584,-11760,31960,-808,2975,2549,1794,-4876,-766,248,1359,4422,71,107,885
88976,24880,-11104,32157,-611,2708,1950,1679,-5035,-881,-112,695,4818,71,107,885
89977,25168,-10452,32354,-414,2719,1777,1531,-4906,-938,-90,407,5350,61,127,894
90978,25416,-9796,32551,-217,2948,1552,1393,-4665,-951,246,618,5139,61,127,894
91979,25648,-9168,32748,-20,3035,1540,1302,-4446,-991,199,616,5206,67,125,899
92980,25916,-8468,32945,177,2779,871,1253,-4164,-1133,13,745,5180,67,125,899
93988,26160,-7880,33372,604,3012,1501,1267,-4078,-1331,132,825,4226,65,112,899
94982,26412,-7312,33569,801,2939,1465,1253,-3934,-1518,659,805,4567,65,112,899
95983,26676,-6736,33766,998,2835,1249,1167,-3672,-1590,1097,812,4809,60,119,900
96984,26892,-6228,33963,1195,3129,1540,1026,-3478,-1543,1377,926,4304,60,119,900
97985,27116,-5672,34160,1392,3068,1083,834,-3269,-1440,1395,1129,4265,61,117,901
98986,27340,-5124,34357,1589,3057,981,677,-3049,-1378,1061,1385,4014,61,117,901
99987,27556,-4648,34554,1786,3101,1309,583,-2847,-1403,933,1683,3625,57,99,899
100988,27780,-4148,34751,1983,3040,1027,534,-2724,-1479,854,1906,3192,57,99,899
101989,28012,-3724,34948,2180,2976,1403,550,-2713,-1534,767,1751,2786,49,88,898
102990,28220,-3416,35145,2377,3123,2080,596,-2745,-1542,874,1560,2492,49,88,898
103991,28452,-3028,35342,2574,2958,1498,668,-2750,-1512,884,1581,2334,62,69,898
104992,28696,-2704,35539,2771,2864,1844,722,-2641,-1441,846,1518,2671,62,69,898
105992,28924,-2424,35736,2968,2952,2083,748,-2336,-1359,792,1288,2854,58,72,898
106993,29124,-2120,35933,3165,3127,1887,756,-1914,-1316,660,1282,3206,58,72,898
107995,29344,-1832,36130,3362,2993,1948,756,-1309,-1326,664,1551,3584,52,60,895
108996,29540,-1580,36327,3559,3144,2150,735,-600,-1346,991,1481,3720,52,60,895
109997,29740,-1320,36524,3756,3120,2073,716,131,-1321,1132,1413,3347,48,52,895
110997,29940,-1116,36721,3953,3119,2421,734,606,-1283,1158,1461,2432,48,52,895
111999,30124,-940,36918,4150,3226,2606,783,867,-1318,1383,1456,1627,29,39,893
113000,30292,-792,37115,4347,3341,2804,853,1000,-1395,1397,1460,1282,29,39,893
114001,30488,-648,37312,4544,3167,2853,925,1105,-1470,1390,1363,1152,49,41,889
115001,30696,-516,37509,4741,3088,2958,965,1389,-1518,1694,1335,1626,49,41,889
116003,30904,-416,37706,4938,3086,3201,944,1900,-1524,1773,1265,2240,35,33,888
117003,31132,-340,37903,5135,2948,3406,836,2567,-1500,1713,1022,2838,35,33,888
118005,31376,-264,38100,5332,2828,3460,644,3348,-1547,1406,406,3017,55,11,885
119005,31600,-196,38297,5529,2943,3567,440,4115,-1700,922,-323,2866,55,11,885
120007,31820,-144,38494,5726,2959,3732,246,4756,-1947,594,-595,2401,57,18,885
121008,32048,-76,38691,5923,2897,3690,82,5129,-2260,347,-604,1696,57,18,885
122009,32244,0,38888,6120,3098,3694,-31,5429,-2578,-19,-699,1684,40,24,883
123009,32460,92,39085,6317,2966,3641,-96,5691,-2860,-528,-727,1419,40,24,883
124011,32696,204,39282,6514,2826,3554,-140,5733,-3146,-751,-684,938,48,16,880
125012,32908,300,39479,6711,2970,3701,-232,5842,-3376,-759,-967,1245,48,16,880
126013,33100,404,39676,6908,3098,3693,-345,5884,-3515,-871,-1226,949,52,25,883
127014,33332,524,39873,7105,2835,3628,-451,5693,-3614,-1009,-1390,530,52,25,883
128028,33544,620,40070,7302,2954,3800,-528,5390,-3657,-1163,-1713,458,46,34,881
129015,33744,752,40267,7499,3029,3628,-566,5005,-3642,-1189,-1941,169,46,34,881
130017,33944,880,40464,7696,3029,3685,-571,4426,-3627,-1210,-1758,-293,51,23,882
131017,34132,1020,40661,7893,3109,3636,-568,3670,-3555,-1365,-1693,-434,51,23,882
132019,34328,1188,40858,8090,3061,3475,-586,2954,-3391,-1350,-1621,-224,38,26,882
133019,34516,1340,41055,8287,3116,3596,-592,2169,-3126,-1386,-1464,-443,38,26,882
134033,34696,1460,41252,8484,3175,3800,-656,1346,-2821,-1386,-1344,-55,50,26,884
135021,34876,1616,41449,8681,3183,3625,-793,708,-2495,-1376,-1141,680,50,26,884
136023,35064,1776,41646,8878,3139,3618,-960,91,-2152,-1616,-958,782,45,38,879
137024,35288,1948,41843,9075,2903,3555,-1173,-370,-1811,-1786,-688,1477,45,38,879
138025,35484,2128,42040,9272,3080,3515,-1394,-816,-1482,-1883,-458,1524,31,31,882
139025,35696,2308,42237,9469,2974,3523,-1623,-1253,-1171,-1924,-609,1849,31,31,882
140027,35888,2492,42434,9666,3103,3505,-1858,-1632,-879,-1996,-813,2122,45,41,884
141028,36088,2668,42631,9863,3053,3566,-2082,-2088,-599,-2100,-730,2230,45,41,884
142029,36320,2844,42828,10060,2838,3577,-2336,-2382,-335,-1991,-450,3059,36,49,884
143030,36524,3060,43025,10257,3011,3319,-2568,-2567,-92,-1971,18,3237,36,49,884
144031,36772,3268,43222,10454,2716,3366,-2806,-2828,123,-1851,164,3263,60,38,885
145032,37016,3456,43419,10651,2721,3496,-3081,-3063,313,-1667,610,3685,60,38,885
146033,37268,3640,43616,10848,2648,3528,-3354,-3284,499,-1591,774,3812,60,45,886
147034,37524,3840,43813,11045,2598,3429,-3631,-3490,668,-1501,831,4050,60,45,886
148035,37768,4056,44010,11242,2655,3321,-3892,-3700,829,-1449,915,4219,54,44,885
149036,38012,4280,44207,11439,2635,3262,-4116,-3924,965,-1476,1443,4258,54,44,885
150037,38292,4488,44404,11636,2374,3358,-4300,-4236,1042,-1431,1806,4147,48,54,888
151037,38556,4744,44601,11833,2446,3033,-4427,-4636,1046,-1432,2103,4081,48,54,888
152039,38836,4980,44798,12030,2311,3143,-4552,-5042,997,-1228,2208,4274,62,67,890
153040,39084,5244,44995,12227,2489,2939,-4658,-5540,963,-920,1940,4001,62,67,890
154040,39360,5488,45192,12424,2280,3045,-4712,-6091,979,-658,1830,4052,64,62,892
155042,39632,5736,45389,12621,2274,2999,-4732,-6518,994,-626,1823,4977,64,62,892
156042,39888,5980,45586,12818,2350,3004,-4716,-6795,956,-598,1910,5238,60,59,892
157044,40164,6196,45783,13015,2191,3172,-3825,-7734,780,661,1546,9219,60,59,892
158045,40472,6416,45980,13212,1943,3139,-545,-9981,169,4155,451,28273,43,50,892
159046,40748,6680,46177,13409,2109,2836,1718,-10749,-209,1151,562,13703,43,50,892
160047,41048,6888,46374,13606,1915,3182,1742,-10134,-182,-515,865,8621,61,55,893
161048,41380,7092,46571,13803,1657,3205,892,-8708,-41,-372,996,9475,61,55,893
162049,41676,7332,46768,14000,1839,2963,314,-7536,46,-720,1699,8470,52,41,894
163049,41964,7560,46965,14197,1850,3025,147,-6963,-38,-1073,2184,7428,52,41,894
164051,42288,7784,47162,14394,1570,3039,118,-6340,-215,-1444,1778,7699,64,50,894
165052,42592,8052,47359,14591,1649,2735,83,-5952,-247,-1568,845,6916,64,50,894
166053,42888,8288,47556,14788,1657,2919,-10,-5443,-114,-924,121,7057,49,46,896
167053,43228,8516,47753,14985,1320,2956,-103,-4989,112,-941,-131,6100,49,46,896
168055,43528,8772,47950,15182,1525,2756,-107,-4941,371,-1077,-271,5098,53,59,897
169056,43856,8984,48147,15379,1293,3026,-68,-4980,644,-716,-680,4727,53,59,897
170057,44184,9236,48344,15576,1237,2754,33,-5312,980,-835,-931,3607,52,59,897
171058,44456,9492,48541,15773,1555,2704,126,-5593,1376,-717,-1235,3997,52,59,897
172058,44760,9716,48738,15970,1309,2893,188,-5799,1754,-441,-1487,3719,53,43,897
173060,45064,9924,48935,16167,1262,2989,240,-6127,2132,-275,-1531,3230,53,43,897
174061,45364,10132,49132,16364,1242,2985,242,-6223,2497,-60,-1792,3967,74,38,899
175062,45628,10328,49329,16561,1439,3063,193,-6315,2839,193,-1960,3659,74,38,899
176063,45936,10540,49526,16758,1116,2957,99,-6318,3192,582,-2137,4237,59,35,898
177071,46276,10756,49756,16988,868,2939,-2,-6017,3569,979,-2283,4622,59,35,898
178065,46584,10940,49953,17185,1020,3146,-63,-5774,3919,1183,-1955,4249,75,41,897
179065,46896,11128,50150,17382,945,3126,-89,-5466,4180,1062,-1531,4480,75,41,897
180067,47188,11308,50347,17579,1029,3185,-68,-5217,4350,874,-1174,4133,64,33,899
181068,47456,11504,50544,17776,1149,3087,-49,-4967,4467,915,-1056,4497,64,33,899
182069,47716,11676,50741,17973,1171,3249,-105,-4383,4557,773,-1521,5540,66,34,898
183069,47992,11836,50938,18170,1037,3341,-175,-3638,4601,502,-2015,5654,66,34,898
184071,48200,11992,51135,18367,1458,3385,-228,-2876,4575,519,-2265,5673,59,31,897
185072,48404,12160,51332,18564,1480,3325,-269,-2213,4515,624,-2215,5483,59,31,897
186073,48652,12304,51529,18761,1184,3499,-299,-1661,4456,751,-2169,5216,49,43,893
187074,48844,12484,51726,18958,1536,3283,-361,-1094,4386,987,-2065,5253,49,43,893
188075,49020,12656,51923,19155,1646,3345,-370,-748,4279,986,-1833,4433,32,37,894
189076,49180,12856,52120,19352,1762,3170,-377,-561,4113,1127,-1644,4144,32,37,894
190077,49344,13044,52317,19549,1753,3250,-375,-400,3884,1462,-1803,3876,41,37,895
191078,49520,13244,52514,19746,1687,3175,-388,-411,3629,1679,-2057,3474,41,37,895
192079,49688,13436,52711,19943,1751,3228,-369,-446,3361,1969,-1953,3215,36,44,894
193080,49824,13628,52908,20140,1979,3231,-330,-662,3116,2140,-2053,2659,36,44,894
194081,49936,13812,53105,20337,2166,3289,-292,-871,2933,2331,-2310,2910,35,30,894
195081,50048,14000,53302,20534,2204,3269,-263,-1058,2846,2516,-2565,2801,35,30,894
196082,50152,14184,53499,20731,2295,3301,-250,-1279,2719,3149,-3246,2493,29,32,892
197083,50228,14360,53696,20928,2525,3361,-482,-1146,1950,5535,-10071,1387,29,32,892
198084,50324,14564,53893,21125,2445,3185,-721,-1001,1366,1743,-8968,1508,30,45,890
199085,50416,14748,54090,21322,2516,3316,-727,-1151,1255,2263,-2376,2590,30,45,890
200086,50520,14928,54287,21519,2483,3350,-603,-1427,1318,2415,-1675,2640,29,48,888
201087,50616,15108,54484,21716,2578,3358,-472,-1714,1377,2095,-1549,2781,29,48,888
202088,50772,15292,54681,21913,2221,3341,-413,-1741,1357,2105,-1584,3159,36,44,887
203089,50912,15544,54878,22110,2347,2893,-398,-1702,1348,1631,-1655,3481,36,44,887
204090,51052,15792,55075,22307,2373,2897,-374,-1389,1426,1023,-1844,4275,45,55,887
205091,51216,16036,55272,22504,2239,2902,-270,-1071,1526,488,-1912,3936,45,55,887
206093,51356,16256,55469,22701,2415,3044,-151,-736,1595,-9,-1546,4475,30,54,893
207094,51508,16452,55666,22898,2360,3195,-133,51,1686,-377,-1776,5832,30,54,893
208095,51652,16700,55863,23095,2434,2849,-152,780,1791,-757,-1974,5114,25,40,894
209096,51812,16980,56060,23292,2351,2613,-122,1370,1859,-940,-1691,4850,25,40,894
210097,51948,17232,56257,23489,2529,2766,-52,1941,1901,-1043,-1422,4885,37,46,891
211098,52140,17440,56454,23686,2182,3037,31,2408,1951,-1103,-1685,4450,37,46,891
212099,52344,17664,56651,23883,2104,2926,100,2834,2036,-1306,-1894,4417,31,53,895
213100,52548,17884,56848,24080,2102,2942,186,3169,2146,-1493,-1616,4130,31,53,895
214101,52764,18144,57045,24277,2020,2666,272,3451,2237,-1139,-1149,4014,55,48,892
215102,52948,18364,57242,24474,2227,2907,366,3683,2246,-834,-213,3458,55,48,892
216103,53120,18576,57439,24671,2313,2952,522,3549,2231,-749,-191,2557,48,42,895
217104,53328,18764,57636,24868,2084,3107,707,3215,2190,-381,-193,2052,48,42,895
218105,53564,18948,57833,25065,1893,3139,873,2819,2183,-59,-175,1804,58,51,893
219106,53800,19124,58030,25262,1876,3199,998,2434,2195,90,-96,1862,58,51,893
220107,54048,19316,58227,25459,1780,3102,1079,2093,2181,42,-87,2087,50,47,893
221107,54268,19544,58424,25656,1946,2864,1168,1738,2141,-123,76,1832,50,47,893
222109,54500,19768,58621,25853,1855,2880,1268,1415,2062,50,205,1981,41,52,894
223110,54724,20000,58818,26050,1895,2815,1382,1072,1951,398,233,1868,41,52,894
224111,54964,20220,59015,26247,1777,2881,1531,724,1855,571,255,1850,42,42,894
225112,55196,20460,59212,26444,1812,2738,1679,433,1791,584,237,2187,42,42,894
226113,55416,20672,59409,26641,1878,2908,1783,320,1701,361,545,2593,47,58,896
227114,55608,20944,59606,26838,2055,2501,1837,284,1533,236,852,2846,47,58,896
228115,55808,21232,59803,27035,2005,2363,1880,225,1271,501,1081,2604,31,46,898
229115,56024,21496,60000,27232,1898,2484,1919,138,985,989,1047,2542,31,46,898
230117,56244,21764,60197,27429,1864,2429,1935,161,770,1250,732,2966,41,58,898
231117,56444,22056,60394,27626,1987,2238,1932,333,612,894,354,3401,41,58,898
232119,56628,22384,60591,27823,2094,1957,1894,687,474,414,76,3891,38,54,899
233120,56816,22684,60788,28020,2074,2087,1851,991,320,583,277,3431,38,54,899
234121,56968,22968,60985,28217,2320,2150,1821,1046,105,1128,761,2678,42,56,900
235122,57152,23228,61182,28414,2125,2274,1802,942,-132,1444,600,2449,42,56,900
236123,57332,23564,61379,28611,2159,1738,1802,789,-336,1529,212,2118,32,64,899
237124,57544,23852,61576,28808,1953,1999,1784,656,-475,1641,-143,2228,32,64,899
238125,57748,24132,61773,29005,2001,2014,1760,595,-571,1419,-2,2210,43,50,899
239126,57912,24396,61970,29202,2266,2086,1730,446,-637,1238,209,1931,43,50,899
240127,58076,24620,62167,29399,2281,2325,1709,250,-718,1426,350,1725,41,54,901
241128,58212,24824,62364,29596,2484,2448,1705,-60,-788,1667,389,1353,41,54,901
242129,58360,25096,62561,29793,2432,1990,1710,-382,-843,1908,363,1428,40,55,899
243129,58516,25336,62758,29990,2401,2172,1693,-645,-910,1888,464,1644,40,55,899
244131,58688,25580,62955,30187,2312,2127,1665,-791,-966,1693,490,1895,22,55,895
245131,58912,25784,63152,30384,1976,2375,1609,-802,-983,1741,518,2247,22,55,895
246132,59136,25984,63349,30581,1965,2400,1538,-767,-981,1747,621,2295,53,52,896
247133,59320,26200,63546,30778,2222,2292,1463,-741,-961,1585,623,2436,53,52,896
248135,59492,26432,63743,30975,2309,2178,1370,-620,-950,1506,762,2900,29,51,897
249136,59664,26708,63940,31172,2320,1869,1274,-471,-981,1516,923,2852,29,51,897
250136,59836,26996,64137,31369,2332,1754,1175,-216,-1018,1918,1047,3149,45,45,897
251137,60044,27256,64334,31566,2103,1903,1025,191,-1054,2052,1197,3633,45,45,897
252138,60244,27540,64531,31763,2152,1715,797,593,-1145,1862,1358,3900,36,48,900
253139,60520,27848,64728,31960,1644,1518,535,1115,-1274,1458,1297,4211,36,48,900
254140,60768,28164,64925,32157,1797,1416,293,1601,-1374,1204,1269,4033,45,58,902
255142,61000,28480,65122,32354,1882,1364,95,1898,-1459,1220,1388,3390,45,58,902
256143,61204,28788,65319,32551,2055,1366,-75,1926,-1506,1594,1298,2667,51,68,906
257144,61428,29032,65516,32748,1919,1747,-188,1808,-1482,2062,1096,2294,51,68,906
258145,61648,29400,65713,32945,1935,897,-238,1579,-1421,1815,693,2038,61,68,904
259146,61912,29700,65910,33142,1630,1277,-284,1430,-1357,1312,386,2629,61,68,904
260156,62164,30000,66140,33372,1697,1247,-439,1686,-1287,897,99,4189,50,58,903
261147,62436,30240,66337,33569,1540,1604,-665,2090,-1230,835,393,4161,50,58,903
262148,62688,30500,66534,33766,1642,1452,-896,2357,-1200,1140,486,3771,61,57,907
263149,62940,30796,66731,33963,1617,1184,-1148,2563,-1214,1475,691,3905,61,57,907
264151,63224,31116,66928,34160,1380,980,-1444,2756,-1272,1365,760,4209,44,59,906
265152,63456,31376,67125,34357,1691,1329,-1798,3063,-1331,1012,182,4671,44,59,906
266152,63712,31632,67322,34554,1516,1329,-2176,3442,-1321,604,-446,4879,45,47,907
267153,63952,31884,67519,34751,1597,1329,-2505,3744,-1242,419,-585,4702,45,47,907
268154,64172,32148,67716,34948,1713,1226,-2789,4012,-1199,392,-531,4698,39,51,906
269155,64428,32444,67913,35145,1463,982,-3050,4165,-1219,398,-467,4326,39,51,906
270156,64692,32664,68110,35342,1384,1448,-3365,4200,-1213,444,-894,4403,58,46,906
271158,64964,32844,68307,35539,1302,1706,-3744,4290,-1126,392,-1258,4577,58,46,906
272159,65164,33040,68504,35736,1751,1607,-3994,4115,-1060,79,-885,3482,50,43,909
273160,65396,33176,68701,35933,1536,2009,-4130,3759,-1021,224,-902,3564,50,43,909
274161,65652,33312,68898,36130,1361,2037,-4254,3396,-949,391,-1218,3703,55,28,907
275162,65876,33516,69095,36327,1549,1609,-4390,3081,-822,396,-1305,3973,55,28,907
276163,66120,33696,69292,36524,1404,1767,-4534,2937,-681,222,-1346,4454,51,30,904
277164,66352,33832,69489,36721,1465,2069,-4626,2750,-554,-107,-1347,4263,51,30,904
278165,66576,33980,69686,36918,1503,2017,-4665,2462,-451,-236,-1268,4095,46,34,906
279166,66804,34108,69883,37115,1466,2173,-4666,2116,-377,-275,-1177,4080,46,34,906
280167,67036,34252,70080,37312,1425,2096,-4642,1686,-329,-400,-1041,3982,53,25,903
281168,67288,34384,70277,37509,1277,2201,-4405,1434,-312,-141,-1138,6034,53,25,903
282169,67548,34492,70474,37706,1200,2390,-2207,5107,-466,3327,-2032,32767,36,24,902
283170,67732,34608,70671,37903,1681,2376,288,8592,-728,1829,-1983,22753,36,24,902
284170,67956,34736,70868,38100,1420,2332,1106,8870,-907,-25,-977,2818,50,25,903
285171,68216,34892,71065,38297,1168,2176,769,7058,-998,325,-515,1949,50,25,903
286172,68448,35052,71262,38494,1328,2168,410,5128,-1069,729,-601,1281,58,37,900
287173,68672,35196,71459,38691,1366,2291,278,3846,-1135,900,-616,1915,58,37,900
288175,68936,35344,71656,38888,1088,2289,275,2797,-1173,906,-807,1387,59,26,904
289175,69232,35512,71853,39085,844,2178,196,1777,-1284,1446,-651,1735,59,26,904
290177,69464,35648,72050,39282,1230,2404,122,577,-1474,1350,-527,1258,39,37,901
291177,69720,35812,72247,39479,1054,2245,25,-750,-1704,1251,-512,1410,39,37,901
292179,70012,35940,72444,39676,788,2501,-66,-1813,-1981,1558,-541,2147,49,33,904
293179,70260,36064,72641,39873,1041,2559,-178,-2784,-2267,1466,-331,2108,49,33,904
294181,70488,36208,72838,40070,1153,2458,-265,-3523,-2538,1594,-300,2878,54,43,904
295181,70760,36364,73035,40267,845,2402,-344,-4086,-2799,1838,-443,3075,54,43,904
296183,70992,36568,73232,40464,1081,2100,-405,-4564,-2990,1894,-636,3566,59,31,902
297184,71228,36764,73429,40661,1039,2151,-483,-4745,-3113,2168,-757,4415,59,31,902
298184,71452,36904,73626,40858,1102,2526,-527,-4933,-3226,2336,-763,3977,37,20,903
299185,71660,37028,73823,41055,1198,2659,-527,-5096,-3335,2385,-735,4168,37,20,903
300186,71848,37152,74020,41252,1327,2692,-530,-5109,-3433,2234,-782,4566,47,34,905
301187,72056,37320,74217,41449,1198,2431,-563,-5077,-3510,1889,-902,4549,47,34,905
302188,72248,37488,74414,41646,1300,2444,-639,-4794,-3536,1606,-1157,5080,34,34,899
303189,72396,37668,74611,41843,1598,2377,-719,-4457,-3530,1221,-1376,4896,34,34,899
304191,72584,37848,74808,42040,1352,2386,-886,-4077,-3429,993,-2567,5156,45,26,902
305192,72736,38016,75005,42237,1597,2474,-1105,-3616,-3272,779,-2550,4847,45,26,902
306193,72892,38180,75202,42434,1591,2515,-1217,-3445,-3221,576,-1649,3799,35,42,901
307193,73056,38360,75399,42631,1555,2422,-1329,-3277,-3193,540,-2138,3923,35,42,901
308195,73204,38544,75596,42828,1678,2404,-1552,-3007,-3042,231,-2967,4115,33,28,900
309195,73332,38716,75793,43025,1833,2491,-1815,-2746,-2829,2,-2858,3668,33,28,900
310196,73480,38876,75990,43222,1731,2583,-2003,-2622,-2659,-69,-2562,3094,19,42,900
311197,73620,39060,76187,43419,1806,2440,-2159,-2639,-2495,-278,-2835,2656,19,42,900
312199,73744,39260,76384,43616,1939,2339,-2360,-2635,-2283,-267,-3132,2665,38,38,897
313200,73876,39452,76581,43813,1917,2392,-2538,-2739,-2078,-118,-2505,2031,38,38,897
314201,74040,39632,76778,44010,1733,2475,-2664,-2990,-1923,10,-2045,1784,20,37,898
315201,74168,39824,76975,44207,1988,2404,-2780,-3177,-1784,30,-2192,1932,20,37,898
316203,74316,40008,77172,44404,1886,2460,-2866,-3373,-1625,-29,-2329,1870,26,43,899
317203,74484,40196,77369,44601,1773,2440,-2889,-3531,-1454,104,-2263,2099,26,43,899
318204,74620,40380,77566,44798,2001,2471,-2843,-3732,-1303,291,-2205,1865,30,36,898
319205,74760,40584,77763,44995,2001,2344,-2740,-3856,-1101,497,-2436,2271,30,36,898
320207,74916,40756,77960,45192,1920,2556,-2647,-3806,-789,594,-2729,2894,22,42,899
321208,75060,40948,78157,45389,2018,2434,-1782,-2414,-294,883,-4773,14530,22,42,899
322209,75200,41116,78354,45586,2070,2598,347,2059,363,1098,-7443,32767,39,43,898
323209,75368,41324,78551,45783,1908,2344,1659,3915,740,897,-2572,3969,39,43,898
324211,75520,41508,78748,45980,2028,2501,1907,3142,813,984,-1375,154,22,46,897
325211,75676,41680,78945,46177,2022,2587,1701,1238,816,1290,-1581,-895,22,46,897
326213,75852,41844,79142,46374,1906,2652,1668,11,912,1598,-1954,15,28,38,899
327213,76024,42040,79339,46571,1943,2454,1703,-641,1152,1611,-2338,711,28,38,899
328214,76176,42204,79536,46768,2089,2669,1687,-900,1484,1926,-2790,1704,42,46,897
329215,76356,42412,79733,46965,1922,2390,1570,-794,1821,1986,-2817,2913,42,46,897
330216,76524,42612,79930,47162,2010,2440,1475,-801,2097,1616,-2539,2394,45,37,898
331217,76684,42792,80127,47359,2078,2573,1435,-820,2227,1634,-2048,2642,45,37,898
332218,76868,43004,80324,47556,1933,2367,1410,-797,2261,1423,-1746,2722,37,50,899
333219,77028,43176,80521,47753,2101,2629,1386,-722,2274,1134,-1627,3000,37,50,899
334220,77200,43364,80718,47950,2037,2534,1290,-303,2253,1068,-1809,4263,34,30,896
335221,77396,43540,80915,48147,1888,2619,1077,409,2286,641,-2207,5090,34,30,896
336222,77572,43728,81112,48344,2023,2549,917,1256,2390,434,-2386,5191,25,47,894
337224,77720,43900,81309,48541,2221,2661,855,2041,2532,303,-2458,5022,25,47,894
338225,77888,44120,81506,48738,2108,2352,845,2674,2696,35,-2500,4965,30,41,896
339226,78056,44320,81703,48935,2122,2477,863,3382,2864,-196,-2510,5148,30,41,896
340227,78224,44508,81900,49132,2136,2556,932,3882,2995,-402,-2302,4402,30,55,895
341228,78388,44716,82097,49329,2175,2427,1010,4308,3092,-410,-2138,4551,30,55,895
342229,78576,44924,82294,49526,2030,2423,1087,4705,3186,-448,-2051,4408,48,49,896
343236,78776,45112,82524,49756,1970,2567,1164,4938,3305,-520,-2033,3978,48,49,896
344231,78956,45332,82721,49953,2103,2358,1238,5121,3456,-519,-2111,3979,27,41,897
345232,79136,45508,82918,50150,2111,2643,1312,5219,3665,-644,-2141,3653,27,41,897
346233,79320,45732,83115,50347,2092,2333,1395,5249,3901,-690,-2122,3495,44,39,896
347234,79468,45948,83312,50544,2340,2375,1506,5124,4126,-704,-1872,3020,44,39,896
348235,79652,46156,83509,50741,2120,2420,1663,4782,4338,-682,-1639,2621,27,37,896
349236,79808,46376,83706,50938,2314,2336,1804,4460,4529,-708,-1497,2695,27,37,896
350236,79964,46596,83903,51135,2334,2327,1924,4132,4684,-922,-1228,2685,26,44,897
351237,80136,46808,84100,51332,2245,2372,2005,3946,4772,-1160,-874,3276,26,44,897
352239,80308,47060,84297,51529,2256,2098,2032,3931,4774,-1385,-281,3843,26,56,897
353240,80444,47296,84494,51726,2509,2182,2076,3911,4695,-1502,-297,3859,26,56,897
354241,80568,47524,84691,51923,2617,2220,2116,3933,4504,-1514,43,4149,34,47,896
355242,80708,47768,84888,52120,2543,2099,2149,3932,4323,-1575,-10,4257,34,47,896
356243,80820,47984,85085,52317,2757,2267,2177,3966,4168,-1610,63,4326,21,40,895
357244,80940,48236,85282,52514,2741,2018,2246,3988,4048,-1769,10,4299,21,40,895
358245,81052,48444,85479,52711,2829,2290,2380,3884,3930,-1829,185,4104,22,52,895
359245,81156,48668,85676,52908,2921,2179,2551,3745,3762,-1712,350,4318,22,52,895
360247,81292,48916,85873,53105,2749,2007,2756,3628,3540,-1708,721,4297,36,57,896
361248,81396,49140,86070,53302,2991,2146,2962,3480,3267,-1734,973,4400,36,57,896
362249,81500,49356,86267,53499,3032,2188,3128,3377,2955,-1603,1029,4664,39,53,893
363250,81636,49592,86464,53696,2860,2047,3236,3299,2631,-1469,1165,4858,39,53,893
364251,81792,49816,86661,53893,2753,2111,3284,3266,2321,-1290,1332,4910,25,47,892
365252,81964,50064,86858,54090,2665,1939,3323,3146,2033,-1117,1266,4630,25,47,892
366253,82100,50316,87055,54287,2918,1891,3388,2866,1794,-885,1192,4142,41,58,894
367253,82244,50552,87252,54484,2892,1974,3461,2486,1599,-551,1339,3892,41,58,894
368255,82388,50836,87449,54681,2917,1637,3510,2032,1406,-418,1534,3841,35,57,895
369256,82516,51036,87646,54878,3048,2161,3514,1579,1208,-498,1626,3691,35,57,895
370257,82660,51176,87843,55075,2972,2562,3500,1139,1008,-524,1584,3712,42,41,895
371258,82784,51288,88040,55272,3130,2775,3460,765,806,-463,1701,3897,42,41,895
372259,82904,51432,88237,55469,3190,2600,3383,453,625,-361,1819,4095,40,42,892
373259,83036,51596,88434,55666,3145,2489,3288,160,499,-312,1696,4185,40,42,892
374260,83168,51816,88631,55863,3174,2130,3186,-95,449,-307,1445,4362,28,47,887
375261,83280,52020,88828,56060,3338,2228,3083,-273,465,-427,1438,4500,28,47,887
376263,83412,52260,89025,56257,3242,1985,2994,-370,517,-558,1482,4569,37,42,889
377263,83536,52520,89222,56454,3325,1833,2931,-498,582,-648,1520,4527,37,42,889
378265,83640,52720,89419,56651,3492,2207,2882,-636,638,-729,1611,4590,18,54,889
379265,83764,53040,89616,56848,3401,1404,2834,-606,685,-885,1690,4797,18,54,889
380267,83884,53344,89813,57045,3461,1458,2748,-519,722,-971,1904,5190,29,64,891
381267,84020,53620,90010,57242,3389,1598,2578,-147,784,-873,1901,6306,29,64,891
382268,84168,53868,90207,57439,3336,1752,2334,499,894,-697,1932,6714,24,55,893
383269,84308,54148,90404,57636,3412,1516,2055,1134,1013,-661,2071,6379,24,55,893
384271,84444,54420,90601,57833,3465,1534,1729,1733,1034,-821,2206,6621,28,68,893
385271,84588,54736,90798,58030,3440,1207,1374,2313,995,-796,2197,6396,28,68,893
386273,84748,55000,90995,58227,3358,1504,1029,2695,951,-599,2122,5778,30,57,893
387273,84888,55308,91192,58424,3509,1180,718,2979,897,-458,2163,5408,30,57,893
388275,85028,55620,91389,58621,3535,1105,429,3022,835,-301,2336,4683,39,73,894
389275,85160,55940,91586,58818,3614,1002,153,2931,737,22,2612,4098,39,73,894
390277,85308,56252,91783,59015,3537,1002,-91,2690,632,317,2770,3581,46,57,892
391277,85464,56512,91980,59212,3507,1300,-289,2254,570,532,2602,3063,46,57,892
392279,85640,56828,92177,59409,3392,898,-471,1814,536,863,2609,3033,48,62,894
393280,85780,57116,92374,59606,3643,1034,-661,1369,489,1106,2949,3084,48,62,894
394281,85960,57404,92571,59803,3402,994,-869,1005,402,1268,3135,3272,44,59,893
395281,86116,57640,92768,60000,3572,1303,-1055,685,296,1406,3194,3124,44,59,893
396282,86268,57888,92965,60197,3618,1205,-1223,428,153,1410,3257,3418,49,45,892
397283,86412,58140,93162,60394,3692,1156,-1381,294,-26,1217,3219,3773,49,45,892
398284,86596,58380,93359,60591,3449,1213,-1537,237,-279,967,3061,4023,45,42,893
399298,86724,58596,93556,60788,3800,1355,-1683,356,-592,841,2812,4614,45,42,893
400299,86860,58812,93753,60985,3800,1347,-1825,634,-879,832,2597,4874,42,38,891
401287,87004,59012,93950,61182,3783,1446,-1943,915,-1117,883,2576,4794,42,38,891
402302,87140,59184,94147,61379,3800,1633,-2051,1166,-1323,763,2510,4667,22,51,889
403302,87280,59360,94344,61576,3800,1617,-2111,1292,-1523,576,2245,4300,22,51,889
404304,87392,59548,94541,61773,3800,1546,-2129,1382,-1721,609,1656,4074,22,34,890
405304,87516,59748,94738,61970,3800,1471,-2109,1346,-1878,728,1262,3668,22,34,890
406305,87632,59948,94935,62167,3800,1470,-2050,1223,-1972,844,994,3549,27,47,888
407306,87772,60168,95132,62364,3800,1336,-1984,1140,-2032,930,832,3545,27,47,888
408307,87936,60380,95329,62561,3800,1379,-1921,1085,-2060,951,694,3465,44,37,890
409308,88096,60568,95526,62758,3800,1534,-1881,1078,-2070,978,633,3729,44,37,890
410297,88292,60752,95723,62955,3684,1565,-1859,1121,-2102,879,551,3791,39,43,891
411310,88432,60964,95920,63152,3800,1383,-1821,1181,-2171,731,410,3850,39,43,891
412311,88600,61172,96117,63349,3800,1404,-1756,1244,-2267,656,380,3931,25,34,889
413312,88748,61376,96314,63546,3800,1426,-1702,1329,-2374,667,372,3993,25,34,889
414313,88896,61564,96511,63743,3800,1531,-1664,1544,-2485,710,420,4323,25,35,890
415314,89024,61764,96708,63940,3800,1455,-1642,1801,-2593,672,381,4366,25,35,890
416316,89172,61916,96905,64137,3800,1775,-1617,2024,-2717,553,285,4342,19,41,890
417316,89268,62072,97102,64334,3800,1769,-1590,2254,-2869,368,221,4317,19,41,890
418317,89384,62280,97299,64531,3800,1439,-1519,2332,-3053,81,243,3862,14,47,889
419318,89520,62496,97496,64728,3800,1381,-1420,2295,-3276,-50,321,3535,14,47,889
420319,89632,62688,97693,64925,3800,1534,-1295,2152,-3505,-294,382,3176,28,40,888
421320,89776,62892,97890,65122,3800,1456,-1161,1895,-3695,-497,158,3016,28,40,888
422321,89932,63076,98087,65319,3800,1587,-1049,1718,-3831,-667,-392,3319,34,34,889
423322,90064,63264,98284,65516,3800,1566,-962,1599,-3894,-918,-850,3318,34,34,889
424323,90236,63440,98481,65713,3800,1651,-884,1400,-3859,-1070,-1267,3238,37,49,888
425324,90408,63604,98678,65910,3800,1741,-805,1183,-3784,-1239,-1164,3080,37,49,888
426332,90600,63768,98908,66140,3800,1771,-695,855,-3702,-1481,-916,2860,40,48,889
427326,90764,63936,99105,66337,3800,1759,-595,535,-3603,-1447,-1023,3007,40,48,889
428327,90932,64100,99302,66534,3800,1799,-525,302,-3443,-1376,-1295,3317,47,38,889
429328,91132,64260,99499,66731,3800,1840,-498,189,-3228,-1512,-1448,3830,47,38,889
430329,91320,64392,99696,66928,3800,2045,-493,199,-2979,-1587,-1604,4177,39,28,888
431330,91528,64508,99893,67125,3800,2181,-483,163,-2706,-1572,-1616,4068,39,28,888
432331,91720,64616,100090,67322,3800,2271,-472,166,-2404,-1476,-1426,4256,40,28,888
433332,91916,64732,100287,67519,3800,2256,-460,150,-2103,-1398,-1236,4113,40,28,888
434333,92108,64872,100484,67716,3800,2132,-423,41,-1839,-1249,-1047,4028,50,39,885
435334,92316,65000,100681,67913,3800,2238,-368,-43,-1612,-1047,-874,4235,50,39,885
436335,92512,65104,100878,68110,3800,2429,-315,-92,-1383,-784,-828,4269,41,19,885
437336,92716,65200,101075,68307,3800,2524,-279,-151,-1154,-417,-872,4394,41,19,885
438337,92936,65324,101272,68504,3800,2382,-256,-114,-924,-128,-813,4506,35,33,885
439338,93164,65444,101469,68701,3800,2441,-230,-90,-684,193,-703,4530,35,33,885
440339,93376,65548,101666,68898,3800,2583,-222,-71,-473,511,-682,4582,33,22,884
441340,93604,65660,101863,69095,3800,2571,-211,-28,-295,614,-572,4605,33,22,884
442341,93824,65764,102060,69292,3800,2662,-165,-6,-148,626,-272,4495,41,28,885
443342,94052,65848,102257,69489,3800,2838,-94,-101,-69,778,-24,4316,41,28,885
444343,94288,65960,102454,69686,3800,2701,-39,-79,4,897,-58,4704,54,19,883
445344,94504,66076,102651,69883,3800,2711,4,67,115,742,-196,4828,54,19,883
446345,94704,66172,102848,70080,3800,2882,68,72,211,663,-268,4319,56,33,881
447333,94940,66248,103045,70277,3787,3061,134,47,288,599,-389,4405,56,33,881
448347,95124,66340,103242,70474,3800,3008,197,53,374,287,-481,4429,53,27,883
449348,95312,66440,103439,70671,3800,3001,245,36,374,-4,-441,4299,53,27,883
450349,95528,66576,103636,70868,3800,2804,285,77,234,-259,-301,4521,29,30,880
451350,95720,66700,103833,71065,3800,2912,322,135,44,-436,-137,4525,29,30,880
452351,95884,66820,104030,71262,3800,2972,351,155,-134,-383,-186,4226,26,28,881
453352,96084,66928,104227,71459,3800,3087,378,103,-288,-468,-247,3883,26,28,881
454353,96288,67044,104424,71656,3800,3073,427,-143,-413,-415,-36,3453,52,33,881
455354,96496,67132,104621,71853,3800,3296,493,-484,-547,-198,129,3011,52,33,881
456355,96708,67284,104818,72050,3800,2917,567,-942,-697,-264,208,2699,51,24,879
457356,96932,67396,105015,72247,3800,3205,638,-1421,-865,-351,267,2742,51,24,879
458357,97144,67528,105212,72444,3800,3110,667,-1837,-1034,-176,264,2936,56,27,879
459358,97352,67680,105409,72641,3800,3006,651,-2093,-1141,-30,182,3254,56,27,879
460347,97584,67824,105606,72838,3796,3080,600,-2271,-1150,24,83,3534,44,42,879
461360,97796,67984,105803,73035,3800,2997,524,-2435,-1097,123,-27,3512,44,42,879
462348,98048,68152,106000,73232,3643,2961,451,-2628,-1007,119,112,3554,55,29,881
463349,98280,68320,106197,73429,3755,2975,388,-2771,-904,160,266,3486,55,29,881
464350,98536,68496,106394,73626,3580,2935,331,-2970,-809,207,439,3454,59,44,882
465351,98764,68704,106591,73823,3743,2731,261,-3085,-720,224,644,3768,59,44,882
466352,99056,68924,106788,74020,3302,2647,162,-3054,-624,324,671,4084,39,50,881
467353,99312,69160,106985,74217,3503,2531,32,-2958,-491,451,527,4277,39,50,881
468355,99588,69384,107182,74414,3345,2595,-112,-2817,-310,522,366,4455,64,41,882
469356,99896,69608,107379,74611,3098,2584,-252,-2614,-97,558,219,4720,64,41,882
470357,100184,69784,107576,74808,3184,2894,-373,-2388,68,527,357,4643,47,52,887
471357,100476,70004,107773,75005,3118,2610,-471,-2149,158,475,660,4698,47,52,887
472359,100856,70228,107970,75202,2490,2574,-548,-1925,241,399,563,4816,56,61,890
473360,101156,70488,108167,75399,2946,2323,-635,-1711,316,335,51,4720,56,61,890
474360,101464,70732,108364,75596,2848,2403,-712,-1303,330,74,-82,5098,78,66,889
475361,101824,70988,108561,75793,2453,2302,-735,-1127,303,-272,108,4366,78,66,889
476363,102180,71276,108758,75990,2409,2063,-725,-1133,266,-70,-328,4174,60,60,893
477364,102528,71536,108955,76187,2394,2211,-725,-1022,221,-241,-739,4224,60,60,893
478364,102916,71832,109152,76384,2062,1944,-659,-1114,160,-831,-619,3411,63,57,895
479365,103268,72100,109349,76581,2220,2089,-552,-1378,53,-694,-601,3243,63,57,895
480367,103612,72344,109546,76778,2206,2219,-469,-1673,-49,-557,-610,3210,58,52,897
481368,103968,72632,109743,76975,2062,1905,-405,-1978,-87,-721,-750,3311,58,52,897
482369,104360,72912,109940,77172,1753,1920,-357,-2160,-106,-711,-1051,3357,77,58,899
483369,104712,73176,110137,77369,1936,1990,-303,-2514,-125,-732,-1165,3015,77,58,899
484371,105052,73464,110334,77566,1949,1801,-274,-2739,-129,-571,-933,3522,60,54,901
485371,105412,73704,110531,77763,1753,2083,-243,-3035,-171,-574,-615,2975,60,54,901
486373,105708,73968,110728,77960,2111,1905,-175,-3623,-250,-702,-578,2490,75,57,901
487373,106040,74248,110925,78157,1827,1768,-87,-4060,-318,-465,-448,3077,75,57,901
488375,106376,74468,111122,78354,1742,2134,16,-4499,-360,-355,-391,2724,50,46,900
489376,106692,74720,111319,78551,1816,1911,120,-4920,-375,-413,-586,2900,50,46,900
490376,107000,74944,111516,78748,1818,2075,198,-5220,-350,-416,-660,3255,57,43,902
491377,107328,75156,111713,78945,1637,2144,259,-5499,-272,-217,-695,3230,57,43,902
492379,107628,75376,111910,79142,1767,2084,296,-5654,-169,-111,-642,3585,63,52,902
493380,107912,75588,112107,79339,1829,2129,348,-5847,-40,-199,-660,3416,63,52,902
494381,108232,75808,112304,79536,1551,2070,403,-5966,99,-87,-595,3829,49,37,901
495381,108520,76052,112501,79733,1712,1899,452,-5875,259,-49,-469,4219,49,37,901
496383,108812,76260,112698,79930,1646,2120,511,-5787,443,9,-353,4067,67,43,901
497383,109132,76480,112895,80127,1417,2036,559,-5602,629,252,-205,4424,67,43,901
498385,109432,76680,113092,80324,1498,2160,590,-5415,828,385,-105,4440,62,39,903
499385,109672,76880,113289,80521,1855,2160,598,-5209,1027,635,-10,4478,62,39,903
500387,109964,77120,113486,80718,1489,1892,609,-4975,1202,846,45,4359,50,52,902
501388,110272,77340,113683,80915,1340,2007,641,-4822,1366,816,-44,4120,50,52,902
502389,110544,77540,113880,81112,1534,2131,654,-4628,1525,977,-80,4332,49,37,901
503389,110840,77752,114077,81309,1340,2051,612,-4310,1686,1274,-70,4418,49,37,901
504391,111140,77928,114274,81506,1271,2285,532,-4021,1859,1508,-43,4369,67,39,904
505392,111432,78120,114471,81703,1280,2188,474,-3758,2018,1629,-61,4141,67,39,904
506392,111744,78372,114668,81900,1104,1790,447,-3603,2144,1661,-26,3915,50,39,904
507393,112024,78600,114865,82097,1269,1926,406,-3352,2272,1527,-471,4174,50,39,904
508394,112308,78832,115062,82294,1206,1887,337,-3064,2434,1259,-1011,4177,49,45,903
509402,112584,79048,115292,82524,1237,1994,271,-2770,2609,1158,-985,4108,49,45,903
510396,112868,79236,115489,82721,1148,2173,199,-2431,2749,1118,-775,4339,63,38,904
511397,113132,79496,115686,82918,1245,1696,116,-2132,2876,988,-858,4345,63,38,904
512398,113376,79728,115883,83115,1349,1857,12,-1757,3008,808,-1125,4611,68,53,902
513399,113636,79912,116080,83312,1223,2163,-106,-1321,3132,647,-1232,4669,68,53,902
514400,113836,80140,116277,83509,1596,1875,-225,-907,3212,613,-1265,4595,41,41,906
515401,114068,80328,116474,83706,1382,2130,-346,-500,3209,649,-1469,4549,41,41,906
516402,114280,80524,116671,83903,1500,2080,-476,-186,3140,623,-1632,4356,56,37,903
517403,114488,80732,116868,84100,1521,2002,-633,99,3047,519,-1896,4441,56,37,903
518404,114660,80900,117065,84297,1757,2265,-763,317,2942,390,-1901,4011,32,41,903
519405,114820,81132,117262,84494,1850,1850,-841,294,2837,402,-1758,3343,32,41,903
520406,114976,81384,117459,84691,1893,1702,-892,161,2702,639,-1720,3219,40,53,902
521408,115120,81596,117656,84888,1992,1946,-958,-75,2531,841,-1665,2926,40,53,902
522408,115276,81824,117853,85085,1935,1833,-1029,-343,2336,1096,-1825,2814,24,40,900
523409,115400,82004,118050,85282,2168,2141,-1097,-635,2169,1256,-2210,2811,24,40,900
524410,115500,82216,118247,85479,2361,1934,-1155,-954,2060,1227,-2487,2995,19,42,900
525412,115588,82456,118444,85676,2485,1742,-1236,-1144,1992,1183,-2636,3577,19,42,900
526412,115660,82688,118641,85873,2640,1777,-1338,-1245,1921,1147,-2622,3634,15,38,898
527413,115712,82900,118838,86070,2829,1896,-1423,-1373,1830,1305,-2459,3489,15,38,898
528415,115764,83100,119035,86267,2893,1970,-1473,-1564,1761,1657,-2294,3316,18,50,898
529415,115808,83260,119232,86464,3011,2237,-1474,-1805,1722,1892,-2246,3237,18,50,898
530416,115856,83468,119429,86661,3053,1933,-1461,-2016,1661,1949,-2097,3503,21,32,894
531417,115928,83652,119626,86858,2958,2089,-1422,-2185,1566,1940,-1957,3599,21,32,894
532418,115988,83856,119823,87055,3094,1961,-1373,-2217,1471,2051,-1932,4074,24,45,890
533420,116044,84064,120020,87252,3182,1932,-1348,-2005,1414,2217,-1863,4887,24,45,890
534421,116132,84232,120217,87449,3030,2196,-1355,-1603,1435,2356,-1869,5345,20,34,890
535421,116236,84400,120414,87646,2972,2209,-1384,-1074,1511,2407,-1847,5704,20,34,890
536423,116404,84572,120611,87843,2585,2196,-1428,-525,1597,2406,-1682,5925,24,38,891
537424,116560,84740,120808,88040,2679,2234,-1472,18,1649,2321,-1535,5852,24,38,891
538425,116708,84888,121005,88237,2752,2381,-1507,538,1663,2120,-1494,5748,27,45,890
539426,116864,85124,121202,88434,2720,1815,-1525,1001,1674,1791,-1593,5688,27,45,890
540426,116984,85324,121399,88631,2980,2039,-1546,1419,1698,1523,-1712,5841,44,42,893
541428,117112,85512,121596,88828,2961,2119,-1550,1747,1753,1528,-1695,5470,44,42,893
542428,117240,85696,121793,89025,2992,2150,-1505,1921,1824,1938,-1418,4830,25,43,896
543429,117376,85876,121990,89222,2970,2183,-1417,1934,1879,2264,-1218,4294,25,43,896
544431,117528,86048,122187,89419,2891,2245,-1302,1785,1932,2338,-1185,3848,29,36,891
545432,117708,86220,122384,89616,2724,2256,-1177,1580,1975,2276,-1185,3584,29,36,891
546433,117928,86440,122581,89813,2464,1947,-1049,1297,2013,2212,-1266,3428,37,35,892
547433,118152,86660,122778,90010,2428,1938,-921,1107,2044,2110,-1292,3615,37,35,892
548435,118344,86872,122975,90207,2632,1981,-800,1001,2067,1785,-1292,3804,56,37,894
549436,118524,87064,123172,90404,2715,2109,-669,898,2079,1323,-1226,3682,56,37,894
550437,118736,87268,123369,90601,2509,2032,-515,727,2051,1084,-1069,3508,39,50,898
551437,118952,87452,123566,90798,2477,2163,-368,619,1964,1098,-832,3650,39,50,898
552438,119188,87664,123763,90995,2336,1982,-222,515,1809,939,-530,3354,42,49,895
553439,119448,87896,123960,91192,2159,1843,-78,378,1602,604,-458,3396,42,49,895
554440,119692,88112,124157,91389,2239,1935,35,434,1387,174,-446,4214,54,40,895
555441,119932,88332,124354,91586,2246,1900,152,674,1245,-269,-518,4269,54,40,895
556442,120188,88516,124551,91783,2121,2131,344,742,1092,-404,-17,3457,60,31,899
557443,120468,88704,124748,91980,1935,2111,601,620,853,-190,674,3105,60,31,899
558444,120724,88872,124945,92177,2060,2250,869,523,547,35,1021,3023,50,44,899
559445,120980,89108,125142,92374,2036,1808,1118,495,325,12,311,3152,50,44,899
560447,121208,89312,125339,92571,2197,2006,1335,601,276,-454,-545,3591,58,35,900
561447,121440,89552,125536,92768,2158,1763,1522,742,360,-534,-560,3752,58,35,900
562448,121724,89744,125733,92965,1795,2065,1686,844,407,-172,-189,3185,43,46,901
563449,121960,89936,125930,93162,2079,2068,1902,768,440,224,-503,2400,43,46,901
564450,122200,90104,126127,93359,2035,2231,2148,485,535,322,-767,2142,47,34,900
565451,122464,90292,126324,93556,1857,2111,2374,389,702,124,-969,2846,47,34,900
566453,122692,90504,126521,93753,2069,1955,2540,471,896,-144,-728,3090,52,47,898
567453,122916,90732,126718,93950,2083,1842,2648,607,1025,205,-340,3118,52,47,898
568455,123196,90940,126915,94147,1697,1963,2727,777,1067,809,-85,2836,51,44,900
569455,123448,91160,127112,94344,1849,1878,2833,708,1093,1018,-18,2342,51,44,900
570457,123656,91352,127309,94541,2120,2056,2985,1042,1160,329,-361,3302,43,36,901
571457,123860,91556,127506,94738,2143,1979,3037,1281,1184,425,-10,3288,43,36,901
572459,124072,91756,127703,94935,2086,2003,3051,1685,1134,1196,362,3794,30,36,901
573459,124284,91968,127900,95132,2081,1922,3021,2118,1101,1821,458,3730,30,36,901
574460,124496,92216,128097,95329,2075,1675,2993,2561,1134,1990,207,3971,55,55,899
575461,124748,92468,128294,95526,1801,1626,2951,2995,1190,1438,-24,3988,55,55,899
576463,124964,92696,128491,95723,2018,1764,2924,3379,1220,935,273,3671,40,54,900
577463,125108,92932,128688,95920,2493,1697,2881,3693,1139,1213,817,3481,40,54,900
578465,125296,93164,128885,96117,2222,1707,2845,3879,986,1716,900,2971,24,41,902
579465,125476,93404,129082,96314,2280,1638,2822,4001,876,2117,859,2860,24,41,902
580466,125688,93684,129279,96511,2075,1353,2756,4081,778,2130,826,2889,31,42,899
581467,125960,93948,129476,96708,1667,1423,2619,4259,596,1372,931,3207,31,42,899
582469,126184,94200,129673,96905,1956,1475,2397,4568,331,601,954,3505,56,52,901
583469,126404,94424,129870,97102,1972,1638,2178,4760,37,559,1286,3017,56,52,901
584471,126616,94676,130067,97299,2015,1440,1962,4862,-264,883,1472,2832,50,43,904
585471,126832,94960,130264,97496,1983,1203,1717,4956,-527,1080,1273,2985,50,43,904
586472,127040,95228,130461,97693,2029,1272,1415,5029,-787,1022,1040,3014,37,45,903
587473,127292,95488,130658,97890,1730,1294,1074,5109,-1032,471,472,3102,37,45,903
588474,127532,95724,130855,98087,1787,1428,713,5322,-1218,-639,-147,3386,52,45,903
589475,127784,95972,131052,98284,1689,1331,355,5494,-1395,-1345,-100,3231,52,45,903
590476,128056,96200,131249,98481,1531,1443,29,5483,-1631,-1492,414,2737,36,42,905
591477,128296,96452,131446,98678,1713,1269,-250,5287,-1897,-1245,581,2216,36,42,905
592488,128496,96684,131676,98908,1976,1394,-501,4927,-2117,-880,385,1856,54,40,905
593479,128780,96916,131873,99105,1414,1378,-776,4477,-2242,-1071,6,2046,54,40,905
594481,129052,97168,132070,99302,1457,1229,-1093,4266,-2267,-1829,-485,2680,47,52,906
595481,129268,97392,132267,99499,1798,1393,-1405,4049,-2225,-2208,-995,2430,47,52,906
596482,129536,97624,132464,99696,1443,1328,-1700,3698,-2146,-2091,-1193,2101,52,40,907
597483,129812,97848,132661,99893,1359,1367,-1955,3213,-2071,-2048,-868,1792,52,40,907
598484,130040,98060,132858,100090,1646,1436,-2184,2512,-2009,-2034,-917,1495,47,41,904
599486,130284,98268,133055,100287,1525,1456,-2393,1885,-1920,-2327,-1355,1956,47,41,904
600487,130532,98444,133252,100484,1479,1666,-2575,1316,-1775,-2877,-1608,2066,42,30,905
601488,130764,98612,133449,100681,1563,1729,-2703,745,-1613,-2657,-1726,2103,42,30,905
602489,131040,98740,133646,100878,1255,2010,-2806,212,-1451,-2018,-1443,2175,53,27,906
603490,131268,98880,133843,101075,1541,1960,-2914,-359,-1293,-1627,-1246,2387,53,27,906
604491,131436,99060,134040,101272,1930,1718,-3054,-811,-1167,-1524,-1461,3034,36,27,904
605492,131596,99272,134237,101469,1996,1512,-3196,-1133,-1076,-2049,-1545,3395,36,27,904
606493,131852,99444,134434,101666,1371,1773,-3319,-1389,-984,-2121,-1327,3928,47,28,903
607494,132152,99572,134631,101863,1051,2079,-3447,-1543,-910,-1414,-885,4181,47,28,903
608495,132420,99700,134828,102060,1221,2110,-3541,-1786,-890,-854,-434,3766,39,39,903
609496,132632,99836,135025,102257,1564,2087,-3604,-2107,-945,-504,-357,3890,39,39,903
610497,132884,99976,135222,102454,1291,2087,-3650,-2367,-1044,-443,-761,4446,37,22,903
611498,133100,100092,135419,102651,1508,2274,-3710,-2439,-1119,-819,-1200,5109,37,22,903
612499,133344,100204,135616,102848,1313,2336,-3745,-2333,-1169,-1095,-1532,5552,41,35,902
613500,133604,100348,135813,103045,1185,2161,-3782,-2207,-1212,-858,-1800,5617,41,35,902
614501,133888,100456,136010,103242,998,2425,-3798,-2135,-1252,-423,-1707,5496,39,22,900
615502,134196,100568,136207,103439,799,2438,-3782,-2120,-1291,-65,-1663,5155,39,22,900
616503,134360,100700,136404,103636,1714,2342,-3730,-2293,-1359,293,-1512,4907,56,33,903
617504,134632,100824,136601,103833,1007,2425,-3102,-1999,-1427,863,-2399,9578,56,33,903
618505,134928,100936,136798,104030,813,2537,-511,2437,-1360,3430,-7992,32767,56,33,902
619506,135168,101060,136995,104227,1144,2495,1964,5529,-1456,2027,-2684,14534,56,33,902
620507,135404,101192,137192,104424,1153,2474,2357,4803,-1652,1691,6,1267,39,34,901
621508,135680,101340,137389,104621,869,2396,1990,2204,-1881,2220,86,-1021,39,34,901
622509,135932,101484,137586,104818,994,2446,1533,-433,-2022,3016,-576,-847,40,26,900
623510,136172,101624,137783,105015,1051,2496,1350,-2048,-2058,2864,-568,-71,40,26,900
624511,136396,101800,137980,105212,1140,2281,1193,-3566,-1999,2893,-964,-201,36,32,902
625512,136628,102012,138177,105409,1074,2050,912,-4595,-1907,3325,-1767,1231,36,32,902
626513,136836,102196,138374,105606,1220,2231,375,-5279,-1620,2718,-3493,2445,52,37,902
627514,137064,102404,138571,105803,1082,2077,-162,-5943,-1484,2684,-1963,2082,52,37,902
628515,137256,102584,138768,106000,1309,2261,-507,-6557,-1666,2963,-593,1905,48,36,904
629516,137448,102740,138965,106197,1312,2429,-823,-7176,-1826,2419,-1582,2784,48,36,904
630517,137628,102908,139162,106394,1395,2367,-1186,-7335,-1871,2281,-2273,3635,29,39,904
631518,137808,103100,139359,106591,1402,2221,-1543,-7283,-1923,2111,-2197,4045,29,39,904
632519,138012,103256,139556,106788,1249,2464,-1848,-6936,-1895,1930,-2655,5050,32,27,899
633520,138164,103440,139753,106985,1595,2295,-2057,-6431,-1775,1876,-3024,5026,32,27,899
634521,138368,103592,139950,107182,1267,2516,-2031,-6215,-1717,1710,-2260,3757,40,32,902
635522,138512,103736,140147,107379,1665,2589,-1880,-6009,-1780,1760,-1130,4617,40,32,902
636523,138660,103900,140344,107576,1663,2480,-1717,-5533,-1853,1897,-797,4904,36,39,900
637524,138820,104052,140541,107773,1604,2576,-1588,-5086,-1833,1870,-1197,4587,36,39,900
638525,138964,104224,140738,107970,1727,2462,-1533,-4432,-1693,1632,-1646,5402,32,30,898
639526,139104,104380,140935,108167,1778,2581,-1506,-3786,-1500,1355,-1661,4884,32,30,898
640527,139252,104536,141132,108364,1750,2600,-1443,-3215,-1339,1420,-1584,4261,18,38,898
641528,139408,104676,141329,108561,1718,2725,-1326,-2858,-1197,1138,-1555,3568,18,38,898
642529,139544,104816,141526,108758,1870,2751,-1182,-2720,-1057,877,-1696,2983,42,35,896
643529,139720,104940,141723,108955,1630,2884,-1061,-2536,-919,883,-1802,2874,42,35,896
644531,139880,105112,141920,109152,1746,2596,-972,-2373,-754,673,-1849,2562,21,32,895
645531,140032,105284,142117,109349,1817,2608,-913,-2185,-568,722,-1899,2608,21,32,895
646533,140196,105468,142314,109546,1756,2539,-891,-1959,-385,812,-1750,2551,22,40,895
647533,140336,105612,142511,109743,1932,2813,-879,-1763,-207,752,-1595,2564,22,40,895
648535,140464,105752,142708,109940,2038,2864,-875,-1449,-57,873,-1521,3060,32,29,897
649536,140616,105912,142905,110137,1907,2756,-483,-436,121,809,-2016,9566,32,29,897
650537,140740,106072,143102,110334,2115,2772,98,785,311,737,-1872,8670,37,42,895
651538,140896,106196,143299,110531,1934,3031,358,1231,432,1203,-1058,2136,37,42,895
652539,141036,106360,143496,110728,2060,2796,347,1036,534,1429,-1020,1636,35,21,894
653540,141172,106540,143693,110925,2111,2705,310,807,668,1606,-1144,1916,35,21,894
654541,141328,106704,143890,111122,2005,2820,344,815,855,1844,-1265,2329,22,27,891
655541,141488,106912,144087,111319,1997,2541,550,1154,1101,1893,-1469,4338,22,27,891
656543,141632,107064,144284,111516,2121,2911,1018,2065,1373,1896,-1675,8497,41,37,893
657544,141788,107212,144481,111713,2064,2958,1423,2462,1570,1833,-1325,3152,41,37,893
658545,141952,107360,144678,111910,2029,2981,1639,2364,1697,1689,-1394,2303,24,36,896
659546,142112,107536,144875,112107,2071,2816,1731,2237,1811,1697,-1667,2770,24,36,896
660547,142272,107700,145072,112304,2088,2907,1857,2333,1956,1615,-1934,3360,25,40,893
661548,142428,107916,145269,112501,2131,2574,2013,2601,2123,1428,-2109,3975,25,40,893
662549,142612,108120,145466,112698,1963,2647,2181,3076,2287,1362,-2183,4466,24,37,894
663549,142788,108312,145663,112895,2022,2725,2325,3551,2417,1229,-2176,4775,24,37,894
664551,142948,108512,145860,113092,2139,2674,2421,4095,2497,1130,-2194,4883,25,52,894
665552,143136,108688,146057,113289,1968,2834,2449,4596,2543,1027,-2234,4644,25,52,894
666553,143280,108900,146254,113486,2267,2604,2412,5098,2576,905,-2422,4896,23,41,894
667554,143452,109088,146451,113683,2104,2759,2329,5660,2617,670,-2488,5111,23,41,894
668555,143612,109288,146648,113880,2196,2683,2233,6138,2639,536,-2221,4736,33,49,894
669556,143788,109508,146845,114077,2106,2549,2131,6456,2645,547,-2022,4420,33,49,894
670557,143960,109720,147042,114274,2142,2594,2027,6728,2695,567,-2082,4373,44,58,894
671558,144156,109916,147239,114471,1993,2694,1938,6887,2786,506,-2098,3939,44,58,894
672559,144328,110112,147436,114668,2155,2696,1870,6868,2879,326,-2137,3540,36,50,896
673560,144528,110296,147633,114865,1979,2777,1820,6679,2964,142,-2081,3299,36,50,896
674561,144700,110500,147830,115062,2166,2650,1764,6447,3050,35,-2097,3297,29,37,895
675569,144876,110688,148060,115292,2165,2770,1687,6217,3135,-231,-2190,3454,29,37,895
676563,145056,110900,148257,115489,2148,2614,1604,6039,3212,-536,-2128,3813,45,45,893
677564,145228,111100,148454,115686,2210,2689,1531,5906,3264,-704,-2089,3971,45,45,893
678565,145408,111292,148651,115883,2168,2742,1480,5762,3212,-790,-1826,4045,35,38,893
679565,145584,111500,148848,116080,2203,2637,1461,5513,3131,-877,-1700,4011,35,38,893
680567,145764,111700,149045,116277,2185,2687,1488,5221,3070,-984,-1547,4261,24,41,893
681568,145932,111908,149242,116474,2274,2633,1709,5097,3020,-1204,-1250,6490,24,41,893
682569,146076,112148,149439,116671,2448,2415,2371,5570,2995,-1293,-811,12419,28,41,894
683570,146204,112348,149636,116868,2579,2665,3053,5863,2941,-1197,-372,8218,28,41,894
684571,146352,112592,149833,117065,2476,2370,3398,5548,2842,-958,204,4928,19,41,894
685572,146472,112816,150030,117262,2686,2484,3462,4800,2696,-836,1058,3702,19,41,894
686572,146584,113044,150227,117459,2773,2446,3481,3972,2556,-886,1288,3238,33,55,890
687573,146716,113304,150424,117656,2678,2219,3526,3188,2470,-1021,1215,3287,33,55,890
688575,146840,113552,150621,117853,2761,2273,3577,2547,2406,-1127,1218,3707,33,55,891
689576,146964,113784,150818,118050,2793,2358,3590,2038,2263,-1354,1743,3951,33,55,891
690577,147060,114032,151015,118247,3014,2237,3617,1493,2121,-1533,1775,3718,22,45,894
691577,147188,114308,151212,118444,2845,2028,3663,913,2051,-1618,1693,3691,22,45,894
692579,147368,114572,151409,118641,2528,2074,3655,389,1997,-1765,1906,3978,27,60,893
693580,147528,114856,151606,118838,2670,1911,3593,30,1935,-1922,2185,4292,27,60,893
694581,147680,115104,151803,119035,2740,2115,3480,-225,1855,-1959,2291,4684,30,63,894
695581,147812,115376,152000,119232,2895,1933,3327,-297,1777,-1986,2180,5206,30,63,894
696582,147972,115672,152197,119429,2737,1740,3151,-232,1718,-1927,2198,5428,25,50,896
697584,148112,115964,152394,119626,2888,1724,2961,-125,1637,-1882,2352,5552,25,50,896
698585,148236,116268,152591,119823,3020,1603,2766,-35,1570,-1827,2267,5487,24,71,894
699586,148380,116576,152788,120020,2920,1529,2553,33,1559,-1727,2104,5444,24,71,894
700587,148492,116768,152985,120217,3158,2257,2338,75,1603,-1607,1835,5173,21,45,894
701588,148612,116916,153182,120414,3143,2555,2166,34,1669,-1488,1643,4799,21,45,894
702589,148756,117072,153379,120611,3017,2523,2028,-57,1712,-1400,1523,4723,39,33,895
703590,148872,117256,153576,120808,3229,2354,1899,-183,1737,-1256,1473,4361,39,33,895
704591,148996,117516,153773,121005,3212,1853,1775,-354,1777,-1064,1444,4159,39,35,888
705592,149124,117788,153970,121202,3217,1745,1670,-530,1848,-981,1332,4037,39,35,888
706593,149220,118084,154167,121399,3462,1552,1589,-751,1920,-923,1180,3807,36,51,888
707593,149324,118316,154364,121596,3454,1938,1533,-1007,1984,-786,1033,3681,36,51,888
708595,149464,118656,154561,121793,3255,1200,1514,-1190,2046,-726,900,3716,34,54,891
709596,149604,118968,154758,121990,3281,1326,1549,-1302,2084,-735,833,3834,34,54,891
710597,149764,119260,154955,122187,3174,1410,1564,-1300,2025,-740,930,4166,45,71,888
711597,149904,119524,155152,122384,3325,1555,1544,-1163,1871,-819,1319,4398,45,71,888
712599,150060,119816,155349,122581,3244,1340,1507,-910,1645,-869,1675,4527,25,54,894
713600,150200,120112,155546,122778,3370,1271,1437,-592,1360,-888,1721,4726,25,54,894
714601,150344,120396,155743,122975,3369,1309,1353,-241,1087,-803,1810,4727,28,70,893
715602,150504,120668,155940,123172,3286,1351,1240,153,850,-581,1956,4744,28,70,893
716603,150656,120968,156137,123369,3357,1132,1127,544,646,-565,2287,4281,44,60,894
717604,150804,121272,156334,123566,3405,1060,1039,727,454,-581,2463,3742,44,60,894
718604,150968,121568,156531,123763,3320,1067,960,858,259,-385,2612,3538,48,55,894
719605,151136,121852,156728,123960,3309,1104,891,902,76,-155,2680,3202,48,55,894
720607,151304,122100,156925,124157,3324,1306,825,949,-65,132,2552,3278,50,64,893
721608,151476,122416,157122,124354,3311,830,738,1075,-167,395,2361,3376,50,64,893
722609,151632,122696,157319,124551,3430,1019,610,1201,-242,655,2171,3169,50,54,895
723610,151800,122968,157516,124748,3368,1036,434,1317,-326,823,2334,3040,50,54,895
724611,151976,123192,157713,124945,3329,1325,260,1363,-395,892,2458,2702,29,45,896
725612,152132,123380,157910,125142,3473,1554,111,1394,-453,933,2556,2777,29,45,896
726613,152260,123640,158107,125339,3679,1076,-41,1523,-544,1001,2691,3036,31,41,895
727613,152404,123876,158304,125536,3603,1210,-197,1645,-680,1026,2747,2954,31,41,895
728615,152560,124072,158501,125733,3547,1460,-357,1774,-844,1035,2571,2836,42,52,891
729616,152684,124268,158698,125930,3780,1461,-521,1952,-994,939,2222,2865,42,52,891
730617,152844,124472,158895,126127,3574,1409,-683,2098,-1115,911,2100,2872,40,51,890
731630,152960,124660,159092,126324,3800,1513,-882,2298,-1275,842,2014,3133,40,51,890
732631,153072,124844,159289,126521,3800,1543,-1091,2529,-1480,643,1644,3203,17,35,888
733620,153220,125048,159486,126718,3746,1416,-1292,2742,-1676,691,1006,3013,17,35,888
734621,153364,125264,159683,126915,3795,1333,-1484,2841,-1857,854,1121,2661,31,45,888
735622,153528,125476,159880,127112,3686,1351,-1670,2920,-2019,880,1444,2615,31,45,888
736623,153704,125696,160077,127309,3622,1292,-1854,2961,-2161,899,1440,2611,44,46,890
737624,153908,125920,160274,127506,3445,1255,-2022,2972,-2284,953,1197,2527,44,46,890
738625,154088,126088,160471,127703,3604,1618,-2188,2973,-2402,1050,1180,2591,29,50,890
739626,154280,126280,160668,127900,3532,1471,-2350,2923,-2499,1120,1160,2431,29,50,890
740627,154488,126464,160865,128097,3429,1527,-2500,2814,-2553,1144,758,2262,46,47,893
741627,154672,126676,161062,128294,3586,1346,-2621,2628,-2584,1146,398,2086,46,47,893
742629,154856,126892,161259,128491,3592,1312,-2739,2452,-2627,971,263,2263,44,38,891
743629,155028,127104,161456,128688,3679,1332,-2879,2419,-2689,692,337,2622,44,38,891
744631,155208,127284,161653,128885,3638,1539,-3023,2364,-2738,518,299,2768,29,32,891
745632,155396,127428,161850,129082,3594,1787,-3145,2320,-2753,498,2,2989,29,32,891
746633,155576,127568,162047,129279,3652,1838,-3234,2404,-2741,340,-391,3194,29,41,891
747634,155736,127740,162244,129476,3794,1649,-3273,2416,-2771,-158,-600,2955,29,41,891
748635,155912,127960,162441,129673,3705,1339,-3262,2274,-2880,-694,-828,2661,43,50,889
749636,156092,128164,162638,129870,3689,1437,-3195,2060,-3024,-970,-935,2559,43,50,889
750650,156240,128364,162835,130067,3800,1461,-3142,1875,-3169,-1129,-1048,3007,35,54,886
751650,156376,128548,163032,130264,3800,1567,-3164,1882,-3302,-1410,-1359,3945,35,54,886
752651,156520,128736,163229,130461,3800,1547,-3232,2107,-3386,-1682,-2071,4597,20,51,889
753652,156688,128912,163426,130658,3800,1631,-3279,2412,-3408,-1844,-2714,4835,20,51,889
754654,156848,129116,163623,130855,3800,1453,-3298,2657,-3366,-1857,-2893,4635,44,50,887
755654,157012,129284,163820,131052,3800,1691,-3274,2646,-3294,-1925,-2569,4062,44,50,887
756656,157180,129424,164017,131249,3800,1892,-3182,2288,-3222,-1888,-1953,3264,26,45,888
757656,157348,129584,164214,131446,3800,1783,-3035,1665,-3169,-1718,-1287,2866,26,45,888
758652,157552,129704,164444,131676,3702,2082,-2858,1029,-3116,-1679,-892,2957,30,33,887
759658,157736,129848,164641,131873,3800,1955,-2673,469,-3055,-1793,-947,3277,30,33,887
760659,157920,129952,164838,132070,3800,2246,-2466,-11,-2942,-1722,-1428,3611,28,29,887
761660,158096,130036,165035,132267,3800,2422,-2277,-412,-2765,-1434,-1541,3854,28,29,887
762649,158296,130120,165232,132464,3752,2472,-2081,-833,-2519,-1107,-1193,4183,34,19,886
763650,158500,130220,165429,132661,3725,2415,-1274,-1153,-2273,-197,-480,10630,34,19,886
764664,158692,130324,165626,132858,3800,2431,832,-908,-2101,1047,342,23357,30,22,883
765652,158924,130460,165823,133055,3539,2259,2689,-451,-1905,796,101,14726,30,22,883
766653,159124,130584,166020,133252,3740,2366,3146,-390,-1624,45,-162,5818,43,34,884
767654,159336,130680,166217,133449,3659,2586,2833,-506,-1364,-69,-98,5382,43,34,884
768655,159560,130808,166414,133646,3574,2417,2523,-539,-1187,-90,39,5315,53,21,886
769656,159776,130916,166611,133843,3617,2582,2422,-484,-1073,-77,207,5279,53,21,886
770657,159972,131028,166808,134040,3744,2594,2399,-359,-984,23,385,5407,33,22,884
771658,160180,131124,167005,134237,3665,2740,2339,-258,-885,116,579,5382,33,22,884
772659,160368,131244,167202,134434,3796,2623,2191,7,-776,210,586,5822,46,24,884
773660,160572,131316,167399,134631,3694,2979,1992,358,-649,226,325,5726,46,24,884
774660,160820,131424,167596,134828,3397,2794,1823,501,-508,108,-167,5049,36,21,881
775661,161032,131544,167793,135025,3617,2753,1671,575,-411,65,-200,4980,36,21,881
776663,161292,131676,167990,135222,3291,2708,1549,592,-348,-24,69,4518,42,22,880
777664,161648,131780,168187,135419,2622,2925,1439,441,-375,-104,603,3828,42,22,880
778664,161952,131904,168384,135616,2901,2832,1347,101,-475,-225,1000,3193,53,26,883
779666,162284,132024,168581,135813,2668,2892,1295,-421,-512,-332,601,2777,53,26,883
780667,162668,132140,168778,136010,2263,2953,1262,-878,-471,-347,-757,2852,70,26,889
781668,163032,132272,168975,136207,2315,2883,1186,-1198,-444,-932,-2023,3138,70,26,889
782668,163376,132400,169172,136404,2377,2938,1073,-1280,-373,-1359,-2424,3603,87,39,890
783670,163764,132528,169369,136601,2019,2969,954,-1478,-253,-1133,-1990,3003,87,39,890
784671,164112,132640,169566,136798,2203,3108,879,-1962,-111,-713,-1890,2218,68,37,892
785671,164416,132760,169763,136995,2432,3093,869,-2409,48,-888,-1819,2363,68,37,892
786672,164756,132872,169960,137192,2145,3180,913,-2938,183,-1095,-1846,1890,77,24,892
787674,165044,133040,170157,137389,2431,2844,941,-3478,229,-1041,-1589,1944,77,24,892
788675,165308,133184,170354,137586,2553,3018,977,-3839,282,-1153,-1262,2337,61,28,890
789676,165532,133336,170551,137783,2792,2989,1029,-4069,308,-1119,-952,2603,61,28,890
790676,165780,133488,170748,137980,2621,3010,1083,-4159,283,-872,-888,2961,57,26,891
791677,166000,133620,170945,138177,2787,3164,1118,-4163,272,-823,-641,3278,57,26,891
792679,166240,133808,171142,138374,2644,2818,1128,-4004,267,-599,-203,3478,60,45,888
793680,166508,133964,171339,138571,2438,3037,1110,-3879,236,-583,176,3368,60,45,888
794680,166728,134148,171536,138768,2729,2869,1088,-3770,227,-588,300,3460,35,39,887
795682,166924,134340,171733,138965,2881,2822,1048,-3578,251,-255,341,3502,35,39,887
796683,167156,134528,171930,139162,2641,2852,1018,-3452,261,-39,551,3068,33,33,889
797684,167380,134728,172127,139359,2681,2777,989,-3373,261,-5,628,3227,33,33,889
798685,167608,134920,172324,139556,2642,2830,938,-3206,244,174,531,3279,49,31,887
799686,167888,135132,172521,139753,2281,2699,863,-3087,202,416,490,2963,49,31,887
800687,168144,135336,172718,139950,2407,2746,768,-2983,172,562,342,3091,43,46,890
801688,168392,135504,172915,140147,2435,2985,649,-2870,176,727,292,2995,43,46,890
802689,168692,135764,173112,140344,2066,2383,514,-2819,210,998,354,2810,63,41,894
803690,168960,136028,173309,140541,2236,2330,373,-2789,245,1170,558,2799,63,41,894
804691,169220,136288,173506,140738,2259,2328,251,-2809,256,1208,640,2469,55,67,891
805692,169524,136548,173703,140935,1937,2301,144,-2937,232,1232,585,2288,55,67,891
806693,169808,136856,173900,141132,2025,1954,49,-3095,189,1208,515,2176,50,69,896
807693,170096,137156,174097,141329,1961,1958,-53,-3293,135,1156,157,2148,50,69,896
808695,170356,137428,174294,141526,2109,2101,-173,-3404,84,1126,-73,2358,61,61,898
809696,170608,137724,174491,141723,2136,1909,-321,-3441,80,1048,-147,2504,61,61,898
810697,170844,137980,174688,141920,2219,2134,-484,-3430,105,1087,-199,2788,41,55,900
811698,171128,138236,174885,142117,1882,2109,-672,-3361,144,1091,-353,2856,41,55,900
812699,171396,138508,175082,142314,1951,1976,-830,-3328,185,977,-424,2802,47,52,899
813700,171624,138784,175279,142511,2188,1917,-961,-3349,196,1025,-253,2670,47,52,899
814701,171912,139052,175476,142708,1774,1937,-1048,-3490,201,1179,-53,2475,39,46,899
815702,172176,139272,175673,142905,1895,2227,-1134,-3593,229,1374,277,2494,39,46,899
816703,172424,139488,175870,143102,1973,2245,-1220,-3632,284,1405,390,2734,63,48,899
817704,172676,139724,176067,143299,1925,2104,-1320,-3635,362,1384,431,2942,63,48,899
818705,172968,139936,176264,143496,1634,2247,-1420,-3542,452,1386,370,3173,54,42,898
819705,173224,140160,176461,143693,1833,2161,-1495,-3443,550,1361,263,3088,54,42,898
820707,173448,140376,176658,143890,2022,2204,-1556,-3399,650,1270,153,3270,51,47,898
821707,173724,140532,176855,144087,1663,2598,-1587,-3349,740,1242,353,3222,51,47,898
822708,173964,140720,177052,144284,1870,2402,-1614,-3317,816,1362,677,3239,53,39,899
823709,174212,140924,177249,144481,1798,2300,-1637,-3200,884,1377,853,3534,53,39,899
824711,174480,141116,177446,144678,1642,2378,-1677,-2998,945,1218,1002,3854,44,49,897
825711,174732,141308,177643,144875,1719,2380,-1737,-2718,994,1104,1073,4201,44,49,897
827713,175268,141692,178037,145269,1557,2361,-1913,-2024,1125,925,670,4592,63,44,897
828715,175504,141876,178234,145466,1741,2442,-2019,-1684,1218,810,466,4587,63,35,898
829716,175776,142096,178431,145663,1483,2208,-2082,-1403,1291,672,440,4347,63,35,898
830716,176080,142296,178628,145860,1237,2333,-2105,-1277,1322,439,336,4089,61,53,897
831717,176332,142532,178825,146057,1538,2091,-2112,-1104,1331,355,120,4427,61,53,897
832719,176588,142716,179022,146254,1488,2422,-2139,-915,1358,163,-469,4564,47,35,901
833720,176864,142928,179219,146451,1328,2242,-2178,-677,1429,109,-943,4806,47,35,901
834721,177128,143104,179416,146648,1374,2476,-2210,-412,1530,147,-1220,4703,53,34,901
835721,177404,143320,179613,146845,1265,2219,-2217,-279,1600,108,-1303,4494,53,34,901
836723,177668,143528,179810,147042,1311,2265,-2178,-244,1623,-60,-1488,4388,63,51,901
837724,177924,143724,180007,147239,1336,2340,-2117,-328,1612,-327,-1763,4340,63,51,901
838725,178180,143948,180204,147436,1310,2154,-2029,-378,1607,-497,-2124,4389,48,51,902
839725,178444,144156,180401,147633,1231,2250,-1939,-508,1617,-440,-2160,4448,48,51,902
840727,178684,144380,180598,147830,1363,2139,-1821,-615,1645,-268,-2154,4345,45,52,900
841734,178912,144596,180828,148060,1438,2196,-1749,-782,1704,-101,-2270,4553,45,52,900
842728,179140,144808,181025,148257,1426,2215,-1704,-837,1796,-45,-2356,4792,49,44,901
843729,179352,145016,181222,148454,1519,2235,-1684,-914,1872,-2,-2269,4897,49,44,901
844731,179552,145228,181419,148651,1593,2205,-1619,-1023,1914,68,-2000,4765,55,50,901
845732,179760,145412,181616,148848,1539,2386,-1550,-1222,1948,209,-1756,5010,55,50,901
846732,179972,145616,181813,149045,1508,2258,-1498,-1279,2022,360,-1681,5431,32,33,900
847733,180144,145824,182010,149242,1769,2230,-1460,-1359,2124,454,-1372,5329,32,33,900
848735,180300,146016,182207,149439,1888,2333,-1363,-1490,2209,691,-1046,5201,43,50,899
849736,180464,146208,182404,149636,1852,2335,-1263,-1680,2269,1032,-935,5293,43,50,899
850737,180648,146376,182601,149833,1733,2499,-1153,-1886,2305,1200,-977,5322,46,35,899
851737,180800,146600,182798,150030,1954,2138,-1039,-2032,2337,1268,-1084,5563,46,35,899
852739,180948,146832,182995,150227,2000,2072,-900,-2096,2361,1263,-1208,6039,45,40,896
853739,181064,147092,183192,150424,2237,1871,-620,-1851,2407,1466,-1444,8217,45,40,896
854741,181152,147296,183389,150621,2460,2218,94,-446,2458,2612,-2074,17472,40,44,898
855741,181252,147476,183586,150818,2427,2376,723,683,2520,1985,-1975,9433,40,44,898
856743,181324,147688,183783,151015,2658,2171,874,849,2585,1599,-1785,6180,22,48,898
857744,181396,147916,183980,151212,2713,2057,816,547,2629,1643,-1874,5643,22,48,898
858744,181484,148164,184177,151409,2662,1911,733,345,2657,1731,-2015,5830,16,51,893
859745,181552,148380,184374,151606,2844,2103,717,415,2689,1757,-2008,5834,16,51,893
860747,181648,148592,184571,151803,2714,2122,734,419,2710,1852,-1695,5546,12,53,893
861748,181748,148756,184768,152000,2732,2437,762,412,2707,1898,-1387,5506,12,53,893
862749,181884,148936,184965,152197,2534,2345,790,374,2736,1780,-1423,5346,21,33,891
863750,182016,149148,185162,152394,2589,2139,826,310,2800,1619,-1696,5287,21,33,891
864751,182160,149372,185359,152591,2537,2053,876,266,2869,1173,-1876,5217,17,42,891
865752,182288,149568,185556,152788,2669,2229,954,219,2914,734,-1879,5162,17,42,891
866753,182384,149748,185753,152985,2913,2337,1059,135,2896,622,-1589,5125,20,37,894
867754,182512,149940,185950,153182,2744,2265,1167,103,2834,687,-1176,5064,20,37,894
868755,182604,150132,186147,153379,3016,2267,1255,117,2776,769,-902,5032,18,44,893
869756,182704,150336,186344,153576,3009,2190,1342,110,2723,899,-829,4840,18,44,893
870757,182804,150584,186541,153773,3053,1893,1457,38,2647,860,-909,4549,30,39,892
871758,182952,150860,186738,153970,2775,1684,1579,-6,2555,729,-1286,4577,30,39,892
872759,183112,151136,186935,154167,2717,1650,1707,-25,2410,577,-1395,4357,37,60,891
873760,183320,151388,187132,154364,2413,1776,1816,-87,2208,388,-1137,4274,37,60,891
874761,183564,151648,187329,154561,2168,1700,1947,-86,1998,225,-512,4040,33,52,894
875762,183772,151928,187526,154758,2389,1538,2080,-93,1834,144,-144,3928,33,52,894
876763,183996,152216,187723,154955,2277,1449,2169,-45,1727,-53,-454,4261,59,58,897
877764,184216,152508,187920,155152,2293,1382,2223,78,1649,-253,-699,4029,59,58,897
878765,184448,152772,188117,155349,2204,1529,2313,54,1553,-200,-459,3171,61,56,900
879766,184696,153008,188314,155546,2081,1687,2446,-140,1442,3,-381,2739,61,56,900
880767,184956,153292,188511,155743,1980,1350,2595,-265,1394,-116,-719,2710,44,49,901
881768,185188,153572,188708,155940,2140,1338,2675,-291,1420,-721,-1181,3143,44,49,901
882769,185424,153836,188905,156137,2099,1410,2651,-126,1493,-974,-1268,3515,61,50,901
883770,185684,154064,189102,156334,1922,1621,2564,70,1552,-575,-730,3295,61,50,901
884771,185956,154280,189299,156531,1815,1689,2512,176,1547,90,-7,2474,52,43,901
885772,186192,154500,189496,156728,2022,1654,2530,-25,1516,398,242,1531,52,43,901
886773,186480,154772,189693,156925,1658,1296,2597,-233,1535,264,-171,1769,55,59,901
887773,186708,155024,189890,157122,2021,1397,2689,-185,1620,-342,-565,2124,55,59,901
888775,186956,155248,190087,157319,1873,1561,2782,-93,1705,-476,-419,2017,63,47,901
889776,187260,155452,190284,157516,1477,1684,2894,-39,1704,-34,-8,1695,63,47,901
890777,187496,155672,190481,157713,1885,1573,2988,-9,1680,227,-134,1546,51,37,902
891778,187724,155928,190678,157910,1923,1322,3056,172,1710,243,-712,1973,51,37,902
892779,187964,156184,190875,158107,1830,1298,3035,579,1761,-383,-1076,2629,59,50,904
893780,188196,156476,191072,158304,1864,1031,2998,1029,1804,-768,-984,2413,59,50,904
894781,188408,156732,191269,158501,1984,1231,2980,1421,1756,-179,-326,1849,43,52,903
895782,188696,157024,191466,158698,1469,964,2963,1641,1639,486,-369,1265,43,52,903
896783,188924,157320,191663,158895,1831,896,2929,1737,1535,615,-491,1120,58,48,904
897784,189136,157640,191860,159092,1925,692,2844,1872,1461,373,-831,1244,58,48,904
898785,189348,157948,192057,159289,1919,719,2720,2173,1419,13,-1096,1485,52,49,907
899786,189564,158228,192254,159486,1886,857,2578,2503,1370,286,-756,1261,52,49,907
900787,189752,158452,192451,159683,2066,1195,2445,2713,1267,944,-577,739,44,59,906
901788,189980,158716,192648,159880,1802,916,2341,2712,1167,1393,-753,358,44,59,906
902789,190236,159000,192845,160077,1602,754,2248,2656,1113,1545,-993,301,54,40,906
903790,190448,159276,193042,160274,1870,769,2149,2627,1082,1154,-1186,289,54,40,906
904791,190624,159496,193239,160471,2106,1109,2014,2677,1031,806,-904,551,55,55,906
905792,190840,159664,193436,160668,1847,1447,1839,2716,906,1181,-320,423,55,55,906
906793,191020,159796,193633,160865,2081,1700,1651,2709,709,1797,-134,205,48,51,905
907794,191224,160020,193830,161062,1928,1114,1455,2714,518,2045,-295,178,48,51,905
908794,191520,160312,194027,161259,1310,648,1241,2656,315,1753,-462,324,37,54,902
909795,191740,160604,194224,161456,1775,606,965,2725,49,906,-659,1009,37,54,902
910797,191980,160884,194421,161653,1632,644,610,3056,-281,208,-487,1582,58,65,904
911797,192216,161120,194618,161850,1640,902,236,3366,-715,273,112,1161,58,65,904
912799,192440,161328,194815,162047,1704,1072,-88,3364,-1232,538,773,431,40,58,907
913799,192644,161544,195012,162244,1826,1015,-395,3272,-1741,860,1025,509,40,58,907
914801,192940,161768,195209,162441,1209,953,-738,3179,-2177,777,589,706,48,38,907
915801,193200,161968,195406,162638,1406,1102,-1119,3324,-2545,-38,-150,1616,48,38,907
916803,193452,162160,195603,162835,1432,1154,-1532,3621,-2834,-697,-373,1858,45,43,906
917803,193704,162356,195800,163032,1409,1130,-1914,3748,-3083,-743,-299,1273,45,43,906
918805,193932,162528,195997,163229,1545,1291,-2219,3578,-3341,-695,86,506,56,27,906
919807,194204,162700,196194,163426,1238,1302,-2493,3129,-3606,-772,425,120,60,37,907
920807,194476,162836,196391,163623,1205,1554,-2717,2538,-3840,-902,142,-150,60,37,907
921808,194708,163012,196588,163820,1440,1314,-2948,1985,-3969,-1389,-554,380,47,34,907
922809,194912,163160,196785,164017,1613,1510,-3185,1659,-3993,-1660,-805,1022,47,34,907
923810,195136,163328,196982,164214,1476,1398,-3471,1328,-3935,-1514,-1149,1139,57,24,906
924819,195388,163508,197212,164444,1291,1345,-3745,950,-3791,-1385,-1168,1104,57,24,906
925811,195644,163652,197409,164641,1241,1593,-3993,486,-3596,-1486,-1192,1264,53,33,905
926813,195848,163804,197606,164838,1563,1564,-4231,98,-3405,-1723,-1367,1766,53,33,905
927814,196080,163932,197803,165035,1373,1744,-4436,-359,-3212,-2227,-1418,1891,31,26,904
928815,196300,164056,198000,165232,1439,1801,-4634,-820,-3014,-2092,-1365,2070,31,26,904
929816,196456,164196,198197,165429,1857,1726,-4816,-1250,-2819,-1549,-1209,2164,51,21,903
930817,196732,164320,198394,165626,1072,1858,-4999,-1701,-2643,-1327,-867,2555,51,21,903
931818,196932,164428,198591,165823,1547,1999,-5177,-2020,-2485,-1267,-879,3366,34,32,902
932819,197140,164612,198788,166020,1492,1529,-5350,-2178,-2323,-1484,-1267,4090,34,32,902
933819,197356,164788,198985,166217,1433,1588,-5496,-2159,-2137,-1723,-1462,4827,51,32,902
934821,197552,164948,199182,166414,1560,1705,-5609,-2118,-1952,-1569,-1316,5011,51,32,902
935821,197728,165116,199379,166611,1694,1668,-5667,-2261,-1818,-924,-785,4671,29,40,904
936823,197936,165248,199576,166808,1489,1922,-5674,-2489,-1747,-120,-308,4508,29,40,904
937824,198192,165388,199773,167005,1164,1897,-5670,-2748,-1725,379,-230,4667,34,32,903
938825,198404,165528,199970,167202,1433,1923,-5659,-2982,-1726,571,-290,5074,34,32,903
939826,198640,165656,200167,167399,1266,2028,-4269,-1521,-1691,2757,-1488,15495,53,22,903
940827,198840,165784,200364,167596,1490,2059,38,6588,-1948,9795,-4122,32767,53,22,903
941827,199036,165964,200561,167793,1516,1742,3347,11007,-2169,3534,-820,8356,35,40,902
942829,199268,166120,200758,167990,1275,1910,3682,9862,-2227,2458,288,1299,35,40,902
943830,199504,166280,200955,168187,1233,1902,2943,6261,-2257,3066,702,-1948,34,22,903
944831,199736,166436,201152,168384,1244,1946,2354,3227,-2072,4039,-1209,-731,34,22,903
945832,199944,166580,201349,168581,1389,2044,1973,1518,-1548,3600,-2851,-407,35,26,903
946833,200168,166736,201546,168778,1277,1987,1539,-183,-1148,3467,-1950,-537,35,26,903
947834,200368,166872,201743,168975,1426,2140,1013,-1644,-1068,3914,-1306,31,39,23,901
948835,200624,167020,201940,169172,1051,2086,530,-3433,-1102,3215,-818,-1125,39,23,901
949836,200808,167140,202137,169369,1507,2296,197,-5240,-1209,3263,-554,-157,48,39,899
950837,201032,167284,202334,169566,1245,2169,-285,-6231,-1325,3260,-1209,2319,48,39,899
951837,201268,167452,202531,169763,1153,2032,-824,-6601,-1273,2490,-1946,3795,33,45,899
952838,201476,167648,202728,169960,1324,1859,-1375,-6365,-1190,2370,-1926,5314,33,45,899
953839,201696,167772,202925,170157,1239,2341,-1682,-6162,-1227,2077,-1054,4844,42,39,903
954840,201888,167956,203122,170354,1416,1972,-1805,-6039,-1312,1775,-362,5764,42,39,903
955841,202108,168092,203319,170551,1231,2299,-1858,-5499,-1424,1783,-255,6724,37,35,901
956842,202316,168228,203516,170748,1302,2327,-1873,-4993,-1501,1348,-535,6343,37,35,901
957843,202504,168380,203713,170945,1431,2247,-1867,-4199,-1431,969,-867,7570,39,34,901
958844,202672,168508,203910,171142,1569,2428,-1835,-3228,-1283,579,-1099,7551,39,34,901
959846,202860,168668,204107,171339,1447,2244,-1717,-2532,-1161,86,-1020,6711,39,37,900
960847,203044,168808,204304,171536,1479,2395,-1570,-1779,-1072,-243,-662,6875,39,37,900
961848,203252,168948,204501,171733,1324,2420,-1435,-1205,-979,-338,-772,6148,28,20,899
962849,203416,169080,204698,171930,1614,2500,-1341,-677,-841,-178,-1212,6003,28,20,899
963849,203568,169224,204895,172127,1709,2448,-1286,-133,-657,-236,-1112,5799,25,33,899
964851,203752,169376,205092,172324,1515,2419,-1246,197,-487,-194,-996,4963,25,33,899
965851,203932,169500,205289,172521,1548,2626,-1273,443,-338,183,-1102,4863,23,29,897
966852,204088,169656,205486,172718,1716,2445,-1335,541,-176,279,-722,4192,23,29,897
967854,204260,169780,205683,172915,1627,2678,-1423,474,-56,564,-301,3925,35,33,898
968855,204416,169908,205880,173112,1746,2684,-1302,764,6,866,-326,6820,35,33,898
969856,204580,170036,206077,173309,1710,2715,-849,1425,74,961,-627,10336,20,29,896
970857,204740,170136,206274,173506,1752,2932,-552,1479,138,965,-425,3510,20,29,896
971858,204892,170244,206471,173703,1821,2923,-554,920,227,940,-836,2478,43,28,894
972859,205056,170380,206668,173900,1762,2775,-459,532,379,1063,-1691,5838,43,28,894
973860,205228,170496,206865,174097,1723,2936,-266,535,570,1147,-2058,5618,42,37,891
974860,205408,170676,207062,174294,1680,2544,-175,309,770,889,-1873,2798,42,37,891
975861,205552,170864,207259,174491,1930,2499,-145,-16,945,814,-1752,3399,25,41,894
976863,205736,171056,207456,174688,1685,2477,27,-129,1097,858,-1886,5197,25,41,894
977864,205880,171200,207653,174885,1959,2801,377,-336,1246,662,-1718,4278,39,47,896
978865,206036,171356,207850,175082,1903,2745,739,-620,1377,558,-1557,3465,39,47,896
979865,206192,171532,208047,175279,1921,2630,1088,-889,1490,417,-1541,3778,30,39,894
980867,206344,171716,208244,175476,1965,2586,1370,-1012,1577,153,-1563,4105,30,39,894
981867,206504,171876,208441,175673,1933,2753,1561,-839,1641,-58,-1567,4082,37,43,895
982868,206644,172052,208638,175870,2083,2663,1662,-539,1703,-187,-1724,4647,37,43,895
983869,206832,172256,208835,176067,1787,2485,1697,108,1808,-335,-2277,6054,24,29,892
984871,206984,172460,209032,176264,2033,2483,1689,1035,1972,-376,-2593,6509,24,29,892
985872,207152,172640,209229,176461,1945,2642,1700,1940,2070,-337,-2230,6159,28,37,896
986872,207320,172784,209426,176658,1959,2891,1736,2648,1982,-425,-1478,5583,28,37,896
987874,207488,172968,209623,176855,1972,2647,1774,3040,1757,-344,-1045,4896,27,37,895
988874,207644,173144,209820,177052,2065,2707,1786,3311,1547,-156,-1254,4776,27,37,895
989875,207828,173332,210017,177249,1896,2637,1758,3603,1456,-28,-1515,4805,32,47,895
990876,207992,173548,210214,177446,2036,2454,1698,3923,1476,284,-1723,4693,32,47,895
991878,208148,173756,210411,177643,2105,2500,1624,4160,1530,671,-1538,4333,31,44,895
992879,208336,173928,210608,177840,1909,2737,1568,4148,1561,779,-1300,3396,31,44,895
993880,208516,174144,210805,178037,1967,2454,1512,3884,1563,1053,-1208,2668,30,34,894
994881,208688,174328,211002,178234,2028,2661,1437,3314,1547,1274,-1149,1902,30,34,894
995882,208852,174528,211199,178431,2093,2560,1343,2652,1535,1183,-1252,1798,41,42,894
996883,209012,174744,211396,178628,2135,2452,1214,2114,1517,907,-1378,2083,41,42,894
997883,209160,174948,211593,178825,2232,2525,1090,1548,1485,665,-1295,1960,37,51,895
998885,209352,175172,211790,179022,1960,2388,969,1078,1458,642,-1216,2326,37,51,895
999885,209520,175368,211987,179219,2123,2565,879,755,1469,447,-1219,2612,49,56,895
1000887,209716,175568,212184,179416,1949,2540,824,394,1507,97,-1294,2700,49,56,895
1001888,209920,175812,212381,179613,1896,2245,806,80,1557,-169,-1391,3126,37,52,895
1002889,210088,176024,212578,179810,2135,2438,813,-9,1600,-533,-1363,3693,37,52,895
1003889,210272,176208,212775,180007,2040,2620,835,45,1586,-926,-1337,4114,40,48,897
1004891,210436,176428,212972,180204,2181,2386,878,139,1487,-1260,-1246,4287,40,48,897
1005892,210620,176604,213169,180401,2062,2671,937,291,1361,-1478,-1134,4573,47,37,894
1006893,210752,176800,213366,180598,2416,2547,999,518,1293,-1554,-1199,4754,47,37,894
1007900,210916,177032,213596,180828,2245,2322,1071,674,1317,-1504,-1228,4769,42,48,894
1008895,211088,177220,213793,181025,2207,2602,1187,812,1400,-1428,-898,4783,42,48,894
1009896,211240,177452,213990,181222,2352,2311,1349,962,1502,-1424,-515,4750,31,41,894
1010897,211404,177660,214187,181419,2292,2457,1535,1023,1589,-1451,-332,4379,31,41,894
1011897,211564,177880,214384,181616,2334,2373,1720,929,1665,-1518,-221,4083,18,45,895
1012899,211688,178168,214581,181813,2592,1909,1904,838,1752,-1480,-108,3944,18,45,895
1013899,211816,178396,214778,182010,2597,2271,2072,682,1841,-1375,66,3773,19,57,893
1014901,211924,178632,214975,182207,2762,2205,2218,546,1946,-1263,186,3764,19,57,893
1015901,212060,178888,215172,182404,2614,2055,2356,409,2076,-1192,325,3690,16,42,892
1016903,212156,179124,215369,182601,2909,2162,2494,248,2209,-1086,425,3602,16,42,892
1017904,212276,179336,215566,182798,2794,2307,2616,123,2333,-1187,441,3703,37,57,893
1018905,212400,179596,215763,182995,2801,1980,2696,54,2406,-1364,676,3887,37,57,893
1019905,212512,179856,215960,183192,2915,1953,2727,80,2408,-1318,848,4103,40,60,892
1020907,212612,180096,216157,183389,3033,2060,2739,135,2369,-1296,920,4182,40,60,892
1021907,212756,180352,216354,183586,2782,1935,2742,296,2306,-1303,949,4518,23,52,893
1022908,212924,180592,216551,183783,2645,2016,2713,522,2208,-1284,1003,4800,23,52,893
1023909,213088,180852,216748,183980,2686,1864,2671,797,2074,-1364,978,4809,27,46,893
1024911,213232,181128,216945,184177,2834,1729,2637,1035,1940,-1306,840,4717,27,46,893
1025912,213372,181416,217142,184374,2885,1615,2629,1206,1801,-1050,839,4463,37,65,895
1026913,213512,181704,217339,184571,2911,1576,2638,1306,1645,-926,1041,4196,37,65,895
1027914,213652,182028,217536,184768,2936,1296,2673,1280,1484,-720,1221,3854,32,50,894
1028915,213772,182208,217733,184965,3096,2204,2731,1165,1346,-541,1154,3546,32,50,894
1029916,213920,182364,217930,185162,2944,2372,2796,1006,1235,-419,1182,3519,38,30,894
1030917,214032,182512,218127,185359,3207,2445,2819,942,1148,-115,1372,3915,38,30,894
1031917,214152,182664,218324,185556,3191,2439,2771,1021,1030,-38,1377,4083,20,32,890
1032919,214292,182848,218521,185753,3092,2246,2682,1143,910,71,1288,4147,20,32,890
1033920,214396,183068,218718,185950,3359,2011,2576,1247,820,305,1383,3977,26,37,888
1034921,214540,183340,218915,186147,3133,1654,2455,1263,728,449,1629,3810,26,37,888
1035922,214664,183612,219112,186344,3291,1621,2318,1375,591,428,1851,3933,35,52,888
1036923,214816,183828,219309,186541,3137,1964,2193,1400,423,394,1808,3489,35,52,888
1037924,214972,184168,219506,186738,3130,1126,2045,1322,274,587,1632,3573,25,70,891
1038925,215136,184472,219703,186935,3095,1305,1834,1434,223,753,1070,4319,25,70,891
1039925,215324,184756,219900,187132,2950,1392,1566,1785,239,514,688,4751,47,56,894
1040927,215516,185040,220097,187329,2929,1354,1309,2124,235,280,631,4409,47,56,894
1041927,215696,185332,220294,187526,3012,1263,1072,2301,185,218,785,4269,42,54,895
1042928,215884,185620,220491,187723,2967,1249,826,2555,79,321,1146,4391,42,54,895
1043929,216064,185884,220688,187920,3026,1369,576,2673,-59,448,1525,3907,48,62,896
1044930,216252,186120,220885,188117,2980,1527,335,2678,-232,581,1795,3571,48,62,896
1045931,216428,186484,221082,188314,3065,655,88,2733,-405,847,1768,3772,32,63,896
1046932,216608,186820,221279,188511,3048,769,-164,2729,-508,1135,1712,3406,32,63,896
1047933,216784,187132,221476,188708,3083,868,-408,2644,-513,1528,1712,3396,39,72,897
1048934,216976,187404,221673,188905,2987,1086,-646,2581,-437,1627,1409,3470,39,72,897
1049936,217144,187664,221870,189102,3150,1133,-869,2516,-348,1582,1275,3440,55,65,895
1050936,217320,187952,222067,189299,3111,918,-1086,2486,-304,1606,1337,3455,55,65,895
1051938,217508,188264,222264,189496,3041,719,-1294,2433,-312,1555,1494,3545,30,50,895
1052938,217684,188508,222461,189693,3126,1123,-1494,2492,-360,1490,1535,4023,30,50,895
1053939,217832,188736,222658,189890,3323,1210,-1700,2673,-496,1416,1583,4242,29,55,897
1054940,218012,188940,222855,190087,3131,1357,-1904,2902,-715,1327,1763,4429,29,55,897
1055941,218164,189172,223052,190284,3327,1166,-2116,3178,-964,1220,1819,4661,45,52,894
1056942,218320,189428,223249,190481,3321,991,-2305,3447,-1201,1075,1753,4482,45,52,894
1057944,218472,189632,223446,190678,3366,1313,-2447,3637,-1419,853,1500,4351,22,48,893
1058945,218624,189848,223643,190875,3387,1230,-2555,3753,-1635,696,1216,4248,22,48,893
1059946,218760,190032,223840,191072,3515,1436,-2621,3812,-1859,577,1068,3904,28,37,892
1060947,218932,190216,224037,191269,3302,1441,-2637,3716,-2083,592,979,3520,28,37,892
1061948,219100,190388,224234,191466,3341,1528,-2634,3526,-2322,582,1303,3512,39,41,890
1062949,219268,190580,224431,191663,3354,1405,-2648,3390,-2552,571,1410,3675,39,41,890
1063949,219424,190788,224628,191860,3448,1301,-2653,3221,-2729,639,1308,3415,37,33,892
1064950,219588,190964,224825,192057,3414,1510,-2630,3011,-2849,716,908,3266,37,33,892
1065952,219736,191148,225022,192254,3536,1467,-2568,2701,-2904,659,596,3036,36,32,892
1066953,219860,191336,225219,192451,3720,1445,-2490,2319,-2909,588,715,3129,36,32,892
1067954,219988,191536,225416,192648,3726,1369,-2424,2025,-2886,522,885,3363,39,32,890
1068967,220104,191720,225613,192845,3800,1475,-2373,1826,-2855,337,1002,3757,39,32,890
1069968,220224,191892,225810,193042,3800,1561,-2339,1830,-2855,120,1055,4311,30,48,888
1070969,220332,192084,226007,193239,3800,1439,-2309,1924,-2916,-253,1092,4564,30,48,888
1071970,220424,192268,226204,193436,3800,1495,-2231,2015,-3039,-631,860,4437,33,32,886
1072971,220532,192460,226401,193633,3800,1447,-2103,2061,-3184,-955,218,4359,33,32,886
1073973,220664,192676,226598,193830,3800,1289,-1945,2019,-3305,-1243,127,4151,23,43,887
1074973,220776,192856,226795,194027,3800,1521,-1804,1906,-3357,-1358,303,4092,23,43,887
1075974,220920,192992,226992,194224,3800,1824,-1700,1825,-3329,-1302,235,4202,30,28,888
1076975,221076,193132,227189,194421,3800,1824,-1606,1788,-3260,-1338,41,4388,30,28,888
1077976,221216,193300,227386,194618,3800,1662,-1514,1782,-3182,-1549,-92,4459,43,30,884
1078977,221384,193484,227583,194815,3800,1567,-1390,1722,-3127,-1877,-744,4196,43,30,884
1079978,221556,193660,227780,195012,3800,1628,-1223,1518,-3119,-2184,-1242,3939,32,43,887
1080979,221728,193844,227977,195209,3800,1583,-1066,1223,-3118,-2172,-1125,3716,32,43,887
1081980,221888,194028,228174,195406,3800,1589,-954,912,-3046,-1883,-804,3725,36,35,887
1082969,222088,194232,228371,195603,3669,1461,-876,609,-2872,-1569,-733,3847,36,35,887
1083970,222300,194400,228568,195800,3588,1700,-811,398,-2650,-1636,-537,4194,40,52,886
1084971,222504,194612,228765,195997,3636,1418,-744,222,-2491,-1907,-436,4234,40,52,886
1085971,222748,194788,228962,196194,3367,1652,-648,-59,-2405,-1988,-809,4072,37,50,889
1086972,222984,194948,229159,196391,3401,1769,-527,-333,-2306,-2026,-1163,4096,37,50,889
1087973,223184,195108,229356,196588,3626,1786,-398,-610,-2141,-1894,-1118,3946,47,43,891
1088974,223424,195244,229553,196785,3358,1963,-273,-1010,-1946,-1635,-951,3722,47,43,891
1089975,223624,195384,229750,196982,3608,1963,-148,-1373,-1726,-1297,-937,4004,47,24,888
1090984,223828,195492,229980,197212,3596,2217,-26,-1603,-1494,-1166,-906,4320,47,24,888
1091977,224052,195616,230177,197409,3460,2149,74,-1754,-1273,-1140,-799,4599,54,32,888
1092979,224272,195720,230374,197606,3476,2315,165,-1842,-1051,-1046,-604,4820,54,32,888
1093979,224464,195840,230571,197803,3654,2250,250,-1847,-836,-768,-484,5076,52,38,886
1094981,224660,195960,230768,198000,3631,2284,323,-1742,-653,-513,-477,5229,52,38,886
1095981,224872,196092,230965,198197,3525,2238,392,-1685,-495,-451,-370,5156,31,20,885
1096983,225092,196204,231162,198394,3467,2401,468,-1591,-348,-237,-250,5358,31,20,885
1097983,225304,196328,231359,198591,3511,2358,515,-1332,-239,3,-20,5895,51,19,886
1098985,225528,196428,231556,198788,3426,2552,527,-987,-172,52,280,6012,51,19,886
1099985,225716,196532,231753,198985,3655,2567,536,-679,-154,169,563,5745,31,30,886
1100986,225888,196612,231950,199182,3767,2770,569,-474,-183,358,739,5361,31,30,886
1101987,226080,196700,232147,199379,3646,2768,613,-355,-242,457,730,5231,30,17,883
1102988,226252,196808,232344,199576,3783,2683,664,-281,-328,371,609,4865,30,17,883
1103989,226440,196872,232541,199773,3689,3016,734,-365,-432,360,440,4358,30,31,880
1104991,226624,196972,232738,199970,3720,2835,808,-478,-515,497,314,4499,30,31,880
1105991,226816,197044,232935,200167,3674,3065,871,-521,-585,560,249,4414,43,24,878
1107005,226968,197132,233132,200364,3800,3014,929,-621,-652,485,72,4040,43,24,878
1107993,227172,197204,233329,200561,3617,3169,985,-752,-716,385,-55,3924,31,15,878
1108994,227360,197304,233526,200758,3722,3037,1038,-1004,-763,422,-43,3526,31,15,878
1109995,227572,197400,233723,200955,3568,3108,1079,-1255,-773,525,-11,3495,37,28,879
1110996,227788,197504,233920,201152,3535,3099,1068,-1450,-724,509,-142,3712,37,28,879
1111997,227996,197616,234117,201349,3581,3087,1020,-1561,-626,518,-159,3935,37,27,880
1112999,228188,197728,234314,201546,3685,3125,945,-1531,-509,495,-186,4317,37,27,880
1113999,228412,197860,234511,201743,3474,3030,899,-1485,-406,258,-48,4070,42,38,880
1115000,228616,197984,234708,201940,3597,3112,906,-1553,-359,48,124,3722,42,38,880
1116001,228800,198096,234905,202137,3729,3225,921,-1616,-368,-113,230,3722,53,26,879
1117002,228984,198240,235102,202334,3736,3050,928,-1637,-374,-299,291,3825,53,26,879
1118003,229184,198368,235299,202531,3636,3181,922,-1620,-348,-314,327,3901,54,26,878
1119004,229376,198500,235496,202728,3689,3185,906,-1585,-308,-317,405,3971,54,26,878
1120005,229556,198668,235693,202925,3772,2973,881,-1463,-264,-308,469,4176,36,40,879
1121006,229756,198824,235890,203122,3647,3067,852,-1295,-226,-348,445,4039,36,40,879
1122020,229932,198996,236087,203319,3800,2979,834,-1219,-205,-478,348,3912,39,41,879
1123009,230116,199192,236284,203516,3765,2831,817,-1160,-171,-346,364,3918,39,41,879
1124010,230340,199368,236481,203713,3504,2965,789,-1096,-113,-185,537,3909,46,47,878
1125024,230512,199556,236678,203910,3800,2895,742,-1051,-48,-38,638,3741,46,47,878
1126012,230700,199752,236875,204107,3746,2846,671,-1073,15,118,775,3660,47,43,880
1127013,230912,199992,237072,204304,3591,2553,593,-1089,95,327,834,3564,47,43,880
1128026,231080,200204,237269,204501,3800,2723,520,-1138,187,466,841,3450,44,39,878
1129015,231292,200432,237466,204698,3600,2610,444,-1212,266,518,731,3409,44,39,878
1130016,231524,200648,237663,204895,3460,2677,372,-1363,319,503,714,3255,36,52,882
1131016,231748,200852,237860,205092,3499,2750,287,-1498,346,502,752,3332,36,52,882
1132018,232004,201052,238057,205289,3275,2774,197,-1619,335,411,724,3205,59,41,884
1133019,232276,201308,238254,205486,3143,2400,92,-1802,274,335,687,3193,59,41,884
1134020,232512,201560,238451,205683,3352,2401,-36,-1888,182,305,639,3454,40,52,885
1135021,232748,201808,238648,205880,3336,2404,-170,-1970,62,228,562,3309,40,52,885
1136022,233028,202072,238845,206077,3026,2276,-308,-2132,-68,273,368,3243,61,60,888
1137023,233340,202360,239042,206274,2776,2087,-456,-2237,-167,205,313,3401,61,60,888
1138024,233640,202636,239239,206471,2807,2128,-604,-2436,-241,170,303,3162,69,68,888
1139025,233948,202940,239436,206668,2709,1906,-738,-2653,-330,141,268,3000,69,68,888
1140026,234280,203248,239633,206865,2501,1833,-855,-2925,-408,1,161,2930,52,53,892
1141027,234640,203516,239830,207062,2255,2053,-943,-3272,-474,-55,245,2829,52,53,892
1142028,235040,203808,240027,207259,1917,1862,-1006,-3625,-557,38,490,2548,57,66,896
1143029,235400,204104,240224,207456,2096,1794,-1043,-4053,-617,107,535,2499,57,66,896
1144030,235796,204400,240421,207653,1785,1751,-1077,-4553,-581,152,121,2598,75,62,899
1145031,236216,204720,240618,207850,1538,1547,-1152,-4909,-438,286,-543,2983,75,62,899
1146032,236572,204984,240815,208047,1869,1869,-1236,-5157,-220,213,-883,3076,65,68,901
1147033,236952,205280,241012,208244,1640,1626,-1308,-5441,9,-42,-1247,3180,65,68,901
1148034,237316,205560,241209,208441,1666,1690,-1393,-5638,196,-167,-1447,3585,78,66,900
1149035,237728,205804,241406,208638,1273,1895,-1442,-5843,349,-368,-1326,3309,78,66,900
1150036,238088,206060,241603,208835,1527,1794,-1446,-6041,497,-269,-1244,3568,69,47,902
1151037,238440,206324,241800,209032,1509,1716,-1466,-6069,675,6,-1379,4172,69,47,902
1152038,238800,206564,241997,209229,1388,1847,-1481,-6046,858,133,-1266,4087,58,45,902
1153039,239116,206816,242194,209426,1612,1748,-1463,-6117,1031,317,-1148,3889,58,45,902
1154039,239436,207044,242391,209623,1533,1885,-1404,-6205,1196,396,-1053,3983,63,55,902
1155041,239764,207244,242588,209820,1427,2060,-1348,-6217,1361,419,-879,4328,63,55,902
1156042,240080,207528,242785,210017,1449,1496,-1264,-6181,1513,556,-738,4156,57,48,902
1157043,240384,207752,242982,210214,1478,1860,-1165,-6161,1644,824,-548,4201,57,48,902
1158044,240692,208012,243179,210411,1404,1608,-1077,-6017,1778,1057,-669,4625,66,59,904
1159045,240988,208268,243376,210608,1437,1608,-979,-5906,1903,1154,-753,4318,66,59,904
1160046,241276,208492,243573,210805,1447,1796,-825,-5954,2010,1206,-505,3799,64,53,902
1161047,241600,208696,243770,211002,1167,1919,-667,-5982,2125,1300,-452,4307,64,53,902
1162048,241880,208936,243967,211199,1406,1675,-621,-5732,2303,1467,-826,5166,52,41,902
1163049,242140,209128,244164,211396,1504,1977,-626,-5395,2527,1518,-1060,4959,52,41,902
1164050,242472,209336,244361,211593,995,1873,-610,-5089,2712,1402,-980,4724,74,42,902
1165051,242764,209556,244558,211790,1203,1788,-579,-4769,2833,1460,-933,4746,74,42,902
1166052,243060,209780,244755,211987,1135,1752,-556,-4419,2907,1468,-1197,4767,50,52,903
1167053,243364,210024,244952,212184,1038,1607,-545,-4039,2927,1216,-1299,4877,50,52,903
1168054,243656,210220,245149,212381,1072,1908,-543,-3554,2945,1064,-1530,5204,48,45,903
1169055,243932,210444,245346,212578,1138,1721,-564,-2987,3010,927,-1942,5258,48,45,903
1170056,244208,210660,245543,212775,1103,1763,-609,-2364,3123,796,-2246,5421,62,49,905
1171057,244424,210864,245740,212972,1470,1836,-701,-1614,3229,585,-2353,5822,62,49,905
1172058,244660,211056,245937,213169,1328,1913,-798,-943,3280,430,-2280,5449,40,47,903
1173059,244868,211272,246134,213366,1499,1756,-879,-443,3316,518,-2225,5080,40,47,903
1174067,245072,211476,246364,213596,1535,1842,-945,-2,3381,714,-2153,4912,50,53,901
1175061,245252,211632,246561,213793,1693,2160,-1015,352,3490,866,-2338,4630,50,53,901
1176061,245452,211808,246758,213990,1566,2045,-1074,603,3593,987,-2283,4179,30,45,902
1177063,245584,211972,246955,214187,2021,2135,-1102,705,3654,941,-2145,3678,30,45,902
1178064,245696,212196,247152,214384,2183,1749,-1089,622,3671,878,-2092,3287,33,42,898
1179064,245804,212408,247349,214581,2247,1817,-1056,495,3675,993,-2254,3303,33,42,898
1180065,245928,212600,247546,214778,2180,1945,-1007,346,3689,1106,-2456,3290,34,46,897
1181067,246040,212788,247743,214975,2293,1975,-959,237,3704,1237,-2634,3314,34,46,897
1182067,246184,212956,247940,215172,2116,2112,-892,125,3727,1319,-2883,3043,24,44,896
1183068,246304,213112,248137,215369,2300,2206,-818,-91,3771,1318,-3048,3012,24,44,896
1184069,246408,213312,248334,215566,2442,1930,-767,-219,3836,1291,-3124,3557,29,30,895
1185071,246488,213528,248531,215763,2643,1823,-729,-243,3877,1211,-2934,3770,29,30,895
1186071,246568,213736,248728,215960,2695,1868,-701,-179,3849,1043,-2704,4056,9,33,895
1187072,246624,213932,248925,216157,2908,1943,-693,10,3761,1051,-2597,4560,9,33,895
1188073,246668,214104,249122,216354,3050,2105,-691,281,3642,1235,-2511,4605,16,31,894
1189075,246732,214284,249319,216551,2984,2063,-705,636,3524,1583,-2901,4953,16,31,894
1190076,246772,214448,249516,216748,3203,2178,-455,502,2867,4309,-8770,6337,15,44,891
1191077,246804,214628,249713,216945,3327,2086,-110,447,2184,3584,-6870,7016,15,44,891
1192077,246864,214836,249910,217142,3212,1907,-113,979,2052,2146,-2845,6088,21,31,890
1193079,246952,215012,250107,217339,3086,2116,-238,1589,2139,2119,-2125,5646,21,31,890
1194080,247044,215192,250304,217536,3108,2099,-274,2127,2133,2001,-1035,5450,21,35,887
1195081,247180,215408,250501,217733,2860,1866,-206,2406,1974,2311,-680,4886,21,35,887
1196082,247316,215592,250698,217930,2888,2072,-112,2619,1783,2373,-608,4800,33,50,889
1197083,247500,215800,250895,218127,2593,1918,-53,2841,1689,2142,-788,4994,33,50,889
1198084,247684,216012,251092,218324,2600,1887,-28,3082,1644,1988,-1199,4909,25,45,893
1199085,247852,216284,251289,218521,2714,1480,-63,3377,1605,1619,-1767,5208,25,45,893
1200085,247992,216612,251486,218718,2914,1072,-119,3690,1578,818,-2318,5369,48,63,894
1201087,248160,216896,251683,218915,2753,1309,-144,3808,1502,524,-2034,4430,48,63,894
1202088,248332,217140,251880,219112,2740,1539,-68,3671,1353,785,-1332,3668,48,60,896
1203089,248508,217420,252077,219309,2724,1278,105,3291,1206,1315,-842,3079,48,60,896
1204089,248728,217728,252274,219506,2440,1055,317,2841,1116,1610,-1157,2777,36,64,896
1205091,248968,218028,252471,219703,2297,1060,501,2436,1096,1083,-1961,2864,36,64,896
1206092,249216,218320,252668,219900,2224,1068,603,2265,1145,-63,-3024,3822,55,70,898
1207093,249472,218580,252865,220097,2150,1241,649,2319,1222,-847,-3226,4112,55,70,898
1208093,249752,218868,253062,220294,1964,1026,720,2334,1214,-1463,-2388,3698,68,65,901
1209095,250008,219148,253259,220491,2088,1040,893,2096,1069,-1314,-841,2820,68,65,901
1210096,250288,219428,253456,220688,1903,1003,1157,1537,809,-544,334,2033,50,50,902
1211097,250568,219720,253653,220885,1867,887,1440,937,566,-213,416,1866,50,50,902
1212098,250840,219968,253850,221082,1884,1140,1692,469,495,-554,-93,2363,48,44,903
1213099,251084,220264,254047,221279,2040,797,1885,226,595,-1228,-864,2966,48,44,903
1214100,251376,220624,254244,221476,1698,325,2036,192,760,-1683,-1421,3268,51,47,905
1215101,251648,221004,254441,221673,1791,119,2184,204,901,-1606,-1403,3150,51,47,905
1216102,251904,221240,254638,221870,1865,1003,2388,104,953,-1403,-997,2441,53,48,903
1217103,252220,221416,254835,222067,1439,1388,2627,-161,936,-1589,-942,2140,53,48,903
1218104,252484,221572,255032,222264,1734,1531,2876,-344,924,-1896,-1046,2482,50,43,908
1219105,252776,221836,255229,222461,1518,826,3073,-334,961,-2002,-1202,2784,50,43,908
1220105,253084,222132,255426,222658,1370,583,3218,-155,1027,-1669,-1227,2905,61,49,905
1221106,253376,222380,255623,222855,1429,860,3312,145,1118,-1162,-1249,3055,61,49,905
1222108,253620,222652,255820,223052,1708,677,3360,505,1267,-963,-1326,3279,63,46,907
1223109,253900,222860,256017,223249,1448,1072,3401,942,1447,-1181,-1397,3334,63,46,907
1224109,254192,223080,256214,223446,1331,987,3457,1292,1607,-1367,-1481,2967,67,57,907
1225111,254452,223324,256411,223643,1503,817,3554,1492,1698,-1068,-1323,2312,67,57,907
1226112,254720,223540,256608,223840,1423,983,3625,1587,1741,-452,-1070,2138,62,38,906
1227113,254948,223772,256805,224037,1660,869,3648,1817,1788,-50,-1015,2546,62,38,906
1228114,255164,224012,257002,224234,1726,800,3664,2061,1842,75,-990,2228,54,40,907
1229114,255396,224252,257199,224431,1612,781,3672,2257,1879,499,-908,1978,54,40,907
1230116,255628,224528,257396,224628,1596,521,3648,2395,1912,992,-794,1847,38,52,907
1231116,255872,224784,257593,224825,1502,621,3598,2455,1947,1126,-871,1607,38,52,907
1232117,256116,224956,257790,225022,1481,1157,3590,2413,1971,966,-961,1302,35,39,907
1233119,256312,225000,257987,225219,1782,2024,3609,2401,1965,790,-830,1359,35,39,907
1234120,256512,225208,258184,225416,1755,994,3596,2451,1896,969,-469,1433,31,37,908
1235121,256708,225440,258381,225613,1782,829,3504,2533,1741,1377,-141,1669,31,37,908
1236121,256952,225620,258578,225810,1461,1161,3365,2715,1539,1652,-114,1751,47,38,899
1237122,257216,225844,258775,226007,1307,874,3192,2902,1311,1592,101,1930,47,38,899
1238124,257444,226064,258972,226204,1519,889,2684,3466,782,471,-59,2110,51,53,905
1239125,257656,226304,259169,226401,1612,745,2455,3694,448,301,132,1657,51,53,905
1240125,257844,226516,259366,226598,1766,914,2232,3727,57,464,800,1299,44,36,907
1241127,258044,226696,259563,226795,1691,1121,1971,3625,-351,468,1096,1128,44,36,907
1242128,258268,226868,259760,226992,1529,1182,1672,3560,-742,199,734,1268,58,33,907
1243128,258520,227020,259957,227189,1330,1327,1290,3526,-1150,-565,258,1437,58,33,907
1244129,258748,227228,260154,227386,1466,972,831,3585,-1558,-1088,-173,1967,43,30,905
1245130,258980,227400,260351,227583,1427,1208,303,3738,-1977,-1066,200,2175,43,30,905
1246132,259180,227568,260548,227780,1626,1246,-241,3665,-2400,-685,746,1429,34,43,906
1247132,259376,227796,260745,227977,1651,857,-747,3313,-2760,-217,911,1012,34,43,906
1248133,259624,228000,260942,228174,1304,1004,-1220,2783,-3063,-39,878,774,48,45,904
1249135,259852,228168,261139,228371,1416,1242,-1684,2225,-3321,-269,631,1013,48,45,904
1250136,260020,228344,261336,228568,1804,1201,-2103,1698,-3474,-689,-61,1178,53,29,905
1251137,260232,228536,261533,228765,1522,1103,-2506,1137,-3513,-732,-568,1046,53,29,905
1252137,260392,228720,261730,228962,1863,1159,-2836,396,-3487,-296,-434,359,27,38,906
1253138,260576,228900,261927,229159,1720,1191,-3102,-626,-3429,73,-186,52,27,38,906
1254140,260776,229056,262124,229356,1619,1359,-3358,-1641,-3344,275,-278,523,46,28,905
1255141,261028,229252,262321,229553,1270,1110,-3614,-2440,-3193,-83,-1021,1441,46,28,905
1256142,261256,229408,262518,229750,1406,1378,-3887,-3013,-2980,-564,-1342,2193,40,37,905
1257152,261432,229556,262748,229980,1756,1465,-4201,-3331,-2680,-549,-1534,3006,40,37,905
1258144,261612,229668,262945,230177,1738,1727,-4396,-3795,-2426,-336,-1062,2043,30,36,907
1259145,261776,229800,263142,230374,1853,1631,-4454,-4475,-2320,-41,-541,2066,30,36,907
1260146,261952,229924,263339,230571,1787,1713,-4496,-5083,-2278,372,-507,2825,46,29,902
1261147,262168,230100,263536,230768,1530,1397,-4612,-5344,-2209,664,-791,3988,46,29,902
1262148,262400,230268,263733,230965,1414,1460,-4866,-5156,-2064,754,-951,5440,54,27,901
1263149,262624,230420,263930,231162,1452,1580,-5056,-4816,-1888,660,-982,5586,54,27,901
1264150,262800,230576,264127,231359,1763,1573,-5158,-4310,-1721,773,-1027,6286,45,39,904
1265151,262988,230732,264324,231556,1692,1591,-5194,-3889,-1579,1080,-810,6245,45,39,904
1266151,263152,230892,264521,231753,1856,1583,-5197,-3468,-1492,1557,-300,6523,27,40,904
1267153,263392,231028,264718,231950,1362,1760,-5063,-2920,-1479,2242,85,7794,27,40,904
1268153,263584,231156,264915,232147,1665,1840,-2048,2990,-1682,7913,-2284,32767,27,28,902
1269155,263788,231280,265112,232344,1587,1897,1642,9043,-2043,6656,-1214,30248,27,28,902
1270155,264036,231428,265309,232541,1290,1769,3084,10045,-2301,2855,1162,1884,51,22,902
1271157,264208,231580,265506,232738,1776,1764,2590,7441,-2468,3142,1500,278,51,22,902
1272157,264420,231740,265703,232935,1520,1731,2023,4622,-2489,3960,576,-854,53,36,900
1273159,264620,231900,265900,233132,1594,1747,1627,2839,-2214,4171,-862,411,53,36,900
1274160,264824,232040,266097,233329,1566,1897,1432,1411,-1864,3889,-558,-742,47,37,901
1275161,265020,232180,266294,233526,1616,1922,1107,-24,-1691,4109,-223,251,47,37,901
1276161,265236,232324,266491,233723,1483,1921,747,-1355,-1624,3471,-346,-36,29,20,902
1277163,265440,232476,266688,233920,1556,1891,402,-2862,-1615,2668,-245,81,29,20,902
1278163,265632,232600,266885,234117,1633,2098,100,-3856,-1673,2548,-766,1894,28,26,901
1279165,265860,232724,267082,234314,1395,2131,-303,-4431,-1611,1916,-1695,2917,28,26,901
1280166,266076,232896,267279,234511,1461,1842,-735,-4416,-1472,1595,-2057,4697,29,33,902
1281167,266308,233080,267476,234708,1347,1773,-1162,-4085,-1410,1260,-1762,4919,29,33,902
1282167,266568,233260,267673,234905,1144,1805,-1438,-3853,-1404,604,-1086,5248,47,27,899
1283169,266768,233416,267870,235102,1518,1974,-1602,-3333,-1393,434,-925,6292,47,27,899
1284169,266988,233580,268067,235299,1383,1939,-1566,-2885,-1369,367,-512,5369,40,27,903
1285171,267228,233716,268264,235496,1239,2141,-1403,-2616,-1294,164,-314,5624,40,27,903
1286171,267416,233872,268461,235693,1569,2035,-1228,-2131,-1163,345,-145,6235,31,38,901
1287173,267648,234012,268658,235890,1278,2160,-1057,-1678,-1014,535,166,5827,31,38,901
1288173,267864,234172,268855,236087,1370,2051,-876,-1162,-875,526,537,5929,35,34,901
1289175,268076,234324,269052,236284,1388,2122,-674,-786,-763,458,954,5149,35,34,901
1290176,268260,234452,269249,236481,1569,2302,-471,-578,-664,463,911,4778,49,37,901
1291177,268468,234572,269446,236678,1415,2387,-317,-260,-537,400,769,5070,49,37,901
1292178,268684,234712,269643,236875,1357,2287,-201,-4,-379,302,716,4573,30,28,899
1293179,268888,234848,269840,237072,1429,2339,-143,244,-205,410,547,4626,30,28,899
1294180,269064,235004,270037,237269,1613,2233,-168,516,-9,370,494,4442,34,28,898
1295181,269244,235152,270234,237466,1596,2304,-194,588,151,330,777,3736,34,28,898
1296182,269432,235296,270431,237663,1551,2354,-235,654,256,439,840,3590,46,25,899
1297183,269600,235408,270628,237860,1688,2591,-272,574,344,348,846,3122,46,25,899
1298183,269776,235532,270825,238057,1647,2549,-342,481,438,395,692,3217,22,38,898
1299185,269944,235696,271022,238254,1710,2314,-454,498,525,352,351,3427,22,38,898
1300185,270104,235812,271219,238451,1776,2650,-587,518,619,58,8,3354,43,29,895
1301187,270276,235948,271416,238648,1713,2552,-715,626,706,72,-193,3636,43,29,895
1302187,270436,236088,271613,238845,1805,2553,-838,765,783,154,-305,3667,26,25,897
1303189,270612,236240,271810,239042,1714,2498,-929,864,881,202,-378,3766,26,25,897
1304189,270788,236404,272007,239239,1723,2438,-971,892,996,354,-472,3460,25,42,894
1305191,270944,236616,272204,239436,1866,2132,-906,645,1111,433,-467,2610,25,42,894
1306192,271112,236780,272401,239633,1805,2447,-762,329,1224,550,-332,2638,24,37,897
1307193,271280,236916,272598,239830,1818,2649,-598,39,1327,665,-335,2898,24,37,897
1308194,271428,237080,272795,240027,1964,2490,-455,-67,1419,694,-374,3609,20,32,898
1309194,271572,237248,272992,240224,2013,2477,-352,202,1509,623,-479,4749,20,32,898
1310195,271728,237440,273189,240421,1957,2331,-250,631,1605,558,-618,5366,29,27,894
1311196,271868,237620,273386,240618,2082,2414,155,1607,1745,721,-1609,10386,29,27,894
1312197,272012,237816,273583,240815,2080,2314,891,3203,1911,761,-2335,13788,26,37,894
1313199,272176,237992,273780,241012,1970,2450,1326,3811,2017,406,-1417,4856,26,37,894
1314199,272348,238148,273977,241209,1931,2593,1421,3664,2029,506,-1203,4029,29,30,894
1315200,272488,238296,274174,241406,2156,2665,1407,3290,2004,633,-1247,3739,29,30,894
1316201,272656,238496,274371,241603,1995,2339,1410,3150,1982,800,-1535,4226,32,47,894
1317202,272796,238684,274568,241800,2195,2419,1393,3211,1945,720,-1735,4415,32,47,894
1318203,272940,238840,274765,241997,2194,2638,1332,3325,1873,663,-1580,4300,41,42,893
1319204,273108,239004,274962,242194,2057,2602,1214,3376,1762,722,-1313,4102,41,42,893
1320205,273280,239204,275159,242391,2043,2377,1081,3295,1629,789,-1066,3820,23,47,895
1321207,273424,239408,275356,242588,2242,2349,921,3204,1497,872,-921,3774,23,47,895
1322208,273584,239600,275553,242785,2159,2427,758,3114,1355,828,-1049,3682,33,34,894
1323209,273788,239788,275750,242982,1881,2457,584,2958,1190,664,-1119,3578,33,34,894
1324210,273944,239968,275947,243179,2199,2515,409,2802,1012,490,-1231,3675,43,35,894
1325211,274104,240132,276144,243376,2191,2630,223,2706,828,225,-1433,3743,43,35,894
1326212,274276,240304,276341,243573,2127,2591,50,2639,652,-87,-1648,3851,36,39,895
1327212,274416,240532,276538,243770,2353,2228,-95,2588,519,-359,-1839,3918,36,39,895
1328214,274564,240748,276735,243967,2325,2296,-177,2507,444,-590,-2132,3859,25,46,891
1329215,274756,240928,276932,244164,2052,2529,-197,2331,416,-847,-2143,3636,25,46,891
1330216,274928,241104,277129,244361,2189,2564,-170,2019,421,-1110,-2079,3383,39,52,895
1331217,275104,241312,277326,244558,2173,2360,-116,1681,449,-1326,-2101,3377,39,52,895
1332217,275320,241512,277523,244755,1916,2409,-56,1400,490,-1563,-2129,3527,36,49,895
1333219,275508,241700,277720,244952,2095,2489,23,1135,543,-1756,-2255,3586,36,49,895
1334219,275664,241920,277917,245149,2313,2278,128,809,630,-1817,-2398,3498,47,33,895
1335220,275840,242080,278114,245346,2198,2671,262,445,785,-1753,-2495,3552,47,33,895
1336221,276012,242264,278311,245543,2234,2527,422,110,1025,-1746,-2416,3720,46,35,893
1337223,276180,242468,278508,245740,2273,2399,616,-215,1301,-1766,-2174,3888,46,35,893
1338224,276356,242660,278705,245937,2232,2478,823,-438,1553,-1850,-1930,4250,25,43,890
1339225,276520,242864,278902,246134,2322,2401,1152,-448,1807,-1907,-1803,6145,25,43,890
1340233,276700,243056,279132,246364,2244,2492,1672,-134,2081,-1787,-1599,8849,31,35,894
1341227,276908,243256,279329,246561,2065,2442,2092,-45,2347,-1539,-1493,5452,31,35,894
1342228,277060,243456,279526,246758,2435,2441,2260,-254,2593,-1304,-1272,3922,29,47,894
1343228,277212,243720,279723,246955,2455,2012,2297,-580,2828,-1103,-1005,3905,29,47,894
1344230,277336,243928,279920,247152,2663,2358,2315,-768,3053,-1017,-707,4122,22,37,895
1345231,277480,244152,280117,247349,2561,2246,2340,-784,3253,-1013,-298,4412,22,37,895
1346232,277620,244376,280314,247546,2612,2236,2350,-652,3418,-982,-68,4671,22,50,894
1347233,277736,244592,280511,247743,2798,2277,2350,-472,3557,-1040,37,4846,22,50,894
1348233,277868,244812,280708,247940,2728,2243,2323,-192,3649,-1176,126,5257,39,41,892
1349235,277992,245016,280905,248137,2810,2341,2298,121,3719,-1170,103,5244,39,41,892
1350235,278096,245256,281102,248334,2976,2097,2308,401,3757,-1235,26,5087,33,45,891
1351236,278220,245524,281299,248531,2885,1892,2342,703,3735,-1311,81,5221,33,45,891
1352238,278372,245780,281496,248728,2729,1941,2379,968,3636,-1263,303,5020,46,42,891
1353239,278536,246012,281693,248925,2670,2077,2422,1148,3498,-1151,332,4672,46,42,891
1354239,278704,246248,281890,249122,2658,2035,2504,1084,3382,-898,313,4149,28,41,893
1355240,278872,246504,282087,249319,2671,1885,2618,1035,3299,-570,254,4196,28,41,893
1356241,279024,246764,282284,249516,2792,1833,2764,1011,3209,-525,358,3936,46,59,894
1357242,279180,247020,282481,249713,2785,1832,2934,841,3055,-399,582,3484,46,59,894
1358243,279308,247276,282678,249910,2991,1807,3096,632,2800,-171,1016,3374,30,51,893
1359244,279440,247592,282875,250107,2996,1380,3247,372,2474,-132,1253,3147,30,51,893
1360245,279588,247736,283072,250304,2918,2479,3369,117,2146,67,1184,3249,22,38,892
1361247,279724,247848,283269,250501,3020,2716,3426,-20,1823,201,1112,3537,22,38,892
1362247,279856,247952,283466,250698,3074,2808,3410,-78,1514,142,877,3739,27,34,894
1363249,279988,248080,283663,250895,3103,2689,3354,-72,1213,220,808,3670,27,34,894
1364249,280136,248220,283860,251092,3026,2640,3269,-105,898,216,948,3601,22,37,886
1365250,280256,248404,284057,251289,3236,2370,3183,-188,621,236,904,3395,22,37,886
1366251,280404,248600,284254,251486,3082,2297,3086,-228,373,132,807,3412,20,32,886
1367252,280516,248816,284451,251683,3346,2163,2957,-280,112,25,960,3412,20,32,886
1368253,280664,249088,284648,251880,3143,1781,2762,-179,-177,139,1261,4195,43,55,885
1369255,280812,249316,284845,252077,3166,2043,2474,249,-446,344,1084,4931,43,55,885
1370256,280972,249620,285042,252274,3107,1522,2121,691,-648,639,1126,4749,32,54,887
1371256,281128,249932,285239,252471,3151,1421,1708,1143,-789,815,1176,5004,32,54,887
1372257,281260,250236,285436,252668,3331,1425,1309,1522,-933,813,1242,4576,26,59,889
1373259,281428,250508,285633,252865,3119,1592,945,1698,-1086,997,1236,3966,26,59,889
1374259,281584,250820,285830,253062,3212,1293,632,1741,-1174,1171,1285,3724,32,61,893
1375260,281752,251160,286027,253259,3151,1055,323,1766,-1220,1234,1548,3942,32,61,893
1376261,281908,251500,286224,253456,3245,993,-1,1966,-1270,1418,1883,4172,44,78,893
1377263,282068,251792,286421,253653,3237,1251,-292,2100,-1312,1368,1948,3809,44,78,893
1378263,282244,252136,286618,253850,3148,862,-518,2221,-1305,1349,1784,3690,49,72,895
1379264,282428,252464,286815,254047,3104,905,-704,2267,-1247,1396,1590,3556,49,72,895
1380265,282600,252756,287012,254244,3190,1088,-869,2257,-1184,1244,1599,3451,52,61,892
1381266,282760,253060,287209,254441,3283,966,-1029,2289,-1158,1058,1697,3573,52,61,892
1382267,282948,253356,287406,254638,3113,974,-1165,2380,-1157,906,1590,3648,32,69,893
1383268,283120,253664,287603,254835,3225,850,-1274,2530,-1141,863,1512,4046,32,69,893
1384269,283288,253960,287800,255032,3263,882,-1380,2851,-1161,692,1710,4463,48,53,894
1385271,283456,254200,287997,255229,3277,1213,-1471,3246,-1245,554,1739,4516,48,53,894
1386272,283616,254384,288194,255426,3344,1568,-1544,3627,-1347,507,1509,4439,47,50,895
1387273,283768,254656,288391,255623,3414,986,-1586,3924,-1439,470,1368,4351,47,50,895
1388274,283928,254904,288588,255820,3381,1114,-1617,4246,-1560,296,1461,4423,32,41,893
1389275,284060,255136,288785,256017,3586,1199,-1641,4556,-1733,69,1625,4387,32,41,893
1390276,284180,255352,288982,256214,3696,1290,-1652,4841,-1942,-20,1685,4354,30,40,892
1391277,284336,255552,289179,256411,3490,1389,-1659,5134,-2118,60,1632,4339,30,40,892
1392278,284492,255756,289376,256608,3509,1361,-1650,5349,-2238,75,1541,3977,35,37,889
1393279,284652,255932,289573,256805,3501,1546,-1617,5398,-2333,87,1511,3512,35,37,889
1394280,284840,256096,289770,257002,3331,1636,-1562,5275,-2405,214,1338,3163,30,43,891
1395281,285012,256308,289967,257199,3443,1329,-1506,5029,-2429,326,1278,2900,30,43,891
1396282,285148,256500,290164,257396,3696,1456,-1446,4766,-2426,386,1361,2773,34,42,890
1397283,285284,256708,290361,257593,3724,1351,-1396,4476,-2445,360,1444,2799,34,42,890
1398296,285408,256904,290558,257790,3800,1427,-1370,4254,-2522,343,1679,3007,31,48,891
1399297,285524,257096,290755,257987,3800,1455,-1354,4107,-2651,204,1824,2998,31,48,891
1400298,285628,257272,290952,258184,3800,1564,-1339,3870,-2803,-41,1868,2945,13,35,888
1401299,285728,257464,291149,258381,3800,1466,-1304,3611,-2914,-216,1667,2825,13,35,888
1402300,285816,257652,291346,258578,3800,1495,-1256,3324,-2985,-378,1433,2794,12,34,886
1403301,285892,257872,291543,258775,3800,1285,-1217,3085,-3046,-608,1224,2989,12,34,886
1404302,285984,258080,291740,258972,3800,1355,-1202,2924,-3118,-886,1047,3365,11,47,885
1405303,286088,258256,291937,259169,3800,1566,-1216,2872,-3214,-1241,740,3653,11,47,885
1406304,286168,258436,292134,259366,3800,1548,-1258,2863,-3316,-1584,293,3886,33,34,887
1407305,286288,258592,292331,259563,3800,1716,-1313,2888,-3387,-1890,-178,3934,33,34,887
1408306,286372,258772,292528,259760,3800,1574,-1356,2836,-3400,-2110,-523,3550,15,48,886
1409307,286508,258968,292725,259957,3800,1474,-1350,2631,-3331,-2213,-675,3200,15,48,886
1410308,286632,259164,292922,260154,3800,1476,-1312,2291,-3204,-2298,-701,2966,16,42,886
1411309,286780,259344,293119,260351,3800,1583,-1287,1865,-3073,-2471,-826,2823,16,42,886
1412310,286932,259520,293316,260548,3800,1617,-1300,1408,-2973,-2652,-1007,2946,29,39,887
1413311,287124,259688,293513,260745,3800,1680,-1340,985,-2868,-2704,-1451,3127,29,39,887
1414312,287276,259824,293710,260942,3800,1907,-1375,679,-2717,-2671,-1773,3353,34,43,886
1415313,287424,259960,293907,261139,3800,1935,-1395,329,-2510,-2630,-1698,3171,34,43,886
1416314,287604,260088,294104,261336,3800,2015,-1374,-195,-2267,-2453,-1606,2685,26,40,885
1417315,287764,260220,294301,261533,3800,2019,-1316,-881,-2017,-2176,-1422,2429,26,40,885
1418317,287936,260348,294498,261730,3800,2074,-1224,-1649,-1783,-1980,-1115,2193,47,35,885
1419318,288156,260448,294695,261927,3800,2292,-1123,-2439,-1566,-1855,-904,2386,47,35,885
1420318,288336,260588,294892,262124,3800,2068,-1036,-3076,-1338,-1733,-931,2745,47,37,884
1421319,288520,260684,295089,262321,3800,2387,-969,-3600,-1074,-1468,-1071,3072,47,37,884
1422320,288724,260800,295286,262518,3800,2297,-926,-3971,-791,-1065,-1153,3476,31,18,883
1423328,288916,260888,295516,262748,3800,2536,-896,-4264,-497,-639,-1060,3890,31,18,883
1424322,289108,260996,295713,262945,3800,2450,-863,-4487,-198,-52,-842,4273,39,33,881
1425323,289300,261076,295910,263142,3800,2676,-838,-4524,69,424,-541,4849,39,33,881
1426324,289520,261152,296107,263339,3800,2756,-802,-4370,306,566,-237,5312,48,17,880
1427325,289700,261240,296304,263536,3800,2728,-751,-4121,479,662,55,5604,48,17,880
1428326,289900,261336,296501,263733,3800,2724,-701,-3781,569,846,268,5891,46,19,881
1429327,290108,261432,296698,263930,3800,2768,-652,-3325,614,1024,311,6161,46,19,881
1430328,290316,261536,296895,264127,3800,2760,-612,-2889,617,1235,228,6190,35,32,881
1431329,290504,261608,297092,264324,3800,3015,-613,-2407,562,1452,387,6477,35,32,881
1432330,290700,261692,297289,264521,3800,2991,-637,-1837,511,1779,608,6728,37,26,880
1433331,290904,261784,297486,264718,3800,2987,-651,-1248,478,2004,610,6622,37,26,880
1434333,291080,261880,297683,264915,3800,3007,-664,-698,426,1917,595,6532,40,25,878
1435333,291280,261988,297880,265112,3800,2971,-661,-211,307,1615,696,6275,40,25,878
1436334,291440,262080,298077,265309,3800,3118,-620,116,63,1447,630,5766,29,26,877
1437335,291612,262160,298274,265506,3800,3246,-554,307,-238,1447,308,5125,29,26,877
1438336,291776,262236,298471,265703,3800,3324,-459,237,-477,1444,112,4459,24,14,877
1439337,291936,262336,298668,265900,3800,3218,-349,13,-650,1393,82,4006,24,14,877
1440338,292096,262400,298865,266097,3800,3502,-247,-288,-806,1241,65,3672,43,22,876
1441339,292260,262496,299062,266294,3800,3347,-153,-628,-956,1067,25,3413,43,22,876
1442340,292412,262604,299259,266491,3800,3312,-56,-1060,-1105,959,-124,3097,22,29,876
