"Data file recorded 2014/9/24  16:47:28"
"%  Right Stride Frequency         = 11.0"
"%  Left Stride Frequency         = 11.0"
"%  Phase (Fractional)         = 32768.0"
"%  Experiment.py "
"%  Motor Gains    = [1800, 200, 100, 0, 0, 1800, 200, 100, 0, 0]
"% Columns: "
"% time | Right Leg Pos | Left Leg Pos | Commanded Right Leg Pos | Commanded Left Leg Pos | DCR | DCL | GyroX | GryoY | GryoZ | AX | AY | AZ | RBEMF | LBEMF | VBatt "
10881,9919828,9077756,9909138,9089938,-3800,3800,-416,-476,590,215,-404,4117,6,-9,843
11869,9919808,9077744,9909882,9090682,-3466,3800,-416,-474,592,207,-401,4109,6,-5,843
12870,9919752,9077760,9910626,9091426,-2890,3800,-414,-478,594,219,-409,4138,6,-5,843
13871,9919616,9077928,9911370,9092170,-2005,3800,-413,-491,591,215,-453,4109,-25,19,809
14872,9919436,9078192,9912114,9092914,-1326,3800,-415,-473,595,224,-563,4105,-25,19,809
15873,9919228,9078524,9912858,9093658,-734,3800,-418,-483,626,271,-1045,4124,-49,50,815
16874,9919064,9079016,9913602,9094402,-611,3800,-407,-486,675,246,-1293,4087,-49,50,815
17875,9918876,9079520,9914346,9095146,-52,3800,-369,-504,711,175,-1050,4006,-41,77,823
18876,9918736,9079968,9915090,9095890,35,3800,-319,-529,731,153,-1375,4055,-41,77,823
19877,9918604,9080496,9915834,9096634,369,3800,-281,-529,754,267,-1509,4137,-18,95,826
20878,9918512,9081028,9916578,9097378,486,3800,-258,-445,802,453,-1229,4282,-18,95,826
21879,9918460,9081612,9917322,9098122,585,3800,-242,-365,839,534,-927,4204,-24,93,828
144802,9918708,9093720,9918066,9098866,-1072,-3800,1624,2361,-352,2081,-3893,-1960,19,189,831
145790,9918704,9094776,9918810,9099610,832,-3666,1553,1940,-806,2007,-3564,-1646,11,184,831
146791,9918704,9095480,9919554,9100354,1134,-1449,1490,1521,-1322,1754,-2210,-1784,11,184,831
147792,9918712,9096124,9920298,9101098,1407,-1029,1336,854,-1873,2075,-2256,-2337,-9,119,812
148793,9918736,9096776,9921042,9101842,1624,-1037,1089,84,-2326,2544,-3478,-2353,-9,119,812
149794,9918768,9097312,9921786,9102586,1888,-220,856,-680,-2581,2585,-4220,-2090,6,84,832
150795,9918836,9097784,9922530,9103330,1960,301,686,-1466,-2747,2531,-3664,-2173,6,84,832
151796,9918952,9098236,9923274,9104074,1937,555,598,-2148,-2805,2521,-3480,-1694,17,92,833
152797,9919076,9098744,9924018,9104818,2160,310,528,-2595,-2706,2679,-3732,-998,17,92,833
153830,9919240,9099248,9924778,9105578,3800,3800,423,-2907,-2499,2942,-3717,-584,36,88,835
154825,9919440,9099704,9925522,9106322,3800,3800,325,-3180,-2216,2943,-3141,-169,36,88,835
155825,9919684,9100240,9926266,9107066,3800,3800,232,-3349,-1903,3270,-2786,164,50,105,834
156826,9919964,9100736,9927010,9107810,3800,3800,100,-3412,-1582,3119,-2621,706,50,105,834
157827,9920348,9101344,9927754,9108554,3800,3800,-69,-3187,-1209,2754,-2383,1776,62,132,813
158816,9920744,9102112,9928498,9109298,3800,3056,-283,-2731,-817,2518,-2183,2152,62,132,813
159816,9921148,9102884,9929242,9110042,3800,3021,-536,-2159,-420,2130,-1880,2550,101,145,815
160818,9921620,9103644,9929986,9110786,3800,3090,-833,-1333,9,1935,-1856,3447,101,145,815
161818,9922064,9104424,9930730,9111530,3800,2950,-1130,-401,439,1760,-2018,3591,99,152,820
162819,9922564,9105208,9931474,9112274,3800,2910,-1393,676,844,1484,-1780,4242,99,152,820
163820,9923100,9105980,9932218,9113018,3800,2973,-1649,1752,1177,1210,-1292,4132,107,166,821
164821,9923624,9106668,9932962,9113762,3800,3524,-1865,2696,1394,1242,-1089,3880,107,166,821
165835,9924156,9107292,9933706,9114506,3800,3800,-2063,3616,1537,1205,-821,3780,110,152,821
166836,9924808,9107904,9934450,9115250,3800,3800,-2224,4345,1587,1130,-413,3178,110,152,821
167837,9925356,9108456,9935194,9115994,3800,3800,-2426,4944,1525,1193,198,3135,106,117,819
168838,9925960,9109004,9935938,9116738,3800,3800,-2649,5499,1354,1238,853,3078,106,117,819
169839,9926648,9109516,9936682,9117482,3800,3800,-2930,5904,1025,1193,1420,2484,133,124,817
170840,9927296,9109988,9937426,9118226,3800,3800,-3224,5986,488,886,1910,1590,133,124,817
171841,9927940,9110460,9938170,9118970,3800,3800,-3559,5782,-293,511,2467,819,144,98,817
172842,9928620,9110916,9938914,9119714,3800,3800,-4002,5306,-1345,82,3199,271,144,98,817
173843,9929352,9111340,9939658,9120458,3800,3800,-4587,5050,-2552,-280,3589,1646,154,113,817
174844,9930084,9111832,9940402,9121202,3800,3800,-5315,5090,-3685,-496,3787,2413,154,113,817
175852,9930792,9112264,9941162,9121962,3800,3800,-5973,4898,-4798,-1235,4333,1352,144,101,817
176846,9931604,9112692,9941906,9122706,3800,3800,-6399,4185,-6109,-2212,5562,211,144,101,817
177847,9932384,9113148,9942650,9123450,3800,3800,-6733,3250,-7517,-2996,4954,498,152,99,817
178848,9933212,9113528,9943394,9124194,3800,3800,-7027,2349,-8681,-3417,3269,682,152,99,817
179836,9934120,9113956,9944138,9124938,3411,3800,-7301,1435,-9440,-3693,1700,995,156,95,817
180837,9934980,9114380,9944882,9125682,3662,3800,-7502,601,-9744,-3756,-329,1438,156,95,817
181851,9935788,9114776,9945626,9126426,3800,3800,-7517,-465,-9711,-3676,-1365,897,164,88,817
182839,9936800,9115196,9946370,9127170,2570,3800,-5426,-1998,-9147,-7004,-4563,10828,164,88,817
183840,9937668,9115636,9947114,9127914,3418,3800,5396,-4171,-6544,-22758,-15702,32767,179,99,818
184841,9938492,9116092,9947858,9128658,3659,3800,14575,-4656,-3886,-10542,-9571,32767,179,99,818
185843,9939460,9116508,9948602,9129402,2662,3800,15816,-4903,-2616,-2942,-3323,4224,162,97,821
186844,9940296,9116936,9949346,9130146,3449,3800,13195,-4828,-2175,-1783,-2988,4975,162,97,821
187845,9941124,9117364,9950090,9130890,3464,3800,10781,-4706,-1704,-1850,-2293,5547,162,104,818
188846,9942020,9117764,9950834,9131634,2974,3800,8208,-2349,-554,-1199,-2570,14592,162,104,818
189846,9942864,9118176,9951578,9132378,3256,3800,5207,1038,753,-1975,-2480,13648,160,99,819
190848,9943652,9118652,9952322,9133122,3589,3800,3231,2135,1557,-4194,-666,5065,160,99,819
191848,9944456,9119068,9953066,9133866,3464,3800,2344,908,1988,-4110,345,465,172,92,819
192862,9945188,9119488,9953810,9134610,3800,3800,2107,-1997,2222,-3650,1024,-3437,172,92,819
193864,9945936,9119912,9954554,9135354,3800,3800,1933,-4845,2486,-3849,1933,-2574,144,79,818
194864,9946684,9120288,9955298,9136098,3800,3800,1649,-7134,2903,-3305,2361,-1944,144,79,818
195865,9947344,9120672,9956042,9136842,3800,3800,1281,-8850,3442,-2293,2116,-666,139,91,816
196866,9947968,9121044,9956786,9137586,3800,3800,894,-10209,4107,-2614,1831,346,139,91,816
197874,9948568,9121400,9957546,9138346,3800,3800,492,-11351,4909,-2121,1479,1841,150,87,816
198868,9949176,9121696,9958290,9139090,3800,3800,-157,-11827,5806,-1228,1138,4131,150,87,816
199869,9949708,9121984,9959034,9139834,3800,3800,-818,-12183,6674,-1123,1687,3716,119,77,814
200870,9950152,9122300,9959778,9140578,3800,3800,-1671,-14220,7673,-40,2501,1575,119,77,814
201871,9950660,9122652,9960522,9141322,3800,3800,-1938,-15326,7957,922,2779,2634,88,66,813
202872,9951060,9122932,9961266,9142066,3800,3800,-2144,-16058,8224,2318,2486,2884,88,66,813
203873,9951420,9123200,9962010,9142810,3800,3800,-2283,-16748,8543,3320,2159,2794,83,70,810
204874,9951804,9123484,9962754,9143554,3800,3800,-2364,-16995,8879,4287,2604,4296,83,70,810
205875,9952140,9123744,9963498,9144298,3800,3800,-2472,-16950,9150,5396,2803,5467,75,46,811
206876,9952512,9124012,9964242,9145042,3800,3800,-2624,-16289,9321,5623,2409,7170,75,46,811
207877,9952868,9124244,9964986,9145786,3800,3800,-2781,-15349,9403,5525,2878,7508,62,57,811
208878,9953232,9124448,9965730,9146530,3800,3800,-2942,-14369,9332,5981,3407,7836,62,57,811
209879,9953600,9124640,9966474,9147274,3800,3800,-3138,-13178,9092,5711,3570,8508,65,39,810
210880,9954064,9124832,9967218,9148018,3800,3800,-3276,-11929,8775,4897,3004,8233,65,39,810
211881,9954472,9125120,9967962,9148762,3800,3800,-3352,-10750,8398,4804,2252,8155,71,64,811
212882,9954876,9125396,9968706,9149506,3800,3800,-3380,-9474,8239,4879,332,8777,71,64,811
213883,9955376,9125628,9969450,9150250,3800,3800,-3403,-7870,8052,4121,1058,9681,73,51,811
214884,9955800,9125880,9970194,9150994,3800,3800,-3399,-5927,7647,2995,786,10229,73,51,811
215885,9956176,9126180,9970938,9151738,3800,3800,-3143,-4490,7182,2579,-145,8154,77,63,812
216886,9956684,9126500,9971682,9152482,3800,3800,-2590,-3438,6670,2323,246,7090,77,63,812
217887,9957140,9126856,9972426,9153226,3800,3800,-1907,-2485,6095,1971,1425,6823,78,63,813
218888,9957548,9127180,9973170,9153970,3800,3800,-1264,-1500,5495,2173,1328,6941,78,63,813
219898,9958132,9127564,9973930,9154730,3800,3800,-857,-32,5175,2316,-1313,8660,98,83,813
220890,9958680,9127960,9974674,9155474,3800,3800,-602,2096,5224,2007,-2648,9809,98,83,813
221891,9959192,9128344,9975418,9156218,3800,3800,-281,3902,5105,1896,-1384,7871,108,82,813
222892,9959800,9128740,9976162,9156962,3800,3800,358,4850,4597,1564,-256,5290,108,82,813
223893,9960440,9129164,9976906,9157706,3800,3800,1113,5338,4013,1120,-407,4828,111,86,814
224894,9961140,9129652,9977650,9158450,3800,3800,1849,5773,3471,1799,-548,4028,111,86,814
225895,9961856,9130044,9978394,9159194,3800,3800,2298,6458,3057,2578,-9,5115,145,104,815
226896,9962580,9130544,9979138,9159938,3800,3800,2527,7809,3017,3210,-999,6669,145,104,815
227897,9963344,9131072,9979882,9160682,3800,3800,2593,9139,2994,3771,-321,5560,147,94,816
228898,9964136,9131620,9980626,9161426,3800,3800,2718,10084,2677,3409,869,4200,147,94,816
229899,9965084,9132264,9981370,9162170,3800,3800,2820,10509,2073,3487,2193,2767,156,113,818
230900,9965996,9132840,9982114,9162914,3800,3800,2861,10545,1406,3931,1890,1629,156,113,818
231901,9966960,9133532,9982858,9163658,3800,3800,2847,10432,972,3925,1556,1119,167,115,818
232902,9968064,9134204,9983602,9164402,3800,3800,2885,10208,759,3669,1092,173,167,115,818
233903,9968972,9135036,9984346,9165146,3800,3800,2955,9707,558,3162,532,-806,187,131,820
234904,9970036,9135788,9985090,9165890,3800,3800,3019,9178,434,2695,-511,-450,187,131,820
235905,9971132,9136664,9985834,9166634,3800,3800,3032,8789,394,2426,-952,-566,202,159,820
236906,9972116,9137492,9986578,9167378,3800,3800,3098,8132,256,2287,-344,-2115,202,159,820
237907,9973136,9138452,9987322,9168122,3800,3800,3157,7295,12,1923,179,-2084,209,175,822
238908,9974244,9139452,9988066,9168866,3800,3800,3138,6854,-245,1451,225,-1001,209,175,822
239909,9975216,9140368,9988810,9169610,3800,3800,3066,6568,-458,768,150,-897,198,176,823
240910,9976224,9141348,9989554,9170354,3800,3800,2933,6569,-540,680,-500,401,198,176,823
241918,9977256,9142444,9990314,9171114,3800,3800,2705,7112,-402,1080,-920,2005,212,200,823
242912,9978116,9143336,9991058,9171858,3800,3800,2408,8136,-47,1399,-1433,3022,212,200,823
243913,9979020,9144348,9991802,9172602,3800,3800,2149,9143,418,688,-1662,2703,210,207,824
244914,9980004,9145488,9992546,9173346,3800,3800,2021,9636,791,2,-1216,1211,210,207,824
245915,9980912,9146452,9993290,9174090,3800,3800,1933,9781,991,97,-114,419,202,205,824
246916,9981876,9147356,9994034,9174834,3800,3800,1913,9774,1115,10,546,-361,202,205,824
247904,9982888,9148312,9994778,9175578,3746,3800,1942,9715,1305,-150,209,-378,217,197,824
248918,9983864,9149276,9995522,9176322,3800,3800,2010,9833,1513,-804,59,-128,217,197,824
249919,9984832,9150216,9996266,9177066,3800,3800,1954,10106,1608,-873,416,544,218,197,824
250907,9985880,9151108,9997010,9177810,3194,3800,1810,10596,1504,-1098,916,395,218,197,824
251909,9986852,9152016,9997754,9178554,3570,3800,1703,10858,1193,-1752,1544,-642,215,199,824
252910,9987784,9152996,9998498,9179298,3740,3800,1589,10663,715,-1454,1583,-1726,215,199,824
253923,9988672,9153880,9999242,9180042,3800,3800,1372,10219,138,-593,1222,-1836,198,201,825
254912,9989688,9154832,9999986,9180786,3036,3800,1064,9846,-617,-32,2038,-1762,198,201,825
255925,9990564,9155948,10000730,9181530,3800,3800,745,9195,-1628,-121,1824,-2536,170,209,823
256914,9991476,9156872,10001474,9182274,3558,3800,428,8507,-2783,-511,1009,-2081,170,209,823
257915,9992444,9157776,10002218,9183018,3112,3800,98,7872,-3822,-370,625,-1850,185,197,824
258916,9993368,9158688,10002962,9183762,3310,3800,-319,7522,-4537,-34,-243,-1099,185,197,824
259917,9994252,9159516,10003706,9184506,3500,3800,-809,7271,-4869,-194,-955,-837,198,191,823
260918,9995216,9160636,10004450,9185250,2905,3800,-1199,6704,-4924,-213,-1280,-1783,198,191,823
261919,9996120,9161432,10005194,9185994,3211,3800,-1429,5661,-4859,-43,-1523,-2840,199,202,825
262920,9997052,9162480,10005938,9186738,2955,3800,-1527,4293,-4751,-3,-2098,-3676,199,202,825
263928,9998020,9163404,10006698,9187498,2641,3800,-1594,2766,-4633,-291,-2796,-3789,180,177,825
264922,9998988,9164404,10007442,9188242,2544,3800,-1664,1573,-4434,-1094,-3703,-2659,180,177,825
265923,9999920,9165512,10008186,9188986,2688,3800,-1744,863,-4116,-1793,-4607,-1429,198,196,826
266924,10000956,9166580,10008930,9189730,1912,3800,-1880,385,-3733,-2392,-5046,-958,198,196,826
267925,10001884,9167632,10009674,9190474,2507,3800,-1949,15,-3299,-3372,-4853,-1007,179,215,827
268926,10002848,9168584,10010418,9191218,2187,3800,-1991,-548,-2826,-4100,-4926,-969,179,215,827
269927,10003888,9169804,10011162,9191962,1583,3800,-1932,-1078,-2372,-4394,-4915,-743,187,222,829
270928,10004812,9170936,10011906,9192706,2230,3800,-1982,-1148,-1865,-4878,-5239,900,187,222,829
271929,10005700,9172188,10012650,9193450,2394,3800,-2017,-830,-1296,-5686,-5775,1358,182,249,829
272930,10006684,9173328,10013394,9194194,1689,3800,-2055,-483,-703,-6707,-6094,1928,182,249,829
273931,10007600,9174412,10014138,9194938,2040,3800,-2124,185,-38,-7402,-6618,3343,182,251,830
274932,10008432,9175484,10014882,9195682,2528,3800,-2236,1055,682,-8098,-6696,3618,182,251,830
275933,10009328,9176524,10015626,9196426,2062,3800,-2303,1878,1445,-9254,-6220,3734,170,218,830
276934,10010092,9177636,10016370,9197170,2879,3800,-2315,2548,2227,-9774,-5559,3909,170,218,830
277935,10010824,9178664,10017114,9197914,3086,3800,-2405,3098,3052,-9623,-4878,4068,158,217,828
278935,10011632,9179592,10017858,9198658,2585,3800,-2486,3477,3952,-9449,-4148,3577,158,217,828
279937,10012332,9180512,10018602,9199402,3280,3800,-2505,3295,4901,-9079,-3508,2319,146,199,826
280951,10012940,9181444,10019346,9200146,3800,3800,-2433,2363,5809,-8084,-2667,851,146,199,826
281951,10013528,9182256,10020090,9200890,3800,3800,-2337,815,6604,-6198,-1572,-421,159,171,826
282952,10014144,9183108,10020834,9201634,3800,3800,-2299,-1164,7318,-3937,-877,-1453,159,171,826
283953,10014684,9183800,10021578,9202378,3800,3800,-2216,-3784,7939,-2311,-554,-3278,139,165,820
284955,10015208,9184472,10022322,9203122,3800,3800,-2208,-6626,8491,-762,-332,-2781,139,165,820
285962,10015716,9185080,10023082,9203882,3800,3800,-2244,-9418,8945,340,-677,-2754,124,130,817
286956,10016164,9185584,10023826,9204626,3800,3800,-2318,-12188,9298,553,-1338,-2324,124,130,817
287957,10016536,9186060,10024570,9205370,3800,3800,-2423,-14755,9533,1204,-1253,-1316,95,113,816
288959,10016916,9186444,10025314,9206114,3800,3800,-2608,-17205,9606,2525,-1187,-874,95,113,816
289960,10017228,9186776,10026058,9206858,3800,3800,-2864,-19252,9524,3926,240,200,72,88,812
290960,10017548,9187064,10026802,9207602,3800,3800,-3152,-21237,9293,4955,440,405,72,88,812
291962,10017872,9187272,10027546,9208346,3800,3800,-3514,-22915,8911,6233,310,4141,51,65,810
292963,10018180,9187480,10028290,9209090,3800,3800,-3866,-23629,8453,9757,1631,11384,51,65,810
293964,10018456,9187676,10029034,9209834,3800,3800,-5138,-20355,7772,16210,5890,32767,58,42,810
294964,10018796,9187828,10029778,9210578,3800,3800,-1856,-15571,6221,27902,9570,32767,58,42,810
295965,10019104,9187960,10030522,9211322,3800,3800,6158,-8028,3841,23509,7220,32767,60,27,808
296966,10019484,9188104,10031266,9212066,3800,3800,10159,-4533,2297,6955,5693,23945,60,27,808
297967,10019852,9188236,10032010,9212810,3800,3800,9694,-5030,1229,3683,7609,10154,61,36,809
298968,10020192,9188364,10032754,9213554,3800,3800,7962,-7668,78,2586,4599,4089,61,36,809
299969,10020536,9188472,10033498,9214298,3800,3800,6887,-9291,-857,50,3224,4862,72,23,808
300970,10020880,9188592,10034242,9215042,3800,3800,6287,-9957,-1472,-909,1772,4187,72,23,808
301971,10021116,9188708,10034986,9215786,3800,3800,5442,-9647,-1619,-350,-109,6934,73,25,808
302972,10021400,9188816,10035730,9216530,3800,3800,4264,-8469,-934,-565,-2300,8881,73,25,808
303973,10021620,9188936,10036474,9217274,3800,3800,3197,-7607,-43,-1461,-2200,6692,56,22,809
304975,10021932,9189052,10037218,9218018,3800,3800,2227,-6923,802,-3146,-3787,7085,56,22,809
305975,10022216,9189128,10037962,9218762,3800,3800,1763,-6591,1640,-4206,-2091,4870,51,14,809
306976,10022452,9189204,10038706,9219506,3800,3800,1805,-6629,2114,-4267,488,3172,51,14,809
307986,10022784,9189296,10039466,9220266,3800,3800,1992,-6756,2367,-5489,477,3765,47,15,808
308978,10023060,9189376,10040210,9221010,3800,3800,2018,-6409,2618,-5219,2117,4576,47,15,808
309979,10023448,9189496,10040954,9221754,3800,3800,1661,-5187,3046,-3101,1863,6593,67,20,808
310980,10023884,9189620,10041698,9222498,3800,3800,975,-3188,3748,-2572,2146,8356,67,20,808
311981,10024304,9189740,10042442,9223242,3800,3800,219,-926,4251,-3291,3820,9135,75,19,808
312982,10024756,9189872,10043186,9223986,3800,3800,-258,517,4372,-3831,3874,5793,75,19,808
313983,10025216,9190016,10043930,9224730,3800,3800,-297,949,4423,-3887,3612,2897,96,38,809
314984,10025680,9190200,10044674,9225474,3800,3800,-135,701,4486,-3029,4105,1364,96,38,809
315985,10026176,9190356,10045418,9226218,3800,3800,-132,384,4520,-1439,4952,1529,92,50,810
316987,10026728,9190628,10046162,9226962,3800,3800,-215,433,4606,-505,5199,1999,92,50,810
317987,10027292,9190896,10046906,9227706,3800,3800,-297,419,4647,357,4981,998,94,46,812
318988,10027868,9191164,10047650,9228450,3800,3800,-329,229,4663,892,4056,1030,94,46,812
319989,10028516,9191444,10048394,9229194,3800,3800,-297,-25,4699,807,3487,1098,126,65,812
320991,10029184,9191780,10049138,9229938,3800,3800,-283,-344,4671,1681,2998,416,126,65,812
321992,10029896,9192164,10049882,9230682,3800,3800,-339,-810,4506,2596,2742,-229,132,74,814
322992,10030680,9192548,10050626,9231426,3800,3800,-530,-1003,4341,3686,2477,1112,132,74,814
323993,10031544,9192940,10051370,9232170,3800,3800,-877,-751,4204,4389,2017,2070,134,86,814
324995,10032400,9193424,10052114,9232914,3800,3800,-1221,-426,3971,3778,1768,1965,134,86,814
325995,10033360,9193968,10052858,9233658,3800,3800,-1406,-132,3616,3011,1244,1607,164,87,816
326996,10034372,9194408,10053602,9234402,3800,3800,-1470,-61,3130,2819,1145,854,164,87,816
327997,10035300,9195004,10054346,9235146,3800,3800,-1460,-124,2607,2838,1019,700,166,109,817
328999,10036364,9195560,10055090,9235890,3800,3800,-1433,-88,2081,2766,489,853,166,109,817
330006,10037384,9196188,10055850,9236650,3800,3800,-1435,50,1606,2872,-18,877,203,112,819
331000,10038336,9196908,10056594,9237394,3800,3800,-1452,337,1204,2946,-126,1267,203,112,819
332001,10039360,9197608,10057338,9238138,3800,3800,-1513,772,824,2625,-548,1362,184,132,819
333003,10040296,9198340,10058082,9238882,3800,3800,-1521,1091,476,1912,-1131,632,184,132,819
334003,10041256,9199152,10058826,9239626,3800,3800,-1495,1206,148,1477,-1252,194,208,140,819
335004,10042252,9199932,10059570,9240370,3800,3800,-1423,1170,-131,1404,-1339,-399,208,140,819
336005,10043180,9200828,10060314,9241114,3800,3800,-1388,1162,-272,1491,-1711,-172,212,172,821
337007,10044120,9201756,10061058,9241858,3800,3800,-1336,1303,-275,1202,-2103,-268,212,172,821
338008,10044968,9202688,10061802,9242602,3800,3800,-1209,1229,-201,594,-2177,-1080,216,190,821
339008,10045952,9203628,10062546,9243346,3800,3800,-968,966,-98,471,-2350,-1426,216,190,821
340009,10046764,9204504,10063290,9244090,3800,3800,-755,753,51,372,-2488,-1182,211,200,822
341010,10047608,9205476,10064034,9244834,3800,3800,-590,921,275,163,-2838,-380,211,200,822
342011,10048520,9206568,10064778,9245578,3800,3800,-391,1302,622,-165,-3272,-232,171,202,822
343012,10049320,9207568,10065522,9246322,3800,3800,-145,1760,914,-381,-3298,-63,171,202,822
344013,10050120,9208508,10066266,9247066,3800,3800,35,2345,1147,44,-3431,521,165,189,822
345014,10050952,9209508,10067010,9247810,3800,3800,160,2875,1326,430,-3188,105,165,189,822
346015,10051768,9210540,10067754,9248554,3800,3800,295,2985,1393,597,-2823,-829,174,202,821
347016,10052556,9211516,10068498,9249298,3800,3800,404,3046,1396,664,-2963,-475,174,202,821
348017,10053416,9212448,10069242,9250042,3800,3800,484,3220,1345,722,-3161,-322,165,210,822
349018,10054160,9213424,10069986,9250786,3800,3800,529,3438,1290,1197,-3337,-194,165,210,822
350019,10054952,9214360,10070730,9251530,3800,3800,606,3662,1277,1942,-3152,-124,160,212,822
351020,10055784,9215464,10071474,9252274,3800,3800,656,3780,1298,2861,-2907,-347,160,212,822
352028,10056580,9216544,10072234,9253034,3800,3800,721,3740,1277,3656,-2481,-794,163,209,822
353022,10057380,9217760,10072978,9253778,3800,3800,772,3531,1187,4297,-2140,-961,163,209,822
354023,10058296,9218912,10073722,9254522,3800,3800,860,3337,1014,4764,-1854,-793,153,214,822
355024,10059136,9219948,10074466,9255266,3800,3800,886,3192,795,5102,-1602,-509,153,214,822
356025,10060024,9220996,10075210,9256010,3800,3800,887,3230,584,5000,-1194,2,162,221,822
357026,10060948,9222000,10075954,9256754,3800,3800,782,3601,265,4317,-473,1159,162,221,822
358027,10061952,9223164,10076698,9257498,3800,3800,534,4358,-248,3377,-810,2006,175,207,823
359028,10062856,9224124,10077442,9258242,3800,3800,206,5294,-915,2501,-1665,2320,175,207,823
360029,10063836,9225124,10078186,9258986,3800,3800,-170,6303,-1756,1673,-166,2459,194,215,823
361031,10064972,9226284,10078930,9259730,3800,3800,-566,7233,-2667,1141,144,2334,194,215,823
362031,10066000,9227240,10079674,9260474,3800,3800,-948,7993,-3438,1057,-475,2008,211,225,823
363032,10067092,9228348,10080418,9261218,3800,3800,-1325,8636,-4093,848,-524,1843,211,225,823
364020,10068272,9229532,10081162,9261962,3428,3800,-1635,9123,-4710,684,-328,1103,218,209,824
365021,10069412,9230648,10081906,9262706,3507,3800,-1851,9240,-5322,510,-46,-146,218,209,824
366023,10070572,9231788,10082650,9263450,3201,3800,-1924,9021,-5761,412,-496,-790,214,239,825
367024,10071744,9232880,10083394,9264194,2940,3800,-1900,8538,-5999,284,-926,-1226,214,239,825
368024,10072836,9233996,10084138,9264938,3290,3800,-1853,8003,-6060,-94,-1144,-1273,214,255,825
369026,10073896,9235276,10084882,9265682,3353,3800,-1738,7179,-5986,-596,-1204,-2122,214,255,825
370027,10075048,9236460,10085626,9266426,2601,3800,-1582,6159,-5848,-1116,-1396,-2320,204,248,829
371028,10076040,9237692,10086370,9267170,3494,3800,-1425,5226,-5612,-2559,-1399,-1556,204,248,829
372029,10077036,9238904,10087114,9267914,3360,3800,-1303,4659,-5256,-4010,-1841,-302,214,254,828
373029,10078036,9240044,10087858,9268658,3225,3800,-1251,4514,-4819,-4794,-2223,648,214,254,828
374037,10078968,9241308,10088618,9269418,3576,3800,-1269,4666,-4317,-5456,-2249,1381,202,254,827
375031,10079880,9242380,10089362,9270162,3629,3800,-1275,4953,-3777,-6239,-2057,1593,202,254,827
376032,10080888,9243452,10090106,9270906,2914,3800,-1269,5075,-3211,-7192,-1863,1427,193,256,827
377034,10081784,9244488,10090850,9271650,3550,3800,-1219,5153,-2585,-8113,-1867,1773,193,256,827
378035,10082656,9245420,10091594,9272394,3645,3800,-1177,5466,-1842,-8765,-2057,2487,194,223,825
379036,10083588,9246340,10092338,9273138,3190,3800,-1171,5786,-1005,-8848,-2445,2636,194,223,825
380036,10084564,9247264,10093082,9273882,2814,3800,-1189,5978,-142,-8264,-2442,2394,193,209,823
381038,10085480,9248028,10093826,9274626,3115,3800,-1277,5691,651,-7157,-2021,1318,193,209,823
382039,10086368,9248696,10094570,9275370,3228,3800,-1382,4989,1295,-5988,-1261,174,178,164,824
383040,10087316,9249320,10095314,9276114,2765,3800,-1514,3770,1800,-5202,-571,-820,178,164,824
384040,10088160,9249900,10096058,9276858,3373,3800,-1739,2359,2235,-4501,56,-622,178,125,822
385042,10088936,9250440,10096802,9277602,3785,3800,-2146,1214,2566,-4351,884,616,178,125,822
386043,10089800,9250924,10097546,9278346,3185,3800,-2803,526,2745,-4514,1252,1761,172,117,822
387044,10090568,9251292,10098290,9279090,3775,3800,-3496,-225,2871,-3953,2108,1682,172,117,822
388057,10091320,9251608,10099034,9279834,3800,3800,-4151,-1351,2968,-1721,2948,1468,177,89,816
389046,10092144,9251872,10099778,9280578,3389,3800,-4860,-2451,3025,485,4430,1990,177,89,816
390046,10093048,9252160,10100522,9281322,2820,3800,-5633,-3734,2991,850,4437,1898,144,59,814
391048,10093796,9252376,10101266,9282066,3795,3800,-6313,-5566,2851,-1475,3407,803,144,59,814
392049,10094720,9252540,10102010,9282810,2617,3800,-6811,-8968,2698,-4546,1612,-796,169,42,816
393050,10095532,9252688,10102754,9283554,3289,3800,-7934,-11362,2461,-3618,-744,7285,169,42,816
394051,10096304,9252808,10103498,9284298,3528,3800,-9013,-13901,2146,-3532,-1708,2646,164,31,814
395052,10097196,9252920,10104242,9285042,2714,3800,-3848,-20676,1404,5272,-5047,20168,164,31,814
396061,10097936,9253044,10105002,9285802,3675,3800,1907,-22650,1074,10833,-5985,32767,168,23,815
397054,10098708,9253120,10105746,9286546,3463,3800,2635,-20979,1262,5573,557,8546,168,23,815
398054,10099532,9253264,10106490,9287290,3104,3800,1059,-19974,1328,4922,1770,3912,128,39,816
399056,10100364,9253380,10107234,9288034,3018,3800,-809,-19812,1252,5032,2054,9975,128,39,816
400056,10101132,9253508,10107978,9288778,3408,3800,-2117,-18393,1024,4308,2794,10959,137,28,813
401058,10102004,9253660,10108722,9289522,2703,3800,-2751,-18246,821,4676,3113,5665,137,28,813
402059,10102776,9253812,10109466,9290266,3317,3800,-3202,-17703,724,4441,3199,9268,137,26,815
403060,10103520,9253964,10110210,9291010,3493,3800,-4141,-15998,685,5119,4278,13164,137,26,815
404061,10104340,9254136,10110954,9291754,2986,3800,-3098,-11876,554,8386,4162,32617,140,42,815
405074,10105032,9254336,10111698,9292498,3800,3800,230,-4824,408,9103,2257,32767,140,42,815
406075,10105720,9254568,10112442,9293242,3800,3800,2271,-2317,366,4219,3931,8338,145,47,814
407076,10106384,9254848,10113186,9293986,3800,3800,2233,-3425,255,3908,4718,2929,145,47,814
408064,10107124,9255116,10113930,9294730,3575,3800,1593,-5641,249,4376,4407,938,144,60,814
409078,10107828,9255372,10114674,9295474,3800,3800,1292,-7121,466,5001,4002,776,144,60,814
410079,10108416,9255636,10115418,9296218,3800,3800,1335,-8107,821,4502,3649,691,140,68,814
411080,10109020,9255892,10116162,9296962,3800,3800,1501,-8990,1279,3824,3048,1076,140,68,814
412081,10109628,9256212,10116906,9297706,3800,3800,1616,-9448,1728,3597,2338,1887,120,71,813
413082,10110192,9256580,10117650,9298450,3800,3800,1665,-9659,2103,2679,1418,2599,120,71,813
414083,10110768,9256900,10118394,9299194,3800,3800,1557,-9381,2260,1533,1500,4494,127,79,813
415085,10111256,9257284,10119138,9299938,3800,3800,1294,-8738,2126,800,2136,5452,127,79,813
416085,10111784,9257716,10119882,9300682,3800,3800,888,-7432,1835,310,2265,7824,113,86,814
417087,10112300,9258176,10120626,9301426,3800,3800,231,-4778,1648,-209,723,12302,113,86,814
418094,10112772,9258620,10121386,9302186,3800,3800,-677,-1397,1799,-450,-892,13212,103,92,814
419088,10113276,9259140,10122130,9302930,3800,3800,-1457,1384,2209,-391,-1533,10427,103,92,814
420089,10113804,9259636,10122874,9303674,3800,3800,-1805,3091,2594,-345,-1165,7223,98,105,815
421090,10114284,9260084,10123618,9304418,3800,3800,-1642,3807,2838,-362,-682,4373,98,105,815
422091,10114736,9260660,10124362,9305162,3800,3800,-1134,3791,3019,-251,-998,2206,105,94,813
423092,10115268,9261212,10125106,9305906,3800,3800,-495,3573,3252,104,-1724,1606,105,94,813
424093,10115752,9261812,10125850,9306650,3800,3800,94,3600,3533,352,-2072,1955,105,104,814
425095,10116272,9262416,10126594,9307394,3800,3800,546,3919,3811,564,-2134,2898,105,104,814
426095,10116820,9263060,10127338,9308138,3800,3800,781,4769,4216,1073,-2904,5055,101,118,814
427097,10117344,9263748,10128082,9308882,3800,3800,769,6270,4888,1856,-4067,6857,101,118,814
428097,10117880,9264528,10128826,9309626,3800,3800,717,7677,5423,2291,-2426,5455,108,124,816
429098,10118472,9265264,10129570,9310370,3800,3800,966,8383,5472,2017,-889,2983,108,124,816
430099,10119056,9266060,10130314,9311114,3800,3800,1407,8410,5216,1833,-770,2064,117,147,817
431100,10119656,9266840,10131058,9311858,3800,3800,1798,8629,4891,2298,-480,3231,117,147,817
432101,10120252,9267740,10131802,9312602,3800,3800,1960,9356,4753,2863,-1350,4689,123,175,817
433102,10120916,9268568,10132546,9313346,3800,3800,2087,10421,4774,3177,-1791,4601,123,175,817
434103,10121576,9269596,10133290,9314090,3800,3800,2279,11217,4701,3289,-998,3823,141,167,817
435104,10122240,9270584,10134034,9314834,3800,3800,2476,11832,4428,3572,-150,3780,141,167,817
436105,10123012,9271488,10134778,9315578,3800,3800,2607,12292,3928,3638,471,3234,143,183,819
437106,10123700,9272556,10135522,9316322,3800,3800,2738,12531,3294,3628,537,2467,143,183,819
438107,10124444,9273636,10136266,9317066,3800,3800,2834,12607,2617,3662,539,2378,148,191,821
439108,10125296,9274800,10137010,9317810,3800,3800,2898,12656,1964,3710,679,2213,148,191,821
440116,10126144,9275792,10137770,9318570,3800,3800,2902,12619,1314,3719,603,1961,155,214,821
441110,10127000,9276860,10138514,9319314,3800,3800,2916,12600,631,3203,-92,1734,155,214,821
442111,10127908,9277848,10139258,9320058,3800,3800,2945,12504,-41,2433,-1349,1584,174,213,822
443112,10128796,9278872,10140002,9320802,3800,3800,2951,12380,-664,2022,-2404,1575,174,213,822
444113,10129796,9279820,10140746,9321546,3800,3800,2922,12212,-1246,1517,-3400,1361,173,204,822
445101,10130880,9280736,10141490,9322290,3167,3800,2901,11810,-1811,1022,-3603,235,173,204,822
446102,10131936,9281604,10142234,9323034,3207,3800,2892,11293,-2308,528,-3920,85,184,173,821
447103,10132932,9282404,10142978,9323778,3473,3800,2859,10834,-2671,-297,-3869,245,184,173,821
448105,10134088,9283296,10143722,9324522,2294,3800,2846,10481,-2951,-1127,-3247,50,191,192,825
449106,10135124,9284176,10144466,9325266,2918,3800,2868,10027,-3204,-1491,-2308,-422,191,192,825
450107,10136144,9285156,10145210,9326010,2899,3800,2939,9588,-3390,-2170,-1878,-317,193,199,824
451107,10137240,9286084,10145954,9326754,2270,3800,3024,9086,-3462,-3103,-1866,-567,193,199,824
452109,10138268,9286984,10146698,9327498,2572,3800,3081,8497,-3563,-3955,-949,-783,194,199,826
453110,10139220,9287880,10147442,9328242,2958,3800,3034,7862,-3800,-4506,-96,-872,194,199,826
454111,10140296,9288776,10148186,9328986,2038,3800,2890,7258,-4080,-4811,-286,-991,213,173,826
455111,10141200,9289672,10148930,9329730,3044,3800,2731,6529,-4269,-5029,-404,-1452,213,173,826
456113,10142072,9290452,10149674,9330474,3189,3800,2587,5670,-4317,-5176,-122,-1844,201,174,824
457114,10142972,9291348,10150418,9331218,2948,3800,2418,4720,-4216,-5229,-450,-2223,201,174,824
458115,10143924,9292260,10151162,9331962,2532,3800,2178,3787,-3929,-5591,-1268,-2193,183,188,824
459116,10144768,9293148,10151906,9332706,3164,3800,1856,3010,-3474,-6181,-1810,-1609,183,188,824
460117,10145612,9294136,10152650,9333450,3122,3800,1497,2353,-2963,-6678,-2077,-1573,182,171,824
461118,10146520,9295144,10153394,9334194,2651,3800,1106,1707,-2408,-6888,-2379,-1523,182,171,824
462125,10147428,9296156,10154154,9334954,2587,3800,708,1195,-1685,-6955,-3255,-965,202,196,824
463119,10148236,9297120,10154898,9335698,3186,3800,326,509,-754,-7226,-3472,-1580,202,196,824
464121,10149136,9298072,10155642,9336442,2544,3800,-54,-170,263,-7318,-3415,-1417,172,192,826
465122,10150000,9299052,10156386,9337186,2717,3800,-461,-1127,1328,-6983,-3320,-2342,172,192,826
466123,10150836,9300324,10157130,9337930,2852,3800,-769,-2575,2380,-6006,-2804,-3584,169,217,824
467124,10151704,9301448,10157874,9338674,2600,3800,-1097,-4468,3352,-4660,-2074,-4254,169,217,824
468125,10152468,9302568,10158618,9339418,3242,3800,-1414,-6534,4251,-3526,-1557,-4592,178,236,827
469126,10153176,9303644,10159362,9340162,3609,3800,-1718,-8767,5081,-2825,-1409,-4867,178,236,827
470127,10153948,9304660,10160106,9340906,3198,3800,-2012,-10908,5865,-2789,-745,-4252,162,214,827
471127,10154640,9305652,10160850,9341650,3722,3800,-2421,-12322,6609,-2957,-470,-1931,162,214,827
472129,10155352,9306700,10161594,9342394,3613,3800,-2945,-12930,7289,-2942,162,-449,165,209,822
473130,10156192,9307668,10162338,9343138,2771,3800,-3521,-13472,7918,-2138,661,-138,165,209,822
474130,10156892,9308668,10163082,9343882,3667,3800,-4046,-13898,8511,-679,224,482,153,217,822
475131,10157684,9309660,10163826,9344626,3072,3800,-4449,-14436,9071,121,304,249,153,217,822
476132,10158568,9310628,10164570,9345370,2436,3800,-4770,-15166,9524,1050,349,188,168,215,825
477133,10159376,9311724,10165314,9346114,2884,3800,-5045,-15878,9871,1884,412,435,168,215,825
478134,10160212,9312756,10166058,9346858,2671,3800,-5275,-16300,10123,2947,514,1389,169,202,823
479135,10161104,9313752,10166802,9347602,2257,3800,-5531,-16259,10221,4248,277,2594,169,202,823
480136,10161924,9314652,10167546,9348346,2674,3800,-5800,-16030,10153,4787,-17,3034,156,203,825
481138,10162860,9315572,10168290,9349090,1866,3800,-5989,-15764,9894,5127,-466,3022,156,203,825
482139,10163704,9316464,10169034,9349834,2398,3800,-6086,-15578,9364,5563,-64,2618,169,180,826
483140,10164784,9317176,10169778,9350578,776,3800,-6097,-15399,8630,5555,532,2583,169,180,826
484149,10165812,9317840,10170538,9351338,984,3800,-6052,-14993,7858,5362,-35,3117,191,153,826
485141,10166732,9318448,10171282,9352082,1583,3800,-6016,-14232,7145,4645,-1227,4274,191,153,826
486142,10167604,9319016,10172026,9352826,1828,3800,-6067,-12873,6397,3490,-1533,6106,173,135,827
487143,10168500,9319560,10172770,9353570,1611,3800,-6040,-11224,5413,2444,-2344,5838,173,135,827
488144,10169308,9320104,10173514,9354314,2134,3800,-5832,-10092,4061,2179,-2206,4110,173,109,822
489146,10170216,9320592,10174258,9355058,1438,3800,-5550,-9541,2510,2760,-1545,2878,173,109,822
490146,10170964,9321032,10175002,9355802,2437,3800,-5230,-9306,1015,2860,-1386,1939,165,105,823
491148,10171716,9321420,10175746,9356546,2409,3800,-4902,-9381,-258,2732,-1425,1227,165,105,823
492148,10172460,9321860,10176490,9357290,2459,3800,-4650,-9660,-1271,2776,-148,1179,159,84,823
493150,10173212,9322364,10177234,9358034,2407,3800,-4534,-9842,-1982,3460,-213,1513,159,84,823
494150,10173796,9322772,10177978,9358778,3528,3800,-4509,-10099,-2584,4370,-82,1133,155,90,821
495151,10174356,9323292,10178722,9359522,3760,3800,-4414,-10895,-3200,4600,250,-551,155,90,821
496152,10174944,9323784,10179466,9360266,3655,3800,-4213,-12027,-3728,4182,-210,-519,121,95,821
497154,10175524,9324328,10180210,9361010,3777,3800,-4084,-13092,-4093,4585,-610,183,121,95,821
498155,10176156,9324880,10180954,9361754,3502,3800,-4052,-13685,-4034,6059,-1780,1879,142,112,816
499168,10176700,9325472,10181698,9362498,3800,3800,-1036,-9687,-3361,10189,-5560,19691,142,112,816
500169,10177232,9326052,10182442,9363242,3800,3800,7339,10344,-2038,18583,-15407,32767,118,113,814
501170,10177780,9326632,10183186,9363986,3800,3800,11077,22806,877,12459,-13999,9592,118,113,814
502171,10178304,9327256,10183930,9364730,3800,3800,8570,23068,4390,10117,-14034,1387,124,127,815
503172,10178836,9327888,10184674,9365474,3800,3800,4580,17658,6275,10123,-5129,-5646,125,115,814
504173,10179412,9328608,10185418,9366218,3800,3800,3349,11424,6190,10010,2124,-13120,125,115,814
505174,10179920,9329300,10186162,9366962,3800,3800,3860,5048,5557,9840,4218,-14590,111,143,816
506182,10180424,9330044,10186922,9367722,3800,3800,4526,255,5139,10155,5249,-10237,111,143,816
507176,10180932,9330776,10187666,9368466,3800,3800,4327,-2415,5178,10399,4587,-2755,122,147,817
508177,10181500,9331536,10188410,9369210,3800,3800,3583,-3143,5391,8989,4191,1466,122,147,817
509178,10182028,9332424,10189154,9369954,3800,3800,2930,-3093,5305,7451,5377,3810,103,168,816
510179,10182548,9333264,10189898,9370698,3800,3800,2479,-2575,5008,6074,5378,6134,103,168,816
511180,10183160,9334072,10190642,9371442,3800,3800,2237,-1833,4345,4470,6279,6112,125,157,816
512181,10183704,9335000,10191386,9372186,3800,3800,2150,-1402,3429,3900,6589,4875,125,157,816
513183,10184304,9335876,10192130,9372930,3800,3800,2101,-885,2479,2995,5992,5545,120,176,819
514184,10184964,9336752,10192874,9373674,3800,3800,2024,-173,1572,1891,4830,6350,120,176,819
515185,10185600,9337876,10193618,9374418,3800,3800,1781,1612,849,1159,2326,10120,137,191,819
516186,10186248,9338952,10194362,9375162,3800,3800,1381,4572,330,727,539,12547,137,191,819
517186,10186980,9339888,10195106,9375906,3800,3800,1084,7935,-54,724,346,12341,140,190,820
518187,10187684,9340924,10195850,9376650,3800,3800,867,11157,-518,520,881,12169,140,190,820
519188,10188440,9342008,10196594,9377394,3800,3800,759,14004,-998,391,818,11375,135,198,821
520176,10189264,9343036,10197338,9378138,3771,3800,713,16525,-1406,635,783,10511,135,198,821
521190,10190060,9343940,10198082,9378882,3800,3800,710,18707,-1709,1019,645,9204,167,198,820
522179,10190916,9344876,10198826,9379626,3502,3800,787,20486,-1988,1188,1555,7758,167,198,820
523180,10191840,9345776,10199570,9380370,2998,3800,960,21751,-2399,1325,2739,5821,168,195,821
524180,10192652,9346560,10200314,9381114,3671,3800,1255,22442,-3015,1100,3072,3891,168,195,821
525182,10193528,9347364,10201058,9381858,3214,3800,1638,22605,-3757,605,2719,2195,195,178,823
526183,10194528,9348152,10201802,9382602,2328,3800,2048,22214,-4549,368,1914,436,195,178,823
527184,10195436,9348904,10202546,9383346,2832,3800,2409,21485,-5236,246,692,-335,191,160,822
528191,10196480,9349648,10203306,9384106,1859,3800,2628,20815,-5677,97,-464,-102,191,160,822
529185,10197536,9350404,10204050,9384850,1648,3800,2752,20111,-5900,-249,-1338,-679,203,151,824
530187,10198512,9351080,10204794,9385594,2047,3800,2867,19252,-6005,-1099,-1765,-1070,203,151,824
531188,10199504,9351816,10205538,9386338,1839,3800,2994,18460,-6045,-1952,-1998,-932,180,158,825
532189,10200456,9352596,10206282,9387082,1999,3800,3054,17599,-6014,-2683,-2807,-906,180,158,825
533190,10201444,9353348,10207026,9387826,1669,3800,3087,16860,-5899,-3491,-3452,-457,199,153,824
534191,10202344,9354112,10207770,9388570,2151,3800,3095,16064,-5722,-4297,-3497,-715,199,153,824
535191,10203256,9354808,10208514,9389314,2003,3800,3114,15008,-5577,-4825,-3374,-1541,166,159,826
536193,10204232,9355644,10209258,9390058,1502,3800,3118,13764,-5504,-5492,-3071,-1947,166,159,826
537194,10205116,9356368,10210002,9390802,2017,3800,3146,12248,-5476,-6367,-2177,-2972,186,162,825
538195,10205928,9357288,10210746,9391546,2438,3800,3184,10362,-5370,-6741,-1794,-3862,186,162,825
539196,10206800,9357968,10211490,9392290,2007,3800,3179,8427,-5028,-6747,-2343,-3889,184,166,826
540196,10207600,9358760,10212234,9393034,2433,3800,3040,6579,-4470,-6431,-3293,-3789,184,166,826
541197,10208348,9359660,10212978,9393778,2757,3800,2850,4753,-3808,-6626,-4319,-4065,172,178,825
542198,10209212,9360496,10213722,9394522,1980,3800,2577,3024,-3051,-7259,-4757,-3558,172,178,825
543199,10209932,9361308,10214466,9395266,2892,3800,2266,1501,-2198,-7632,-4672,-3370,163,187,824
544200,10210672,9362236,10215210,9396010,2770,3800,1887,-85,-1298,-7900,-4083,-3297,163,187,824
545201,10211404,9363160,10215954,9396754,2826,3800,1444,-1387,-439,-8086,-3637,-2160,154,201,824
546203,10212156,9364292,10216698,9397498,2698,3800,942,-2592,405,-8532,-3455,-2335,154,201,824
547204,10212876,9365408,10217442,9398242,2909,3800,473,-3796,1322,-8857,-3889,-2196,161,208,825
548205,10213632,9366412,10218186,9398986,2680,3800,-42,-4880,2272,-8769,-3589,-1740,161,208,825
549206,10214320,9367516,10218930,9399730,3130,3800,-647,-5870,3226,-8407,-2964,-1342,159,204,825
550214,10214996,9368512,10219690,9400490,3243,3800,-1274,-6885,4174,-7840,-2490,-1380,159,204,825
551207,10215724,9369492,10220434,9401234,2926,3800,-1831,-7954,5080,-7051,-1774,-1195,151,221,823
552208,10216412,9370472,10221178,9401978,3202,3800,-2302,-9207,5900,-6011,-859,-1652,151,221,823
553222,10217012,9371468,10221922,9402722,3800,3800,-2686,-10643,6597,-4971,-189,-2103,128,188,823
554211,10217700,9372380,10222666,9403466,3292,3800,-2989,-12150,7216,-4287,416,-2136,128,188,823
555224,10218284,9373300,10223410,9404210,3800,3800,-3265,-13690,7786,-3589,786,-1904,128,201,819
556213,10218948,9374280,10224154,9404954,3549,3800,-3480,-14885,8429,-3016,679,-721,128,201,819
557226,10219540,9375272,10224898,9405698,3800,3800,-3674,-15811,9062,-2133,436,-17,124,192,819
558227,10220180,9376332,10225642,9406442,3800,3800,-3763,-16568,9559,-1468,978,320,124,192,819
559228,10220824,9377316,10226386,9407186,3800,3800,-3723,-17764,9826,-426,830,-495,126,194,820
560216,10221488,9378332,10227130,9407930,3745,3800,-3574,-19032,9904,1065,-85,-149,126,194,820
561218,10222216,9379316,10227874,9408674,3353,3800,-3440,-20071,9935,2129,-68,1039,152,202,820
562219,10222944,9380236,10228618,9409418,3361,3800,-3296,-20898,9814,2982,201,969,152,202,820
563219,10223648,9381224,10229362,9410162,3530,3800,-3144,-21805,9563,4056,670,420,144,181,821
564220,10224440,9382104,10230106,9410906,2959,3800,-2974,-22665,9280,4967,1369,763,144,181,821
565221,10225240,9382832,10230850,9411650,2886,3800,-2887,-23263,8885,5499,1936,1407,163,138,819
566222,10226072,9383508,10231594,9412394,2648,3800,-2877,-23379,8474,5659,1349,2678,163,138,819
567223,10226880,9384116,10232338,9413138,2771,3800,-2890,-22870,8154,5572,173,4152,165,120,822
568224,10227696,9384660,10233082,9413882,2690,3800,-2904,-21785,7787,5473,-352,5537,165,120,822
569226,10228548,9385216,10233826,9414626,2419,3800,-2963,-20365,7220,5061,-148,6115,157,121,821
570226,10229408,9385712,10234570,9415370,2319,3800,-3007,-19103,6333,4697,454,5069,157,121,821
571228,10230272,9386188,10235314,9416114,2242,3800,-2967,-18303,5190,4685,962,3582,173,94,821
572237,10231060,9386600,10236074,9416874,2706,3800,-2933,-17760,3954,4614,1156,3523,173,94,821
573230,10231996,9386972,10236818,9417618,1698,3800,-2908,-17033,2706,4253,1396,3759,149,88,820
574230,10232824,9387476,10237562,9418362,2337,3800,-2965,-16087,1566,3810,1344,4320,149,88,820
575231,10233568,9387916,10238306,9419106,2863,3800,-3099,-14851,592,3601,1868,4944,133,88,822
576232,10234352,9388356,10239050,9419850,2596,3800,-3429,-13445,-104,3793,1003,5845,133,88,822
577233,10235080,9388856,10239794,9420594,2954,3800,-4221,-11280,-185,4239,-2210,8985,157,93,819
578234,10235792,9389336,10240538,9421338,3069,3800,-4945,-9429,-49,4165,-1169,6402,157,93,819
579236,10236500,9389864,10241282,9422082,3111,3800,-5257,-8366,-62,3998,371,4874,121,114,819
580237,10237152,9390464,10242026,9422826,3502,3800,-5387,-8055,-169,4219,1008,3619,121,114,819
581238,10237792,9390976,10242770,9423570,3623,3800,-5396,-8308,-258,4683,937,1688,138,103,817
582239,10238456,9391572,10243514,9424314,3509,3800,-5139,-9253,-319,5783,1139,-882,138,103,817
583240,10239148,9392164,10244258,9425058,3358,3800,-4664,-10752,-293,7250,668,-2088,122,133,817
584253,10239608,9392808,10245002,9425802,3800,3800,-4660,-11524,123,8556,-1141,1432,122,133,817
585254,10240196,9393524,10245746,9426546,3800,3800,-5278,-11446,588,8921,-881,3081,133,122,818
586255,10240812,9394240,10246490,9427290,3800,3800,-5563,-12077,769,8568,-863,-724,133,122,818
587256,10241380,9394984,10247234,9428034,3800,3800,-5182,-13630,736,8456,-1427,-1774,129,136,816
588257,10241940,9395776,10247978,9428778,3800,3800,-4583,-14634,835,9387,-3113,1509,129,136,816
589258,10242556,9396556,10248722,9429522,3800,3800,64,-2525,1501,21854,-10689,32767,142,154,817
590259,10243064,9397500,10249466,9430266,3800,3800,6703,14180,2415,20349,-10111,26990,142,154,817
591260,10243596,9398308,10250210,9431010,3800,3800,9720,18044,3111,10103,-2957,-3793,130,161,817
592261,10244196,9399236,10250954,9431754,3800,3800,8950,13575,3638,9718,-2022,-3535,130,161,817
593262,10244760,9400176,10251698,9432498,3800,3800,8238,8616,4078,9333,-2831,-6663,138,171,818
594270,10245304,9401028,10252458,9433258,3800,3800,7729,5489,4373,8937,-1597,-4203,138,171,818
595264,10245868,9402036,10253202,9434002,3800,3800,7695,4645,4668,8031,-503,-2161,124,178,818
596265,10246444,9403112,10253946,9434746,3800,3800,7489,4523,5223,7948,-2754,1095,124,178,818
597266,10247040,9404140,10254690,9435490,3800,3800,6954,6144,6124,7834,-3583,6604,129,199,818
598267,10247664,9405152,10255434,9436234,3800,3800,6532,7833,6692,5208,-1082,5963,129,199,818
599268,10248244,9406244,10256178,9436978,3800,3800,6469,9087,6662,3933,-240,4349,133,205,818
600269,10248864,9407324,10256922,9437722,3800,3800,6671,9691,6299,2853,976,2109,133,205,818
601270,10249520,9408372,10257666,9438466,3800,3800,7079,9716,5778,1880,1558,682,143,204,819
602271,10250176,9409340,10258410,9439210,3800,3800,7497,9847,5176,1304,730,568,143,204,819
603273,10250820,9410324,10259154,9439954,3800,3800,7864,10401,4537,486,947,1991,139,189,820
604273,10251556,9411228,10259898,9440698,3800,3800,8044,11878,3816,411,1595,4111,139,189,820
605274,10252256,9412076,10260642,9441442,3800,3800,7900,14019,3028,842,2576,5494,153,190,819
606275,10252976,9412924,10261386,9442186,3800,3800,7581,16301,2060,401,4028,5463,153,190,819
607276,10253740,9413752,10262130,9442930,3800,3800,7223,18348,878,510,4148,4918,163,175,819
608277,10254560,9414604,10262874,9443674,3800,3800,6867,20078,-376,1029,4189,4033,163,175,819
609278,10255364,9415428,10263618,9444418,3800,3800,6377,21332,-1731,972,4849,2397,172,181,818
610279,10256172,9416152,10264362,9445162,3800,3800,5770,22002,-3284,953,4925,598,172,181,818
611267,10257068,9416976,10265106,9445906,3409,3800,5080,22386,-4808,1240,4022,245,187,161,819
612269,10257976,9417820,10265850,9446650,3264,3800,4315,22720,-6151,2077,3711,112,187,161,819
613269,10258860,9418564,10266594,9447394,3353,3800,3385,22880,-7342,2961,3698,-564,196,146,821
614271,10259864,9419356,10267338,9448138,2491,3800,2425,22545,-8494,3371,2748,-1921,196,146,821
615271,10260852,9420052,10268082,9448882,2485,3800,1614,21723,-9546,3665,1564,-2935,195,146,821
616279,10261824,9420844,10268842,9449642,2493,3800,988,20545,-10311,3561,644,-3625,195,146,821
617274,10262912,9421652,10269586,9450386,1618,3800,524,19119,-10777,3280,464,-4366,184,167,824
618274,10263920,9422512,10270330,9451130,2003,3800,192,17340,-11058,2527,633,-5457,184,167,824
619275,10264880,9423344,10271074,9451874,2209,3800,-61,15335,-11169,1872,-77,-5890,200,176,825
620276,10266000,9424108,10271818,9452618,1045,3800,-307,13263,-11034,1437,-1504,-6000,200,176,825
621278,10266940,9425056,10272562,9453362,2085,3800,-503,11179,-10674,509,-2550,-6054,177,170,824
622278,10267824,9425812,10273306,9454106,2376,3800,-684,9298,-10162,-1101,-3133,-5280,177,170,824
623279,10268820,9426688,10274050,9454850,1566,3800,-887,7781,-9549,-2989,-3729,-4514,186,193,826
624280,10269740,9427672,10274794,9455594,1964,3800,-1120,6425,-8837,-4582,-3818,-4129,186,193,826
625282,10270592,9428664,10275538,9456338,2343,3800,-1351,5299,-8053,-5833,-3988,-3519,180,204,827
626283,10271508,9429804,10276282,9457082,1867,3800,-1755,4694,-7265,-7059,-3890,-1744,180,204,827
627283,10272300,9430720,10277026,9457826,2622,3800,-2176,4424,-6437,-8064,-3941,-1561,169,219,827
628285,10273076,9431928,10277770,9458570,2709,3800,-2568,4049,-5604,-8228,-3794,-2006,169,219,827
629285,10273856,9433012,10278514,9459314,2669,3800,-2886,3499,-4733,-8506,-4240,-2469,181,229,827
630286,10274672,9434064,10279258,9460058,2414,3800,-3184,3093,-3671,-9400,-5560,-1486,181,229,827
631287,10275364,9435088,10280002,9460802,3213,3800,-3500,3058,-2471,-10506,-6006,-418,165,210,825
632288,10276040,9436128,10280746,9461546,3344,3800,-3845,3394,-1222,-11277,-6028,448,165,210,825
633290,10276760,9437112,10281490,9462290,3080,3800,-4279,4074,41,-11778,-6276,1821,160,213,823
634303,10277372,9438172,10282234,9463034,3800,3800,-4766,4915,1319,-12385,-6140,2508,160,213,823
635304,10277980,9439092,10282978,9463778,3800,3800,-5212,5485,2577,-12241,-5207,1636,141,211,823
636292,10278624,9440112,10283722,9464522,3720,3800,-5579,5342,3707,-10829,-4598,60,141,211,823
637306,10279176,9441148,10284466,9465266,3800,3800,-5934,4625,4787,-8626,-3716,-756,113,227,819
638314,10279764,9442088,10285226,9466026,3800,3800,-6140,2755,5735,-6793,-2492,-3929,113,227,819
639308,10280384,9443172,10285970,9466770,3800,3800,-6162,-59,6502,-5329,-1725,-5312,115,209,819
640309,10280896,9444108,10286714,9467514,3800,3800,-6097,-3167,7278,-4054,-2768,-5270,115,209,819
641310,10281472,9445016,10287458,9468258,3800,3800,-6194,-5671,8258,-2760,-4084,-2703,123,207,818
642311,10282044,9445876,10288202,9469002,3800,3800,-6353,-7924,9224,-1519,-2709,-2783,123,207,818
643312,10282584,9446688,10288946,9469746,3800,3800,-6347,-10483,9895,-102,-1087,-3640,106,167,817
644314,10283208,9447444,10289690,9470490,3800,3800,-6230,-13254,10295,1304,-110,-3366,106,167,817
645314,10283772,9448176,10290434,9471234,3800,3800,-6062,-16203,10535,1287,193,-3124,110,133,817
646315,10284428,9448752,10291178,9471978,3800,3800,-5847,-18766,10712,1019,55,-1674,110,133,817
647316,10285028,9449284,10291922,9472722,3800,3800,-5577,-20522,10778,1264,427,280,121,113,815
648317,10285728,9449692,10292666,9473466,3800,3800,-5321,-21516,10521,1074,2221,2169,121,113,815
649319,10286388,9450136,10293410,9474210,3800,3800,-5095,-22009,9926,1193,2785,3647,136,94,814
650320,10287076,9450576,10294154,9474954,3800,3800,-4845,-22438,9276,1961,1213,4276,136,94,814
651320,10287776,9450892,10294898,9475698,3800,3800,-4492,-22462,8820,2597,-571,6018,146,80,814
652321,10288480,9451232,10295642,9476442,3800,3800,-4084,-22174,8410,2442,-768,6551,146,80,814
653322,10289176,9451544,10296386,9477186,3800,3800,-3741,-22068,7769,2064,915,5879,137,66,812
654310,10289980,9451832,10297130,9477930,3643,3800,-3554,-21842,6924,2123,2483,6829,137,66,812
655311,10290788,9452136,10297874,9478674,3591,3800,-3645,-21340,5924,2868,3367,7407,156,69,813
656325,10291512,9452384,10298618,9479418,3800,3800,-3939,-20782,4783,3360,3638,7203,156,69,813
657326,10292284,9452644,10299362,9480162,3800,3800,-5309,-18442,3943,4625,2867,15546,154,60,814
658314,10293156,9452976,10300106,9480906,3136,3800,-6510,-16198,3291,4756,2479,10115,154,60,814
659315,10294040,9453296,10300850,9481650,3000,3800,-6985,-15698,2559,5066,1546,6579,165,77,814
660325,10294876,9453568,10301610,9482410,3268,3800,-7122,-15366,2164,5419,-1553,7542,165,77,814
661318,10295796,9453984,10302354,9483154,2667,3800,-7468,-15506,2064,6143,-650,5645,149,84,817
662319,10296760,9454368,10303098,9483898,2297,3800,-7450,-16083,1589,6365,3465,3305,149,84,817
663319,10297636,9454760,10303842,9484642,2790,3800,-5665,-15221,922,7966,3614,13855,148,96,818
664320,10298644,9455184,10304586,9485386,1850,3800,734,-2783,554,10650,1881,32767,148,96,818
665322,10299460,9455680,10305330,9486130,3020,3800,6111,5334,300,6792,2889,18570,157,98,819
666322,10300324,9456196,10306074,9486874,2668,3800,7198,3687,-190,5995,5809,-4135,157,98,819
667324,10301288,9456616,10306818,9487618,1948,3800,6430,-2014,-718,5968,5866,-6742,159,105,820
668324,10302132,9457216,10307562,9488362,2655,3800,6004,-6749,-936,5958,2063,-5380,159,105,820
669326,10302936,9457748,10308306,9489106,2879,3800,4610,-7216,-250,6621,-654,6233,178,109,822
670326,10303796,9458364,10309050,9489850,2479,3800,2209,-4569,773,7372,1267,10165,178,109,822
671328,10304612,9459000,10309794,9490594,2724,3800,453,-4306,1173,5182,1841,-649,168,116,821
672341,10305216,9459748,10310538,9491338,3800,3800,-23,-6384,1098,3111,2619,-3374,168,116,821
673330,10305988,9460476,10311282,9492082,3050,3800,6,-9551,1055,2543,2434,-4451,155,139,822
674330,10306668,9461280,10312026,9492826,3654,3800,-111,-11641,933,2168,2673,-1427,155,139,822
675344,10307320,9462036,10312770,9493570,3800,3800,-547,-11594,920,802,2106,4224,147,162,819
676332,10308024,9462928,10313514,9494314,3564,3800,-1364,-9824,1270,497,-538,8221,147,162,819
677346,10308628,9463844,10314258,9495058,3800,3800,-2161,-7571,1941,-6,-3299,8426,155,183,818
678347,10309252,9464820,10315002,9495802,3800,3800,-2484,-6410,2687,-1238,-3446,4778,155,183,818
679348,10309848,9465792,10315746,9496546,3800,3800,-2220,-6493,3101,-1324,-2350,1446,147,185,818
680349,10310492,9466632,10316490,9497290,3800,3800,-1735,-6710,3329,-1380,-2560,2184,147,185,818
681351,10311096,9467640,10317234,9498034,3800,3800,-1248,-6153,3629,-1728,-2497,4226,141,196,818
682358,10311652,9468752,10317994,9498794,3800,3800,-922,-4385,4149,-1049,-4428,7414,141,196,818
683352,10312284,9469796,10318738,9499538,3800,3800,-650,-1774,4846,-756,-5286,9026,145,203,819
684353,10312872,9470756,10319482,9500282,3800,3800,-333,761,5398,-708,-4370,8537,145,203,819
685354,10313440,9471796,10320226,9501026,3800,3800,164,2620,5674,244,-3615,6689,135,204,819
686355,10314084,9472896,10320970,9501770,3800,3800,819,4014,5661,602,-2723,5902,135,204,819
687356,10314700,9473816,10321714,9502514,3800,3800,1532,5529,5472,1050,-2456,6426,141,194,818
688357,10315336,9474936,10322458,9503258,3800,3800,2189,7323,5175,1933,-2451,6989,141,194,818
689358,10316056,9475968,10323202,9504002,3800,3800,2769,9365,4920,2577,-2888,8043,152,185,819
690359,10316744,9476924,10323946,9504746,3800,3800,3342,11405,4688,3107,-2964,7420,152,185,819
691360,10317412,9477788,10324690,9505490,3800,3800,3977,12997,4278,4002,-2255,5807,151,199,819
692361,10318192,9478696,10325434,9506234,3800,3800,4675,13994,3686,4571,-1687,4413,151,199,819
693362,10318976,9479664,10326178,9506978,3800,3800,5364,14783,3007,5344,-1235,4008,158,196,820
694363,10319760,9480560,10326922,9507722,3800,3800,5896,15275,2236,6530,-677,2982,158,196,820
695351,10320660,9481460,10327666,9508466,3029,3800,6229,15586,1447,7653,-469,2728,159,179,820
696352,10321476,9482320,10328410,9509210,3524,3800,6421,15791,614,8185,23,2113,159,179,820
697353,10322400,9483184,10329154,9509954,2771,3800,6554,15582,-355,7666,6,862,191,193,821
698354,10323368,9484112,10329898,9510698,2399,3800,6634,15191,-1418,6679,-141,848,191,193,821
699355,10324212,9485132,10330642,9511442,3131,3800,6521,14942,-2419,5924,-546,1220,173,191,822
700356,10325144,9485936,10331386,9512186,2500,3800,6211,14764,-3403,5287,-936,1011,173,191,822
701357,10326036,9486804,10332130,9512930,2686,3800,5756,14445,-4472,4450,-1082,382,176,186,823
702358,10327072,9487656,10332874,9513674,1659,3800,5226,13794,-5677,3641,-515,-596,176,186,823
703359,10327984,9488568,10333618,9514418,2361,3800,4662,12816,-7006,3098,1417,-1452,202,198,824
704367,10328956,9489412,10334378,9515178,1894,3800,4067,11696,-8176,2791,1357,-1915,202,198,824
705361,10330028,9490344,10335122,9515922,1126,3800,3414,10667,-8994,2369,-109,-1737,175,179,825
706363,10331028,9491056,10335866,9516666,1465,3800,2757,9891,-9554,1546,-563,-1148,175,179,825
707363,10331932,9491952,10336610,9517410,1995,3800,2237,9139,-9987,782,-555,-1576,176,179,827
708364,10332948,9492872,10337354,9518154,1177,3800,1870,8333,-10321,29,-491,-1690,176,179,827
709365,10333820,9493880,10338098,9518898,2020,3800,1618,7591,-10490,-1283,-762,-1487,183,203,826
710367,10334720,9495024,10338842,9519642,1778,3800,1306,7283,-10373,-3036,-2082,-34,183,203,826
711368,10335652,9495972,10339586,9520386,1496,3800,998,7286,-9956,-4670,-2629,340,193,218,827
712368,10336472,9497064,10340330,9521130,2164,3800,771,7391,-9347,-5504,-3220,620,193,218,827
713370,10337264,9498128,10341074,9521874,2318,3800,565,7497,-8657,-5884,-3206,264,161,217,828
714371,10338088,9499212,10341818,9522618,2084,3800,374,7385,-7909,-6706,-3207,-409,161,217,828
715372,10338860,9500352,10342562,9523362,2397,3800,203,7067,-7080,-7586,-3538,-590,180,205,827
716372,10339572,9501380,10343306,9524106,2787,3800,38,6704,-6137,-8248,-3717,-912,180,205,827
717374,10340376,9502388,10344050,9524850,2186,3800,-231,6439,-5164,-9033,-3181,-656,141,207,826
718374,10341032,9503372,10344794,9525594,3151,3800,-574,6479,-4136,-9927,-3003,254,141,207,826
719375,10341688,9504376,10345538,9526338,3190,3800,-1037,6628,-2956,-10625,-3542,903,145,205,826
720376,10342380,9505484,10346282,9527082,2988,3800,-1516,6917,-1630,-11211,-3976,1445,145,205,826
721377,10342972,9506484,10347026,9527826,3681,3800,-1960,7105,-230,-11777,-4082,1054,140,219,823
722379,10343568,9507420,10347770,9528570,3722,3800,-2317,6796,1129,-11839,-3339,-258,140,219,823
723379,10344192,9508352,10348514,9529314,3601,3800,-2537,5582,2353,-10415,-2360,-2572,130,200,820
724393,10344748,9509284,10349258,9530058,3800,3800,-2725,3640,3489,-7658,-1650,-4068,130,200,820
725394,10345316,9510160,10350002,9530802,3800,3800,-2957,899,4540,-5410,-1472,-5881,130,180,819
726402,10345828,9511000,10350762,9531562,3800,3800,-3257,-2021,5552,-4146,-1135,-5585,130,180,819
727396,10346400,9511760,10351506,9532306,3800,3800,-3611,-4958,6585,-3066,-1156,-5275,105,147,816
728397,10346928,9512468,10352250,9533050,3800,3800,-4049,-7663,7613,-1997,-1631,-4039,105,147,816
729398,10347432,9513124,10352994,9533794,3800,3800,-4604,-9790,8551,-1085,-1769,-2128,99,132,814
730399,10348028,9513676,10353738,9534538,3800,3800,-5076,-11916,9306,-565,-1908,-2934,99,132,814
731400,10348628,9514200,10354482,9535282,3800,3800,-5484,-14108,9816,408,-1273,-1997,124,104,812
732401,10349196,9514648,10355226,9536026,3800,3800,-5863,-15897,10133,951,-837,-150,124,104,812
733402,10349752,9515020,10355970,9536770,3800,3800,-6082,-17478,10340,775,-875,-23,109,90,813
734403,10350336,9515380,10356714,9537514,3800,3800,-6034,-18964,10428,837,-308,430,109,90,813
735404,10350812,9515712,10357458,9538258,3800,3800,-5936,-20046,10234,1297,574,2514,117,78,811
736405,10351480,9516024,10358202,9539002,3800,3800,-5807,-20626,9712,1739,966,3175,117,78,811
737406,10352044,9516304,10358946,9539746,3800,3800,-5727,-20908,9067,2468,-100,4764,122,73,811
738407,10352680,9516580,10359690,9540490,3800,3800,-5778,-20471,8558,2700,-1088,7638,122,73,811
739408,10353288,9516852,10360434,9541234,3800,3800,-5867,-19667,8066,2290,-50,8072,132,47,812
740409,10353948,9517104,10361178,9541978,3800,3800,-5972,-18819,7384,1901,1106,8315,132,47,812
741410,10354548,9517308,10361922,9542722,3800,3800,-6006,-17980,6510,1753,1828,8537,118,44,811
742411,10355248,9517540,10362666,9543466,3800,3800,-5953,-17502,5520,2590,1816,7490,118,44,811
743412,10355828,9517724,10363410,9544210,3800,3800,-5901,-17187,4549,4135,2172,7071,107,52,810
744413,10356448,9517936,10364154,9544954,3800,3800,-5809,-17173,3714,5032,2667,6109,107,52,810
745414,10357124,9518124,10364898,9545698,3800,3800,-5731,-17226,3062,5964,2358,6254,135,54,810
746415,10357784,9518392,10365642,9546442,3800,3800,-5909,-16685,2719,7238,1657,8445,135,54,810
747416,10358528,9518704,10366386,9547186,3800,3800,-5986,-16453,2397,8028,2605,6043,120,68,811
748426,10359304,9518968,10367146,9547946,3800,3800,-1723,-8955,1550,16608,5556,32767,120,68,811
749418,10360104,9519224,10367890,9548690,3800,3800,5066,2797,413,15362,6037,32767,135,72,813
750406,10361084,9519540,10368634,9549434,2827,3800,8222,4362,-293,6964,3531,1016,135,72,813
751407,10361940,9519892,10369378,9550178,3555,3800,7957,-499,-690,6733,4042,-2634,172,73,813
752408,10362960,9520220,10370122,9550922,2410,3800,7155,-5232,-1012,7017,2957,-3514,172,73,813
753409,10363776,9520620,10370866,9551666,3654,3800,6448,-7888,-1272,7096,2372,-487,172,78,817
754410,10364748,9521076,10371610,9552410,2581,3800,4934,-6871,-871,6823,-2262,8733,172,78,817
755411,10365724,9521556,10372354,9553154,2455,3800,3190,-5614,146,6256,-3956,4670,178,84,819
756412,10366632,9521992,10373098,9553898,2809,3800,2000,-5983,1054,5554,-2225,817,178,84,819
757413,10367464,9522488,10373842,9554642,3247,3800,1392,-7233,1763,4440,-1121,821,176,116,819
758414,10368400,9523088,10374586,9555386,2514,3800,1105,-8555,2193,2811,605,422,176,116,819
759415,10369236,9523636,10375330,9556130,3100,3800,854,-9090,2253,1277,1890,2549,162,109,820
760416,10370088,9524260,10376074,9556874,2953,3800,638,-8694,2248,426,2643,4615,162,109,820
761430,10370736,9524880,10376818,9557618,3800,3800,492,-7665,2309,360,3152,5492,166,138,821
762418,10371508,9525620,10377562,9558362,3485,3800,417,-6324,2503,124,3317,6532,166,138,821
763419,10372236,9526364,10378306,9559106,3769,3800,386,-4622,2794,-829,3826,7716,174,139,820
764420,10373012,9527156,10379050,9559850,3456,3800,387,-2521,3146,-1455,3842,8724,174,139,820
765434,10373712,9527896,10379794,9560594,3800,3800,412,-173,3457,-2009,4117,8426,157,149,818
766435,10374388,9528748,10380538,9561338,3800,3800,340,2177,3678,-2417,4409,8126,157,149,818
767436,10375116,9529612,10381282,9562082,3800,3800,97,4534,3810,-2397,4096,8260,159,168,819
768437,10375808,9530524,10382026,9562826,3800,3800,-257,6882,3981,-2137,2965,8053,159,168,819
769438,10376444,9531548,10382770,9563570,3800,3800,-541,8885,4122,-1669,2536,6637,152,186,819
770446,10377128,9532468,10383530,9564330,3800,3800,-647,10304,4118,-958,2468,4879,152,186,819
771440,10377756,9533388,10384274,9565074,3800,3800,-556,11106,4034,-364,2008,3225,143,197,819
772441,10378372,9534444,10385018,9565818,3800,3800,-331,11480,3930,298,1516,2074,143,197,819
773442,10378960,9535524,10385762,9566562,3800,3800,-149,11662,3906,1495,823,2114,129,197,819
774443,10379624,9536572,10386506,9567306,3800,3800,-74,12027,4028,2636,-267,2382,129,197,819
775445,10380220,9537588,10387250,9568050,3800,3800,-31,12264,4180,3337,-442,1596,132,205,818
776445,10380812,9538720,10387994,9568794,3800,3800,86,12092,4171,3596,-208,337,132,205,818
777447,10381484,9539752,10388738,9569538,3800,3800,349,11327,3912,3518,-38,-1152,140,209,819
778448,10382096,9540760,10389482,9570282,3800,3800,764,10199,3510,3804,-604,-2123,140,209,819
779449,10382736,9541716,10390226,9571026,3800,3800,1156,9139,3148,4378,-1790,-1266,127,204,819
780449,10383472,9542744,10390970,9571770,3800,3800,1457,8447,2865,4429,-2864,-378,127,204,819
781451,10384164,9543640,10391714,9572514,3800,3800,1742,7855,2504,4401,-3154,-597,150,192,819
782451,10384908,9544488,10392458,9573258,3800,3800,2038,7281,1989,4286,-3507,-298,150,192,819
783453,10385728,9545388,10393202,9574002,3800,3800,2287,6922,1394,4176,-3995,657,154,180,819
784453,10386540,9546288,10393946,9574746,3800,3800,2422,6890,761,4078,-4497,1412,154,180,819
785442,10387384,9547256,10394690,9575490,3615,3800,2481,7088,117,3843,-5265,1989,151,194,820
786443,10388308,9548196,10395434,9576234,3038,3800,2531,7455,-540,3481,-5550,2348,151,194,820
787443,10389172,9549096,10396178,9576978,3361,3800,2548,7969,-1287,2918,-4069,2727,176,174,820
788445,10390052,9549960,10396922,9577722,3203,3800,2506,8623,-2188,2117,-3446,3069,176,174,820
789446,10391036,9550892,10397666,9578466,2449,3800,2402,9348,-3189,1420,-5127,3025,169,186,823
790446,10391972,9551732,10398410,9579210,2666,3800,2206,9954,-4339,838,-4392,2463,169,186,823
791447,10392960,9552620,10399154,9579954,2234,3800,1972,10300,-5545,686,-2717,1517,195,196,822
792456,10393988,9553540,10399914,9580714,1868,3800,1732,10406,-6613,686,-994,739,195,196,822
793450,10394984,9554436,10400658,9581458,1958,3800,1535,10357,-7374,616,-1259,349,210,180,825
794451,10395968,9555296,10401402,9582202,1928,3800,1371,10128,-7829,406,-1969,-313,210,180,825
795452,10396988,9556344,10402146,9582946,1583,3800,1229,9702,-8103,52,-2568,-1010,215,194,826
796452,10398060,9557316,10402890,9583690,1115,3800,1092,9115,-8291,-41,-2771,-1587,215,194,826
797454,10398940,9558340,10403634,9584434,2256,3800,958,8393,-8365,-499,-2634,-2100,205,206,826
798454,10399908,9559272,10404378,9585178,1609,3800,838,7671,-8221,-1488,-2798,-1798,205,206,826
799455,10400880,9560304,10405122,9585922,1485,3800,763,7170,-7833,-2896,-3291,-1151,206,211,829
800457,10401784,9561292,10405866,9586666,1840,3800,697,6830,-7289,-4274,-3412,-890,206,211,829
801458,10402620,9562536,10406610,9587410,2226,3800,661,6639,-6608,-5246,-3200,-664,180,228,829
802459,10403500,9563660,10407354,9588154,1891,3800,632,6278,-5794,-5709,-3332,-1035,180,228,829
803460,10404332,9564796,10408098,9588898,2153,3800,542,5906,-4893,-6126,-2822,-876,185,237,829
804461,10405084,9565896,10408842,9589642,2651,3800,371,5482,-3985,-6999,-2084,-830,185,237,829
805462,10405876,9567012,10409586,9590386,2381,3800,155,5241,-3089,-7861,-1989,-308,159,233,829
806463,10406580,9568056,10410330,9591130,2948,3800,-133,5160,-2101,-8834,-2287,405,159,233,829
807463,10407260,9569188,10411074,9591874,3128,3800,-449,5225,-1007,-9682,-2634,773,148,225,825
808465,10407972,9570160,10411818,9592618,2943,3800,-805,5413,156,-10663,-2471,1356,148,225,825
809466,10408616,9571168,10412562,9593362,3413,3800,-1192,5518,1366,-11227,-2194,1192,155,216,823
810467,10409252,9572148,10413306,9594106,3510,3800,-1610,5396,2573,-10976,-2037,919,155,216,823
811468,10409920,9573036,10414050,9594850,3344,3800,-1975,4707,3743,-9846,-1554,-844,137,197,824
812469,10410552,9574004,10414794,9595594,3620,3800,-2333,3339,4779,-7591,-546,-2268,137,197,824
813482,10411152,9574820,10415538,9596338,3800,3800,-2682,1111,5688,-5646,-344,-4058,128,180,820
814477,10411880,9575580,10416298,9597098,3098,3800,-3093,-1350,6521,-4523,-574,-4078,128,180,820
815484,10412432,9576272,10417042,9597842,3800,3800,-3509,-3852,7306,-3925,-790,-4152,137,145,818
816485,10413016,9576892,10417786,9598586,3800,3800,-3984,-6105,8049,-3404,-675,-2833,137,145,818
817487,10413612,9577492,10418530,9599330,3800,3800,-4525,-8005,8722,-2532,-750,-1891,117,121,819
818487,10414224,9578076,10419274,9600074,3800,3800,-5150,-9743,9314,-1591,-689,-1174,117,121,819
819488,10414732,9578608,10420018,9600818,3800,3800,-5765,-11589,9652,-612,-54,-1440,104,107,814
820489,10415284,9579060,10420762,9601562,3800,3800,-6207,-13523,9690,-160,383,-1073,104,107,814
821490,10415872,9579408,10421506,9602306,3800,3800,-6416,-15407,9407,52,449,-460,99,91,813
822491,10416300,9579752,10422250,9603050,3800,3800,-6575,-16902,8923,-27,-214,1193,99,91,813
823492,10416900,9580064,10422994,9603794,3800,3800,-6747,-17845,8457,364,-741,2639,105,65,813
824493,10417440,9580332,10423738,9604538,3800,3800,-6904,-18743,8018,1371,-1238,2626,105,65,813
825495,10418012,9580548,10424482,9605282,3800,3800,-7057,-19231,7568,1979,-1347,4391,106,62,811
826495,10418548,9580760,10425226,9606026,3800,3800,-7206,-19684,6981,2214,-628,4250,106,62,811
827496,10419104,9580972,10425970,9606770,3800,3800,-7233,-20267,6141,2679,-61,4431,102,58,811
828497,10419684,9581176,10426714,9607514,3800,3800,-7326,-20391,5125,3135,359,6280,102,58,811
829498,10420316,9581384,10427458,9608258,3800,3800,-7333,-20671,4040,3977,77,5118,120,52,810
830499,10420932,9581548,10428202,9609002,3800,3800,-7303,-20963,3001,4861,-363,5529,120,52,810
831500,10421460,9581724,10428946,9609746,3800,3800,-7267,-21312,2087,5475,194,5426,102,43,807
832501,10422076,9581896,10429690,9610490,3800,3800,-7222,-21664,1263,6307,572,5809,102,43,807
833502,10422604,9582080,10430434,9611234,3800,3800,-6182,-20945,571,8629,429,9519,103,48,811
834503,10423188,9582296,10431178,9611978,3800,3800,941,-7475,-775,22746,3026,32767,103,48,811
835504,10423776,9582488,10431922,9612722,3800,3800,8215,4235,-2221,13704,2457,19865,111,51,811
836514,10424480,9582700,10432682,9613482,3800,3800,9931,4438,-3010,6796,2494,4240,111,51,811
837506,10425168,9582908,10433426,9614226,3800,3800,7834,563,-3150,7921,418,5051,141,52,811
838507,10425984,9583136,10434170,9614970,3800,3800,5493,-2618,-2881,8399,-2410,4,141,52,811
839508,10426756,9583404,10434914,9615714,3800,3800,4660,-5960,-2692,7776,290,-6173,131,61,812
840509,10427616,9583612,10435658,9616458,3800,3800,3825,-8189,-2375,7459,-3513,-38,131,61,812
841498,10428488,9583936,10436402,9617202,3769,3800,2422,-9727,-2003,6931,-2897,-797,165,61,812
842499,10429504,9584280,10437146,9617946,2751,3800,1366,-11576,-1570,6627,-1440,-2264,165,61,812
843512,10430312,9584588,10437890,9618690,3800,3800,471,-13658,-827,7228,-1930,-2032,145,70,815
844500,10431176,9584984,10438634,9619434,3623,3800,-339,-15132,-203,6962,-163,740,145,70,815
845502,10432024,9585472,10439378,9620178,3679,3800,-1150,-15503,80,6405,3006,3796,171,83,818
846502,10432920,9585908,10440122,9620922,3313,3800,-1593,-15555,110,5689,4119,2623,171,83,818
847504,10433780,9586396,10440866,9621666,3488,3800,-1683,-15498,170,4339,3471,3887,165,97,814
848517,10434524,9586940,10441610,9622410,3800,3800,-1655,-14800,379,2220,3689,6325,165,97,814
849506,10435440,9587448,10442354,9623154,3066,3800,-1555,-13516,622,876,3586,7314,163,102,818
850519,10436128,9588024,10443098,9623898,3800,3800,-1443,-11639,805,3,4033,8584,163,102,818
851520,10436832,9588620,10443842,9624642,3800,3800,-1246,-9148,1017,-683,4487,9683,149,117,814
852521,10437596,9589184,10444586,9625386,3800,3800,-1062,-6362,1247,-1297,4527,10140,149,117,814
853522,10438332,9589824,10445330,9626130,3800,3800,-907,-3577,1480,-2486,4481,10261,163,109,816
854523,10439032,9590444,10446074,9626874,3800,3800,-780,-622,1823,-2864,4370,11565,163,109,816
855524,10439776,9591248,10446818,9627618,3800,3800,-757,2856,2280,-2280,4587,12304,167,128,817
856525,10440464,9591980,10447562,9628362,3800,3800,-760,6268,2736,-2361,4600,11218,167,128,817
857527,10441160,9592768,10448306,9629106,3800,3800,-634,9021,3068,-2609,4320,9075,156,145,816
858534,10441908,9593528,10449066,9629866,3800,3800,-337,10939,3265,-2259,3920,6909,156,145,816
859528,10442568,9594384,10449810,9630610,3800,3800,457,13241,3567,-725,3201,3858,159,155,817
860529,10443236,9595300,10450554,9631354,3800,3800,776,13879,3775,366,2873,2877,159,155,817
861530,10443952,9596232,10451298,9632098,3800,3800,1017,14253,4025,1645,2352,1819,155,165,819
862531,10444588,9597184,10452042,9632842,3800,3800,1204,14159,4221,2836,1736,256,155,165,819
863532,10445228,9598120,10452786,9633586,3800,3800,1434,13460,4276,3234,1254,-1663,144,189,817
864533,10445904,9599048,10453530,9634330,3800,3800,1739,12150,4176,2934,1007,-2924,144,189,817
865534,10446532,9600112,10454274,9635074,3800,3800,2059,10757,3960,2948,114,-2993,133,204,818
866535,10447160,9601316,10455018,9635818,3800,3800,2304,9599,3722,3371,-875,-2266,133,204,818
867536,10447808,9602320,10455762,9636562,3800,3800,2426,8891,3573,4047,-2004,-1139,127,197,818
868537,10448512,9603408,10456506,9637306,3800,3800,2422,8344,3404,4379,-2720,-852,127,197,818
869538,10449212,9604488,10457250,9638050,3800,3800,2429,7694,3018,4134,-2628,-1139,136,208,818
870539,10449920,9605540,10457994,9638794,3800,3800,2523,6756,2373,3856,-2309,-1724,136,208,818
871540,10450740,9606588,10458738,9639538,3800,3800,2609,6028,1624,3934,-2846,-644,152,205,820
872541,10451468,9607624,10459482,9640282,3800,3800,2508,5845,875,4066,-3602,956,152,205,820
873543,10452216,9608548,10460226,9641026,3800,3800,2281,6166,138,4047,-4174,1771,156,200,819
874530,10453144,9609452,10460970,9641770,3428,3800,2071,6585,-639,3630,-4422,1810,156,200,819
875544,10453980,9610224,10461714,9642514,3800,3800,1916,7049,-1466,3257,-4845,2323,180,188,819
876545,10454832,9611104,10462458,9643258,3800,3800,1787,7544,-2313,2932,-5067,2383,180,188,819
877533,10455832,9612072,10463202,9644002,2781,3800,1639,8190,-3165,2394,-5257,2803,181,190,821
878534,10456692,9612800,10463946,9644746,3606,3800,1451,8953,-4061,1752,-5202,2919,181,190,821
879535,10457620,9613656,10464690,9645490,3102,3800,1250,9721,-5088,1035,-4302,2488,171,191,820
880543,10458656,9614508,10465450,9646250,2307,3800,1027,10285,-6316,414,-2996,1672,171,191,820
881537,10459700,9615320,10466194,9646994,2126,3800,799,10568,-7620,330,-2944,960,197,164,821
882539,10460768,9616292,10466938,9647738,1836,3800,543,10662,-8761,509,-3780,563,197,164,821
883539,10461876,9617092,10467682,9648482,1427,3800,323,10570,-9561,702,-3482,-415,202,175,825
884541,10462816,9617936,10468426,9649226,2392,3800,208,10172,-10100,354,-2006,-1356,202,175,825
885541,10463804,9618816,10469170,9649970,1986,3800,151,9465,-10377,4,-2570,-1889,198,174,825
886542,10464816,9619688,10469914,9650714,1719,3800,115,8586,-10424,-267,-3034,-2599,198,174,825
887543,10465740,9620536,10470658,9651458,2191,3800,66,7555,-10261,-865,-3133,-2937,186,182,825
888544,10466676,9621632,10471402,9652202,2032,3800,-19,6714,-9895,-2109,-3449,-2105,186,182,825
889545,10467628,9622528,10472146,9652946,1842,3800,-144,6191,-9369,-3805,-3745,-1242,179,201,826
890547,10468480,9623460,10472890,9653690,2420,3800,-262,5870,-8677,-4953,-4056,-716,179,201,826
891548,10469268,9624412,10473634,9654434,2802,3800,-403,5542,-7811,-5700,-3826,-540,168,200,826
892548,10470044,9625304,10474378,9655178,2863,3800,-559,5263,-6813,-6642,-3069,-449,168,200,826
893550,10470844,9626468,10475122,9655922,2689,3800,-722,4964,-5694,-7805,-3164,-420,168,215,826
894550,10471484,9627524,10475866,9656666,3736,3800,-909,4570,-4469,-8554,-3389,-317,168,215,826
895564,10472116,9628692,10476610,9657410,3800,3800,-1189,4097,-3242,-8348,-3111,-356,147,246,823
896565,10472756,9629828,10477354,9658154,3800,3800,-1504,3627,-2084,-8097,-2545,-719,147,246,823
897566,10473336,9630872,10478098,9658898,3800,3800,-1773,2630,-950,-7757,-2334,-1973,119,217,819
898567,10473888,9631928,10478842,9659642,3800,3800,-2036,1468,185,-7301,-1979,-1862,119,217,819
899568,10474508,9633008,10479586,9660386,3800,3800,-2328,55,1307,-6959,-1204,-2521,125,207,820
900569,10475092,9633988,10480330,9661130,3800,3800,-2667,-1256,2404,-6884,-1212,-1704,125,207,820
901570,10475588,9634904,10481074,9661874,3800,3800,-3066,-2344,3512,-6853,-1025,-661,120,205,819
902578,10476180,9635756,10481834,9662634,3800,3800,-3516,-3364,4574,-6052,-1036,-323,120,205,819
903572,10476672,9636668,10482578,9663378,3800,3800,-4057,-4114,5524,-4697,-881,275,116,199,818
904573,10477220,9637628,10483322,9664122,3800,3800,-4532,-5565,6383,-3939,-706,-1485,116,199,818
905574,10477788,9638408,10484066,9664866,3800,3800,-5038,-6858,7144,-2869,-1570,7,117,174,816
906576,10478348,9639184,10484810,9665610,3800,3800,-5467,-8380,7882,-2263,-1633,-656,117,174,816
907577,10478860,9639956,10485554,9666354,3800,3800,-5840,-9467,8544,-1429,-1999,1534,101,159,816
908577,10479404,9640628,10486298,9667098,3800,3800,-6158,-9973,9081,-1122,-2042,2907,101,159,816
909578,10479880,9641308,10487042,9667842,3800,3800,-6409,-10421,9530,-682,-2260,3610,97,129,815
910579,10480356,9641872,10487786,9668586,3800,3800,-6609,-10331,9772,98,-1794,5100,97,129,815
911580,10480932,9642376,10488530,9669330,3800,3800,-6650,-10622,9761,465,-1065,3913,101,117,814
912581,10481464,9642868,10489274,9670074,3800,3800,-6710,-10655,9485,743,-1127,5784,101,117,814
913582,10481880,9643268,10490018,9670818,3800,3800,-6728,-10664,9110,617,-1637,5335,113,87,813
914584,10482500,9643632,10490762,9671562,3800,3800,-6759,-10946,8659,1695,-3222,5427,113,87,813
915584,10483020,9643996,10491506,9672306,3800,3800,-6827,-10775,8010,2294,-2841,6248,115,73,812
916585,10483584,9644256,10492250,9673050,3800,3800,-6850,-11041,7121,2148,-2358,5186,115,73,812
917586,10484204,9644480,10492994,9673794,3800,3800,-6055,-12202,5619,6167,-6412,6798,104,60,810
918587,10484784,9644644,10493738,9674538,3800,3800,-2199,-16391,1724,21086,-18278,30358,104,60,810
919588,10485356,9644792,10494482,9675282,3800,3800,-802,-15892,-707,9732,-2495,24185,122,45,809
920589,10485980,9644920,10495226,9676026,3800,3800,-1873,-13056,-1629,5029,3198,12110,122,45,809
921590,10486648,9645052,10495970,9676770,3800,3800,-3035,-11902,-2484,3170,4597,6663,126,25,811
922591,10487324,9645168,10496714,9677514,3800,3800,-1425,-10970,-3593,3476,3316,17522,126,25,811
923592,10487976,9645272,10497458,9678258,3800,3800,3035,-4927,-4720,4551,1981,32767,133,27,810
924602,10488744,9645360,10498218,9679018,3800,3800,5961,-1842,-5791,2953,3777,8538,133,27,810
925594,10489492,9645468,10498962,9679762,3800,3800,6120,-3535,-6594,3127,3037,362,137,25,811
926595,10490248,9645592,10499706,9680506,3800,3800,5490,-6720,-7112,5092,1387,-663,137,25,811
927596,10491032,9645704,10500450,9681250,3800,3800,5004,-8905,-7264,5125,1676,1465,132,30,811
928597,10491840,9645836,10501194,9681994,3800,3800,4894,-10321,-7231,4997,2360,775,132,30,811
929598,10492588,9645980,10501938,9682738,3800,3800,4652,-11769,-7201,6146,1805,428,148,28,811
930599,10493460,9646144,10502682,9683482,3800,3800,3927,-12200,-6949,6623,931,4853,148,28,811
931600,10494256,9646344,10503426,9684226,3800,3800,2131,-10895,-6385,5907,-2720,9436,135,54,811
932601,10495196,9646584,10504170,9684970,3800,3800,826,-10970,-6067,5660,85,1074,135,54,811
933589,10496148,9646848,10504914,9685714,3769,3800,244,-12347,-5921,4899,2034,483,157,64,812
934603,10496928,9647132,10505658,9686458,3800,3800,-295,-13480,-5585,3740,-425,1893,157,64,812
935591,10497908,9647416,10506402,9687202,3478,3800,-1012,-14088,-5062,3252,-717,2086,169,75,813
936592,10498852,9647796,10507146,9687946,3616,3800,-1405,-14109,-4468,2345,1474,3105,169,75,813
937606,10499720,9648196,10507890,9688690,3800,3800,-1524,-13723,-3950,1761,2772,4648,190,84,815
938594,10500648,9648596,10508634,9689434,3584,3800,-1566,-12933,-3472,1345,2966,5853,190,84,815
939596,10501540,9649008,10509378,9690178,3746,3800,-1649,-11697,-2968,-126,3551,7587,175,83,814
940609,10502304,9649436,10510122,9690922,3800,3800,-1783,-9807,-2477,-650,4063,9209,175,83,814
941610,10503072,9649968,10510866,9691666,3800,3800,-1993,-7561,-1870,-734,3589,10140,175,114,815
942611,10503924,9650500,10511610,9692410,3800,3800,-2111,-5063,-1074,-1163,3704,10473,175,114,815
943612,10504716,9651112,10512354,9693154,3800,3800,-2175,-2723,-300,-1067,4846,9568,177,114,816
944613,10505460,9651672,10513098,9693898,3800,3800,-2146,-697,371,-1351,5492,8513,177,114,816
945614,10506196,9652352,10513842,9694642,3800,3800,-2043,938,996,-1759,5676,7526,160,122,817
946622,10507060,9652992,10514602,9695402,3800,3800,-1892,2418,1634,-1350,4733,7189,160,122,817
947616,10507824,9653724,10515346,9696146,3800,3800,-1753,3904,2309,-922,3599,7224,169,136,817
948617,10508588,9654392,10516090,9696890,3800,3800,-1625,5460,2978,-466,3053,7205,169,136,817
949618,10509400,9655148,10516834,9697634,3800,3800,-1494,6677,3456,45,3466,5690,165,145,818
950619,10510148,9655868,10517578,9698378,3800,3800,-1315,7366,3720,445,3930,4101,165,145,818
951620,10510888,9656720,10518322,9699122,3800,3800,-1092,7638,3915,1070,3861,3095,168,167,816
952621,10511664,9657544,10519066,9699866,3800,3800,-858,7779,4135,2189,3335,2791,168,167,816
953622,10512400,9658524,10519810,9700610,3800,3800,-655,7925,4406,3056,2930,2760,153,183,817
954623,10513096,9659440,10520554,9701354,3800,3800,-489,8169,4718,3729,2364,2867,153,183,817
955624,10513912,9660316,10521298,9702098,3800,3800,-336,8397,4973,4109,2003,2446,141,189,818
956625,10514644,9661364,10522042,9702842,3800,3800,-145,8388,5127,3993,1531,1850,141,189,818
957626,10515428,9662392,10522786,9703586,3800,3800,30,8302,5081,3959,1079,1756,173,198,819
958614,10516280,9663452,10523530,9704330,3765,3800,181,8123,4751,4191,916,1467,173,198,819
959628,10517072,9664460,10524274,9705074,3800,3800,339,7988,4278,4334,78,1561,166,185,820
960629,10517848,9665540,10525018,9705818,3800,3800,485,7967,3743,4291,-900,1964,166,185,820
961618,10518796,9666660,10525762,9706562,3044,3800,619,8103,3159,4226,-1897,2242,167,209,820
962619,10519648,9667660,10526506,9707306,3598,3800,758,8264,2502,4074,-2711,2113,167,209,820
963619,10520512,9668720,10527250,9708050,3472,3800,874,8468,1782,3824,-3758,2283,177,205,820
964620,10521504,9669944,10527994,9708794,2564,3800,1038,8643,1045,3457,-4429,1961,177,205,820
965621,10522428,9671012,10528738,9709538,2910,3800,1255,8860,260,2839,-4899,2029,189,210,822
966622,10523408,9672080,10529482,9710282,2459,3800,1454,9347,-551,2344,-5951,2948,189,210,822
967623,10524472,9673052,10530226,9711026,1794,3800,1659,10002,-1356,1835,-6507,2998,180,203,826
968631,10525444,9674024,10530986,9711786,2277,3800,1897,10614,-2186,1551,-6713,2815,180,203,826
969625,10526448,9675052,10531730,9712530,1964,3800,2187,11052,-3025,1476,-6915,2114,202,202,825
970626,10527464,9675868,10532474,9713274,1770,3800,2514,11315,-3835,1377,-7005,1645,202,202,825
971627,10528560,9676772,10533218,9714018,1116,3800,2795,11624,-4493,1412,-7764,1759,193,194,825
972629,10529520,9677768,10533962,9714762,1873,3800,3084,11728,-5025,1300,-7199,448,193,194,825
973630,10530416,9678692,10534706,9715506,2207,3800,3364,11485,-5513,870,-4711,-439,207,203,826
974630,10531420,9679676,10535450,9716250,1417,3800,3606,11003,-6004,861,-3269,-1178,207,203,826
975631,10532256,9680652,10536194,9716994,2428,3800,3754,10316,-6486,653,-2179,-1394,197,186,827
976632,10533152,9681620,10536938,9717738,1987,3800,3833,9683,-6885,207,-2258,-1465,197,186,827
977634,10533964,9682508,10537682,9718482,2483,3800,3827,8943,-7243,-129,-2285,-2189,192,191,827
978635,10534780,9683432,10538426,9719226,2427,3800,3809,7891,-7558,-369,-1723,-3153,192,191,827
979635,10535596,9684344,10539170,9719970,2396,3800,3744,6674,-7759,-393,-2127,-3333,176,195,826
980637,10536396,9685308,10539914,9720714,2472,3800,3564,5641,-7766,-948,-2871,-2719,176,195,826
981638,10537072,9686176,10540658,9721458,3277,3800,3258,5096,-7568,-2273,-3182,-1408,148,184,824
982639,10537740,9687176,10541402,9722202,3362,3800,2958,4720,-7245,-3604,-2795,-1381,148,184,824
983639,10538416,9688136,10542146,9722946,3343,3800,2636,4612,-6806,-4283,-2775,-317,158,198,823
984641,10539032,9689108,10542890,9723690,3774,3800,2308,4707,-6140,-4442,-2640,-79,158,198,823
985654,10539600,9690184,10543634,9724434,3800,3800,1937,4646,-5340,-4124,-2168,-488,130,213,819
986655,10540228,9691188,10544378,9725178,3800,3800,1569,4247,-4471,-3970,-1926,-1243,130,213,819
987656,10540784,9692256,10545122,9725922,3800,3800,1208,3679,-3572,-3815,-1652,-1488,114,218,819
988657,10541284,9693208,10545866,9726666,3800,3800,927,2702,-2703,-3771,-1288,-2955,114,218,819
989658,10541848,9694360,10546610,9727410,3800,3800,584,1648,-1911,-3609,-134,-2429,111,227,819
990666,10542304,9695488,10547370,9728170,3800,3800,185,672,-1161,-3307,1285,-2633,111,227,819
991660,10542776,9696540,10548114,9728914,3800,3800,-322,-231,-468,-2843,1907,-2002,100,211,818
992661,10543244,9697504,10548858,9729658,3800,3800,-863,-764,248,-2734,2188,-1406,100,211,818
993662,10543708,9698380,10549602,9730402,3800,3800,-1307,-1930,983,-2866,1798,-3097,92,185,817
994663,10544148,9699192,10550346,9731146,3800,3800,-1770,-2494,1704,-2890,1533,-353,92,185,817
995664,10544544,9699980,10551090,9731890,3800,3800,-2306,-2753,2473,-3422,1748,270,95,177,815
996665,10545064,9700788,10551834,9732634,3800,3800,-2960,-2595,3161,-3532,1005,1680,95,177,815
997666,10545500,9701492,10552578,9733378,3800,3800,-3595,-1832,3799,-4767,1263,3038,85,158,815
998667,10545868,9702192,10553322,9734122,3800,3800,-4082,-1340,4306,-4762,994,2342,85,158,815
999668,10546400,9702848,10554066,9734866,3800,3800,-4537,-914,4474,-4430,-5,2849,87,151,814
1000669,10546836,9703460,10554810,9735610,3800,3800,-4984,-391,4522,-4943,-759,3520,87,151,814
1001670,10547256,9704068,10555554,9736354,3800,3800,-5434,-83,4240,-4309,-986,2533,92,123,814
1002671,10547776,9704576,10556298,9737098,3800,3800,-5811,-209,3678,-4363,-1125,2214,92,123,814
1003672,10548280,9705080,10557042,9737842,3800,3800,-6153,-106,3003,-4314,-977,3190,102,123,813
1004673,10548708,9705512,10557786,9738586,3800,3800,-6579,-204,2262,-3393,-1874,2483,102,123,813
1005674,10549288,9705928,10558530,9739330,3800,3800,-7002,-540,1500,-3352,-1972,2415,110,92,812
1006675,10549740,9706280,10559274,9740074,3800,3800,-7215,-1010,696,-3076,-1577,1809,110,92,812
1007676,10550304,9706636,10560018,9740818,3800,3800,-7251,-2344,-257,-1816,-1855,-308,112,76,810
1008677,10550840,9706916,10560762,9741562,3800,3800,-7143,-3869,-1245,-1070,-1996,281,112,76,810
1009678,10551452,9707172,10561506,9742306,3800,3800,-6973,-5527,-2255,-366,-1793,-426,116,57,811
1010679,10551968,9707388,10562250,9743050,3800,3800,-6785,-7705,-3342,927,-2485,-1250,116,57,811
1011680,10552584,9707588,10562994,9743794,3800,3800,-6504,-9812,-4293,1485,-2782,-516,120,58,811
1012690,10553196,9707800,10563754,9744554,3800,3800,-6262,-11933,-5140,2374,-2053,-508,120,58,811
1013682,10553740,9708000,10564498,9745298,3800,3800,-6042,-14235,-6051,3278,-1087,-1049,109,42,810
1014683,10554296,9708188,10565242,9746042,3800,3800,-5887,-16447,-6802,3881,-2222,153,109,42,810
1015684,10554852,9708368,10565986,9746786,3800,3800,-5791,-18329,-7249,5635,-3288,1658,106,52,810
1016685,10555396,9708556,10566730,9747530,3800,3800,-723,-18643,-7210,7806,-3660,32767,106,52,810
1017686,10555984,9708768,10567474,9748274,3800,3800,9334,-7765,-6354,9544,-10215,32767,99,50,807
1018687,10556500,9708972,10568218,9749018,3800,3800,12845,2142,-4998,7319,-13659,32767,99,50,807
1019688,10557128,9709192,10568962,9749762,3800,3800,11026,2034,-4555,7453,-4379,1519,100,54,810
1020689,10557792,9709436,10569706,9750506,3800,3800,8172,-2944,-4837,7523,-3581,-2733,100,54,810
1021690,10558484,9709696,10570450,9751250,3800,3800,6028,-7292,-4757,6521,-6392,-2299,135,46,811
1022691,10559148,9709940,10571194,9751994,3800,3800,4273,-9617,-4268,6599,-5788,-1043,135,46,811
1023692,10559848,9710228,10571938,9752738,3800,3800,2950,-11787,-3945,7436,-820,-3310,136,67,811
1024693,10560612,9710516,10572682,9753482,3800,3800,1728,-13556,-3618,7422,-373,-342,136,67,811
1025694,10561312,9710844,10573426,9754226,3800,3800,621,-15508,-3324,7910,2866,-981,139,64,812
1026695,10562000,9711180,10574170,9754970,3800,3800,-333,-16916,-3325,8341,7495,1625,139,64,812
1027696,10562772,9711528,10574914,9755714,3800,3800,-1049,-18158,-3335,7749,7664,832,131,69,812
1028697,10563496,9711896,10575658,9756458,3800,3800,-1450,-19441,-3206,7525,7445,-143,131,69,812
1029698,10564224,9712292,10576402,9757202,3800,3800,-1872,-20000,-2692,7783,6911,3784,141,74,812
1030699,10565044,9712696,10577146,9757946,3800,3800,-2348,-18987,-1869,6350,7252,7889,141,74,812
1031700,10565768,9713104,10577890,9758690,3800,3800,-2648,-17375,-1248,3492,8404,8317,134,99,813
1032701,10566576,9713580,10578634,9759434,3800,3800,-2588,-15986,-831,1408,8619,7248,134,99,813
1033702,10567208,9714024,10579378,9760178,3800,3800,-2460,-14407,-507,352,9708,8812,164,102,814
1034710,10567924,9714524,10580138,9760938,3800,3800,-2547,-11718,-299,-369,10212,11993,164,102,814
1035704,10568604,9714964,10580882,9761682,3800,3800,-2745,-8130,147,-1169,8814,13411,160,93,814
1036705,10569380,9715512,10581626,9762426,3800,3800,-2811,-4723,800,-2301,8622,11854,160,93,814
1037707,10570036,9716004,10582370,9763170,3800,3800,-2716,-1743,1350,-3066,8788,11011,160,100,815
1038707,10570692,9716612,10583114,9763914,3800,3800,-2569,1193,1814,-3375,8531,10870,160,100,815
1039708,10571404,9717220,10583858,9764658,3800,3800,-2307,3865,2297,-3893,7284,9403,154,105,814
1040709,10572060,9717888,10584602,9765402,3800,3800,-1915,6022,2783,-4408,5655,7704,154,105,814
1041710,10572720,9718520,10585346,9766146,3800,3800,-1410,7527,3108,-4365,5577,5585,158,116,816
1042711,10573416,9719160,10586090,9766890,3800,3800,-871,8626,3312,-3622,5239,4567,158,116,816
1043712,10574048,9719848,10586834,9767634,3800,3800,-326,9398,3481,-2681,4670,3157,150,131,816
1044713,10574660,9720540,10587578,9768378,3800,3800,264,9619,3616,-2161,4196,1160,150,131,816
1045715,10575340,9721308,10588322,9769122,3800,3800,919,9402,3736,-1293,3448,-170,144,137,816
1046715,10575960,9722104,10589066,9769866,3800,3800,1574,8771,3824,-226,2816,-1343,144,137,816
1047716,10576580,9722824,10589810,9770610,3800,3800,2122,8243,4045,624,743,-518,147,143,816
1048717,10577216,9723700,10590554,9771354,3800,3800,2469,8101,4507,1660,-1355,601,147,143,816
1049719,10577960,9724500,10591298,9772098,3800,3800,2550,8508,5150,2403,-3394,1995,143,159,815
1050719,10578620,9725460,10592042,9772842,3800,3800,2517,8718,5543,2508,-3440,526,143,159,815
1051721,10579320,9726392,10592786,9773586,3800,3800,2613,8316,5477,2554,-3456,-1141,141,186,816
1052721,10580116,9727312,10593530,9774330,3800,3800,2921,7526,5227,2693,-4438,-1518,141,186,816
1053722,10580852,9728304,10594274,9775074,3800,3800,3110,6941,4911,2792,-5479,-628,167,184,818
1054723,10581624,9729272,10595018,9775818,3800,3800,3041,6764,4543,2981,-6222,138,167,184,818
1055724,10582428,9730328,10595762,9776562,3800,3800,2971,6580,4054,3191,-6336,-755,145,190,819
1056732,10583212,9731328,10596522,9777322,3800,3800,2613,6770,2940,7232,-15462,-775,145,190,819
1057726,10584044,9732456,10597266,9778066,3800,3800,1201,8504,-569,14049,-32768,-3524,165,203,819
1058727,10584980,9733444,10598010,9778810,3800,3800,199,9553,-2662,3766,-16841,-1882,165,203,819
1059728,10585884,9734468,10598754,9779554,3800,3800,249,9001,-3019,4787,-4991,-1149,162,204,820
1060729,10586772,9735532,10599498,9780298,3800,3800,735,7959,-2641,3645,-4609,-1330,162,204,820
1061730,10587780,9736668,10600242,9781042,3800,3800,1024,7276,-2404,3904,-4466,187,187,211,820
1062731,10588800,9737704,10600986,9781786,3800,3800,1196,6828,-2479,3428,-4180,-1064,187,211,820
1063732,10589828,9738660,10601730,9782530,3800,3800,1285,6436,-2528,2707,-3618,240,191,206,821
1064720,10591032,9739580,10602474,9783274,3594,3800,1437,6146,-2556,2606,-3312,-307,191,206,821
1065722,10592176,9740524,10603218,9784018,3795,3800,1531,5546,-2551,1741,-3162,-443,215,190,821
1066735,10593224,9741420,10603962,9784762,3800,3800,1662,5678,-2503,932,-2784,1630,215,190,821
1067723,10594352,9742344,10604706,9785506,3597,3800,1675,5744,-2404,483,-2639,664,209,203,822
1068737,10595424,9743356,10605450,9786250,3800,3800,1817,5807,-2282,200,-2028,947,209,203,822
1069725,10596524,9744308,10606194,9786994,3475,3800,1806,5989,-2180,52,-906,1600,228,209,822
1070727,10597712,9745280,10606938,9787738,2732,3800,1862,6112,-2163,-304,162,822,228,209,822
1071728,10598752,9746260,10607682,9788482,3529,3800,1753,6381,-2233,-1307,723,2219,219,196,822
1072728,10599756,9747352,10608426,9789226,3641,3800,1710,7182,-2331,-2780,1182,2925,219,196,822
1073742,10600716,9748236,10609170,9789970,3800,3800,1612,7938,-2423,-3516,1443,2839,205,196,824
1074731,10601756,9749136,10609914,9790714,3194,3800,1455,8805,-2540,-3885,2248,3019,205,196,824
1075731,10602724,9750084,10610658,9791458,3547,3800,1181,9449,-2698,-4163,3132,2190,215,195,822
1076745,10603616,9751004,10611402,9792202,3800,3800,877,9914,-2822,-4286,2681,1714,215,195,822
1077733,10604640,9751976,10612146,9792946,3012,3800,596,10060,-2740,-4594,1979,1178,207,172,824
1078741,10605536,9753012,10612906,9793706,3753,3800,347,10229,-2490,-4830,1388,1183,207,172,824
1079748,10606400,9753956,10613650,9794450,3800,3800,-4,10496,-2088,-5576,829,1669,200,206,821
1080736,10607384,9755016,10614394,9795194,3048,3800,-318,10836,-1606,-6395,616,1711,200,206,821
1081750,10608168,9756052,10615138,9795938,3800,3800,-536,10669,-1179,-6313,993,336,171,214,821
1082751,10609020,9757136,10615882,9796682,3800,3800,-627,10117,-812,-5263,1398,-509,171,214,821
1083740,10609900,9758184,10616626,9797426,3577,3800,-696,8671,-418,-4033,1235,-3196,178,218,823
1084753,10610660,9759252,10617370,9798170,3800,3800,-643,6544,46,-3190,1030,-4543,178,218,823
1085754,10611388,9760396,10618114,9798914,3800,3800,-667,4042,622,-2268,1293,-4995,159,244,820
1086755,10612188,9761516,10618858,9799658,3800,3800,-795,1566,1300,-1748,1445,-5055,159,244,820
1087756,10612792,9762612,10619602,9800402,3800,3800,-981,-840,1986,-1957,1577,-4746,158,223,821
1088757,10613476,9763764,10620346,9801146,3800,3800,-1140,-2720,2650,-2589,1941,-3227,158,223,821
1089758,10614176,9764744,10621090,9801890,3800,3800,-1389,-4362,3259,-2840,2316,-2482,127,222,821
1090759,10614856,9765708,10621834,9802634,3800,3800,-1723,-5696,3864,-1950,1853,-1559,127,222,821
1091760,10615540,9766612,10622578,9803378,3800,3800,-2069,-7037,4452,-1328,1749,-1434,148,205,820
1092761,10616344,9767532,10623322,9804122,3800,3800,-2329,-8291,4930,-1156,1634,-859,148,205,820
1093762,10617076,9768504,10624066,9804866,3800,3800,-2518,-9649,5279,-908,1032,-1167,158,202,818
1094763,10617808,9769320,10624810,9805610,3800,3800,-2661,-10755,5513,-758,825,-119,158,202,818
1095752,10618672,9770052,10625554,9806354,3762,3800,-2815,-11531,5705,-365,313,879,165,171,818
1096765,10619464,9770772,10626298,9807098,3800,3800,-3055,-11828,5883,-73,-422,2704,165,171,818
1097766,10620268,9771456,10627042,9807842,3800,3800,-3414,-11460,5974,-408,-378,4521,161,143,818
1098754,10621148,9772040,10627786,9808586,3559,3800,-3753,-10791,5674,-875,1397,4796,161,143,818
1099755,10622080,9772628,10628530,9809330,3152,3800,-4019,-10218,4842,-1137,3667,4421,165,122,816
1100765,10623016,9773092,10629290,9810090,3051,3800,-4259,-9835,3627,-925,4279,4542,165,122,816
1101757,10623880,9773516,10630034,9810834,3450,3800,-4555,-9484,2234,-162,2527,4711,165,92,817
1102758,10624832,9773900,10630778,9811578,2809,3800,-4892,-9109,786,98,1570,4998,165,92,817
1103760,10625756,9774244,10631522,9812322,2906,3800,-5229,-8675,-675,236,1141,4913,155,83,817
1104760,10626620,9774536,10632266,9813066,3230,3800,-5614,-8589,-2106,1023,456,3845,155,83,817
1105762,10627568,9774780,10633010,9813810,2616,3800,-6044,-8751,-3295,2289,-877,3570,156,64,816
1106763,10628376,9775004,10633754,9814554,3464,3800,-6518,-8916,-4122,3058,-1635,3558,156,64,816
1107764,10629160,9775200,10634498,9815298,3597,3800,-7006,-9424,-4741,3224,-1295,2662,150,40,815
1108764,10629996,9775392,10635242,9816042,3233,3800,-7418,-10282,-5213,3526,-578,1838,150,40,815
1109765,10630784,9775572,10635986,9816786,3515,3800,-7684,-11423,-5467,4171,-439,800,151,50,814
1110766,10631564,9775712,10636730,9817530,3550,3800,-8017,-12500,-5455,4996,-848,1498,151,50,814
1111767,10632416,9775848,10637474,9818274,3053,3800,-6369,-10763,-4874,4255,-3129,20303,155,39,813
1112781,10633016,9776004,10638218,9819018,3800,3800,705,4787,-2540,-971,-10569,32767,155,39,813
1113782,10633704,9776180,10638962,9819762,3800,3800,6444,15492,-731,4412,-2709,26020,151,47,813
1114770,10634468,9776364,10639706,9820506,3685,3800,6052,14786,53,7857,2281,-833,151,47,813
1115784,10635136,9776564,10640450,9821250,3800,3800,2792,9817,746,8168,449,-2857,139,50,811
1116785,10635808,9776796,10641194,9821994,3800,3800,361,4066,1449,6875,-947,-9414,139,50,811
1117786,10636472,9777012,10641938,9822738,3800,3800,-5,-1632,1764,5038,1105,-12757,134,58,812
1118787,10637056,9777228,10642682,9823482,3800,3800,112,-6231,1643,6331,4446,-8713,134,58,812
1119788,10637640,9777492,10643426,9824226,3800,3800,-843,-8757,1343,7516,6315,-2345,140,55,812
1120789,10638248,9777824,10644170,9824970,3800,3800,-2642,-9824,863,5770,6582,898,140,55,812
1121790,10638780,9778148,10644914,9825714,3800,3800,-4170,-10652,296,4370,4090,362,124,74,811
1122798,10639284,9778448,10645674,9826474,3800,3800,-5383,-11378,-23,3940,977,2769,124,74,811
1123792,10639804,9778804,10646418,9827218,3800,3800,-5953,-12179,-41,2261,-953,2308,128,79,811
1124793,10640280,9779172,10647162,9827962,3800,3800,-4924,-11590,33,795,-2900,14595,128,79,811
1125794,10640724,9779516,10647906,9828706,3800,3800,-28,-3046,671,-940,-10152,32767,85,81,811
1126795,10641156,9779868,10648650,9829450,3800,3800,4522,3965,979,-377,-3917,29394,85,81,811
1127796,10641636,9780192,10649394,9830194,3800,3800,5678,4272,781,-222,-597,894,89,76,810
1128797,10642060,9780580,10650138,9830938,3800,3800,5125,1882,509,-125,-1516,1000,89,76,810
1129798,10642488,9781000,10650882,9831682,3800,3800,4477,186,403,-170,-2862,2526,79,94,811
1130799,10642976,9781348,10651626,9832426,3800,3800,4219,337,442,-393,-3269,4989,79,94,811
1131800,10643460,9781816,10652370,9833170,3800,3800,4078,1189,509,-166,-3153,4961,81,89,811
1132801,10643936,9782232,10653114,9833914,3800,3800,3967,1873,508,-22,-2582,4615,81,89,811
1133802,10644480,9782620,10653858,9834658,3800,3800,3786,2452,480,-301,-2095,5339,107,93,811
1134803,10645024,9783072,10654602,9835402,3800,3800,3604,3053,455,-99,-1563,5173,107,93,811
1135804,10645588,9783524,10655346,9836146,3800,3800,3425,3739,434,146,-1014,5352,104,90,812
1136805,10646228,9783948,10656090,9836890,3800,3800,3250,4637,445,201,-528,5615,104,90,812
1137806,10646864,9784368,10656834,9837634,3800,3800,3083,5482,450,321,-126,5200,126,94,811
1138807,10647532,9784840,10657578,9838378,3800,3800,2956,6165,419,282,125,4697,126,94,811
1139808,10648284,9785292,10658322,9839122,3800,3800,2823,6797,352,157,533,4408,154,107,811
1140809,10649004,9785748,10659066,9839866,3800,3800,2690,7277,220,14,643,3817,154,107,811
1141810,10649760,9786292,10659810,9840610,3800,3800,2564,7576,67,-288,742,3216,157,104,814
1142811,10650680,9786848,10660554,9841354,3800,3800,2453,7642,-58,-322,911,2647,157,104,814
1143812,10651428,9787448,10661298,9842098,3800,3800,2351,7567,-183,-178,1012,1953,165,119,814
1144820,10652256,9788076,10662058,9842858,3800,3800,2243,7350,-256,-418,1166,1500,165,119,814
1145814,10653144,9788724,10662802,9843602,3800,3800,2155,6993,-261,-446,1176,1086,160,109,816
1146815,10654080,9789412,10663546,9844346,3800,3800,2048,6476,-239,-313,1092,656,160,109,816
1147816,10655040,9790184,10664290,9845090,3800,3800,2006,5903,-183,-586,1133,234,187,145,817
1148804,10656116,9790976,10665034,9845834,3406,3800,2007,5301,-123,-1100,927,79,187,145,817
1149805,10657116,9791780,10665778,9846578,3769,3800,2041,4786,-32,-1925,452,221,175,169,817
1150806,10658144,9792584,10666522,9847322,3471,3800,2110,4263,92,-2785,185,244,175,169,817
1151807,10659200,9793504,10667266,9848066,3161,3800,2190,3907,229,-3294,-297,632,215,165,820
1152808,10660316,9794292,10668010,9848810,2624,3800,2293,3676,435,-4124,-1232,1036,215,165,820
1153809,10661268,9795332,10668754,9849554,3559,3800,2436,3525,698,-4908,-1801,1277,223,184,821
1154810,10662236,9796308,10669498,9850298,3362,3800,2583,3366,971,-5363,-1980,1187,223,184,821
1155811,10663344,9797284,10670242,9851042,2329,3800,2756,3229,1291,-5488,-2092,1128,217,189,824
1156812,10664316,9798256,10670986,9851786,3080,3800,2898,3033,1660,-5321,-2202,879,217,189,824
1157813,10665196,9799228,10671730,9852530,3596,3800,3021,2642,2083,-5105,-2204,463,217,189,822
1158814,10666208,9800276,10672474,9853274,2654,3800,3124,2015,2544,-4631,-2674,-256,217,189,822
1159815,10667072,9801172,10673218,9854018,3528,3800,3237,1213,2999,-3828,-2898,-925,186,199,822
1160816,10667944,9802136,10673962,9854762,3423,3800,3283,503,3452,-3394,-2811,-420,186,199,822
1161818,10668864,9803112,10674706,9855506,3047,3800,3218,-23,3878,-3712,-3950,190,188,195,823
1162818,10669668,9804020,10675450,9856250,3746,3800,3117,-291,4320,-3917,-4589,475,188,195,823
1163819,10670480,9805028,10676194,9856994,3668,3800,3005,-411,4764,-3992,-5244,866,184,201,822
1164820,10671304,9805972,10676938,9857738,3558,3800,2909,-729,5139,-3441,-5787,182,184,201,822
1165834,10672084,9806844,10677682,9858482,3800,3800,2801,-1087,5463,-2834,-5847,330,167,195,820
1166829,10672884,9807796,10678442,9859242,3677,3800,2744,-1772,5703,-1336,-4995,-1169,167,195,820
1167823,10673740,9808844,10679186,9859986,3279,3800,2754,-2905,5851,211,-4035,-2475,159,197,820
1168837,10674504,9809800,10679930,9860730,3800,3800,2745,-4242,6044,1025,-3394,-2443,159,197,820
1169826,10675280,9810876,10680674,9861474,3758,3800,2659,-5353,6203,1797,-1865,-2002,157,199,821
1170839,10676044,9811828,10681418,9862218,3800,3800,2552,-6470,6136,1407,-547,-2527,157,199,821
1171828,10676824,9812776,10682162,9862962,3711,3800,2523,-7314,5831,1296,461,-1686,168,193,818
1172841,10677456,9813664,10682906,9863706,3800,3800,2423,-7755,5338,1492,957,-747,168,193,818
1173842,10678220,9814580,10683650,9864450,3800,3800,2288,-8034,4727,986,1519,-556,146,200,818
1174843,10678860,9815588,10684394,9865194,3800,3800,2098,-8113,4095,796,1152,-204,146,200,818
1175844,10679580,9816504,10685138,9865938,3800,3800,1941,-8106,3554,582,2219,-274,142,189,818
1176845,10680240,9817388,10685882,9866682,3800,3800,1689,-8148,3152,1342,2346,90,142,189,818
1177846,10680988,9818440,10686626,9867426,3800,3800,1374,-8089,2858,1851,1795,183,162,175,817
1178847,10681732,9819368,10687370,9868170,3800,3800,1096,-8200,2595,1807,1398,-391,162,175,817
1179848,10682480,9820412,10688114,9868914,3800,3800,841,-8355,2306,2067,1046,-336,146,190,819
1180836,10683304,9821552,10688858,9869658,3540,3800,557,-8540,2113,2272,1184,-328,146,190,819
1181850,10684040,9822532,10689602,9870402,3800,3800,215,-8672,1979,2438,1292,-323,144,218,819
1182838,10684832,9823592,10690346,9871146,3725,3800,-181,-8707,1937,2379,1088,-8,144,218,819
1183839,10685780,9824592,10691090,9871890,2661,3800,-613,-8438,2131,2430,586,1287,170,221,821
1184841,10686668,9825788,10691834,9872634,2974,3800,-1122,-7709,2485,2683,-106,2488,170,221,821
1185842,10687564,9827024,10692578,9873378,2858,3800,-1494,-7057,2781,2389,254,1541,182,229,822
1186842,10688524,9828144,10693322,9874122,2364,3800,-1750,-6482,2932,2296,789,1677,182,229,822
1187843,10689460,9829252,10694066,9874866,2431,3800,-1957,-6004,2979,2225,907,1290,180,248,825
1188853,10690408,9830264,10694826,9875626,2274,3800,-2172,-5539,2938,1901,1035,1120,180,248,825
1189845,10691424,9831252,10695570,9876370,1730,3800,-2369,-5055,2838,1984,1278,940,181,228,826
1190846,10692352,9832208,10696314,9877114,2201,3800,-2560,-4707,2718,2249,1305,657,181,228,826
1191847,10693236,9833100,10697058,9877858,2414,3800,-2923,-3922,2671,2839,789,2518,184,214,825
1192848,10694212,9833960,10697802,9878602,1738,3800,-3390,-2909,2634,2987,1129,2610,184,214,825
1193850,10694980,9834704,10698546,9879346,3029,3800,-3818,-2209,2370,3137,2096,1157,167,189,824
1194850,10695800,9835416,10699290,9880090,2670,3800,-4190,-1691,1949,3248,2175,664,167,189,824
1195851,10696636,9836100,10700034,9880834,2531,3800,-4491,-1341,1615,2308,1857,116,176,150,825
1196852,10697456,9836808,10700778,9881578,2598,3800,-4816,-1206,1107,855,3250,128,176,150,825
1197853,10698172,9837372,10701522,9882322,3261,3800,-5316,-800,163,315,5462,1463,179,134,821
1198854,10698840,9837916,10702266,9883066,3595,3800,-5860,-361,-956,877,7338,436,179,134,821
1199855,10699544,9838436,10703010,9883810,3389,3800,-6229,-671,-2133,1039,7868,-1832,166,113,820
1200856,10700220,9838876,10703754,9884554,3594,3800,-6605,-1430,-3151,706,6798,-1004,166,113,820
1201870,10700864,9839420,10704498,9885298,3800,3800,-7120,-1491,-3794,1367,5034,1898,136,96,816
1202859,10701572,9839876,10705242,9886042,3455,3800,-7867,-1066,-4112,2361,4515,2372,136,96,816
1203872,10702192,9840312,10705986,9886786,3800,3800,-8585,-1103,-4390,2490,5558,192,136,101,814
1204873,10702848,9840748,10706730,9887530,3800,3800,-9106,-1944,-4755,2196,5691,-1242,136,101,814
1205862,10703544,9841152,10707474,9888274,3647,3800,-9414,-3154,-5038,2135,4399,-1220,147,87,814
1206875,10704160,9841500,10708218,9889018,3800,3800,-9726,-3988,-5191,2388,3181,474,147,87,814
1207876,10704704,9841928,10708962,9889762,3800,3800,-10243,-3910,-5173,2813,1940,3371,131,86,812
1208877,10705292,9842332,10709706,9890506,3800,3800,-10861,-3393,-5049,3152,1076,3665,131,86,812
1209878,10705812,9842700,10710450,9891250,3800,3800,-11419,-3102,-4922,3440,498,3079,114,82,811
1210886,10706284,9843076,10711210,9892010,3800,3800,-11845,-3204,-4789,3657,181,2835,114,82,811
1211880,10706796,9843496,10711954,9892754,3800,3800,-12171,-3417,-4615,3875,-271,3200,89,92,811
1212881,10707216,9843920,10712698,9893498,3800,3800,-12548,-3249,-4307,4017,-1023,4723,89,92,811
1213882,10707640,9844312,10713442,9894242,3800,3800,-12848,-3079,-3848,4102,-1514,4215,97,81,811
1214883,10708084,9844744,10714186,9894986,3800,3800,-10584,-12,-2897,4837,-7798,19098,97,81,811
1215884,10708468,9845152,10714930,9895730,3800,3800,-862,20511,-776,8518,-26384,32767,87,75,809
1216885,10708864,9845544,10715674,9896474,3800,3800,7685,32297,557,9353,-8597,20574,87,75,809
1217886,10709268,9845960,10716418,9897218,3800,3800,9496,32297,590,8485,-281,-6779,70,84,811
1218887,10709636,9846432,10717162,9897962,3800,3800,8039,24792,163,7874,-21,-9678,70,84,811
1219888,10710048,9846868,10717906,9898706,3800,3800,6722,17771,-260,7750,-1224,-9288,69,104,810
1220889,10710488,9847352,10718650,9899450,3800,3800,5306,15107,-152,7464,-2596,-939,69,104,810
1221890,10710912,9847864,10719394,9900194,3800,3800,3639,14472,68,6935,-2568,65,74,96,811
1222891,10711360,9848372,10720138,9900938,3800,3800,2061,12662,-239,5166,-1670,-3415,74,96,811
1223892,10711844,9849012,10720882,9901682,3800,3800,839,8619,-765,2696,-2376,-5275,98,103,812
1224893,10712392,9849536,10721626,9902426,3800,3800,190,3511,-1178,1157,-2795,-5850,98,103,812
1225894,10712980,9850100,10722370,9903170,3800,3800,-208,-963,-1574,1193,-2254,-4581,85,120,811
1226895,10713512,9850716,10723114,9903914,3800,3800,-433,-3842,-1912,13,-2116,-1874,85,120,811
1227896,10714164,9851280,10723858,9904658,3800,3800,-930,-5066,-2029,-459,-2872,2114,115,127,812
1228897,10714828,9852008,10724602,9905402,3800,3800,-1508,-5027,-2029,-1033,-3469,4428,115,127,812
1229898,10715524,9852648,10725346,9906146,3800,3800,-2087,-4682,-2053,-2500,-2724,5207,130,119,814
1230899,10716280,9853400,10726090,9906890,3800,3800,-2474,-4160,-2268,-3647,-1487,5971,130,119,814
1231900,10716988,9854120,10726834,9907634,3800,3800,-2735,-3458,-2615,-4513,-765,6870,148,131,815
1232907,10717724,9854904,10727594,9908394,3800,3800,-2774,-2547,-2898,-5645,-701,7621,148,131,815
1233902,10718564,9855680,10728338,9909138,3800,3800,-2747,-1444,-2998,-6443,-1806,8139,150,152,817
1234903,10719444,9856620,10729082,9909882,3800,3800,-2636,-296,-2874,-7281,-2453,8150,150,152,817
1235904,10720336,9857532,10729826,9910626,3800,3800,-2489,876,-2580,-7641,-2213,8147,178,184,816
1236905,10721380,9858352,10730570,9911370,3800,3800,-2320,1965,-2251,-7786,-1728,7481,178,184,816
1237906,10722348,9859316,10731314,9912114,3800,3800,-2109,2793,-1863,-8157,-1721,6654,175,178,816
1238907,10723348,9860280,10732058,9912858,3800,3800,-1734,3242,-1362,-8229,-2200,5427,175,178,816
1239895,10724428,9861292,10732802,9913602,3249,3800,-1266,3342,-795,-8035,-1973,4470,186,183,819
1240909,10725396,9862300,10733546,9914346,3800,3800,-697,3352,-159,-8000,-2025,4203,186,183,819
1241897,10726376,9863388,10734290,9915090,3675,3800,-103,3116,566,-8058,-2470,3373,195,200,821
1242898,10727444,9864388,10735034,9915834,2984,3800,555,2753,1389,-7923,-2816,2860,195,200,821
1243899,10728468,9865356,10735778,9916578,3138,3800,1165,2234,2284,-7514,-2903,2627,179,201,821
1244900,10729448,9866468,10736522,9917322,3310,3800,1807,1572,3174,-6877,-2884,1887,179,201,821
1245901,10730480,9867544,10737266,9918066,2861,3800,2396,744,4045,-6313,-3097,1770,197,197,824
1246902,10731400,9868508,10738010,9918810,3484,3800,3036,-101,4926,-5310,-3110,1516,197,197,824
1247903,10732344,9869452,10738754,9919554,3247,3800,3646,-974,5772,-4131,-3087,1415,187,201,822
1248904,10733196,9870360,10739498,9920298,3776,3800,4192,-1649,6535,-3153,-2792,1897,187,201,822
1249905,10734172,9871220,10740242,9921042,2901,3800,4655,-2202,7161,-2218,-2606,1907,181,192,821
1250907,10735056,9872156,10740986,9921786,3415,3800,5068,-2830,7580,-1330,-2663,1364,181,192,821
1251908,10735904,9873056,10741730,9922530,3596,3800,5485,-3556,7859,-543,-2829,1129,202,189,821
1252908,10736868,9873992,10742474,9923274,2775,3800,5882,-4150,8070,-10,-3456,1692,202,189,821
1253909,10737724,9874896,10743218,9924018,3402,3800,6194,-4522,8196,-28,-3924,2286,184,189,821
1254917,10738588,9875840,10743978,9924778,3307,3800,6452,-4751,8154,17,-3077,2264,184,189,821
1255911,10739556,9876892,10744722,9925522,2560,3800,6596,-4811,7910,617,-1500,2557,176,203,823
1256912,10740432,9877836,10745466,9926266,3078,3800,6566,-4735,7463,1378,-1038,2862,176,203,823
1257913,10741260,9878712,10746210,9927010,3342,3800,6484,-4682,6925,1913,-2124,2388,168,194,821
1258914,10742192,9879556,10746954,9927754,2610,3800,6380,-4835,6264,2341,-2039,1776,168,194,821
1259915,10742964,9880380,10747698,9928498,3599,3800,6252,-5294,5365,2483,-1236,728,165,177,821
1260916,10743716,9881304,10748442,9929242,3721,3800,6183,-5983,4322,2170,663,53,165,177,821
1261917,10744472,9882180,10749186,9929986,3692,3800,6132,-6740,3334,1758,1928,105,150,183,822
1262918,10745228,9883088,10749930,9930730,3688,3800,5903,-7030,2546,1829,1821,1201,150,183,822
1263919,10745984,9884048,10750674,9931474,3683,3800,5365,-7087,1960,2199,2258,1260,145,164,818
1264920,10746796,9884936,10751418,9932218,3304,3800,4655,-7210,1508,3013,1616,933,145,164,818
1265921,10747556,9885952,10752162,9932962,3623,3800,4002,-7440,1112,3393,1358,508,149,191,819
1266923,10748344,9886948,10752906,9933706,3429,3800,3435,-7856,794,3308,1606,186,149,191,819
1267923,10749176,9887948,10753650,9934450,3117,3800,2643,-8000,713,3695,1055,1211,165,214,822
1268925,10749960,9888924,10754394,9935194,3400,3800,2076,-8528,614,3152,1942,-1093,165,214,822
1269925,10750720,9890056,10755138,9935938,3544,3800,1882,-9238,518,2993,2162,-1118,168,213,821
1270926,10751524,9891152,10755882,9936682,3244,3800,1786,-9926,524,3230,1893,-838,168,213,821
1271927,10752428,9892332,10756626,9937426,2548,3800,1721,-10451,656,2933,1738,-646,150,224,822
1272928,10753224,9893472,10757370,9938170,3201,3800,1548,-10579,872,2786,2068,568,150,224,822
1273930,10754056,9894528,10758114,9938914,2939,3800,1279,-10313,1109,2813,2200,1149,151,214,822
1274930,10754984,9895492,10758858,9939658,2259,3800,932,-9932,1317,2454,2180,1606,151,214,822
1275931,10755880,9896440,10759602,9940402,2392,3800,600,-9326,1335,1747,2194,1748,165,211,822
1276941,10756760,9897332,10760362,9941162,2440,3800,232,-8740,1138,1205,2192,1417,165,211,822
1277933,10757776,9898216,10761106,9941906,1472,3800,-158,-7907,977,852,2186,2257,174,194,824
1278934,10758500,9899076,10761850,9942650,3306,3800,-807,-6218,1053,893,1702,5113,174,194,824
1279935,10759316,9899860,10762594,9943394,2700,3800,-1878,-3539,1441,1128,1496,7123,173,189,824
1280936,10760200,9900560,10763338,9944138,2215,3800,-2446,-1710,1728,-105,1415,2269,173,189,824
1281937,10760984,9901236,10764082,9944882,2822,3800,-2911,230,1814,163,2306,5178,169,158,819
1282938,10761740,9901988,10764826,9945626,2993,3800,-3228,1991,1740,-748,2912,3002,169,158,819
1283939,10762596,9902608,10765570,9946370,2318,3800,-3605,3105,1510,-1217,4144,1740,158,134,823
1284940,10763360,9903176,10766314,9947114,2886,3800,-3954,3506,1029,-790,5988,37,158,134,823
1285954,10763936,9903720,10767058,9947858,3800,3800,-4288,2974,223,41,7806,-3022,169,129,819
1286942,10764672,9904252,10767802,9948602,3139,3800,-4444,1480,-804,222,8590,-5744,169,129,819
1287943,10765332,9904768,10768546,9949346,3652,3800,-4601,-482,-1730,517,7676,-5472,134,115,819
1288944,10765984,9905340,10769290,9950090,3742,3800,-4842,-1840,-2231,1818,5868,-3521,134,115,819
1289945,10766676,9905816,10770034,9950834,3516,3800,-5194,-2708,-2418,2982,4987,-2850,152,105,817
1290959,10767288,9906324,10770778,9951578,3800,3800,-5644,-3181,-2366,3833,3389,-1458,152,105,817
1291960,10767876,9906768,10771522,9952322,3800,3800,-6493,-2826,-1954,4348,1292,3009,130,98,813
1292961,10768516,9907160,10772266,9953066,3800,3800,-7687,-1675,-1462,4512,892,5068,130,98,813
1293962,10769092,9907636,10773010,9953810,3800,3800,-8696,-1076,-1405,4183,2102,1655,137,80,812
1294963,10769628,9908064,10773754,9954554,3800,3800,-9246,-1535,-1694,4087,2192,-544,137,80,812
1295964,10770172,9908448,10774498,9955298,3800,3800,-9793,-2231,-2055,4348,1524,1081,111,95,812
1296965,10770664,9908880,10775242,9956042,3800,3800,-10506,-2550,-2320,4814,344,2175,111,95,812
1297966,10771108,9909344,10775986,9956786,3800,3800,-11121,-2898,-2441,5289,-64,1057,117,97,812
1298974,10771556,9909776,10776746,9957546,3800,3800,-11551,-3406,-2435,5565,-682,888,117,97,812
1299969,10772000,9910272,10777490,9958290,3800,3800,-12087,-3752,-2102,5286,-3164,2643,85,105,811
1300970,10772396,9910732,10778234,9959034,3800,3800,-12677,-3664,-1624,4790,-3954,3869,85,105,811
1301971,10772788,9911136,10778978,9959778,3800,3800,-12985,-3553,-1415,4760,-2637,3267,83,99,811
1302971,10773176,9911552,10779722,9960522,3800,3800,-13027,-3662,-1459,4680,-2295,3387,83,99,811
1303972,10773552,9912028,10780466,9961266,3800,3800,-13044,-3545,-1534,4374,-3029,5143,67,102,809
1304973,10773932,9912528,10781210,9962010,3800,3800,-9000,2875,-1045,5728,-11893,26297,67,102,809
1305975,10774356,9913060,10781954,9962754,3800,3800,1916,25021,318,9648,-24189,32767,68,104,810
1306975,10774756,9913580,10782698,9963498,3800,3800,8716,32297,787,9325,-5288,-4302,68,104,810
1307977,10775140,9914164,10783442,9964242,3800,3800,9412,31592,536,8764,-1880,-9557,76,104,811
1308977,10775640,9914748,10784186,9964986,3800,3800,7910,24381,-4,8495,-1738,-7212,76,104,811
1309979,10776080,9915340,10784930,9965730,3800,3800,6919,18910,-432,7880,-2329,-6855,99,117,812
1310979,10776580,9916008,10785674,9966474,3800,3800,6733,16031,-455,7000,-2819,-4113,99,117,812
1311981,10777160,9916600,10786418,9967218,3800,3800,6569,13818,-240,6841,-4053,-4866,101,124,812
1312981,10777692,9917276,10787162,9967962,3800,3800,6328,10988,-283,6079,-2561,-5862,101,124,812
1313983,10778292,9917940,10787906,9968706,3800,3800,6000,7743,-696,4046,-300,-5773,110,124,812
1314983,10778960,9918712,10788650,9969450,3800,3800,5494,4748,-1355,3380,209,-5000,110,124,812
1315985,10779608,9919520,10789394,9970194,3800,3800,4936,2151,-2022,2531,24,-3879,143,136,815
1316986,10780316,9920368,10790138,9970938,3800,3800,4096,668,-2474,651,-141,-217,143,136,815
1317987,10781052,9921160,10790882,9971682,3800,3800,3184,321,-2778,-912,-542,2246,156,168,816
1318988,10781816,9922056,10791626,9972426,3800,3800,2178,438,-3032,-2292,-970,3716,156,168,816
1319988,10782560,9922992,10792370,9973170,3800,3800,1284,982,-3267,-3624,-408,4837,154,169,817
1320996,10783420,9923948,10793130,9973930,3800,3800,476,1746,-3534,-4291,223,4983,154,169,817
1321990,10784276,9924956,10793874,9974674,3800,3800,-113,2604,-3818,-5570,87,4469,150,191,818
1322991,10785168,9925932,10794618,9975418,3800,3800,-451,3205,-3951,-6995,-719,4211,150,191,818
1323992,10786120,9926872,10795362,9976162,3800,3800,-679,3858,-4011,-7574,-1236,4434,171,176,819
1324993,10787156,9927872,10796106,9976906,3800,3800,-899,4645,-3949,-8450,-1339,4640,171,176,819
1325994,10788140,9928992,10796850,9977650,3800,3800,-1100,5603,-3734,-9147,-1752,4915,189,203,819
1326995,10789128,9930052,10797594,9978394,3800,3800,-1199,6506,-3351,-9218,-2552,4302,189,203,819
1327984,10790260,9931056,10798338,9979138,2894,3800,-1135,7104,-2759,-9435,-3523,3402,194,210,820
1328984,10791280,9932136,10799082,9979882,3474,3800,-870,7527,-2027,-9437,-4055,2648,194,210,820
1329998,10792216,9933136,10799826,9980626,3800,3800,-601,7604,-1151,-9330,-4349,1988,184,195,821
1330987,10793296,9934100,10800570,9981370,2870,3800,-264,7613,-93,-8871,-4628,1737,184,195,821
1331987,10794344,9935116,10801314,9982114,2937,3800,25,7292,1071,-8105,-4706,764,187,207,822
1332989,10795332,9936056,10802058,9982858,3207,3800,389,6692,2234,-7436,-4706,-236,187,207,822
1333990,10796328,9936972,10802802,9983602,3048,3800,760,5527,3309,-6596,-4647,-1514,209,194,824
1334991,10797272,9937780,10803546,9984346,3286,3800,1130,3964,4261,-5325,-4788,-2484,209,194,824
1335992,10798220,9938684,10804290,9985090,3172,3800,1457,2214,5176,-4011,-4907,-2880,194,196,821
1336993,10799200,9939724,10805034,9985834,2870,3800,1766,472,6024,-2854,-5155,-2948,194,196,821
1337994,10800056,9940632,10805778,9986578,3597,3800,2062,-1114,6745,-2052,-4933,-2329,206,202,821
1338995,10800936,9941568,10806522,9987322,3388,3800,2390,-2322,7326,-1533,-3918,-1285,206,202,821
1339996,10801928,9942572,10807266,9988066,2580,3800,2717,-3172,7659,-1248,-2170,-810,184,201,823
1340997,10802840,9943508,10808010,9988810,3007,3800,3006,-3763,7669,-1433,-701,84,184,201,823
1341998,10803724,9944380,10808754,9989554,3122,3800,3242,-4077,7380,-1685,316,1038,189,198,821
1343005,10804740,9945344,10809514,9990314,2185,3800,3338,-4118,6687,-1754,912,1770,189,198,821
1344000,10805644,9946168,10810258,9991058,2816,3800,3367,-4031,5674,-1852,2331,1838,191,193,822
1345000,10806552,9947152,10811002,9991802,2720,3800,3489,-3936,4580,-1445,3016,1533,191,193,822
1346002,10807508,9947884,10811746,9992546,2328,3800,3536,-4006,3648,-439,2995,1605,183,183,824
1347003,10808248,9948824,10812490,9993290,3680,3800,3398,-3944,3048,431,830,1810,183,183,824
1348003,10809036,9949860,10813234,9994034,3361,3800,3112,-4203,2722,999,-293,743,178,177,821
1349005,10809768,9950764,10813978,9994778,3718,3800,2895,-4930,2494,1151,-24,-388,178,177,821
1350006,10810568,9951792,10814722,9995522,3269,3800,2723,-5955,2352,1021,127,-502,158,195,819
1351007,10811336,9952792,10815466,9996266,3459,3800,2570,-6690,2276,928,1232,205,158,195,819
1352008,10812108,9953740,10816210,9997010,3422,3800,2382,-7231,2264,1316,1317,201,155,203,820
1353009,10812936,9954708,10816954,9997754,3036,3800,2234,-8013,2378,2227,660,-672,155,203,820
1354010,10813708,9955924,10817698,9998498,3375,3800,2081,-9013,2583,2921,1165,-746,148,214,821
1355011,10814452,9957048,10818442,9999242,3551,3800,1841,-10178,2812,3292,1844,-1317,148,214,821
1356012,10815360,9958140,10819186,9999986,2454,3800,1594,-11512,3005,3119,2138,-2071,168,218,824
1357013,10816192,9959216,10819930,10000730,2891,3800,1331,-12664,3157,2854,2477,-1419,168,218,824
1358014,10816996,9960276,10820674,10001474,3041,3800,1060,-13315,3292,2981,2369,-377,174,221,820
1359015,10817908,9961364,10821418,10002218,2293,3800,818,-13504,3493,2720,1669,607,174,221,820
1360016,10818768,9962304,10822162,10002962,2567,3800,566,-13195,3836,2236,1616,1924,168,212,822
1361017,10819560,9963188,10822906,10003706,2972,3800,357,-12824,4194,2474,2304,1768,168,212,822
1362018,10820452,9964060,10823650,10004450,2282,3800,121,-12352,4373,2980,3158,2081,165,202,824
1363019,10821272,9964884,10824394,10005194,2699,3800,-223,-11851,4304,2515,3668,1927,165,202,824
1364019,10822164,9965708,10825138,10005938,2185,3800,-583,-11431,4045,1981,2760,1591,150,170,821
1365029,10823088,9966372,10825898,10006698,1913,3800,-1029,-10618,3778,1705,2488,2978,150,170,821
1366022,10823940,9967032,10826642,10007442,2317,3800,-1659,-9164,3680,1661,1597,4726,162,147,822
1367023,10824680,9967644,10827386,10008186,3019,3800,-2424,-7230,3614,1226,724,5547,162,147,822
1368024,10825572,9968236,10828130,10008930,2005,3800,-3046,-5456,3370,-560,1613,4047,175,123,823
1369025,10826296,9968776,10828874,10009674,3063,3800,-3537,-4321,2745,-1650,3478,2404,175,123,823
1370026,10827056,9969308,10829618,10010418,2832,3800,-4035,-3730,1798,-1418,4777,1109,145,112,817
1371027,10827828,9969764,10830362,10011162,2745,3800,-4588,-3616,706,-626,6063,-332,145,112,817
1372028,10828608,9970220,10831106,10011906,2680,3800,-5206,-3877,-541,480,6002,-1356,140,93,818
1373028,10829228,9970640,10831850,10012650,3735,3800,-5803,-4826,-1823,613,5958,-3286,140,93,818
1374043,10829816,9971024,10832594,10013394,3800,3800,-6401,-6218,-2897,972,5321,-3770,140,87,818
1375031,10830500,9971468,10833338,10014138,3431,3800,-6995,-7518,-3616,2430,4175,-3253,140,87,818
1376044,10831132,9971856,10834082,10014882,3800,3800,-7682,-8376,-3881,3505,2749,-1294,132,90,813
1377045,10831748,9972220,10834826,10015626,3800,3800,-8562,-8489,-3477,4757,209,1013,132,90,813
1378034,10832416,9972552,10835570,10016370,3672,3800,-9909,-8071,-2428,5233,-2766,2888,139,73,814
1379047,10832960,9972900,10836314,10017114,3800,3800,-10904,-8170,-1476,4820,-1528,588,139,73,814
1380048,10833468,9973248,10837058,10017858,3800,3800,-11340,-8848,-1058,4873,-588,-126,118,80,811
1381049,10834016,9973620,10837802,10018602,3800,3800,-11503,-9965,-946,5061,-1071,-966,118,80,811
1382050,10834536,9973940,10838546,10019346,3800,3800,-11638,-11141,-958,5344,-850,-748,123,75,810
1383051,10834992,9974284,10839290,10020090,3800,3800,-12068,-11764,-782,6266,-1606,1458,123,75,810
1384052,10835464,9974656,10840034,10020834,3800,3800,-12656,-11867,-455,6690,-1798,2517,108,80,811
1385053,10835856,9975004,10840778,10021578,3800,3800,-13189,-11680,-163,6718,-1846,3522,108,80,811
1386055,10836252,9975420,10841522,10022322,3800,3800,-13360,-11369,22,6399,-2446,4066,89,82,810
1387062,10836644,9975788,10842282,10023082,3800,3800,-11519,-9005,96,8580,-4515,10590,89,82,810
1388056,10836992,9976168,10843026,10023826,3800,3800,-1525,12795,-79,27113,-18207,32767,69,85,810
1389057,10837324,9976524,10843770,10024570,3800,3800,8637,30684,-503,16816,-7224,31525,69,85,810
1390058,10837708,9976824,10844514,10025314,3800,3800,10926,31252,-893,9835,-307,1041,60,83,809
1391059,10838032,9977264,10845258,10026058,3800,3800,9619,24746,-983,10119,-567,-4140,60,83,809
1392060,10838384,9977668,10846002,10026802,3800,3800,7998,18493,-970,10160,-1807,-6294,62,77,809
1393061,10838788,9978028,10846746,10027546,3800,3800,7311,15540,-700,9725,-3012,-4074,62,77,809
1394062,10839148,9978476,10847490,10028290,3800,3800,7155,13430,-290,9237,-2404,-4711,69,80,810
1395063,10839532,9978932,10848234,10029034,3800,3800,6919,11191,34,8788,-3344,-4640,69,80,810
1396064,10839968,9979364,10848978,10029778,3800,3800,6527,8675,172,7110,-2603,-3834,67,100,810
