"Data file recorded 2014/9/24  14:38:2"
"%  Right Stride Frequency         = 2.0"
"%  Left Stride Frequency         = 2.0"
"%  Phase (Fractional)         = 32768.0"
"%  Experiment.py "
"%  Motor Gains    = [1800, 200, 100, 0, 0, 1800, 200, 100, 0, 0]
"% Columns: "
"% time | Right Leg Pos | Left Leg Pos | Commanded Right Leg Pos | Commanded Left Leg Pos | DCR | DCL | GyroX | GryoY | GryoZ | AX | AY | AZ | RBEMF | LBEMF | VBatt "
10986,711904,880468,697896,927272,-3800,3800,-327,-2878,778,763,-198,4021,6,6,930
11981,711920,880472,698027,927403,-3800,3800,-326,-2878,776,790,-188,4037,0,3,930
12982,711908,880488,698158,927534,-3800,3800,-326,-2866,774,783,-216,4029,0,3,930
13983,711724,880636,698289,927665,-3800,3800,-323,-2886,776,762,-237,4052,-26,12,894
14971,711436,880900,698420,927796,-3113,3800,-316,-2887,772,763,-145,4034,-26,12,894
15972,711104,881244,698551,927927,-2637,3800,-291,-2904,760,822,248,3917,-65,37,895
16973,710748,881724,698682,928058,-2276,3800,-215,-3022,725,1118,897,3563,-65,37,895
17974,710304,882196,698813,928189,-1475,3800,-112,-3212,676,1515,1497,3268,-83,62,901
18975,709892,882732,698944,928320,-1439,3800,61,-3516,650,1976,1555,2826,-83,62,901
19976,709528,883376,699075,928451,-1523,3800,221,-3752,664,2234,1098,3381,-68,94,907
20977,709072,883944,699206,928582,-692,3800,281,-3628,836,2440,-139,4504,-68,94,907
21978,708692,884636,699337,928713,-945,3800,262,-3322,1036,2180,-612,4661,-65,99,910
22979,708308,885252,699468,928844,-695,3800,276,-3048,1055,1939,-498,4484,-65,99,910
23980,707892,885984,699599,928975,-257,3800,329,-2806,964,2131,-783,4538,-71,105,913
24981,707540,886644,699730,929106,-446,3800,345,-2499,925,2382,-1492,4945,-71,105,913
25981,707232,887304,699861,929237,-530,3800,258,-1936,1026,2350,-2238,5810,-54,109,913
26982,706904,887936,699992,929368,-204,3800,112,-1169,1206,2144,-2752,6089,-54,109,913
27984,706596,888476,700123,929499,-138,3800,-5,-457,1340,1891,-2961,5595,-53,96,914
28984,706328,889056,700254,929630,-214,3800,-99,87,1428,1748,-3150,5477,-53,96,914
29986,706080,889648,700385,929761,-173,3800,-158,574,1493,1639,-2998,4939,-56,100,914
30987,705884,890180,700516,929892,-355,3800,-203,770,1539,1744,-2664,4116,-56,100,914
31988,705716,890668,700647,930023,-400,3800,-206,797,1586,1881,-2553,3554,-42,88,914
32989,705568,891084,700778,930154,-403,3800,-194,739,1614,1626,-2347,3119,-42,88,914
33990,705452,891504,700909,930285,-496,3800,-163,546,1618,1533,-2407,2569,-34,80,913
34991,705348,891948,701040,930416,-469,3800,-118,276,1591,1463,-2054,2421,-34,80,913
35992,705260,892320,701171,930547,-473,3800,-58,107,1575,1237,-2078,2607,-27,68,911
36993,705208,892756,701302,930678,-618,3800,7,-78,1570,1004,-1984,2319,-27,68,911
37994,705164,893172,701433,930809,-592,3800,88,-349,1522,484,-1375,2128,-8,70,911
38995,705132,893560,701564,930940,-596,3800,145,-615,1384,-10,-873,2289,-8,70,911
39996,705100,894008,701695,931071,-526,3800,143,-825,1203,-65,-749,2318,-8,71,911
40997,705088,894468,701826,931202,-588,3800,133,-1076,1065,48,-468,2155,-8,71,911
41998,705092,894964,701957,931333,-633,3800,85,-1262,979,191,-189,2477,13,83,911
42999,705088,895472,702088,931464,-525,3800,-30,-1374,905,183,-262,2648,13,83,911
44000,705088,895908,702219,931595,-492,3800,-185,-1469,807,18,73,2496,-6,77,912
45001,705076,896376,702350,931726,-355,3800,-347,-1710,657,-224,577,1982,-6,77,912
46002,705084,896888,702481,931857,-426,3800,-538,-2102,482,-402,531,1855,16,79,912
47003,705076,897396,702612,931988,-266,3800,-759,-2431,350,-504,320,2115,16,79,912
48004,705076,897884,702743,932119,-259,3800,-998,-2876,265,-499,-103,1800,-3,87,912
49005,705076,898480,702874,932250,-202,3800,-1237,-3361,222,-302,-1474,1630,-3,87,912
50006,705076,898992,703005,932381,-145,3800,-1447,-4025,203,-138,-1652,1185,17,94,913
51006,705068,899616,703136,932512,-34,3800,-1649,-4745,224,156,-1481,1172,17,94,913
52008,705076,900244,703267,932643,-80,3800,-1879,-5458,300,413,-1192,1409,17,101,914
53008,705072,900840,703398,932774,54,3800,-2129,-6102,473,587,-918,1719,17,101,914
54009,705052,901444,703529,932905,220,3800,-2324,-6644,725,918,-971,1958,3,116,914
55010,705056,902076,703660,933036,125,3800,-2432,-7155,1033,1149,-1300,2218,3,116,914
56011,705056,902772,703791,933167,208,3800,-2496,-7630,1371,1334,-1435,2529,16,124,915
57012,705060,903548,703922,933298,238,3800,-2516,-8017,1716,1589,-1559,2840,16,124,915
58013,705060,904212,704053,933429,321,3800,-2520,-8286,2063,1774,-1263,3453,2,129,915
59014,705064,904792,704184,933560,351,3800,-2531,-8342,2409,1923,-1113,4278,2,129,915
60015,705044,905624,704315,933691,567,3800,-2572,-8141,2750,2162,-966,5005,18,150,914
61016,705056,906384,704446,933822,419,3800,-2609,-7844,3090,2668,-226,5176,18,150,914
62018,705036,907204,704577,933953,686,3800,-2570,-7603,3411,3233,554,5090,16,148,916
63019,705036,908240,704708,934084,618,3800,-2486,-7339,3685,3504,806,5417,16,148,916
64020,705028,909208,704839,934215,729,3800,-2386,-6941,3912,3452,664,5836,1,182,917
65021,705032,910140,704970,934346,710,3800,-2217,-6526,4122,3440,499,6098,1,182,917
66022,705028,911124,705101,934477,820,3800,-1983,-6139,4209,3504,924,5991,21,192,917
67023,705028,912148,705232,934608,852,3800,-627,-3974,4082,6199,1704,21701,21,192,917
68024,705044,913232,705363,934739,803,3800,2274,1933,3514,9717,2571,32767,3,194,917
69025,705044,914172,705494,934870,960,3800,4010,4730,3221,3599,562,7854,3,194,917
70026,705044,915128,705625,935001,1018,3800,4296,4493,3276,2580,626,3859,18,176,915
71026,705048,916056,705756,935132,1049,3800,4093,3088,3392,2790,337,2916,18,176,915
72027,705048,916932,705887,935263,1131,3800,4066,2483,3385,2624,448,3717,2,186,916
73016,705080,917804,706018,935394,975,3516,4266,2181,3253,1668,1086,3099,2,186,916
74017,705084,918756,706149,935525,1207,2660,4471,1823,2990,1291,1137,2702,2,183,915
75018,705100,919568,706280,935656,1182,3238,4640,1392,2703,977,1199,2301,2,183,915
76019,705124,920368,706411,935787,1179,3022,4826,532,2494,312,1100,1126,17,171,915
77020,705144,921156,706542,935918,1253,2812,4927,-326,2306,214,761,1411,17,171,915
78021,705164,921844,706673,936049,1302,3195,4970,-961,2150,-303,726,2190,2,163,916
79022,705180,922520,706804,936180,1378,3033,4804,-929,1911,-921,1038,4318,2,163,916
80023,705216,923096,706935,936311,1295,3465,4446,-275,1609,-1266,605,5523,2,129,916
81024,705256,923620,707066,936442,1310,3620,3974,506,1381,-1226,1279,5827,2,129,916
82037,705296,924036,707197,936573,1351,3800,3535,1340,1181,-624,2389,5574,13,85,913
83038,705364,924376,707328,936704,1204,3800,3173,1800,966,-590,2905,4467,13,85,913
84040,705416,924660,707459,936835,1338,3800,2834,2101,805,-1193,2664,4516,6,67,908
85041,705460,924924,707590,936966,1428,3800,2478,2327,655,-1687,2639,4081,6,67,908
86041,705528,925128,707721,937097,1305,3800,2152,2389,538,-1980,2522,3430,25,50,908
87043,705584,925288,707852,937228,1414,3800,1827,2332,482,-2037,3188,2583,25,50,908
88044,705624,925428,707983,937359,1554,3800,1541,1561,434,-2252,3892,420,21,27,906
89045,705688,925552,708114,937490,1435,3800,1282,415,373,-2557,4007,-23,21,27,906
90045,705756,925676,708245,937621,1437,3800,1022,-749,391,-2689,3391,143,24,16,906
91047,705832,925764,708376,937752,1411,3800,754,-1749,528,-2810,2591,320,24,16,906
92048,705884,925872,708507,937883,1597,3800,505,-2617,783,-2924,1806,771,8,13,904
93048,705952,925984,708638,938014,1525,3800,286,-3369,1134,-2859,1213,1093,8,13,904
94049,706020,926092,708769,938145,1554,3800,0,-3985,1488,-2540,1223,1666,5,12,905
95051,706100,926152,708900,938276,1501,3800,-383,-4451,1794,-2313,1498,2228,5,12,905
96052,706184,926264,709031,938407,1498,3800,-855,-4720,2087,-1938,1176,3222,26,9,904
97053,706256,926364,709162,938538,1600,3800,-1327,-4964,2425,-1506,847,3035,26,9,904
98054,706332,926480,709293,938669,1599,3800,-1723,-5275,2800,-1283,946,3057,25,10,905
99054,706424,926584,709424,938800,1517,3800,-2056,-5451,3110,-1329,1312,3617,25,10,905
100056,706492,926720,709555,938931,1695,3800,-2309,-5634,3380,-1394,1130,3572,28,19,902
101057,706564,926868,709686,939062,1696,3800,-2481,-5876,3668,-1308,793,3518,28,19,902
102058,706648,927012,709817,939193,1642,3800,-2621,-6134,3970,-963,823,3765,17,18,904
103059,706720,927172,709948,939324,1744,3800,-2779,-6356,4279,-599,963,4088,17,18,904
104059,706808,927336,710079,939455,1664,3800,-2923,-6546,4573,-270,1163,4137,28,22,904
105061,706892,927512,710210,939586,1710,3800,-3044,-6716,4799,4,1318,4364,28,22,904
106061,706972,927684,710341,939717,1758,3800,-3150,-6789,4942,178,1370,4724,10,32,904
107062,707064,927868,710472,939848,1701,3800,-3237,-6812,5017,236,1310,4894,10,32,904
108064,707152,928060,710603,939979,1745,3800,-3321,-6814,4956,235,1778,5132,31,39,902
109065,707248,928236,710734,940110,1711,3800,-3466,-6601,4655,157,2593,6212,31,39,902
110065,707348,928396,710865,940241,1700,3800,-3654,-6142,4274,397,2461,6762,25,29,905
111067,707480,928572,710996,940372,1501,3800,-3830,-5581,3866,662,2613,6975,25,29,905
112068,707608,928812,711127,940503,1528,3800,-3971,-5060,3421,822,3039,6874,18,39,904
113069,707752,929028,711258,940634,1422,3800,-4034,-4713,2948,1070,3278,6263,18,39,904
114070,707872,929256,711389,940765,1578,3800,-4029,-4646,2428,1213,3709,5446,21,43,905
115070,708012,929492,711520,940896,1450,3800,-3940,-4889,1915,1181,3866,4760,21,43,905
116071,708164,929740,711651,941027,1367,3800,-3781,-5224,1446,1067,3703,4568,39,56,906
117072,708276,929984,711782,941158,1625,3800,-3553,-5643,1056,833,3207,4347,39,56,906
118073,708424,930312,711913,941289,1394,3800,-3275,-6069,737,461,2770,4248,22,47,907
119074,708552,930640,712044,941420,1521,3800,-2941,-6552,478,110,2424,4109,22,47,907
120075,708692,930968,712175,941551,1442,3800,-2566,-7060,306,-55,1982,4065,21,55,906
121064,708836,931332,712306,941682,1412,3624,-2182,-7526,225,-133,1856,4216,21,55,906
122065,708988,931728,712437,941813,1353,3309,-1786,-7907,197,-494,1643,4479,42,79,906
123065,709132,932152,712568,941944,1398,3008,-1399,-8129,201,-1085,1064,5050,42,79,906
124067,709284,932540,712699,942075,1340,3122,-1043,-8134,240,-1439,607,5588,28,79,908
125068,709424,932904,712830,942206,1411,3171,-702,-7980,355,-1572,193,5934,28,79,908
126069,709564,933356,712961,942337,1408,2482,-376,-7622,547,-1794,-208,6457,31,82,911
127069,709752,933752,713092,942468,1084,2717,-125,-7061,816,-2056,-950,7282,31,82,911
128071,709888,934168,713223,942599,1407,2469,12,-6213,1193,-2274,-2031,8316,32,80,912
129072,710036,934660,713354,942730,1326,1837,64,-5128,1654,-2361,-3063,8706,32,80,912
130073,710212,935068,713485,942861,1132,2241,105,-4119,2094,-2335,-3360,8151,38,74,916
131074,710380,935488,713616,942992,1166,2041,177,-3351,2450,-2153,-3244,7217,38,74,916
132075,710540,935936,713747,943123,1204,1728,292,-2891,2698,-2043,-2865,6241,48,90,919
133076,710708,936332,713878,943254,1138,1938,440,-2602,2862,-1994,-2608,5736,48,90,919
134077,710852,936728,714009,943385,1283,1823,593,-2446,3014,-1788,-2904,5388,27,76,918
135085,710976,937116,714280,943656,1473,1823,766,-2318,3193,-1449,-3095,4812,27,76,918
136079,711104,937532,714411,943787,1450,1523,970,-2383,3356,-979,-2738,3950,19,72,919
137080,711216,937904,714542,943918,1559,1694,1192,-2593,3524,-149,-2780,3581,19,72,919
138081,711336,938260,714673,944049,1515,1696,1398,-2837,3669,508,-2548,3192,38,76,919
139082,711456,938688,714804,944180,1520,1117,1607,-3210,3788,1009,-2274,2713,38,76,919
140083,711568,939160,714935,944311,1579,693,1819,-3681,3901,1294,-2516,2611,30,85,918
141084,711664,939524,715066,944442,1695,1267,2021,-4143,3988,1343,-2762,2354,30,85,918
142085,711756,939932,715197,944573,1738,871,2258,-4745,4006,1459,-2521,1682,31,87,921
143085,711864,940364,715328,944704,1649,590,2504,-5314,3974,1658,-2573,1819,31,87,921
144087,711980,940704,715459,944835,1605,1073,2711,-5677,3952,1722,-2698,2456,16,71,919
145088,712096,941072,715590,944966,1613,795,2877,-5790,3930,1811,-2720,2807,16,71,919
146089,712212,941424,715721,945097,1621,799,3051,-5791,3878,1830,-2608,2869,17,71,921
147090,712336,941784,715852,945228,1574,649,3229,-5646,3777,1738,-2628,3225,17,71,921
148091,712464,942088,715983,945359,1551,923,3366,-5338,3657,1705,-2765,3661,38,66,921
149092,712576,942356,716114,945490,1660,1089,3467,-4862,3524,1582,-2750,3841,38,66,921
150093,712688,942664,716245,945621,1669,762,3539,-4274,3378,1292,-2794,4024,17,66,922
151094,712812,943004,716376,945752,1598,470,3613,-3593,3219,1103,-2654,3867,17,66,922
152095,712956,943308,716507,945883,1468,620,3691,-2852,3061,1021,-2579,3872,26,49,920
153096,713060,943572,716638,946014,1730,812,3770,-2132,2929,1032,-2416,3656,26,49,920
154097,713152,943784,716769,946145,1823,1102,3845,-1532,2795,1112,-1825,3180,34,56,922
155098,713260,944052,716900,946276,1734,692,3928,-1022,2639,1075,-1387,2629,34,56,922
156099,713360,944348,717031,946407,1799,444,3994,-582,2437,795,-1384,2121,18,38,921
157100,713464,944584,717162,946538,1786,774,4042,-307,2217,657,-1516,1574,18,38,921
158101,713572,944812,717293,946669,1772,782,4082,-166,2021,739,-1589,1113,27,36,920
159101,713676,945004,717424,946800,1810,981,4112,-90,1894,945,-1775,699,27,36,920
160102,713776,945204,717555,946931,1848,900,4097,-24,1885,1196,-2053,616,11,45,920
161104,713884,945408,717686,947062,1809,843,4024,106,1953,1289,-2103,697,11,45,920
162105,713996,945644,717817,947193,1794,598,3899,258,2028,1393,-2050,553,11,34,920
163106,714112,945848,717948,947324,1776,766,3759,322,2048,1385,-1766,140,11,34,920
164107,714240,946044,718079,947455,1703,788,3611,226,2024,1383,-1599,-169,18,35,920
165108,714376,946216,718210,947586,1651,920,3444,74,1971,1283,-1507,-346,18,35,920
166109,714496,946364,718341,947717,1757,1063,3230,-59,1909,1201,-1360,-351,23,37,921
167110,714608,946532,718472,947848,1816,922,2943,-104,1852,1251,-1204,27,23,37,921
168111,714708,946704,718603,947979,1905,879,2601,-43,1755,1136,-870,22,14,36,920
169112,714788,946900,718734,948110,2054,700,2250,-19,1567,944,-423,-176,14,36,920
170113,714880,947088,718865,948241,1997,726,1902,-107,1318,846,-259,-383,12,35,919
171113,714980,947272,718996,948372,1960,728,1529,-303,1047,850,96,-564,12,35,919
172115,715056,947444,719127,948503,2136,785,1100,-492,772,938,261,-494,9,33,919
173116,715152,947612,719258,948634,2027,794,618,-664,495,889,281,-367,9,33,919
174117,715248,947748,719389,948765,2043,991,125,-911,197,864,431,-600,14,33,919
175118,715336,947864,719520,948896,2113,1124,-381,-1222,-117,1055,466,-647,14,33,919
176119,715416,948036,719651,949027,2186,756,-918,-1599,-407,1262,68,-628,29,27,919
177120,715528,948184,719782,949158,1995,899,-1447,-2078,-651,1416,-78,-923,29,27,919
178121,715620,948356,719913,949289,2138,731,-1951,-2709,-848,1565,-274,-1027,24,35,918
179122,715724,948476,720044,949420,2076,1060,-2452,-3382,-990,1818,-679,-907,24,35,918
180123,715824,948616,720175,949551,2116,932,-2950,-4065,-1073,2180,-852,-856,31,18,918
181124,715904,948728,720306,949682,2263,1116,-3431,-4777,-1099,2531,-961,-835,31,18,918
182124,715976,948844,720437,949813,2340,1097,-3906,-5542,-1058,2864,-908,-671,21,20,918
183126,716052,948936,720568,949944,2340,1264,-4394,-6270,-964,3121,-818,-322,21,20,918
184126,716108,949048,720699,950075,2499,1148,-4896,-6883,-839,3322,-641,197,23,24,916
185128,716180,949140,720830,950206,2426,1291,-5380,-7370,-686,3514,-468,772,23,24,916
186129,716248,949216,720961,950337,2480,1415,-5842,-7714,-522,3791,-290,1430,21,16,915
187130,716348,949332,721092,950468,2294,1172,-6312,-7829,-355,4015,-147,2287,21,16,915
188131,716452,949448,721223,950599,2282,1178,-6815,-7713,-200,4037,-119,3097,20,26,915
189132,716576,949544,721354,950730,2160,1319,-7311,-7397,-82,3942,164,3837,20,26,915
190133,716720,949608,721485,950861,2030,1549,-7790,-6892,-35,3877,645,4791,35,8,915
191134,716868,949676,721616,950992,1999,1552,-8214,-6423,45,3904,158,4644,35,8,915
192135,717000,949760,721747,951123,2100,1472,-8531,-5972,327,4042,-871,4696,31,16,915
193136,717180,949852,721878,951254,1779,1440,-8800,-5442,563,3666,-123,5807,31,16,915
194137,717332,949924,722009,951385,1946,1592,-9071,-4655,622,3169,-302,6657,24,12,916
195138,717464,950000,722140,951516,2071,1591,-9222,-3973,679,3074,-988,5984,24,12,916
196139,717628,950056,722271,951647,1858,1749,-9198,-3565,701,3168,-397,5739,26,20,918
197140,717760,950144,722402,951778,2058,1568,-9079,-3155,673,3205,-211,6449,26,20,918
198141,717928,950220,722533,951909,1818,1668,-8908,-2642,664,3003,-604,6645,38,7,916
199142,718072,950296,722664,952040,1962,1692,-8706,-2110,645,2824,-638,6756,38,7,916
200143,718256,950392,722795,952171,1690,1582,-8454,-1617,593,2649,-566,6811,25,20,916
201144,718420,950496,722926,952302,1802,1545,-8136,-1180,530,2403,-919,6814,25,20,916
202145,718632,950544,723057,952433,1467,1932,-7488,-448,486,2457,-1511,9685,40,11,915
203146,718784,950644,723188,952564,1834,1620,-3658,6994,735,3817,-5179,32767,40,11,915
204147,718940,950716,723319,952695,1799,1822,644,13867,834,3806,-2225,30759,22,26,917
205148,719112,950812,723450,952826,1682,1688,2205,14528,596,3620,650,1675,22,26,917
206149,719256,950936,723581,952957,1851,1517,1943,11352,228,3843,1156,-639,36,18,916
207150,719404,951072,723712,953088,1820,1439,1483,7817,-82,4306,449,-1992,36,18,916
208151,719564,951180,723843,953219,1733,1625,1401,5507,-174,3791,-519,-593,41,30,917
209152,719752,951288,723974,953350,1534,1636,1383,3683,-36,3157,-1956,-475,41,30,917
210153,719948,951384,724105,953481,1456,1726,1235,2234,93,3239,-2513,503,44,12,918
211154,720116,951484,724236,953612,1615,1716,1141,521,142,2457,-1582,-316,44,12,918
212155,720304,951600,724367,953743,1466,1622,1102,-1507,71,2129,-1408,-698,37,10,917
213156,720460,951704,724498,953874,1656,1709,1154,-3321,-158,1796,-1465,109,37,10,917
214157,720644,951784,724629,954005,1459,1883,1153,-4782,-393,731,-1151,1331,35,29,916
215158,720792,951896,724760,954136,1676,1691,1131,-5534,-647,407,-1207,3113,35,29,916
216159,720936,952008,724891,954267,1697,1700,1020,-5887,-857,-78,-1499,4209,40,29,917
217160,721108,952120,725022,954398,1505,1709,887,-5712,-915,-698,-1775,5973,40,29,917
218161,721260,952228,725153,954529,1621,1744,754,-5167,-931,-964,-1718,6603,40,23,917
219162,721396,952356,725284,954660,1719,1621,662,-4648,-993,-1451,-1191,6654,40,23,917
220163,721524,952476,725415,954791,1771,1676,597,-3851,-1091,-1832,-891,7732,38,21,918
221164,721676,952580,725546,954922,1613,1789,551,-2948,-1181,-1862,-1034,7444,38,21,918
222165,721820,952680,725677,955053,1658,1827,539,-2104,-1211,-2134,-1335,7478,26,21,917
223166,721980,952776,725808,955184,1546,1869,559,-1234,-1144,-2213,-2006,7659,26,21,917
224167,722136,952864,725939,955315,1561,1938,586,-345,-1034,-1881,-2180,7553,39,9,916
225168,722288,952968,726070,955446,1578,1850,609,406,-901,-1508,-1667,6807,39,9,916
226169,722440,953048,726201,955577,1569,2023,680,834,-734,-1182,-1336,5658,26,15,916
227170,722628,953132,726332,955708,1319,2020,782,890,-554,-904,-1127,4663,26,15,916
228171,722788,953216,726463,955839,1482,2040,899,710,-353,-689,-829,4125,21,10,917
229172,722908,953316,726594,955970,1738,1955,1029,339,-120,-339,-713,3264,21,10,917
230173,723072,953384,726725,956101,1449,2182,1170,-276,148,-158,-818,2434,21,24,917
231174,723216,953456,726856,956232,1569,2184,1313,-1037,429,-163,-582,2039,21,24,917
232175,723356,953536,726987,956363,1591,2157,1444,-1817,662,-74,-417,1712,39,10,915
233176,723488,953628,727118,956494,1642,2100,1573,-2672,833,-32,-452,1440,39,10,915
234177,723628,953720,727249,956625,1588,2117,1680,-3535,990,-97,-833,1550,36,24,914
235178,723768,953840,727380,956756,1585,1948,1751,-4269,1155,-138,-1497,1927,36,24,914
236179,723900,953944,727511,956887,1635,2060,1769,-4735,1302,-204,-1684,2532,30,18,914
237180,724040,954024,727642,957018,1581,2233,1760,-5009,1423,-306,-1454,2971,30,18,914
238181,724176,954112,727773,957149,1605,2202,1744,-5166,1506,-403,-1100,3071,16,8,916
239182,724320,954196,727904,957280,1551,2249,1705,-5229,1533,-638,-728,3468,16,8,916
240183,724488,954288,728035,957411,1384,2217,1595,-5117,1524,-900,-555,4075,29,25,915
241184,724628,954388,728166,957542,1556,2181,1436,-4895,1488,-1051,-468,4314,29,25,915
242185,724772,954488,728297,957673,1527,2195,1247,-4493,1438,-1051,-295,4674,29,24,915
243186,724920,954568,728428,957804,1494,2343,1049,-4128,1398,-902,-63,4627,29,24,915
244187,725044,954692,728559,957935,1648,2072,860,-3790,1349,-726,143,4247,26,23,915
245188,725176,954792,728690,958066,1599,2236,692,-3602,1274,-606,481,3849,26,23,915
246189,725344,954884,728821,958197,1357,2303,540,-3585,1177,-348,788,3324,29,16,913
247190,725488,955016,728952,958328,1503,2054,403,-3751,1055,74,965,2760,29,16,913
248191,725628,955148,729083,958459,1525,2055,303,-4041,940,451,523,2343,29,25,915
249191,725776,955280,729214,958590,1467,2054,216,-4407,878,821,198,2172,29,25,915
250192,725928,955424,729345,958721,1434,1974,97,-4670,849,1050,693,2427,33,32,916
251194,726060,955544,729476,958852,1560,2129,-54,-4816,833,1184,913,2613,33,32,916
252195,726208,955660,729607,958983,1452,2162,-184,-5006,775,1200,1206,2415,15,22,916
253196,726356,955780,729738,959114,1446,2143,-286,-5233,670,1205,1298,2385,15,22,916
254197,726488,955888,729869,959245,1546,2228,-384,-5418,551,1322,1117,2726,34,31,915
255198,726616,956044,730000,959376,1573,1918,-496,-5453,471,1555,489,3117,34,31,915
256199,726760,956152,730131,959507,1468,2229,-607,-5371,428,1813,12,3352,20,22,913
257199,726904,956244,730262,959638,1462,2346,-699,-5177,375,2089,-77,3464,20,22,913
258201,727052,956372,730393,959769,1431,2123,-760,-5065,305,2347,-21,3310,39,30,915
259202,727208,956512,730524,959900,1371,2045,-786,-4999,221,2520,129,3185,39,30,915
260210,727352,956624,730664,960040,1444,2233,-804,-4914,133,2626,223,3339,19,30,915
261204,727496,956744,730795,960171,1439,2189,-837,-4695,62,2709,286,3593,19,30,915
262205,727640,956868,730926,960302,1435,2167,-884,-4439,15,2651,365,3888,25,24,917
263206,727808,956964,731057,960433,1268,2358,-935,-4063,-25,2506,474,4041,25,24,917
264207,727944,957076,731188,960564,1467,2267,-978,-3679,-78,2391,718,4009,25,29,915
265208,728116,957160,731319,960695,1225,2463,-1018,-3277,-132,2316,916,3993,25,29,915
266209,728268,957276,731450,960826,1341,2271,-1042,-2991,-165,2274,858,3728,31,22,915
267210,728396,957412,731581,960957,1493,2144,-1044,-2770,-173,2337,838,3404,31,22,915
268211,728544,957548,731712,961088,1361,2142,-1039,-2625,-191,2420,869,3215,38,18,914
269212,728680,957668,731843,961219,1434,2248,-1048,-2450,-227,2448,1038,3224,38,18,914
270213,728804,957792,731974,961350,1514,2227,-1068,-2253,-262,2347,881,3254,34,22,915
271214,728944,957924,732105,961481,1410,2177,-1086,-2001,-271,2092,351,3439,34,22,915
272215,729060,958048,732236,961612,1567,2231,-1097,-1767,-242,1903,-195,3340,32,18,915
273216,729168,958156,732367,961743,1627,2342,-1119,-1585,-190,1759,-385,3310,32,18,915
274217,729288,958288,732498,961874,1558,2192,-1159,-1382,-114,1631,-567,3368,31,30,916
275218,729392,958412,732629,962005,1671,2245,-1214,-1172,3,1316,-764,3331,31,30,916
276219,729488,958528,732760,962136,1736,2303,-1268,-937,154,1003,-798,3371,24,27,914
277220,729608,958656,732891,962267,1592,2230,-1312,-738,317,810,-731,3406,24,27,914
278221,729728,958796,733022,962398,1597,2151,-1343,-535,485,724,-620,3388,16,16,913
279222,729820,958936,733153,962529,1790,2148,-1374,-399,650,571,-648,3274,16,16,913
280223,729928,959056,733284,962660,1701,2279,-1409,-299,809,381,-760,3210,24,24,913
281224,730052,959188,733415,962791,1604,2204,-1445,-251,956,264,-799,3224,24,24,913
282224,730164,959332,733546,962922,1689,2124,-1470,-146,1080,145,-791,3190,9,30,914
283226,730256,959504,733677,963053,1832,1932,-1496,-66,1196,-9,-931,3254,9,30,914
284227,730376,959628,733808,963184,1662,2235,-1529,-50,1316,-159,-953,3176,31,31,915
285228,730480,959752,733939,963315,1775,2239,-1571,-117,1429,-202,-896,3125,31,31,915
286229,730584,959888,734070,963446,1787,2163,-1614,-199,1524,-147,-754,2989,26,31,915
287230,730688,960020,734201,963577,1799,2188,-1645,-285,1602,-156,-445,2978,26,31,915
288231,730796,960188,734332,963708,1785,1947,-1671,-385,1658,-202,-251,3073,18,36,914
289232,730880,960316,734463,963839,1957,2200,-1704,-514,1703,-208,-180,3272,18,36,914
290233,731012,960464,734594,963970,1657,2067,-1740,-606,1743,-146,-112,3316,11,23,913
291234,731112,960612,734725,964101,1871,2061,-1774,-697,1785,-137,-122,3247,11,23,913
292235,731228,960768,734856,964232,1779,2001,-1816,-849,1820,-188,-183,3411,29,23,913
293236,731340,960904,734987,964363,1812,2124,-1868,-975,1859,-229,-321,3602,29,23,913
294237,731460,961084,735118,964494,1768,1828,-1921,-1031,1904,-224,-458,3846,15,33,914
295238,731548,961220,735249,964625,1988,2102,-1964,-1044,1940,-266,-513,3799,15,33,914
296239,731680,961384,735380,964756,1712,1912,-1993,-1162,1949,-318,-349,3740,16,25,913
297240,731804,961544,735511,964887,1767,1926,-2024,-1305,1927,-336,-88,3836,16,25,913
298241,731912,961680,735642,965018,1878,2074,-2067,-1448,1887,-384,-98,3983,35,25,914
299241,732032,961856,735773,965149,1808,1805,-2126,-1547,1861,-346,-590,4069,35,25,914
300243,732152,961992,735904,965280,1813,2053,-2146,-1704,1843,-387,-1137,3997,13,25,914
301244,732256,962172,736035,965411,1926,1758,-2152,-1901,1808,-420,-1053,3999,13,25,914
302245,732360,962332,736166,965542,1939,1870,-2174,-2138,1746,-470,-965,3901,32,41,915
303246,732504,962516,736297,965673,1683,1698,-2197,-2376,1693,-512,-1449,4134,32,41,915
304247,732616,962696,736428,965804,1893,1701,-2216,-2560,1669,-491,-1909,4357,21,25,915
305247,732712,962880,736559,965935,2009,1654,-2256,-2784,1658,-522,-1619,4296,21,25,915
306249,732836,963024,736690,966066,1838,1899,-2265,-2982,1649,-549,-1345,4330,30,41,917
307249,732956,963200,736821,966197,1868,1680,-2179,-3147,1611,-697,-561,5018,30,41,917
308251,733040,963360,736952,966328,2115,1768,-810,-983,1802,-1204,-2697,26450,11,41,915
309252,733176,963552,737083,966459,1788,1541,1202,2359,2097,-940,-2932,26862,11,41,915
310253,733292,963748,737214,966590,1921,1488,2026,2926,2106,-41,142,2931,30,38,916
311254,733412,963916,737345,966721,1901,1647,1797,1233,1964,273,280,1133,30,38,916
312255,733544,964084,737476,966852,1826,1632,1470,-947,1842,601,-32,390,14,38,916
313256,733660,964256,737607,966983,1934,1589,1266,-2443,1857,645,292,1404,14,38,916
314257,733780,964404,737738,967114,1915,1732,1178,-3512,2000,738,309,1354,36,30,917
315257,733924,964576,737869,967245,1759,1564,1036,-4494,2126,945,219,1829,36,30,917
316259,734064,964748,738000,967376,1781,1547,886,-5357,2222,504,417,2348,38,25,916
317260,734200,964900,738131,967507,1805,1663,732,-6189,2273,231,321,2635,38,25,916
318261,734316,965056,738262,967638,1938,1628,585,-6801,2241,140,-32,3241,14,20,917
319261,734436,965212,738393,967769,1917,1617,501,-7233,2247,-263,-832,3597,14,20,917
320263,734540,965360,738524,967900,2030,1661,439,-7352,2282,-433,-1593,4782,34,23,916
321263,734664,965516,738655,968031,1909,1600,366,-7115,2298,-684,-1972,5779,34,23,916
322265,734776,965664,738786,968162,1994,1643,356,-6651,2338,-943,-2308,6684,12,21,915
323265,734900,965812,738917,968293,1922,1636,681,-5392,2389,-939,-2303,12468,12,21,915
324267,735008,965964,739048,968424,2033,1603,1149,-4069,2371,-1180,-1052,10775,35,33,915
325268,735116,966136,739179,968555,2044,1460,1351,-3315,2360,-1353,-430,6554,35,33,915
326269,735236,966328,739310,968686,1975,1309,1337,-3018,2432,-999,-828,5970,14,27,916
327270,735348,966508,739441,968817,2033,1362,1314,-2923,2570,-787,-623,5392,14,27,916
328271,735468,966676,739572,968948,1989,1422,1345,-2829,2728,-717,-283,4886,14,42,916
329272,735608,966844,739703,969079,1861,1406,1455,-3090,2872,-508,-155,3703,14,42,916
330273,735716,967016,739834,969210,2072,1363,1576,-3419,2979,-203,-145,3714,28,31,917
331274,735824,967160,739965,969341,2083,1533,1684,-3656,3095,-155,-186,3711,28,31,917
332275,735912,967360,740096,969472,2227,1153,1762,-3898,3229,113,-662,3660,8,27,916
333276,736020,967556,740227,969603,2113,1150,1824,-4036,3373,276,-845,3880,8,27,916
334277,736132,967728,740358,969734,2098,1282,1876,-4181,3493,95,-101,3740,27,37,915
335278,736232,967916,740489,969865,2187,1157,1903,-4265,3518,43,715,3871,27,37,915
336279,736356,968072,740620,969996,2041,1347,1920,-4356,3513,-74,192,3928,32,27,917
337280,736464,968308,740751,970127,2151,801,1965,-4323,3559,-42,-727,4105,18,30,916
338280,736568,968484,740882,970258,2189,1157,2002,-4190,3591,-12,-563,4396,18,30,916
339281,736692,968612,741013,970389,2068,1458,2011,-4002,3591,-145,-417,4421,35,26,918
340283,736796,968700,741144,970520,2206,1727,2016,-3807,3563,-129,-736,4460,35,26,918
341284,736884,968792,741275,970651,2326,1720,2038,-3677,3522,19,-627,4150,31,23,916
342285,737012,968892,741406,970782,2077,1684,2053,-3560,3479,38,2,4376,31,23,916
343286,737176,968972,741537,970913,1839,1831,2005,-3310,3426,108,572,4419,24,24,911
344287,737320,969056,741668,971044,1959,1828,1932,-3213,3344,185,707,3777,24,24,911
345288,737448,969144,741799,971175,2062,1822,1875,-3128,3260,396,604,3927,28,13,914
346289,737588,969260,741930,971306,1984,1654,1844,-3038,3199,775,-18,3815,28,13,914
347290,737708,969372,742061,971437,2114,1688,1841,-3002,3118,957,314,3599,29,28,914
348291,737828,969492,742192,971568,2119,1643,1827,-2947,3008,878,800,3629,29,28,914
349292,737940,969672,742323,971699,2179,1247,1795,-2945,2885,956,387,3450,37,30,915
350293,738068,969836,742454,971830,2081,1333,1748,-2927,2761,991,772,3385,37,30,915
351294,738180,969988,742585,971961,2190,1399,1710,-2876,2630,902,853,3262,14,41,916
352295,738284,970124,742716,972092,2253,1497,1668,-2883,2504,996,368,3227,14,41,916
353296,738388,970308,742847,972223,2266,1174,1590,-2824,2386,997,271,3401,20,39,915
354297,738508,970544,742978,972354,2171,803,1465,-2698,2258,889,392,3452,20,39,915
355297,738592,970744,743109,972485,2418,999,1288,-2567,2129,878,-196,3519,13,52,915
356299,738704,970972,743240,972616,2252,781,1091,-2418,2007,788,-225,3559,13,52,915
357300,738808,971164,743371,972747,2315,979,890,-2229,1880,768,304,3713,24,39,916
358301,738888,971356,743502,972878,2488,953,697,-1929,1762,877,34,3749,24,39,916
359302,738984,971616,743633,973009,2405,472,518,-1652,1678,909,58,3727,9,51,916
360303,739072,971876,743764,973140,2474,415,347,-1410,1583,957,638,3724,9,51,916
361304,739164,972084,743895,973271,2468,707,180,-1223,1452,1096,936,3589,12,50,917
362305,739276,972308,744026,973402,2351,566,27,-1009,1258,1116,1339,3636,12,50,917
363306,739380,972496,744157,973533,2414,766,-121,-793,1011,1187,1475,3590,24,37,917
364307,739512,972696,744288,973664,2239,661,-259,-642,792,1288,1115,3241,24,37,917
365308,739648,972948,744419,973795,2213,283,-390,-581,625,1425,1005,3144,24,41,915
366309,739764,973148,744550,973926,2346,578,-517,-550,486,1537,1221,2956,24,41,915
367310,739888,973360,744681,974057,2300,468,-635,-591,359,1567,1235,2837,34,29,918
368311,740004,973532,744812,974188,2357,700,-748,-647,238,1493,1101,2654,34,29,918
369312,740136,973700,744943,974319,2258,709,-847,-776,89,1456,1074,2598,38,33,918
370313,740264,973844,745074,974450,2285,853,-940,-815,-60,1371,931,2917,38,33,918
371313,740408,974000,745205,974581,2181,767,-1025,-805,-181,1219,871,3055,39,24,918
372315,740556,974152,745336,974712,2149,783,-1128,-717,-293,1068,819,3217,39,24,918
373316,740672,974300,745467,974843,2357,800,-1247,-577,-402,896,756,3527,21,26,918
374317,740800,974448,745598,974974,2283,793,-1381,-342,-509,843,623,3730,21,26,918
375318,740960,974584,745729,975105,2071,866,-1531,-79,-625,735,542,3749,20,19,917
376319,741092,974736,745860,975236,2247,757,-1687,145,-732,671,516,3755,20,19,917
377320,741232,974880,745991,975367,2194,802,-1843,357,-816,701,588,3714,26,21,917
378321,741372,975000,746122,975498,2191,956,-1986,485,-889,761,801,3426,26,21,917
379322,741500,975116,746253,975629,2268,988,-2113,583,-944,731,658,3410,33,17,918
380323,741640,975232,746384,975760,2190,995,-2206,623,-973,678,594,3335,33,17,918
381324,741800,975356,746515,975891,2054,948,-2296,601,-1003,720,636,3170,28,23,917
382325,741936,975504,746646,976022,2202,790,-2354,570,-1016,743,450,3329,28,23,917
383325,742076,975636,746777,976153,2174,890,-2397,567,-1010,672,-121,3314,21,17,918
384327,742192,975768,746908,976284,2331,889,-2455,581,-1033,478,-437,3494,21,17,918
385336,742332,975888,747048,976424,2182,974,-2520,629,-1076,251,-820,3703,20,16,917
386329,742476,975996,747179,976555,2152,1059,-2597,726,-1147,61,-914,3864,20,16,917
387329,742620,976136,747310,976686,2148,855,-2695,844,-1250,-246,-924,3938,18,18,915
388330,742748,976260,747441,976817,2250,958,-2820,931,-1354,-544,-1274,3993,18,18,915
389331,742872,976360,747572,976948,2279,1122,-2958,1049,-1467,-789,-1501,3960,26,17,917
390333,743004,976480,747703,977079,2229,1002,-3087,1095,-1582,-1059,-1987,3866,26,17,917
391334,743132,976604,747834,977210,2257,980,-3204,1058,-1681,-1259,-2683,3849,19,32,916
392335,743268,976704,747965,977341,2206,1143,-3295,921,-1767,-1414,-3065,3701,19,32,916
393336,743424,976832,748096,977472,2071,970,-3369,770,-1843,-1585,-3073,3720,20,22,917
394337,743584,976936,748227,977603,2033,1133,-3435,601,-1915,-1769,-2802,3632,20,22,917
395338,743736,977084,748358,977734,2075,850,-3487,345,-1992,-1892,-2498,3532,34,22,918
396339,743892,977232,748489,977865,2040,843,-3520,79,-2051,-1913,-2256,3544,34,22,918
397340,744044,977368,748620,977996,2056,915,-3517,-347,-2082,-1916,-2065,3312,36,35,918
398341,744192,977516,748751,978127,2075,833,-3484,-781,-2088,-1869,-2080,3314,36,35,918
399342,744340,977636,748882,978258,2068,1013,-3427,-1296,-2058,-1940,-2450,3320,19,20,917
400343,744480,977756,749013,978389,2116,1018,-3342,-1790,-1986,-1946,-2864,3583,19,20,917
401344,744628,977880,749144,978520,2059,996,-2412,-992,-1782,-1982,-3851,15146,24,19,918
402345,744764,978012,749275,978651,2132,946,79,3139,-1341,-2398,-4420,32767,24,19,918
403346,744928,978136,749406,978782,1943,999,1800,4902,-1117,-1461,-1459,7776,28,23,917
404347,745080,978308,749537,978913,2010,681,2088,3777,-1110,-996,-437,1190,28,23,917
405347,745216,978432,749668,979044,2109,984,1740,1369,-1106,-493,-503,294,21,36,918
406349,745392,978584,749799,979175,1840,800,1528,-457,-991,-92,-993,1045,21,36,918
407350,745552,978736,749930,979306,1928,791,1448,-1686,-735,-174,-1117,1520,24,24,918
408351,745720,978888,750061,979437,1862,782,1408,-2689,-495,3,-1153,1637,24,24,918
409352,745912,979056,750192,979568,1686,666,1320,-3686,-344,-76,-945,1799,28,31,919
410353,746056,979184,750323,979699,1982,917,1254,-4839,-248,-324,-876,1691,28,31,919
411354,746196,979308,750454,979830,2004,945,1153,-5831,-236,-188,-929,2385,20,18,920
412355,746356,979440,750585,979961,1867,895,1032,-6617,-251,-275,-762,2961,20,18,920
413356,746520,979540,750716,980092,1828,1109,859,-6989,-262,-388,-353,4364,28,17,918
414357,746652,979648,750847,980223,2028,1069,663,-6959,-267,-302,-186,5100,28,17,918
415358,746836,979796,750978,980354,1681,812,504,-6681,-251,-483,-361,5895,21,18,918
416359,746988,979908,751109,980485,1872,1045,374,-6166,-225,-509,-693,6706,21,18,918
417359,747140,980020,751240,980616,1864,1053,293,-5735,-230,-452,-820,6278,20,19,919
418361,747304,980108,751371,980747,1775,1222,267,-5321,-240,-241,-646,6485,20,19,919
419361,747480,980216,751502,980878,1681,1107,271,-4917,-214,107,-337,6185,36,26,919
420363,747644,980304,751633,981009,1742,1251,291,-4708,-180,530,89,5471,36,26,919
421364,747796,980380,751764,981140,1809,1351,356,-4527,-133,775,309,5308,44,12,918
422365,747984,980476,751895,981271,1560,1242,473,-4524,-97,856,622,4614,44,12,918
423366,748136,980544,752026,981402,1776,1445,616,-4664,-79,1037,664,4192,35,18,917
424367,748304,980628,752157,981533,1661,1365,760,-4889,-34,1091,623,3821,35,18,917
425368,748476,980712,752288,981664,1619,1386,932,-5202,21,1136,607,3454,42,22,918
426369,748656,980780,752419,981795,1547,1514,1106,-5523,41,1134,665,3346,42,22,918
427369,748816,980876,752550,981926,1660,1355,1287,-5786,62,994,608,3302,34,21,918
428371,749000,980956,752681,982057,1488,1477,1449,-5911,87,990,464,3694,34,21,918
429371,749160,981044,752812,982188,1626,1446,1590,-5901,87,909,461,3822,41,23,918
430372,749332,981128,752943,982319,1533,1492,1722,-5886,78,791,528,3897,41,23,918
431374,749536,981228,753074,982450,1302,1406,1842,-5744,65,789,588,4065,44,26,917
432375,749684,981304,753205,982581,1646,1581,1947,-5568,48,630,587,4168,44,26,917
433375,749868,981392,753336,982712,1398,1525,2032,-5242,23,396,498,4335,31,24,918
434376,750060,981468,753467,982843,1322,1624,2118,-4961,-32,248,448,4052,31,24,918
435377,750204,981552,753598,982974,1617,1594,2204,-4684,-83,215,268,4010,43,19,918
436379,750376,981640,753729,983105,1424,1589,2277,-4363,-81,273,-67,4044,43,19,918
437380,750544,981700,753860,983236,1434,1796,2350,-4098,-26,357,-267,3651,41,20,917
438380,750700,981760,753991,983367,1499,1827,2427,-3941,50,383,-260,3238,41,20,917
439382,750844,981856,754122,983498,1568,1618,2515,-3888,121,343,-145,2775,39,19,917
440383,751020,981912,754253,983629,1349,1901,2592,-3889,196,417,-121,2505,39,19,917
441384,751184,981980,754384,983760,1410,1854,2632,-3915,285,435,11,2407,40,7,917
442384,751336,982048,754515,983891,1477,1882,2635,-3908,392,445,211,2451,40,7,917
443386,751476,982120,754646,984022,1549,1883,2594,-3843,493,493,346,2517,21,21,916
444387,751640,982188,754777,984153,1384,1936,2528,-3743,579,497,263,2447,21,21,916
445388,751796,982256,754908,984284,1424,1965,2437,-3659,658,546,46,2474,35,8,916
446389,751936,982332,755039,984415,1520,1939,2326,-3523,734,666,-222,2491,35,8,916
447390,752112,982432,755170,984546,1276,1803,2178,-3357,800,693,-280,2525,27,26,916
448391,752264,982512,755301,984677,1418,1951,1811,-3092,867,891,85,2296,27,26,916
449391,752412,982588,755432,984808,1436,2000,1601,-3024,883,1039,299,2163,38,13,917
450392,752552,982676,755563,984939,1483,1945,1384,-2996,883,1142,357,1867,38,13,917
451393,752712,982768,755694,985070,1345,1937,1164,-3040,864,1202,320,1630,18,26,916
452394,752844,982844,755825,985201,1521,2062,928,-3107,843,1299,124,1670,18,26,916
453396,752980,982944,755956,985332,1493,1926,659,-3171,834,1355,-208,1708,37,21,916
454396,753124,983036,756087,985463,1439,1993,375,-3215,833,1408,-597,1760,37,21,916
455398,753268,983112,756218,985594,1434,2118,74,-3273,831,1425,-785,1750,21,25,916
456399,753428,983196,756349,985725,1321,2089,-239,-3313,815,1486,-813,1762,21,25,916
457400,753552,983260,756480,985856,1550,2244,-560,-3334,786,1540,-729,1785,38,18,915
458401,753692,983352,756611,985987,1446,2086,-872,-3379,744,1544,-555,1775,38,18,915
459402,753856,983440,756742,986118,1283,2131,-1170,-3474,677,1470,-435,1683,29,23,913
460403,753976,983512,756873,986249,1563,2257,-1456,-3592,601,1318,-439,1581,29,23,913
461404,754108,983584,757004,986380,1488,2284,-1729,-3726,522,1209,-620,1727,18,12,916
462405,754264,983684,757135,986511,1327,2123,-1976,-3806,447,1096,-562,1742,18,12,916
463406,754420,983776,757266,986642,1317,2191,-2173,-3875,362,999,-234,1892,24,19,914
464407,754556,983848,757397,986773,1441,2342,-2362,-3897,270,964,-129,1945,24,19,914
465408,754680,983948,757528,986904,1519,2182,-2527,-4019,199,941,-135,1915,36,12,914
466409,754820,984028,757659,987035,1416,2330,-2666,-4062,145,942,-52,2094,36,12,914
467410,754956,984128,757790,987166,1439,2219,-2777,-4144,102,836,-42,2089,29,18,914
468411,755088,984200,757921,987297,1464,2420,-2876,-4224,76,746,-124,2206,29,18,914
469412,755248,984288,758052,987428,1277,2339,-2963,-4304,76,729,-271,2397,16,13,914
470413,755376,984392,758183,987559,1479,2252,-3036,-4307,113,684,-432,2539,16,13,914
471414,755544,984504,758314,987690,1213,2212,-3093,-4276,152,672,-534,2816,26,15,915
472415,755688,984604,758445,987821,1358,2300,-3130,-4196,185,553,-462,2979,26,15,915
473416,755828,984696,758576,987952,1379,2368,-3154,-4127,215,512,-330,3266,42,16,916
474417,755988,984792,758707,988083,1242,2359,-3177,-3989,242,522,-244,3449,42,16,916
475418,756184,984924,758838,988214,989,2134,-3188,-3854,273,512,-254,3553,25,33,913
476419,756340,985048,758969,988345,1229,2188,-3190,-3659,310,505,-323,3852,25,33,913
477420,756500,985160,759100,988476,1191,2272,-3181,-3499,343,451,-300,3862,20,33,915
478421,756676,985280,759231,988607,1072,2228,-3164,-3404,380,526,-423,3895,20,33,915
479422,756820,985384,759362,988738,1267,2340,-3143,-3312,422,599,-442,3920,42,14,915
480423,756988,985480,759493,988869,1101,2406,-3120,-3257,453,607,-456,4001,42,14,915
481424,757176,985584,759624,989000,951,2369,-3091,-3215,471,597,-504,3952,44,28,915
482425,757356,985696,759755,989131,981,2327,-3053,-3269,485,676,-504,3903,44,28,915
483425,757544,985780,759886,989262,906,2524,-3021,-3291,493,705,-383,4121,26,18,915
484427,757720,985904,760017,989393,962,2278,-2997,-3322,485,714,-148,4141,26,18,915
485428,757916,985992,760148,989524,808,2522,-2979,-3390,452,716,-148,4178,28,18,915
486429,758104,986104,760279,989655,834,2381,-2956,-3474,420,700,-113,4267,28,18,915
487430,758308,986268,760410,989786,702,2042,-2929,-3543,396,706,-150,4414,46,34,915
488431,758508,986380,760541,989917,697,2376,-2893,-3603,366,642,-192,4469,46,34,915
489432,758708,986504,760672,990048,668,2305,-2837,-3679,335,518,-298,4545,32,34,917
490433,758888,986640,760803,990179,771,2229,-2763,-3786,323,512,-451,4697,32,34,917
491434,759092,986760,760934,990310,590,2334,-2681,-3856,338,472,-568,4843,47,20,917
492435,759268,986912,761065,990441,745,2125,-2336,-3695,394,387,-798,7241,47,20,917
493436,759448,987024,761196,990572,699,2385,-759,-877,636,-143,-1791,30729,31,35,916
494437,759644,987128,761327,990703,571,2447,1020,1433,815,137,-791,15114,31,35,916
495438,759816,987260,761458,990834,703,2272,1561,1189,821,601,-15,2698,30,34,917
496439,759964,987388,761589,990965,846,2299,1433,-353,773,783,-239,1881,30,34,917
497440,760120,987540,761720,991096,786,2141,1172,-1889,790,1020,-751,1870,21,25,916
498441,760240,987708,761851,991227,1015,2025,1073,-2836,884,768,-643,2473,21,25,916
499441,760356,987848,761982,991358,1047,2197,993,-3698,927,623,-233,2246,14,29,916
500443,760500,987980,762113,991489,866,2248,862,-4352,883,539,-158,2772,14,29,916
501444,760612,988104,762244,991620,1076,2301,684,-5057,838,120,84,3041,19,27,916
502445,760728,988228,762375,991751,1057,2305,445,-5471,786,119,123,4083,19,27,916
503446,760872,988340,762506,991882,877,2389,149,-5554,766,62,78,4829,29,22,916
504447,761000,988468,762637,992013,979,2290,-143,-5487,773,-145,264,5323,29,22,916
505448,761104,988580,762768,992144,1141,2400,-415,-5266,758,-151,185,5818,29,15,915
506449,761244,988680,762899,992275,912,2489,-633,-5084,755,-263,-86,5768,29,15,915
507450,761376,988788,763030,992406,962,2449,-790,-4808,805,-154,-608,6118,21,28,915
508451,761492,988872,763161,992537,1069,2621,-881,-4574,893,-11,-870,5614,21,28,915
509452,761612,989000,763292,992668,1049,2348,-898,-4576,990,-102,-700,5087,31,18,914
510460,761732,989096,763432,992808,1059,2568,-871,-4612,1097,-41,-569,5104,31,18,914
511454,761832,989192,763563,992939,1197,2584,-804,-4764,1206,-5,-437,4651,20,9,914
512455,761940,989284,763694,993070,1157,2627,-717,-4892,1303,-3,-199,4739,20,9,914
513456,762052,989396,763825,993201,1142,2511,-604,-4980,1378,-102,-22,4798,24,27,914
514457,762168,989488,763956,993332,1123,2654,-498,-5034,1424,-173,8,4967,24,27,914
515457,762276,989596,764087,993463,1183,2565,-418,-4901,1433,-193,134,5450,13,10,914
516458,762388,989700,764218,993594,1168,2603,-344,-4705,1423,-283,211,5522,13,10,914
517460,762500,989788,764349,993725,1176,2722,-290,-4439,1397,-289,28,5821,32,13,913
518460,762588,989876,764480,993856,1345,2742,-251,-4139,1379,-392,-240,5868,32,13,913
519461,762692,989964,764611,993987,1258,2761,-207,-3860,1376,-447,-417,5801,31,27,911
520462,762796,990100,764742,994118,1270,2460,-160,-3566,1373,-488,-613,5808,31,27,911
521464,762884,990196,764873,994249,1389,2726,-98,-3329,1374,-602,-725,5510,30,15,911
522465,763016,990280,765004,994380,1114,2822,-19,-3177,1381,-485,-858,5229,30,15,911
523466,763132,990368,765135,994511,1221,2817,74,-3133,1407,-393,-981,4872,32,26,913
524467,763240,990472,765266,994642,1281,2730,178,-3164,1453,-417,-1129,4804,32,26,913
525468,763356,990576,765397,994773,1238,2743,287,-3200,1496,-360,-1172,4554,9,27,912
526469,763448,990664,765528,994904,1406,2862,407,-3354,1531,-324,-1068,4329,9,27,912
527470,763560,990764,765659,995035,1290,2801,507,-3452,1557,-293,-804,4451,31,29,912
528471,763668,990872,765790,995166,1325,2763,579,-3521,1553,-289,-260,4369,31,29,912
529472,763800,990980,765921,995297,1175,2774,604,-3566,1538,-285,-161,4521,34,17,911
530473,763924,991076,766052,995428,1229,2865,585,-3554,1547,-281,-424,4777,34,17,911
531474,764032,991200,766183,995559,1339,2693,549,-3501,1573,-248,-738,4753,33,18,911
532475,764180,991312,766314,995690,1082,2777,508,-3411,1614,-253,-840,4914,33,18,911
533476,764328,991392,766445,995821,1075,3001,474,-3328,1660,-253,-606,4850,36,22,912
534477,764444,991496,766576,995952,1281,2864,452,-3278,1682,-165,-453,4725,36,22,912
535478,764564,991612,766707,996083,1262,2796,441,-3223,1696,-81,-461,4720,24,15,911
536479,764712,991732,766838,996214,1080,2777,442,-3232,1725,-6,-255,4485,24,15,911
537480,764836,991812,766969,996345,1234,3051,457,-3314,1756,-14,-9,4396,29,12,912
538481,765000,991904,767100,996476,969,2993,471,-3343,1792,-156,-34,4455,29,12,912
539482,765132,992028,767231,996607,1170,2797,493,-3455,1849,-155,-55,4250,38,10,910
540483,765252,992128,767362,996738,1250,2961,504,-3567,1932,-143,-229,4342,38,10,910
541484,765404,992264,767493,996869,1041,2735,501,-3638,2017,-258,-335,4410,33,16,911
542485,765540,992380,767624,997000,1139,2868,493,-3681,2078,-444,-352,4315,33,16,911
543486,765680,992480,767755,997131,1110,2982,482,-3764,2098,-618,-315,4386,35,15,911
544487,765816,992600,767886,997262,1133,2863,467,-3787,2109,-863,-349,4517,35,15,911
545488,765956,992732,768017,997393,1105,2789,435,-3775,2125,-984,-387,4611,38,17,912
546489,766092,992864,768148,997524,1128,2788,397,-3759,2124,-1083,-145,4565,38,17,912
547490,766228,993004,768279,997655,1127,2735,357,-3822,2128,-1081,-103,4499,17,32,912
548491,766356,993124,768410,997786,1178,2866,346,-3920,2163,-858,-69,4264,17,32,912
549492,766488,993272,768541,997917,1153,2685,361,-4123,2219,-693,39,3935,35,31,912
550493,766616,993408,768672,998048,1180,2759,399,-4418,2301,-602,-135,3805,35,31,912
551494,766764,993552,768803,998179,1048,2704,444,-4732,2381,-504,-309,3727,18,23,912
552495,766904,993700,768934,998310,1095,2672,495,-5020,2465,-369,-469,3832,18,23,912
553496,767036,993860,769065,998441,1144,2586,546,-5161,2536,-378,-566,4244,20,32,912
554497,767172,994012,769196,998572,1117,2627,574,-5226,2596,-347,-629,4474,20,32,912
555498,767284,994144,769327,998703,1276,2752,580,-5199,2659,-229,-588,4714,23,32,913
556499,767428,994308,769458,998834,1071,2538,569,-5141,2711,-103,-498,4806,23,32,913
557500,767536,994492,769589,998965,1307,2391,554,-5123,2736,38,-426,4749,29,33,912
558501,767672,994656,769720,999096,1130,2503,555,-5101,2744,173,-468,4728,29,33,912
559502,767812,994852,769851,999227,1101,2275,584,-5088,2739,316,-371,4618,15,26,914
560503,767936,994996,769982,999358,1205,2595,630,-5049,2739,407,-462,4664,15,26,914
561503,768052,995144,770113,999489,1261,2563,696,-5053,2733,392,-395,4521,33,37,915
562505,768172,995316,770244,999620,1241,2396,776,-5076,2721,323,-341,4632,33,37,915
563505,768288,995460,770375,999751,1274,2566,863,-5044,2696,307,-220,4651,15,28,913
564507,768420,995652,770506,999882,1173,2240,954,-4981,2650,372,-103,4633,15,28,913
565508,768552,995840,770637,1000013,1174,2241,1041,-4920,2592,514,63,4606,34,31,913
566509,768676,996016,770768,1000144,1227,2298,1120,-4881,2523,639,247,4504,34,31,913
567510,768800,996204,770899,1000275,1230,2198,1196,-4784,2469,747,357,4500,36,27,915
568511,768912,996360,771030,1000406,1314,2388,1274,-4787,2414,790,423,4362,36,27,915
569511,769020,996536,771161,1000537,1349,2244,1366,-4753,2349,756,296,4277,35,28,915
570513,769136,996708,771292,1000668,1307,2252,1443,-4699,2288,654,113,4441,35,28,915
571514,769232,996892,771423,1000799,1447,2153,1498,-4547,2271,617,-149,4570,33,39,915
572515,769356,997072,771554,1000930,1276,2158,1534,-4411,2278,599,-60,4456,33,39,915
573516,769492,997236,771685,1001061,1199,2244,1590,-4313,2265,672,395,4007,21,25,915
574517,769600,997416,771816,1001192,1384,2124,1671,-4367,2227,754,535,3742,21,25,915
575518,769712,997596,771947,1001323,1369,2102,1722,-4365,2212,708,192,3894,16,40,915
576519,769836,997760,772078,1001454,1297,2189,1735,-4256,2256,635,-345,4162,16,40,915
577519,769940,997928,772209,1001585,1435,2149,1721,-4061,2337,465,-636,4182,27,25,915
578521,770044,998092,772340,1001716,1446,2159,1717,-3867,2415,299,-654,4081,27,25,915
579521,770164,998248,772471,1001847,1351,2199,1730,-3751,2479,310,-512,3776,35,30,915
580523,770284,998428,772602,1001978,1357,2029,1750,-3725,2539,351,-335,3490,35,30,915
581524,770396,998640,772733,1002109,1416,1793,1751,-3716,2586,387,-359,3524,18,34,915
582525,770516,998860,772864,1002240,1371,1705,1742,-3653,2607,366,-167,3460,18,34,915
583525,770592,999032,772995,1002371,1671,1988,1745,-3636,2634,372,-46,3295,32,43,916
584526,770692,999208,773126,1002502,1535,1943,1770,-3588,2686,381,-95,3211,32,43,916
585527,770776,999372,773257,1002633,1656,2005,1793,-3551,2750,420,-149,3179,10,40,916
586529,770856,999548,773388,1002764,1704,1911,1797,-3570,2783,452,-223,3016,10,40,916
587530,770940,999740,773519,1002895,1700,1784,1764,-3614,2803,506,-153,3027,27,37,914
588531,771036,999912,773650,1003026,1641,1892,1689,-3618,2776,677,198,3068,27,37,914
589532,771116,1000076,773781,1003157,1764,1927,1591,-3560,2771,976,284,3119,30,37,914
590533,771204,1000220,773912,1003288,1734,2048,1509,-3520,2773,1168,272,2945,30,37,914
591534,771304,1000380,774043,1003419,1672,1936,1455,-3536,2759,1365,384,2584,19,35,914
592535,771408,1000544,774174,1003550,1660,1896,1374,-3622,2734,1477,252,2511,19,35,914
593536,771484,1000676,774305,1003681,1859,2097,1266,-3737,2712,1602,225,2530,22,21,914
594537,771604,1000808,774436,1003812,1590,2097,1149,-3814,2677,1647,285,2559,22,21,914
595538,771700,1000980,774567,1003943,1755,1830,1037,-3802,2633,1552,231,2741,29,31,915
596539,771792,1001152,774698,1004074,1799,1812,917,-3675,2590,1529,59,3032,29,31,915
597540,771872,1001312,774829,1004205,1896,1875,797,-3528,2535,1584,9,2936,13,26,913
598541,771984,1001452,774960,1004336,1705,1997,709,-3510,2463,1649,73,2518,13,26,913
599542,772076,1001588,775091,1004467,1847,2020,648,-3557,2367,1609,129,2385,27,16,914
600543,772180,1001728,775222,1004598,1785,1992,589,-3592,2270,1541,-36,2504,27,16,914
601544,772260,1001884,775353,1004729,1959,1881,531,-3589,2200,1596,-96,2466,28,35,914
602545,772368,1002028,775484,1004860,1794,1951,485,-3573,2129,1613,-93,2375,28,35,914
603546,772456,1002172,775615,1004991,1939,1945,429,-3523,2061,1579,-297,2421,32,26,914
604547,772564,1002296,775746,1005122,1824,2074,357,-3510,1992,1568,-332,2416,32,26,914
605548,772684,1002476,775877,1005253,1755,1703,278,-3499,1915,1561,-215,2375,24,26,914
606549,772768,1002668,776008,1005384,2001,1602,193,-3464,1841,1568,-54,2427,24,26,914
607550,772884,1002848,776139,1005515,1808,1656,105,-3389,1761,1615,181,2475,29,28,914
608551,773004,1003028,776270,1005646,1789,1635,19,-3249,1706,1684,66,2553,29,28,914
609552,773116,1003176,776401,1005777,1847,1828,-69,-3114,1680,1635,-106,2618,32,38,913
610553,773248,1003344,776532,1005908,1723,1687,-158,-2981,1677,1491,-247,2575,32,38,913
611554,773376,1003484,776663,1006039,1750,1858,-236,-2894,1674,1348,-192,2442,16,39,916
612555,773488,1003624,776794,1006170,1858,1855,-301,-2863,1680,1382,-175,2294,16,39,916
613556,773632,1003860,776925,1006301,1654,1209,-357,-2873,1687,1441,-47,2244,21,30,916
614557,773744,1004044,777056,1006432,1863,1512,-399,-2865,1689,1418,25,2235,21,30,916
615558,773828,1004236,777187,1006563,2059,1435,-434,-2822,1685,1345,-80,2296,25,35,915
616558,773952,1004420,777318,1006694,1813,1463,-459,-2799,1697,1427,-75,2203,25,35,915
617560,774076,1004588,777449,1006825,1817,1547,-484,-2751,1695,1371,-66,2307,17,33,916
618560,774180,1004752,777580,1006956,1954,1558,-517,-2697,1671,1306,-283,2476,17,33,916
619562,774340,1004932,777711,1007087,1592,1437,-555,-2609,1639,1296,-387,2591,27,45,916
620563,774484,1005112,777842,1007218,1686,1415,-617,-2399,1611,1258,-535,2962,27,45,916
621564,774628,1005324,777973,1007349,1681,1180,-708,-2069,1563,1016,-413,3179,19,41,915
622565,774760,1005524,778104,1007480,1757,1225,-787,-1814,1490,981,-114,2948,19,41,915
623566,774908,1005736,778235,1007611,1650,1115,-840,-1651,1446,1207,-350,2745,32,42,917
624567,775044,1005916,778366,1007742,1723,1294,-895,-1575,1442,1406,-465,2618,32,42,917
625568,775176,1006100,778497,1007873,1749,1246,-967,-1615,1435,1398,-285,2416,30,29,918
626569,775324,1006240,778628,1008004,1641,1518,-1037,-1745,1418,1362,-134,2078,30,29,918
627569,775456,1006412,778759,1008135,1742,1300,-1094,-1890,1398,1432,-38,2146,34,28,917
628571,775620,1006608,778890,1008266,1529,1121,-1165,-1951,1389,1448,-94,2410,34,28,917
629572,775784,1006804,779021,1008397,1514,1094,-1238,-1976,1366,1351,7,2397,18,31,918
630573,775928,1006992,779152,1008528,1634,1119,-1296,-1968,1330,1235,-132,2646,18,31,918
631574,776068,1007144,779283,1008659,1655,1334,-1325,-1992,1305,1170,-189,2724,20,39,919
632575,776224,1007296,779414,1008790,1545,1325,-1318,-2006,1281,1205,-272,2738,20,39,919
633576,776368,1007420,779545,1008921,1616,1504,-1297,-1980,1256,1342,-318,2892,34,27,919
634576,776492,1007560,779676,1009052,1744,1400,-1251,-1971,1233,1415,74,2879,34,27,919
635585,776656,1007692,779816,1009192,1484,1454,-1201,-1952,1196,1383,465,3056,39,19,919
636579,776800,1007820,779947,1009323,1603,1481,-1175,-1806,1168,1343,434,3395,39,19,919
637580,776948,1007972,780078,1009454,1572,1322,-1191,-1604,1156,1258,202,3788,34,34,917
638581,777104,1008132,780209,1009585,1512,1259,-1230,-1318,1148,1141,87,3976,34,34,917
639582,777240,1008304,780340,1009716,1635,1166,-1265,-1071,1120,980,175,3933,18,34,917
640583,777368,1008456,780471,1009847,1687,1283,-1296,-824,1079,952,254,3851,18,34,917
641584,777512,1008624,780602,1009978,1581,1167,-1322,-690,1065,1119,189,3641,38,34,918
642585,777668,1008764,780733,1010109,1496,1338,-1335,-616,1063,1110,90,3596,38,34,918
643586,777780,1008920,780864,1010240,1781,1228,-1334,-604,1009,963,239,3327,36,38,917
644587,777912,1009056,780995,1010371,1655,1350,-1300,-719,947,1049,119,3132,36,38,917
645588,778036,1009204,781126,1010502,1709,1268,-1252,-817,929,1075,128,3440,34,36,919
646589,778156,1009360,781257,1010633,1739,1207,-1242,-850,929,1034,270,3662,34,36,919
647590,778292,1009524,781388,1010764,1638,1142,-1259,-781,908,1052,445,3773,29,25,918
648591,778436,1009728,781519,1010895,1582,861,-1285,-719,857,1031,634,3864,29,25,918
649592,778556,1009888,781650,1011026,1738,1124,-1323,-616,805,1038,586,4122,35,32,918
650592,778680,1010068,781781,1011157,1717,977,-1370,-512,770,1074,679,4247,35,32,918
651593,778812,1010216,781912,1011288,1667,1170,-1414,-459,737,1185,787,4241,20,24,920
652595,778908,1010384,782043,1011419,1908,1029,-1462,-366,702,1225,645,4384,20,24,920
653596,779012,1010528,782174,1011550,1870,1174,-1514,-284,674,1153,460,4276,16,35,918
654597,779124,1010660,782305,1011681,1829,1248,-1556,-291,653,1079,237,4076,16,35,918
655597,779212,1010800,782436,1011812,1999,1194,-1606,-317,649,979,-185,4143,29,37,918
656599,779304,1010972,782567,1011943,1991,976,-1682,-383,663,909,-432,4161,29,37,918
657600,779408,1011172,782698,1012074,1929,772,-1777,-431,684,961,-451,4236,11,37,917
658601,779508,1011316,782829,1012205,1969,1116,-1872,-518,698,821,-410,4162,11,37,917
659601,779600,1011480,782960,1012336,2036,977,-1968,-624,690,706,-229,4299,13,24,918
660603,779704,1011632,783091,1012467,1974,1042,-2087,-627,671,601,-91,4492,13,24,918
661604,779848,1011772,783222,1012598,1718,1113,-2215,-667,662,516,-99,4490,25,34,917
662605,779980,1011908,783353,1012729,1794,1136,-2326,-750,676,458,-357,4487,25,34,917
663606,780076,1012048,783484,1012860,2035,1108,-2433,-973,701,365,-553,4256,28,21,917
664607,780152,1012196,783615,1012991,2184,1051,-2531,-1235,715,258,-576,4132,28,21,917
665608,780232,1012384,783746,1013122,2183,776,-2627,-1503,713,98,-612,4202,28,23,916
666608,780324,1012552,783877,1013253,2126,885,-2744,-1747,713,143,-488,4457,28,23,916
667609,780412,1012692,784008,1013384,2170,1056,-2889,-1949,718,436,-195,4626,19,18,916
668611,780516,1012840,784139,1013515,2083,998,-3024,-2201,716,703,179,4374,19,18,916
669612,780596,1012972,784270,1013646,2256,1098,-3134,-2532,693,865,216,4317,23,29,917
670613,780704,1013092,784401,1013777,2091,1178,-3216,-2876,654,873,-14,4302,23,29,917
671614,780812,1013208,784532,1013908,2102,1210,-3285,-3233,626,939,-237,4516,25,17,917
672615,780908,1013340,784663,1014039,2194,1110,-3353,-3455,623,909,-543,4903,25,17,917
673615,781028,1013456,784794,1014170,2049,1216,-3400,-3633,621,715,-711,5154,16,35,916
674617,781132,1013612,784925,1014301,2161,955,-3427,-3743,607,624,-798,5351,16,35,916
675617,781252,1013776,785056,1014432,2067,891,-3442,-3901,582,764,-756,5420,31,20,915
676619,781396,1013940,785187,1014563,1912,876,-3457,-4024,545,899,-776,5610,31,20,915
677620,781492,1014080,785318,1014694,2228,1022,-3464,-4097,493,897,-814,5745,21,20,916
678621,781588,1014232,785449,1014825,2244,938,-3461,-4231,428,925,-868,5695,21,20,916
679622,781696,1014380,785580,1014956,2180,957,-3446,-4320,369,1093,-900,5875,8,20,918
680623,781788,1014500,785711,1015087,2298,1136,-3426,-4388,306,1362,-697,5868,8,20,918
681624,781900,1014636,785842,1015218,2182,1034,-3394,-4580,235,1766,-435,5557,17,31,916
682624,782020,1014744,785973,1015349,2138,1219,-3336,-4879,153,2133,-239,5261,17,31,916
683625,782164,1014896,786104,1015480,1983,935,-3253,-5207,70,2275,-314,5193,15,26,915
684627,782300,1015036,786235,1015611,2032,1006,-3157,-5507,-5,2278,-462,5322,15,26,915
685628,782452,1015164,786366,1015742,1923,1083,-3048,-5708,-61,2257,-735,5487,43,24,915
686629,782608,1015292,786497,1015873,1888,1084,-2915,-5910,-120,2283,-839,5707,43,24,915
687630,782788,1015408,786628,1016004,1717,1165,-2691,-5925,-176,2378,-1210,6748,23,27,916
688631,782960,1015488,786759,1016135,1750,1414,-1746,-4362,-215,3607,-2758,20312,23,27,916
689632,783116,1015600,786890,1016266,1839,1222,-636,-2842,-314,3234,-1726,13535,20,14,918
690633,783244,1015696,787021,1016397,2016,1338,-123,-2704,-431,2633,-513,5143,20,14,918
691633,783392,1015788,787152,1016528,1885,1380,-50,-3366,-506,2772,-811,4935,16,10,917
692635,783532,1015860,787283,1016659,1931,1531,-50,-3950,-531,2845,-1305,5046,16,10,917
693636,783684,1015948,787414,1016790,1848,1450,48,-4146,-523,2526,-1629,5296,32,12,916
694636,783864,1016024,787545,1016921,1652,1549,214,-4345,-542,2026,-1809,4958,32,12,916
695637,784060,1016124,787676,1017052,1525,1413,394,-4470,-581,1765,-2126,5315,31,21,916
696638,784228,1016224,787807,1017183,1683,1427,560,-4503,-578,1594,-2303,5513,31,21,916
697639,784400,1016296,787938,1017314,1641,1628,697,-4423,-535,1637,-2446,5724,38,27,916
698640,784580,1016384,788069,1017445,1571,1547,855,-4293,-501,1456,-2475,5762,38,27,916
699641,784752,1016480,788200,1017576,1603,1512,1007,-4049,-490,1039,-2508,6000,42,13,917
700642,784912,1016584,788331,1017707,1666,1475,1143,-3659,-485,862,-2771,6414,42,13,917
701644,785092,1016704,788462,1017838,1520,1380,1269,-3288,-446,857,-2702,6228,43,21,917
702645,785268,1016780,788593,1017969,1526,1679,1424,-2942,-372,814,-2465,6060,43,21,917
703646,785440,1016868,788724,1018100,1534,1623,1641,-2679,-317,730,-2012,5199,44,7,917
704647,785600,1016948,788855,1018231,1597,1695,1915,-2670,-263,628,-1946,4600,44,7,917
705647,785772,1017020,788986,1018362,1504,1772,2189,-2637,-172,578,-2093,4763,29,9,917
706648,785900,1017100,789117,1018493,1781,1745,2434,-2564,-41,563,-2140,4676,29,9,917
707649,786056,1017184,789248,1018624,1595,1740,2668,-2432,103,418,-2013,4550,39,21,916
708650,786212,1017276,789379,1018755,1585,1707,2916,-2389,231,308,-1616,4150,39,21,916
709652,786352,1017364,789510,1018886,1682,1752,3169,-2364,346,362,-1350,4093,36,13,914
710653,786552,1017452,789641,1019017,1277,1771,3384,-2192,474,340,-1248,4440,36,13,914
711653,786700,1017540,789772,1019148,1596,1790,3561,-1945,593,205,-1107,4236,38,27,917
712654,786856,1017644,789903,1019279,1535,1703,3704,-1756,662,171,-873,4042,38,27,917
713656,787000,1017732,790034,1019410,1605,1822,3824,-1621,715,140,-845,3907,19,16,917
714656,787144,1017844,790165,1019541,1600,1680,3896,-1440,766,179,-870,3966,19,16,917
715657,787280,1017948,790296,1019672,1648,1743,3886,-1139,816,92,-1063,4056,37,14,917
716659,787392,1018060,790427,1019803,1807,1701,3813,-847,870,91,-1195,3850,37,14,917
717660,787544,1018152,790558,1019934,1548,1844,3703,-606,914,418,-1225,3516,18,9,917
718661,787656,1018252,790689,1020065,1807,1808,3581,-534,951,668,-1151,2820,18,9,917
719662,787780,1018328,790820,1020196,1735,1982,3450,-624,958,818,-1003,2407,22,9,915
720663,787944,1018420,790951,1020327,1472,1900,3322,-810,929,801,-893,2012,22,9,915
721664,788092,1018496,791082,1020458,1565,2025,3206,-1074,911,797,-812,1671,25,11,914
722665,788236,1018556,791213,1020589,1585,2156,3097,-1345,901,802,-736,1522,25,11,914
723666,788380,1018652,791344,1020720,1580,1946,2971,-1638,897,861,-667,1326,37,11,916
724667,788496,1018740,791475,1020851,1762,2016,2810,-1855,918,1102,-502,1551,37,11,916
725668,788656,1018840,791606,1020982,1475,1955,2608,-2025,952,1312,-244,1725,21,16,914
726669,788804,1018916,791737,1021113,1542,2130,2391,-2173,966,1372,65,1712,21,16,914
727670,788936,1018996,791868,1021244,1643,2127,2187,-2316,945,1308,345,1511,21,12,914
728671,789064,1019088,791999,1021375,1669,2070,1999,-2540,886,1253,584,1282,21,12,914
729672,789192,1019220,792130,1021506,1672,1820,1801,-2751,798,1227,819,1335,28,32,914
730673,789316,1019336,792261,1021637,1701,1927,1579,-2930,704,1270,880,1364,28,32,914
731674,789440,1019472,792392,1021768,1704,1800,1339,-2997,610,1340,978,1571,23,17,913
732675,789612,1019580,792523,1021899,1387,1986,1089,-3045,522,1311,1124,1691,23,17,913
733676,789744,1019700,792654,1022030,1636,1916,831,-3090,438,1314,1188,1712,17,28,915
734677,789864,1019832,792785,1022161,1717,1841,559,-3049,354,1345,1346,1708,17,28,915
735678,790044,1019940,792916,1022292,1321,2002,295,-3023,271,1308,1651,1596,29,29,916
736679,790188,1020048,793047,1022423,1541,2012,35,-3032,180,1347,1839,1688,29,29,916
737680,790360,1020136,793178,1022554,1348,2156,-228,-2988,93,1243,1867,1852,39,29,915
738681,790516,1020236,793309,1022685,1438,2096,-491,-2894,28,1122,1849,1915,39,29,915
739681,790648,1020336,793440,1022816,1588,2109,-745,-2732,-38,996,1947,1973,21,13,915
740683,790788,1020444,793571,1022947,1534,2070,-986,-2608,-117,815,2036,1918,21,13,915
741684,790952,1020568,793702,1023078,1371,1974,-1212,-2453,-193,829,1884,1840,25,14,914
742685,791124,1020684,793833,1023209,1303,2031,-1411,-2371,-234,974,1149,1608,25,14,914
743686,791256,1020780,793964,1023340,1554,2172,-1578,-2383,-220,1205,268,1455,25,12,915
744687,791404,1020884,794095,1023471,1446,2134,-1719,-2442,-198,1289,72,1314,25,12,915
745688,791568,1020992,794226,1023602,1333,2119,-1838,-2572,-202,1242,115,1170,32,20,916
746689,791720,1021084,794357,1023733,1398,2238,-1944,-2607,-213,1203,35,1455,32,20,916
747689,791856,1021196,794488,1023864,1497,2121,-2051,-2546,-197,1069,-177,1661,20,28,915
748691,792020,1021308,794619,1023995,1308,2130,-2150,-2392,-159,846,-360,1986,20,28,915
749691,792156,1021420,794750,1024126,1481,2139,-2251,-2172,-118,588,-469,2336,16,16,914
750693,792292,1021536,794881,1024257,1479,2121,-2339,-1923,-79,424,-470,2417,16,16,914
751694,792444,1021660,795012,1024388,1371,2074,-2436,-1704,-48,382,-49,2512,36,16,914
752695,792580,1021780,795143,1024519,1469,2105,-2537,-1527,-13,404,344,2241,36,16,914
753696,792720,1021904,795274,1024650,1441,2083,-2635,-1489,15,548,493,2033,20,25,914
754697,792868,1022016,795405,1024781,1383,2168,-2734,-1499,35,694,502,1851,20,25,914
755697,793004,1022144,795536,1024912,1457,2069,-2843,-1642,56,888,299,1722,20,28,915
756699,793136,1022268,795667,1025043,1482,2098,-2972,-1759,70,1091,-75,1845,20,28,915
757700,793300,1022376,795798,1025174,1268,2208,-3096,-1882,93,1132,-284,2031,20,14,915
758701,793424,1022496,795929,1025305,1521,2139,-3204,-1914,115,1209,-522,2282,20,14,915
759702,793556,1022612,796060,1025436,1472,2171,-3314,-1908,130,1278,-624,2489,24,28,915
760710,793708,1022736,796200,1025576,1342,2129,-3434,-1810,149,1284,-682,2865,24,28,915
761703,793820,1022844,796331,1025707,1600,2240,-3563,-1626,172,1316,-761,3225,32,31,914
762705,793936,1022972,796462,1025838,1583,2116,-3696,-1384,196,1264,-661,3397,32,31,914
763705,794084,1023100,796593,1025969,1375,2118,-3814,-1203,203,1258,-219,3450,25,21,914
764707,794220,1023224,796724,1026100,1449,2146,-3926,-1061,197,1215,-111,3489,25,21,914
765708,794388,1023336,796855,1026231,1233,2231,-4020,-923,202,1113,-457,3536,20,26,914
766709,794516,1023464,796986,1026362,1485,2132,-4120,-744,216,936,-513,3707,20,26,914
767710,794660,1023612,797117,1026493,1379,2001,-4202,-563,229,615,-437,3728,19,20,914
768711,794824,1023732,797248,1026624,1241,2180,-4268,-431,245,328,-419,3779,19,20,914
769712,794968,1023844,797379,1026755,1360,2240,-4302,-319,264,91,-383,3733,39,28,915
770713,795112,1023980,797510,1026886,1355,2088,-4301,-328,289,-142,-421,3693,39,28,915
771713,795264,1024084,797641,1027017,1296,2300,-4276,-329,327,-277,-483,3683,27,32,915
772715,795392,1024220,797772,1027148,1448,2099,-4237,-438,381,-438,-601,3522,27,32,915
773716,795516,1024360,797903,1027279,1476,2070,-4186,-563,467,-595,-915,3534,23,18,914
774717,795636,1024508,798034,1027410,1507,2014,-4122,-751,577,-758,-1080,3592,23,18,914
775718,795740,1024628,798165,1027541,1619,2194,-4032,-877,703,-907,-1330,3883,30,23,914
776719,795868,1024784,798296,1027672,1470,1959,-3926,-1006,839,-1072,-1643,4083,30,23,914
777720,795980,1024932,798427,1027803,1580,2001,-3804,-1122,965,-1209,-1742,4189,10,27,915
778721,796052,1025112,798558,1027934,1856,1781,-3672,-1199,1079,-1308,-1805,4486,10,27,915
779722,796168,1025256,798689,1028065,1588,2000,-3545,-1186,1182,-1425,-1864,4833,9,22,915
780723,796252,1025396,798820,1028196,1809,2022,-3438,-1155,1283,-1538,-1887,5103,9,22,915
781724,796368,1025524,798951,1028327,1617,2099,-3343,-1176,1388,-1598,-1747,5182,24,21,914
782725,796472,1025700,799082,1028458,1703,1780,-2579,-318,1556,-1327,-2130,13402,24,21,914
783726,796580,1025848,799213,1028589,1690,1948,88,4766,1960,-1092,-3812,32767,27,23,914
784727,796700,1025996,799344,1028720,1619,1941,2350,7979,2286,-856,-1536,15016,27,23,914
785728,796800,1026144,799475,1028851,1759,1934,2803,7332,2344,-249,332,1772,10,28,914
786729,796920,1026280,799606,1028982,1639,2007,2421,4711,2280,197,425,-177,10,28,914
787730,797020,1026444,799737,1029113,1778,1818,2125,2299,2262,585,-372,126,17,33,915
788731,797120,1026580,799868,1029244,1792,1991,2044,659,2400,404,-584,678,17,33,915
789732,797240,1026744,799999,1029375,1673,1803,1964,-750,2574,624,-729,991,15,23,915
790733,797364,1026884,800130,1029506,1651,1949,1796,-1822,2690,721,-476,1911,15,23,915
791734,797468,1027036,800261,1029637,1789,1866,1585,-2940,2776,264,-278,2021,15,31,914
792735,797580,1027172,800392,1029768,1747,1963,1376,-3948,2758,191,-386,2537,15,31,914
793736,797704,1027316,800523,1029899,1676,1909,1124,-4808,2645,-146,-292,2973,13,37,915
794736,797804,1027460,800654,1030030,1840,1903,891,-5463,2495,-498,-202,3715,13,37,915
795738,797912,1027576,800785,1030161,1801,2085,615,-5853,2272,-588,-301,4373,11,29,914
796739,798020,1027724,800916,1030292,1812,1878,347,-6125,2031,-1149,-172,4889,11,29,914
797740,798144,1027868,801047,1030423,1715,1898,38,-5941,1825,-1357,-734,6453,14,26,913
798741,798252,1028008,801178,1030554,1826,1919,-241,-5577,1641,-1391,-1266,6478,14,26,913
799742,798360,1028148,801309,1030685,1836,1916,-415,-5169,1484,-1747,-885,6811,16,20,914
800743,798456,1028320,801440,1030816,1928,1698,-497,-4710,1344,-1964,-938,6960,16,20,914
801744,798556,1028460,801571,1030947,1916,1895,-521,-4445,1267,-1813,-1883,6399,28,25,914
802745,798672,1028604,801702,1031078,1824,1865,-504,-4184,1277,-1636,-2292,6575,28,25,914
803746,798796,1028768,801833,1031209,1778,1725,-415,-4061,1325,-1553,-1975,5810,28,31,915
804747,798916,1028912,801964,1031340,1808,1845,-293,-4145,1352,-1262,-1165,5409,28,31,915
805748,799008,1029084,802095,1031471,2001,1652,-136,-4276,1402,-949,-640,5153,15,35,914
806748,799148,1029240,802226,1031602,1697,1742,39,-4601,1513,-546,-762,4638,15,35,914
807750,799268,1029424,802357,1031733,1828,1544,233,-5002,1663,-247,-846,4337,15,27,913
808751,799384,1029596,802488,1031864,1860,1602,466,-5512,1842,-352,-595,4135,15,27,913
809752,799496,1029756,802619,1031995,1894,1664,726,-6019,2008,-327,-564,4538,19,27,916
810752,799616,1029924,802750,1032126,1850,1599,967,-6536,2135,-423,-471,3892,19,27,916
811753,799776,1030104,802881,1032257,1587,1503,1159,-7062,2258,-588,-49,3904,27,28,916
812755,799896,1030272,803012,1032388,1843,1561,1253,-7305,2396,-489,265,4864,27,28,916
813756,799988,1030424,803143,1032519,2035,1653,1274,-7329,2549,-503,352,5392,19,21,916
814757,800120,1030584,803274,1032650,1786,1590,1257,-7113,2675,-600,265,5799,19,21,916
815758,800224,1030736,803405,1032781,1973,1632,1255,-6858,2748,-696,-269,5714,30,20,915
816759,800328,1030900,803536,1032912,1985,1543,1253,-6555,2797,-841,-445,6241,30,20,915
817760,800460,1031044,803667,1033043,1811,1662,1217,-6016,2874,-818,-426,6727,25,23,915
818761,800564,1031168,803798,1033174,1998,1791,1168,-5505,2961,-689,-426,6294,25,23,915
819762,800676,1031304,803929,1033305,1957,1714,1133,-5070,3064,-493,-378,6153,32,37,914
820763,800788,1031448,804060,1033436,1966,1659,1141,-4785,3154,-301,-241,5732,32,37,914
821764,800904,1031596,804191,1033567,1948,1627,1182,-4639,3211,-28,-114,5297,21,25,914
822765,801004,1031760,804322,1033698,2063,1512,1273,-4553,3258,249,-14,4945,21,25,914
823766,801128,1031928,804453,1033829,1917,1472,1407,-4608,3306,475,8,4451,20,24,915
824767,801232,1032112,804584,1033960,2054,1349,1549,-4676,3356,737,12,4313,20,24,915
825768,801332,1032284,804715,1034091,2093,1406,1714,-4754,3406,878,98,4082,11,26,915
826769,801428,1032452,804846,1034222,2134,1415,1888,-4858,3438,1057,-15,4195,11,26,915
827769,801520,1032604,804977,1034353,2177,1506,2059,-4847,3450,1148,-251,4396,25,31,915
828771,801612,1032760,805108,1034484,2195,1470,2221,-4717,3447,1165,-320,4616,25,31,915
829771,801704,1032948,805239,1034615,2212,1246,2366,-4459,3411,1246,-282,4893,17,42,913
830772,801816,1033128,805370,1034746,2096,1275,2485,-4103,3343,1268,-157,5094,17,42,913
831773,801908,1033308,805501,1034877,2239,1253,2572,-3650,3247,1275,188,5378,18,25,914
832775,802020,1033472,805632,1035008,2123,1340,2621,-3151,3114,1337,788,5333,18,25,914
833775,802140,1033620,805763,1035139,2079,1432,2639,-2757,2970,1331,876,5188,22,22,916
834777,802236,1033808,805894,1035270,2245,1157,2613,-2312,2817,1324,983,5055,22,22,916
835777,802356,1033960,806025,1035401,2101,1373,2541,-2014,2654,1358,1229,4537,17,25,915
836779,802444,1034072,806156,1035532,2320,1632,2438,-1812,2495,1426,788,4097,17,25,915
837780,802548,1034160,806287,1035663,2233,1801,2319,-1723,2345,1351,752,3813,15,19,915
838780,802700,1034212,806418,1035794,1924,2061,2183,-1705,2174,1239,1169,3423,15,19,915
839781,802836,1034260,806549,1035925,2022,2123,2010,-1726,1987,1201,1128,3359,19,19,912
840783,802976,1034300,806680,1036056,1994,2213,1817,-1744,1821,1125,922,3215,19,19,912
841783,803104,1034344,806811,1036187,2072,2226,1638,-1834,1664,1078,1091,2916,27,5,912
842784,803220,1034416,806942,1036318,2153,2078,1476,-1917,1522,973,1187,2726,27,5,912
843785,803340,1034472,807073,1036449,2134,2211,1338,-2064,1405,878,1023,2382,21,14,911
844787,803452,1034528,807204,1036580,2193,2244,1220,-2279,1314,737,784,2167,21,14,911
845787,803560,1034596,807335,1036711,2229,2198,1125,-2535,1256,492,427,2091,26,16,911
846789,803656,1034672,807466,1036842,2320,2172,1043,-2785,1250,442,-168,1969,26,16,911
847789,803736,1034740,807597,1036973,2443,2251,976,-3025,1318,559,-685,1865,32,15,910
848791,803840,1034856,807728,1037104,2306,1957,912,-3218,1404,351,-703,2024,32,15,910
849792,803944,1034956,807859,1037235,2319,2071,835,-3343,1431,78,-320,2214,12,26,910
850793,804032,1035104,807990,1037366,2438,1765,734,-3395,1363,-122,178,2477,12,26,910
851793,804136,1035268,808121,1037497,2351,1650,616,-3324,1234,-327,604,2796,14,32,910
852795,804232,1035440,808252,1037628,2417,1583,493,-3170,1108,-393,754,3075,14,32,910
853796,804316,1035612,808383,1037759,2514,1565,369,-2893,1027,-370,734,3317,24,43,911
854797,804404,1035752,808514,1037890,2508,1762,248,-2516,1005,-316,711,3450,24,43,911
855798,804484,1035976,808645,1038021,2581,1196,142,-2215,1027,-165,675,3249,29,44,912
856799,804556,1036244,808776,1038152,2658,861,40,-1948,1078,-4,502,3219,29,44,912
857800,804648,1036476,808907,1038283,2551,1043,-74,-1694,1135,140,278,3113,11,58,911
858801,804764,1036684,809038,1038414,2409,1159,-188,-1556,1169,274,135,2928,11,58,911
859802,804864,1036912,809169,1038545,2522,991,-291,-1420,1186,403,5,2979,28,53,914
860803,804964,1037180,809300,1038676,2537,682,-399,-1245,1190,504,74,2941,28,53,914
861804,805092,1037452,809431,1038807,2364,595,-528,-1088,1179,690,237,2817,36,52,913
862805,805204,1037668,809562,1038938,2474,908,-677,-972,1139,826,444,2795,36,52,913
863805,805324,1037892,809693,1039069,2429,817,-842,-828,1027,1043,828,2938,27,47,914
864807,805464,1038112,809824,1039200,2301,804,-1025,-725,912,1281,705,2804,27,47,914
865808,805604,1038344,809955,1039331,2298,684,-1210,-617,794,1377,713,2727,40,45,915
866809,805732,1038620,810086,1039462,2375,346,-1390,-580,642,1460,378,2689,40,45,915
867810,805884,1038896,810217,1039593,2217,282,-1575,-522,483,1517,148,2830,26,42,916
868811,806028,1039104,810348,1039724,2262,673,-1766,-498,305,1495,257,2820,26,42,916
869812,806168,1039332,810479,1039855,2284,505,-1939,-481,109,1506,386,2668,38,44,917
870813,806320,1039528,810610,1039986,2200,678,-2079,-508,-101,1610,592,2613,38,44,917
871814,806464,1039760,810741,1040117,2245,408,-2188,-555,-304,1632,431,2694,31,41,917
872814,806612,1039976,810872,1040248,2214,471,-2278,-600,-506,1596,326,2698,31,41,917
873816,806748,1040176,811003,1040379,2287,541,-2349,-540,-718,1517,565,3076,42,37,916
874816,806908,1040360,811134,1040510,2126,617,-2459,-306,-924,1416,661,3680,42,37,916
875817,807056,1040524,811265,1040641,2194,728,-2584,41,-1134,1359,826,4096,42,43,918
876819,807220,1040672,811396,1040772,2080,820,-2686,455,-1356,1255,1105,4093,42,43,918
877820,807384,1040812,811527,1040903,2066,866,-2779,806,-1574,1235,1170,4206,23,29,918
878820,807548,1040936,811658,1041034,2053,970,-2861,1177,-1776,1229,1202,4169,23,29,918
879821,807676,1041084,811789,1041165,2280,812,-2920,1423,-1961,1030,1127,3921,22,20,917
880822,807840,1041208,811920,1041296,2040,965,-2940,1637,-2134,796,877,3777,22,20,917
881824,807972,1041360,812051,1041427,2241,781,-2951,1718,-2286,582,331,3465,26,31,916
882825,808124,1041484,812182,1041558,2108,959,-2944,1712,-2373,414,-799,3354,26,31,916
883825,808284,1041604,812313,1041689,2046,989,-2892,1642,-2400,140,-1787,3181,23,18,916
884827,808412,1041728,812444,1041820,2248,967,-2805,1528,-2427,-274,-2200,3123,23,18,916
885837,808560,1041824,812584,1041960,2120,1161,-2760,1484,-2463,-721,-2030,3616,29,17,915
886829,808708,1041956,812715,1042091,2113,936,-2802,1602,-2476,-1094,-1773,4123,29,17,915
887830,808860,1042072,812846,1042222,2080,1042,-2899,1805,-2490,-1380,-1604,4318,43,25,916
888831,809016,1042180,812977,1042353,2045,1103,-2998,1958,-2506,-1646,-1758,4200,43,25,916
889832,809172,1042292,813108,1042484,2034,1086,-3083,1985,-2515,-2048,-2079,4012,28,32,917
890833,809320,1042400,813239,1042615,2078,1121,-3159,1923,-2480,-2271,-2696,4089,28,32,917
891834,809460,1042528,813370,1042746,2125,997,-3222,1852,-2416,-2530,-3143,4050,40,33,916
892835,809608,1042660,813501,1042877,2068,972,-3254,1698,-2350,-2672,-3533,3950,40,33,916
893836,809744,1042800,813632,1043008,2141,918,-3222,1451,-2282,-2762,-3599,3525,30,18,916
894837,809864,1042944,813763,1043139,2247,887,-3137,990,-2205,-2825,-3218,3236,30,18,916
895837,810000,1043088,813894,1043270,2146,881,-3045,477,-2124,-2837,-2468,3247,25,19,916
896838,810136,1043208,814025,1043401,2145,1036,-2982,-75,-2015,-2880,-1954,3288,25,19,916
897840,810248,1043348,814156,1043532,2303,907,-2938,-618,-1841,-2764,-1925,3486,19,28,916
898841,810384,1043480,814287,1043663,2152,957,-2576,-801,-1584,-2657,-2280,6890,19,28,916
899841,810528,1043596,814418,1043794,2097,1064,-701,2182,-1109,-2444,-3706,32767,21,19,916
900843,810676,1043744,814549,1043925,2066,857,1444,4912,-709,-1913,-2594,19091,21,19,916
901844,810828,1043876,814680,1044056,2031,957,2129,4484,-545,-1824,-893,1555,40,31,917
902845,810996,1044000,814811,1044187,1916,1010,1898,2258,-474,-1409,-823,469,40,31,917
903846,811140,1044136,814942,1044318,2061,932,1570,11,-335,-702,-1294,446,42,27,917
904847,811292,1044280,815073,1044449,2002,877,1425,-1445,-46,-377,-1484,1419,42,27,917
905848,811464,1044408,815204,1044580,1860,978,1321,-2644,299,-140,-1451,1548,21,30,917
906848,811628,1044540,815335,1044711,1897,953,1173,-3687,541,144,-1215,1873,21,30,917
907849,811772,1044660,815466,1044842,2017,1032,1034,-4865,670,-129,-571,1680,28,31,916
908851,811928,1044776,815597,1044973,1931,1064,892,-6043,674,3,-57,2023,28,31,916
909852,812084,1044872,815728,1045104,1921,1204,716,-7013,605,205,-8,2761,29,16,918
910853,812252,1044960,815859,1045235,1831,1273,530,-7758,574,201,-505,3434,29,16,918
911853,812432,1045036,815990,1045366,1734,1373,324,-8012,578,408,-1256,4846,43,15,917
912855,812584,1045144,816121,1045497,1901,1183,147,-7924,572,300,-1326,5684,43,15,917
913856,812732,1045228,816252,1045628,1919,1353,4,-7533,500,309,-999,6697,20,12,917
914857,812900,1045328,816383,1045759,1778,1267,-129,-7022,364,433,-764,6767,20,12,917
915858,813048,1045432,816514,1045890,1897,1254,-245,-6598,178,440,-60,6799,18,14,917
916859,813212,1045520,816645,1046021,1783,1373,-355,-6064,47,745,-177,7146,18,14,917
917859,813356,1045596,816776,1046152,1902,1472,-404,-5672,25,1118,-345,6392,42,11,916
918861,813532,1045672,816907,1046283,1684,1496,-398,-5435,7,1261,145,5893,42,11,916
919861,813676,1045768,817038,1046414,1879,1387,-306,-5366,-81,1371,737,5170,25,8,917
920863,813832,1045848,817169,1046545,1793,1510,-143,-5567,-186,1506,900,4389,25,8,917
921863,814028,1045924,817300,1046676,1515,1559,14,-5779,-270,1644,921,4348,19,20,916
922864,814192,1045980,817431,1046807,1702,1717,179,-6029,-293,1619,612,3877,19,20,916
923865,814344,1046056,817562,1046938,1768,1616,350,-6312,-291,1627,586,3888,21,22,916
924867,814520,1046136,817693,1047069,1599,1614,533,-6510,-277,1448,544,3934,21,22,916
925867,814680,1046196,817824,1047200,1686,1770,706,-6673,-243,1256,314,3999,21,8,916
926869,814844,1046276,817955,1047331,1648,1668,863,-6684,-239,1088,169,4365,21,8,916
927869,815048,1046344,818086,1047462,1367,1771,1012,-6640,-249,834,12,4471,44,11,915
928870,815216,1046424,818217,1047593,1575,1718,1171,-6475,-245,726,-137,4668,44,11,915
929871,815372,1046504,818348,1047724,1640,1741,1339,-6277,-232,552,-205,4574,24,10,915
930873,815564,1046564,818479,1047855,1389,1898,1522,-6023,-227,302,-119,4588,24,10,915
931873,815716,1046664,818610,1047986,1630,1661,1708,-5702,-205,201,-191,4661,40,11,916
932875,815872,1046736,818741,1048117,1594,1862,1881,-5402,-152,94,-90,4474,40,11,916
933876,816044,1046808,818872,1048248,1477,1888,2044,-5085,-75,-34,65,4526,31,22,916
934877,816204,1046888,819003,1048379,1540,1862,2201,-4819,-1,-114,59,4130,31,22,916
935878,816344,1046964,819134,1048510,1662,1911,2362,-4581,63,-132,-186,3950,34,19,915
936879,816516,1047056,819265,1048641,1445,1828,2526,-4305,153,-134,-502,3877,34,19,915
937880,816660,1047140,819396,1048772,1614,1899,2688,-4084,260,-24,-587,3506,38,18,916
938881,816796,1047208,819527,1048903,1663,2027,2808,-3910,380,148,-560,3394,38,18,916
939881,816936,1047276,819658,1049034,1634,2055,2898,-3802,495,256,-266,3109,23,22,915
940883,817076,1047356,819789,1049165,1631,2002,2954,-3765,599,481,31,2855,23,22,915
941883,817200,1047416,819920,1049296,1734,2160,2981,-3711,706,672,130,2891,26,20,913
942885,817340,1047500,820051,1049427,1631,2030,2966,-3618,810,812,118,2913,26,20,913
943885,817500,1047572,820182,1049558,1493,2131,2918,-3479,887,975,130,2808,40,21,914
944887,817664,1047644,820313,1049689,1455,2158,2838,-3364,928,1132,198,2741,40,21,914
945887,817796,1047708,820444,1049820,1654,2238,2711,-3229,948,1325,212,2798,35,16,914
946889,817940,1047788,820575,1049951,1574,2161,2548,-3146,951,1588,276,2666,35,16,914
947889,818060,1047876,820706,1050082,1729,2130,2357,-3052,935,1781,225,2579,30,13,913
948891,818196,1047980,820837,1050213,1628,2042,2138,-3010,906,1902,70,2519,30,13,913
949892,818336,1048076,820968,1050344,1599,2108,1881,-2929,865,2072,-181,2555,16,20,912
950893,818452,1048160,821099,1050475,1757,2204,1592,-2820,816,2122,-326,2559,16,20,912
951894,818580,1048248,821230,1050606,1683,2199,1279,-2762,758,2143,-429,2453,33,29,914
952895,818740,1048356,821361,1050737,1471,2084,951,-2719,699,2205,-686,2425,33,29,914
953895,818880,1048460,821492,1050868,1592,2122,621,-2707,639,2229,-717,2308,36,13,913
954897,819040,1048568,821623,1050999,1456,2107,290,-2693,579,2266,-868,2318,36,13,913
955898,819188,1048660,821754,1051130,1523,2225,-48,-2706,522,2174,-863,2129,21,27,915
956899,819336,1048724,821885,1051261,1517,2429,-385,-2776,439,2089,-558,1867,21,27,915
957900,819476,1048824,822016,1051392,1563,2219,-709,-2917,336,2016,-321,1733,36,28,914
958901,819640,1048920,822147,1051523,1399,2259,-1013,-3107,224,1842,-92,1585,36,28,914
959902,819784,1049012,822278,1051654,1518,2303,-1287,-3298,128,1708,-43,1653,32,11,912
960903,819936,1049100,822409,1051785,1460,2346,-1509,-3491,45,1496,-59,1583,32,11,912
961903,820088,1049192,822540,1051916,1451,2340,-1683,-3695,-24,1257,-166,1612,36,15,914
962904,820252,1049272,822671,1052047,1363,2437,-1822,-3788,-73,1031,-290,1686,36,15,914
963905,820396,1049364,822802,1052178,1482,2380,-1943,-3947,-109,799,-312,1710,32,12,912
964906,820544,1049456,822933,1052309,1449,2397,-2047,-4029,-131,584,-355,1910,32,12,912
965908,820700,1049536,823064,1052440,1389,2496,-2128,-4160,-129,314,-373,1894,38,17,913
966908,820852,1049628,823195,1052571,1405,2438,-2178,-4200,-113,94,-431,2165,38,17,913
967909,821012,1049712,823326,1052702,1343,2509,-2222,-4184,-70,-52,-453,2436,27,22,913
968910,821160,1049800,823457,1052833,1411,2503,-2262,-4060,-10,-164,-377,2726,27,22,913
969911,821312,1049916,823588,1052964,1378,2336,-2311,-3862,62,-290,-455,3144,24,14,913
970912,821472,1050032,823719,1053095,1315,2344,-2360,-3642,140,-445,-479,3158,24,14,913
971913,821656,1050116,823850,1053226,1143,2564,-2388,-3466,202,-517,-420,3181,45,17,911
972915,821832,1050228,823981,1053357,1173,2399,-2384,-3338,265,-581,-389,3069,45,17,911
973915,821996,1050316,824112,1053488,1233,2567,-2387,-3270,350,-588,-451,3159,44,20,913
974916,822188,1050420,824243,1053619,1033,2480,-2417,-3226,461,-568,-504,3116,44,20,913
975917,822348,1050556,824374,1053750,1220,2278,-2435,-3232,564,-509,-392,2857,44,30,914
976918,822532,1050656,824505,1053881,1048,2518,-2439,-3310,632,-360,-154,2945,44,30,914
977919,822712,1050796,824636,1054012,1051,2265,-2448,-3407,689,-231,-233,3049,22,16,914
978920,822896,1050888,824767,1054143,1003,2582,-2476,-3495,752,-103,-254,3145,22,16,914
979922,823088,1050996,824898,1054274,927,2493,-2517,-3585,784,15,-151,3200,25,17,913
980923,823288,1051096,825029,1054405,847,2558,-2550,-3712,786,119,-44,3323,25,17,913
981924,823480,1051216,825160,1054536,870,2437,-2594,-3779,781,242,77,3523,48,30,914
982925,823672,1051336,825291,1054667,844,2443,-2636,-3832,768,378,234,3583,48,30,914
983926,823864,1051456,825422,1054798,817,2448,-2687,-3931,741,539,430,3777,29,25,914
984927,824080,1051568,825553,1054929,630,2508,-2732,-3988,705,696,468,3907,29,25,914
985928,824292,1051696,825684,1055060,620,2410,-2777,-4036,652,745,400,3952,32,34,915
986929,824464,1051860,825815,1055191,852,2170,-2816,-4124,594,757,205,4117,32,34,915
987930,824668,1051988,825946,1055322,620,2398,-2840,-4221,554,817,-102,4093,38,36,915
988931,824836,1052136,826077,1055453,829,2266,-2835,-4357,535,905,-384,4154,38,36,915
989932,825032,1052264,826208,1055584,626,2392,-2813,-4428,532,920,-575,4242,45,34,917
990933,825232,1052412,826339,1055715,571,2261,-2779,-4568,532,920,-746,4361,45,34,917
991934,825400,1052560,826470,1055846,755,2255,-2719,-4656,549,1022,-1040,4609,34,32,916
992935,825548,1052700,826601,1055977,872,2301,-2614,-4721,570,1054,-784,4737,34,32,916
993936,825704,1052844,826732,1056108,811,2271,-2491,-4691,592,1065,-669,5081,25,24,916
994937,825852,1052976,826863,1056239,855,2345,-2383,-4602,633,956,-603,5438,25,24,916
995938,825984,1053164,826994,1056370,954,1971,-2204,-4448,684,889,-461,6256,27,38,915
996939,826128,1053296,827125,1056501,874,2322,-1037,-2267,841,602,-792,23890,27,38,915
997940,826260,1053472,827256,1056632,948,2027,510,191,975,355,-62,18357,14,38,916
998941,826392,1053628,827387,1056763,948,2142,1126,468,958,674,629,3644,14,38,916
999942,826544,1053776,827518,1056894,815,2185,1052,-622,910,770,443,3067,18,23,916
1000943,826668,1053896,827649,1057025,993,2366,832,-1861,870,937,67,2721,18,23,916
1001944,826788,1054008,827780,1057156,1022,2425,717,-2607,887,777,-397,3194,17,19,916
1002945,826904,1054148,827911,1057287,1054,2246,662,-3252,915,598,-476,2755,17,19,916
1003946,827044,1054284,828042,1057418,900,2270,562,-3836,908,756,-706,3229,30,23,915
1004947,827164,1054424,828173,1057549,1030,2241,416,-4280,928,554,-1097,3770,30,23,915
1005948,827280,1054532,828304,1057680,1063,2452,209,-4544,974,402,-1257,4502,15,22,914
1006949,827412,1054640,828435,1057811,962,2463,-22,-4543,975,220,-801,4973,15,22,914
1007950,827532,1054760,828566,1057942,1042,2393,-255,-4485,935,-137,-170,5354,19,25,915
1008951,827644,1054892,828697,1058073,1100,2318,-459,-4216,873,-233,-265,5956,19,25,915
1009952,827776,1055008,828828,1058204,975,2425,-625,-3912,811,-492,-443,5886,25,16,914
1010960,827880,1055100,828968,1058344,1167,2597,-727,-3651,790,-733,-529,5900,25,16,914
1011953,828004,1055196,829099,1058475,1045,2588,-791,-3525,803,-664,-597,5525,11,11,915
1012955,828108,1055304,829230,1058606,1182,2524,-803,-3548,850,-583,-601,4963,11,11,915
1013956,828212,1055416,829361,1058737,1193,2508,-771,-3571,945,-631,-673,5036,33,23,913
1014957,828316,1055508,829492,1058868,1205,2651,-696,-3719,1066,-640,-807,4653,33,23,913
1015958,828432,1055596,829623,1058999,1138,2695,-607,-3869,1201,-666,-828,4750,23,12,912
1016959,828540,1055700,829754,1059130,1198,2608,-505,-3914,1330,-834,-600,4899,23,12,912
1017960,828648,1055800,829885,1059261,1208,2646,-400,-4003,1437,-910,-586,4809,15,26,911
1018961,828788,1055908,830016,1059392,1004,2608,-307,-4059,1525,-878,-407,5058,15,26,911
1019962,828912,1056016,830147,1059523,1108,2619,-212,-4003,1584,-973,-115,5189,12,27,913
1020963,829008,1056132,830278,1059654,1299,2575,-128,-3900,1613,-908,-232,5274,12,27,913
1021964,829128,1056240,830409,1059785,1153,2636,-50,-3787,1631,-914,-264,5376,33,24,913
1022965,829228,1056352,830540,1059916,1292,2621,21,-3667,1658,-973,-293,5506,33,24,913
1023966,829344,1056444,830671,1060047,1200,2763,76,-3546,1677,-866,-272,5510,30,15,912
1024967,829492,1056552,830802,1060178,992,2674,121,-3433,1709,-848,-267,5403,30,15,912
1025968,829604,1056636,830933,1060309,1226,2846,167,-3322,1757,-790,-267,5309,35,13,912
1026969,829720,1056732,831064,1060440,1207,2787,217,-3319,1809,-585,-355,5066,35,13,912
1027970,829836,1056836,831195,1060571,1215,2749,270,-3364,1863,-531,-519,4965,34,11,912
1028971,829964,1056916,831326,1060702,1141,2922,327,-3420,1924,-395,-624,4810,34,11,912
1029972,830076,1057016,831457,1060833,1249,2812,391,-3558,1960,-336,-586,4604,35,27,911
1030973,830216,1057124,831588,1060964,1070,2772,455,-3663,1975,-416,-667,4802,35,27,911
1031974,830320,1057204,831719,1061095,1308,2970,515,-3740,1979,-444,-741,4783,27,23,909
1032975,830448,1057284,831850,1061226,1160,2994,564,-3789,1964,-384,-636,4800,27,23,909
1033976,830560,1057392,831981,1061357,1268,2830,600,-3839,1935,-357,-420,4893,13,10,912
1034977,830704,1057480,832112,1061488,1062,2974,621,-3868,1884,-338,-120,4783,13,10,912
1035978,830820,1057568,832243,1061619,1245,2994,626,-3898,1825,-281,-68,4849,18,24,910
1036979,830948,1057672,832374,1061750,1171,2907,629,-3895,1791,-295,-218,4882,18,24,910
1037980,831084,1057784,832505,1061881,1119,2866,631,-3964,1771,-289,-297,4810,18,27,910
1038981,831232,1057872,832636,1062012,1036,3035,631,-3972,1769,-349,-408,4914,18,27,910
1039982,831364,1057960,832767,1062143,1137,3055,643,-3978,1811,-487,-677,4939,19,26,910
1040983,831508,1058068,832898,1062274,1056,2941,660,-3911,1880,-608,-949,5011,19,26,910
1041984,831640,1058192,833029,1062405,1131,2845,692,-3853,1971,-765,-970,5122,18,19,910
1042985,831764,1058304,833160,1062536,1185,2929,739,-3829,2069,-860,-597,4978,18,19,910
1043986,831916,1058412,833291,1062667,1001,2964,790,-3905,2143,-800,-282,4706,23,13,911
1044987,832040,1058540,833422,1062798,1179,2842,844,-3961,2213,-793,-210,4700,23,13,911
1045988,832164,1058624,833553,1062929,1182,3138,900,-4060,2294,-734,-11,4497,19,19,911
1046989,832312,1058744,833684,1063060,1025,2919,954,-4209,2356,-685,213,4301,19,19,911
1047990,832432,1058880,833815,1063191,1205,2818,1012,-4385,2397,-725,369,4268,33,13,911
1048991,832576,1058992,833946,1063322,1050,2977,1084,-4578,2417,-646,463,4149,33,13,911
1049992,832708,1059096,834077,1063453,1124,3039,1166,-4823,2429,-534,437,4026,31,18,911
1050993,832828,1059224,834208,1063584,1205,2892,1256,-5019,2451,-442,409,4122,31,18,911
1051994,832948,1059344,834339,1063715,1210,2947,1336,-5116,2471,-338,281,4296,36,20,911
1052995,833080,1059492,834470,1063846,1134,2766,1386,-5155,2488,-268,169,4501,36,20,911
1053996,833204,1059624,834601,1063977,1187,2866,1422,-5147,2509,-210,83,4647,23,37,911
1054997,833344,1059796,834732,1064108,1084,2599,1447,-5103,2530,-118,-2,4738,23,37,911
1055998,833452,1059980,834863,1064239,1295,2501,1461,-5002,2526,25,56,4742,15,37,911
1056999,833580,1060156,834994,1064370,1171,2532,1470,-4944,2510,116,2,4725,15,37,911
1058000,833704,1060332,835125,1064501,1199,2514,1475,-4845,2491,179,-44,4653,34,42,912
1059001,833808,1060508,835256,1064632,1337,2495,1476,-4728,2477,114,-188,4651,34,42,912
1060002,833940,1060676,835387,1064763,1161,2530,1470,-4653,2466,-7,-407,4631,36,27,913
1061003,834068,1060848,835518,1064894,1188,2487,1478,-4610,2446,62,-445,4337,36,27,913
1062004,834184,1061004,835649,1065025,1270,2577,1492,-4617,2416,154,-467,4120,29,25,911
1063005,834324,1061164,835780,1065156,1116,2540,1508,-4670,2409,245,-558,3968,29,25,911
1064006,834436,1061388,835911,1065287,1300,2100,1516,-4721,2416,316,-637,3836,22,29,914
1065007,834532,1061576,836042,1065418,1415,2300,1528,-4793,2417,318,-617,3771,22,29,914
1066008,834640,1061748,836173,1065549,1351,2383,1547,-4837,2398,259,-485,3707,35,32,914
1067009,834744,1061932,836304,1065680,1388,2286,1565,-4931,2383,329,-352,3603,35,32,914
1068010,834848,1062092,836435,1065811,1400,2424,1580,-5001,2354,402,-185,3530,25,39,913
1069011,834996,1062260,836566,1065942,1118,2358,1592,-5111,2320,514,-46,3383,25,39,913
1070012,835088,1062464,836697,1066073,1486,2101,1607,-5194,2284,673,22,3270,30,27,914
1071013,835180,1062648,836828,1066204,1503,2204,1613,-5290,2260,786,6,3367,30,27,914
1072014,835308,1062816,836959,1066335,1280,2288,1597,-5302,2231,805,-1,3430,34,30,913
1073015,835404,1062996,837090,1066466,1495,2192,1544,-5260,2209,829,-56,3650,34,30,913
1074016,835516,1063132,837221,1066597,1404,2466,1477,-5141,2190,716,-106,3796,16,25,913
1075017,835620,1063320,837352,1066728,1466,2116,1413,-4999,2170,612,-106,3809,16,25,913
1076017,835740,1063452,837483,1066859,1371,2467,1354,-4867,2138,667,-61,3551,14,37,914
1077019,835832,1063572,837614,1066990,1564,2548,1312,-4800,2136,817,-96,3358,14,37,914
1078020,835960,1063724,837745,1067121,1340,2338,1283,-4773,2156,1006,-82,3162,30,38,914
1079021,836064,1063844,837876,1067252,1503,2544,1265,-4804,2190,1114,-154,3028,30,38,914
1080022,836148,1064004,838007,1067383,1648,2282,1247,-4816,2230,1018,-321,3193,23,35,911
1081023,836252,1064192,838138,1067514,1536,2082,1222,-4790,2283,1025,-547,3220,23,35,911
1082024,836340,1064352,838269,1067645,1655,2246,1206,-4770,2326,1100,-286,2968,26,33,911
1083025,836420,1064516,838400,1067776,1728,2206,1193,-4731,2358,1096,-164,3050,26,33,911
1084026,836492,1064664,838531,1067907,1805,2300,1191,-4712,2381,1153,18,2976,11,27,913
1085027,836584,1064784,838662,1068038,1697,2480,1179,-4620,2390,1217,-25,3183,11,27,913
1086028,836672,1064940,838793,1068169,1741,2244,1139,-4453,2390,1182,-30,3513,26,36,912
1087029,836764,1065100,838924,1068300,1734,2208,1072,-4170,2393,1177,-278,3653,26,36,912
1088030,836860,1065280,839055,1068431,1724,2062,995,-3869,2374,1131,-381,3563,31,25,911
1089031,836956,1065452,839186,1068562,1740,2094,914,-3633,2347,1127,-424,3382,31,25,911
1090032,837040,1065616,839317,1068693,1836,2131,848,-3502,2330,1229,-327,3075,17,32,911
1091033,837144,1065776,839448,1068824,1723,2143,805,-3430,2326,1306,-181,2758,17,32,911
1092034,837264,1065932,839579,1068955,1629,2158,768,-3417,2307,1274,-49,2697,31,36,913
1093035,837348,1066096,839710,1069086,1874,2093,734,-3429,2256,1285,323,2594,31,36,913
1094036,837452,1066248,839841,1069217,1762,2160,684,-3389,2212,1250,333,2678,19,37,911
1095037,837556,1066424,839972,1069348,1774,1991,619,-3314,2195,1233,242,2650,19,37,911
1096038,837632,1066608,840103,1069479,1974,1918,558,-3302,2202,1302,69,2437,12,42,913
1097039,837740,1066796,840234,1069610,1784,1869,501,-3343,2220,1302,-87,2293,12,42,913
1098040,837852,1066968,840365,1069741,1769,1951,454,-3372,2236,1306,38,2302,13,23,913
1099041,837940,1067132,840496,1069872,1938,1988,397,-3415,2236,1388,522,2423,13,23,913
1100042,838052,1067288,840627,1070003,1797,2027,314,-3325,2219,1364,838,2729,24,29,914
1101043,838160,1067436,840758,1070134,1832,2070,209,-3129,2194,1294,743,2938,24,29,914
1102044,838256,1067624,840889,1070265,1924,1795,122,-2978,2173,1405,859,2683,16,36,913
1103045,838368,1067772,841020,1070396,1832,2039,54,-2904,2154,1438,1015,2570,16,36,913
1104046,838496,1067932,841151,1070527,1734,1951,-1,-2859,2131,1487,973,2489,18,31,911
1105047,838612,1068144,841282,1070658,1816,1591,-53,-2825,2104,1429,858,2497,18,31,911
1106047,838736,1068368,841413,1070789,1770,1475,-107,-2731,2088,1273,475,2708,28,31,913
1107049,838884,1068560,841544,1070920,1612,1650,-173,-2497,2090,1113,32,3036,28,31,913
1108049,838996,1068764,841675,1071051,1847,1543,-229,-2251,2100,975,110,2935,30,31,915
1109051,839108,1068936,841806,1071182,1855,1726,-269,-2049,2094,949,341,2754,30,31,915
1110052,839244,1069100,841937,1071313,1704,1761,-308,-1939,2077,1012,428,2596,37,46,916
1111053,839364,1069292,842068,1071444,1809,1559,-353,-1934,2077,1055,251,2543,37,46,916
1112054,839464,1069520,842199,1071575,1948,1293,-396,-1919,2101,1089,63,2464,33,33,915
1113055,839588,1069736,842330,1071706,1801,1330,-442,-1935,2121,1124,293,2278,33,33,915
1114056,839712,1069948,842461,1071837,1806,1321,-490,-1978,2117,1170,650,2249,37,35,915
1115057,839840,1070140,842592,1071968,1782,1419,-536,-2036,2121,1217,546,2264,37,35,915
1116058,840008,1070316,842723,1072099,1517,1499,-585,-2020,2124,1156,341,2392,36,38,915
1117059,840156,1070480,842854,1072230,1634,1561,-644,-1965,2123,1012,191,2496,36,38,915
1118060,840284,1070680,842985,1072361,1761,1305,-809,-1813,2077,552,121,2816,41,31,916
1119061,840424,1070932,843116,1072492,1683,927,-897,-1651,2054,510,-62,2890,41,31,916
1120062,840564,1071132,843247,1072623,1680,1223,-961,-1541,2033,584,-191,2764,20,31,916
1121063,840680,1071356,843378,1072754,1836,1032,-976,-1543,2009,678,-233,2432,20,31,916
1122064,840820,1071536,843509,1072885,1683,1285,-964,-1650,1976,774,-96,2159,19,42,918
1123065,840968,1071708,843640,1073016,1626,1317,-959,-1819,1939,838,-199,2146,19,42,918
1124066,841132,1071880,843771,1073147,1512,1300,-959,-1980,1902,860,-469,2106,31,28,917
1125067,841276,1072100,843902,1073278,1632,961,-950,-2106,1871,866,-610,2159,31,28,917
1126068,841436,1072316,844033,1073409,1520,949,-962,-2115,1835,777,-828,2602,26,32,916
1127069,841588,1072500,844164,1073540,1561,1126,-993,-2103,1782,746,-667,2739,26,32,916
1128070,841720,1072680,844295,1073671,1686,1130,-1024,-2052,1724,962,-355,2769,42,39,918
1129071,841876,1072860,844426,1073802,1525,1108,-1063,-2001,1654,1177,-31,2852,42,39,918
1130072,842028,1073048,844557,1073933,1542,1033,-1116,-1980,1586,1349,175,2865,27,28,919
1131073,842168,1073200,844688,1074064,1613,1249,-1171,-1981,1518,1434,310,2916,27,28,919
1132074,842324,1073372,844819,1074195,1503,1106,-1219,-1919,1457,1397,288,3082,38,27,919
1133075,842492,1073516,844950,1074326,1412,1275,-1280,-1775,1409,1424,98,3387,38,27,919
1134076,842628,1073724,845081,1074457,1610,843,-1351,-1578,1355,1483,177,3539,38,26,918
1135077,842780,1073920,845212,1074588,1501,889,-1415,-1410,1287,1501,276,3616,38,26,918
1136085,842924,1074112,845352,1074728,1550,891,-1468,-1257,1208,1510,340,3597,19,38,918
1137079,843060,1074280,845483,1074859,1598,1025,-1510,-1152,1118,1485,299,3545,19,38,918
1138080,843224,1074472,845614,1074990,1410,848,-1540,-1049,1000,1410,353,3442,38,27,919
1139081,843372,1074624,845745,1075121,1502,1089,-1546,-1060,902,1454,131,3171,38,27,919
1140081,843512,1074784,845876,1075252,1548,1026,-1528,-1118,862,1590,74,3043,32,36,919
1141083,843656,1074968,846007,1075383,1519,853,-1490,-1281,865,1586,138,2859,32,36,919
1142084,843788,1075172,846138,1075514,1593,696,-1443,-1530,841,1355,88,2717,18,28,919
1143084,843940,1075376,846269,1075645,1460,664,-1415,-1705,771,1133,-35,3013,18,28,919
1144086,844092,1075560,846400,1075776,1451,766,-1426,-1746,710,1107,-19,3419,19,29,920
1145087,844244,1075728,846531,1075907,1443,850,-1461,-1713,669,1197,130,3709,19,29,920
1146088,844348,1075924,846662,1076038,1754,647,-1498,-1641,638,1199,304,3892,32,25,920
1147089,844452,1076112,846793,1076169,1767,672,-1514,-1473,603,1166,473,4098,32,25,920
1148090,844580,1076260,846924,1076300,1619,914,-1550,-1285,560,1146,525,4437,11,38,919
1149091,844692,1076412,847055,1076431,1727,880,-1624,-1026,525,1178,403,4783,11,38,919
1150092,844812,1076612,847186,1076562,1683,550,-1724,-688,496,1121,252,4949,34,43,918
1151093,844944,1076808,847317,1076693,1607,546,-1809,-381,455,1002,60,4791,34,43,918
1152094,845064,1077008,847448,1076824,1688,491,-1870,-165,390,927,-58,4608,28,42,918
1153095,845208,1077168,847579,1076955,1532,728,-1930,-15,317,907,-162,4557,28,42,918
1154096,845368,1077332,847710,1077086,1421,688,-2028,103,268,857,-616,4813,18,29,920
1155097,845532,1077468,847841,1077217,1381,860,-2125,240,242,690,-905,4599,18,29,920
1156098,845664,1077612,847972,1077348,1582,804,-2199,197,211,594,-960,4169,24,36,920
1157099,845800,1077784,848103,1077479,1555,611,-2259,78,180,525,-1168,4023,24,36,920
1158100,845936,1077992,848234,1077610,1553,353,-2325,-130,144,472,-1283,3847,24,41,920
1159101,846060,1078148,848365,1077741,1631,667,-2388,-362,120,413,-1463,3790,24,41,920
1160102,846180,1078292,848496,1077872,1661,736,-2434,-756,100,374,-1409,3488,33,29,919
1161103,846296,1078444,848627,1078003,1694,677,-2465,-1191,76,378,-1465,3439,33,29,919
1162104,846408,1078568,848758,1078134,1727,855,-2482,-1586,61,250,-1533,3483,22,17,920
1163105,846536,1078704,848889,1078265,1630,778,-2474,-2029,44,5,-1571,3413,22,17,920
1164106,846652,1078820,849020,1078396,1711,909,-2477,-2423,42,-103,-1787,3792,27,23,920
1165107,846768,1078944,849151,1078527,1719,862,-2490,-2669,83,-68,-1762,4224,27,23,920
1166108,846924,1079096,849282,1078658,1458,678,-2518,-2831,150,68,-1675,4549,30,18,919
1167109,847024,1079216,849413,1078789,1822,883,-2570,-2965,188,8,-1373,4708,30,18,919
1168110,847128,1079372,849544,1078920,1809,646,-2625,-3154,187,-13,-1045,4816,19,35,919
1169111,847228,1079516,849675,1079051,1848,715,-2675,-3364,181,262,-923,4848,19,35,919
1170112,847332,1079672,849806,1079182,1836,629,-2711,-3531,206,536,-846,4902,30,21,917
1171113,847420,1079792,849937,1079313,1955,859,-2726,-3738,257,733,-638,4858,30,21,917
1172114,847516,1079892,850068,1079444,1921,998,-2716,-4009,313,960,-597,4792,21,18,917
1173115,847620,1080000,850199,1079575,1883,958,-2680,-4333,379,1154,-532,4856,21,18,917
1174116,847736,1080120,850330,1079706,1815,888,-2620,-4645,429,1393,-272,4971,11,17,917
1175117,847844,1080224,850461,1079837,1876,999,-2564,-4901,476,1529,-310,5240,11,17,917
1176118,847964,1080324,850592,1079968,1806,1038,-2544,-5096,531,1502,-256,5667,18,17,917
1177119,848064,1080448,850723,1080099,1945,891,-2569,-5112,580,1585,-98,6141,18,17,917
1178120,848220,1080572,850854,1080230,1585,894,-2628,-5041,611,1896,59,6418,37,28,917
1179121,848352,1080708,850985,1080361,1735,817,-2697,-4958,628,2268,258,6564,37,28,917
1180122,848468,1080804,851116,1080492,1842,1082,-2754,-4918,651,2566,181,6578,25,13,918
1181123,848588,1080916,851247,1080623,1822,990,-2478,-4570,685,3228,-324,9817,25,13,918
1182124,848684,1080996,851378,1080754,1988,1212,-1271,-2128,635,5295,-1439,27479,11,25,918
1183125,848788,1081096,851509,1080885,1950,1101,-209,-652,557,3643,-170,10172,11,25,918
1184126,848900,1081192,851640,1081016,1910,1141,-1,-1058,557,3224,173,4384,30,8,917
1185127,849016,1081300,851771,1081147,1891,1076,-218,-2252,646,3446,-177,3791,30,8,917
1186128,849156,1081396,851902,1081278,1738,1167,-402,-3274,765,3413,-618,4087,32,15,916
1187129,849296,1081460,852033,1081409,1734,1396,-433,-3953,847,2849,-727,3900,32,15,916
1188129,849456,1081520,852164,1081540,1598,1452,-395,-4537,859,2499,-990,3952,18,24,917
1189131,849636,1081600,852295,1081671,1451,1350,-401,-4889,839,2397,-1362,4813,18,24,917
1190132,849768,1081692,852426,1081802,1752,1292,-446,-5084,834,2163,-1432,5168,31,11,916
1191133,849908,1081764,852557,1081933,1698,1443,-482,-5060,818,1885,-1749,5813,31,11,916
1192134,850036,1081860,852688,1082064,1775,1308,-486,-5016,769,1486,-1789,5970,36,25,917
1193135,850160,1081968,852819,1082195,1803,1243,-439,-4833,698,1225,-1802,6294,36,25,917
1194136,850288,1082052,852950,1082326,1780,1414,-377,-4484,611,1248,-1763,6593,17,23,916
1195137,850440,1082152,853081,1082457,1621,1328,-271,-4153,533,1131,-1612,6371,17,23,916
1196137,850568,1082268,853212,1082588,1773,1234,-126,-3809,464,917,-1333,6356,21,18,917
1197139,850732,1082328,853343,1082719,1534,1616,88,-3546,380,736,-1100,5851,21,18,917
1198140,850892,1082408,853474,1082850,1547,1514,339,-3411,311,654,-1113,5712,18,17,917
1199141,851056,1082496,853605,1082981,1508,1483,609,-3224,288,624,-1058,5691,18,17,917
1200142,851204,1082568,853736,1083112,1601,1609,886,-3052,291,593,-1054,5419,31,20,916
1201143,851360,1082660,853867,1083243,1540,1501,1160,-2766,292,357,-1147,5536,31,20,916
1202144,851500,1082740,853998,1083374,1637,1598,1437,-2555,299,156,-1326,5279,16,15,917
1203145,851660,1082808,854129,1083505,1500,1701,1710,-2374,316,247,-1400,5155,16,15,917
1204145,851796,1082896,854260,1083636,1648,1595,1968,-2177,358,339,-1335,5027,19,8,915
1205147,851928,1082984,854391,1083767,1673,1614,2210,-2046,413,251,-1441,4700,19,8,915
1206148,852088,1083060,854522,1083898,1486,1714,2430,-1996,460,197,-1411,4352,37,20,915
1207148,852252,1083144,854653,1084029,1447,1684,2634,-1977,504,189,-1397,4067,37,20,915
1208149,852396,1083248,854784,1084160,1567,1571,2804,-1930,577,323,-1562,4026,21,11,916
1209151,852540,1083352,854915,1084291,1561,1583,2933,-1896,657,337,-1653,3835,21,11,916
1210152,852696,1083460,855046,1084422,1476,1568,3032,-1906,711,210,-1631,3660,25,12,916
1211153,852832,1083572,855177,1084553,1599,1552,3098,-1979,731,268,-1485,3454,25,12,916
1212154,852960,1083676,855308,1084684,1651,1614,3134,-2070,741,404,-1349,3212,21,9,916
1213155,853140,1083764,855439,1084815,1305,1733,3135,-2188,760,526,-1103,3143,21,9,916
1214156,853260,1083828,855570,1084946,1685,1913,3128,-2281,782,595,-1001,2855,29,22,916
1215157,853428,1083908,855701,1085077,1369,1835,3120,-2454,790,599,-1002,2534,29,22,916
1216158,853576,1083992,855832,1085208,1487,1831,3111,-2634,792,548,-981,2400,30,16,915
1217159,853736,1084076,855963,1085339,1400,1853,3079,-2797,798,539,-973,2436,30,16,915
1218160,853848,1084136,856094,1085470,1709,2034,2995,-2905,819,563,-1019,2658,21,16,915
1219161,853968,1084220,856225,1085601,1664,1904,2881,-2885,835,587,-869,2880,21,16,915
1220161,854136,1084312,856356,1085732,1348,1872,2751,-2761,824,554,-669,2854,20,23,916
1221163,854268,1084388,856487,1085863,1573,1997,2611,-2611,804,528,-589,2857,20,23,916
1222164,854408,1084484,856618,1085994,1520,1887,2461,-2501,785,496,-482,2805,22,10,914
1223165,854564,1084584,856749,1086125,1409,1876,2309,-2416,765,536,-450,2670,22,10,914
1224166,854684,1084680,856880,1086256,1640,1917,2148,-2341,739,563,-407,2565,18,29,914
1225167,854816,1084816,857011,1086387,1564,1665,1970,-2260,710,585,-308,2565,18,29,914
1226168,854972,1084952,857142,1086518,1404,1663,1777,-2197,678,706,-163,2458,20,26,914
1227169,855108,1085056,857273,1086649,1527,1875,1576,-2150,647,818,28,2242,20,26,914
1228170,855244,1085176,857404,1086780,1525,1780,1372,-2155,597,912,176,1937,23,18,916
1229171,855388,1085284,857535,1086911,1470,1865,1169,-2275,531,1011,316,1715,23,18,916
1230172,855532,1085408,857666,1087042,1464,1769,971,-2518,471,1118,522,1463,34,27,915
1231173,855664,1085500,857797,1087173,1540,1987,779,-2776,423,1289,566,1255,34,27,915
1232173,855800,1085584,857928,1087304,1513,2057,598,-3019,397,1322,512,1161,32,20,915
1233175,855932,1085700,858059,1087435,1537,1864,442,-3256,398,1315,438,1076,32,20,915
1234176,856060,1085812,858190,1087566,1565,1898,315,-3472,417,1381,227,1259,33,16,915
1235176,856208,1085908,858321,1087697,1432,2014,195,-3612,443,1430,425,1386,33,16,915
1236177,856372,1086016,858452,1087828,1319,1949,60,-3719,451,1458,641,1532,17,30,914
1237179,856520,1086144,858583,1087959,1411,1826,-67,-3820,441,1354,717,1522,17,30,914
1238180,856692,1086260,858714,1088090,1243,1908,-176,-3910,441,1285,654,1703,39,29,913
1239181,856828,1086364,858845,1088221,1467,1995,-297,-3833,458,1262,555,2187,39,29,913
1240181,856964,1086476,858976,1088352,1465,1954,-425,-3637,476,1186,528,2287,18,15,916
1241182,857112,1086572,859107,1088483,1383,2069,-548,-3444,473,1135,616,2357,18,15,916
1242184,857244,1086672,859238,1088614,1483,2058,-670,-3232,444,1148,688,2475,15,14,914
1243185,857368,1086800,859369,1088745,1536,1885,-792,-3029,430,1275,400,2507,15,14,914
1244186,857500,1086900,859500,1088876,1486,2074,-901,-2796,444,1395,-81,2488,34,11,914
1245187,857648,1087004,859631,1089007,1379,2062,-995,-2647,467,1355,-157,2299,34,11,914
1246188,857796,1087120,859762,1089138,1371,1993,-1088,-2496,493,1368,-154,2277,32,28,915
1247189,857908,1087212,859893,1089269,1606,2160,-1199,-2324,528,1319,-110,2405,32,28,915
1248190,858052,1087344,860024,1089400,1400,1911,-1310,-2118,586,1195,-83,2475,30,33,913
1249191,858208,1087488,860155,1089531,1315,1830,-1421,-1968,648,1045,241,2531,30,33,913
1250192,858320,1087624,860286,1089662,1598,1878,-1521,-1839,714,1029,506,2420,38,23,914
1251193,858456,1087792,860417,1089793,1446,1663,-1622,-1806,780,1220,637,2157,38,23,914
1252194,858588,1087936,860548,1089924,1472,1807,-1734,-1798,834,1420,681,2085,28,26,917
1253195,858712,1088056,860679,1090055,1525,1963,-1840,-1831,873,1552,643,1959,28,26,917
1254196,858868,1088216,860810,1090186,1314,1700,-1937,-1920,887,1752,678,1972,18,27,917
1255197,859016,1088340,860941,1090317,1357,1928,-2041,-2015,874,1895,707,2114,18,27,917
1256198,859176,1088496,861072,1090448,1270,1718,-2139,-1987,827,2030,567,2272,37,19,915
1257199,859328,1088624,861203,1090579,1311,1895,-2253,-1943,748,2083,56,2325,37,19,915
1258200,859452,1088740,861334,1090710,1490,1976,-2385,-1835,663,1980,-432,2658,31,35,915
1259201,859576,1088884,861465,1090841,1493,1797,-2530,-1615,582,1873,-682,3033,31,35,915
1260202,859716,1089020,861596,1090972,1390,1844,-2679,-1341,503,1810,-753,3215,32,21,914
1261210,859820,1089140,861736,1091112,1630,1954,-2830,-1114,412,1724,-520,3223,32,21,914
1262204,859948,1089272,861867,1091243,1482,1879,-2972,-924,314,1722,-190,3279,12,31,915
1263205,860088,1089380,861998,1091374,1404,2039,-3101,-738,214,1697,67,3257,12,31,915
1264206,860188,1089496,862129,1091505,1667,1996,-3208,-598,120,1636,177,3066,12,31,914
1265207,860316,1089632,862260,1091636,1494,1869,-3300,-477,40,1495,80,3137,12,31,914
1266208,860464,1089736,862391,1091767,1362,2081,-3375,-377,-9,1241,-52,3217,15,19,915
1267209,860604,1089880,862522,1091898,1408,1826,-3437,-313,-28,936,-236,3120,15,19,915
1268210,860744,1089996,862653,1092029,1404,2008,-3475,-349,-27,766,-306,2972,32,18,915
1269211,860876,1090132,862784,1092160,1455,1882,-3490,-423,-9,627,-236,2967,32,18,915
1270212,861028,1090280,862915,1092291,1321,1799,-3495,-524,25,387,-280,3083,20,36,915
1271213,861132,1090420,863046,1092422,1634,1845,-3488,-578,74,98,-324,3177,20,36,915
1272214,861252,1090568,863177,1092553,1538,1789,-3471,-605,142,-208,-243,3484,12,39,915
1273215,861352,1090724,863308,1092684,1677,1728,-3473,-560,206,-374,-145,3816,12,39,915
1274215,861464,1090884,863439,1092815,1611,1691,-3493,-479,255,-523,-27,3949,14,22,915
1275217,861568,1091024,863570,1092946,1673,1812,-3515,-441,300,-725,80,4057,14,22,915
1276218,861664,1091164,863701,1093077,1739,1808,-3540,-405,352,-890,41,4190,14,34,915
1277219,861780,1091316,863832,1093208,1621,1725,-3587,-315,420,-975,-73,4410,14,34,915
1278220,861860,1091460,863963,1093339,1869,1769,-3635,-245,513,-1087,-139,4452,13,37,915
1279221,861968,1091612,864094,1093470,1705,1710,-3662,-278,605,-1141,-179,4294,13,37,915
1280222,862068,1091760,864225,1093601,1768,1729,-3665,-377,705,-1127,-465,4390,29,25,915
1281223,862184,1091900,864356,1093732,1675,1775,-3667,-455,826,-1109,-638,4611,29,25,915
1282224,862292,1092044,864487,1093863,1736,1744,-3652,-556,952,-1053,-713,4528,18,36,914
1283225,862388,1092200,864618,1093994,1826,1659,-3608,-708,1062,-1057,-728,4396,18,36,914
1284226,862492,1092360,864749,1094125,1789,1621,-3384,-810,1164,-1032,-904,5708,29,35,915
1285227,862604,1092528,864880,1094256,1748,1555,-1402,2539,1470,-652,-3090,32767,29,35,915
1286228,862696,1092640,865011,1094387,1891,1914,1356,6958,1856,-435,-3113,31974,16,37,915
1287229,862832,1092780,865142,1094518,1614,1735,2482,7610,1957,-26,176,2513,16,37,915
1288230,862932,1092924,865273,1094649,1852,1705,2252,5438,1842,222,725,408,14,28,916
1289231,863044,1093048,865404,1094780,1787,1834,1875,2699,1666,741,471,-688,14,28,916
1290232,863160,1093172,865535,1094911,1768,1837,1665,834,1592,646,78,680,11,21,915
1291233,863268,1093304,865666,1095042,1829,1786,1557,-488,1637,533,-338,765,11,21,915
1292234,863368,1093436,865797,1095173,1893,1787,1298,-1557,1660,734,-382,1863,28,24,913
1293235,863480,1093556,865928,1095304,1827,1867,972,-2475,1661,252,-103,2359,28,24,913
1294236,863600,1093692,866059,1095435,1782,1764,609,-3408,1613,-36,-86,2758,14,18,914
1295237,863720,1093816,866190,1095566,1788,1844,276,-4147,1464,-263,-189,3189,14,18,914
1296237,863828,1093964,866321,1095697,1873,1686,-17,-4832,1268,-879,454,3417,10,26,914
1297239,863932,1094072,866452,1095828,1911,1946,-301,-5206,1024,-1078,-26,4242,10,26,914
1298239,864052,1094204,866583,1095959,1816,1797,-575,-5509,797,-1366,-951,4391,31,28,914
1299241,864180,1094320,866714,1096090,1768,1903,-822,-5616,695,-1632,-2060,5485,31,28,914
1300242,864308,1094488,866845,1096221,1769,1562,-1062,-5344,669,-1652,-2081,6352,19,33,913
1301243,864436,1094608,866976,1096352,1771,1868,-1252,-4949,691,-1828,-2147,6443,19,33,913
1302244,864552,1094716,867107,1096483,1853,1953,-1345,-4534,760,-2025,-2442,6551,17,19,912
1303245,864684,1094876,867238,1096614,1753,1615,-1275,-4196,830,-2139,-1958,6979,17,19,912
1304246,864816,1095020,867369,1096745,1753,1711,-729,-2954,986,-2423,-1756,15064,24,25,913
1305247,864940,1095168,867500,1096876,1807,1678,-82,-1679,1183,-2109,-848,11092,24,25,913
1306248,865084,1095316,867631,1097007,1677,1671,153,-1558,1329,-1557,71,4787,18,30,915
1307249,865224,1095452,867762,1097138,1698,1744,134,-2180,1478,-1314,93,4038,18,30,915
1308250,865376,1095616,867893,1097269,1615,1555,120,-2913,1701,-1037,-291,3445,37,37,915
1309251,865500,1095752,868024,1097400,1793,1728,185,-3565,1998,-919,-689,3268,37,37,915
1310252,865632,1095900,868155,1097531,1743,1646,317,-4254,2315,-974,-610,2774,34,36,915
1311253,865724,1096056,868286,1097662,2010,1585,448,-5003,2590,-915,-180,2746,34,36,915
1312254,865840,1096184,868417,1097793,1868,1762,559,-5787,2825,-955,-147,2666,18,29,915
1313255,865968,1096332,868548,1097924,1794,1630,669,-6454,3063,-1018,-625,3069,18,29,915
1314256,866092,1096476,868679,1098055,1823,1649,762,-6849,3273,-1066,-928,3892,23,28,914
1315257,866192,1096604,868810,1098186,1987,1751,823,-6915,3445,-1106,-1097,4738,23,28,914
1316258,866324,1096724,868941,1098317,1788,1806,835,-6654,3596,-1107,-1251,5484,19,25,915
1317259,866452,1096868,869072,1098448,1814,1651,825,-6300,3693,-1201,-1037,5765,19,25,915
1318260,866552,1097024,869203,1098579,2003,1565,800,-5858,3737,-1185,-982,6358,28,32,914
1319261,866696,1097168,869334,1098710,1723,1634,764,-5308,3744,-1098,-884,6534,28,32,914
1320262,866824,1097332,869465,1098841,1825,1496,727,-4739,3732,-1016,-583,6386,32,37,915
1321263,866940,1097472,869596,1098972,1907,1642,707,-4200,3717,-837,-377,6162,32,37,915
1322264,867056,1097640,869727,1099103,1914,1450,719,-3877,3718,-540,-283,5600,32,30,915
1323264,867160,1097808,869858,1099234,2001,1434,767,-3639,3729,-246,-82,5286,32,30,915
1324266,867256,1097980,869989,1099365,2068,1392,861,-3545,3732,-14,-5,4784,26,38,913
1325267,867376,1098112,870120,1099496,1922,1642,1015,-3617,3713,250,-148,4273,26,38,913
1326268,867484,1098256,870251,1099627,2008,1561,1198,-3751,3669,433,17,4005,12,27,914
1327269,867584,1098428,870382,1099758,2072,1369,1383,-3966,3617,601,18,3737,12,27,914
1328270,867696,1098612,870513,1099889,2006,1271,1565,-4094,3545,855,125,3758,13,30,914
1329271,867804,1098792,870644,1100020,2042,1274,1750,-4229,3456,815,403,3579,13,30,914
1330272,867884,1098968,870775,1100151,2240,1279,1925,-4382,3351,727,707,3596,34,26,914
1331273,867972,1099116,870906,1100282,2210,1447,2047,-4504,3235,627,641,3870,34,26,914
1332274,868116,1099288,871037,1100413,1854,1280,2100,-4405,3130,446,344,4265,36,21,915
1333275,868244,1099468,871168,1100544,1956,1208,2082,-4132,3002,322,294,4736,36,21,915
1334276,868388,1099592,871299,1100675,1851,1561,2006,-3718,2853,211,152,5034,26,34,914
1335277,868516,1099684,871430,1100806,1953,1779,1894,-3241,2671,126,312,5312,26,34,914
1336278,868644,1099732,871561,1100937,1954,2091,1744,-2731,2456,149,812,5149,29,29,915
1337279,868740,1099784,871692,1101068,2171,2101,1571,-2336,2225,171,1043,4675,29,29,915
1338280,868860,1099828,871823,1101199,2026,2189,1368,-2108,2009,251,797,4274,28,16,913
1339281,868976,1099904,871954,1101330,2058,2013,1184,-2090,1794,295,1058,3524,31,6,911
1340282,869076,1099968,872085,1101461,2173,2119,1035,-2146,1598,282,1082,3241,31,6,911
1341283,869176,1100044,872216,1101592,2186,2068,918,-2266,1459,357,824,2953,17,7,911
1342284,869292,1100120,872347,1101723,2094,2092,820,-2570,1376,521,701,2466,17,7,911
1343285,869384,1100196,872478,1101854,2261,2116,763,-2939,1321,682,902,2119,13,20,910
1344286,869472,1100292,872609,1101985,2306,2007,794,-3464,1269,858,760,1579,13,20,910
1345287,869576,1100396,872740,1102116,2218,1969,917,-4006,1233,1012,95,1541,31,12,908
1346288,869664,1100500,872871,1102247,2338,1981,1096,-4490,1201,1036,276,1784,31,12,908
1347289,869760,1100636,873002,1102378,2304,1780,1273,-4786,1178,1161,610,2268,22,25,910
1348290,869864,1100788,873133,1102509,2266,1671,1408,-4899,1182,1238,914,2834,22,25,910
1349291,869948,1100964,873264,1102640,2413,1501,1463,-4822,1181,1069,1288,3316,25,25,911
1350292,870020,1101152,873395,1102771,2515,1402,1454,-4653,1136,830,1206,3595,25,25,911
1351293,870120,1101284,873526,1102902,2353,1752,1349,-4370,990,438,1545,4202,9,33,912
1352294,870216,1101476,873657,1103033,2395,1350,1166,-3725,869,417,1288,5365,9,33,912
1353295,870284,1101716,873788,1103164,2597,1003,926,-2792,871,464,372,5756,18,40,911
1354296,870392,1101936,873919,1103295,2358,1089,692,-1969,922,408,-369,5348,18,40,911
1355297,870528,1102168,874050,1103426,2182,969,439,-1289,930,317,-350,5033,28,55,913
1356298,870632,1102396,874181,1103557,2395,952,179,-663,940,611,-237,5042,28,55,913
1357299,870776,1102628,874312,1103688,2139,883,-79,-54,985,833,-14,4951,18,57,915
1358300,870900,1102876,874443,1103819,2268,732,-317,465,1029,842,237,4492,18,57,915
1359301,871012,1103140,874574,1103950,2353,573,-505,751,1005,882,486,3624,35,41,916
1360302,871148,1103396,874705,1104081,2201,569,-635,764,948,1000,368,2832,35,41,916
1361303,871288,1103632,874836,1104212,2173,647,-707,594,929,1099,-194,2367,20,44,916
1362304,871444,1103864,874967,1104343,2063,628,-744,282,963,1243,-942,2194,20,44,916
1363304,871568,1104140,875098,1104474,2266,289,-760,64,1027,1370,-1255,2249,41,55,917
1364305,871720,1104388,875229,1104605,2083,414,-799,-66,1068,1325,-1167,2542,41,55,917
1365307,871864,1104588,875360,1104736,2128,684,-854,-124,1006,1210,-473,2744,25,47,917
1366308,872016,1104808,875491,1104867,2069,519,-896,-133,828,1072,-19,2751,25,47,917
1367309,872168,1105004,875622,1104998,2060,641,-920,-139,575,1121,333,2916,40,47,916
1368309,872304,1105196,875753,1105129,2159,639,-953,-58,305,1190,693,3151,40,47,916
1369311,872452,1105392,875884,1105260,2077,585,-1004,-17,55,1127,684,3035,28,32,917
1370311,872604,1105564,876015,1105391,2043,717,-1084,58,-177,1014,623,3115,28,32,917
1371312,872756,1105728,876146,1105522,2035,753,-1185,107,-392,881,724,3084,43,38,917
1372313,872912,1105900,876277,1105653,1999,684,-1283,249,-575,877,430,3378,43,38,917
1373315,873072,1106032,876408,1105784,1963,934,-1383,453,-735,720,140,3605,38,36,917
1374316,873208,1106156,876539,1105915,2110,987,-1475,681,-894,579,-126,3546,38,36,917
1375317,873340,1106280,876670,1106046,2136,990,-1579,877,-1051,457,-243,3545,18,22,917
1376318,873480,1106380,876801,1106177,2083,1153,-1694,1030,-1228,326,-306,3481,18,22,917
1377319,873624,1106512,876932,1106308,2052,953,-1822,1132,-1411,189,-520,3358,22,22,916
1378320,873756,1106652,877063,1106439,2128,899,-1943,1193,-1582,80,-756,3180,22,22,916
1379321,873904,1106800,877194,1106570,2021,841,-2076,1220,-1711,48,-1461,3314,18,18,915
1380322,874020,1106920,877325,1106701,2228,1021,-2230,1252,-1790,84,-1707,3345,18,18,915
1381323,874160,1107044,877456,1106832,2075,999,-2382,1177,-1895,-89,-1245,2819,37,32,916
1382324,874308,1107168,877587,1106963,2017,1002,-2514,877,-2045,-311,-937,2376,37,32,916
1383325,874432,1107312,877718,1107094,2172,872,-2632,483,-2186,-421,-1149,2432,22,15,916
1384326,874564,1107420,877849,1107225,2122,1107,-2747,155,-2261,-652,-1536,2656,22,15,916
1385327,874708,1107548,877980,1107356,2041,983,-2857,-47,-2289,-951,-1779,2790,25,23,916
1386337,874836,1107664,878120,1107496,2148,1069,-2949,-289,-2296,-1193,-2054,2816,25,23,916
1387329,874984,1107784,878251,1107627,2016,1049,-3009,-614,-2296,-1372,-2124,2819,22,26,916
1388329,875112,1107920,878382,1107758,2143,946,-3066,-964,-2271,-1454,-2334,3018,22,26,916
1389331,875240,1108044,878513,1107889,2145,1024,-3109,-1288,-2206,-1573,-2741,3021,36,33,915
1390332,875376,1108184,878644,1108020,2093,920,-3122,-1627,-2090,-1622,-3193,3155,36,33,915
1391333,875488,1108312,878775,1108151,2252,997,-3087,-1958,-1944,-1709,-3153,3114,16,22,914
1392334,875612,1108460,878906,1108282,2181,864,-3018,-2349,-1822,-1783,-2753,3119,16,22,914
1393335,875724,1108588,879037,1108413,2264,991,-2913,-2768,-1718,-1756,-2635,3164,16,18,915
1394336,875840,1108720,879168,1108544,2247,965,-2777,-3251,-1583,-1666,-2220,3232,16,18,915
1395337,875968,1108852,879299,1108675,2174,965,-2649,-3642,-1416,-1502,-1749,3638,25,20,915
1396337,876108,1108956,879430,1108806,2095,1152,-2537,-3944,-1202,-1377,-1909,3955,25,20,915
1397339,876240,1109076,879561,1108937,2146,1056,-2403,-4191,-971,-1298,-1699,4068,27,32,915
1398340,876388,1109196,879692,1109068,2039,1060,-2227,-4456,-775,-1220,-1064,4212,27,32,915
1399341,876520,1109340,879823,1109199,2139,905,-1776,-4376,-580,-644,-1223,7235,18,21,915
