"Data file recorded 2014/9/22  16:10:18"
"%  Right Stride Frequency         = 3.0"
"%  Left Stride Frequency         = 3.0"
"%  Phase (Fractional)         = 32768.0"
"%  Experiment.py "
"%  Motor Gains    = [1800, 200, 100, 0, 0, 1800, 200, 100, 0, 0]
"% Columns: "
"% time | Right Leg Pos | Left Leg Pos | Commanded Right Leg Pos | Commanded Left Leg Pos | DCR | DCL | GyroX | GryoY | GryoZ | AX | AY | AZ | RBEMF | LBEMF | VBatt "
10861,7038524,7534516,7057136,7548656,3800,3800,-50,193,-235,-263,-121,4092,-4,-7,815
11854,7038488,7534384,7057333,7548853,3800,3800,-54,194,-231,-297,-130,4060,-4,-7,815
12855,7038596,7534460,7057530,7549050,3800,3800,-53,198,-232,-284,-142,4075,-8,7,815
13856,7038688,7534624,7057727,7549247,3800,3800,-49,217,-228,-261,-131,4109,-8,7,815
14857,7038796,7534876,7057924,7549444,3800,3800,-41,198,-238,-302,13,4102,35,32,776
15859,7038984,7534988,7058121,7549641,3800,3800,-38,192,-279,-355,185,4124,40,35,775
16860,7039260,7535088,7058318,7549838,3800,3800,-50,183,-338,-377,124,4079,40,35,775
17861,7039488,7535188,7058515,7550035,3800,3800,-70,167,-405,-403,520,4074,71,55,778
18862,7039752,7535380,7058712,7550232,3800,3800,-88,184,-478,-460,690,4136,71,55,778
19863,7040116,7535608,7058909,7550429,3800,3800,-88,177,-568,-569,806,4107,81,51,779
20864,7040460,7535944,7059106,7550626,3800,3800,-79,179,-677,-720,675,4166,81,51,779
21865,7040788,7536200,7059303,7550823,3800,3800,-59,161,-779,-833,495,4146,88,48,779
22866,7041212,7536388,7059500,7551020,3800,3800,-10,180,-869,-897,465,4188,88,48,779
23866,7041700,7536528,7059697,7551217,3800,3800,57,152,-981,-961,666,4065,96,47,777
24867,7042132,7536652,7059894,7551414,3800,3800,143,120,-1140,-899,863,3978,96,47,777
25868,7042636,7536852,7060091,7551611,3800,3800,234,18,-1345,-831,996,3845,88,43,776
26870,7043220,7537076,7060288,7551808,3800,3800,340,-115,-1560,-795,941,3797,88,43,776
27871,7043736,7537344,7060485,7552005,3800,3800,451,-294,-1760,-705,692,3797,129,46,780
28871,7044268,7537528,7060682,7552202,3800,3800,543,-448,-1891,-544,108,3836,129,46,780
29872,7044876,7537620,7060879,7552399,3800,3800,594,-642,-1952,-429,-224,3698,138,50,781
30873,7045540,7537708,7061076,7552596,3800,3800,592,-891,-2004,-438,201,3543,138,50,781
31874,7046128,7537848,7061273,7552793,3800,3800,588,-1192,-2076,-547,688,3372,133,50,781
32863,7046824,7538072,7061470,7552990,3392,3800,591,-1592,-2165,-623,1083,3219,133,50,781
33864,7047604,7538272,7061667,7553187,2614,3800,640,-1991,-2246,-711,1235,3239,139,50,780
34865,7048252,7538428,7061864,7553384,3242,3800,692,-2386,-2302,-776,1192,3247,139,50,780
35866,7048916,7538532,7062061,7553581,2940,3800,748,-2734,-2357,-809,1153,3355,128,36,785
36867,7049828,7538636,7062258,7553778,1078,3800,781,-3056,-2411,-864,1269,3593,128,36,785
37868,7050512,7538804,7062455,7553975,2292,3800,789,-3244,-2457,-935,1084,3922,148,45,785
38869,7051212,7538960,7062652,7554172,1973,3800,797,-3415,-2487,-1021,796,3884,148,45,785
39870,7052044,7539120,7062849,7554369,871,3800,820,-3546,-2483,-1107,358,4141,154,51,788
40871,7052820,7539292,7063046,7554566,968,3800,849,-3674,-2432,-1174,269,4137,154,51,788
41872,7053568,7539484,7063243,7554763,903,3800,901,-3830,-2369,-1288,533,4032,150,36,791
42873,7054224,7539660,7063440,7554960,1279,3800,935,-3988,-2287,-1289,172,4066,150,36,791
43874,7054972,7539860,7063637,7555157,463,3800,997,-4184,-2170,-1366,7,3901,143,51,792
44875,7055640,7540048,7063834,7555354,757,3800,1073,-4272,-2006,-1570,-35,4222,143,51,792
45876,7056252,7540292,7064031,7555551,927,3800,1184,-4456,-1828,-1621,-35,3825,140,45,792
46877,7056936,7540496,7064228,7555748,265,3800,1285,-4543,-1606,-1492,-332,4327,140,45,792
47878,7057504,7540736,7064425,7555945,828,3800,1390,-4604,-1316,-1603,-912,4219,120,47,791
48878,7058048,7540956,7064622,7556142,826,3800,1467,-4505,-910,-1947,-1475,4951,120,47,791
49880,7058596,7541244,7064819,7556339,648,3800,1551,-4394,-448,-2378,-1277,4711,109,68,792
50881,7059028,7541516,7065016,7556536,1272,3800,1635,-4348,35,-2410,-998,4717,109,68,792
51882,7059488,7541812,7065213,7556733,982,3800,1699,-4186,580,-2380,-856,5059,89,60,794
52883,7059912,7542116,7065410,7556930,1109,3800,1741,-4040,1191,-2519,-560,4992,89,60,794
53884,7060288,7542448,7065607,7557127,1331,3800,1816,-3885,1817,-2771,-473,4988,89,71,793
54885,7060596,7542772,7065804,7557324,1708,3800,1862,-3871,2460,-2767,-356,4938,89,71,793
55886,7060920,7543060,7066001,7557521,1553,3800,1911,-3805,3070,-2384,-266,4761,72,53,791
56887,7061224,7543344,7066198,7557718,1632,3800,1905,-3882,3617,-1798,-138,4284,72,53,791
57888,7061460,7543628,7066395,7557915,2041,3800,1870,-4107,4086,-1085,-118,4181,55,55,789
58889,7061692,7543952,7066592,7558112,2052,3800,1795,-4397,4482,-215,-21,3818,55,55,789
59890,7061988,7544216,7066789,7558309,1609,3800,1677,-4788,4844,667,-162,3601,50,58,788
60891,7062180,7544368,7066986,7558506,2263,3800,1513,-5084,5199,1350,-390,3879,50,58,788
61892,7062276,7544520,7067183,7558703,2908,3800,1318,-5397,5519,1791,-399,3862,33,32,788
62893,7062508,7544708,7067380,7558900,2044,3800,1115,-5516,5788,2385,-452,4447,33,32,788
63894,7062588,7544900,7067577,7559097,3045,3800,868,-5605,5986,3014,-255,4535,25,30,782
64895,7062624,7545092,7067774,7559294,3392,3800,580,-5549,6105,3503,-435,5138,25,30,782
65896,7062788,7545204,7067971,7559491,2607,3800,283,-5475,6140,4001,-405,5173,19,37,780
66897,7062896,7545224,7068168,7559688,2997,3800,11,-5425,6050,4502,132,5100,19,37,780
67897,7062948,7545300,7068365,7559885,3412,3800,-295,-5258,5796,4841,615,5551,38,29,778
68899,7063084,7545436,7068562,7560082,2915,3800,-587,-5006,5411,4837,804,5673,38,29,778
69899,7063248,7545568,7068759,7560279,2755,3800,-888,-4648,4880,4512,1362,6195,46,31,775
70901,7063328,7545688,7068956,7560476,3333,3800,-1182,-4162,4173,4066,2030,6507,46,31,775
71901,7063388,7545820,7069153,7560673,3520,3800,-1463,-3579,3363,3829,2096,6893,39,32,780
72903,7063576,7545840,7069350,7560870,2725,3800,-1677,-2950,2566,3476,1867,6888,39,32,780
73903,7063660,7545812,7069547,7561067,3426,3800,-1817,-2338,1823,3006,1779,6989,29,21,776
74917,7063692,7545896,7069744,7561264,3800,3800,-1859,-1735,1151,2851,1588,6877,29,21,776
75906,7063808,7546016,7069941,7561461,3336,3800,-1870,-1195,532,2687,1355,6627,32,33,776
76907,7063912,7546144,7070138,7561658,3453,3800,-1886,-646,-27,2678,1165,6640,32,33,776
77920,7063944,7546256,7070335,7561855,3800,3800,-1895,-140,-508,2524,836,6554,25,21,775
78921,7064004,7546320,7070532,7562052,3800,3800,-1872,408,-899,2176,380,6822,25,21,775
79909,7064180,7546256,7070729,7562249,3148,3800,-1776,965,-1206,1846,148,6615,28,18,772
80910,7064288,7546292,7070926,7562446,3614,3800,-1617,1442,-1464,1549,114,6310,28,18,772
81911,7064412,7546380,7071123,7562643,3547,3800,-1396,1840,-1691,1118,143,5947,52,18,777
82913,7064640,7546476,7071320,7562840,2885,3800,-1134,2108,-1879,578,-74,5630,52,18,777
83914,7064892,7546568,7071517,7563037,2712,3800,-841,2384,-2014,22,-404,5609,48,21,775
84915,7065036,7546684,7071714,7563234,3411,3800,-538,2629,-2084,-536,-473,5516,48,21,775
85916,7065184,7546692,7071911,7563431,3409,3800,-230,2850,-2069,-868,-1082,5378,47,25,780
86917,7065428,7546668,7072108,7563628,2790,3800,84,2994,-1948,-927,-1717,5087,47,25,780
87918,7065604,7546740,7072305,7563825,3225,3800,391,3041,-1772,-839,-2017,4724,58,23,776
88919,7065824,7546820,7072502,7564022,2941,3800,923,2993,-1368,-1184,-2084,4238,58,23,776
89919,7066096,7546936,7072699,7564219,2585,3800,1145,2971,-1104,-1603,-2200,4512,52,17,777
90921,7066344,7547060,7072896,7564416,2714,3800,1332,3071,-782,-1923,-2355,4696,52,17,777
91922,7066552,7547144,7073093,7564613,2960,3800,1492,3141,-466,-1894,-2429,4401,67,25,780
92930,7066816,7547176,7073520,7565040,2683,3800,1647,3096,-229,-1580,-2387,3907,67,25,780
93924,7067096,7547228,7073717,7565237,2548,3800,1798,2884,-81,-1207,-2216,3290,49,35,779
94925,7067340,7547312,7073914,7565434,2753,3800,1949,2569,18,-1102,-2086,3034,49,35,779
95926,7067604,7547428,7074111,7565631,2600,3800,2074,2315,117,-1376,-2102,3347,72,34,780
96927,7067904,7547552,7074308,7565828,2331,3800,2187,2118,227,-1551,-2096,3326,72,34,780
97928,7068176,7547700,7074505,7566025,2475,3800,2267,1884,308,-1152,-1904,3064,71,34,782
98929,7068464,7547764,7074702,7566222,2336,3800,2296,1628,308,-430,-1571,2826,71,34,782
99930,7068776,7547816,7074899,7566419,2136,3800,2310,1274,238,-66,-1588,2408,67,27,783
100931,7069080,7547920,7075096,7566616,2140,3800,2320,866,160,-215,-1721,2415,67,27,783
101932,7069316,7548028,7075293,7566813,2549,3800,2306,477,84,-241,-1487,2470,69,24,783
102933,7069620,7548136,7075490,7567010,2078,3800,2239,87,-7,294,-1092,2327,69,24,783
103934,7069960,7548264,7075687,7567207,1792,3800,2119,-239,-103,886,-836,2184,80,18,782
104935,7070240,7548360,7075884,7567404,2132,3800,1985,-514,-180,919,-887,2465,80,18,782
105936,7070528,7548412,7076081,7567601,2043,3800,1879,-676,-246,511,-676,2822,49,18,785
106937,7070824,7548488,7076278,7567798,1950,3800,1820,-837,-338,393,-119,2797,49,18,785
107938,7071012,7548600,7076475,7567995,2630,3800,1765,-941,-449,819,223,2921,45,18,784
108939,7071260,7548744,7076672,7568192,2234,3800,1722,-1007,-529,1037,38,2828,45,18,784
109940,7071540,7548896,7076869,7568389,1998,3800,1719,-1126,-540,799,-448,2714,43,23,781
110941,7071740,7549028,7077066,7568586,2498,3800,1746,-1204,-495,532,-486,2898,43,23,781
111942,7071936,7549100,7077263,7568783,2524,3800,1779,-1269,-413,478,-410,2878,58,22,783
112942,7072180,7549180,7077460,7568980,2205,3800,1797,-1227,-347,537,-174,2948,58,22,783
113943,7072416,7549328,7077657,7569177,2239,3800,1797,-1246,-316,394,21,2741,50,33,781
114945,7072612,7549472,7077854,7569374,2490,3800,1780,-1233,-288,339,-101,3049,50,33,781
115946,7072944,7549648,7078051,7569571,1582,3800,1759,-1057,-244,195,-412,3333,54,31,783
116947,7073252,7549772,7078248,7569768,1684,3800,1742,-803,-196,-58,-708,3354,54,31,783
117948,7073544,7549904,7078445,7569965,1743,3800,1708,-597,-182,-67,-592,3257,60,27,786
118949,7073824,7549996,7078642,7570162,1783,3800,1638,-436,-226,64,-296,3125,60,27,786
119950,7074192,7550108,7078839,7570359,1159,3800,1547,-192,-315,39,-221,3239,65,23,786
120951,7074512,7550268,7079036,7570556,1406,3800,1457,80,-400,-55,-587,3192,65,23,786
121952,7074796,7550440,7079233,7570753,1592,3800,1389,342,-432,-134,-1219,3244,74,35,788
122953,7075088,7550628,7079430,7570950,1502,3800,1332,570,-426,-20,-1542,3142,74,35,788
123954,7075432,7550776,7079627,7571147,1113,3800,1280,798,-428,161,-1495,3038,72,33,786
124955,7075760,7550932,7079824,7571344,1156,3800,1228,971,-449,172,-1355,2764,72,33,786
125956,7076036,7551124,7080021,7571541,1448,3800,1197,966,-492,133,-1089,2365,70,43,789
126957,7076340,7551316,7080218,7571738,1226,3800,1176,892,-538,139,-889,2163,70,43,789
127958,7076600,7551524,7080415,7571935,1474,3800,1155,730,-546,328,-1137,1916,55,41,786
128958,7076888,7551724,7080612,7572132,1260,3800,1116,470,-513,434,-814,1686,55,41,786
129960,7077164,7551936,7080809,7572329,1301,3800,1050,123,-462,467,-94,1476,55,52,789
130961,7077412,7552176,7081006,7572526,1454,3800,960,-230,-363,707,159,1436,55,52,789
131962,7077592,7552488,7081203,7572723,1887,3800,856,-561,-197,859,342,1459,47,54,789
132963,7077880,7552748,7081400,7572920,1173,3800,736,-864,33,846,328,1535,47,54,789
133964,7078100,7553000,7081597,7573117,1588,3800,630,-1184,318,826,424,1480,63,64,786
134965,7078280,7553312,7081794,7573314,1847,3800,520,-1519,633,807,627,1524,63,64,786
135966,7078496,7553628,7081991,7573511,1614,3800,380,-1771,950,745,861,1646,55,55,787
136967,7078736,7553952,7082188,7573708,1445,3800,246,-1990,1286,580,987,1724,55,55,787
137967,7078924,7554284,7082385,7573905,1775,3800,122,-2108,1623,368,1135,2025,57,70,789
138969,7079116,7554600,7082582,7574102,1754,3800,15,-2119,1927,156,1365,2314,57,70,789
139970,7079396,7554968,7082779,7574299,1167,3800,-77,-2039,2159,-27,1700,2587,40,70,787
140971,7079592,7555348,7082976,7574496,1694,3800,-148,-1909,2315,-243,2066,2811,40,70,787
141972,7079756,7555728,7083173,7574693,1909,3800,-219,-1731,2408,-360,2588,3023,56,72,790
142973,7080000,7556092,7083370,7574890,1388,3800,-291,-1459,2458,-308,3148,3304,56,72,790
143974,7080200,7556600,7083567,7575087,1663,3800,-375,-1050,2481,-278,3625,3623,42,76,789
144974,7080396,7557036,7083764,7575284,1690,3800,-485,-557,2484,-210,3957,3883,42,76,789
145975,7080616,7557448,7083961,7575481,1529,3800,-606,-64,2498,28,4041,4008,43,88,789
146977,7080876,7557992,7084158,7575678,1253,3800,-735,417,2527,348,4113,4086,43,88,789
147978,7081096,7558500,7084355,7575875,1493,3800,-861,890,2541,670,4135,4025,42,94,791
148979,7081336,7559156,7084552,7576072,1350,3800,-983,1317,2546,961,3887,3897,42,94,791
149980,7081644,7559736,7084749,7576269,877,3800,-1099,1624,2515,1154,3557,3439,42,106,792
150981,7081904,7560368,7084946,7576466,1149,3800,-1197,1796,2463,1470,2891,3227,42,106,792
151982,7082136,7561088,7085143,7576663,1310,3800,-1267,1935,2395,1724,2246,3049,62,127,795
152983,7082404,7561732,7085340,7576860,1054,3800,-1307,1912,2292,1745,1837,2515,62,127,795
153971,7082684,7562500,7085537,7577057,943,3286,-1300,1709,2142,1895,1564,2121,60,126,794
154972,7082920,7563260,7085734,7577254,1202,3091,-1255,1364,1950,2079,1404,1722,60,126,794
155973,7083152,7564012,7085931,7577451,1212,2900,-1216,948,1704,2157,1284,1494,45,142,797
156974,7083400,7564812,7086128,7577648,1090,2337,-1191,575,1454,2245,900,1572,45,142,797
157975,7083592,7565540,7086325,7577845,1443,2557,-1180,283,1233,2274,704,1723,43,135,798
158976,7083780,7566280,7086522,7578042,1472,2245,-1200,116,1047,2420,387,2022,43,135,798
159977,7083996,7567064,7086719,7578239,1289,1714,-1248,73,887,2483,-7,2321,55,157,800
160978,7084216,7567820,7086916,7578436,1255,1646,-1330,123,747,2370,-172,2578,55,157,800
161979,7084336,7568568,7087113,7578633,1914,1456,-1443,350,640,2215,-535,3191,54,150,803
162980,7084580,7569368,7087310,7578830,1119,868,-1591,899,560,1885,-947,3964,54,150,803
163981,7084748,7570000,7087507,7579027,1607,1728,-1711,1513,450,1684,-725,3775,37,129,802
164982,7084924,7570680,7087704,7579224,1567,1218,-1794,2069,296,1576,-645,3637,37,129,802
165983,7085128,7571352,7087901,7579421,1389,1061,-1822,2544,116,1494,-738,3471,29,130,803
166984,7085308,7571948,7088098,7579618,1548,1362,-1814,2916,-80,1526,-840,3126,29,130,803
167985,7085468,7572440,7088295,7579815,1689,1884,-1776,3228,-240,1561,-996,2929,31,99,803
168986,7085692,7572872,7088492,7580012,1278,2157,-1762,3613,-359,1551,-866,3079,31,99,803
169987,7085888,7573332,7088689,7580209,1453,1868,-1759,4038,-435,1496,-1159,3106,37,87,801
170988,7086056,7573808,7088886,7580406,1642,1647,-1812,4516,-488,1537,-1317,3417,37,87,801
171989,7086224,7574172,7089083,7580603,1655,2275,-1901,4898,-570,1700,-640,2990,50,68,801
172990,7086452,7574588,7089280,7580800,1267,1854,-1936,4866,-784,1935,-96,1356,50,68,801
173991,7086628,7574924,7089477,7580997,1603,2294,-1872,4449,-1079,2254,-1075,537,44,79,799
174992,7086800,7575240,7089674,7581194,1638,2368,-1780,3875,-1394,2491,-1728,159,44,79,799
176000,7087056,7575512,7089904,7581424,1103,2627,-1751,3390,-1704,2432,-2088,356,33,62,800
176994,7087204,7575816,7090101,7581621,1800,2381,-1809,3089,-1969,2146,-2385,789,33,62,800
177995,7087340,7576132,7090298,7581818,1902,2254,-1940,2989,-2170,1865,-2961,1475,22,52,797
178996,7087540,7576388,7090495,7582015,1501,2604,-2118,3100,-2301,1586,-3303,2180,22,52,797
179997,7087644,7576568,7090692,7582212,2143,3088,-2300,3369,-2370,1482,-3524,2601,28,45,795
180998,7087768,7576748,7090889,7582409,2050,3096,-2485,3652,-2460,1371,-3508,2656,28,45,795
181999,7087964,7576904,7091086,7582606,1601,3265,-2690,3860,-2610,1150,-3189,2676,26,40,792
183000,7088084,7577176,7091283,7582803,2111,2508,-2876,3921,-2774,1001,-3331,2527,26,40,792
184001,7088188,7577444,7091480,7583000,2252,2503,-3034,3921,-2890,980,-3692,2506,40,39,791
185002,7088404,7577640,7091677,7583197,1545,2955,-3120,3796,-2935,1032,-3592,2252,40,39,791
186003,7088540,7577828,7091874,7583394,2072,3009,-3172,3518,-2923,1143,-3508,1959,45,35,793
187004,7088600,7578024,7092071,7583591,2608,2961,-3182,3052,-2858,1137,-3366,1630,45,35,793
188005,7088864,7578212,7092268,7583788,1304,3017,-3194,2522,-2715,1093,-3021,1612,38,56,791
189006,7089004,7578460,7092465,7583985,2104,2620,-3484,2363,-2337,1437,-3024,3493,38,56,791
190007,7089108,7578780,7092662,7584182,2371,2117,-4003,2427,-1745,1187,-3350,3700,31,58,791
191008,7089264,7579048,7092859,7584379,2065,2412,-4444,2407,-1273,985,-1875,3434,31,58,791
192009,7089508,7579292,7093056,7584576,1495,2543,-4693,2048,-1020,945,-259,2970,39,50,794
193010,7089644,7579552,7093253,7584773,2197,2416,-4884,1584,-750,768,-792,3362,39,50,794
194011,7089784,7579824,7093450,7584970,2199,2309,-5232,1419,-339,545,-1003,4631,24,63,796
195012,7090000,7580104,7093647,7585167,1715,2223,-5638,1544,93,366,-415,5245,24,63,796
196013,7090144,7580372,7093844,7585364,2189,2268,-5848,1617,448,143,121,4801,32,48,794
197014,7090268,7580616,7094041,7585561,2348,2399,-5782,1360,739,-208,205,4382,32,48,794
198015,7090520,7580832,7094238,7585758,1524,2566,-5567,945,903,-626,353,4714,32,44,794
199016,7090696,7581044,7094435,7585955,2009,2585,-5339,668,924,-1016,376,5378,32,44,794
200017,7090824,7581264,7094632,7586152,2340,2526,-5157,705,848,-1196,68,6442,49,41,795
201018,7091048,7581504,7094829,7586349,1729,2383,-5011,958,747,-1391,-228,7159,49,41,795
202019,7091260,7581732,7095026,7586546,1797,2445,-3510,1679,754,-2629,-1225,17607,32,53,792
203020,7091380,7582000,7095223,7586743,2407,2165,3927,5541,1402,-5006,-3093,32767,32,53,792
204021,7091568,7582188,7095420,7586940,1987,2670,9841,9833,2001,-341,-3405,32767,29,40,796
205022,7091736,7582408,7095617,7587137,2126,2461,10071,11137,2271,-741,-2283,7789,29,40,796
206023,7091900,7582624,7095814,7587334,2166,2478,8197,10384,2070,-413,-444,4694,50,54,793
207024,7092016,7582848,7096011,7587531,2502,2417,6983,8460,1629,-308,590,1549,50,54,793
208025,7092248,7583088,7096208,7587728,1763,2300,6597,6183,1320,-880,180,715,31,39,793
209026,7092400,7583296,7096405,7587925,2284,2496,6233,3973,1204,-288,12,919,31,39,793
210027,7092512,7583500,7096602,7588122,2571,2518,5623,2426,1142,20,652,2058,33,38,795
211028,7092732,7583732,7096799,7588319,1887,2328,4950,1209,1039,279,948,1784,33,38,795
212029,7092900,7583940,7096996,7588516,2226,2474,4452,2,732,544,1573,1421,43,50,790
213030,7092980,7584188,7097193,7588713,2828,2203,4262,-1540,340,410,2195,532,43,50,790
214031,7093116,7584432,7097390,7588910,2506,2208,4162,-2886,57,530,2073,1824,38,43,793
215032,7093268,7584700,7097587,7589107,2425,2028,4055,-3888,-83,435,1911,2354,38,43,793
216033,7093376,7584912,7097784,7589304,2741,2373,3928,-4493,-85,20,1722,3415,27,46,792
217034,7093464,7585156,7097981,7589501,2915,2152,3805,-4845,-64,-278,1682,3782,27,46,792
218035,7093612,7585396,7098178,7589698,2562,2159,3753,-5073,-68,-788,2003,4079,35,55,792
219036,7093728,7585636,7098375,7589895,2799,2141,3809,-5072,-83,-1535,2361,4697,35,55,792
220037,7093792,7585896,7098572,7590092,3183,1989,3895,-4959,-105,-2052,2502,4787,40,46,792
221038,7093916,7586136,7098769,7590289,2841,2097,3971,-4658,-46,-2551,2529,5258,40,46,792
222040,7094104,7586356,7098966,7590486,2445,2211,4032,-4235,102,-2961,2528,5327,29,52,790
223040,7094228,7586648,7099163,7590683,2878,1721,4080,-3752,259,-3301,2187,5422,29,52,790
224041,7094404,7586912,7099360,7590880,2563,1867,4114,-3225,466,-3526,1571,5494,47,49,791
225042,7094584,7587168,7099557,7591077,2547,1892,4147,-2578,748,-3379,985,5610,47,49,791
226043,7094720,7587448,7099754,7591274,2850,1707,4156,-1843,1098,-3249,777,5505,37,50,794
227044,7094876,7587672,7099951,7591471,2744,2045,4156,-1126,1491,-3275,807,5295,37,50,794
228045,7095044,7587860,7100148,7591668,2682,2275,4156,-474,1819,-3190,934,4909,35,33,793
229046,7095180,7587976,7100345,7591865,2910,2762,4199,32,2060,-3025,875,4412,35,33,793
230047,7095296,7588104,7100542,7592062,3072,2717,4271,489,2211,-2683,882,4081,44,31,791
231048,7095452,7588208,7100739,7592259,2841,2909,4305,796,2278,-2249,1213,3397,44,31,791
232049,7095612,7588324,7100936,7592456,2833,2870,4252,1006,2221,-2062,2194,3088,29,44,786
233050,7095700,7588528,7101133,7592653,3332,2318,4113,1142,2000,-1741,2493,2665,29,44,786
234051,7095876,7588784,7101330,7592850,2792,1968,3932,1156,1703,-1195,1691,2367,28,48,785
235052,7096028,7589044,7101527,7593047,2963,1916,3718,1242,1454,-583,1214,2468,28,48,785
236053,7096144,7589396,7101724,7593244,3225,1274,3450,1290,1346,152,876,2189,35,66,789
237054,7096276,7589612,7101921,7593441,3154,2116,3134,1327,1410,771,733,2172,35,66,789
238055,7096440,7589892,7102118,7593638,2970,1681,2750,1202,1552,1119,1271,1687,26,59,792
239056,7096596,7590188,7102315,7593835,3039,1537,2359,948,1582,1251,2224,1186,26,59,792
240057,7096764,7590504,7102512,7594032,2978,1361,1990,514,1394,1189,2968,691,29,58,791
241058,7096924,7590820,7102709,7594229,3046,1310,1632,-14,999,1152,3201,328,29,58,791
242059,7097104,7591152,7102906,7594426,2929,1150,1254,-509,526,1230,2534,388,37,73,793
243060,7097260,7591448,7103103,7594623,3098,1333,883,-888,124,1312,1784,643,37,73,793
244061,7097440,7591708,7103300,7594820,2957,1531,531,-1070,-191,1271,1317,1193,32,55,794
245062,7097632,7592024,7103497,7595017,2885,1129,195,-1000,-399,1239,832,1818,32,55,794
246063,7097812,7592456,7103694,7595214,2968,302,-156,-644,-544,1066,814,2446,48,60,792
247064,7097984,7592820,7103891,7595411,3030,653,-572,-155,-740,774,1455,2662,48,60,792
248065,7098164,7593120,7104088,7595608,2989,1009,-1037,365,-1037,542,1824,2734,33,64,797
249066,7098364,7593440,7104285,7595805,2865,830,-1494,907,-1389,473,1474,2824,33,64,797
250067,7098548,7593816,7104482,7596002,2971,402,-1871,1456,-1721,378,910,2854,55,70,795
251068,7098744,7594180,7104679,7596199,2898,404,-2189,2070,-2028,287,693,2980,55,70,795
252069,7098968,7594440,7104876,7596396,2712,1026,-2489,2656,-2336,288,540,2833,39,63,797
253070,7099160,7594748,7105073,7596593,2915,678,-2768,3249,-2634,347,404,2801,39,63,797
254071,7099372,7595032,7105270,7596790,2784,790,-3002,3744,-2877,432,314,2375,44,50,797
255072,7099572,7595296,7105467,7596987,2859,886,-3214,4091,-3043,609,220,2119,44,50,797
256073,7099796,7595528,7105664,7597184,2698,1071,-3401,4283,-3164,760,462,1683,54,46,796
257074,7099988,7595724,7105861,7597381,2902,1297,-3570,4348,-3272,818,874,1399,54,46,796
258075,7100184,7595900,7106058,7597578,2879,1431,-3743,4455,-3347,909,683,1560,31,39,796
259085,7100392,7596088,7106288,7597808,2815,1375,-3937,4528,-3362,934,152,1449,31,39,796
260077,7100620,7596328,7106485,7598005,2677,1031,-4146,4580,-3334,951,-365,1527,57,35,794
261078,7100812,7596500,7106682,7598202,2905,1467,-4347,4641,-3344,810,-485,1614,57,35,794
262079,7101028,7596644,7106879,7598399,2748,1667,-4519,4681,-3455,460,-561,1584,39,27,795
263080,7101220,7596776,7107076,7598596,2901,1770,-4672,4790,-3684,55,-572,1865,39,27,795
264081,7101424,7596964,7107273,7598793,2824,1424,-4808,4895,-4006,-402,-280,1829,37,44,793
265082,7101624,7597104,7107470,7598990,2850,1750,-4964,5006,-4417,-687,79,2057,37,44,793
266083,7101772,7597300,7107667,7599187,3197,1401,-5140,5128,-4894,-944,-274,2173,49,29,792
267084,7101968,7597460,7107864,7599384,2899,1642,-5320,5197,-5388,-1126,-749,2250,49,29,792
268085,7102160,7597572,7108061,7599581,2927,1980,-5470,5298,-5838,-1179,-1221,2418,35,26,792
269086,7102332,7597732,7108258,7599778,3064,1697,-5579,5372,-6171,-1312,-1745,2527,35,26,792
270087,7102516,7597948,7108455,7599975,2995,1339,-5662,5485,-6380,-1450,-2366,2726,34,30,792
271088,7102712,7598128,7108652,7600172,2922,1572,-5737,5554,-6485,-1607,-2791,2757,34,30,792
272089,7102904,7598332,7108849,7600369,2950,1419,-5807,5596,-6498,-1743,-3088,3052,52,42,791
273090,7103096,7598456,7109046,7600566,2954,1952,-5828,5501,-6433,-1820,-3426,2714,52,42,791
274091,7103292,7598496,7109243,7600763,2931,2546,-5761,5188,-6308,-1992,-3604,2331,45,21,792
275092,7103468,7598632,7109440,7600960,3066,1974,-5632,4731,-6134,-2145,-3864,2198,45,21,792
276093,7103692,7598840,7109637,7601157,2755,1519,-5462,4091,-5934,-2262,-4143,1921,45,32,791
277094,7103924,7599016,7109834,7601354,2691,1728,-5266,3415,-5694,-2524,-4386,2050,45,32,791
278095,7104136,7599228,7110031,7601551,2810,1497,-5027,2673,-5402,-2729,-4694,1996,42,47,789
279097,7104344,7599404,7110228,7601748,2831,1732,-4756,1889,-5053,-2812,-4839,2131,42,47,789
280097,7104592,7599536,7110425,7601945,2560,2036,-4490,1175,-4640,-2883,-4783,2624,43,47,793
281098,7104820,7599680,7110622,7602142,2673,1984,-4258,560,-4187,-2939,-4551,3087,43,47,793
282099,7105064,7599860,7110819,7602339,2554,1768,-4065,16,-3736,-3024,-4022,3504,44,46,793
283101,7105364,7600052,7111016,7602536,2159,1695,-3875,-444,-3343,-3239,-3172,3941,44,46,793
284101,7105656,7600260,7111213,7602733,2169,1591,-3699,-803,-3010,-3294,-2412,4471,51,31,793
285102,7105916,7600420,7111410,7602930,2342,1908,-3556,-1086,-2719,-3291,-1660,4983,51,31,793
286103,7106208,7600540,7111607,7603127,2101,2192,-3424,-1240,-2446,-3251,-1350,5695,60,32,797
287104,7106528,7600672,7111804,7603324,1873,2146,-3265,-1254,-2181,-3154,-918,6128,60,32,797
288105,7106816,7600856,7112001,7603521,2034,1828,-3094,-1237,-1924,-2873,-442,6412,57,36,795
289106,7107156,7601028,7112198,7603718,1647,1914,-2787,-1222,-1671,-2237,-354,7421,57,36,795
290107,7107476,7601196,7112395,7603915,1719,1952,378,-385,-1765,2618,76,32767,75,44,795
291108,7107808,7601304,7112592,7604112,1586,2366,4443,954,-1956,2418,-450,32015,75,44,795
292109,7108132,7601400,7112789,7604309,1581,2487,5748,1263,-1697,-859,-641,6772,57,41,799
293110,7108484,7601536,7112986,7604506,1339,2264,5126,1150,-1216,-757,-413,7045,57,41,799
294111,7108828,7601696,7113183,7604703,1325,2131,4407,900,-866,-705,99,5917,62,25,796
295112,7109112,7601836,7113380,7604900,1662,2281,4117,542,-719,-651,319,5493,62,25,796
296113,7109456,7602020,7113577,7605097,1223,2013,4118,180,-722,-407,370,4624,74,22,798
297114,7109804,7602116,7113774,7605294,1133,2608,4093,-537,-823,-165,636,3909,74,22,798
298115,7110084,7602216,7113971,7605491,1523,2626,3974,-1172,-982,-34,694,3979,72,22,797
299116,7110388,7602336,7114168,7605688,1326,2536,3824,-1916,-1146,228,705,3602,72,22,797
300117,7110728,7602464,7114365,7605885,1039,2516,3718,-2466,-1267,582,464,4153,55,32,797
301118,7111000,7602596,7114562,7606082,1432,2520,3605,-2926,-1331,757,286,4035,55,32,797
302119,7111272,7602780,7114759,7606279,1400,2202,3477,-3272,-1385,861,166,4235,60,29,795
303120,7111592,7602900,7114956,7606476,1046,2636,3341,-3665,-1467,769,152,4002,60,29,795
304121,7111868,7603004,7115153,7606673,1287,2778,3258,-4072,-1588,602,109,3865,60,32,796
305122,7112076,7603100,7115350,7606870,1707,2873,3221,-4456,-1727,355,30,3754,60,32,796
306123,7112372,7603260,7115547,7607067,1115,2489,3240,-4871,-1830,115,-167,3607,51,34,797
307124,7112616,7603412,7115744,7607264,1420,2560,3298,-5141,-1892,-179,-295,3724,51,34,797
308125,7112824,7603600,7115941,7607461,1640,2340,3373,-5380,-1913,-437,-353,3654,54,33,793
309126,7113108,7603708,7116138,7607658,1128,2880,3459,-5486,-1879,-676,-508,3972,54,33,793
310127,7113376,7603820,7116335,7607855,1197,2893,3561,-5470,-1788,-1060,-506,3996,55,24,796
311128,7113576,7603932,7116532,7608052,1622,2931,3655,-5325,-1640,-1355,-484,4395,55,24,796
312129,7113820,7604096,7116729,7608249,1327,2622,3742,-5028,-1428,-1561,-469,4688,46,35,794
313130,7114104,7604292,7116926,7608446,1039,2423,3835,-4602,-1155,-1785,-438,4707,46,35,794
314131,7114364,7604468,7117123,7608643,1162,2558,3940,-4097,-841,-2004,-258,4814,54,32,793
315132,7114616,7604644,7117320,7608840,1188,2567,4057,-3651,-517,-2222,-46,4591,54,32,793
316133,7114888,7604788,7117517,7609037,1031,2792,4183,-3239,-205,-2292,225,4285,64,29,799
317134,7115168,7604944,7117714,7609234,944,2736,4309,-2867,109,-2249,528,3920,64,29,799
318135,7115424,7605128,7117911,7609431,1069,2567,4408,-2579,438,-2184,818,3583,62,42,797
319136,7115724,7605348,7118108,7609628,749,2333,4484,-2386,776,-2100,1007,3114,62,42,797
320137,7115968,7605560,7118305,7609825,1080,2377,4529,-2281,1104,-1933,1245,2673,59,31,797
321138,7116180,7605776,7118502,7610022,1273,2344,4555,-2264,1410,-1684,1474,2299,59,31,797
322139,7116488,7605944,7118699,7610219,624,2658,4554,-2362,1687,-1464,1717,1923,61,37,799
323140,7116740,7606132,7118896,7610416,951,2538,4533,-2522,1910,-1199,2039,1519,61,37,799
324141,7116944,7606320,7119093,7610613,1248,2543,4465,-2793,2096,-861,2216,1176,58,32,798
325142,7117132,7606504,7119290,7610810,1353,2574,4336,-3152,2255,-391,2087,936,58,32,798
326143,7117372,7606736,7119487,7611007,1009,2259,4161,-3483,2406,13,1878,836,54,53,799
327144,7117556,7606948,7119684,7611204,1366,2379,3928,-3855,2563,427,1610,658,54,53,799
328145,7117724,7607152,7119881,7611401,1478,2427,3640,-4218,2747,894,1335,725,30,55,796
329146,7117952,7607380,7120078,7611598,1090,2264,3289,-4534,2958,1244,1238,794,30,55,796
330147,7118140,7607580,7120275,7611795,1345,2439,2913,-4803,3158,1536,1339,783,30,46,798
331148,7118268,7607844,7120472,7611992,1750,2009,2512,-5086,3305,1700,1482,789,30,46,798
332149,7118484,7608068,7120669,7612189,1193,2248,2095,-5348,3379,1901,1634,786,26,38,799
333150,7118632,7608244,7120866,7612386,1639,2559,1667,-5655,3368,2103,1667,700,26,38,799
334151,7118756,7608416,7121063,7612583,1821,2596,1228,-5921,3275,2265,1605,748,45,47,796
335152,7118988,7608612,7121260,7612780,1132,2446,782,-6137,3141,2435,1444,883,45,47,796
336153,7119096,7608784,7121457,7612977,1946,2608,328,-6275,3000,2622,1106,1159,24,38,794
337154,7119196,7609008,7121654,7613174,2040,2272,-119,-6293,2892,2756,799,1516,24,38,794
338155,7119416,7609148,7121851,7613371,1280,2823,-558,-6109,2805,2839,534,2009,24,36,798
339156,7119544,7609300,7122048,7613568,1886,2769,-1002,-5833,2713,2888,419,2339,24,36,798
340157,7119628,7609388,7122245,7613765,2211,3217,-1467,-5407,2612,2958,228,2868,38,23,794
341158,7119832,7609560,7122442,7613962,1458,2704,-1932,-4859,2487,3005,98,3177,38,23,794
342166,7119976,7609728,7122672,7614192,1871,2757,-2396,-4297,2317,3069,-20,3382,26,37,792
343160,7120088,7609888,7122869,7614389,2110,2824,-2847,-3702,2105,3087,-157,3503,26,37,792
344161,7120200,7610032,7123066,7614586,2147,2949,-3280,-3085,1850,3083,-232,3529,39,21,793
345162,7120460,7610104,7123263,7614783,1195,3455,-3680,-2476,1557,3066,-333,3560,39,21,793
346163,7120604,7610216,7123460,7614980,1944,3243,-4020,-1947,1262,3151,-572,3451,36,31,788
347164,7120696,7610348,7123657,7615177,2316,3148,-4307,-1457,949,3230,-736,3431,36,31,788
348165,7121000,7610508,7123854,7615374,944,2989,-4541,-1037,643,3293,-890,3271,29,40,790
349166,7121148,7610632,7124051,7615571,1941,3247,-4730,-690,326,3295,-985,3312,29,40,790
350167,7121284,7610852,7124248,7615768,2043,2638,-4877,-333,15,3257,-1066,3489,43,37,788
351168,7121532,7610920,7124445,7615965,1322,3646,-4975,94,-264,3157,-1226,3648,43,37,788
352169,7121724,7611048,7124642,7616162,1675,3302,-5011,527,-504,2931,-1373,3832,43,24,789
353170,7121876,7611196,7124839,7616359,1945,3199,-4988,956,-707,2672,-1501,4044,43,24,789
354171,7122080,7611336,7125036,7616556,1618,3275,-4901,1375,-887,2423,-1573,4051,31,29,789
355172,7122320,7611496,7125233,7616753,1374,3168,-4768,1751,-1077,2220,-1468,4030,31,29,789
356173,7122488,7611616,7125430,7616950,1837,3453,-4595,2050,-1254,1969,-1547,4130,53,35,787
357174,7122652,7611732,7125627,7617147,1877,3514,-4384,2395,-1403,1618,-1622,4288,53,35,787
358175,7122916,7611828,7125824,7617344,1223,3685,-4142,2672,-1533,1162,-1431,4300,52,32,792
359176,7123100,7611976,7126021,7617541,1730,3382,-3886,2981,-1643,755,-1090,4553,52,32,792
360177,7123224,7612128,7126218,7617738,2137,3378,-3623,3327,-1743,396,-780,4695,34,33,787
361178,7123492,7612316,7126415,7617935,1207,3158,-3347,3666,-1810,-49,-663,4878,34,33,787
362179,7123660,7612440,7126612,7618132,1845,3591,-3075,3971,-1821,-496,-631,5011,56,23,788
363193,7123808,7612536,7126809,7618329,1992,3800,-2800,4270,-1781,-884,-666,5070,56,23,788
364194,7124060,7612640,7127006,7618526,1318,3800,-2512,4518,-1710,-1224,-622,5167,52,27,792
365182,7124260,7612824,7127203,7618723,1643,3311,-2197,4681,-1604,-1556,-649,5045,52,27,792
366183,7124432,7613000,7127400,7618920,1829,3371,-1860,4816,-1461,-1844,-742,4983,52,24,784
367184,7124584,7613176,7127597,7619117,1975,3381,-1523,4857,-1282,-2025,-810,4908,52,24,784
368185,7124836,7613352,7127794,7619314,1326,3392,-1187,4798,-1071,-2153,-723,4730,39,46,789
369186,7124992,7613536,7127991,7619511,1944,3348,-873,4723,-865,-2380,-498,4759,39,46,789
370187,7125144,7613668,7128188,7619708,1990,3703,-598,4615,-698,-2681,-209,4802,53,32,787
371188,7125364,7613872,7128385,7619905,1555,3252,-360,4435,-558,-2875,-181,4754,53,32,787
372189,7125548,7614068,7128582,7620102,1787,3303,-134,4272,-394,-2887,-506,4810,47,47,787
373190,7125704,7614264,7128779,7620299,1980,3305,102,4051,-173,-2875,-599,4707,47,47,787
374191,7125900,7614472,7128976,7620496,1731,3226,346,3724,53,-3000,-276,4451,36,43,790
375192,7126084,7614648,7129173,7620693,1813,3436,571,3275,291,-3068,-154,4277,36,43,790
376193,7126204,7614840,7129370,7620890,2247,3339,735,2923,594,-2971,-450,4753,40,37,788
377194,7126376,7615044,7129567,7621087,1934,3262,849,2073,994,-3773,-557,3703,40,37,788
378195,7126584,7615288,7129764,7621284,1704,2993,992,98,1402,-4471,-398,2078,31,59,787
379196,7126740,7615524,7129961,7621481,2048,3027,1063,-1850,1784,-4358,-451,3820,31,59,787
380197,7126868,7615768,7130158,7621678,2254,2958,1058,-2555,2134,-3234,-310,5825,47,37,789
381198,7127064,7615988,7130355,7621875,1830,3099,955,-1957,2446,-2591,-223,7310,47,37,789
382199,7127220,7616192,7130552,7622072,2099,3196,878,-1458,2654,-2503,155,6076,51,57,789
383200,7127368,7616424,7130749,7622269,2171,3007,835,-1389,2722,-2652,473,6088,51,57,789
384201,7127556,7616640,7130946,7622466,1925,3100,828,-1492,2729,-2430,726,5944,47,38,791
385202,7127720,7616856,7131143,7622663,2091,3092,810,-1570,2705,-1979,1034,5909,47,38,791
386203,7127828,7617112,7131340,7622860,2480,2818,772,-1488,2689,-1863,1195,6312,24,42,787
387204,7127960,7617296,7131537,7623057,2359,3275,793,-1568,2709,-1600,1129,5717,24,42,787
388205,7128132,7617456,7131734,7623254,2121,3442,839,-1633,2760,-1040,682,5943,25,47,788
389206,7128236,7617676,7131931,7623451,2587,3058,912,-1765,2842,-612,315,5326,25,47,788
390207,7128352,7617928,7132128,7623648,2549,2835,1007,-1945,2888,-486,71,5226,27,54,785
391208,7128544,7618156,7132325,7623845,2077,2973,1128,-2318,2884,-334,131,4708,27,54,785
392209,7128684,7618384,7132522,7624042,2428,2960,1237,-2718,2875,6,149,4916,32,52,786
393210,7128800,7618580,7132719,7624239,2614,3161,1335,-2996,2860,233,179,4808,32,52,786
394211,7128972,7618772,7132916,7624436,2276,3190,1434,-3288,2800,98,178,4831,28,55,789
395212,7129124,7618988,7133113,7624633,2421,3032,1535,-3467,2687,76,145,5198,28,55,789
396213,7129216,7619232,7133310,7624830,2844,2838,1624,-3573,2544,236,39,5327,43,56,786
397214,7129376,7619436,7133507,7625027,2435,3086,1704,-3422,2412,173,-50,5875,43,56,786
398215,7129548,7619704,7133704,7625224,2372,2656,1785,-3320,2284,-26,36,5719,50,53,788
399216,7129688,7619892,7133901,7625421,2598,3161,1847,-3150,2160,-65,18,6053,50,53,788
400217,7129800,7620120,7134098,7625618,2811,2899,1884,-2865,2035,-55,48,6043,34,44,786
401218,7130008,7620340,7134295,7625815,2207,2940,1915,-2533,1901,-108,15,6057,34,44,786
402219,7130160,7620560,7134492,7626012,2577,2930,1968,-2250,1766,-255,92,5940,43,47,786
403220,7130316,7620780,7134689,7626209,2571,2921,2049,-2031,1688,-326,54,5769,43,47,786
404221,7130512,7621020,7134886,7626406,2323,2778,2116,-1680,1685,-307,177,5880,44,42,789
405222,7130692,7621236,7135083,7626603,2431,2921,2185,-1384,1747,-358,127,5567,44,42,789
406223,7130824,7621448,7135280,7626800,2761,2940,2259,-1114,1834,-449,-32,5476,45,45,788
407224,7131004,7621688,7135477,7626997,2469,2748,2358,-915,1935,-435,-15,5042,45,45,788
408225,7131192,7621936,7135674,7627194,2423,2676,2471,-734,2035,-343,98,4894,55,45,789
409226,7131368,7622200,7135871,7627391,2508,2548,2582,-607,2123,-263,430,4599,55,45,789
410227,7131540,7622456,7136068,7627588,2545,2573,2683,-530,2212,-235,747,4437,36,61,788
411228,7131748,7622708,7136265,7627785,2317,2575,2757,-408,2326,-212,807,4400,36,61,788
412229,7131948,7622988,7136462,7627982,2366,2364,2802,-288,2451,-120,675,4287,53,59,789
413230,7132120,7623324,7136659,7628179,2553,1954,2829,-182,2525,-33,572,4129,53,59,789
414231,7132308,7623612,7136856,7628376,2458,2215,2831,-80,2531,84,679,3945,39,70,791
415232,7132504,7623892,7137053,7628573,2409,2230,2803,-22,2487,295,735,3815,39,70,791
416233,7132740,7624176,7137250,7628770,2142,2167,2759,75,2440,516,313,3699,38,56,793
417234,7132936,7624548,7137447,7628967,2394,1540,2706,225,2415,578,-63,3810,38,56,793
418235,7133132,7624912,7137644,7629164,2395,1518,2647,401,2379,582,-432,3705,55,74,793
419236,7133356,7625252,7137841,7629361,2209,1606,2586,499,2276,645,-374,3436,55,74,793
420237,7133540,7625552,7138038,7629558,2466,1812,2507,540,2087,933,-263,3220,37,57,797
421238,7133764,7625952,7138235,7629755,2205,1099,2430,469,1854,1223,-258,2708,37,57,797
422239,7134000,7626324,7138432,7629952,2113,1197,2351,345,1632,1412,-388,2523,49,59,796
423240,7134208,7626616,7138629,7630149,2284,1656,2261,148,1440,1523,-517,2242,49,59,796
424241,7134420,7626924,7138826,7630346,2254,1508,2135,-60,1295,1641,-541,2152,36,54,799
425249,7134660,7627256,7139056,7630576,2075,1313,1985,-257,1177,1696,-439,1930,36,54,799
426243,7134848,7627612,7139253,7630773,2405,1095,1832,-501,1066,1712,-311,1823,54,61,797
427244,7135048,7627976,7139450,7630970,2330,972,1698,-763,977,1818,-254,1746,54,61,797
428245,7135244,7628236,7139647,7631167,2356,1595,1584,-1008,952,1975,-303,1734,54,62,799
429246,7135508,7628476,7139844,7631364,1902,1702,1494,-1130,981,2025,-248,1891,54,62,799
430247,7135736,7628824,7140041,7631561,2114,960,1410,-1167,1043,1909,-33,2051,56,53,799
431248,7135948,7629132,7140238,7631758,2209,1163,1326,-1167,1099,1857,258,2101,56,53,799
432249,7136172,7629452,7140435,7631955,2123,1033,1224,-1130,1101,1790,650,2166,32,63,797
433250,7136340,7629716,7140632,7632152,2487,1355,1118,-1013,1044,1661,1100,2344,32,63,797
434251,7136524,7629936,7140829,7632349,2392,1620,1028,-832,953,1540,1156,2536,36,49,798
435252,7136692,7630236,7141026,7632546,2506,1076,955,-521,871,1473,1051,2853,36,49,798
436253,7136916,7630508,7141223,7632743,2145,1218,890,-88,820,1534,886,3076,47,64,797
437254,7137124,7630808,7141420,7632940,2241,998,803,423,780,1616,800,3161,47,64,797
438255,7137348,7631104,7141617,7633137,2131,980,708,880,778,1645,541,3107,29,48,798
439256,7137528,7631360,7141814,7633334,2414,1204,623,1310,772,1668,560,3009,29,48,798
440257,7137740,7631624,7142011,7633531,2207,1126,538,1763,712,1674,776,2940,54,52,799
441258,7137984,7631872,7142208,7633728,1988,1203,414,2272,622,1901,627,3070,54,52,799
442259,7138224,7632136,7142405,7633925,1995,1074,252,2759,529,2075,327,2905,46,57,798
443260,7138496,7632428,7142602,7634122,1763,858,80,3263,419,2030,355,2983,46,57,798
444261,7138816,7632624,7142799,7634319,1410,1458,-89,3757,228,1947,734,2745,46,46,799
445262,7139096,7632864,7142996,7634516,1623,1164,-261,4081,-84,1946,933,2375,46,46,799
446263,7139344,7633108,7143193,7634713,1802,1120,-432,4300,-449,2025,693,2153,57,44,803
447264,7139644,7633336,7143390,7634910,1433,1206,-591,4491,-812,2061,332,1979,57,44,803
448265,7139940,7633544,7143587,7635107,1414,1326,-729,4734,-1159,2109,21,2049,46,46,803
449266,7140216,7633788,7143784,7635304,1505,1082,-850,4860,-1481,2098,32,1843,46,46,803
450267,7140480,7633944,7143981,7635501,1552,1650,-975,4937,-1775,2142,-16,1772,51,33,803
451268,7140768,7634172,7144178,7635698,1363,1186,-1117,4919,-2023,2155,-197,1596,51,33,803
452269,7141056,7634356,7144375,7635895,1323,1468,-1261,4840,-2246,2028,-76,1421,58,30,803
453270,7141328,7634532,7144572,7636092,1391,1527,-1403,4719,-2463,1893,19,1367,58,30,803
454271,7141604,7634740,7144769,7636289,1331,1322,-1548,4628,-2647,1982,-191,1584,48,26,802
455272,7141852,7634904,7144966,7636486,1485,1612,-1725,4624,-2811,1921,-34,1961,48,26,802
456273,7142096,7635048,7145163,7636683,1490,1761,-1890,4574,-2987,1532,-104,1627,63,28,801
457274,7142404,7635184,7145360,7636880,1042,1838,-2019,4338,-3166,1211,-361,1287,63,28,801
458275,7142664,7635312,7145557,7637077,1315,1918,-2139,3967,-3325,990,-174,1150,57,23,801
459276,7142912,7635416,7145754,7637274,1367,2110,-2205,3444,-3437,838,-333,444,57,23,801
460277,7143212,7635592,7145951,7637471,998,1669,-2198,2801,-3471,609,-648,51,43,38,801
461278,7143432,7635748,7146148,7637668,1488,1812,-2168,2107,-3429,430,-668,124,43,38,801
462279,7143652,7635916,7146345,7637865,1479,1751,-2203,1605,-3333,153,-440,924,42,40,799
463280,7143876,7636064,7146542,7638062,1442,1898,-2287,1308,-3199,-164,-558,1322,42,40,799
464281,7144028,7636188,7146739,7638259,1913,2080,-2376,1115,-3022,-342,-783,1712,29,28,800
465282,7144164,7636332,7146936,7638456,2040,1979,-2464,986,-2812,-505,-743,2186,29,28,800
466283,7144352,7636556,7147133,7638653,1720,1467,-2545,894,-2600,-628,-486,2300,41,29,798
467284,7144512,7636684,7147330,7638850,1911,2098,-2648,848,-2389,-604,-105,2403,41,29,798
468285,7144616,7636764,7147527,7639047,2303,2450,-2742,728,-2153,-677,381,2405,27,28,796
469286,7144828,7636880,7147724,7639244,1622,2261,-2813,512,-1880,-748,728,2283,27,28,796
470287,7145052,7637028,7147921,7639441,1535,2083,-2883,316,-1552,-729,789,2554,46,36,796
471288,7145216,7637216,7148118,7639638,1926,1837,-2957,186,-1194,-685,853,2722,46,36,796
472289,7145408,7637424,7148315,7639835,1753,1708,-3024,6,-842,-654,1004,2617,52,38,797
473290,7145664,7637556,7148512,7640032,1328,2212,-3123,-111,-541,-624,1108,3025,52,38,797
474290,7145836,7637672,7148709,7640229,1864,2348,-3259,-197,-312,-592,1138,3194,51,36,797
475292,7145996,7637772,7148906,7640426,1956,2491,-3397,-402,-126,-385,960,2968,51,36,797
476293,7146232,7637868,7149103,7640623,1464,2561,-3542,-745,41,-50,928,2951,41,25,796
477294,7146412,7638056,7149300,7640820,1823,1990,-3695,-1051,185,280,958,3096,41,25,796
478295,7146536,7638236,7149497,7641017,2206,2049,-3854,-1322,320,514,774,3346,34,40,792
479296,7146792,7638364,7149694,7641214,1355,2404,-4021,-1573,480,822,321,3524,34,40,792
480297,7146992,7638496,7149891,7641411,1704,2409,-4191,-1805,655,1123,119,3660,51,29,797
481298,7147168,7638628,7150088,7641608,1864,2437,-4341,-2014,805,1433,-118,3862,51,29,797
482299,7147412,7638760,7150285,7641805,1419,2467,-4444,-2213,915,1735,-280,4023,48,33,797
483300,7147684,7638976,7150482,7642002,1211,1934,-4493,-2431,963,1893,-293,4098,48,33,797
484301,7147904,7639164,7150679,7642199,1527,2113,-4467,-2654,922,1895,-235,4056,58,40,794
485302,7148124,7639340,7150876,7642396,1517,2198,-4384,-2858,780,1814,-237,4211,58,40,794
486303,7148368,7639452,7151073,7642593,1347,2636,-4303,-2934,561,1842,-379,4732,35,29,799
487304,7148576,7639596,7151270,7642790,1567,2460,-4267,-2827,305,1936,-633,5454,35,29,799
488305,7148772,7639748,7151467,7642987,1644,2431,-4294,-2536,59,2178,-854,6013,44,28,796
489306,7149040,7639936,7151664,7643184,1163,2210,-4408,-2022,-139,2475,-1290,6873,44,28,796
490307,7149268,7640120,7151861,7643381,1400,2242,-4503,-1574,-304,2625,-1414,6462,36,31,795
491308,7149468,7640296,7152058,7643578,1574,2301,-4478,-1306,-478,2574,-1227,6128,36,31,795
492309,7149704,7640432,7152255,7643775,1333,2579,-4370,-1099,-699,2284,-627,5966,40,39,798
493310,7149912,7640584,7152452,7643972,1503,2499,-4202,-888,-961,1819,-462,6210,40,39,798
494311,7150064,7640704,7152649,7644169,1873,2733,-4015,-578,-1178,1506,-1050,6651,43,30,796
495312,7150288,7640884,7152846,7644366,1412,2367,-3808,-191,-1319,1314,-1481,6960,43,30,796
496313,7150496,7641056,7153043,7644563,1508,2429,-3608,374,-1390,1139,-1812,7578,48,37,795
497314,7150684,7641224,7153240,7644760,1637,2466,-3386,950,-1378,952,-1995,7580,48,37,795
498315,7150852,7641344,7153437,7644957,1775,2801,-3126,1437,-1319,755,-2008,7439,34,37,795
499316,7151120,7641436,7153634,7645154,1119,3023,-2822,1790,-1246,681,-1799,7141,34,37,795
500317,7151288,7641596,7153831,7645351,1758,2615,-2512,2061,-1173,575,-1225,6980,26,21,793
501318,7151396,7641760,7154028,7645548,2172,2605,-2240,2263,-1138,236,-389,6730,26,21,793
502319,7151628,7641960,7154225,7645745,1383,2380,-2025,2343,-1099,-67,-541,6713,37,35,794
503320,7151808,7642088,7154422,7645942,1715,2861,-1831,2429,-1024,-170,-819,6793,37,35,794
504321,7151916,7642248,7154619,7646139,2205,2677,-1614,2573,-889,-107,-822,6842,44,43,792
505322,7152156,7642360,7154816,7646336,1361,3016,-1380,2755,-696,47,-1065,6897,44,43,792
506323,7152344,7642552,7155013,7646533,1691,2519,-1133,2841,-452,99,-1384,6722,36,44,792
507324,7152488,7642804,7155210,7646730,1990,2121,-921,3032,-165,-61,-1548,7217,36,44,792
508332,7152676,7643072,7155440,7646960,1734,2004,-799,3375,146,-243,-1633,7671,27,50,793
509326,7152864,7643308,7155637,7647157,1738,2188,-604,3480,361,-366,-890,6475,27,50,793
510327,7153008,7643512,7155834,7647354,2037,2386,-316,3296,508,-286,-330,5998,31,53,793
511328,7153160,7643684,7156031,7647551,2007,2598,-6,2997,639,-258,68,5933,31,53,793
512329,7153348,7643888,7156228,7647748,1787,2395,244,2894,797,-328,47,6491,27,55,796
513330,7153508,7644136,7156425,7647945,1978,2098,432,2885,972,-438,20,6648,27,55,796
514331,7153616,7644400,7156622,7648142,2343,1970,594,2923,1078,-456,-50,6812,33,55,793
515332,7153812,7644632,7156819,7648339,1795,2155,751,2945,1077,-498,-73,6670,33,55,793
516333,7153984,7644828,7157016,7648536,1956,2381,897,2969,977,-590,-195,6670,37,40,795
517334,7154092,7645020,7157213,7648733,2396,2409,1030,2903,798,-583,-479,6353,37,40,795
518335,7154268,7645204,7157410,7648930,1980,2466,1147,2777,597,-362,-993,6212,44,40,795
519336,7154456,7645404,7157607,7649127,1910,2365,1251,2597,421,-77,-1412,5998,44,40,795
520337,7154552,7645636,7157804,7649324,2531,2150,1340,2325,270,58,-1518,5789,32,47,791
521338,7154680,7645848,7158001,7649521,2361,2270,1411,2022,139,62,-1418,5673,32,47,791
522339,7154860,7646056,7158198,7649718,2044,2290,1479,1685,7,201,-661,5308,22,42,793
523340,7154988,7646216,7158395,7649915,2400,2607,1544,1262,-182,257,261,5060,22,42,793
524341,7155092,7646364,7158592,7650112,2592,2705,1639,758,-434,237,419,4753,43,43,792
525342,7155280,7646576,7158789,7650309,2072,2298,1771,143,-706,368,224,4555,43,43,792
526343,7155432,7646800,7158986,7650506,2316,2212,1923,-448,-937,492,53,4516,31,55,790
527344,7155504,7647004,7159183,7650703,2872,2335,2057,-941,-1101,590,-24,4587,31,55,790
528345,7155660,7647196,7159380,7650900,2366,2413,2159,-1344,-1156,546,-200,4676,36,47,793
529346,7155860,7647380,7159577,7651097,2090,2469,2254,-1809,-1069,362,-158,4607,36,47,793
530347,7155956,7647556,7159774,7651294,2785,2529,2320,-2233,-894,178,-176,4578,27,52,789
531348,7156096,7647732,7159971,7651491,2536,2539,2346,-2616,-643,45,-241,4529,27,52,789
532349,7156288,7647984,7160168,7651688,2215,2040,2379,-2971,-345,-201,-275,4522,30,49,792
533350,7156436,7648224,7160365,7651885,2511,2097,2459,-3297,-54,-590,-166,4576,30,49,792
534351,7156540,7648440,7160562,7652082,2828,2240,2554,-3419,236,-970,-225,5220,26,49,790
535352,7156740,7648664,7160759,7652279,2228,2179,2674,-3321,492,-1201,-118,5563,26,49,790
536353,7156924,7648848,7160956,7652476,2334,2435,2831,-3059,698,-1484,6,5885,25,40,792
537354,7157012,7649064,7161153,7652673,2982,2227,2999,-2575,876,-1901,-297,6469,25,40,792
538355,7157180,7649312,7161350,7652870,2496,2006,3171,-2016,1025,-2165,-541,6576,45,47,793
539356,7157356,7649528,7161547,7653067,2456,2198,3336,-1342,1099,-2377,-738,6776,45,47,793
540357,7157480,7649744,7161744,7653264,2814,2190,3489,-678,1124,-2425,-1355,6606,26,35,789
541358,7157592,7649976,7161941,7653461,2928,2076,3581,22,1164,-2305,-1817,6610,26,35,789
542359,7157808,7650164,7162138,7653658,2269,2355,3588,641,1273,-2157,-2031,6265,39,47,791
543360,7157972,7650352,7162335,7653855,2610,2360,3521,1180,1454,-1898,-1869,5929,39,47,791
544361,7158084,7650536,7162532,7654052,2973,2392,3401,1532,1670,-1474,-1450,5242,47,39,789
545362,7158292,7650776,7162729,7654249,2369,2023,3251,1620,1894,-975,-1003,4377,47,39,789
546363,7158468,7651048,7162926,7654446,2580,1791,3091,1566,2107,-581,-707,3909,37,41,791
547364,7158596,7651296,7163123,7654643,2911,1919,2969,1306,2319,-186,-423,3098,37,41,791
548365,7158732,7651512,7163320,7654840,2889,2111,2897,919,2503,185,-322,2757,36,53,793
549366,7158904,7651732,7163517,7655037,2675,2077,2852,439,2636,441,50,2326,36,53,793
550367,7159032,7651968,7163714,7655234,2981,1960,2802,-23,2681,674,461,2306,31,60,791
551368,7159168,7652244,7163911,7655431,2959,1676,2751,-464,2646,860,232,2258,31,60,791
552369,7159320,7652508,7164108,7655628,2880,1723,2704,-864,2586,1061,-223,2386,25,57,791
553370,7159464,7652776,7164305,7655825,2954,1666,2648,-1101,2519,1140,196,2761,25,57,791
554371,7159596,7653096,7164502,7656022,3058,1288,2555,-1245,2418,1079,719,2859,39,46,790
555372,7159792,7653276,7164699,7656219,2660,2171,2406,-1215,2314,934,1064,3427,39,46,790
556373,7160020,7653420,7164896,7656416,2447,2420,2220,-1074,2213,859,1048,3614,48,52,792
557374,7160160,7653604,7165093,7656613,3023,2177,2019,-807,2061,757,906,3954,48,52,792
558375,7160376,7653760,7165290,7656810,2541,2370,1839,-367,1903,733,304,4358,43,44,791
559376,7160572,7653968,7165487,7657007,2667,2041,1700,114,1780,722,139,4412,43,44,791
560377,7160720,7654196,7165684,7657204,2990,1902,1575,679,1628,522,660,4596,53,43,789
561378,7160864,7654468,7165881,7657401,3038,1595,1480,1206,1404,220,746,4463,53,43,789
562379,7161036,7654736,7166078,7657598,2875,1589,1460,1718,1162,200,594,4235,30,52,792
563380,7161212,7655032,7166275,7657795,2860,1372,1504,2115,948,158,821,3925,30,52,792
564381,7161348,7655340,7166472,7657992,3138,1248,1535,2485,812,178,848,3814,46,68,791
565382,7161492,7655640,7166669,7658189,3113,1254,1529,2804,761,289,785,3493,46,68,791
566383,7161664,7655952,7166866,7658386,2950,1128,1489,3114,750,278,824,3401,41,58,792
567384,7161792,7656260,7167063,7658583,3256,1105,1446,3315,755,337,778,3033,41,58,792
568385,7161948,7656624,7167260,7658780,3100,682,1389,3496,774,372,545,2960,47,77,792
569386,7162112,7656944,7167457,7658977,3065,904,1335,3706,820,306,-294,2941,47,77,792
570387,7162300,7657240,7167654,7659174,2920,1010,1278,3788,896,175,-732,2634,28,58,792
571388,7162452,7657608,7167851,7659371,3166,486,1183,3826,910,14,110,2455,28,58,792
572389,7162628,7657996,7168048,7659568,3026,277,1055,3796,804,-55,788,2139,34,61,794
573390,7162808,7658464,7168245,7659765,3010,-342,911,3781,635,32,976,2153,34,61,794
574392,7162988,7658900,7168442,7659962,3018,-247,758,3814,470,43,899,2298,31,63,795
575392,7163168,7659140,7168639,7660159,3027,960,593,3915,304,16,822,2434,31,63,795
576393,7163380,7659428,7168836,7660356,2822,620,407,3981,112,-6,803,2351,51,69,795
577394,7163568,7659608,7169033,7660553,2977,1303,199,4082,-119,-65,789,2370,51,69,795
578395,7163756,7659892,7169230,7660750,2982,615,-20,4094,-366,-62,550,2249,47,55,794
579396,7163968,7660184,7169427,7660947,2826,523,-243,4050,-594,-29,313,2267,47,55,794
580397,7164188,7660468,7169624,7661144,2767,535,-462,4041,-810,33,471,2274,36,65,794
581398,7164364,7660700,7169821,7661341,3053,845,-694,3987,-1038,116,758,2029,36,65,794
582399,7164608,7660932,7170018,7661538,2608,830,-955,3899,-1250,188,897,2054,40,46,797
583400,7164800,7661132,7170215,7661735,2936,1028,-1217,3751,-1428,213,1050,1855,40,46,797
584401,7165012,7661312,7170412,7661932,2806,1161,-1461,3554,-1603,274,1230,1851,50,35,795
585402,7165252,7661480,7170609,7662129,2613,1249,-1710,3331,-1794,286,1229,1836,50,35,795
586403,7165444,7661624,7170806,7662326,2916,1422,-1944,3180,-1986,101,997,2160,42,35,794
587404,7165636,7661776,7171003,7662523,2919,1392,-2178,3161,-2186,-241,861,2489,42,35,794
588405,7165872,7661936,7171200,7662720,2628,1358,-2391,3172,-2429,-591,969,2509,46,25,795
589406,7166080,7662088,7171397,7662917,2799,1429,-2606,3185,-2740,-710,862,2554,46,25,795
590407,7166296,7662304,7171594,7663114,2742,1020,-2812,3085,-3079,-746,347,2394,44,26,794
591417,7166516,7662416,7171824,7663344,2722,1722,-3021,3002,-3419,-915,-36,2611,44,26,794
592409,7166740,7662516,7172021,7663541,2686,1840,-3221,2797,-3722,-1092,-389,2323,47,26,794
593410,7166932,7662632,7172218,7663738,2889,1776,-3417,2613,-3936,-1023,-758,2612,47,26,794
594411,7167136,7662792,7172415,7663935,2812,1518,-3595,2476,-4035,-918,-1012,2701,34,42,793
595412,7167332,7662952,7172612,7664132,2864,1534,-3749,2386,-4055,-1048,-1218,2910,34,42,793
596413,7167520,7663164,7172809,7664329,2919,1202,-3881,2246,-4040,-1228,-1333,2939,52,32,792
597414,7167712,7663304,7173006,7664526,2897,1678,-3981,2010,-4002,-1245,-1435,2887,52,32,792
598415,7167936,7663436,7173203,7664723,2686,1756,-4085,1897,-3939,-1221,-1557,3482,51,35,792
599416,7168092,7663588,7173400,7664920,3130,1652,-4154,1724,-3860,-1372,-1657,3308,51,35,792
600417,7168304,7663736,7173597,7665117,2775,1698,-4159,1550,-3796,-1522,-1777,3412,35,26,792
601418,7168532,7663908,7173794,7665314,2662,1559,-4088,1329,-3737,-1573,-1859,3455,35,26,792
602418,7168708,7664064,7173991,7665511,2997,1677,-3954,1084,-3666,-1559,-1923,3572,35,39,791
603420,7168880,7664168,7174188,7665708,3034,2044,-3760,742,-3558,-1604,-2036,3300,35,39,791
604421,7169120,7664240,7174385,7665905,2591,2299,-3572,410,-3400,-1662,-2164,3728,33,23,794
605422,7169320,7664388,7174582,7666102,2841,1846,-3423,163,-3219,-1545,-2194,4110,33,23,794
606423,7169516,7664580,7174779,7666299,2867,1574,-3303,-18,-3035,-1457,-2278,4245,37,33,790
607424,7169760,7664788,7174976,7666496,2548,1469,-3182,-127,-2870,-1497,-2330,4664,37,33,790
608425,7170004,7664952,7175173,7666693,2528,1759,-3030,-327,-2735,-1541,-2343,4630,57,39,790
609426,7170216,7665072,7175370,7666890,2722,2068,-2847,-440,-2617,-1468,-2398,5076,57,39,790
610427,7170460,7665176,7175567,7667087,2503,2209,-2651,-488,-2474,-1302,-2430,5280,57,26,794
611428,7170724,7665296,7175764,7667284,2349,2143,-2473,-496,-2316,-1109,-2122,5619,57,26,794
612429,7170980,7665492,7175961,7667481,2374,1670,-2309,-491,-2183,-1025,-1336,5643,47,43,791
613430,7171248,7665688,7176158,7667678,2269,1670,-2159,-470,-2083,-873,-884,5889,47,43,791
614431,7171572,7665860,7176355,7667875,1864,1831,-2013,-422,-2017,-708,-675,6045,61,31,793
615432,7171844,7665968,7176552,7668072,2157,2271,-1840,-375,-1973,-559,-443,6120,61,31,793
616433,7172120,7666052,7176749,7668269,2099,2471,-1603,-347,-1946,-393,-313,6179,52,41,796
617434,7172468,7666184,7176946,7668466,1583,2200,-1340,-365,-1932,-168,-273,6081,52,41,796
618435,7172756,7666372,7177143,7668663,1918,1854,-1071,-352,-1914,-38,-228,6225,68,25,794
619436,7173032,7666568,7177340,7668860,1960,1806,-815,-351,-1914,90,-39,6185,68,25,794
620437,7173388,7666688,7177537,7669057,1391,2315,-559,-409,-1941,230,168,6220,68,42,795
621438,7173712,7666812,7177734,7669254,1536,2322,-305,-438,-1985,379,378,6274,68,42,795
622439,7174000,7666896,7177931,7669451,1722,2622,-38,-478,-2046,496,442,6197,53,29,797
623440,7174304,7666992,7178128,7669648,1575,2592,231,-501,-2117,507,297,6389,53,29,797
624441,7174644,7667184,7178325,7669845,1288,1995,520,-579,-2194,558,-31,6222,70,25,796
625442,7174960,7667344,7178522,7670042,1387,2211,806,-600,-2248,645,-451,6293,70,25,796
626443,7175232,7667500,7178719,7670239,1629,2255,1089,-667,-2277,685,-437,6007,58,30,795
627444,7175588,7667616,7178916,7670436,1035,2541,1365,-747,-2286,604,-226,5973,58,30,795
628445,7175876,7667732,7179113,7670633,1421,2577,1631,-900,-2284,507,8,5777,59,38,797
629446,7176124,7667824,7179310,7670830,1649,2774,1899,-1071,-2290,468,235,5677,59,38,797
630447,7176472,7667964,7179507,7671027,958,2500,2158,-1167,-2303,376,280,5730,53,36,795
631448,7176756,7668136,7179704,7671224,1321,2312,2426,-1226,-2285,183,81,5760,53,36,795
632449,7177008,7668300,7179901,7671421,1497,2376,2686,-1278,-2238,-26,-194,5784,46,34,792
633450,7177296,7668416,7180098,7671618,1233,2713,2945,-1287,-2162,-126,-322,5726,46,34,792
634451,7177556,7668532,7180295,7671815,1380,2748,3192,-1281,-2051,-220,-393,5651,56,29,797
635452,7177792,7668656,7180492,7672012,1514,2731,3430,-1294,-1921,-385,-337,5491,56,29,797
636453,7178048,7668812,7180689,7672209,1363,2550,3647,-1286,-1788,-585,-177,5409,59,25,795
637454,7178276,7668972,7180886,7672406,1525,2542,3817,-1281,-1646,-701,-203,5400,59,25,795
638455,7178484,7669140,7181083,7672603,1646,2505,3962,-1276,-1501,-849,-47,5153,44,40,794
639456,7178728,7669280,7181280,7672800,1401,2706,4078,-1274,-1362,-1081,81,5022,44,40,794
640457,7179036,7669392,7181477,7672997,952,2919,4180,-1283,-1226,-1228,175,4864,45,33,795
641458,7179252,7669508,7181674,7673194,1520,2930,4260,-1337,-1079,-1324,158,4756,45,33,795
642459,7179452,7669700,7181871,7673391,1619,2459,4324,-1291,-908,-1401,137,4716,39,29,793
643460,7179736,7669900,7182068,7673588,1056,2407,4372,-1318,-721,-1462,176,4396,39,29,793
644461,7179988,7670084,7182265,7673785,1232,2514,4397,-1370,-545,-1498,268,4277,40,42,792
645462,7180216,7670256,7182462,7673982,1369,2601,4401,-1422,-375,-1531,350,4043,40,42,792
646463,7180504,7670396,7182659,7674179,955,2827,4389,-1486,-216,-1576,424,3833,57,41,798
647464,7180752,7670584,7182856,7674376,1182,2531,4353,-1605,-69,-1649,536,3690,57,41,798
648465,7181004,7670764,7183053,7674573,1134,2589,4302,-1745,63,-1683,729,3443,50,40,796
649466,7181284,7670984,7183250,7674770,922,2330,4226,-1874,178,-1714,938,3288,50,40,796
650467,7181544,7671184,7183447,7674967,1020,2454,4147,-2053,269,-1721,1108,3030,40,35,797
651468,7181788,7671400,7183644,7675164,1100,2347,4048,-2281,366,-1658,1166,2852,40,35,797
652469,7182028,7671576,7183841,7675361,1106,2607,3933,-2490,473,-1555,1231,2681,41,38,797
653470,7182296,7671752,7184038,7675558,901,2617,3776,-2732,590,-1421,1251,2496,41,38,797
654471,7182504,7671912,7184235,7675755,1271,2733,3581,-2952,708,-1322,1318,2475,51,34,796
655472,7182688,7672132,7184432,7675952,1427,2349,3356,-3211,816,-1203,1437,2147,51,34,796
656473,7182912,7672356,7184629,7676149,1166,2313,3106,-3484,932,-987,1334,2177,35,40,797
657474,7183108,7672584,7184826,7676346,1341,2276,2846,-3756,1111,-714,1053,1950,35,40,797
658475,7183264,7672748,7185023,7676543,1609,2690,2563,-4094,1351,-446,657,1751,47,54,796
659476,7183480,7672976,7185220,7676740,1227,2278,2265,-4320,1624,-289,521,1891,47,54,796
660477,7183676,7673180,7185417,7676937,1353,2426,1957,-4609,1882,-164,687,1794,31,46,797
661478,7183824,7673436,7185614,7677134,1674,2075,1651,-4826,2091,-69,980,1890,31,46,797
662479,7183992,7673660,7185811,7677331,1563,2264,1360,-4980,2252,-64,1025,1920,24,38,797
663480,7184200,7673836,7186008,7677528,1308,2574,1088,-5081,2356,13,876,1937,24,38,797
664481,7184344,7674028,7186205,7677725,1731,2476,826,-5137,2423,125,636,2144,41,45,796
665482,7184480,7674204,7186402,7677922,1809,2586,557,-5207,2470,299,404,2068,41,45,796
666483,7184676,7674388,7186599,7678119,1435,2543,265,-5254,2493,626,51,2190,45,35,794
667484,7184820,7674560,7186796,7678316,1783,2630,-41,-5217,2516,805,-215,2443,45,35,794
668485,7184932,7674736,7186993,7678513,2021,2614,-357,-5081,2567,925,-494,2740,32,46,794
669486,7185144,7674840,7187190,7678710,1390,3106,-687,-4819,2635,1100,-696,3035,32,46,794
670487,7185272,7674980,7187387,7678907,1945,2907,-1008,-4508,2715,1363,-833,3272,32,27,793
671488,7185340,7675140,7187584,7679104,2378,2799,-1305,-4126,2770,1601,-932,3455,32,27,793
672489,7185568,7675312,7187781,7679301,1364,2735,-1566,-3756,2789,1642,-1035,3441,19,38,791
673490,7185724,7675412,7187978,7679498,1833,3229,-1812,-3402,2722,1564,-1027,3571,19,38,791
674498,7185840,7675520,7188208,7679728,2133,3234,-2027,-3033,2555,1569,-944,3484,33,32,787
675492,7186004,7675568,7188405,7679925,1849,3675,-2218,-2654,2317,1584,-936,3563,33,32,787
676493,7186228,7675656,7188602,7680122,1462,3473,-2382,-2339,2030,1652,-999,3483,42,33,787
677494,7186360,7675792,7188799,7680319,2065,3201,-2533,-2081,1708,1807,-1133,3501,42,33,787
678495,7186484,7675924,7188996,7680516,2148,3255,-2665,-1765,1394,1973,-1324,3631,38,18,784
679496,7186732,7676084,7189193,7680713,1351,3098,-2759,-1431,1110,2152,-1550,3817,38,18,784
680497,7186908,7676172,7189390,7680910,1811,3597,-2820,-1074,854,2202,-1664,3998,42,22,786
681511,7187016,7676236,7189587,7681107,2275,3800,-2863,-709,627,2151,-1769,4231,42,22,786
682499,7187300,7676328,7189784,7681304,1138,3678,-2886,-230,417,2191,-1878,4544,33,22,791
683500,7187464,7676480,7189981,7681501,1903,3324,-2876,252,227,2257,-1813,4608,33,22,791
684501,7187620,7676632,7190178,7681698,1972,3345,-2836,670,38,2149,-1260,4614,44,20,782
685502,7187844,7676804,7190375,7681895,1535,3232,-2763,1005,-157,1942,-647,4479,44,20,782
686503,7188088,7676916,7190572,7682092,1390,3645,-2651,1336,-370,1731,-323,4635,40,23,787
687504,7188296,7677012,7190769,7682289,1610,3790,-2523,1585,-566,1543,-248,4399,40,23,787
688518,7188456,7677096,7190966,7682486,1928,3800,-2402,1847,-729,1457,-193,4594,43,25,789
689506,7188736,7677240,7191163,7682683,1141,3565,-2283,2120,-861,1209,-215,4708,43,25,789
690507,7188940,7677396,7191360,7682880,1614,3509,-2180,2316,-933,823,-230,4635,57,26,785
691508,7189088,7677608,7191557,7683077,1986,3154,-2057,2506,-946,481,-240,4625,57,26,785
692509,7189348,7677760,7191754,7683274,1259,3550,-1901,2590,-909,132,-172,4473,34,31,789
693510,7189564,7677880,7191951,7683471,1525,3784,-1744,2633,-821,-161,-62,4595,34,31,789
694523,7189708,7677976,7192148,7683668,1999,3800,-1565,2635,-711,-470,158,4395,54,31,788
695512,7189932,7678160,7192345,7683865,1488,3437,-1381,2644,-610,-835,386,4595,54,31,788
696513,7190148,7678372,7192542,7684062,1530,3256,-1212,2642,-522,-1164,444,4754,41,32,784
697514,7190344,7678588,7192739,7684259,1656,3224,-1063,2647,-444,-1419,504,4740,41,32,784
698515,7190504,7678760,7192936,7684456,1897,3511,-931,2623,-357,-1674,245,4753,47,40,786
699516,7190744,7678904,7193133,7684653,1379,3710,-784,2531,-244,-1880,141,4664,47,40,786
700517,7190916,7679084,7193330,7684850,1815,3493,-611,2355,-139,-2048,358,4543,38,46,790
701518,7191040,7679284,7193527,7685047,2148,3368,-449,2194,-51,-2232,408,4573,38,46,790
702519,7191288,7679492,7193724,7685244,1351,3315,-306,2073,63,-2414,270,4787,52,43,787
703520,7191464,7679732,7193921,7685441,1811,3097,-165,1927,240,-2535,72,4836,52,43,787
704521,7191592,7679912,7194118,7685638,2142,3481,-37,1759,476,-2546,6,4884,53,29,786
705535,7191768,7680036,7194315,7685835,1852,3800,102,1595,738,-2490,-115,4698,53,29,786
706523,7191964,7680216,7194512,7686032,1727,3522,275,1313,1003,-2471,-113,4473,49,33,789
707524,7192092,7680452,7194709,7686229,2184,3156,454,966,1268,-2458,-214,4549,49,33,789
708525,7192244,7680684,7194906,7686426,2053,3167,600,738,1521,-2505,-236,4756,49,40,784
709526,7192436,7680944,7195103,7686623,1807,2965,728,491,1746,-2471,-79,4596,49,40,784
710527,7192584,7681156,7195300,7686820,2103,3260,831,219,1942,-2344,62,4864,36,55,787
711528,7192668,7681336,7195497,7687017,2554,3468,885,22,2089,-2267,191,5123,36,55,787
712529,7192912,7681536,7195694,7687214,1533,3343,921,-149,2201,-2103,190,4891,39,51,790
713530,7193064,7681784,7195891,7687411,2129,3022,969,-437,2312,-1831,57,4696,39,51,790
714531,7193160,7682028,7196088,7687608,2523,3028,1024,-775,2400,-1616,-7,4684,30,47,784
715532,7193348,7682284,7196285,7687805,1953,2928,1085,-1052,2432,-1421,197,4684,30,47,784
716533,7193472,7682492,7196482,7688002,2385,3224,1150,-1305,2418,-1253,477,4635,44,40,788
717534,7193564,7682688,7196679,7688199,2632,3300,1215,-1618,2401,-1053,501,4683,44,40,788
718535,7193696,7682848,7196876,7688396,2411,3543,1299,-1866,2394,-899,175,4770,22,57,789
719536,7193876,7683036,7197073,7688593,2119,3373,1391,-2082,2370,-704,-155,4711,22,57,789
720537,7193984,7683332,7197270,7688790,2610,2655,1474,-2275,2317,-468,-205,4825,48,48,783
721538,7194096,7683604,7197467,7688987,2622,2773,1560,-2476,2266,-338,10,4741,48,48,783
722539,7194292,7683824,7197664,7689184,2098,3089,1663,-2630,2261,-316,59,4739,27,45,786
723540,7194428,7684004,7197861,7689381,2501,3347,1751,-2763,2301,-326,-116,4876,27,45,786
724541,7194536,7684204,7198058,7689578,2715,3222,1809,-2816,2324,-415,31,5165,34,53,786
725542,7194692,7684432,7198255,7689775,2434,3034,1857,-2764,2294,-379,89,5281,34,53,786
726543,7194860,7684684,7198452,7689972,2373,2861,1901,-2678,2250,-274,-171,5237,27,44,783
727544,7194984,7684928,7198649,7690169,2680,2892,1953,-2583,2222,-225,-266,5268,27,44,783
728545,7195128,7685156,7198846,7690366,2579,2979,2003,-2505,2235,-107,-346,5142,37,46,787
729546,7195312,7685348,7199043,7690563,2336,3207,2045,-2403,2278,-34,-187,5015,37,46,787
730547,7195436,7685564,7199240,7690760,2743,3050,2079,-2319,2308,-107,-19,4959,51,40,785
731548,7195588,7685788,7199437,7690957,2589,2989,2103,-2188,2303,-218,-197,5043,51,40,785
732549,7195792,7686040,7199634,7691154,2262,2791,2123,-1968,2276,-313,-104,5134,39,51,786
733550,7195972,7686256,7199831,7691351,2420,3009,2154,-1709,2234,-326,226,5056,39,51,786
734551,7196108,7686484,7200028,7691548,2722,2921,2189,-1478,2192,-312,173,5033,54,55,786
735552,7196296,7686732,7200225,7691745,2402,2774,2217,-1234,2162,-318,76,4958,54,55,786
736552,7196492,7686944,7200422,7691942,2354,2994,2236,-989,2120,-320,-57,4794,52,44,787
737553,7196640,7687188,7200619,7692139,2676,2774,2263,-763,2049,-335,-182,4584,52,44,787
738555,7196836,7687480,7200816,7692336,2377,2433,2307,-570,1930,-323,-43,4415,45,61,789
739556,7197068,7687760,7201013,7692533,2137,2473,2348,-387,1792,-204,-7,4361,45,61,789
740557,7197248,7688012,7201210,7692730,2471,2625,2365,-218,1713,-58,-241,4245,60,50,787
741558,7197444,7688288,7201407,7692927,2372,2441,2359,-24,1709,38,-561,4185,60,50,787
742559,7197672,7688608,7201604,7693124,2158,2112,2348,96,1740,105,-538,3899,43,68,791
743560,7197864,7688936,7201801,7693321,2387,2006,2329,178,1764,248,-376,3648,43,68,791
744561,7198028,7689264,7201998,7693518,2577,1949,2305,162,1738,511,-265,3235,46,74,792
745562,7198260,7689560,7202195,7693715,2138,2106,2276,52,1674,789,-4,2914,46,74,792
746563,7198484,7689876,7202392,7693912,2176,1930,2248,-54,1615,920,399,2791,52,73,794
747564,7198668,7690248,7202589,7694109,2433,1504,2224,-179,1580,956,646,2842,52,73,794
748565,7198872,7690616,7202786,7694306,2306,1454,2191,-266,1583,1009,414,2804,37,72,794
749566,7199100,7690984,7202983,7694503,2143,1380,2142,-374,1594,1148,255,2669,37,72,794
750567,7199300,7691324,7203180,7694700,2317,1493,2077,-493,1560,1314,287,2572,55,77,796
751568,7199508,7691700,7203377,7694897,2263,1189,2011,-645,1486,1428,43,2374,55,77,796
752569,7199740,7692024,7203574,7695094,2098,1460,1927,-743,1413,1472,-115,2380,49,73,796
753570,7199952,7692312,7203771,7695291,2218,1645,1810,-825,1371,1399,-46,2525,49,73,796
754571,7200156,7692616,7203968,7695488,2265,1499,1671,-789,1360,1392,131,2717,35,66,798
755572,7200380,7693016,7204165,7695685,2129,810,1522,-766,1362,1481,264,2671,35,66,798
756573,7200588,7693336,7204362,7695882,2225,1256,1383,-673,1332,1685,413,2844,36,65,796
757581,7200764,7693652,7204592,7696112,2449,1245,1263,-538,1284,1761,567,2858,36,65,796
758575,7201036,7693880,7204789,7696309,1817,1781,1157,-335,1236,1746,709,2979,49,58,799
759576,7201240,7694156,7204986,7696506,2240,1446,1060,-83,1190,1680,890,3121,49,58,799
760577,7201424,7694544,7205183,7696703,2371,663,954,149,1119,1742,1107,2911,55,56,796
761578,7201644,7694852,7205380,7696900,2136,1115,824,388,1011,1857,1199,2840,55,56,796
762579,7201868,7695168,7205577,7697097,2100,1013,683,551,875,1903,1337,2607,33,59,796
763580,7202028,7695396,7205774,7697294,2518,1550,550,641,713,1918,1403,2490,33,59,796
764581,7202180,7695628,7205971,7697491,2587,1509,443,744,570,2000,937,2485,37,56,797
765582,7202448,7695936,7206168,7697688,1832,986,363,938,478,2176,575,2489,37,56,797
766583,7202660,7696288,7206365,7697885,2177,643,277,1123,415,2279,550,2484,55,64,795
767584,7202876,7696588,7206562,7698082,2144,923,196,1259,374,2310,456,2489,55,64,795
768585,7203100,7696832,7206759,7698279,2082,1253,108,1453,329,2343,387,2592,53,50,801
769586,7203316,7697112,7206956,7698476,2125,992,24,1665,257,2245,368,2519,53,50,801
770587,7203540,7697380,7207153,7698673,2064,1036,-182,2272,6,2241,48,2747,35,53,799
771588,7203788,7697644,7207350,7698870,1892,1032,-295,2556,-160,2200,175,2744,35,53,799
772589,7204084,7697880,7207547,7699067,1549,1190,-423,2924,-371,2092,625,2946,50,47,799
773590,7204328,7698116,7207744,7699264,1855,1173,-560,3276,-633,1947,869,2697,50,47,799
774591,7204624,7698336,7207941,7699461,1486,1263,-704,3601,-921,1871,913,2791,47,40,800
775592,7204864,7698584,7208138,7699658,1818,1065,-831,3902,-1192,1851,708,2722,47,40,800
776593,7205116,7698816,7208335,7699855,1720,1151,-960,4261,-1438,1901,65,2800,49,51,801
777594,7205440,7699060,7208532,7700052,1214,1055,-1067,4642,-1664,1802,-149,2716,49,51,801
778595,7205724,7699280,7208729,7700249,1427,1195,-1173,4842,-1922,1504,527,2343,58,48,801
779596,7206008,7699464,7208926,7700446,1389,1426,-1272,4967,-2223,1394,638,2213,58,48,801
780597,7206288,7699688,7209123,7700643,1378,1164,-1378,4959,-2490,1306,260,1853,65,33,804
781598,7206572,7699860,7209320,7700840,1315,1501,-1498,4902,-2705,1222,175,1813,65,33,804
782599,7206848,7700064,7209517,7701037,1331,1298,-1622,4795,-2846,1133,-197,1708,54,35,802
783600,7207092,7700240,7209714,7701234,1511,1482,-1750,4707,-2917,1069,-484,1751,54,35,802
784601,7207388,7700440,7209911,7701431,1143,1331,-1906,4636,-2930,1047,-504,1842,53,26,801
785602,7207668,7700568,7210108,7701628,1207,1811,-2136,4707,-2908,1008,-275,2576,53,26,801
786603,7207908,7700712,7210305,7701825,1439,1735,-2368,4796,-2904,768,76,2470,59,26,799
787604,7208212,7700820,7210502,7702022,992,2000,-2530,4644,-2916,501,110,1647,59,26,799
788605,7208476,7700928,7210699,7702219,1213,2039,-2659,4465,-2899,450,2,2129,48,19,800
789606,7208700,7701048,7210896,7702416,1452,1998,-2719,4086,-2875,219,152,1173,48,19,800
790607,7208936,7701252,7211093,7702613,1360,1470,-2650,3437,-2869,-126,249,441,63,37,800
791608,7209232,7701412,7211290,7702810,942,1762,-2555,2724,-2871,-259,334,602,63,37,800
792609,7209460,7701552,7211487,7703007,1353,1912,-2515,2170,-2862,-372,299,1156,52,34,798
793610,7209644,7701668,7211684,7703204,1635,2098,-2533,1806,-2791,-621,-170,1679,52,34,798
794611,7209864,7701828,7211881,7703401,1400,1840,-2611,1645,-2598,-767,-1027,2569,50,31,801
795612,7210020,7702004,7212078,7703598,1819,1749,-2737,1625,-2342,-879,-1195,2786,50,31,801
796613,7210180,7702200,7212275,7703795,1810,1624,-2863,1512,-2113,-926,-731,2515,40,40,795
797614,7210364,7702312,7212472,7703992,1666,2187,-2978,1255,-1913,-839,-372,2443,40,40,795
798615,7210520,7702404,7212669,7704189,1860,2359,-3054,825,-1724,-815,189,2079,30,22,797
799616,7210640,7702508,7212866,7704386,2119,2325,-3088,335,-1525,-814,612,1972,30,22,797
800617,7210900,7702688,7213063,7704583,1217,1857,-3113,-173,-1300,-697,758,2180,48,22,795
801618,7211072,7702864,7213260,7704780,1778,1892,-3144,-565,-1051,-658,869,2669,48,22,795
802619,7211204,7703064,7213457,7704977,2057,1741,-3195,-785,-794,-684,966,3151,36,35,793
803620,7211472,7703188,7213654,7705174,1176,2249,-3257,-961,-546,-605,766,3441,36,35,793
804621,7211680,7703312,7213851,7705371,1547,2281,-3310,-1197,-307,-464,319,3387,36,23,797
805622,7211864,7703400,7214048,7705568,1703,2554,-3340,-1470,-89,-253,-1,3349,36,23,797
806623,7212076,7703556,7214245,7705765,1522,2148,-3375,-1740,98,-78,-209,3542,41,21,796
807624,7212284,7703696,7214442,7705962,1542,2273,-3413,-2047,256,116,-416,3568,41,21,796
808625,7212428,7703860,7214639,7706159,1966,2139,-3466,-2366,387,515,-515,3580,46,25,793
809626,7212604,7704008,7214836,7706356,1775,2260,-3539,-2691,492,954,-696,3784,46,25,793
810627,7212788,7704148,7215033,7706553,1732,2335,-3606,-2940,585,1294,-881,3973,22,28,795
811628,7212956,7704280,7215230,7706750,1845,2415,-3641,-3266,662,1702,-977,3861,22,28,795
812629,7213092,7704452,7215427,7706947,2073,2176,-3637,-3622,721,2079,-922,3891,30,39,795
813630,7213344,7704688,7215624,7707144,1323,1760,-3608,-3870,749,2329,-747,4246,30,39,795
814631,7213568,7704816,7215821,7707341,1487,2465,-3556,-3983,722,2464,-451,4580,36,24,794
815632,7213768,7704972,7216018,7707538,1636,2309,-3479,-3999,638,2509,-116,5052,36,24,794
816633,7214012,7705080,7216215,7707735,1341,2648,-3471,-3834,500,2394,-110,5958,43,32,799
817634,7214276,7705192,7216412,7707932,1187,2662,-3673,-3135,356,2316,-482,7859,43,32,799
818635,7214472,7705364,7216609,7708129,1613,2298,-3857,-2338,228,1962,-851,7293,51,24,794
819637,7214644,7705548,7216806,7708326,1775,2229,-3839,-1812,73,1828,-1013,6691,51,24,794
820637,7214872,7705752,7217003,7708523,1411,2101,-3698,-1565,-109,1855,-1291,6397,46,27,795
821638,7215052,7705892,7217200,7708720,1718,2527,-3530,-1302,-274,1940,-1652,6621,46,27,795
822639,7215212,7706028,7217397,7708917,1861,2579,-3386,-951,-388,1939,-1895,6774,30,27,795
823640,7215424,7706112,7217594,7709114,1529,2955,-3211,-606,-493,1884,-1756,6608,30,27,795
824641,7215608,7706256,7217791,7709311,1711,2604,-3021,-276,-596,1874,-1699,6780,41,38,794
825642,7215744,7706432,7217988,7709508,2038,2413,-2860,137,-647,1750,-1875,7186,41,38,794
826643,7215964,7706616,7218185,7709705,1503,2370,-2700,610,-651,1384,-1802,7295,44,40,791
827644,7216196,7706740,7218382,7709902,1413,2777,-2495,1019,-673,974,-1002,7183,44,40,791
828645,7216324,7706860,7218579,7710099,2093,2837,-2268,1394,-732,666,-385,7377,41,21,791
829646,7216496,7706904,7218776,7710296,1830,3380,-2048,1815,-767,524,-423,7418,41,21,791
830647,7216756,7707056,7218973,7710493,1253,2725,-1828,2165,-768,348,-505,7256,47,37,792
831648,7216916,7707208,7219170,7710690,1895,2746,-1608,2402,-741,348,-844,7064,47,37,792
832649,7217084,7707424,7219367,7710887,1858,2337,-1369,2610,-646,551,-1847,6865,32,22,787
833650,7217304,7707524,7219564,7711084,1523,3106,-1129,2775,-506,568,-2331,6676,32,22,787
834651,7217516,7707688,7219761,7711281,1567,2721,-864,2866,-397,329,-2162,6599,39,33,791
835652,7217644,7707812,7219958,7711478,2122,3004,-589,2972,-308,128,-2109,6707,39,33,791
836653,7217844,7707936,7220155,7711675,1672,3037,-336,3106,-195,-5,-1797,6866,31,45,791
837654,7218076,7708192,7220352,7711872,1457,2187,-119,3265,-103,-174,-946,6843,31,45,791
838655,7218200,7708464,7220549,7712069,2165,2055,91,3318,-58,-154,-144,6450,48,56,789
839656,7218356,7708716,7220746,7712266,1983,2156,316,3258,-10,-24,-24,6337,48,56,789
840664,7218556,7708940,7220976,7712496,1722,2334,542,3249,121,46,-201,6464,33,38,795
841658,7218696,7709136,7221173,7712693,2122,2511,768,3202,337,51,-239,6322,33,38,795
842659,7218824,7709324,7221370,7712890,2227,2565,986,3124,549,-67,45,6232,26,52,794
843660,7219020,7709560,7221567,7713087,1804,2248,1185,3057,673,-250,611,6185,26,52,794
844661,7219188,7709824,7221764,7713284,1992,2045,1331,2984,720,-376,855,6270,45,59,791
845662,7219288,7710060,7221961,7713481,2460,2203,1439,2886,688,-485,865,6117,45,59,791
846663,7219476,7710244,7222158,7713678,1914,2535,1551,2725,586,-547,755,5701,24,44,794
847664,7219664,7710452,7222355,7713875,1919,2381,1658,2505,487,-295,-118,5645,24,44,794
848665,7219760,7710644,7222552,7714072,2538,2483,1745,2274,464,-60,-1226,5638,46,45,792
849666,7219952,7710880,7222749,7714269,1942,2192,1798,2042,499,-4,-1696,5668,46,45,792
850667,7220120,7711156,7222946,7714466,2105,1908,1817,1850,498,5,-1517,5549,38,40,792
851668,7220244,7711340,7223143,7714663,2412,2489,1823,1593,415,-12,-1130,5318,38,40,792
852669,7220356,7711540,7223340,7714860,2526,2388,1846,1313,254,-70,-404,5052,32,52,792
853670,7220576,7711728,7223537,7715057,1841,2467,1887,883,30,-105,455,4574,32,52,792
854671,7220704,7711908,7223734,7715254,2447,2526,1951,379,-197,-4,606,4453,41,39,789
855672,7220788,7712112,7223931,7715451,2772,2374,2027,-176,-374,126,583,4313,41,39,789
856673,7220980,7712364,7224128,7715648,2100,2050,2092,-587,-496,213,526,4510,41,52,793
857674,7221152,7712548,7224325,7715845,2236,2481,2134,-975,-587,307,499,4383,41,52,793
858675,7221228,7712720,7224522,7716042,2890,2568,2164,-1373,-611,293,584,4451,33,33,788
859676,7221396,7712868,7224719,7716239,2329,2740,2193,-1716,-544,217,586,4435,33,33,788
860677,7221608,7713060,7224916,7716436,2047,2468,2212,-2110,-371,49,544,4320,27,49,791
861678,7221720,7713240,7225113,7716633,2711,2552,2216,-2463,-116,-223,477,4320,27,49,791
862679,7221856,7713524,7225310,7716830,2588,1863,2237,-2800,172,-479,609,4151,32,53,787
863680,7222040,7713732,7225507,7717027,2294,2334,2263,-3047,454,-752,740,4382,32,53,787
864681,7222244,7713928,7225704,7717224,2167,2410,2307,-3207,723,-951,797,4520,51,54,788
865682,7222380,7714148,7225901,7717421,2620,2251,2356,-3159,1014,-1073,668,5158,51,54,788
866683,7222552,7714336,7226098,7717618,2406,2456,2408,-2872,1344,-1240,512,5755,44,47,791
867684,7222756,7714560,7226295,7717815,2204,2219,2492,-2364,1688,-1395,183,6041,44,47,791
868686,7222860,7714840,7226492,7718012,2871,1833,2583,-1785,1999,-1547,-45,6225,47,51,790
869686,7223024,7715064,7226689,7718209,2510,2173,2690,-1222,2230,-1689,-71,5954,47,51,790
870687,7223212,7715272,7226886,7718406,2365,2268,2806,-693,2324,-1753,-314,5845,40,38,793
871688,7223344,7715500,7227083,7718603,2745,2130,2916,-230,2326,-1769,-828,5556,40,38,793
872689,7223484,7715696,7227280,7718800,2720,2331,2981,235,2293,-1744,-977,5542,47,37,790
873690,7223684,7715920,7227477,7718997,2344,2145,3011,661,2235,-1614,-727,5182,47,37,790
874691,7223844,7716124,7227674,7719194,2612,2268,2994,987,2171,-1352,-820,4893,27,57,789
875692,7223956,7716360,7227871,7719391,2950,2050,2934,1236,2170,-904,-1339,4590,27,57,789
876693,7224120,7716620,7228068,7719588,2639,1874,2848,1358,2234,-496,-1562,4122,22,45,792
877694,7224288,7716868,7228265,7719785,2628,1926,2703,1444,2346,-179,-1483,3937,22,45,792
878695,7224376,7717100,7228462,7719982,3177,2012,2522,1401,2497,200,-1246,3324,30,57,789
879696,7224516,7717332,7228659,7720179,2878,1997,2333,1187,2631,448,-440,2947,30,57,789
880697,7224696,7717572,7228856,7720376,2636,1929,2172,840,2670,572,343,2528,38,61,792
881698,7224804,7717860,7229053,7720573,3126,1589,2059,379,2662,886,-172,2158,38,61,792
882699,7224900,7718104,7229250,7720770,3246,1844,1983,-61,2630,1019,163,2017,46,52,790
883700,7225092,7718380,7229447,7720967,2649,1609,1923,-523,2574,1093,772,1873,46,52,790
884701,7225280,7718700,7229644,7721164,2679,1281,1837,-878,2503,1121,995,2192,42,48,789
885702,7225424,7718888,7229841,7721361,2979,2110,1718,-1113,2433,1044,879,2546,42,48,789
886703,7225612,7719004,7230038,7721558,2708,2597,1576,-1164,2367,1025,418,3001,36,38,793
887704,7225820,7719192,7230235,7721755,2579,2151,1427,-1044,2349,1092,-459,3492,36,38,793
888705,7225952,7719364,7230432,7721952,3083,2263,1287,-775,2375,949,-188,3748,50,46,789
889706,7226124,7719584,7230629,7722149,2845,1953,1127,-384,2348,686,832,3959,50,46,789
890707,7226336,7719832,7230826,7722346,2590,1756,982,81,2233,358,860,4149,43,43,791
891708,7226472,7720128,7231023,7722543,3092,1413,911,529,2090,274,21,4215,43,43,791
892709,7226608,7720412,7231220,7722740,3119,1451,909,997,1960,197,132,4294,35,47,790
893710,7226796,7720664,7231417,7722937,2799,1626,944,1594,1854,40,636,4458,35,47,790
894711,7226960,7721016,7231614,7723134,2965,934,960,2192,1749,5,724,4309,47,72,790
895712,7227076,7721316,7231811,7723331,3301,1214,966,2781,1624,-89,745,4272,47,72,790
896713,7227240,7721644,7232008,7723528,3017,981,979,3224,1487,-55,183,3868,27,68,791
897714,7227376,7721976,7232205,7723725,3220,898,978,3629,1381,91,-586,3675,27,68,791
898715,7227532,7722292,7232402,7723922,3114,946,940,3978,1297,127,-690,3392,46,61,791
899716,7227688,7722580,7232599,7724119,3133,1081,872,4222,1202,72,16,3114,46,61,791
900717,7227876,7722856,7232796,7724316,2938,1122,754,4405,1088,196,403,2992,26,67,793
901718,7228020,7723212,7232993,7724513,3237,552,604,4532,1010,426,365,2739,26,67,793
902719,7228188,7723668,7233190,7724710,3101,-187,441,4563,970,635,267,2536,44,69,793
903720,7228388,7724084,7233387,7724907,2900,-33,290,4501,906,688,377,2137,44,69,793
904721,7228568,7724496,7233584,7725104,3033,-101,132,4352,776,681,367,1954,36,78,793
905722,7228764,7724780,7233781,7725301,2934,660,-19,4151,577,685,306,1768,36,78,793
906723,7228964,7725032,7233978,7725498,2909,836,-176,3890,342,673,479,1758,34,62,796
907724,7229168,7725236,7234175,7725695,2882,1133,-319,3644,102,708,618,1774,34,62,796
908725,7229356,7725500,7234372,7725892,2987,729,-458,3393,-137,755,866,1788,46,66,796
909726,7229580,7725808,7234569,7726089,2751,405,-618,3213,-415,744,1069,1969,46,66,796
910727,7229808,7726076,7234766,7726286,2713,624,-810,3072,-723,675,887,2097,40,49,795
911728,7230024,7726316,7234963,7726483,2781,780,-1007,3034,-1042,530,628,2508,40,49,795
912729,7230252,7726524,7235160,7726680,2693,975,-1207,3072,-1312,430,559,2678,37,55,797
913730,7230480,7726712,7235357,7726877,2681,1104,-1430,3166,-1542,369,654,2852,37,55,797
914731,7230684,7726892,7235554,7727074,2829,1161,-1684,3284,-1770,308,749,2907,46,44,796
915732,7230908,7727028,7235751,7727271,2693,1463,-1932,3387,-2021,108,896,2934,46,44,796
916733,7231124,7727136,7235948,7727468,2735,1677,-2150,3503,-2267,-166,690,3050,44,41,795
917734,7231324,7727300,7236145,7727665,2835,1342,-2332,3622,-2490,-413,464,3091,44,41,795
918735,7231552,7727492,7236342,7727862,2647,1169,-2496,3764,-2707,-619,272,3220,56,36,793
919736,7231784,7727652,7236539,7728059,2608,1386,-2634,3844,-2962,-943,540,3038,56,36,793
920737,7232012,7727832,7236736,7728256,2619,1269,-2758,3922,-3277,-1265,608,3128,40,37,793
921738,7232188,7727960,7236933,7728453,2955,1624,-2866,3852,-3610,-1458,255,2788,40,37,793
922739,7232436,7728048,7237130,7728650,2483,1922,-2967,3787,-3885,-1451,-315,2903,47,24,794
923749,7232644,7728188,7237360,7728880,2744,1637,-3059,3662,-4049,-1517,-797,2758,47,24,794
924741,7232816,7728372,7237557,7729077,2981,1367,-3138,3507,-4126,-1642,-1157,2832,51,25,791
925742,7233040,7728560,7237754,7729274,2645,1346,-3213,3297,-4159,-1758,-1373,2815,51,25,791
926743,7233236,7728728,7237951,7729471,2822,1484,-3257,3039,-4144,-1735,-1616,2812,37,28,793
927744,7233408,7728868,7238148,7729668,2984,1684,-3283,2829,-4070,-1726,-1856,3070,37,28,793
928745,7233636,7729000,7238345,7729865,2621,1764,-3275,2574,-3921,-1822,-2040,3038,52,32,793
929746,7233852,7729196,7238542,7730062,2689,1364,-3288,2399,-3699,-1807,-2132,3671,52,32,793
930747,7234040,7729360,7238739,7730259,2867,1579,-3299,2210,-3438,-1776,-2108,3538,37,26,791
931748,7234260,7729544,7238936,7730456,2658,1459,-3287,1966,-3183,-1861,-2106,3503,37,26,791
932749,7234464,7729652,7239133,7730653,2756,1973,-3240,1704,-2969,-2035,-2111,3645,33,27,794
933750,7234664,7729732,7239330,7730850,2781,2200,-3148,1328,-2798,-2156,-2086,3469,33,27,794
934751,7234900,7729832,7239527,7731047,2540,2118,-3013,890,-2655,-2139,-2070,3358,41,38,794
935752,7235112,7730048,7239724,7731244,2684,1385,-2868,503,-2533,-2122,-2012,3711,41,38,794
936753,7235328,7730200,7239921,7731441,2652,1805,-2739,134,-2423,-2128,-1928,3889,54,46,790
937754,7235540,7730384,7240118,7731638,2671,1611,-2639,-175,-2326,-2089,-1833,4202,54,46,790
938755,7235812,7730540,7240315,7731835,2264,1805,-2564,-400,-2211,-1952,-1929,4678,34,45,793
939756,7236040,7730644,7240512,7732032,2526,2170,-2461,-551,-2049,-1724,-1941,4899,34,45,793
940757,7236252,7730712,7240709,7732229,2620,2452,-2340,-683,-1850,-1530,-1827,5041,56,24,792
941758,7236588,7730896,7240906,7732426,1785,1733,-2199,-767,-1622,-1366,-1714,5314,56,24,792
942759,7236840,7731044,7241103,7732623,2287,1980,-2040,-876,-1384,-1129,-1384,5444,59,31,791
943760,7237096,7731216,7241300,7732820,2237,1841,-1868,-946,-1198,-954,-557,5599,59,31,791
944761,7237412,7731360,7241497,7733017,1811,2040,-1716,-1029,-1102,-906,24,5716,54,24,797
945762,7237712,7731440,7241694,7733214,1865,2492,-1580,-1077,-1115,-825,416,5790,54,24,797
946763,7237960,7731508,7241891,7733411,2169,2624,-1442,-1129,-1227,-715,590,5896,72,28,795
947764,7238292,7731696,7242088,7733608,1586,1878,-1228,-1161,-1383,-623,251,5990,72,28,795
948765,7238600,7731860,7242285,7733805,1688,2043,-966,-1139,-1488,-434,-689,6148,69,42,793
949766,7238876,7732028,7242482,7734002,1853,2031,-696,-1115,-1516,-199,-1247,6164,69,42,793
950767,7239180,7732160,7242679,7734199,1632,2285,-445,-1135,-1481,69,-1257,6188,59,42,796
951768,7239536,7732252,7242876,7734396,1238,2582,-187,-1204,-1439,243,-575,6017,59,42,796
952769,7239808,7732344,7243073,7734593,1730,2628,79,-1287,-1467,216,641,5897,76,34,796
953770,7240072,7732476,7243270,7734790,1752,2407,324,-1443,-1570,219,1207,5672,76,34,796
954771,7240424,7732640,7243467,7734987,1134,2222,551,-1632,-1708,296,1309,5638,62,24,795
955772,7240740,7732772,7243664,7735184,1307,2450,810,-1801,-1850,294,897,5691,62,24,795
956773,7241020,7732924,7243861,7735381,1497,2346,1102,-1897,-1930,271,-413,5891,73,37,794
957774,7241312,7733068,7244058,7735578,1380,2420,1378,-1957,-1934,227,-1218,5905,73,37,794
958775,7241600,7733172,7244255,7735775,1366,2711,1625,-1967,-1888,326,-1295,5885,63,33,796
959776,7241888,7733300,7244452,7735972,1326,2592,1861,-1978,-1817,360,-1191,5848,63,33,796
960777,7242128,7733436,7244649,7736169,1608,2570,2112,-2013,-1734,181,-621,5634,69,31,795
961778,7242436,7733612,7244846,7736366,1135,2329,2365,-2099,-1697,-12,317,5540,69,31,795
962779,7242684,7733760,7245043,7736563,1488,2526,2612,-2202,-1717,-127,835,5406,64,38,793
963780,7242924,7733872,7245240,7736760,1519,2789,2857,-2249,-1728,-253,927,5528,64,38,793
964781,7243180,7733972,7245437,7736957,1393,2907,3078,-2209,-1699,-374,665,5614,39,37,796
965782,7243416,7734128,7245634,7737154,1502,2576,3301,-2117,-1613,-470,101,5690,39,37,796
966783,7243616,7734288,7245831,7737351,1726,2568,3489,-1965,-1481,-544,-406,5731,43,29,793
967784,7243852,7734484,7246028,7737548,1485,2344,3663,-1758,-1339,-591,-412,5591,43,29,793
968785,7244112,7734644,7246225,7737745,1307,2585,3806,-1609,-1199,-789,-71,5412,55,36,794
969786,7244352,7734764,7246422,7737942,1414,2870,3906,-1526,-1074,-968,146,5194,55,36,794
970787,7244560,7734872,7246619,7738139,1609,2985,3971,-1454,-965,-1060,298,4855,37,26,795
971788,7244848,7735028,7246816,7738336,1069,2703,4027,-1426,-856,-1186,476,4705,37,26,795
972789,7245068,7735200,7247013,7738533,1485,2615,4085,-1467,-749,-1231,544,4376,49,29,791
973790,7245252,7735404,7247210,7738730,1716,2412,4103,-1516,-637,-1233,604,4242,49,29,791
974791,7245560,7735620,7247407,7738927,892,2330,4100,-1524,-522,-1218,626,4155,59,33,793
975792,7245784,7735788,7247604,7739124,1406,2644,4060,-1604,-387,-1118,481,3909,59,33,793
976793,7246032,7735916,7247801,7739321,1234,2924,4016,-1625,-245,-1128,429,3858,64,49,794
977794,7246292,7736088,7247998,7739518,1131,2661,3954,-1652,-115,-1195,631,3660,64,49,794
978795,7246560,7736260,7248195,7739715,1051,2673,3878,-1735,-3,-1172,827,3479,47,37,794
979796,7246848,7736500,7248392,7739912,886,2229,3786,-1837,97,-1165,961,3259,47,37,794
980797,7247072,7736732,7248589,7740109,1274,2265,3692,-1962,168,-1190,1154,3045,59,47,795
981798,7247328,7736916,7248786,7740306,1049,2571,3576,-2158,203,-1255,1356,2811,59,47,795
982799,7247580,7737060,7248983,7740503,1050,2845,3441,-2378,233,-1204,1439,2748,36,31,797
983800,7247796,7737240,7249180,7740700,1267,2628,3293,-2553,282,-1052,1421,2588,36,31,797
984801,7248048,7737420,7249377,7740897,1018,2635,3119,-2773,348,-896,1415,2409,40,28,795
985802,7248272,7737604,7249574,7741094,1182,2617,2939,-3006,451,-666,1262,2313,40,28,795
986803,7248388,7737844,7249771,7741291,1892,2249,2718,-3197,621,-463,973,2297,36,33,795
987804,7248628,7737984,7249968,7741488,1098,2899,2485,-3423,843,-309,681,2047,36,33,795
988805,7248808,7738216,7250165,7741685,1482,2310,2221,-3666,1090,-125,548,2136,39,52,795
989806,7248980,7738420,7250362,7741882,1543,2483,1960,-3846,1355,-80,516,2104,39,52,795
990807,7249168,7738624,7250559,7742079,1447,2480,1692,-3977,1606,-40,510,2128,35,38,794
991808,7249376,7738908,7250756,7742276,1317,1943,1403,-4108,1788,-1,419,2155,35,38,794
992809,7249528,7739108,7250953,7742473,1688,2467,1111,-4222,1905,31,329,2185,45,38,794
993810,7249688,7739240,7251150,7742670,1654,2921,843,-4274,1957,149,255,2203,45,38,794
994811,7249904,7739400,7251347,7742867,1296,2763,590,-4277,1973,225,100,2244,44,43,796
995812,7250068,7739612,7251544,7743064,1635,2432,322,-4269,1974,378,-129,2389,44,43,796
996813,7250168,7739804,7251741,7743261,2079,2560,18,-4218,1972,576,-391,2521,28,40,791
997814,7250396,7740020,7251938,7743458,1265,2402,-300,-4082,1981,750,-684,2800,28,40,791
998815,7250548,7740156,7252135,7743655,1760,2930,-615,-3840,2045,932,-956,3118,27,30,794
999817,7250628,7740268,7252332,7743852,2262,3118,-924,-3573,2139,1121,-1129,3239,27,30,794
1000817,7250856,7740400,7252529,7744049,1324,3022,-1211,-3226,2228,1320,-1212,3405,24,35,796
1001818,7251004,7740580,7252726,7744246,1845,2731,-1464,-2912,2298,1483,-1226,3384,24,35,796
1002819,7251112,7740812,7252923,7744443,2135,2390,-1677,-2621,2323,1566,-1215,3375,28,35,787
1003820,7251320,7740984,7253120,7744640,1506,2777,-1878,-2385,2288,1555,-1152,3257,28,35,787
1004821,7251540,7741076,7253317,7744837,1420,3324,-2039,-2177,2187,1583,-1142,3249,30,30,790
1005822,7251676,7741156,7253514,7745034,1973,3452,-2171,-1997,2034,1607,-1178,3179,30,30,790
1006830,7251824,7741252,7253744,7745264,1934,3411,-2288,-1830,1838,1597,-1228,3138,42,29,790
1007824,7252084,7741416,7253941,7745461,1207,3001,-2401,-1714,1610,1647,-1336,3208,42,29,790
1008825,7252252,7741572,7254138,7745658,1795,3070,-2490,-1584,1380,1726,-1555,3388,53,24,786
1009826,7252384,7741768,7254335,7745855,2049,2822,-2549,-1350,1164,1696,-1675,3739,53,24,786
1010827,7252640,7741864,7254532,7746052,1248,3491,-2596,-1060,973,1591,-1743,4003,33,31,791
1011828,7252824,7741976,7254729,7746249,1705,3429,-2634,-623,827,1518,-1909,4480,33,31,791
1012829,7252932,7742080,7254926,7746446,2219,3521,-2670,-125,693,1395,-1638,4811,33,21,789
1013830,7253196,7742236,7255123,7746643,1214,3215,-2681,372,554,1149,-1064,4911,33,21,789
1014831,7253420,7742412,7255320,7746840,1453,3100,-2657,863,426,936,-893,4939,46,37,787
1015832,7253584,7742580,7255517,7747037,1843,3163,-2593,1255,327,709,-764,4809,46,37,787
1016833,7253764,7742708,7255714,7747234,1751,3444,-2492,1522,236,528,-554,4650,51,30,788
1017847,7254020,7742784,7255911,7747431,1251,3800,-2356,1770,145,377,-329,4508,53,39,788
1018835,7254188,7742936,7256108,7747628,1813,3369,-2218,1922,64,168,-59,4428,53,39,788
1019836,7254332,7743076,7256305,7747825,1988,3470,-2069,1981,-7,-123,133,4338,44,25,786
1020837,7254600,7743284,7256502,7748022,1181,3042,-1923,1991,-53,-320,286,4349,44,25,786
1021838,7254816,7743416,7256699,7748219,1498,3546,-1764,1952,-45,-421,327,4278,33,27,785
1022839,7254940,7743568,7256896,7748416,2106,3442,-1600,1902,25,-587,292,4444,33,27,785
1023853,7255180,7743660,7257093,7748613,1362,3800,-1467,1885,139,-845,336,4571,51,22,787
1024841,7255384,7743812,7257290,7748810,1584,3510,-1357,1886,276,-1060,267,4734,51,22,787
1025842,7255536,7744000,7257487,7749007,1930,3290,-1256,1902,404,-1241,307,4821,48,41,785
1026843,7255708,7744184,7257684,7749204,1816,3321,-1128,1825,522,-1384,308,4611,48,41,785
1027844,7255968,7744352,7257881,7749401,1239,3434,-980,1691,617,-1506,436,4649,33,45,786
1028845,7256156,7744528,7258078,7749598,1693,3395,-815,1490,660,-1668,832,4505,33,45,786
1029846,7256284,7744688,7258275,7749795,2098,3512,-647,1291,658,-1833,969,4531,33,27,787
1030847,7256536,7744852,7258472,7749992,1300,3502,-507,1112,655,-1906,729,4722,33,27,787
1031848,7256696,7745072,7258669,7750189,1892,3143,-403,990,713,-1871,337,4968,55,40,784
1032849,7256828,7745276,7258866,7750386,2095,3241,-320,889,823,-1876,295,5017,55,40,784
1033850,7257016,7745492,7259063,7750583,1750,3159,-224,724,943,-1940,502,4919,41,41,788
1034851,7257200,7745656,7259260,7750780,1781,3499,-108,525,1051,-1961,392,4856,41,41,788
1035852,7257332,7745812,7259457,7750977,2135,3568,54,272,1177,-1898,76,4863,40,43,788
1036853,7257512,7745996,7259654,7751174,1843,3400,181,126,1322,-1810,98,5169,40,43,788
1037854,7257720,7746260,7259851,7751371,1663,2872,268,21,1456,-1735,283,5190,40,50,783
1038855,7257844,7746476,7260048,7751568,2221,3164,347,-147,1587,-1591,207,5062,40,50,783
1039856,7257972,7746716,7260245,7751765,2226,2996,435,-365,1730,-1505,152,5040,47,39,790
1040857,7258196,7746920,7260442,7751962,1616,3219,503,-548,1854,-1500,268,5201,47,39,790
1041858,7258316,7747120,7260639,7752159,2299,3244,577,-790,1926,-1376,397,4877,42,50,787
1042859,7258432,7747344,7260836,7752356,2361,3083,675,-1084,1947,-1291,515,4698,42,50,787
1043860,7258656,7747576,7261033,7752553,1674,3019,762,-1348,1910,-1149,647,4842,35,53,784
1044861,7258784,7747792,7261230,7752750,2304,3111,845,-1587,1881,-924,652,4843,35,53,784
1045862,7258860,7748032,7261427,7752947,2684,2943,951,-1817,1947,-758,430,4831,34,39,789
1046863,7259036,7748236,7261624,7753144,2068,3166,1072,-1999,2085,-638,-33,5070,34,39,789
1047864,7259172,7748420,7261821,7753341,2346,3298,1187,-2045,2206,-706,-181,5379,47,57,784
1048865,7259264,7748588,7262018,7753538,2667,3412,1303,-2088,2258,-687,-40,5312,47,57,784
1049866,7259368,7748848,7262215,7753735,2634,2810,1439,-2124,2269,-549,-129,5228,39,58,783
1050867,7259576,7749108,7262412,7753932,1979,2783,1584,-2152,2267,-541,-70,5221,39,58,783
1051868,7259684,7749320,7262609,7754129,2644,3077,1722,-2162,2253,-586,63,5294,41,48,786
1052869,7259796,7749524,7262806,7754326,2657,3125,1848,-2130,2261,-657,103,5342,41,48,786
1053870,7260008,7749748,7263003,7754523,2026,2989,1961,-2039,2283,-768,157,5434,34,56,784
1054871,7260124,7749976,7263200,7754720,2662,2951,2068,-1874,2278,-754,0,5489,34,56,784
1055872,7260212,7750200,7263397,7754917,2885,2965,2176,-1734,2242,-718,-198,5329,23,57,788
1056873,7260400,7750432,7263594,7755114,2265,2901,2286,-1618,2208,-685,-353,5329,23,57,788
1057874,7260548,7750656,7263791,7755311,2537,2940,2386,-1486,2200,-636,-377,5176,51,46,784
1058875,7260660,7750884,7263988,7755508,2800,2903,2471,-1349,2212,-634,-360,4962,51,46,784
1059876,7260788,7751112,7264185,7755705,2731,2890,2529,-1219,2239,-536,-519,4920,49,59,784
1060877,7260992,7751364,7264382,7755902,2253,2717,2561,-1095,2258,-463,-574,4885,49,59,784
1061878,7261144,7751584,7264579,7756099,2599,2907,2583,-925,2256,-495,-288,4903,47,44,784
1062879,7261300,7751812,7264776,7756296,2593,2844,2622,-749,2239,-489,26,4596,47,44,784
1063880,7261520,7752016,7264973,7756493,2183,2992,2672,-610,2222,-490,-58,4531,30,59,786
1064881,7261688,7752244,7265170,7756690,2522,2829,2710,-492,2228,-414,-153,4401,30,59,786
1065882,7261836,7752464,7265367,7756887,2669,2870,2738,-398,2241,-273,-401,4148,50,58,786
1066883,7262032,7752744,7265564,7757084,2370,2460,2758,-351,2246,-117,-512,3924,50,58,786
1067884,7262200,7753008,7265761,7757281,2558,2530,2772,-364,2235,102,-448,3719,55,64,787
1068885,7262368,7753264,7265958,7757478,2572,2555,2766,-386,2194,281,-293,3537,55,64,787
1069886,7262580,7753488,7266155,7757675,2291,2744,2745,-364,2173,418,-197,3553,59,59,787
1070887,7262820,7753696,7266352,7757872,2098,2841,2702,-307,2193,471,-143,3701,59,59,787
1071888,7263000,7753968,7266549,7758069,2481,2409,2639,-195,2219,510,1,3700,58,61,788
1072889,7263176,7754348,7266746,7758266,2515,1653,2558,-81,2199,595,13,3485,58,61,788
1073890,7263412,7754640,7266943,7758463,2124,2163,2463,-51,2110,801,125,3231,46,64,790
1074891,7263636,7754904,7267140,7758660,2188,2309,2361,-77,1971,961,401,2984,46,64,790
1075892,7263844,7755164,7267337,7758857,2284,2307,2264,-145,1831,1051,573,2794,57,69,793
1076893,7264084,7755456,7267534,7759054,2066,2066,2169,-142,1716,1027,564,2881,57,69,793
1077894,7264272,7755804,7267731,7759251,2396,1650,2067,-140,1635,1006,312,2902,50,72,792
1078895,7264480,7756192,7267928,7759448,2266,1317,1946,-128,1549,1055,326,2784,50,72,792
1079896,7264704,7756488,7268125,7759645,2155,1849,1806,-97,1423,1236,438,2708,55,58,794
1080897,7264912,7756816,7268322,7759842,2251,1592,1665,-108,1290,1447,162,2559,55,58,794
1081898,7265124,7757156,7268519,7760039,2219,1454,1524,-124,1201,1550,-65,2565,37,55,794
1082899,7265344,7757480,7268716,7760236,2160,1500,1394,-115,1150,1484,190,2554,37,55,794
1083900,7265556,7757808,7268913,7760433,2205,1418,1246,-69,1100,1494,576,2534,52,70,796
1084901,7265760,7758108,7269110,7760630,2252,1548,1088,-75,1051,1607,681,2299,52,70,796
1085902,7265964,7758460,7269307,7760827,2250,1156,934,-90,1001,1748,636,2282,38,73,795
1086903,7266156,7758776,7269504,7761024,2328,1328,792,-69,931,1738,602,2362,38,73,795
1087904,7266368,7759096,7269701,7761221,2196,1249,681,-3,864,1678,327,2410,38,67,797
1088905,7266588,7759368,7269898,7761418,2137,1517,590,114,806,1637,272,2547,38,67,797
1089913,7266824,7759660,7270128,7761648,2034,1365,499,243,735,1703,392,2423,56,65,796
1090907,7267016,7760004,7270325,7761845,2313,977,392,329,607,1830,540,2359,56,65,796
1091908,7267212,7760328,7270522,7762042,2289,1046,276,392,449,1870,504,2190,50,52,796
1092909,7267416,7760640,7270719,7762239,2236,1070,162,398,289,1850,392,2058,50,52,796
1093910,7267596,7760896,7270916,7762436,2394,1395,47,450,153,1919,272,2171,28,66,795
1094911,7267760,7761176,7271113,7762633,2510,1209,-65,528,48,1968,255,2181,28,66,795
1095912,7267984,7761516,7271310,7762830,2123,771,-179,670,-25,2095,236,2307,45,50,796
1096913,7268204,7761832,7271507,7763027,2139,869,-283,806,-71,2089,170,2383,45,50,796
1097914,7268416,7762140,7271704,7763224,2182,871,-373,1016,-94,2067,16,2568,49,62,799
1098915,7268620,7762372,7271901,7763421,2230,1330,-453,1232,-121,2039,-42,2588,49,62,799
1099916,7268824,7762648,7272098,7763618,2228,1021,-532,1427,-196,1952,64,2571,51,54,799
1100917,7269036,7762956,7272295,7763815,2172,772,-626,1674,-329,1988,-13,2591,51,54,799
1101918,7269288,7763228,7272492,7764012,1899,964,-731,1831,-498,1974,-95,2255,51,46,798
1102919,7269548,7763460,7272689,7764209,1822,1199,-850,2069,-677,1902,-12,2607,51,46,798
1103920,7269852,7763700,7272886,7764406,1500,1131,-977,2335,-871,1800,336,2581,44,57,799
1104921,7270124,7763948,7273083,7764603,1668,1058,-1097,2584,-1084,1748,361,2562,44,57,799
1105922,7270356,7764224,7273280,7764800,1902,849,-1196,2898,-1300,1756,168,2707,61,48,801
1106923,7270600,7764460,7273477,7764997,1808,1081,-1279,3200,-1507,1704,-166,2721,61,48,801
1107924,7270908,7764680,7273674,7765194,1359,1171,-1364,3573,-1704,1583,-488,2930,56,40,801
1108925,7271228,7764880,7273871,7765391,1231,1295,-1446,3870,-1914,1344,-245,2757,56,40,801
1109926,7271516,7765116,7274068,7765588,1391,1053,-1522,4097,-2170,1320,135,2638,61,51,801
1110927,7271756,7765328,7274265,7765785,1673,1196,-1595,4196,-2397,1331,-164,2290,61,51,801
1111928,7272064,7765540,7274462,7765982,1199,1190,-1648,4186,-2565,1250,-202,2143,63,28,802
1112929,7272352,7765720,7274659,7766179,1285,1398,-1703,4198,-2701,1146,-250,2095,63,28,802
1113930,7272612,7765880,7274856,7766376,1433,1539,-1762,4164,-2779,1119,-666,2037,59,29,801
1114931,7272900,7766064,7275053,7766573,1219,1395,-1873,4193,-2804,1171,-613,2385,59,29,801
1115932,7273140,7766208,7275250,7766770,1500,1668,-2052,4285,-2826,1158,-335,2835,58,38,799
1116933,7273428,7766364,7275447,7766967,1161,1611,-2251,4394,-2893,887,-35,2743,58,38,799
1117934,7273692,7766472,7275644,7767164,1281,1951,-2420,4298,-2992,609,266,2143,62,37,799
1118935,7273944,7766576,7275841,7767361,1332,2016,-2584,4143,-3073,589,325,2359,62,37,799
1119936,7274204,7766744,7276038,7767558,1255,1629,-2669,3781,-3106,518,45,1407,54,23,798
1120937,7274384,7766944,7276235,7767755,1763,1428,-2635,3089,-3107,344,-39,607,54,23,798
1121938,7274644,7767120,7276432,7767952,1235,1588,-2559,2361,-3089,340,-5,885,56,23,800
1122939,7274892,7767256,7276629,7768149,1289,1865,-2488,1750,-3030,208,-279,1273,56,23,800
1123940,7275068,7767376,7276826,7768346,1748,1999,-2477,1376,-2912,-71,-674,2049,42,32,800
1124941,7275264,7767480,7277023,7768543,1623,2140,-2520,1243,-2741,-307,-743,2750,42,32,800
1125942,7275452,7767652,7277220,7768740,1678,1726,-2581,1197,-2558,-404,-949,2953,45,22,795
1126943,7275600,7767832,7277417,7768937,1950,1684,-2645,1085,-2401,-455,-890,3038,45,22,795
1127944,7275740,7767952,7277614,7769134,2025,2093,-2716,880,-2253,-536,-715,2985,39,37,797
1128945,7275912,7768056,7277811,7769331,1837,2234,-2790,583,-2078,-443,-341,2783,39,37,797
1129946,7276096,7768148,7278008,7769528,1768,2355,-2871,216,-1881,-298,209,2762,43,27,794
1130947,7276224,7768324,7278205,7769725,2148,1839,-2966,-152,-1669,-200,604,2915,43,27,794
1131948,7276408,7768504,7278402,7769922,1805,1823,-3062,-432,-1424,-91,785,3186,28,24,793
1132949,7276640,7768668,7278599,7770119,1489,1937,-3139,-644,-1126,8,627,3556,28,24,793
1133950,7276800,7768848,7278796,7770316,1957,1845,-3182,-782,-791,130,627,3773,48,36,796
1134951,7277032,7768940,7278993,7770513,1491,2442,-3197,-928,-487,184,758,3756,48,36,796
1135952,7277244,7769064,7279190,7770710,1610,2274,-3186,-1078,-275,130,956,3974,30,21,793
1136953,7277412,7769132,7279387,7770907,1898,2681,-3173,-1279,-169,90,889,3876,30,21,793
1137954,7277560,7769292,7279584,7771104,2045,2123,-3162,-1435,-128,192,363,4080,46,37,793
1138955,7277768,7769456,7279781,7771301,1665,2112,-3135,-1608,-122,380,-230,4265,46,37,793
1139956,7277916,7769612,7279978,7771498,2063,2180,-3093,-1793,-163,683,-435,4356,25,35,793
1140957,7278036,7769752,7280175,7771695,2271,2306,-3063,-1941,-252,1147,-684,4502,25,35,793
1141958,7278240,7769852,7280372,7771892,1744,2599,-3030,-2156,-363,1554,-805,4320,27,30,792
1142959,7278440,7770032,7280569,7772089,1768,2106,-3005,-2336,-447,2014,-956,4537,27,30,792
1143960,7278536,7770208,7280766,7772286,2462,2142,-2984,-2499,-440,2395,-903,4693,28,33,791
1144961,7278720,7770384,7280963,7772483,1919,2151,-2974,-2524,-380,2603,-440,5248,28,33,791
1145962,7278932,7770548,7281160,7772680,1738,2241,-2984,-2514,-370,2637,186,5318,47,25,791
1146963,7279088,7770648,7281357,7772877,2107,2684,-3000,-2470,-363,2608,296,5631,47,25,791
1147964,7279256,7770752,7281554,7773074,2044,2700,-3050,-2369,-329,2606,325,6032,24,25,793
1148965,7279484,7770892,7281751,7773271,1657,2501,-3149,-2185,-271,2675,254,6311,24,25,793
1149966,7279680,7771092,7281948,7773468,1857,2125,-3492,-1488,-111,2470,-1042,8288,28,43,790
1150967,7279836,7771288,7282145,7773665,2125,2151,-3687,-998,4,2127,-567,6499,28,43,790
1151968,7280092,7771468,7282342,7773862,1475,2259,-3632,-849,-2,1913,-574,6101,41,37,794
1152969,7280344,7771572,7282539,7774059,1476,2775,-3493,-746,1,1724,-1203,6527,41,37,794
1153970,7280496,7771708,7282736,7774256,2122,2602,-3351,-469,19,1511,-1462,7061,34,35,795
1154971,7280724,7771776,7282933,7774453,1633,3085,-3169,-47,9,1280,-1866,7192,34,35,795
1155972,7280984,7771940,7283130,7774650,1407,2499,-2930,471,1,1036,-2277,7513,52,38,791
1156973,7281196,7772168,7283327,7774847,1700,2087,-2664,1051,17,954,-2630,7879,52,38,791
1157974,7281412,7772320,7283524,7775044,1667,2582,-2368,1660,42,742,-2627,8071,45,25,793
1158975,7281660,7772424,7283721,7775241,1445,2923,-2053,2308,-9,315,-1993,8007,45,25,793
1159976,7281912,7772564,7283918,7775438,1396,2723,-1738,2841,-199,-32,-1021,7743,46,39,791
1160977,7282096,7772692,7284115,7775635,1828,2830,-1447,3264,-470,-109,-537,7541,46,39,791
1161978,7282324,7772848,7284312,7775832,1539,2673,-1196,3576,-708,31,-491,7160,34,27,792
1162979,7282564,7773096,7284509,7776029,1445,2076,-974,3784,-831,95,-763,6893,34,27,792
1163980,7282720,7773296,7284706,7776226,1989,2375,-749,3935,-824,-9,-1164,6711,53,39,792
1164981,7282932,7773460,7284903,7776423,1633,2616,-544,3987,-732,-145,-1435,6475,53,39,792
1165982,7283148,7773656,7285100,7776620,1599,2416,-347,3886,-588,62,-1353,6023,39,56,794
1166983,7283316,7773864,7285297,7776817,1913,2337,-99,3653,-444,307,-757,5617,39,56,794
1167984,7283504,7774072,7285494,7777014,1792,2333,187,3344,-297,554,-386,5303,34,53,794
1168985,7283724,7774400,7285691,7777211,1583,1526,463,3046,-141,508,-236,5385,34,53,794
1169986,7283884,7774632,7285888,7777408,1974,2111,707,2901,52,153,-200,5798,33,44,792
1170987,7284052,7774792,7286085,7777605,1937,2578,915,2745,246,-164,-91,5808,33,44,792
1171988,7284236,7774952,7286282,7777802,1844,2595,1082,2692,408,-404,-8,6127,42,51,795
1172996,7284428,7775124,7286512,7778032,1810,2545,1222,2667,510,-695,242,6169,42,51,795
1173990,7284532,7775364,7286709,7778229,2402,2103,1325,2665,528,-924,380,6237,29,53,792
1174991,7284728,7775632,7286906,7778426,1828,1896,1407,2703,485,-1080,171,6250,29,53,792
1175992,7284928,7775848,7287103,7778623,1801,2214,1485,2720,447,-1038,-500,6195,35,45,792
1176993,7285064,7776024,7287300,7778820,2229,2473,1540,2727,468,-840,-1315,6137,35,45,792
1177994,7285212,7776200,7287497,7779017,2176,2483,1594,2686,530,-895,-1608,5895,37,51,794
1178995,7285444,7776356,7287694,7779214,1636,2627,1632,2643,582,-958,-1599,5891,37,51,794
1179996,7285548,7776620,7287891,7779411,2477,1923,1674,2515,574,-932,-1362,5515,32,38,790
1180997,7285668,7776864,7288088,7779608,2411,2028,1721,2305,531,-916,-1043,5262,32,38,790
1181998,7285888,7777080,7288285,7779805,1777,2195,1764,1915,449,-817,-335,4595,28,36,791
1182999,7286024,7777248,7288482,7780002,2329,2509,1790,1430,299,-736,150,4362,28,36,791
1184000,7286120,7777380,7288679,7780199,2624,2762,1830,890,147,-580,277,4142,21,31,793
1185001,7286300,7777532,7288876,7780396,2107,2658,1879,368,37,-369,200,4090,21,31,793
1186002,7286488,7777740,7289073,7780593,2061,2303,1920,-179,7,-291,199,3996,44,43,787
1187003,7286572,7777976,7289270,7780790,2761,2112,1951,-731,36,-212,439,3895,44,43,787
1188004,7286724,7778196,7289467,7780987,2357,2202,1965,-1280,110,-192,622,3732,29,49,791
1189005,7286944,7778372,7289664,7781184,1922,2487,1964,-1858,201,-365,779,3626,29,49,791
1190006,7287048,7778560,7289861,7781381,2689,2416,1955,-2427,321,-509,719,3672,28,43,789
1191007,7287176,7778708,7290058,7781578,2569,2689,1978,-2969,479,-658,397,3649,28,43,789
1192008,7287428,7778944,7290255,7781775,1771,2122,2037,-3305,711,-841,-390,4256,29,41,788
1193009,7287548,7779172,7290452,7781972,2631,2159,2123,-3487,1004,-969,-794,4464,29,41,788
1194010,7287664,7779416,7290649,7782169,2691,2039,2231,-3554,1281,-1197,-430,4814,47,39,792
1195010,7287872,7779644,7290846,7782366,2112,2126,2342,-3430,1519,-1456,-8,5251,47,39,792
1196012,7288060,7779824,7291043,7782563,2241,2434,2448,-3163,1716,-1581,-24,5615,26,56,790
1197013,7288160,7780024,7291240,7782760,2835,2308,2549,-2720,1895,-1677,-212,5953,26,56,790
1198014,7288308,7780272,7291437,7782957,2557,1986,2668,-2240,2060,-1770,-658,5996,33,39,791
1199015,7288544,7780496,7291634,7783154,1990,2125,2784,-1700,2174,-1781,-589,6103,33,39,791
1200016,7288644,7780736,7291831,7783351,2884,2007,2884,-1196,2225,-1807,-689,5772,37,38,790
1201017,7288756,7780960,7292028,7783548,2846,2095,2956,-746,2238,-1801,-1083,5668,37,38,790
1202018,7288984,7781176,7292225,7783745,2109,2137,2988,-393,2224,-1692,-1259,5266,25,44,789
1203019,7289128,7781400,7292422,7783942,2657,2076,2957,-120,2218,-1496,-1338,5106,25,44,789
1204020,7289260,7781572,7292619,7784139,2762,2413,2903,106,2260,-1120,-1507,4687,45,40,790
1205021,7289460,7781800,7292816,7784336,2336,2049,2842,199,2317,-809,-1450,4265,45,40,790
1206022,7289624,7782060,7293013,7784533,2576,1822,2770,281,2389,-486,-1494,4164,45,45,789
1207023,7289724,7782308,7293210,7784730,3019,1875,2686,256,2487,-135,-1462,3682,45,45,789
1208024,7289836,7782536,7293407,7784927,2983,1987,2580,171,2586,114,-1267,3449,27,42,791
1209025,7290024,7782784,7293604,7785124,2512,1840,2500,-47,2626,176,-417,3061,27,42,791
1210026,7290120,7782996,7293801,7785321,3132,2058,2451,-272,2534,241,568,3024,35,59,788
1211027,7290220,7783240,7293998,7785518,3151,1839,2442,-484,2358,330,475,2971,35,59,788
1212028,7290396,7783512,7294195,7785715,2685,1631,2485,-689,2182,570,-404,3001,39,46,788
1213029,7290540,7783776,7294392,7785912,2909,1652,2531,-778,2018,707,-333,3184,39,46,788
1214030,7290636,7784048,7294589,7786109,3255,1569,2525,-764,1878,758,-213,3378,29,46,789
1215031,7290856,7784320,7294786,7786306,2471,1537,2468,-631,1829,847,-283,3684,29,46,789
1216032,7291048,7784444,7294983,7786503,2648,2494,2370,-427,1840,761,378,3876,50,40,789
1217033,7291192,7784544,7295180,7786700,2972,2687,2237,-180,1860,720,779,3995,50,40,789
1218034,7291404,7784696,7295377,7786897,2541,2383,2091,120,1863,804,815,3931,51,30,789
1219035,7291604,7784876,7295574,7787094,2616,2215,1960,396,1855,826,948,3853,51,30,789
1220036,7291736,7785056,7295771,7787291,3070,2224,1848,651,1829,753,1058,3730,54,48,788
1221037,7291888,7785296,7295968,7787488,2965,1830,1760,866,1721,483,1172,3441,54,48,788
1222038,7292052,7785544,7296165,7787685,2906,1757,1737,1080,1508,281,1158,3367,43,46,786
1223039,7292204,7785828,7296362,7787882,3002,1495,1777,1252,1225,157,1426,3154,43,46,786
1224040,7292316,7786036,7296559,7788079,3289,1965,1820,1473,931,89,1505,3423,46,53,789
1225041,7292488,7786316,7296756,7788276,2926,1480,1817,1796,696,45,1386,3582,46,53,789
1226042,7292628,7786680,7296953,7788473,3152,881,1741,2277,521,23,1273,3994,46,73,786
1227042,7292740,7786988,7297150,7788670,3365,1183,1609,2756,363,-60,1056,3809,46,73,786
1228044,7292864,7787272,7297347,7788867,3324,1295,1448,3173,251,68,-191,3758,37,71,791
1229045,7293044,7787580,7297544,7789064,2982,1097,1287,3584,196,31,-809,3578,37,71,791
1230046,7293196,7787916,7297741,7789261,3177,861,1170,3920,188,-100,-837,3296,27,73,789
1231047,7293364,7788180,7297938,7789458,3091,1281,1064,4137,171,-231,-165,2923,27,73,789
1232048,7293528,7788512,7298135,7789655,3131,798,913,4200,153,-102,-7,2550,32,55,792
1233049,7293700,7788864,7298332,7789852,3093,605,739,4207,148,36,515,2314,32,55,792
1234050,7293868,7789196,7298529,7790049,3132,670,585,4161,142,29,819,2084,51,69,792
1235051,7294048,7789556,7298726,7790246,3065,424,454,4111,123,17,1093,2061,51,69,792
1236052,7294224,7789856,7298923,7790443,3100,753,330,3987,51,67,1334,1724,48,58,791
1237053,7294412,7790148,7299120,7790640,3030,762,195,3795,-99,79,1652,1589,48,58,791
1238054,7294604,7790496,7299317,7790837,3009,346,64,3576,-295,4,1705,1589,53,70,793
1239055,7294796,7790804,7299514,7791034,3011,548,-63,3345,-501,-73,1525,1731,53,70,793
1240056,7295016,7791032,7299711,7791231,2827,1034,-214,3197,-710,-105,1435,1851,39,49,794
1241057,7295204,7791324,7299908,7791428,3032,592,-422,3114,-950,-145,1608,2055,39,49,794
1242058,7295404,7791564,7300105,7791625,2956,898,-689,3148,-1217,-146,1688,2343,55,44,794
1243058,7295648,7791788,7300302,7791822,2662,986,-984,3161,-1481,-212,1756,2430,55,44,794
1244060,7295832,7792004,7300499,7792019,3043,1028,-1311,3225,-1746,-121,2000,2602,44,43,794
1245061,7296028,7792244,7300696,7792216,2970,859,-1643,3311,-1990,-16,2169,2697,44,43,794
1246062,7296244,7792416,7300893,7792413,2838,1295,-1970,3434,-2183,65,2023,2874,41,34,793
1247063,7296452,7792588,7301090,7792610,2884,1306,-2272,3501,-2311,154,1790,2708,41,34,793
1248064,7296652,7792724,7301287,7792807,2932,1558,-2556,3546,-2367,248,1337,2744,49,32,791
1249065,7296864,7792916,7301484,7793004,2852,1210,-2785,3509,-2435,220,1481,2465,49,32,791
1250066,7297072,7793100,7301681,7793201,2873,1266,-2991,3407,-2576,248,1252,2309,46,39,791
1251067,7297320,7793324,7301878,7793398,2602,1004,-3160,3170,-2763,142,768,2021,46,39,791
1252068,7297532,7793480,7302075,7793595,2821,1447,-3279,2907,-2995,19,545,2070,59,41,792
1253069,7297740,7793632,7302272,7793792,2842,1492,-3383,2640,-3267,-148,451,2029,59,41,792
1254070,7297960,7793736,7302469,7793989,2758,1833,-3483,2419,-3557,-425,339,2365,35,31,793
1255071,7298156,7793900,7302666,7794186,2909,1472,-3576,2306,-3839,-584,15,2656,35,31,793
1256081,7298348,7794072,7302896,7794416,2951,1448,-3699,2237,-4071,-714,-252,2944,33,36,791
1257073,7298564,7794280,7303093,7794613,2794,1218,-3825,2356,-4251,-810,-553,3539,33,36,791
1258074,7298764,7794464,7303290,7794810,2893,1374,-3930,2464,-4393,-993,-897,3522,50,29,789
1259074,7298968,7794616,7303487,7795007,2866,1593,-4066,2743,-4510,-1264,-1333,4420,50,29,789
1260076,7299156,7794724,7303684,7795204,2971,1907,-4201,3095,-4581,-1508,-1672,4778,44,34,791
1261077,7299384,7794872,7303881,7795401,2709,1679,-4282,3496,-4598,-1632,-1959,4821,44,34,791
1262079,7299592,7795004,7304078,7795598,2830,1808,-4282,3764,-4560,-1749,-2170,4503,53,23,790
1263079,7299784,7795168,7304275,7795795,2932,1623,-4240,3862,-4493,-1876,-2245,4271,53,23,790
1264081,7300012,7795292,7304472,7795992,2694,1905,-4155,3755,-4416,-1978,-2199,3592,46,37,790
1265081,7300216,7795356,7304669,7796189,2842,2339,-4022,3354,-4286,-1974,-2240,2944,46,37,790
1266082,7300444,7795508,7304866,7796386,2680,1808,-3881,2882,-4104,-1880,-2477,3038,50,26,789
1267083,7300700,7795684,7305063,7796583,2480,1668,-3767,2382,-3877,-1953,-2754,3089,50,26,789
1268085,7300928,7795844,7305260,7796780,2642,1784,-3663,1936,-3629,-2107,-3186,3419,40,35,787
1269085,7301144,7796060,7305457,7796977,2709,1425,-3544,1470,-3358,-2169,-3591,3433,40,35,787
1270087,7301388,7796224,7305654,7797174,2514,1766,-3411,1059,-3068,-2229,-3695,3750,56,45,792
1271087,7301656,7796316,7305851,7797371,2334,2262,-3254,668,-2755,-2289,-3655,3799,56,45,792
1272088,7301904,7796408,7306048,7797568,2438,2308,-3077,229,-2421,-2252,-3802,3953,51,26,792
1273089,7302196,7796608,7306245,7797765,2122,1632,-2880,-158,-2073,-2231,-3734,4218,51,26,792
1274090,7302476,7796776,7306442,7797962,2160,1845,-2708,-515,-1740,-2129,-3439,4618,56,31,790
1275091,7302744,7796948,7306639,7798159,2205,1832,-2578,-727,-1451,-1999,-2772,5039,56,31,790
1276092,7303040,7797088,7306836,7798356,1988,2057,-2482,-838,-1217,-1971,-2033,5467,56,28,794
1277093,7303352,7797196,7307033,7798553,1838,2296,-2363,-912,-1072,-1882,-1478,5716,56,28,794
1278094,7303644,7797304,7307230,7798750,1921,2335,-2189,-976,-994,-1767,-1127,5733,52,37,794
1279095,7303916,7797456,7307427,7798947,2014,2081,-1920,-1048,-954,-1704,-1132,5901,52,37,794
1280096,7304256,7797628,7307624,7799144,1528,1967,-1593,-1114,-927,-1543,-1405,6077,71,37,792
1281097,7304568,7797732,7307821,7799341,1652,2433,-1241,-1129,-864,-1188,-1924,6350,71,37,792
1282098,7304864,7797876,7308018,7799538,1710,2207,-894,-1117,-775,-806,-1753,6484,74,36,793
1283099,7305188,7797956,7308215,7799735,1480,2658,-513,-1118,-719,-356,-822,7005,74,36,793
1284100,7305496,7798040,7308412,7799932,1531,2683,142,-964,-744,385,43,10023,55,36,794
1285101,7305812,7798196,7308609,7800129,1430,2252,1015,-692,-826,883,496,11126,55,36,794
1286102,7306096,7798312,7308806,7800326,1591,2538,1619,-687,-864,619,536,6966,54,22,792
1287103,7306432,7798468,7309003,7800523,1206,2306,1897,-1020,-862,641,672,5639,54,22,792
1288104,7306752,7798608,7309200,7800720,1252,2432,2051,-1451,-901,737,810,5256,71,35,795
1289105,7306996,7798720,7309397,7800917,1708,2644,2253,-1900,-1000,829,1063,5129,71,35,795
1290106,7307304,7798752,7309594,7801114,1259,3217,2537,-2224,-1115,992,623,5160,62,18,796
1291107,7307596,7798904,7309791,7801311,1318,2487,2849,-2469,-1199,1161,-24,5257,62,18,796
1292108,7307836,7799028,7309988,7801508,1624,2694,3117,-2677,-1242,1183,80,5418,48,22,790
1293109,7308148,7799180,7310185,7801705,1124,2540,3319,-2828,-1261,1145,449,5413,48,22,790
1294110,7308412,7799316,7310382,7801902,1395,2667,3472,-2951,-1263,1150,503,5363,59,26,794
1295111,7308660,7799404,7310579,7802099,1473,3016,3610,-3019,-1252,1015,472,5399,59,26,794
1296112,7308884,7799496,7310776,7802296,1612,3037,3751,-3068,-1271,737,554,5382,41,30,794
1297113,7309188,7799620,7310973,7802493,1065,2870,3878,-3092,-1332,414,597,5429,41,30,794
1298114,7309388,7799732,7311170,7802690,1714,2982,4010,-3064,-1415,177,438,5354,61,40,790
1299115,7309572,7799980,7311367,7802887,1820,2111,4135,-2958,-1485,-19,129,5327,61,40,790
1300116,7309892,7800084,7311564,7803084,916,3053,4256,-2827,-1503,-298,-185,5373,60,35,793
1301117,7310116,7800196,7311761,7803281,1504,3040,4351,-2646,-1463,-484,-432,5293,60,35,793
1302118,7310300,7800276,7311958,7803478,1761,3293,4403,-2395,-1379,-657,-505,5337,40,23,793
1303119,7310588,7800408,7312155,7803675,1071,2996,4425,-2122,-1271,-843,-312,5129,40,23,793
1304120,7310836,7800560,7312352,7803872,1299,2892,4409,-1932,-1140,-1035,-171,4822,57,41,788
1305121,7311068,7800768,7312549,7804069,1383,2538,4396,-1772,-996,-1219,23,4585,57,41,788
1306122,7311312,7800912,7312746,7804266,1289,2961,4368,-1662,-844,-1380,251,4372,64,42,792
1307123,7311644,7801040,7312943,7804463,679,3093,4338,-1557,-695,-1482,384,4155,64,42,792
1308124,7311884,7801192,7313140,7804660,1235,2964,4291,-1455,-543,-1612,415,3968,57,29,794
1309125,7312124,7801316,7313337,7804857,1218,3171,4244,-1378,-370,-1622,469,3696,57,29,794
1310126,7312444,7801484,7313534,7805054,664,2909,4190,-1361,-192,-1597,607,3473,46,31,793
1311127,7312696,7801688,7313731,7805251,1064,2682,4141,-1367,-24,-1625,763,3232,46,31,793
1312128,7312908,7801904,7313928,7805448,1308,2599,4079,-1401,135,-1592,813,3004,44,45,791
1313129,7313176,7802088,7314125,7805645,927,2806,3998,-1501,288,-1512,922,2760,44,45,791
1314130,7313468,7802248,7314322,7805842,736,2973,3892,-1630,432,-1424,1062,2568,53,40,793
1315131,7313680,7802448,7314519,7806039,1229,2722,3765,-1761,562,-1295,1229,2402,53,40,793
1316132,7313848,7802656,7314716,7806236,1517,2668,3607,-2009,689,-1094,1323,2007,41,47,794
1317133,7314108,7802884,7314913,7806433,914,2530,3423,-2257,831,-840,1438,1957,41,47,794
1318134,7314308,7803056,7315110,7806630,1288,2891,3205,-2556,986,-538,1759,1645,40,46,793
1319135,7314464,7803228,7315307,7806827,1581,2903,2965,-2886,1152,-306,1762,1574,40,46,793
1320136,7314712,7803400,7315504,7807024,984,2915,2687,-3206,1349,-163,1690,1557,31,37,795
1321137,7314896,7803656,7315701,7807221,1390,2364,2388,-3569,1546,63,1684,1287,31,37,795
1322138,7315012,7803892,7315898,7807418,1851,2473,2046,-3889,1706,268,1796,1336,33,56,791
1323139,7315264,7804160,7316095,7807615,977,2243,1684,-4198,1822,412,1857,1346,33,56,791
1324140,7315392,7804360,7316292,7807812,1782,2666,1305,-4518,1895,563,1744,1256,33,49,794
1325141,7315520,7804548,7316489,7808009,1812,2746,910,-4862,1915,665,1411,1252,33,49,794
1326142,7315744,7804728,7316686,7808206,1200,2805,499,-5071,1921,800,1038,1575,24,37,796
1327143,7315860,7804996,7316883,7808403,1912,2224,100,-5247,1927,987,712,1564,24,37,796
1328144,7315952,7805208,7317080,7808600,2108,2568,-290,-5359,1922,1143,378,1939,43,40,791
1329145,7316120,7805436,7317277,7808797,1646,2456,-685,-5344,1932,1268,86,2310,43,40,791
1330146,7316276,7805564,7317474,7808994,1739,3111,-1079,-5184,1965,1479,-142,2641,45,48,793
1331147,7316372,7805680,7317671,7809191,2158,3222,-1479,-4906,1992,1586,-216,3057,45,48,793
1332149,7316508,7805824,7317868,7809388,1936,3072,-1873,-4545,2031,1679,-361,3338,31,41,793
1333149,7316752,7806036,7318065,7809585,1241,2640,-2269,-4115,2057,1818,-536,3624,31,41,793
1334150,7316864,7806212,7318262,7809782,2103,2875,-2644,-3701,2051,1910,-687,3616,45,30,786
1335151,7316952,7806408,7318459,7809979,2302,2752,-2989,-3234,2004,1992,-830,3774,45,30,786
1336153,7317208,7806508,7318656,7810176,1226,3394,-3294,-2849,1897,1894,-945,3715,40,23,792
1337153,7317336,7806612,7318853,7810373,2056,3411,-3537,-2478,1741,1759,-1045,3729,40,23,792
1338154,7317432,7806676,7319050,7810570,2301,3721,-3726,-2144,1528,1803,-1099,3614,28,18,788
1339162,7317748,7806876,7319280,7810800,889,2884,-3855,-1900,1279,1967,-1252,3519,28,18,788
1340156,7317880,7807004,7319477,7810997,2067,3365,-3938,-1660,1041,2097,-1504,3614,49,30,785
1341157,7317992,7807188,7319674,7811194,2230,3022,-4009,-1352,855,2118,-1895,3915,49,30,785
1342158,7318204,7807332,7319871,7811391,1599,3296,-4051,-977,716,2055,-2189,4236,38,37,793
1343159,7318444,7807440,7320068,7811588,1405,3560,-4043,-594,591,1875,-2265,4395,38,37,793
1344160,7318604,7807548,7320265,7811785,1921,3600,-3978,-147,478,1724,-2353,4712,36,23,786
1345161,7318748,7807720,7320462,7811982,2046,3212,-3872,269,360,1517,-2345,4577,36,23,786
1346162,7319068,7807880,7320659,7812179,892,3305,-3720,580,230,1323,-2330,4618,34,27,786
1347163,7319244,7808016,7320856,7812376,1801,3483,-3531,872,108,1099,-2175,4665,34,27,786
1348165,7319376,7808204,7321053,7812573,2104,3162,-3308,1132,-12,775,-1796,4614,54,24,785
1349165,7319688,7808308,7321250,7812770,930,3728,-3060,1433,-113,326,-1473,4885,54,24,785
1350166,7319856,7808444,7321447,7812967,1843,3556,-2811,1732,-196,42,-1291,5086,55,38,785
1351167,7320016,7808572,7321644,7813164,1909,3637,-2582,2036,-233,-95,-1147,5175,55,38,785
