"Data file recorded 2014/9/24  16:56:59"
"%  Right Stride Frequency         = 3.0"
"%  Left Stride Frequency         = 3.0"
"%  Phase (Fractional)         = 32768.0"
"%  Experiment.py "
"%  Motor Gains    = [1800, 200, 100, 0, 0, 1800, 200, 100, 0, 0]
"% Columns: "
"% time | Right Leg Pos | Left Leg Pos | Commanded Right Leg Pos | Commanded Left Leg Pos | DCR | DCL | GyroX | GryoY | GryoZ | AX | AY | AZ | RBEMF | LBEMF | VBatt "
10934,26329092,24508508,26320105,24517865,-3800,3800,-394,-491,599,207,-462,4104,-1,-6,827
11922,26329056,24508528,26320302,24518062,-3418,3800,-392,-484,598,195,-480,4116,-1,-6,827
12923,26329020,24508540,26320499,24518259,-3318,3800,-393,-475,600,176,-464,4121,3,11,827
13912,26329016,24508660,26320696,24518456,-3432,3765,-400,-466,598,192,-491,4121,3,11,827
14913,26328772,24508792,26320893,24518653,-1739,3721,-407,-474,593,175,-494,4151,-42,23,797
15913,26328464,24508976,26321090,24518850,-1119,3404,-419,-466,571,186,-398,4083,-42,23,797
16914,26328164,24509172,26321287,24519047,-952,3331,-450,-491,540,300,-496,3959,-45,22,798
17915,26327984,24509360,26321484,24519244,-1537,3386,-515,-509,515,546,-320,3992,-45,22,798
18916,26327656,24509532,26321681,24519441,-383,3499,-589,-604,466,840,315,3629,-48,41,810
19917,26327404,24509708,26321878,24519638,-662,3485,-674,-710,387,1102,559,3742,-48,41,810
20918,26327148,24509928,26322075,24519835,-439,3202,-761,-795,299,1310,381,3744,-62,38,809
21919,26326896,24510104,26322272,24520032,-268,3488,-834,-807,224,1381,-125,3786,-62,38,809
22920,26326680,24510324,26322469,24520229,-312,3205,-900,-729,169,1054,-573,4172,-40,35,810
23921,26326444,24510492,26322666,24520426,3,3545,-1051,-497,34,440,-884,4331,-40,35,810
24922,26326212,24510648,26322863,24520623,166,3640,-1161,-305,-25,201,-577,4656,-38,26,810
25923,26326016,24510804,26323060,24520820,112,3660,-1299,-105,-78,19,-515,4549,-38,26,810
26924,26325828,24510952,26323257,24521017,232,3734,-1448,25,-109,-89,-843,4430,-46,23,811
27925,26325664,24511144,26323454,24521214,239,3462,-1568,112,-78,-326,-1166,4260,-46,23,811
28926,26325540,24511288,26323651,24521411,130,3787,-1658,168,-21,-355,-1419,4149,-23,20,810
29940,26325432,24511412,26323848,24521608,163,3800,-1707,79,42,-320,-1646,3669,-23,20,810
30928,26325356,24511580,26324045,24521805,83,3686,-1710,-141,129,-237,-1651,3531,-16,31,811
31942,26325300,24511728,26324242,24522002,70,3800,-1671,-419,207,-147,-1154,3268,-16,31,811
32943,26325264,24511872,26324439,24522199,47,3800,-1315,-349,315,-223,-971,7254,-12,40,809
33944,26325236,24512032,26324636,24522396,95,3800,-494,656,519,-372,-1200,13921,-12,40,809
34945,26325228,24512156,26324833,24522593,60,3800,76,895,683,138,-686,4097,-12,32,810
35946,26325228,24512320,26325030,24522790,96,3800,170,189,768,361,-350,1986,-12,32,810
36947,26325228,24512476,26325227,24522987,183,3800,85,-876,817,525,-389,1717,-7,26,809
37948,26325224,24512648,26325424,24523184,296,3800,34,-1808,858,702,-543,1923,-7,26,809
38949,26325216,24512800,26325621,24523381,411,3800,35,-2527,912,755,-554,2191,4,20,809
39950,26325232,24512960,26325818,24523578,341,3800,52,-3103,953,900,-519,2535,4,20,809
40951,26325232,24513096,26326015,24523775,528,3800,100,-3485,979,970,-646,3542,-7,25,809
41952,26325220,24513244,26326212,24523972,695,3800,468,-3076,984,1489,-893,10234,-7,25,809
42953,26325248,24513392,26326409,24524169,520,3800,928,-2343,960,1252,-981,8915,15,24,809
43954,26325248,24513548,26326606,24524366,781,3800,1033,-2290,933,627,-771,3908,15,24,809
44955,26325244,24513732,26326803,24524563,895,3800,859,-2597,898,522,-918,3943,16,25,808
45956,26325260,24513904,26327000,24524760,850,3800,631,-2870,846,582,-1085,4145,16,25,808
46957,26325276,24514072,26327197,24524957,930,3800,440,-2895,803,551,-923,4462,16,39,807
47958,26325292,24514260,26327394,24525154,1009,3800,280,-2818,753,566,-394,4543,16,39,807
48959,26325328,24514444,26327591,24525351,956,3800,146,-2755,689,672,-132,4479,18,28,807
49960,26325356,24514644,26327788,24525548,1080,3800,40,-2755,648,645,-114,4490,18,28,807
50961,26325408,24514804,26327985,24525745,995,3800,-55,-2787,642,745,-218,4369,9,30,807
51962,26325468,24514996,26328182,24525942,1005,3800,-156,-2853,641,866,-174,4214,9,30,807
52963,26325520,24515192,26328379,24526139,1120,3800,-248,-2924,655,847,-156,4191,5,31,807
53964,26325580,24515396,26328576,24526336,1130,3800,-319,-3007,667,920,-234,4149,5,31,807
54952,26325660,24515616,26328773,24526533,1058,3714,-365,-3086,673,954,-153,4184,10,37,807
55953,26325752,24515852,26328970,24526730,1029,3599,-337,-3116,680,900,133,4696,10,37,807
56954,26325820,24516072,26329167,24526927,1236,3691,-99,-2733,687,1038,211,8235,11,40,807
57955,26325924,24516280,26329364,24527124,1053,3763,207,-2232,703,838,126,7144,11,40,807
58956,26326012,24516516,26329561,24527321,1201,3573,330,-2166,733,678,20,4197,13,34,807
59957,26326132,24516748,26329758,24527518,1036,3584,310,-2403,772,655,-157,3773,13,34,807
60958,26326228,24516988,26329955,24527715,1231,3518,273,-2660,821,516,-248,3733,31,40,807
61959,26326356,24517188,26330152,24527912,1062,3769,265,-2799,881,234,-180,3817,31,40,807
62960,26326488,24517396,26330349,24528109,1066,3716,270,-2911,919,107,5,3946,17,47,808
63961,26326596,24517628,26330546,24528306,1256,3553,285,-2953,933,-133,165,4150,17,47,808
64962,26326728,24517852,26330743,24528503,1135,3593,307,-2921,947,-454,183,4344,16,46,807
65963,26326872,24518100,26330940,24528700,1084,3423,335,-2813,976,-704,49,4489,16,46,807
66964,26327004,24518360,26331137,24528897,1189,3322,372,-2694,1039,-956,-29,4579,18,45,808
67965,26327132,24518560,26331334,24529094,1245,3698,426,-2564,1125,-1188,-56,4589,18,45,808
68966,26327260,24518788,26331531,24529291,1276,3511,487,-2412,1218,-1360,-91,4681,32,51,808
69967,26327352,24519036,26331728,24529488,1548,3366,571,-2290,1339,-1568,-190,4746,32,51,808
70968,26327504,24519264,26331925,24529685,1193,3479,661,-2156,1498,-1654,-98,4925,19,37,806
71969,26327652,24519540,26332122,24529882,1241,3146,751,-1970,1668,-1601,274,4862,19,37,806
72970,26327780,24519772,26332319,24530079,1397,3408,833,-1774,1840,-1503,702,4884,34,43,808
73971,26327900,24519972,26332516,24530276,1482,3609,908,-1635,1998,-1348,1045,4794,34,43,808
74972,26328024,24520176,26332713,24530473,1490,3583,972,-1577,2158,-1091,1332,4675,20,36,810
75973,26328144,24520388,26332910,24530670,1550,3528,1038,-1532,2306,-1052,1538,4536,20,36,810
76974,26328264,24520648,26333107,24530867,1584,3202,1092,-1532,2416,-1086,1571,4479,19,35,807
77975,26328408,24520856,26333304,24531064,1458,3523,1114,-1500,2501,-1024,1289,4642,19,35,807
78976,26328540,24521040,26333501,24531261,1563,3681,1108,-1437,2591,-894,1022,4670,19,45,807
79977,26328680,24521232,26333698,24531458,1539,3635,1070,-1311,2665,-811,1041,4764,19,45,807
80978,26328832,24521400,26333895,24531655,1484,3800,1001,-1258,2715,-810,1169,4754,37,46,806
81979,26328940,24521600,26334092,24531852,1800,3601,891,-1192,2762,-896,1054,4970,37,46,806
82980,26329084,24521848,26334289,24532049,1599,3280,746,-1104,2814,-885,1113,4900,39,38,806
83981,26329220,24522064,26334486,24532246,1677,3474,581,-1063,2831,-725,1282,4766,39,38,806
84982,26329332,24522272,26334683,24532443,1865,3521,410,-1070,2809,-452,1443,4533,29,46,806
85983,26329492,24522476,26334880,24532640,1582,3545,245,-1182,2770,-106,1487,4109,29,46,806
86984,26329608,24522680,26335077,24532837,1894,3544,90,-1434,2735,226,1007,3921,34,35,807
87985,26329752,24522952,26335274,24533034,1743,3088,-40,-1715,2705,428,564,3814,34,35,807
88986,26329848,24523204,26335471,24533231,2089,3191,-144,-2011,2684,509,288,3689,32,40,807
89987,26329976,24523416,26335668,24533428,1920,3436,-244,-2257,2671,489,43,3783,32,40,807
90988,26330104,24523664,26335865,24533625,1951,3191,-340,-2511,2674,550,0,3752,15,47,807
91989,26330216,24523888,26336062,24533822,2091,3331,-399,-2811,2674,678,336,3622,15,47,807
93010,26330352,24524136,26336292,24534052,3008,3800,-417,-3087,2669,862,707,3612,31,46,806
93991,26330476,24524448,26336489,24534249,3116,3751,-422,-3328,2671,1128,1052,3665,31,46,806
95005,26330652,24524720,26336686,24534446,2801,3800,-399,-3553,2664,1273,1338,3624,38,55,806
95993,26330868,24525032,26336883,24534643,2544,3671,-347,-3795,2635,1184,1273,3672,38,55,806
96994,26331084,24525340,26337080,24534840,2536,3649,-279,-3931,2607,939,832,3873,32,61,799
97995,26331268,24525636,26337277,24535037,2743,3683,-211,-3946,2635,695,494,4139,32,61,799
98997,26331508,24526000,26337474,24535234,2376,3185,-134,-3942,2695,484,301,4266,37,58,803
99998,26331740,24526420,26337671,24535431,2412,2739,-43,-3886,2757,325,128,4455,37,58,803
100998,26331960,24526748,26337868,24535628,2478,3259,58,-3739,2825,196,32,4622,53,72,803
102000,26332232,24527124,26338065,24535825,2121,2882,187,-3579,2873,88,187,4612,53,72,803
103000,26332500,24527548,26338262,24536022,2116,2483,334,-3348,2915,-59,129,4827,48,73,808
104002,26332772,24527928,26338459,24536219,2059,2680,480,-3033,2972,-167,-72,4982,48,73,808
105002,26333028,24528324,26338656,24536416,2134,2495,631,-2724,3033,-141,-164,4754,54,89,810
106003,26333268,24528740,26338853,24536613,2216,2274,825,-2521,3084,3,102,4281,54,89,810
107004,26333588,24529132,26339050,24536810,1663,2341,1053,-2452,3124,151,189,3862,69,72,811
108005,26333852,24529472,26339247,24537007,1984,2604,1298,-2477,3174,173,98,3464,69,72,811
109006,26334132,24529760,26339444,24537204,1849,2890,1559,-2480,3249,296,287,3365,70,74,812
110007,26334428,24530168,26339641,24537401,1706,2049,1830,-2530,3330,548,765,3050,70,74,812
111008,26334712,24530528,26339838,24537598,1744,2278,2094,-2596,3386,745,999,3023,50,74,812
112009,26334972,24530872,26340035,24537795,1867,2316,2347,-2554,3433,625,752,3114,50,74,812
113010,26335256,24531200,26340232,24537992,1680,2359,2606,-2433,3496,690,506,3160,50,61,814
114011,26335516,24531588,26340429,24538189,1804,1901,2837,-2231,3559,723,587,3429,50,61,814
115013,26335768,24531960,26340626,24538386,1830,1925,3037,-1908,3576,672,829,3705,59,79,812
116013,26336084,24532336,26340823,24538583,1379,1824,3209,-1433,3533,836,963,3909,59,79,812
117014,26336340,24532716,26341020,24538780,1729,1719,3378,-978,3459,988,1054,3783,62,82,816
118015,26336592,24533108,26341217,24538977,1731,1560,3524,-465,3337,1010,1289,3907,62,82,816
119016,26336872,24533428,26341414,24539174,1520,1957,3639,19,3147,1009,1668,3619,47,74,817
120017,26337128,24533752,26341611,24539371,1646,1877,3722,494,2982,1359,1577,3644,47,74,817
121018,26337388,24534168,26341808,24539568,1594,1207,3791,929,2900,1664,1403,3280,47,59,817
122019,26337660,24534512,26342005,24539765,1486,1593,3859,1262,2812,1699,1578,2694,47,59,817
123020,26337948,24534856,26342202,24539962,1347,1529,3937,1484,2682,1682,1678,2282,63,72,816
124021,26338212,24535176,26342399,24540159,1468,1626,3986,1624,2525,1860,1746,2196,63,72,816
125022,26338440,24535512,26342596,24540356,1681,1466,3970,1791,2373,2109,1686,2306,59,63,817
126023,26338676,24535904,26342793,24540553,1615,1032,3939,1923,2237,2040,1765,1848,59,63,817
127024,26338904,24536292,26342990,24540750,1651,974,3925,1953,2078,1787,1863,1516,37,70,818
128025,26339156,24536628,26343187,24540947,1478,1238,3913,1857,1886,1664,1941,1244,37,70,818
129026,26339392,24536964,26343384,24541144,1562,1178,3822,1840,1690,1903,2041,1559,37,79,819
130027,26339604,24537328,26343581,24541341,1706,931,3660,1912,1485,2169,2197,1466,37,79,819
131028,26339820,24537672,26343778,24541538,1673,991,3441,1952,1248,2155,2319,1446,57,65,819
132029,26340052,24538004,26343975,24541735,1558,1008,3212,2054,1000,1991,2367,1591,57,65,819
133030,26340276,24538300,26344172,24541932,1598,1191,2939,2173,754,1853,2533,1584,45,55,819
134031,26340544,24538640,26344369,24542129,1292,853,2623,2402,500,1785,2591,1743,45,55,819
135032,26340816,24538968,26344566,24542326,1234,871,2276,2640,244,1671,2627,1706,59,55,818
136033,26341056,24539256,26344763,24542523,1417,1082,1907,2921,3,1734,2674,1882,59,55,818
137034,26341312,24539484,26344960,24542720,1292,1444,1493,3252,-219,1693,2956,2035,63,50,820
138035,26341556,24539808,26345157,24542917,1347,789,1019,3645,-450,1556,3032,2241,63,50,820
139036,26341848,24540120,26345354,24543114,1005,814,492,4022,-725,1339,2922,1972,50,50,820
140037,26342116,24540428,26345551,24543311,1125,790,-11,4214,-1065,1227,3284,1432,50,50,820
141038,26342384,24540676,26345748,24543508,1095,1144,-494,4267,-1440,1160,3163,1017,60,64,821
142039,26342660,24540912,26345945,24543705,1010,1202,-986,4225,-1775,1108,2710,758,60,64,821
143040,26342964,24541216,26346142,24543902,789,731,-1502,4202,-2060,843,2128,795,60,47,822
144041,26343248,24541512,26346339,24544099,876,737,-2033,4127,-2325,442,1780,632,60,47,822
145042,26343540,24541832,26346536,24544296,785,534,-2544,4032,-2590,312,1397,683,50,60,821
146043,26343840,24542092,26346733,24544493,691,882,-3043,3984,-2829,350,788,781,50,60,821
147045,26344092,24542316,26346930,24544690,967,1096,-3536,3941,-3027,206,226,696,45,46,822
148045,26344452,24542596,26347127,24544887,221,709,-4027,3760,-3212,-99,17,517,45,46,822
149046,26344660,24542916,26347324,24545084,1166,406,-4480,3475,-3406,-251,45,251,54,63,823
150047,26344956,24543188,26347521,24545281,574,673,-4888,3168,-3597,-198,232,200,54,63,823
151048,26345204,24543404,26347718,24545478,851,1015,-5279,2824,-3738,-169,145,333,56,42,824
152049,26345468,24543596,26347915,24545675,723,1168,-5656,2585,-3797,-206,-304,830,56,42,824
153050,26345716,24543752,26348112,24545872,800,1411,-6014,2423,-3777,-269,-710,1195,47,50,824
154051,26345956,24543992,26348309,24546069,833,868,-6314,2373,-3680,-456,-1093,1570,47,50,824
155052,26346204,24544196,26348506,24546266,760,1090,-6542,2372,-3575,-784,-1112,1778,54,41,822
156053,26346480,24544396,26348703,24546463,550,1114,-6727,2268,-3513,-1041,-999,1784,54,41,822
157054,26346748,24544580,26348900,24546660,570,1221,-6875,2107,-3498,-1035,-1031,1856,38,37,821
158055,26346952,24544744,26349097,24546857,967,1360,-6998,1800,-3496,-945,-1007,1535,38,37,821
159056,26347160,24544912,26349294,24547054,938,1349,-7047,1455,-3472,-946,-1158,1554,41,42,821
160057,26347448,24545052,26349491,24547251,398,1549,-7105,1099,-3395,-870,-1285,1920,41,42,821
161058,26347704,24545208,26349688,24547448,572,1467,-7135,751,-3292,-732,-1158,1943,39,26,820
162059,26347936,24545356,26349885,24547645,708,1539,-7179,452,-3155,-629,-1545,2434,39,26,820
163060,26348248,24545504,26350082,24547842,157,1561,-7188,232,-3012,-606,-1777,2755,44,36,821
164061,26348500,24545636,26350279,24548039,509,1691,-7169,35,-2875,-683,-1781,2988,44,36,821
165062,26348620,24545760,26350476,24548236,1368,1773,-7090,-197,-2718,-729,-1984,3183,32,21,820
166063,26348812,24545888,26350673,24548433,920,1779,-7063,-337,-2577,-505,-2099,3800,32,21,820
167064,26349056,24546024,26350870,24548630,576,1756,-7050,-436,-2493,-146,-1930,3779,50,15,820
168065,26349256,24546132,26351067,24548827,849,1971,-6987,-830,-2440,397,-1964,2890,50,15,820
169066,26349524,24546272,26351264,24549024,393,1796,-6915,-1387,-2358,1045,-2528,2971,34,30,817
170068,26349872,24546396,26351461,24549221,-172,1929,-6886,-1903,-2215,1370,-3077,3417,34,30,817
171068,26350124,24546524,26351658,24549418,404,1934,-6884,-2213,-2030,1305,-3431,3943,51,35,817
172069,26350312,24546640,26351855,24549615,808,2046,-6886,-2519,-1814,1279,-3731,3934,51,35,817
173070,26350492,24546780,26352052,24549812,866,1921,-6919,-2664,-1563,1339,-3852,4731,25,26,819
174071,26350668,24546916,26352249,24550009,900,1974,-5493,-442,-1070,1573,-7179,24845,25,26,819
175072,26350852,24547064,26352446,24550206,856,1920,-1248,8231,-185,2447,-12884,32767,50,19,817
176080,26351124,24547200,26352676,24550436,288,2038,1653,12772,291,2382,-4576,13560,50,19,817
177074,26351388,24547340,26352873,24550633,309,2039,1884,11536,293,2426,-1842,219,49,18,817
178075,26351608,24547460,26353070,24550830,574,2197,964,7753,106,3483,-2263,-2121,49,18,817
179076,26351732,24547568,26353267,24551027,1206,2313,215,4951,240,3911,-5175,-1205,49,25,817
180077,26351848,24547708,26353464,24551224,1293,2139,-492,3293,732,3630,-6398,333,49,25,817
181078,26352088,24547812,26353661,24551421,499,2404,-1260,2310,1009,4013,-5736,910,30,23,817
182079,26352300,24547984,26353858,24551618,667,1991,-1976,1081,1011,3888,-5387,427,30,23,817
183080,26352516,24548116,26354055,24551815,634,2271,-2512,-266,870,3223,-4790,683,28,31,816
184081,26352728,24548240,26354252,24552012,653,2353,-2926,-1580,570,2611,-3772,1195,28,31,816
185082,26352888,24548396,26354449,24552209,994,2172,-3205,-2512,264,1789,-3430,2507,27,19,818
186083,26353092,24548544,26354646,24552406,716,2245,-3412,-2987,-34,1355,-3235,3329,27,19,818
187084,26353256,24548716,26354843,24552603,982,2107,-3553,-3359,-364,1009,-3503,3436,32,35,816
188085,26353416,24548868,26355040,24552800,1023,2251,-3640,-3440,-583,152,-4108,4907,32,35,816
189086,26353612,24549064,26355237,24552997,799,1978,-3617,-3338,-734,-513,-3961,5027,23,31,817
190087,26353784,24549272,26355434,24553194,961,1899,-3213,-3028,-881,-946,-3886,7712,23,31,817
191088,26353944,24549508,26355631,24553391,1052,1708,-1899,-828,-813,-2449,-4275,23705,39,39,814
192089,26354104,24549764,26355828,24553588,1068,1557,-654,816,-821,-1863,-2002,10602,39,39,814
193090,26354268,24550040,26356025,24553785,1059,1398,-199,567,-1003,-1239,-1234,2658,38,49,817
194091,26354424,24550240,26356222,24553982,1127,1873,-121,-609,-1111,-974,-1539,2194,38,49,817
195092,26354612,24550452,26356419,24554179,931,1791,-12,-1581,-1046,-468,-1840,2267,42,38,819
196093,26354768,24550652,26356616,24554376,1150,1866,185,-2177,-811,-396,-1711,2475,42,38,819
197094,26354896,24550864,26356813,24554573,1355,1785,370,-2622,-450,-221,-1635,2927,40,46,817
198095,26355048,24551096,26357010,24554770,1225,1646,483,-2867,-32,117,-1567,3447,40,46,817
199096,26355196,24551284,26357207,24554967,1272,1925,567,-3102,408,189,-1192,3220,16,47,817
200097,26355348,24551448,26357404,24555164,1267,2091,684,-3419,800,90,-948,2917,16,47,817
201098,26355496,24551640,26357601,24555361,1314,1919,799,-3843,1098,-143,-720,2899,16,30,817
202099,26355644,24551824,26357798,24555558,1336,1974,897,-4086,1361,-316,-1078,3348,16,30,817
203100,26355788,24552004,26357995,24555755,1384,2008,959,-4149,1644,-344,-1905,3692,24,33,815
204101,26355908,24552204,26358192,24555952,1569,1883,1017,-4018,1956,-510,-2587,4156,24,33,815
205102,26356060,24552452,26358389,24556149,1389,1560,1072,-3715,2285,-551,-2936,4567,36,52,815
206103,26356192,24552680,26358586,24556346,1544,1673,1134,-3403,2582,-318,-3032,4472,36,52,815
207104,26356308,24552920,26358783,24556543,1679,1580,1200,-3072,2825,-73,-2942,4444,24,53,816
208105,26356444,24553140,26358980,24556740,1581,1696,1280,-2828,3019,203,-2824,4069,24,53,816
209106,26356588,24553416,26359177,24556937,1555,1311,1382,-2737,3197,559,-2846,3665,38,38,817
210107,26356720,24553636,26359374,24557134,1659,1652,1498,-2670,3378,832,-2839,3561,38,38,817
211108,26356856,24553860,26359571,24557331,1662,1616,1611,-2625,3546,1195,-2867,3353,22,51,816
212109,26357000,24554072,26359768,24557528,1635,1684,1730,-2636,3646,1446,-2577,3065,22,51,816
213110,26357144,24554272,26359965,24557725,1659,1759,1852,-2709,3690,1704,-2426,2859,30,43,815
214111,26357256,24554484,26360162,24557922,1898,1678,1956,-2838,3703,2189,-2274,2695,30,43,815
215112,26357376,24554704,26360359,24558119,1881,1618,2039,-3010,3713,2591,-2165,2528,30,36,816
216113,26357508,24554920,26360556,24558316,1836,1636,2118,-3173,3711,2791,-1986,2421,30,36,816
217114,26357604,24555124,26360753,24558513,2105,1709,2198,-3329,3670,2866,-1823,2285,22,35,815
218115,26357740,24555324,26360950,24558710,1883,1732,2263,-3442,3603,2910,-1824,2484,22,35,815
219116,26357872,24555552,26361147,24558907,1937,1545,2278,-3459,3520,2967,-1860,2705,35,49,815
220117,26358000,24555800,26361344,24559104,1993,1397,2251,-3463,3412,2969,-1702,2640,35,49,815
221118,26358148,24556008,26361541,24559301,1891,1644,2186,-3435,3261,2842,-1072,2763,23,54,815
222119,26358300,24556216,26361738,24559498,1885,1640,2082,-3370,3080,2761,-693,2853,23,54,815
223120,26358428,24556460,26361935,24559695,2067,1394,1935,-3253,2914,2699,-694,2858,38,35,815
224121,26358588,24556660,26362132,24559892,1884,1669,1746,-3108,2785,2566,-679,2975,38,35,815
225122,26358756,24556876,26362329,24560089,1847,1561,1558,-2945,2673,2436,-748,2990,25,47,815
226123,26358920,24557116,26362526,24560286,1887,1393,1400,-2759,2572,2321,-802,3091,25,47,815
227124,26359064,24557300,26362723,24560483,2036,1749,1269,-2509,2482,2228,-839,3166,26,40,815
228125,26359208,24557520,26362920,24560680,2060,1514,1166,-2235,2388,2191,-986,3156,26,40,815
229126,26359352,24557732,26363117,24560877,2084,1559,1101,-1974,2299,2145,-970,3041,32,37,816
230127,26359516,24557964,26363314,24561074,1975,1419,1064,-1804,2220,1981,-695,2799,32,37,816
231128,26359656,24558212,26363511,24561271,2151,1297,1031,-1701,2147,1862,-469,2662,41,49,815
232129,26359824,24558424,26363708,24561468,1988,1516,987,-1644,2104,1761,-314,2573,41,49,815
233130,26359984,24558624,26363905,24561665,2056,1590,935,-1543,2116,1642,-235,2739,41,35,816
234131,26360148,24558804,26364102,24561862,2046,1723,888,-1407,2169,1412,-109,2631,41,35,816
235133,26360336,24559036,26364299,24562059,1900,1384,870,-1334,2234,1115,-69,2540,31,37,814
236133,26360500,24559276,26364496,24562256,2066,1315,889,-1236,2293,834,174,2606,31,37,814
237135,26360660,24559564,26364693,24562453,2108,976,916,-1080,2338,629,224,2864,32,43,814
238135,26360792,24559796,26364890,24562650,2312,1311,906,-748,2401,423,122,3513,32,43,814
239136,26360964,24560056,26365087,24562847,2074,1109,881,-329,2466,198,276,3833,29,55,816
240137,26361100,24560336,26365284,24563044,2326,948,883,148,2497,22,538,3785,29,55,816
241138,26361232,24560612,26365481,24563241,2381,939,910,588,2496,-120,759,3842,25,61,814
242139,26361372,24560888,26365678,24563438,2357,904,910,1094,2489,-239,958,4224,25,61,814
243140,26361492,24561192,26365875,24563635,2517,683,847,1645,2516,-352,847,4358,41,52,815
244141,26361680,24561528,26366072,24563832,2097,422,771,2145,2574,-565,812,4203,41,52,815
245142,26361876,24561764,26366269,24564029,2047,1031,717,2621,2645,-700,853,4287,31,55,815
246143,26362080,24561976,26366466,24564226,1995,1174,683,3042,2714,-709,543,4041,31,55,815
247144,26362260,24562204,26366663,24564423,2153,1062,671,3369,2773,-658,257,3962,33,45,817
248145,26362444,24562460,26366860,24564620,2135,861,688,3702,2842,-671,150,4004,33,45,817
249146,26362640,24562732,26367057,24564817,2062,728,716,4050,2893,-602,488,3914,39,39,816
250147,26362804,24563012,26367254,24565014,2277,642,739,4290,2909,-502,1002,3786,39,39,816
251148,26362960,24563312,26367451,24565211,2345,472,742,4407,2909,-423,1430,3475,35,48,817
252149,26363136,24563580,26367648,24565408,2230,641,736,4435,2913,-261,1468,3279,35,48,817
253150,26363308,24563772,26367845,24565605,2267,1119,746,4375,2934,-245,1296,3137,40,61,816
254151,26363484,24563900,26368042,24565802,2253,1549,773,4311,2949,-306,1286,3192,40,61,816
255152,26363656,24564132,26368239,24565999,2290,885,771,4358,2868,-392,1774,3582,44,44,817
256153,26363800,24564368,26368436,24566196,2489,843,708,4445,2648,-480,2508,3785,44,44,817
257154,26363944,24564632,26368633,24566393,2513,638,606,4606,2378,-553,2540,4050,23,47,813
258155,26364120,24564884,26368830,24566590,2323,690,410,4935,2042,-919,2433,4815,23,47,813
259163,26364304,24565104,26369060,24566820,2294,895,87,5552,1610,-1449,2219,5873,33,53,815
260157,26364464,24565292,26369257,24567017,2461,1099,-345,6320,1131,-1784,1671,6161,33,53,815
261158,26364648,24565448,26369454,24567214,2318,1318,-857,7049,596,-2175,1603,5965,41,38,816
262159,26364808,24565632,26369651,24567411,2485,1148,-1421,7452,-11,-2283,2148,5308,41,38,816
263160,26365000,24565836,26369848,24567608,2288,1020,-2011,7675,-627,-1921,2227,4846,49,50,815
264161,26365156,24566064,26370045,24567805,2532,858,-2557,7745,-1201,-1859,2265,5054,49,50,815
265162,26365376,24566316,26370242,24568002,2123,683,-2700,8374,-1630,-2132,1593,11226,32,44,814
266163,26365540,24566524,26370439,24568199,2488,954,-2581,8916,-1905,-1571,1486,8821,32,44,814
267164,26365756,24566756,26370636,24568396,2156,789,-2632,8375,-2140,-787,2087,2474,52,54,814
268165,26365964,24566976,26370833,24568593,2202,854,-2571,7401,-2262,-407,1812,4901,52,54,814
269166,26366160,24567232,26371030,24568790,2279,603,-2226,6608,-2233,-39,1000,6491,39,50,814
270167,26366372,24567476,26371227,24568987,2173,658,-1873,5632,-2055,562,871,2898,39,50,814
271168,26366596,24567696,26371424,24569184,2087,798,-1704,4330,-1759,990,753,1477,54,52,817
272169,26366800,24567916,26371621,24569381,2209,788,-1452,3240,-1373,1052,129,4675,54,52,817
273170,26367004,24568072,26371818,24569578,2207,1206,-1001,2579,-926,850,-566,6267,40,48,817
274171,26367228,24568232,26372015,24569775,2071,1199,-574,1917,-511,735,-1136,4267,40,48,817
275172,26367432,24568392,26372212,24569972,2194,1215,-258,1203,-232,282,-588,4858,51,44,817
276173,26367620,24568560,26372409,24570169,2299,1178,-19,717,-131,-419,545,5920,51,44,817
277174,26367832,24568728,26372606,24570366,2143,1190,95,358,-213,-987,1112,5096,48,38,816
278175,26368044,24568880,26372803,24570563,2138,1311,45,173,-435,-1580,1332,5142,48,38,816
279176,26368256,24569016,26373000,24570760,2132,1438,-126,343,-720,-2194,1145,6695,32,40,814
280177,26368472,24569188,26373197,24570957,2100,1224,-399,893,-1039,-2709,959,7255,32,40,814
281178,26368680,24569300,26373394,24571154,2146,1637,-698,1528,-1364,-3082,773,7470,46,28,815
282179,26368888,24569424,26373591,24571351,2142,1594,-930,2206,-1709,-3304,466,7651,46,28,815
283180,26369076,24569548,26373788,24571548,2271,1627,-1052,2641,-2036,-3458,-429,6849,30,31,816
284181,26369284,24569640,26373985,24571745,2142,1874,-1066,2880,-2311,-3447,-784,6606,30,31,816
285182,26369488,24569788,26374182,24571942,2165,1545,-1005,2996,-2503,-3326,-1142,6219,27,29,814
286183,26369688,24569908,26374379,24572139,2190,1755,-847,2870,-2601,-3003,-1331,5551,27,29,814
287184,26369904,24570016,26374576,24572336,2083,1869,-590,2536,-2588,-2522,-1310,5287,41,35,813
288185,26370084,24570112,26374773,24572533,2316,1989,-295,1905,-2512,-2048,-663,4035,41,35,813
289186,26370316,24570212,26374970,24572730,1977,2007,-41,954,-2435,-1462,218,2840,51,28,812
290187,26370524,24570312,26375167,24572927,2123,2051,151,-184,-2312,-890,307,1984,51,28,812
291188,26370728,24570384,26375364,24573124,2146,2281,325,-1416,-2113,-566,641,1483,47,11,810
292189,26370928,24570456,26375561,24573321,2169,2337,494,-2683,-1885,-472,1307,1285,47,11,810
293190,26371164,24570504,26375758,24573518,1928,2552,642,-3923,-1626,-403,1151,1377,30,8,811
294191,26371360,24570604,26375955,24573715,2180,2271,756,-5018,-1320,-323,815,1940,30,8,811
295192,26371576,24570724,26376152,24573912,2047,2179,859,-5847,-1010,-425,915,2741,52,28,811
296193,26371800,24570848,26376349,24574109,1987,2188,1169,-6086,-745,-301,688,6697,52,28,811
297194,26372016,24571004,26376546,24574306,2029,2006,1740,-5465,-567,49,479,11552,54,33,810
298195,26372248,24571128,26376743,24574503,1915,2239,2021,-5029,-424,-608,671,6043,54,33,810
299196,26372480,24571264,26376940,24574700,1900,2191,1856,-4886,-257,-749,527,5014,53,25,812
300197,26372700,24571392,26377137,24574897,1965,2272,1512,-4821,-67,-642,-277,5374,53,25,812
301198,26372936,24571516,26377334,24575094,1849,2330,1204,-4509,97,-613,-635,5779,55,30,811
302199,26373176,24571652,26377531,24575291,1806,2283,984,-4087,208,-683,-452,5579,55,30,811
303200,26373432,24571748,26377728,24575488,1681,2577,799,-3703,231,-571,248,5387,38,29,811
304201,26373656,24571844,26377925,24575685,1871,2622,630,-3409,193,-407,483,5226,38,29,811
305202,26373932,24571908,26378122,24575882,1512,2882,492,-3157,163,-115,311,5118,37,26,812
306203,26374208,24571980,26378319,24576079,1477,2888,356,-2901,130,242,689,5041,37,26,812
307204,26374448,24572064,26378516,24576276,1684,2862,201,-2688,62,446,1290,4816,59,19,811
308205,26374692,24572180,26378713,24576473,1640,2699,52,-2556,-53,613,1273,4515,59,19,811
309206,26374984,24572296,26378910,24576670,1299,2736,-58,-2573,-216,773,984,3944,45,12,810
310207,26375248,24572408,26379107,24576867,1444,2799,-136,-2688,-410,873,862,3630,45,12,810
311208,26375472,24572488,26379304,24577064,1683,3051,-179,-2920,-606,1005,722,3133,55,26,810
312209,26375784,24572608,26379501,24577261,1084,2836,-181,-3290,-779,1077,722,2690,55,26,810
313210,26376036,24572756,26379698,24577458,1436,2683,-159,-3659,-920,1140,652,2716,58,20,810
314211,26376268,24572908,26379895,24577655,1545,2679,-116,-4018,-1034,1089,373,2558,58,20,810
315212,26376544,24573048,26380092,24577852,1237,2780,-45,-4357,-1087,996,-82,2587,46,38,811
316213,26376812,24573176,26380289,24578049,1256,2886,31,-4634,-1105,836,-259,2591,46,38,811
317214,26377076,24573296,26380486,24578246,1252,2971,136,-4834,-1128,664,-322,2719,40,19,811
318215,26377348,24573432,26380683,24578443,1170,2899,257,-4956,-1149,499,-411,2965,40,19,811
319216,26377580,24573536,26380880,24578640,1406,3140,382,-4966,-1164,315,-445,3250,60,24,811
320217,26377836,24573648,26381077,24578837,1230,3129,466,-4785,-1165,124,-375,3611,60,24,811
321218,26378092,24573748,26381274,24579034,1205,3247,501,-4436,-1154,-141,-240,4145,58,31,811
322219,26378340,24573828,26381471,24579231,1232,3425,497,-3950,-1127,-312,-344,4472,58,31,811
323220,26378580,24573908,26381668,24579428,1265,3477,503,-3384,-1076,-447,-932,4604,54,30,809
324221,26378812,24574012,26381865,24579625,1300,3369,514,-2772,-1036,-662,-1220,4616,54,30,809
325222,26379092,24574112,26382062,24579822,964,3438,511,-2170,-1050,-781,-1159,4594,34,13,807
326223,26379300,24574212,26382259,24580019,1410,3481,484,-1619,-1088,-833,-1317,4397,34,13,807
327224,26379528,24574320,26382456,24580216,1271,3472,468,-1106,-1144,-757,-1029,4124,52,29,807
328225,26379776,24574420,26382653,24580413,1125,3565,472,-703,-1216,-644,-305,3713,52,29,807
329226,26379988,24574528,26382850,24580610,1343,3556,481,-434,-1274,-447,323,3287,33,31,807
330227,26380188,24574684,26383047,24580807,1418,3275,463,-246,-1272,-175,326,2935,33,31,807
331228,26380428,24574824,26383244,24581004,1150,3401,431,-172,-1232,40,255,2530,35,28,807
332229,26380676,24575028,26383441,24581201,1078,2999,399,-243,-1180,268,205,2087,35,28,807
333230,26380928,24575204,26383638,24581398,1029,3184,366,-479,-1109,525,-125,1649,48,38,807
334231,26381164,24575424,26383835,24581595,1112,2900,343,-744,-1019,686,-624,1501,48,38,807
335232,26381408,24575652,26384032,24581792,1043,2839,328,-1011,-928,771,-872,1555,57,48,810
336233,26381668,24575876,26384229,24581989,915,2853,320,-1271,-848,798,-1055,1610,57,48,810
337234,26381912,24576108,26384426,24582186,995,2788,303,-1456,-785,801,-1196,1768,37,58,812
338235,26382180,24576312,26384623,24582383,814,2961,286,-1577,-743,737,-1334,1969,37,58,812
339236,26382456,24576532,26384820,24582580,730,2852,237,-1620,-718,577,-1286,2164,42,55,813
340237,26382752,24576748,26385017,24582777,562,2870,154,-1579,-727,288,-900,2397,42,55,813
341238,26382992,24576956,26385214,24582974,893,2917,28,-1487,-763,-58,-825,2578,46,38,812
342248,26383236,24577160,26385444,24583204,863,2955,-125,-1323,-798,-386,-1044,2799,46,38,812
343240,26383488,24577368,26385641,24583401,789,2926,-309,-1105,-835,-727,-1342,2944,48,47,813
344241,26383768,24577536,26385838,24583598,578,3189,-520,-892,-883,-933,-1633,2990,48,47,813
345242,26384012,24577708,26386035,24583795,783,3176,-757,-738,-949,-896,-2036,2757,51,33,811
346243,26384252,24577932,26386232,24583992,789,2841,-986,-630,-1029,-872,-2068,2555,51,33,811
347244,26384536,24578128,26386429,24584189,476,3017,-1224,-638,-1101,-950,-1853,2288,39,40,812
348245,26384768,24578344,26386626,24584386,786,2886,-1465,-805,-1144,-942,-1604,2018,39,40,812
349246,26384984,24578536,26386823,24584583,879,3039,-1702,-1003,-1139,-1021,-1454,1871,37,35,813
350247,26385200,24578756,26387020,24584780,870,2855,-1897,-1267,-1091,-1115,-1314,1580,37,35,813
351248,26385396,24578948,26387217,24584977,996,3033,-2071,-1698,-1014,-1113,-1403,1267,34,47,813
352249,26385604,24579172,26387414,24585174,917,2822,-2218,-2222,-896,-991,-1566,987,34,47,813
353250,26385788,24579400,26387611,24585371,1073,2784,-2361,-2877,-733,-737,-1752,745,31,37,812
354251,26385976,24579644,26387808,24585568,1052,2666,-2498,-3620,-540,-454,-2144,538,31,37,812
355252,26386152,24579864,26388005,24585765,1137,2807,-2621,-4382,-303,-237,-2530,713,43,55,811
356253,26386324,24580096,26388202,24585962,1173,2717,-2739,-5101,-58,25,-2590,812,43,55,811
357254,26386504,24580364,26388399,24586159,1130,2462,-2857,-5798,167,381,-2476,1022,26,57,812
358255,26386692,24580604,26388596,24586356,1085,2619,-2974,-6425,412,576,-2399,1427,26,57,812
359256,26386872,24580852,26388793,24586553,1143,2548,-3097,-6931,697,728,-2478,1956,45,48,813
360258,26387036,24581104,26388990,24586750,1257,2500,-3210,-7289,1006,869,-2508,2501,45,48,813
361259,26387212,24581372,26389187,24586947,1192,2369,-3297,-7504,1318,1099,-2310,2997,48,58,813
362260,26387364,24581664,26389384,24587144,1362,2179,-3357,-7553,1575,1368,-1871,3628,48,58,813
363261,26387516,24581948,26389581,24587341,1383,2191,-3423,-7475,1755,1531,-1527,4237,45,63,814
364262,26387688,24582212,26389778,24587538,1269,2288,-3472,-7226,1895,1675,-1408,4880,45,63,814
365263,26387856,24582460,26389975,24587735,1307,2367,-3475,-6853,2033,2103,-1465,5917,23,45,815
366264,26388012,24582716,26390172,24587932,1401,2292,-1526,-2804,2037,6931,-1974,32767,23,45,815
367265,26388156,24582968,26390369,24588129,1499,2294,1891,4248,1744,9196,-1856,32767,33,41,813
368266,26388308,24583264,26390566,24588326,1470,1976,3510,6929,1662,3099,-1021,5428,33,41,813
369267,26388472,24583480,26390763,24588523,1409,2469,3218,5644,1828,2951,-568,1793,24,54,814
370268,26388644,24583724,26390960,24588720,1370,2274,2610,3455,2016,3408,-1136,474,24,54,814
371269,26388800,24583960,26391157,24588917,1489,2308,2213,1869,2255,3348,-1702,560,42,58,815
372270,26388960,24584196,26391354,24589114,1481,2292,2072,705,2492,2987,-1590,108,42,58,815
373270,26389116,24584416,26391551,24589311,1525,2383,1875,-343,2580,2926,-1171,335,41,53,814
374271,26389280,24584676,26391748,24589508,1489,2106,1674,-1489,2580,2180,-954,-109,41,53,814
375272,26389412,24584868,26391945,24589705,1719,2534,1446,-2642,2548,1589,-997,534,29,38,813
376273,26389588,24585080,26392142,24589902,1453,2404,1153,-3518,2468,1214,-919,1384,29,38,813
377275,26389748,24585260,26392339,24590099,1570,2612,824,-4067,2342,621,-333,2367,32,47,813
378275,26389908,24585468,26392536,24590296,1586,2433,461,-4203,2141,289,171,3360,32,47,813
379277,26390060,24585708,26392733,24590493,1657,2215,142,-4264,1940,-107,78,3507,23,30,812
380278,26390228,24585876,26392930,24590690,1570,2679,-150,-4085,1793,-433,300,4592,23,30,812
381279,26390408,24586044,26393127,24590887,1503,2692,-380,-3779,1677,-629,559,4612,22,45,812
382280,26390560,24586212,26393324,24591084,1698,2706,-579,-3427,1574,-1066,510,4945,22,45,812
383281,26390728,24586380,26393521,24591281,1612,2719,-743,-2987,1532,-1590,83,5217,23,28,811
384281,26390904,24586572,26393718,24591478,1571,2572,-837,-2717,1560,-1637,-115,4744,23,28,811
385283,26391052,24586736,26393915,24591675,1769,2763,-866,-2433,1651,-1594,-173,4806,24,32,810
386283,26391228,24586856,26394112,24591872,1603,3073,-839,-2255,1792,-1723,-204,4398,24,32,810
387285,26391392,24586984,26394309,24592069,1693,3054,-791,-2169,1924,-1605,-210,4242,27,35,811
388286,26391560,24587112,26394506,24592266,1681,3085,-743,-2126,2102,-1380,-320,4265,27,35,811
389287,26391720,24587264,26394703,24592463,1748,2956,-698,-1990,2342,-1151,-294,4456,40,26,808
390287,26391892,24587464,26394900,24592660,1685,2656,-645,-1929,2575,-999,-165,4115,40,26,808
391289,26392044,24587608,26395097,24592857,1830,3030,-534,-2030,2772,-833,142,3635,22,39,808
392289,26392204,24587748,26395294,24593054,1797,3081,-415,-2169,2921,-532,459,3718,22,39,808
393291,26392380,24587884,26395491,24593251,1707,3134,-283,-2378,2988,-393,752,3305,20,28,810
394292,26392524,24588016,26395688,24593448,1931,3189,-167,-2590,2993,-277,868,3416,20,28,810
395293,26392692,24588212,26395885,24593645,1795,2790,-58,-2784,2968,-27,712,3424,22,20,807
396294,26392848,24588324,26396082,24593842,1888,3353,17,-2890,2935,130,423,3931,22,20,807
397295,26392992,24588440,26396279,24594039,1987,3365,56,-2817,2907,58,-74,4365,22,22,807
398295,26393136,24588588,26396476,24594236,2010,3188,67,-2761,2860,205,-283,4163,22,22,807
399297,26393312,24588744,26396673,24594433,1821,3157,63,-2763,2788,637,-256,4189,43,39,805
400297,26393456,24588880,26396870,24594630,2045,3309,59,-2765,2700,1154,-58,4203,43,39,805
401299,26393556,24589088,26397067,24594827,2362,2857,59,-2750,2611,1575,32,4118,37,26,804
402299,26393720,24589264,26397264,24595024,1978,3067,55,-2742,2531,1738,-83,4139,37,26,804
403301,26393888,24589412,26397461,24595221,1967,3264,47,-2684,2461,1823,-336,4459,18,33,805
404302,26394024,24589564,26397658,24595418,2193,3260,25,-2545,2389,1870,-519,4565,18,33,805
405303,26394192,24589736,26397855,24595615,2007,3147,21,-2445,2298,1896,-571,4428,41,28,807
406303,26394376,24589944,26398052,24595812,1914,2918,49,-2427,2193,2044,-533,4151,41,28,807
407305,26394496,24590152,26398249,24596009,2348,2914,115,-2475,2088,2226,-563,3987,45,38,805
408305,26394660,24590332,26398446,24596206,2088,3098,193,-2488,2000,2226,-642,4076,45,38,805
409307,26394796,24590540,26398643,24596403,2291,2919,298,-2537,1915,2197,-637,3966,23,34,808
410308,26394968,24590732,26398840,24596600,2078,3023,426,-2595,1836,2133,-449,3989,23,34,808
411309,26395116,24590932,26399037,24596797,2250,2973,562,-2547,1772,2006,-439,4356,24,49,805
412310,26395284,24591136,26399234,24596994,2138,2946,701,-2396,1707,1849,-319,4442,24,49,805
413311,26395408,24591324,26399431,24597191,2446,3051,841,-2198,1654,1547,-438,4594,29,42,807
414312,26395532,24591552,26399628,24597388,2480,2788,979,-1940,1640,1323,-557,4833,29,42,807
415313,26395688,24591796,26399825,24597585,2298,2668,1094,-1598,1646,1104,-703,5050,35,57,807
416313,26395808,24592044,26400022,24597782,2557,2622,1208,-1233,1657,907,-579,5030,35,57,807
417314,26395920,24592284,26400219,24597979,2646,2654,1337,-948,1680,980,-205,4725,41,56,807
418315,26396060,24592504,26400416,24598176,2497,2770,1487,-744,1699,1022,293,4502,41,56,807
419316,26396172,24592756,26400613,24598373,2710,2547,1633,-509,1746,798,321,4647,37,44,807
420317,26396296,24593000,26400810,24598570,2667,2578,1756,-236,1827,583,157,4664,37,44,807
421318,26396440,24593244,26401007,24598767,2566,2559,1859,52,1938,418,-55,4714,30,53,806
422319,26396588,24593480,26401204,24598964,2564,2592,1935,388,2085,291,-171,4823,30,53,806
423320,26396708,24593712,26401401,24599161,2774,2603,1987,706,2234,158,-225,4612,23,43,805
424321,26396820,24593972,26401598,24599358,2862,2401,2034,937,2390,-20,-435,4340,23,43,805
425329,26396972,24594228,26401828,24599588,2647,2416,2075,1086,2541,-233,-493,4153,42,52,807
426324,26397076,24594476,26402025,24599785,2989,2445,2103,1167,2669,-144,-479,3976,38,37,806
427325,26397216,24594696,26402222,24599982,2790,2610,2121,1227,2819,66,-459,3837,38,37,806
428326,26397364,24594916,26402419,24600179,2763,2601,2133,1253,2989,150,-272,3661,18,37,805
429327,26397500,24595128,26402616,24600376,2866,2646,2143,1274,3129,88,-31,3543,18,37,805
430328,26397660,24595316,26402813,24600573,2733,2801,2121,1268,3203,84,289,3486,34,48,806
431329,26397864,24595588,26403010,24600770,2456,2244,2072,1214,3211,177,778,3263,34,48,806
432330,26398044,24595848,26403207,24600967,2614,2292,2008,1157,3186,190,958,3396,52,47,804
433330,26398228,24596084,26403404,24601164,2596,2426,1893,1269,3167,-177,861,3938,52,47,804
434331,26398404,24596340,26403601,24601361,2656,2276,1758,1387,3143,-341,1107,3740,50,44,808
435333,26398596,24596544,26403798,24601558,2560,2599,1633,1455,3069,-141,1552,3513,50,44,808
436334,26398768,24596812,26403995,24601755,2697,2169,1498,1439,2940,105,1871,3283,49,51,808
437335,26398980,24597084,26404192,24601952,2441,2112,1361,1286,2754,250,2162,2820,49,51,808
438336,26399236,24597356,26404389,24602149,2141,2079,1226,1048,2556,135,2067,2597,37,44,809
439336,26399416,24597640,26404586,24602346,2623,1967,1093,772,2443,-97,1670,2683,37,44,809
440337,26399612,24597884,26404783,24602543,2525,2197,943,612,2445,-182,1376,2995,42,62,811
441338,26399840,24598148,26404980,24602740,2312,2043,799,388,2472,-157,1665,2568,42,62,811
442340,26400040,24598452,26405177,24602937,2487,1747,700,47,2453,63,1988,2097,49,51,809
443341,26400272,24598736,26405374,24603134,2273,1835,633,-416,2398,477,2232,1806,49,51,809
444342,26400512,24599016,26405571,24603331,2205,1825,577,-822,2361,649,2237,2114,60,45,810
445343,26400724,24599280,26405768,24603528,2374,1896,506,-995,2362,296,1869,2822,60,45,810
446344,26400964,24599560,26405965,24603725,2181,1760,427,-904,2395,-382,1211,3473,47,44,813
447345,26401180,24599860,26406162,24603922,2324,1591,366,-719,2436,-526,1216,3431,47,44,813
448345,26401460,24600128,26406359,24604119,1888,1760,336,-646,2435,-77,1796,3016,55,63,813
449347,26401688,24600400,26406556,24604316,2201,1703,302,-589,2399,366,1983,3125,55,63,813
450347,26401940,24600656,26406753,24604513,2028,1777,278,-544,2383,498,1861,2917,62,64,814
451349,26402220,24600932,26406950,24604710,1817,1619,254,-413,2388,371,1755,3299,62,64,814
452350,26402468,24601256,26407147,24604907,1996,1264,220,-84,2448,224,1426,3789,45,49,814
453350,26402708,24601584,26407344,24605104,2028,1182,173,302,2565,329,1293,4004,45,49,814
454352,26402992,24601840,26407541,24605301,1716,1606,136,743,2645,530,1428,3940,56,66,815
455352,26403292,24602112,26407738,24605498,1571,1474,129,1029,2652,762,1660,3391,56,66,815
456353,26403584,24602424,26407935,24605695,1580,1175,147,1315,2589,950,1568,3357,48,63,816
457354,26403856,24602728,26408132,24605892,1673,1178,155,1624,2538,799,1256,3288,48,63,816
458356,26404120,24603048,26408329,24606089,1694,1025,172,1845,2514,612,967,3116,41,63,818
459357,26404408,24603320,26408526,24606286,1505,1292,200,1936,2453,415,914,2773,41,63,818
460358,26404740,24603560,26408723,24606483,1172,1474,249,1896,2325,428,842,2270,71,52,818
461359,26405020,24603852,26408920,24606680,1460,1108,264,1862,2203,619,556,2374,71,52,818
462359,26405324,24604232,26409117,24606877,1264,478,228,1963,2111,462,494,2737,54,58,819
463361,26405608,24604540,26409314,24607074,1352,880,176,2165,2060,338,745,2910,54,58,819
464361,26405900,24604788,26409511,24607271,1261,1233,137,2360,1984,471,1324,2827,67,55,820
465362,26406184,24605036,26409708,24607468,1273,1210,121,2537,1897,706,1373,2712,67,55,820
466363,26406468,24605304,26409905,24607665,1236,1055,60,2710,1857,934,900,2951,50,55,818
467365,26406788,24605636,26410102,24607862,958,596,-172,3231,1927,1330,589,4166,50,55,818
468365,26407068,24605936,26410299,24608059,1171,751,-511,3915,1998,1521,1028,4282,71,47,820
469366,26407372,24606196,26410496,24608256,975,974,-769,4360,1869,1537,1810,3018,71,47,820
470367,26407644,24606444,26410693,24608453,1142,1027,-940,4506,1518,1249,2232,2513,52,59,821
471369,26407912,24606736,26410890,24608650,1137,711,-1150,4583,1033,1227,2600,2600,52,59,821
472369,26408200,24607036,26411087,24608847,973,615,-1486,4780,589,1142,1978,3050,47,49,820
473370,26408524,24607364,26411284,24609044,692,384,-1911,5187,214,1063,1772,3585,47,49,820
474371,26408824,24607608,26411481,24609241,798,888,-2362,5652,-192,1192,1898,3378,62,63,822
475373,26409108,24607860,26411678,24609438,860,814,-2807,5916,-631,1111,1263,2818,62,63,822
476373,26409388,24608176,26411875,24609635,849,363,-3180,5877,-1085,850,872,1933,48,51,820
477375,26409644,24608460,26412072,24609832,973,524,-3500,5563,-1591,692,1278,1239,48,51,820
478375,26409940,24608736,26412269,24610029,681,540,-3818,5160,-2110,507,1177,1175,59,48,823
479377,26410240,24608972,26412466,24610226,611,773,-4139,4743,-2569,248,387,1033,59,48,823
480377,26410504,24609136,26412663,24610423,806,1238,-4473,4260,-2928,-61,-565,997,65,39,823
481378,26410784,24609360,26412860,24610620,671,851,-4809,3847,-3232,-272,-942,1273,65,39,823
482379,26411084,24609604,26413057,24610817,501,706,-5088,3416,-3540,-436,-1237,1091,41,45,821
483381,26411316,24609824,26413254,24611014,911,845,-5300,2888,-3867,-588,-1287,955,41,45,821
484381,26411548,24610044,26413451,24611211,896,836,-5468,2281,-4175,-767,-1279,1016,59,29,823
485382,26411832,24610220,26413648,24611408,533,1121,-5610,1698,-4423,-808,-1629,1200,59,29,823
486383,26412076,24610376,26413845,24611605,763,1264,-5730,1184,-4603,-946,-2076,1404,55,41,821
487384,26412324,24610540,26414042,24611802,715,1228,-5808,705,-4685,-1053,-2361,1677,55,41,821
488385,26412544,24610692,26414239,24611999,880,1324,-5867,201,-4709,-1047,-2144,1676,42,41,819
489386,26412800,24610884,26414436,24612196,630,1076,-5879,-309,-4698,-1405,-2276,1911,42,41,819
490387,26413108,24611040,26414633,24612393,257,1319,-5864,-751,-4640,-1652,-2235,2221,42,22,820
491389,26413328,24611200,26414830,24612590,797,1310,-5781,-1276,-4574,-1985,-1892,2046,42,22,820
492390,26413472,24611336,26415027,24612787,1296,1488,-5671,-1840,-4471,-1919,-1827,2298,41,22,821
493391,26413708,24611484,26415224,24612984,704,1435,-5553,-2411,-4317,-1795,-1738,2427,41,22,821
494392,26413944,24611612,26415421,24613181,687,1590,-5500,-2817,-4141,-1637,-2215,3333,33,27,818
495393,26414244,24611752,26415618,24613378,241,1540,-5486,-3046,-3933,-1402,-2759,3888,33,27,818
496394,26414460,24611868,26415815,24613575,759,1727,-5468,-3244,-3686,-1028,-2823,3951,32,17,819
497395,26414624,24611964,26416012,24613772,1098,1896,-5440,-3645,-3466,-263,-2790,3498,32,17,819
498396,26414976,24612100,26416209,24613969,-145,1673,-5396,-4191,-3285,572,-2736,3253,34,34,817
499397,26415200,24612248,26416406,24614166,643,1620,-5352,-4710,-3093,1150,-2883,3612,34,34,817
500398,26415428,24612428,26416603,24614363,606,1428,-5334,-5168,-2852,1648,-3328,3830,52,39,819
501399,26415700,24612568,26416800,24614560,298,1703,-5337,-5595,-2561,2040,-3448,3893,52,39,819
502400,26415904,24612716,26416997,24614757,720,1675,-5345,-6001,-2244,2572,-3336,4016,52,32,820
503401,26416196,24612852,26417194,24614954,128,1777,-5378,-6459,-1947,3121,-3169,4118,52,32,820
504402,26416456,24612972,26417391,24615151,300,1912,-4373,-5232,-1627,5169,-4546,18277,32,18,819
505402,26416672,24613104,26417588,24615348,568,1866,-926,1510,-1458,9745,-7566,32767,32,18,819
506403,26416836,24613232,26417785,24615545,908,1921,1475,5095,-1268,5399,-3823,12097,27,33,819
507404,26417044,24613324,26417982,24615742,628,2193,1522,4535,-884,4177,-3074,2653,27,33,819
508412,26417236,24613452,26418212,24615972,744,2013,706,1716,-568,4460,-2352,-491,47,16,816
509407,26417452,24613592,26418409,24616169,586,1964,282,-598,-401,4840,-2809,98,47,16,816
510407,26417540,24613704,26418606,24616366,1435,2176,8,-1933,-34,4433,-5102,1726,31,25,816
511408,26417668,24613872,26418803,24616563,1215,1840,-368,-2316,487,4320,-6453,3060,31,25,816
512409,26417836,24613952,26419000,24616760,978,2441,-692,-2853,843,3747,-5108,2141,33,21,814
513410,26418016,24614036,26419197,24616957,910,2467,-827,-3618,953,3196,-4165,2315,33,21,814
514411,26418208,24614164,26419394,24617154,838,2222,-914,-4215,901,3218,-4282,2942,31,22,814
515412,26418364,24614288,26419591,24617351,1082,2281,-1052,-4524,831,2768,-4439,3821,31,22,814
516414,26418524,24614396,26419788,24617548,1073,2421,-1236,-4235,805,2097,-4934,5065,22,23,815
517414,26418708,24614540,26419985,24617745,929,2219,-1413,-3900,726,1780,-4979,4661,22,23,815
518415,26418868,24614664,26420182,24617942,1095,2377,-1464,-3457,611,1339,-4846,5340,35,18,814
519416,26419048,24614780,26420379,24618139,978,2463,-1423,-2921,506,894,-4981,5391,35,18,814
520417,26419228,24614900,26420576,24618336,986,2472,-1304,-2354,387,556,-5231,5272,23,20,813
521418,26419400,24615012,26420773,24618533,1047,2561,-1160,-1600,319,-61,-5734,6048,23,20,813
522419,26419560,24615144,26420970,24618730,1138,2464,-961,-737,291,-569,-5486,6042,39,30,813
523420,26419740,24615272,26421167,24618927,1022,2521,-759,123,214,-936,-4534,5949,39,30,813
524422,26419932,24615372,26421364,24619124,949,2739,-535,850,127,-1350,-3924,5569,20,16,813
525423,26420092,24615500,26421561,24619321,1165,2595,-299,1453,55,-1314,-3527,5156,20,16,813
526424,26420232,24615612,26421758,24619518,1315,2733,-64,1887,17,-1132,-3082,4546,37,23,813
527425,26420380,24615768,26421955,24619715,1288,2477,209,2041,38,-1232,-2745,3652,37,23,813
528425,26420524,24615992,26422152,24619912,1336,2041,545,1865,76,-1271,-2852,2512,18,40,811
529426,26420676,24616164,26422349,24620109,1306,2377,898,1408,187,-1102,-3168,1867,18,40,811
530427,26420832,24616376,26422546,24620306,1300,2122,1229,903,425,-715,-3423,1744,36,39,814
531428,26420940,24616604,26422743,24620503,1639,2009,1508,234,742,-227,-3097,1119,36,39,814
532430,26421084,24616832,26422940,24620700,1437,1996,1775,-517,1098,168,-2872,785,28,38,814
533430,26421240,24617076,26423137,24620897,1381,1876,2053,-1381,1507,574,-2778,597,28,38,814
534431,26421372,24617260,26423334,24621094,1560,2257,2335,-2261,1955,968,-2611,594,31,48,815
535432,26421532,24617428,26423531,24621291,1401,2371,2593,-3024,2436,1187,-2408,1098,31,48,815
536434,26421668,24617596,26423728,24621488,1579,2385,2808,-3583,2930,1374,-2095,1629,17,37,813
537434,26421772,24617768,26423925,24621685,1820,2371,2979,-3928,3396,1563,-1839,2081,17,37,813
538435,26421948,24618036,26424122,24621882,1380,1741,3106,-4116,3815,1600,-1302,2554,35,32,812
539437,26422100,24618244,26424319,24622079,1550,2112,3175,-4138,4157,1719,-839,3232,35,32,812
540438,26422232,24618484,26424516,24622276,1703,1894,3187,-3944,4401,1712,-408,3823,35,34,815
541439,26422364,24618692,26424713,24622473,1733,2089,3129,-3462,4582,1541,-142,4734,35,34,815
542439,26422524,24618920,26424910,24622670,1574,1951,3004,-2776,4700,1436,203,5172,20,40,813
543441,26422680,24619152,26425107,24622867,1618,1912,2854,-2018,4768,1422,456,5393,20,40,813
544441,26422812,24619432,26425304,24623064,1797,1576,2677,-1182,4774,1500,765,5621,17,43,814
545442,26422960,24619688,26425501,24623261,1719,1701,2468,-384,4693,1683,1228,5487,17,43,814
546443,26423084,24619888,26425698,24623458,1901,2050,2252,349,4551,1787,1377,5286,27,43,814
547445,26423224,24620124,26425895,24623655,1827,1808,2055,899,4385,1818,1349,4614,27,43,814
548446,26423360,24620356,26426092,24623852,1879,1819,1888,1220,4178,1876,1465,4012,37,55,813
549447,26423488,24620624,26426289,24624049,1960,1564,1744,1396,3943,2066,1591,3499,37,55,813
550447,26423640,24620844,26426486,24624246,1830,1854,1636,1358,3691,2298,1586,2783,26,42,814
551448,26423768,24621072,26426683,24624443,2012,1791,1564,1180,3441,2490,1520,2375,26,42,814
552449,26423904,24621284,26426880,24624640,1988,1885,1532,893,3212,2605,1403,1966,22,43,813
553450,26424044,24621496,26427077,24624837,1989,1879,1524,532,3008,2732,806,1719,22,43,813
554451,26424184,24621728,26427274,24625034,2014,1739,1544,64,2815,2831,-143,1380,41,55,812
555452,26424360,24621992,26427471,24625231,1800,1511,1584,-517,2593,2694,-317,949,41,55,812
556453,26424484,24622236,26427668,24625428,2158,1615,1611,-1132,2301,2396,127,830,17,38,813
557455,26424600,24622492,26427865,24625625,2243,1515,1595,-1729,1977,2003,826,904,17,38,813
558455,26424768,24622708,26428062,24625822,1932,1757,1508,-2148,1730,1703,793,1595,30,39,813
559457,26424888,24622920,26428259,24626019,2267,1776,1338,-2247,1549,1442,787,2511,30,39,813
560457,26425020,24623184,26428456,24626216,2220,1423,1135,-2218,1431,1232,620,2703,34,55,814
561459,26425184,24623440,26428653,24626413,2036,1447,981,-2210,1323,881,656,2535,34,55,814
562459,26425288,24623664,26428850,24626610,2452,1636,872,-2229,1187,572,713,2641,29,39,813
563461,26425428,24623916,26429047,24626807,2253,1437,744,-2098,1095,408,312,3307,29,39,813
564461,26425556,24624136,26429244,24627004,2359,1628,583,-1827,1080,318,152,3652,17,42,811
565463,26425748,24624328,26429441,24627201,1962,1805,445,-1522,1106,70,293,3672,17,42,811
566464,26425872,24624596,26429638,24627398,2419,1300,346,-1279,1133,-150,423,3570,22,41,812
567464,26425992,24624868,26429835,24627595,2479,1243,264,-1062,1183,-194,341,3696,22,41,812
568465,26426144,24625152,26430032,24627792,2300,1130,223,-827,1272,-242,465,3647,24,60,813
569466,26426280,24625424,26430229,24627989,2427,1173,230,-618,1408,-258,500,3678,24,60,813
570467,26426404,24625652,26430426,24628186,2535,1434,239,-337,1579,-104,527,3988,17,50,814
571469,26426568,24625996,26430623,24628383,2300,645,215,-12,1769,37,645,4289,17,50,814
572469,26426680,24626316,26430820,24628580,2664,741,154,419,1970,144,418,4543,41,65,813
573471,26426828,24626604,26431017,24628777,2460,901,100,795,2120,138,762,4466,41,65,813
574471,26426944,24626984,26431214,24628974,2697,247,49,1123,2181,90,1602,4569,22,55,813
575473,26427064,24627212,26431411,24629171,2707,1183,264,1810,2177,686,1817,8043,22,55,813
576473,26427236,24627400,26431608,24629368,2394,1438,1417,4654,2013,3072,2359,26137,44,44,813
577475,26427444,24627592,26431805,24629565,2165,1416,2458,6919,1875,1319,1512,11320,44,44,813
578475,26427636,24627760,26432002,24629762,2268,1578,2539,7186,1833,254,1400,3329,33,43,812
579476,26427796,24627924,26432199,24629959,2484,1619,2157,6450,1818,536,1082,2567,33,43,812
580477,26427976,24628080,26432396,24630156,2368,1687,1793,5812,1787,612,869,2628,37,23,813
581479,26428136,24628272,26432593,24630353,2510,1464,1539,5426,1712,319,1193,2538,37,23,813
582479,26428292,24628508,26432790,24630550,2554,1173,1191,5123,1549,188,1359,2632,25,46,811
583480,26428448,24628712,26432987,24630747,2573,1370,772,4795,1331,-11,1499,2430,25,46,811
584481,26428624,24628852,26433184,24630944,2458,1796,348,4297,1073,-261,1913,2112,30,53,812
585482,26428744,24629092,26433381,24631141,2843,1152,-67,3767,744,-502,2486,2252,30,53,812
586483,26428888,24629332,26433578,24631338,2717,1133,-526,3232,398,-711,2683,2430,33,47,811
587485,26429044,24629592,26433775,24631535,2661,981,-1022,2804,145,-526,2355,2697,33,47,811
588485,26429180,24629848,26433972,24631732,2813,980,-1521,2456,3,-314,2102,2913,41,50,812
589487,26429316,24630132,26434169,24631929,2841,768,-1975,2279,-57,-365,1899,3476,41,50,812
590487,26429484,24630384,26434366,24632126,2655,944,-2369,2206,-81,-465,1738,3841,24,60,812
591496,26429632,24630628,26434596,24632356,2817,988,-2677,2146,-73,-527,1633,4005,24,60,812
592489,26429792,24630840,26434793,24632553,2759,1182,-2511,2682,29,-698,1152,9243,23,56,813
593491,26429964,24631072,26434990,24632750,2696,1042,-1414,5017,268,-989,333,23624,23,56,813
594491,26430144,24631292,26435187,24632947,2655,1107,-596,6267,378,-390,1287,7395,44,57,812
595492,26430316,24631528,26435384,24633144,2717,991,-567,5626,305,-174,2101,1417,44,57,812
596493,26430496,24631768,26435581,24633341,2675,947,-848,4146,186,-176,1568,797,48,53,811
597494,26430680,24631976,26435778,24633538,2657,1142,-1096,3017,90,-305,2031,1610,48,53,811
598495,26430896,24632192,26435975,24633735,2449,1084,-1287,2427,54,-578,2362,2377,31,53,812
599496,26431108,24632404,26436172,24633932,2469,1103,-1519,2166,53,-423,2247,3075,31,53,812
600497,26431312,24632612,26436369,24634129,2517,1123,-1762,1984,76,-548,2257,3228,34,34,813
601498,26431508,24632816,26436566,24634326,2568,1145,-1946,1703,56,-784,2597,3117,34,34,813
602499,26431744,24633024,26436763,24634523,2302,1116,-2045,1350,-38,-763,2288,3062,37,44,814
603500,26431960,24633200,26436960,24634720,2420,1325,-2064,1083,-95,-1022,726,3486,37,44,814
604501,26432204,24633368,26437157,24634917,2224,1388,-2031,1100,-76,-1232,-765,4283,35,29,814
605502,26432400,24633528,26437354,24635114,2526,1454,-1990,1238,-30,-1365,-1261,4623,35,29,814
606503,26432636,24633692,26437551,24635311,2259,1445,-1958,1530,19,-1581,-1206,5339,50,34,813
607504,26432856,24633796,26437748,24635508,2350,1861,-1945,1966,49,-1646,-969,5665,50,34,813
608505,26433064,24633924,26437945,24635705,2421,1741,-1940,2459,36,-1828,-111,5845,33,21,812
609506,26433292,24634068,26438142,24635902,2284,1665,-1911,2933,-52,-2152,1998,5961,33,21,812
610507,26433516,24634268,26438339,24636099,2298,1314,-1885,3288,-240,-2171,3110,5472,38,24,811
611508,26433748,24634420,26438536,24636296,2234,1634,-1875,3463,-493,-2104,3396,4957,38,24,811
612509,26433976,24634592,26438733,24636493,2246,1521,-1820,3404,-718,-2160,2682,4268,45,41,813
613510,26434204,24634764,26438930,24636690,2233,1532,-1727,3201,-865,-2135,1444,3885,45,41,813
614511,26434408,24634944,26439127,24636887,2381,1490,-1571,2991,-905,-2082,260,4495,35,44,813
615512,26434636,24635096,26439324,24637084,2219,1685,-1132,3351,-805,-2000,-1034,10006,35,44,813
616513,26434840,24635280,26439521,24637281,2367,1491,-594,3631,-680,-1720,-856,7577,40,29,813
617514,26435028,24635436,26439718,24637478,2471,1685,-318,3075,-624,-1442,-318,2828,40,29,813
618515,26435256,24635596,26439915,24637675,2208,1676,-186,2031,-598,-964,-524,2534,31,41,811
619516,26435468,24635728,26440112,24637872,2302,1880,104,1180,-562,-144,-814,5059,31,41,811
620517,26435656,24635856,26440309,24638069,2457,1936,492,608,-485,-34,-852,4457,51,34,811
621518,26435916,24636000,26440506,24638266,1981,1859,731,-273,-410,-312,-239,1999,51,34,811
622520,26436144,24636080,26440703,24638463,2168,2312,774,-1307,-428,-409,721,1918,32,13,810
623521,26436348,24636156,26440900,24638660,2316,2390,755,-2207,-531,-580,1196,2794,32,13,810
624522,26436556,24636216,26441097,24638857,2287,2551,834,-2463,-712,-762,1211,6530,37,17,810
625523,26436796,24636364,26441294,24639054,2068,2023,959,-2088,-877,-1290,481,8342,37,17,810
626524,26437028,24636504,26441491,24639251,2104,2099,879,-1743,-1015,-1427,180,5930,37,20,808
627525,26437260,24636668,26441688,24639448,2089,1963,565,-1558,-1199,-1330,-32,5488,37,20,808
628526,26437536,24636844,26441885,24639645,1781,1898,216,-1494,-1436,-1309,227,5432,48,28,811
629526,26437776,24636968,26442082,24639842,1988,2255,-36,-1445,-1638,-1139,486,5339,48,28,811
630528,26437996,24637076,26442279,24640039,2104,2396,-179,-1581,-1717,-578,-391,4538,60,30,812
631529,26438264,24637224,26442476,24640236,1772,2167,-257,-1838,-1689,-231,-412,4001,60,30,812
632530,26438536,24637368,26442673,24640433,1716,2216,-286,-2168,-1615,-94,31,3667,44,34,810
633530,26438808,24637488,26442870,24640630,1684,2400,-266,-2628,-1551,119,1024,3206,44,34,810
634532,26439084,24637584,26443067,24640827,1625,2596,-222,-3049,-1469,359,663,3558,43,26,812
635533,26439336,24637668,26443264,24641024,1752,2721,-125,-3282,-1377,518,384,3953,43,26,812
636534,26439616,24637728,26443461,24641221,1540,2932,-22,-3415,-1315,483,401,4231,57,15,810
637535,26439896,24637816,26443658,24641418,1505,2805,94,-3464,-1278,230,296,4525,57,15,810
638536,26440188,24637892,26443855,24641615,1389,2935,171,-3409,-1265,4,59,4951,47,29,809
639537,26440440,24638012,26444052,24641812,1615,2693,202,-3217,-1283,-312,-237,5008,47,29,809
640537,26440736,24638120,26444249,24642009,1297,2809,199,-3029,-1305,-703,-688,5063,62,24,808
641538,26441016,24638244,26444446,24642206,1362,2742,171,-2797,-1321,-960,-1109,5244,62,24,808
642539,26441308,24638328,26444643,24642403,1245,3042,142,-2500,-1352,-1111,-1240,5293,65,22,809
643541,26441580,24638460,26444840,24642600,1338,2771,137,-2203,-1387,-1216,-1311,5194,65,22,809
644542,26441856,24638564,26445037,24642797,1279,2988,181,-1952,-1430,-1267,-1270,4917,45,21,809
645542,26442116,24638692,26445234,24642994,1352,2869,277,-1798,-1486,-1244,-878,4687,45,21,809
646543,26442404,24638832,26445431,24643191,1138,2820,393,-1699,-1532,-1017,-658,4499,55,35,809
647545,26442680,24638956,26445628,24643388,1178,2953,521,-1708,-1577,-851,-418,4006,55,35,809
648545,26442944,24639092,26445825,24643585,1225,2905,645,-1865,-1667,-836,193,3450,45,26,810
649546,26443188,24639224,26446022,24643782,1330,2960,752,-2172,-1768,-590,522,3172,45,26,810
650547,26443464,24639360,26446219,24643979,1095,2962,818,-2476,-1813,-194,649,3080,43,40,810
651549,26443740,24639484,26446416,24644176,1061,3070,845,-2743,-1780,85,527,3075,43,40,810
652549,26443984,24639632,26446613,24644373,1241,2943,846,-3001,-1655,257,-19,2958,46,37,809
653550,26444288,24639764,26446810,24644570,820,3073,849,-3272,-1458,403,-239,2951,46,37,809
654551,26444552,24639908,26447007,24644767,1040,3022,863,-3464,-1288,428,-124,3074,55,20,809
655553,26444824,24640028,26447204,24644964,958,3207,908,-3643,-1185,425,-125,3037,55,20,809
656553,26445080,24640124,26447401,24645161,1032,3402,978,-3759,-1130,329,-262,3125,49,32,809
657555,26445328,24640228,26447598,24645358,1061,3394,1053,-3855,-1123,137,-137,3165,49,32,809
658555,26445580,24640336,26447795,24645555,1012,3409,1077,-3793,-1117,127,-322,3656,56,23,807
659557,26445812,24640448,26447992,24645752,1122,3422,1010,-3514,-1035,151,-1234,4249,56,23,807
660558,26446032,24640540,26448189,24645949,1187,3595,904,-3120,-932,-60,-1426,4303,42,19,807
661558,26446276,24640656,26448386,24646146,1017,3481,793,-2795,-902,-292,-1314,4011,42,19,807
662559,26446576,24640760,26448583,24646343,622,3598,689,-2539,-924,-318,-1481,3853,51,26,805
663561,26446812,24640868,26448780,24646540,1005,3613,602,-2325,-933,-252,-1602,3763,51,26,805
664561,26447052,24641012,26448977,24646737,961,3412,543,-2142,-926,-216,-1442,3537,55,26,806
665562,26447320,24641156,26449174,24646934,756,3437,496,-1974,-931,-133,-723,3318,55,26,806
666563,26447604,24641296,26449371,24647131,618,3488,464,-1878,-961,27,-93,3017,50,24,807
667565,26447868,24641456,26449568,24647328,714,3380,436,-1850,-985,199,-107,2860,50,24,807
668565,26448120,24641632,26449765,24647525,765,3290,397,-1864,-983,222,-348,2639,67,42,808
669567,26448444,24641784,26449962,24647722,260,3461,361,-2024,-953,201,-815,2165,67,42,808
670567,26448672,24642000,26450159,24647919,846,3054,331,-2292,-912,227,-1093,1731,62,48,808
671569,26448944,24642204,26450356,24648116,539,3128,295,-2651,-878,57,-1292,1557,62,48,808
672569,26449232,24642372,26450553,24648313,399,3366,235,-2912,-833,-122,-1533,1857,48,44,808
673570,26449472,24642544,26450750,24648510,680,3353,136,-3004,-761,-142,-1836,2135,48,44,808
674580,26449732,24642716,26450980,24648740,542,3380,-2,-3078,-677,-219,-2108,2169,41,46,810
675573,26450020,24642908,26451177,24648937,328,3258,-144,-3123,-600,-431,-2202,2109,41,46,810
676574,26450232,24643100,26451374,24649134,796,3261,-271,-3272,-523,-701,-2444,1893,37,34,809
677575,26450464,24643268,26451571,24649331,656,3425,-420,-3390,-420,-809,-2797,2132,37,34,809
678575,26450704,24643492,26451768,24649528,587,3065,-585,-3428,-269,-1008,-2878,2240,37,37,810
679577,26450880,24643712,26451965,24649725,996,3081,-773,-3398,-88,-1100,-2874,2240,37,37,810
680578,26451064,24643936,26452162,24649922,953,3045,-947,-3482,88,-944,-2816,1967,37,35,809
681578,26451272,24644172,26452359,24650119,798,2954,-1107,-3650,274,-729,-2656,1885,37,35,809
682579,26451460,24644376,26452556,24650316,927,3152,-1251,-3909,455,-368,-2349,1714,48,49,809
683581,26451640,24644584,26452753,24650513,985,3123,-1372,-4225,625,-151,-2078,1456,48,49,809
684581,26451800,24644816,26452950,24650710,1126,2959,-1475,-4538,808,110,-1978,1533,40,52,811
685582,26451980,24645036,26453147,24650907,1009,3026,-1569,-4918,995,578,-1884,1386,40,52,811
686583,26452160,24645276,26453344,24651104,1017,2883,-1666,-5264,1210,904,-1948,1624,44,49,810
687584,26452328,24645524,26453541,24651301,1105,2811,-1762,-5531,1456,1003,-2150,1837,44,49,810
688586,26452516,24645736,26453738,24651498,984,3031,-1860,-5750,1704,1207,-2331,2039,26,44,810
689586,26452668,24645940,26453935,24651695,1229,3079,-1962,-5925,1929,1472,-2208,2400,26,44,810
690587,26452808,24646184,26454132,24651892,1329,2809,-2066,-5945,2116,1803,-2138,2784,35,47,811
691589,26452956,24646400,26454329,24652089,1301,2977,-2184,-5888,2265,2097,-2209,3058,35,47,811
692590,26453100,24646700,26454526,24652286,1349,2407,-2293,-5794,2401,2271,-2231,3405,29,43,809
693590,26453256,24646940,26454723,24652483,1293,2764,-2545,-5390,2661,2768,-2406,3845,29,43,809
694592,26453416,24647204,26454920,24652680,1284,2586,-2648,-5165,2759,2856,-2233,3968,34,52,810
695592,26453544,24647464,26455117,24652877,1515,2584,-2731,-4948,2781,2983,-1996,4019,34,52,810
696593,26453672,24647684,26455314,24653074,1545,2825,-2789,-4785,2759,3181,-1743,4007,26,55,810
697594,26453832,24647968,26455511,24653271,1362,2388,-2827,-4582,2722,3383,-1536,4274,26,55,810
698595,26453980,24648272,26455708,24653468,1459,2217,-2867,-4369,2663,3522,-1451,4352,42,44,811
699597,26454136,24648532,26455905,24653665,1427,2465,-2895,-4129,2577,3580,-1375,4489,42,44,811
700597,26454296,24648752,26456102,24653862,1419,2706,-2884,-3926,2464,3545,-1057,4524,33,47,813
701598,26454464,24649012,26456299,24654059,1382,2429,-2840,-3680,2306,3531,-943,4639,33,47,813
702599,26454592,24649236,26456496,24654256,1662,2644,-2225,-2734,2101,4458,-731,11124,42,60,812
703600,26454776,24649512,26456693,24654453,1319,2285,-140,1436,1692,7000,285,32767,42,60,812
704602,26454916,24649736,26456890,24654650,1619,2599,1511,4012,1355,3879,-479,10323,19,50,812
705603,26455032,24649956,26457087,24654847,1806,2615,1820,3792,1142,3071,-89,2267,19,50,812
706603,26455212,24650176,26457284,24655044,1413,2606,1499,2203,1037,3095,-608,1090,37,37,813
707604,26455388,24650396,26457481,24655241,1447,2597,1297,915,1007,3024,-1323,1226,37,37,813
708606,26455540,24650648,26457678,24655438,1618,2373,1272,-31,1019,2405,-1166,987,26,54,809
709606,26455688,24650900,26457875,24655635,1665,2350,1294,-748,966,2103,-1002,1297,26,54,809
710607,26455896,24651112,26458072,24655832,1286,2595,1257,-1402,891,1610,-1163,1631,30,47,811
711608,26456040,24651320,26458269,24656029,1709,2616,1169,-1949,889,947,-1314,2279,30,47,811
712609,26456200,24651504,26458466,24656226,1625,2773,1037,-2208,914,705,-1262,3122,43,33,811
713610,26456388,24651704,26458663,24656423,1455,2671,886,-2372,948,284,-903,3464,43,33,811
714611,26456532,24651916,26458860,24656620,1754,2591,742,-2265,976,-36,-509,4181,44,27,810
715613,26456684,24652092,26459057,24656817,1724,2826,624,-2163,964,-180,53,3996,44,27,810
716614,26456904,24652264,26459254,24657014,1289,2863,525,-2007,958,-366,400,4563,26,41,811
717614,26457040,24652400,26459451,24657211,1842,3116,422,-1675,1012,-435,394,5081,26,41,811
718615,26457196,24652528,26459648,24657408,1735,3197,356,-1331,1126,-525,399,4851,39,39,808
719616,26457376,24652684,26459845,24657605,1594,3041,331,-960,1275,-790,653,5164,39,39,808
720618,26457520,24652840,26460042,24657802,1842,3060,340,-639,1450,-824,877,5116,38,33,806
721619,26457648,24653008,26460239,24657999,1972,2999,339,-296,1635,-701,1044,5101,38,33,806
722619,26457844,24653148,26460436,24658196,1549,3200,368,5,1822,-806,1344,4682,37,36,808
723621,26458020,24653268,26460633,24658393,1683,3360,403,144,1998,-866,1338,4604,37,36,808
724622,26458124,24653408,26460830,24658590,2175,3261,414,341,2169,-964,1080,4876,42,22,807
725623,26458304,24653548,26461027,24658787,1707,3287,389,612,2382,-1147,906,5012,42,22,807
726624,26458460,24653680,26461224,24658984,1876,3366,338,960,2586,-1036,1095,4994,25,37,806
727625,26458584,24653824,26461421,24659181,2109,3316,295,1091,2722,-824,1456,4472,25,37,806
728625,26458744,24653944,26461618,24659378,1900,3500,254,1090,2805,-447,1495,4274,39,34,806
729626,26458896,24654060,26461815,24659575,1971,3562,224,919,2855,-50,1237,3517,39,34,806
730627,26459004,24654268,26462012,24659772,2285,2983,209,554,2851,42,945,3055,33,38,803
731628,26459132,24654424,26462209,24659969,2192,3327,184,147,2808,73,521,3033,33,38,803
732629,26459296,24654588,26462406,24660166,1981,3293,151,-241,2754,215,95,3059,37,31,803
733630,26459412,24654744,26462603,24660363,2318,3362,105,-561,2714,449,-2,3256,37,31,803
734631,26459580,24654876,26462800,24660560,2007,3541,50,-909,2681,670,20,3294,40,37,804
735632,26459760,24655032,26462997,24660757,1939,3410,-22,-1187,2630,950,-47,3437,40,37,804
736633,26459916,24655188,26463194,24660954,2108,3429,-87,-1508,2563,997,-144,3298,27,36,803
737634,26460044,24655388,26463391,24661151,2313,3154,-126,-1845,2490,1030,-182,3313,27,36,803
738635,26460216,24655588,26463588,24661348,2050,3154,-158,-2194,2393,1107,-89,3370,42,36,805
739636,26460360,24655784,26463785,24661545,2250,3181,-170,-2532,2278,1150,-46,3515,42,36,805
740637,26460492,24655952,26463982,24661742,2353,3370,-187,-2787,2187,1240,-167,3814,31,28,803
741638,26460684,24656172,26464179,24661939,1981,3036,-189,-2942,2111,1232,-7,4000,31,28,803
742639,26460828,24656372,26464376,24662136,2306,3161,-186,-3026,2036,1194,172,4360,39,43,804
743640,26460928,24656580,26464573,24662333,2623,3107,-171,-3075,1976,1184,171,4374,39,43,804
744641,26461088,24656792,26464770,24662530,2266,3076,-130,-3140,1928,1156,150,4446,39,39,806
745642,26461188,24656996,26464967,24662727,2684,3124,-76,-3135,1907,1146,77,4720,39,39,806
746643,26461284,24657260,26465164,24662924,2754,2721,-13,-3095,1899,1108,217,4803,25,53,803
747645,26461424,24657544,26465361,24663121,2505,2558,76,-3013,1887,1177,364,4882,25,53,803
748645,26461564,24657760,26465558,24663318,2531,2976,195,-2911,1906,1272,554,4899,38,53,803
749646,26461664,24658000,26465755,24663515,2824,2808,328,-2802,1944,1152,803,5100,38,53,803
750647,26461796,24658288,26465952,24663712,2653,2469,464,-2640,1984,901,742,5230,22,55,807
751648,26461936,24658564,26466149,24663909,2629,2510,599,-2398,2033,631,483,5387,22,55,807
752649,26462064,24658860,26466346,24664106,2735,2343,723,-2052,2111,471,178,5671,20,55,802
753651,26462172,24659124,26466543,24664303,2900,2514,825,-1693,2223,305,3,5755,20,55,802
754651,26462320,24659392,26466740,24664500,2673,2459,921,-1349,2358,102,-66,5697,34,63,806
755653,26462456,24659704,26466937,24664697,2776,2135,1022,-1020,2505,-83,-177,5618,34,63,806
756654,26462556,24659992,26467134,24664894,3043,2246,1118,-704,2665,-67,-155,5503,24,54,805
757661,26462708,24660276,26467364,24665124,2754,2248,1213,-479,2817,193,71,5181,24,54,805
758656,26462828,24660544,26467561,24665321,2988,2318,1308,-315,2964,364,270,4951,38,43,806
759657,26462948,24660780,26467758,24665518,3023,2502,1401,-196,3108,257,202,4897,38,43,806
760657,26463128,24661028,26467955,24665715,2657,2405,1485,-85,3242,78,-65,4678,23,50,807
761659,26463308,24661332,26468152,24665912,2665,2009,1565,3,3376,-6,-322,4623,23,50,807
762659,26463484,24661608,26468349,24666109,2700,2150,1629,116,3519,-109,-402,4659,31,53,803
763661,26463672,24661880,26468546,24666306,2630,2144,1683,275,3672,-351,-367,4710,31,53,803
764661,26463852,24662120,26468743,24666503,2689,2326,1769,338,3816,-525,-18,4242,31,60,807
765663,26464048,24662416,26468940,24666700,2590,1932,1882,315,3908,-352,347,4069,31,60,807
766663,26464220,24662708,26469137,24666897,2752,1916,1981,312,3934,11,915,4026,41,48,808
767665,26464436,24662988,26469334,24667094,2469,1956,2083,222,3874,387,1942,3536,41,48,808
768665,26464632,24663284,26469531,24667291,2595,1813,2184,95,3756,382,2352,3538,53,68,810
769667,26464836,24663600,26469728,24667488,2543,1637,2273,8,3645,-31,1975,3680,53,68,810
770667,26465032,24663936,26469925,24667685,2595,1451,2303,146,3588,-338,1164,4272,51,66,810
771669,26465216,24664300,26470122,24667882,2676,1204,2303,267,3577,-196,943,3914,51,66,810
772670,26465400,24664616,26470319,24668079,2683,1452,2301,279,3572,188,871,3610,44,62,811
773670,26465600,24664892,26470516,24668276,2583,1668,2283,226,3549,570,805,3374,44,62,811
774671,26465812,24665284,26470713,24668473,2502,858,2262,85,3490,706,1014,3019,41,52,810
775672,26466020,24665612,26470910,24668670,2523,1201,2242,-2,3383,521,1414,3045,41,52,810
776673,26466260,24665940,26471107,24668867,2306,1144,2216,-55,3291,445,1475,3126,59,64,811
777674,26466496,24666260,26471304,24669064,2314,1141,2176,102,3271,746,1407,3633,59,64,811
778675,26466696,24666596,26471501,24669261,2539,980,2150,210,3299,1056,1371,3049,43,70,813
779676,26466964,24666960,26471698,24669458,2084,732,2136,232,3271,1142,1318,2697,43,70,813
780677,26467176,24667340,26471895,24669655,2428,552,2129,94,3159,1286,1422,2310,36,63,814
781678,26467412,24667680,26472092,24669852,2261,740,2102,6,3042,1661,1397,2441,36,63,814
782679,26467708,24667976,26472289,24670049,1844,971,2018,211,2996,1596,904,3070,59,69,816
783680,26467920,24668328,26472486,24670246,2363,553,1932,437,3026,1313,818,2916,59,69,816
784681,26468148,24668656,26472683,24670443,2250,647,1847,685,3062,1429,848,3163,48,69,814
785682,26468396,24668988,26472880,24670640,2104,562,1760,970,3053,1655,910,2890,48,69,814
786683,26468672,24669244,26473077,24670837,1895,1012,1680,1261,3002,1978,885,2736,54,53,815
787685,26468952,24669524,26473274,24671034,1835,826,1600,1589,2943,1983,572,2608,54,53,815
788686,26469220,24669840,26473471,24671231,1879,549,1546,1805,2920,1668,242,2318,65,61,817
789686,26469496,24670144,26473668,24671428,1795,577,1507,1946,2898,1385,96,2146,65,61,817
790688,26469732,24670564,26473865,24671625,2029,-245,1471,2109,2835,1148,67,1895,48,55,817
791688,26470028,24670804,26474062,24671822,1611,861,1406,2337,2714,1174,28,1951,48,55,817
792689,26470336,24671028,26474259,24672019,1488,949,1274,2619,2580,1224,-251,2230,55,43,818
793690,26470624,24671280,26474456,24672216,1573,750,1081,3041,2465,859,-497,2604,55,43,818
794692,26470896,24671448,26474653,24672413,1642,1288,890,3462,2327,308,-168,2219,61,56,818
795693,26471148,24671632,26474850,24672610,1743,1194,711,3730,2140,204,189,1873,61,56,818
796693,26471428,24671876,26475047,24672807,1532,799,509,4050,1938,430,304,2170,55,55,818
797694,26471728,24672144,26475244,24673004,1363,617,252,4450,1752,720,355,2114,55,55,818
798695,26472008,24672432,26475441,24673201,1452,452,-21,4888,1562,615,320,1936,49,63,817
799696,26472272,24672716,26475638,24673398,1524,439,-293,5259,1396,131,191,1868,49,63,817
800697,26472540,24672976,26475835,24673595,1467,562,-623,5597,1199,-111,227,1864,46,57,820
801698,26472844,24673204,26476032,24673792,1196,748,-1036,5837,902,-168,649,1578,46,57,820
802699,26473116,24673476,26476229,24673989,1364,441,-1496,6033,496,-296,1163,1160,66,60,819
803701,26473392,24673764,26476426,24674186,1305,301,-1993,6037,-7,-335,1487,666,66,60,819
804702,26473700,24674024,26476623,24674383,1057,448,-2514,5923,-542,-378,1469,446,48,43,820
805702,26474004,24674248,26476820,24674580,1035,661,-3084,5737,-1078,-424,1298,304,48,43,820
806703,26474292,24674460,26477017,24674777,1096,730,-3692,5460,-1613,-424,1254,68,67,46,820
807704,26474580,24674652,26477214,24674974,1056,857,-4339,5152,-2121,-580,881,167,67,46,820
808705,26474840,24674824,26477411,24675171,1204,993,-4953,4707,-2620,-565,409,-220,47,31,820
809706,26475056,24675000,26477608,24675368,1471,977,-5489,4077,-3125,-496,-152,-698,47,31,820
810707,26475400,24675228,26477805,24675565,607,639,-5933,3384,-3575,-531,-784,-623,55,45,820
811709,26475680,24675396,26478002,24675762,971,1026,-6288,2586,-3938,-516,-1386,-682,55,45,820
812709,26475956,24675576,26478199,24675959,962,959,-6595,1861,-4187,-421,-2157,-139,63,38,818
813710,26476180,24675724,26478396,24676156,1275,1180,-6851,1213,-4342,-580,-2431,295,63,38,818
814711,26476484,24675868,26478593,24676353,728,1229,-7024,572,-4468,-666,-2489,418,44,23,820
815712,26476832,24675996,26478790,24676550,388,1359,-7089,-93,-4534,-775,-2708,517,44,23,820
816713,26477032,24676116,26478987,24676747,1312,1444,-7049,-819,-4537,-906,-2696,700,41,34,818
817714,26477236,24676232,26479184,24676944,1285,1504,-6923,-1580,-4545,-1088,-2364,768,41,34,818
818715,26477464,24676384,26479381,24677141,1121,1299,-6791,-2279,-4585,-1467,-2067,1393,33,23,819
819717,26477724,24676520,26479578,24677338,893,1426,-6681,-2837,-4623,-1648,-1631,1952,33,23,819
820717,26477988,24676632,26479775,24677535,840,1613,-6556,-3430,-4642,-1286,-1323,2010,51,29,817
821718,26478164,24676744,26479972,24677732,1399,1651,-6431,-3898,-4611,-1034,-1444,2610,51,29,817
822719,26478348,24676856,26480169,24677929,1355,1689,-6329,-4147,-4487,-1073,-1908,3523,30,29,818
823720,26478568,24677000,26480366,24678126,1121,1512,-6248,-4372,-4331,-922,-2100,3567,30,29,818
824721,26478756,24677096,26480563,24678323,1325,1857,-6168,-4659,-4146,-395,-2479,4007,29,28,816
825722,26478980,24677176,26480760,24678520,1088,2008,-6135,-4663,-3948,195,-2504,5157,29,28,816
826723,26479184,24677284,26480957,24678717,1211,1872,-6117,-4617,-3755,591,-2251,5101,26,13,817
827725,26479392,24677412,26481154,24678914,1181,1779,-6034,-4860,-3557,872,-1998,4335,26,13,817
828725,26479612,24677524,26481351,24679111,1096,1916,-5891,-5319,-3358,1256,-1662,4017,38,18,814
829726,26479840,24677640,26481548,24679308,1033,1927,-5696,-5759,-3133,1846,-2019,5134,38,18,814
830727,26480072,24677740,26481745,24679505,993,2070,-2750,-905,-2897,7969,-7615,32767,31,27,815
831728,26480284,24677884,26481942,24679702,1111,1818,1974,7432,-2836,9811,-7770,32767,31,27,815
832729,26480516,24678020,26482139,24679899,972,1895,4126,9781,-2731,4041,-621,3201,49,20,816
833730,26480812,24678160,26482336,24680096,528,1896,3432,7321,-2190,4486,-2071,1187,49,20,816
834731,26481056,24678332,26482533,24680293,833,1707,2134,4332,-1367,4541,-4801,260,37,18,815
835733,26481248,24678448,26482730,24680490,1161,2093,1140,2341,-600,3803,-4884,719,37,18,815
836734,26481436,24678556,26482927,24680687,1190,2183,556,993,14,3831,-4863,133,28,31,817
837734,26481616,24678672,26483124,24680884,1247,2169,-115,-296,430,4776,-4672,573,28,31,817
838735,26481856,24678760,26483321,24681081,853,2392,-761,-1622,721,4690,-3246,379,32,18,815
839736,26482136,24678884,26483518,24681278,568,2200,-1364,-2941,926,4373,-2826,1328,32,18,815
840744,26482352,24679012,26483748,24681508,974,2219,-1941,-3780,1116,3796,-3697,2650,32,17,813
841738,26482604,24679160,26483945,24681705,725,2117,-2417,-4135,1474,2776,-4147,3877,32,17,813
842739,26482884,24679260,26484142,24681902,513,2460,-2600,-4285,1783,2312,-2750,3780,45,22,815
843741,26483088,24679376,26484339,24682099,986,2396,-2598,-4492,1793,1480,-1260,4378,45,22,815
844741,26483228,24679488,26484536,24682296,1411,2458,-2457,-4219,1656,265,-1165,5826,29,15,815
845742,26483384,24679596,26484733,24682493,1329,2524,-2261,-3653,1498,-347,-1601,5970,29,15,815
846743,26483532,24679728,26484930,24682690,1401,2403,-2082,-2943,1349,-871,-1878,6581,26,18,813
847744,26483668,24679860,26485127,24682887,1504,2432,-1857,-2029,1178,-1593,-1516,7159,26,18,813
848745,26483916,24679948,26485324,24683084,781,2756,-1575,-1115,839,-1649,-1052,6711,35,16,811
849746,26484144,24680064,26485521,24683281,893,2616,-1213,-363,377,-1334,-1936,6309,35,16,811
850747,26484312,24680220,26485718,24683478,1280,2385,-786,327,-76,-1295,-2764,6046,39,35,811
851749,26484524,24680336,26485915,24683675,1000,2672,-336,954,-537,-1199,-2962,5603,39,35,811
852749,26484740,24680492,26486112,24683872,966,2440,98,1527,-945,-1224,-3185,5622,26,27,812
853750,26484924,24680640,26486309,24684069,1172,2512,461,2178,-1189,-1267,-2930,5908,26,27,812
854751,26485112,24680812,26486506,24684266,1152,2373,738,2854,-1347,-1074,-1569,5435,41,37,812
855753,26485340,24680948,26486703,24684463,888,2626,959,3236,-1513,-1070,-702,4248,41,37,812
856753,26485540,24681128,26486900,24684660,1062,2360,1168,3152,-1664,-960,-927,2836,35,36,812
857754,26485752,24681260,26487097,24684857,981,2688,1364,2622,-1776,-662,-816,1732,35,36,812
858755,26485936,24681388,26487294,24685054,1162,2745,1538,1928,-1754,-431,-1426,1462,29,21,812
859757,26486120,24681536,26487491,24685251,1168,2642,1651,1226,-1575,-311,-1905,1256,29,21,812
860757,26486260,24681672,26487688,24685448,1468,2745,1717,493,-1310,-276,-1989,1038,33,30,812
861759,26486464,24681780,26487885,24685645,1065,2959,1728,-197,-992,-171,-2049,1250,33,30,812
862759,26486596,24681948,26488082,24685842,1545,2598,1672,-816,-643,-14,-2053,1468,30,21,810
863760,26486724,24682120,26488279,24686039,1600,2585,1583,-1376,-279,-10,-2013,1615,30,21,810
864761,26486916,24682264,26488476,24686236,1202,2783,1487,-1891,91,-67,-1971,1899,27,21,810
865762,26487064,24682428,26488673,24686433,1499,2674,1381,-2304,447,-63,-2030,2224,27,21,810
866763,26487188,24682616,26488870,24686630,1682,2528,1235,-2583,797,-7,-1938,2633,38,45,810
867764,26487352,24682852,26489067,24686827,1446,2212,1082,-2759,1130,3,-1384,2666,38,45,810
868765,26487508,24683080,26489264,24687024,1514,2250,936,-2935,1418,225,-792,2697,29,42,811
869766,26487636,24683348,26489461,24687221,1721,1969,798,-3131,1662,682,-360,2775,29,42,811
870767,26487804,24683660,26489658,24687418,1483,1644,606,-3235,1878,1214,153,3356,23,49,813
871768,26487936,24683960,26489855,24687615,1737,1675,397,-3138,2087,1527,295,3615,23,49,813
872769,26488092,24684256,26490052,24687812,1606,1656,205,-2990,2314,1499,87,3772,20,68,812
873770,26488236,24684544,26490249,24688009,1704,1667,31,-2745,2537,1470,88,4326,20,68,812
874771,26488376,24684776,26490446,24688206,1755,2003,-147,-2393,2715,1468,352,4618,37,45,813
875772,26488516,24685016,26490643,24688403,1780,1934,-327,-1962,2794,1568,652,4746,37,45,813
876773,26488636,24685256,26490840,24688600,1939,1916,-480,-1610,2803,1752,798,4463,32,47,814
877774,26488804,24685448,26491037,24688797,1653,2219,-601,-1354,2808,2027,536,4321,32,47,814
878775,26488936,24685712,26491234,24688994,1906,1740,-690,-1049,2828,2380,328,4420,18,48,813
879776,26489060,24685956,26491431,24689191,1989,1845,-749,-794,2832,2614,295,4154,18,48,813
880777,26489220,24686192,26491628,24689388,1781,1879,-750,-679,2804,2590,195,3773,37,44,812
881778,26489356,24686416,26491825,24689585,1959,1942,-686,-708,2725,2568,277,3427,37,44,812
882779,26489508,24686672,26492022,24689782,1878,1717,-592,-804,2602,2604,371,3165,26,43,812
883780,26489676,24686924,26492219,24689979,1792,1718,-492,-967,2431,2607,781,2845,26,43,812
884782,26489828,24687132,26492416,24690176,1912,1989,-377,-1250,2237,2570,786,2523,41,55,811
885783,26489980,24687376,26492613,24690373,1932,1745,-255,-1534,2058,2573,249,2519,41,55,811
886784,26490124,24687584,26492810,24690570,2006,1965,-131,-1822,1927,2461,-228,2506,25,37,814
887785,26490288,24687796,26493007,24690767,1896,1934,1,-2083,1834,2235,-335,2592,25,37,814
888786,26490404,24688016,26493204,24690964,2232,1874,144,-2239,1755,1959,-262,2745,19,39,813
889786,26490568,24688216,26493401,24691161,1947,1999,312,-2309,1696,1661,-142,2996,19,39,813
890787,26490720,24688408,26493598,24691358,2042,2051,466,-2196,1671,1481,-172,3608,31,45,812
891789,26490848,24688644,26493795,24691555,2224,1760,582,-1948,1670,1255,1,3899,31,45,812
892790,26491000,24688868,26493992,24691752,2093,1823,654,-1634,1684,1024,151,4076,24,51,812
893791,26491156,24689100,26494189,24691949,2087,1759,720,-1334,1685,802,339,3957,24,51,812
894792,26491324,24689360,26494386,24692146,2025,1557,799,-1103,1679,610,499,3860,35,42,810
895793,26491472,24689576,26494583,24692343,2173,1823,870,-821,1695,421,719,4106,35,42,810
896793,26491640,24689780,26494780,24692540,2061,1896,927,-460,1770,256,606,4195,24,50,811
897795,26491764,24689988,26494977,24692737,2368,1867,977,-48,1908,114,473,4303,24,50,811
898795,26491884,24690228,26495174,24692934,2428,1649,1028,322,2086,-11,415,4147,30,53,812
899797,26492036,24690492,26495371,24693131,2248,1469,1087,601,2270,-124,330,3877,30,53,812
900798,26492180,24690752,26495568,24693328,2322,1468,1165,798,2444,-168,164,3763,28,59,811
901799,26492312,24691004,26495765,24693525,2427,1493,1262,971,2602,-211,165,3765,28,59,811
902800,26492420,24691216,26495962,24693722,2616,1738,1345,1236,2747,-181,227,4047,23,50,813
903801,26492548,24691480,26496159,24693919,2522,1383,1374,1580,2887,-130,221,4105,23,50,813
904802,26492712,24691752,26496356,24694116,2313,1301,1393,1777,2993,-96,69,3754,43,48,812
905803,26492904,24692064,26496553,24694313,2140,1001,1430,1888,3043,-234,393,3520,43,48,812
906803,26493080,24692400,26496750,24694510,2250,790,1446,1939,3073,-219,298,3426,41,48,811
907804,26493252,24692656,26496947,24694707,2287,1265,1434,2027,3103,-92,311,3499,41,48,811
908805,26493428,24692836,26497144,24694904,2272,1747,1392,2106,3129,-55,472,3581,28,50,815
909807,26493584,24693012,26497341,24695101,2416,1783,1326,2214,3116,40,374,3643,28,50,815
910807,26493736,24693208,26497538,24695298,2461,1658,1255,2340,3053,26,468,3740,25,32,813
911809,26493900,24693472,26497735,24695495,2402,1204,1196,2491,2953,1,802,3871,25,32,813
912809,26494032,24693716,26497932,24695692,2630,1309,1131,2609,2808,81,1128,3659,22,51,810
913810,26494188,24693960,26498129,24695889,2499,1288,1045,2710,2651,171,1141,3746,22,51,810
914811,26494316,24694184,26498326,24696086,2706,1402,947,2792,2516,251,1383,3908,28,48,813
915812,26494484,24694408,26498523,24696283,2469,1390,819,2865,2387,484,1561,3887,28,48,813
916813,26494616,24694732,26498720,24696480,2723,710,700,2950,2286,651,1701,3832,18,48,811
917815,26494732,24695068,26498917,24696677,2860,575,581,3020,2185,731,1886,3905,18,48,811
918815,26494884,24695332,26499114,24696874,2655,995,488,3058,2080,742,1850,4072,36,63,810
919817,26495004,24695564,26499311,24697071,2890,1180,736,3783,2025,550,1277,10154,36,63,810
920817,26495168,24695872,26499508,24697268,2631,657,1186,4899,1985,449,1134,10742,45,51,812
921818,26495324,24696188,26499705,24697465,2699,555,1289,5135,1865,640,1729,3537,45,51,812
922819,26495504,24696524,26499902,24697662,2557,369,1057,4729,1724,719,1760,3019,33,57,810
923828,26495656,24696796,26500132,24697892,2767,750,740,4217,1586,966,1949,2843,33,57,810
924821,26495836,24697088,26500329,24698089,2601,583,438,3851,1443,744,1740,3089,37,50,813
925823,26496000,24697384,26500526,24698286,2716,516,124,3689,1290,456,1597,3598,37,50,813
926823,26496180,24697624,26500723,24698483,2625,847,-274,3758,1053,224,1557,4306,32,46,813
927825,26496380,24697916,26500920,24698680,2499,480,-724,3911,737,-96,1913,4547,32,46,813
928825,26496560,24698136,26501117,24698877,2632,920,-1196,4063,341,-550,2560,4642,39,55,813
929826,26496736,24698400,26501314,24699074,2667,616,-1689,4173,-102,-663,2804,4647,39,55,813
930827,26496932,24698640,26501511,24699271,2544,747,-2176,4276,-462,-603,2457,4839,46,45,814
931828,26497132,24698896,26501708,24699468,2518,621,-2311,4850,-614,-925,1219,9225,46,45,814
932829,26497340,24699092,26501905,24699665,2465,997,-1903,6168,-546,-1333,-167,14419,31,40,813
933831,26497532,24699300,26502102,24699862,2568,917,-1576,6541,-464,-845,-584,5028,31,40,813
934831,26497744,24699460,26502299,24700059,2437,1234,-1576,5849,-443,-616,-775,2284,53,43,814
935832,26497940,24699660,26502496,24700256,2538,982,-1598,4863,-523,-853,-417,3095,53,43,814
936833,26498144,24699872,26502693,24700453,2486,901,-1342,4477,-637,-1606,172,7135,35,47,813
937834,26498364,24700052,26502890,24700650,2376,1108,-1019,4233,-801,-1737,1107,5293,35,47,813
938835,26498568,24700232,26503087,24700847,2474,1116,-948,3651,-1032,-1490,1766,2915,40,43,812
939837,26498772,24700380,26503284,24701044,2472,1337,-1060,2858,-1252,-1355,1838,2895,40,43,812
940837,26499004,24700512,26503481,24701241,2283,1467,-1112,2262,-1365,-1494,723,4651,45,22,812
941839,26499208,24700636,26503678,24701438,2456,1549,-926,2204,-1356,-1786,-325,8363,45,22,812
942839,26499420,24700768,26503875,24701635,2399,1528,-726,2255,-1375,-1692,-210,6645,34,20,812
943841,26499640,24700840,26504072,24701832,2340,1957,-696,1851,-1524,-1630,59,3996,34,20,812
944841,26499836,24700952,26504269,24702029,2492,1745,-601,1380,-1747,-1944,-3,6570,35,24,811
945842,26500048,24701068,26504466,24702226,2386,1755,-348,1284,-1984,-2137,397,8394,35,24,811
946843,26500260,24701228,26504663,24702423,2380,1498,-148,1076,-2218,-2009,572,5874,51,19,810
947845,26500452,24701348,26504860,24702620,2509,1781,-143,775,-2411,-1786,71,5548,51,19,810
948845,26500652,24701468,26505057,24702817,2458,1815,-164,497,-2478,-1567,-1277,6219,30,20,811
949847,26500864,24701568,26505254,24703014,2377,1983,-98,361,-2452,-1625,-2171,7007,30,20,811
950848,26501084,24701640,26505451,24703211,2318,2214,-13,171,-2393,-1478,-2211,6005,51,17,809
951848,26501316,24701740,26505648,24703408,2228,2082,35,-265,-2368,-1377,-1601,4686,51,17,809
952849,26501532,24701840,26505845,24703605,2321,2124,109,-696,-2374,-1466,-1600,5576,50,24,810
953850,26501780,24701920,26506042,24703802,2099,2302,279,-1006,-2324,-1329,-1587,6201,50,24,810
954851,26502008,24701972,26506239,24703999,2211,2540,409,-1327,-2228,-961,-608,5276,47,21,810
955853,26502220,24702048,26506436,24704196,2305,2443,407,-1814,-2120,-712,-69,4304,47,21,810
956853,26502484,24702136,26506633,24704393,1952,2417,392,-2231,-1982,-613,-315,5268,57,25,810
957854,26502732,24702192,26506830,24704590,2030,2679,437,-2360,-1867,-696,177,6445,57,25,810
958855,26502972,24702280,26507027,24704787,2062,2528,484,-2359,-1769,-690,-812,5984,57,22,808
959857,26503232,24702356,26507224,24704984,1910,2656,465,-2440,-1675,-738,-1217,4867,57,22,808
960857,26503488,24702452,26507421,24705181,1910,2577,403,-2627,-1614,-793,-817,4483,43,16,806
961858,26503744,24702584,26507618,24705378,1885,2380,323,-2842,-1568,-682,-295,4500,43,16,806
962859,26504008,24702720,26507815,24705575,1806,2383,244,-2993,-1509,-474,-21,4434,54,29,807
963860,26504272,24702868,26508012,24705772,1777,2330,188,-3161,-1457,-351,339,4179,54,29,807
964861,26504520,24703008,26508209,24705969,1856,2406,107,-3333,-1451,-304,1860,4142,53,37,810
965862,26504800,24703152,26508406,24706166,1620,2404,-65,-3473,-1475,-125,2401,4197,53,37,810
966864,26505064,24703292,26508603,24706363,1691,2455,-241,-3543,-1457,122,1996,4297,42,21,811
967864,26505344,24703412,26508800,24706560,1555,2614,-380,-3625,-1375,210,1699,4131,42,21,811
968865,26505620,24703508,26508997,24706757,1547,2809,-466,-3741,-1300,238,1334,3970,47,21,811
969866,26505888,24703648,26509194,24706954,1565,2560,-502,-3836,-1280,131,1031,4112,47,21,811
970867,26506176,24703808,26509391,24707151,1401,2452,-501,-3813,-1309,39,790,4392,46,38,810
971869,26506448,24703952,26509588,24707348,1469,2576,-480,-3732,-1372,49,876,4448,46,38,810
972870,26506748,24704064,26509785,24707545,1249,2814,-443,-3625,-1443,-69,886,4335,40,33,809
973870,26507020,24704188,26509982,24707742,1392,2771,-369,-3541,-1482,-68,668,4290,40,33,809
974871,26507276,24704312,26510179,24707939,1466,2804,-289,-3409,-1508,-196,354,4383,47,31,810
975872,26507540,24704412,26510376,24708136,1388,2998,-206,-3285,-1564,-485,286,4255,47,31,810
976873,26507820,24704544,26510573,24708333,1252,2827,-116,-3207,-1645,-606,103,4105,61,35,810
977874,26508112,24704664,26510770,24708530,1136,2936,-5,-3137,-1711,-721,-374,3962,61,35,810
978875,26508384,24704804,26510967,24708727,1229,2837,120,-3057,-1748,-874,-680,3894,64,21,808
979876,26508636,24704932,26511164,24708924,1329,2943,257,-3004,-1805,-986,-701,3575,64,21,808
980877,26508888,24705052,26511361,24709121,1306,3028,424,-3101,-1867,-1008,-819,3259,63,22,810
981878,26509188,24705196,26511558,24709318,961,2902,600,-3146,-1881,-806,-832,3263,63,22,810
982880,26509436,24705356,26511755,24709515,1264,2819,775,-3242,-1876,-653,-417,2960,65,38,807
983881,26509676,24705496,26511952,24709712,1296,2970,938,-3356,-1854,-462,9,2840,65,38,807
984882,26509956,24705612,26512149,24709909,1009,3156,1068,-3497,-1801,-269,373,2779,61,35,809
985882,26510208,24705728,26512346,24710106,1161,3192,1130,-3562,-1717,-80,45,3004,61,35,809
986883,26510444,24705856,26512543,24710303,1244,3149,1127,-3545,-1591,54,-564,3151,38,32,809
987885,26510704,24705980,26512740,24710500,1067,3207,1101,-3479,-1462,60,-643,3113,38,32,809
988885,26510944,24706128,26512937,24710697,1173,3079,1058,-3388,-1365,79,-475,3260,35,37,808
989887,26511136,24706264,26513134,24710894,1476,3182,1021,-3227,-1281,172,-385,3257,35,37,808
990887,26511380,24706404,26513331,24711091,1131,3182,1001,-3085,-1211,255,-186,3200,51,30,808
991889,26511612,24706568,26513528,24711288,1190,3048,992,-2927,-1147,349,-159,3078,51,30,808
992889,26511848,24706724,26513725,24711485,1148,3117,971,-2762,-1059,400,-479,3047,56,41,808
993890,26512088,24706908,26513922,24711682,1105,2948,948,-2593,-957,434,-540,2877,56,41,808
994891,26512348,24707080,26514119,24711879,953,3035,933,-2487,-871,386,-406,2658,37,31,808
995892,26512576,24707256,26514316,24712076,1139,3021,911,-2387,-821,292,-188,2609,37,31,808
996893,26512832,24707412,26514513,24712273,939,3165,856,-2256,-803,262,31,2604,52,35,810
997894,26513088,24707596,26514710,24712470,913,2996,770,-2095,-785,207,-274,2712,52,35,810
998895,26513352,24707764,26514907,24712667,834,3110,679,-1900,-748,64,-848,2682,58,32,809
999896,26513600,24707972,26515104,24712864,912,2856,596,-1719,-708,-93,-1000,2522,58,32,809
1000897,26513912,24708160,26515301,24713061,462,2986,512,-1586,-673,-212,-1119,2251,42,41,810
1001898,26514124,24708332,26515498,24713258,1080,3098,414,-1557,-646,-315,-1294,1952,42,41,810
1002899,26514356,24708540,26515695,24713455,941,2869,296,-1604,-615,-477,-1443,1686,62,49,811
1003901,26514640,24708708,26515892,24713652,578,3132,161,-1731,-584,-612,-1516,1413,62,49,811
1004901,26514888,24708900,26516089,24713849,780,2985,12,-1950,-553,-594,-1645,1100,60,39,808
1005902,26515140,24709112,26516286,24714046,731,2855,-142,-2235,-514,-553,-1588,907,60,39,808
1006912,26515412,24709304,26516516,24714276,588,2997,-316,-2541,-459,-675,-1527,791,56,36,810
1007904,26515660,24709532,26516713,24714473,716,2760,-477,-2941,-377,-546,-1688,508,56,36,810
1008905,26515876,24709728,26516910,24714670,908,2961,-632,-3279,-255,-397,-1853,711,53,40,811
1009906,26516092,24709932,26517107,24714867,900,2909,-780,-3565,-90,-513,-1774,783,53,40,811
1010907,26516304,24710168,26517304,24715064,918,2693,-957,-3874,111,-523,-1819,786,47,49,812
1011908,26516480,24710416,26517501,24715261,1152,2597,-1125,-4188,348,-345,-1943,837,47,49,812
1012909,26516664,24710644,26517698,24715458,1109,2709,-1282,-4518,604,-61,-1947,859,47,55,811
1013910,26516880,24710848,26517895,24715655,901,2857,-1428,-4821,861,284,-1921,909,47,55,811
1014911,26517060,24711072,26518092,24715852,1133,2721,-1570,-5178,1144,387,-1995,983,42,47,812
1015913,26517240,24711300,26518289,24716049,1140,2683,-1722,-5442,1446,622,-2069,1420,42,47,812
1016914,26517436,24711512,26518486,24716246,1041,2778,-1876,-5654,1729,1094,-1980,1481,40,43,811
1017914,26517628,24711736,26518683,24716443,1069,2691,-2025,-5772,2009,1359,-1980,1818,40,43,811
1018915,26517776,24711972,26518880,24716640,1366,2600,-2176,-5890,2272,1442,-2037,2030,45,42,812
1019917,26517956,24712204,26519077,24716837,1173,2610,-2329,-5977,2502,1705,-2082,2207,45,42,812
1020917,26518116,24712456,26519274,24717034,1314,2462,-2481,-5926,2704,2010,-2020,2702,46,43,812
1021919,26518276,24712704,26519471,24717231,1331,2466,-2631,-5824,2854,2348,-1968,2924,46,43,812
1022919,26518444,24712968,26519668,24717428,1294,2337,-2793,-5651,2972,2637,-2047,3230,22,55,812
1023921,26518616,24713200,26519865,24717625,1280,2523,-2944,-5434,3097,2752,-2093,3582,22,55,812
1024921,26518752,24713468,26520062,24717822,1532,2268,-3102,-5137,3208,2977,-2160,3962,25,52,812
1025923,26518936,24713696,26520259,24718019,1238,2504,-3238,-4786,3278,3126,-2109,3932,25,52,812
1026923,26519088,24713952,26520456,24718216,1459,2304,-3353,-4543,3301,3164,-1952,3963,27,40,811
1027925,26519220,24714196,26520653,24718413,1612,2360,-3450,-4317,3268,3346,-1892,3911,27,40,811
1028926,26519380,24714456,26520850,24718610,1453,2233,-3529,-4181,3180,3560,-1684,3823,31,42,811
1029926,26519556,24714704,26521047,24718807,1363,2287,-3567,-4037,3051,3750,-1409,3820,31,42,811
1030927,26519696,24714940,26521244,24719004,1614,2344,-3578,-3995,2886,3850,-1230,3727,32,45,811
1031929,26519868,24715160,26521441,24719201,1425,2435,-3575,-3939,2678,3892,-931,4009,32,45,811
1032930,26520032,24715384,26521638,24719398,1489,2399,-3560,-3865,2434,3796,-576,4243,35,52,812
1033931,26520188,24715620,26521835,24719595,1558,2308,-3527,-3722,2155,3580,-613,4333,35,52,812
1034931,26520336,24715872,26522032,24719792,1630,2184,-2716,-2622,1868,4524,-621,13113,20,48,812
1035933,26520512,24716108,26522229,24719989,1464,2268,18,2815,1422,7412,-55,32767,20,48,812
1036934,26520672,24716324,26522426,24720186,1581,2386,2133,6167,1089,3849,-808,12205,21,44,812
1037935,26520812,24716548,26522623,24720383,1731,2325,2467,5923,922,3014,-353,1883,21,44,812
1038935,26521016,24716724,26522820,24720580,1328,2634,1976,3863,901,3117,-1097,401,22,44,811
1039937,26521168,24716932,26523017,24720777,1674,2430,1644,2231,951,3080,-1672,657,22,44,811
1040937,26521328,24717148,26523214,24720974,1640,2373,1547,1041,1027,2358,-1457,382,41,32,811
1041938,26521520,24717344,26523411,24721171,1443,2499,1512,162,1031,2150,-1458,825,41,32,811
1042939,26521680,24717540,26523608,24721368,1660,2500,1399,-627,987,1609,-1402,1126,26,39,810
1043940,26521828,24717712,26523805,24721565,1756,2662,1242,-1450,993,967,-1202,1435,26,39,810
1044941,26522008,24717884,26524002,24721762,1564,2674,1072,-2043,996,852,-958,2200,35,31,811
1045942,26522184,24718048,26524199,24721959,1599,2739,865,-2513,1027,455,-735,2693,35,31,811
1046943,26522336,24718220,26524396,24722156,1769,2700,663,-2569,1091,15,-521,3745,40,31,809
1047944,26522516,24718376,26524593,24722353,1602,2819,464,-2569,1126,-320,-72,3777,40,31,809
1048946,26522700,24718548,26524790,24722550,1583,2731,321,-2444,1142,-875,244,4486,44,41,807
1049946,26522844,24718708,26524987,24722747,1856,2823,186,-2087,1177,-1145,532,5260,44,41,807
1050947,26522996,24718876,26525184,24722944,1827,2786,92,-1653,1232,-1317,573,5344,24,28,807
1051949,26523160,24719060,26525381,24723141,1767,2693,20,-1095,1346,-1546,734,5907,24,28,807
1052949,26523308,24719216,26525578,24723338,1889,2887,-8,-536,1509,-1587,1028,5742,19,25,808
1053950,26523464,24719364,26525775,24723535,1857,2959,-35,5,1697,-1473,1117,5773,19,25,808
1054951,26523632,24719496,26525972,24723732,1796,3088,-27,456,1924,-1642,1096,5545,30,29,809
1055952,26523812,24719652,26526169,24723929,1728,2957,14,801,2156,-1752,836,5300,30,29,809
1056953,26523916,24719848,26526366,24724126,2244,2708,56,1127,2373,-1680,769,5262,23,28,807
1057954,26524092,24720024,26526563,24724323,1804,2844,101,1411,2612,-1586,716,5242,23,28,807
1058955,26524240,24720208,26526760,24724520,2001,2800,118,1630,2841,-1238,602,4983,39,28,807
1059956,26524364,24720376,26526957,24724717,2184,2914,143,1644,3046,-829,689,4357,39,28,807
1060958,26524532,24720552,26527154,24724914,1922,2873,175,1554,3232,-391,900,4095,27,43,807
1061958,26524648,24720696,26527351,24725111,2283,3098,212,1258,3343,-50,839,3277,27,43,807
1062959,26524756,24720876,26527548,24725308,2372,2881,256,809,3393,-13,469,3007,25,44,805
1063960,26524936,24721068,26527745,24725505,1931,2809,290,329,3417,96,207,2888,25,44,805
1064961,26525072,24721268,26527942,24725702,2233,2759,303,-163,3399,269,49,2949,34,43,805
1065962,26525216,24721432,26528139,24725899,2207,3000,316,-582,3353,250,-210,3135,34,43,805
1066963,26525388,24721620,26528336,24726096,2043,2853,329,-1057,3305,365,-479,3034,29,29,807
1067965,26525532,24721792,26528533,24726293,2242,2965,346,-1522,3236,707,-476,3015,29,29,807
1068965,26525684,24722000,26528730,24726490,2213,2737,357,-1989,3138,925,-262,3126,23,46,804
1069966,26525820,24722180,26528927,24726687,2340,2920,367,-2421,3003,1143,-91,3171,23,46,804
1070967,26525964,24722372,26529124,24726884,2314,2848,377,-2856,2836,1310,238,3233,32,35,805
1071968,26526116,24722564,26529321,24727081,2284,2852,392,-3184,2685,1425,393,3674,32,35,805
1072969,26526260,24722844,26529518,24727278,2358,2266,384,-3343,2535,1400,291,4131,22,55,804
1073970,26526404,24723056,26529715,24727475,2383,2684,349,-3383,2396,1307,43,4407,22,55,804
1074971,26526528,24723280,26529912,24727672,2540,2599,302,-3369,2297,1261,-157,4663,33,45,806
1075972,26526636,24723484,26530109,24727869,2680,2722,276,-3355,2240,1373,-41,4611,33,45,806
1076973,26526780,24723740,26530306,24728066,2479,2372,269,-3322,2203,1320,127,4793,37,54,806
1077974,26526892,24723980,26530503,24728263,2716,2454,277,-3236,2190,1460,375,4906,37,54,806
1078975,26527004,24724232,26530700,24728460,2755,2356,318,-3174,2187,1680,673,4778,36,56,805
1079976,26527116,24724480,26530897,24728657,2793,2358,371,-3044,2195,1683,802,5008,36,56,805
1080978,26527236,24724704,26531094,24728854,2777,2497,434,-2903,2207,1458,848,5081,15,46,805
1081979,26527360,24724968,26531291,24729051,2785,2219,499,-2700,2230,1246,665,5239,15,46,805
1082980,26527488,24725228,26531488,24729248,2791,2217,574,-2479,2267,1111,598,5181,19,44,804
1083981,26527624,24725448,26531685,24729445,2769,2457,640,-2228,2300,943,448,5305,19,44,804
1084981,26527740,24725688,26531882,24729642,2930,2314,697,-1902,2341,723,82,5421,32,53,806
1085982,26527864,24725900,26532079,24729839,2913,2484,760,-1605,2423,426,-235,5359,32,53,806
1086983,26528000,24726108,26532276,24730036,2866,2505,838,-1294,2540,239,-273,5354,31,40,805
1087984,26528108,24726348,26532473,24730233,3081,2286,941,-1045,2657,261,-52,5037,31,40,805
1088985,26528224,24726596,26532670,24730430,3067,2214,1060,-844,2751,352,53,4833,35,54,805
1089993,26528332,24726864,26532900,24730660,3171,2074,1173,-700,2825,429,34,4734,35,54,805
1090987,26528464,24727120,26533097,24730857,3050,2124,1278,-503,2923,366,-163,4792,37,55,805
1091988,26528616,24727356,26533294,24731054,2946,2232,1374,-251,3038,146,-360,4868,37,55,805
1092989,26528772,24727604,26533491,24731251,2940,2135,1461,42,3154,8,-418,4822,23,58,804
1093990,26528952,24727872,26533688,24731448,2799,1980,1531,305,3273,-124,-525,4850,23,58,804
1094991,26529112,24728156,26533885,24731645,2941,1842,1586,599,3396,-252,-461,4853,42,61,804
1095992,26529264,24728452,26534082,24731842,3012,1724,1656,842,3503,-327,-247,4543,42,61,804
1096993,26529404,24728736,26534279,24732039,3113,1762,1769,903,3587,-38,230,3977,26,59,807
1097994,26529524,24728964,26534476,24732236,3273,2098,1871,962,3642,340,467,4067,26,59,807
1098995,26529660,24729272,26534673,24732433,3200,1551,1941,973,3660,677,564,3757,18,64,807
1099997,26529800,24729600,26534870,24732630,3202,1369,1984,960,3657,944,433,3675,18,64,807
1100997,26529960,24729904,26535067,24732827,3093,1472,2005,1015,3654,980,359,3768,22,53,803
1101998,26530136,24730184,26535264,24733024,3003,1587,2003,1056,3636,1078,365,3798,22,53,803
1102999,26530308,24730472,26535461,24733221,3040,1497,1959,1163,3608,1317,98,3849,45,62,807
1104000,26530472,24730824,26535658,24733418,3106,1029,1868,1337,3589,1304,-370,3993,45,62,807
1105001,26530656,24731136,26535855,24733615,2987,1229,1767,1446,3569,1248,-620,3707,46,59,807
1106002,26530828,24731436,26536052,24733812,3074,1260,1667,1535,3495,1190,-694,3672,46,59,807
1107003,26531036,24731724,26536249,24734009,2845,1295,1537,1672,3406,1241,-655,3856,28,66,809
1108004,26531284,24732016,26536446,24734206,2574,1229,1433,1744,3299,1600,231,3284,28,66,809
1109005,26531512,24732344,26536643,24734403,2686,946,1365,1658,3125,1651,1313,2873,55,70,809
1110006,26531772,24732692,26536840,24734600,2460,755,1313,1640,2877,1410,2159,3052,55,70,809
1111007,26532068,24732992,26537037,24734797,2192,1011,1261,1669,2667,1511,2376,3021,52,66,812
1112008,26532360,24733236,26537234,24734994,2176,1340,1214,1734,2498,1565,2384,2886,52,66,812
1113009,26532664,24733536,26537431,24735191,2055,946,1180,1774,2374,1438,2424,2697,47,53,814
1114010,26532984,24733884,26537628,24735388,1902,579,1159,1801,2249,1294,2003,2550,47,53,814
1115011,26533264,24734224,26537825,24735585,2117,567,1177,1598,2154,1475,1456,1898,71,66,813
1116013,26533540,24734572,26538022,24735782,2108,450,1179,1482,2098,1564,1371,1938,71,66,813
1117013,26533824,24734912,26538219,24735979,2021,438,1148,1376,2055,1261,1403,1792,57,48,816
1118015,26534124,24735232,26538416,24736176,1877,509,1092,1350,2044,905,1395,2329,57,48,816
1119015,26534424,24735492,26538613,24736373,1831,857,1018,1552,2055,820,1605,2765,70,57,817
1120016,26534732,24735700,26538810,24736570,1734,1177,964,1924,2070,920,1698,2781,70,57,817
1121017,26535056,24735980,26539007,24736767,1579,690,916,2485,2133,871,1233,3051,50,48,818
1122018,26535344,24736216,26539204,24736964,1765,948,882,2855,2241,378,711,2646,50,48,818
1123019,26535672,24736412,26539401,24737161,1457,1200,857,3226,2315,-71,427,2700,55,60,816
1124020,26536020,24736560,26539598,24737358,1267,1521,853,3563,2302,-428,336,2338,55,60,816
1125021,26536296,24736876,26539795,24737555,1683,419,802,3995,2218,-785,2,2727,73,51,817
1126022,26536584,24737172,26539992,24737752,1568,500,672,4517,2158,-1149,-436,2809,73,51,817
1127023,26536868,24737420,26540189,24737949,1556,778,483,4939,2128,-1082,-410,2557,67,67,815
1128024,26537180,24737664,26540386,24738146,1331,782,282,5299,2031,-939,364,2170,67,67,815
1129025,26537460,24737952,26540583,24738343,1495,467,131,5516,1839,-1191,632,1515,65,63,819
1130026,26537744,24738232,26540780,24738540,1433,481,-9,5660,1608,-1440,363,1411,65,63,819
1131027,26537988,24738516,26540977,24738737,1663,418,-209,5792,1461,-1371,66,1654,64,46,819
1132028,26538212,24738732,26541174,24738934,1776,834,-533,6156,1403,-855,-67,2239,64,46,819
1133029,26538544,24739004,26541371,24739131,1043,452,-961,6582,1315,-775,-20,1843,66,43,819
1134030,26538816,24739260,26541568,24739328,1385,526,-1440,6701,1083,-1097,465,1248,66,43,819
1135031,26539112,24739532,26541765,24739525,1192,393,-1866,6388,626,-1337,1144,-34,63,56,817
1136032,26539384,24739768,26541962,24739722,1309,601,-2247,5751,8,-1298,1514,-717,63,56,817
1137033,26539684,24739992,26542159,24739919,1090,664,-2701,5128,-688,-1312,2243,-496,51,51,818
1138034,26539952,24740176,26542356,24740116,1259,920,-3225,4489,-1386,-1243,2192,-266,51,51,818
1139035,26540216,24740336,26542553,24740313,1256,1086,-3788,4090,-1959,-777,1512,449,55,47,819
1140036,26540484,24740516,26542750,24740510,1199,969,-4330,3734,-2418,-446,1107,353,55,47,819
1141037,26540732,24740708,26542947,24740707,1303,896,-4829,3224,-2821,-378,442,203,42,33,819
1142038,26541008,24740872,26543144,24740904,1093,1086,-5260,2508,-3197,-456,-292,-39,42,33,819
1143039,26541304,24741052,26543341,24741101,925,993,-5602,1644,-3565,-466,-1159,-152,56,39,818
1144040,26541544,24741188,26543538,24741298,1257,1295,-5853,715,-3925,-334,-1685,-482,56,39,818
1145041,26541800,24741324,26543735,24741495,1131,1322,-6003,-400,-4213,-418,-2028,-889,50,36,819
1146042,26542120,24741460,26543932,24741692,677,1348,-6071,-1637,-4401,-438,-2361,-882,50,36,819
1147044,26542412,24741596,26544129,24741889,811,1375,-6074,-2919,-4503,-438,-2371,-687,61,36,818
1148045,26542644,24741724,26544326,24742086,1171,1456,-5996,-4034,-4566,-423,-2069,-131,61,36,818
1149046,26542892,24741860,26544523,24742283,1048,1432,-5899,-4947,-4602,-499,-1769,607,57,21,818
1150047,26543196,24741980,26544720,24742480,652,1566,-5855,-5577,-4586,-673,-1735,1778,57,21,818
1151048,26543396,24742116,26544917,24742677,1301,1493,-5850,-5920,-4504,-796,-1703,2787,49,35,817
1152049,26543560,24742260,26545114,24742874,1540,1466,-5832,-6074,-4389,-871,-1415,3349,49,35,817
1153049,26543828,24742376,26545311,24743071,860,1677,-5794,-6121,-4247,-994,-1224,3962,53,19,818
1154050,26544064,24742516,26545508,24743268,1043,1552,-5727,-6150,-4048,-1005,-1500,4265,53,19,818
1155051,26544280,24742616,26545705,24743465,1160,1845,-5605,-6200,-3806,-681,-1664,4311,55,15,816
1156053,26544456,24742732,26545902,24743662,1419,1781,-5443,-6262,-3550,-364,-1883,4450,55,15,816
1157054,26544644,24742832,26546099,24743859,1349,1924,-5345,-6189,-3327,148,-1894,5264,43,30,817
1158054,26544844,24742952,26546296,24744056,1273,1833,-5286,-6160,-3188,629,-1682,5068,43,30,817
1159055,26545036,24743072,26546493,24744253,1325,1866,-5178,-6353,-3102,1093,-1459,4357,25,29,813
1160056,26545188,24743184,26546690,24744450,1596,1954,-4997,-6720,-3001,1670,-1210,3953,25,29,813
1161057,26545416,24743336,26546887,24744647,1107,1725,-4802,-7221,-2798,2526,-1382,3951,35,18,814
1162058,26545732,24743504,26547084,24744844,505,1637,-4674,-7455,-2463,3396,-1924,4935,35,18,814
1163060,26546040,24743636,26547281,24745041,506,1891,-2948,-3973,-1949,8417,-5378,32767,46,27,813
1164061,26546348,24743768,26547478,24745238,458,1919,754,4579,-1478,13018,-8218,32767,46,27,813
1165062,26546564,24743900,26547675,24745435,1025,1949,2750,7765,-1108,5378,-2884,5582,54,18,818
1166063,26546736,24744032,26547872,24745632,1311,1978,2512,5881,-878,4329,-1139,416,54,18,818
1167063,26546932,24744144,26548069,24745829,1161,2140,1690,2628,-740,4691,-2155,-897,51,28,817
1168065,26547196,24744252,26548266,24746026,708,2205,884,578,-469,4634,-3425,828,51,28,817
1169065,26547428,24744360,26548463,24746223,892,2244,340,-456,25,4518,-4258,698,32,14,814
1170066,26547648,24744476,26548660,24746420,957,2230,-242,-1405,489,5201,-4249,648,32,14,814
1171067,26547872,24744604,26548857,24746617,920,2186,-733,-2397,816,4903,-3879,849,28,30,814
1172069,26548088,24744752,26549054,24746814,962,2083,-1062,-3333,973,4196,-3496,1922,28,30,814
1173077,26548324,24744872,26549284,24747044,834,2306,-1260,-3890,971,3873,-3463,2715,46,19,814
1174070,26548524,24744992,26549481,24747241,1059,2341,-1413,-4045,979,3146,-3498,4235,46,19,814
1175071,26548724,24745104,26549678,24747438,1058,2428,-1557,-3659,1004,2512,-3152,5104,42,18,814
1176072,26548896,24745236,26549875,24747635,1244,2333,-1616,-3235,922,1738,-2304,4885,42,18,814
1177073,26549076,24745356,26550072,24747832,1201,2442,-1529,-2831,774,636,-2042,5381,29,23,813
1178074,26549252,24745468,26550269,24748029,1235,2530,-1380,-2191,618,86,-2217,6043,29,23,813
1179075,26549392,24745580,26550466,24748226,1486,2567,-1243,-1419,430,-127,-2226,6022,32,25,812
1180077,26549540,24745700,26550663,24748423,1458,2552,-1114,-508,201,-385,-1908,6334,32,25,812
1181077,26549796,24745800,26550860,24748620,757,2720,-987,272,-99,-284,-1644,5772,44,15,810
1182079,26549956,24745928,26551057,24748817,1373,2576,-835,964,-440,-158,-2436,5541,44,15,810
1183079,26550164,24746052,26551254,24749014,1069,2633,-630,1676,-723,-590,-3247,5495,28,24,809
1184081,26550352,24746180,26551451,24749211,1198,2639,-400,2351,-928,-938,-3995,5355,28,24,809
1185081,26550516,24746320,26551648,24749408,1363,2590,-199,2948,-1044,-1178,-4112,5184,37,23,811
1186082,26550632,24746448,26551845,24749605,1699,2696,-31,3558,-1049,-1406,-3699,5197,37,23,811
1187083,26550832,24746564,26552042,24749802,1172,2807,66,4055,-1030,-1260,-2649,4512,41,27,811
1188085,26550980,24746712,26552239,24749999,1519,2629,128,4239,-965,-1167,-2418,3617,41,27,811
1189085,26551116,24746844,26552436,24750196,1622,2759,169,4216,-797,-854,-2505,3184,23,26,809
1190086,26551296,24747012,26552633,24750393,1354,2546,188,3991,-571,-365,-2678,2473,23,26,809
1191087,26551448,24747160,26552830,24750590,1549,2694,164,3711,-294,-257,-3012,2439,20,35,810
1192088,26551576,24747300,26553027,24750787,1729,2770,-39,3590,92,-179,-3470,2988,20,35,810
1193089,26551732,24747516,26553224,24750984,1573,2287,-301,3255,461,-270,-3123,1791,19,37,810
1194090,26551888,24747772,26553421,24751181,1591,2012,-434,2568,723,-238,-2540,845,19,37,810
1195091,26552016,24748036,26553618,24751378,1797,1933,-433,1579,885,106,-1823,338,37,46,809
1196093,26552184,24748264,26553815,24751575,1560,2145,-409,613,1010,343,-1464,721,37,46,809
1197093,26552332,24748516,26554012,24751772,1707,1971,-481,-158,1244,570,-1683,1477,39,55,813
1198094,26552480,24748736,26554209,24751969,1728,2162,-650,-634,1607,1064,-1672,2137,39,55,813
1199095,26552672,24748984,26554406,24752166,1457,1965,-799,-977,1932,1342,-893,2356,42,44,812
1200096,26552820,24749248,26554603,24752363,1753,1836,-853,-1304,2168,1272,-629,2667,42,44,812
1201097,26553000,24749500,26554800,24752560,1561,1887,-840,-1624,2326,1244,-512,2887,43,56,811
1202098,26553160,24749752,26554997,24752757,1703,1864,-763,-1906,2413,1185,-227,3053,43,56,811
1203099,26553356,24749968,26555194,24752954,1478,2082,-681,-2018,2439,1235,31,3737,28,57,812
1204101,26553524,24750216,26555391,24753151,1666,1859,-609,-1998,2429,1470,229,4097,28,57,812
1205101,26553696,24750480,26555588,24753348,1653,1731,-561,-1866,2448,1694,128,4560,27,53,813
1206102,26553876,24750744,26555785,24753545,1610,1701,-523,-1559,2501,1846,164,5022,27,53,813
1207103,26554052,24750968,26555982,24753742,1645,1941,-457,-1220,2524,1919,392,5052,21,54,813
1208104,26554208,24751220,26556179,24753939,1789,1741,-374,-896,2478,1764,610,5146,21,54,813
1209105,26554348,24751448,26556376,24754136,1914,1879,-272,-687,2370,1601,724,4864,40,48,814
1210106,26554508,24751664,26556573,24754333,1806,1945,-153,-563,2213,1650,854,4695,40,48,814
1211107,26554644,24751892,26556770,24754530,1983,1858,0,-470,2036,1696,722,4586,20,42,813
1212109,26554824,24752136,26556967,24754727,1715,1737,174,-419,1889,1783,423,4545,20,42,813
1213110,26554976,24752356,26557164,24754924,1911,1878,333,-377,1723,1846,1018,4394,29,56,813
1214111,26555132,24752592,26557361,24755121,1904,1761,493,-455,1557,1909,1188,4051,29,56,813
1215111,26555296,24752804,26557558,24755318,1870,1905,662,-558,1427,1904,481,3994,23,37,813
1216113,26555476,24753020,26557755,24755515,1777,1872,851,-729,1383,1726,-774,3817,23,37,813
1217113,26555616,24753256,26557952,24755712,2052,1731,1232,-569,1445,1273,-1519,7039,20,39,813
1218115,26555780,24753488,26558149,24755909,1918,1740,1769,-30,1548,960,-1308,8766,20,39,813
1219115,26555908,24753704,26558346,24756106,2173,1833,2068,25,1573,1116,-373,3714,39,48,813
1220116,26556068,24753876,26558543,24756303,1990,2119,2103,-393,1554,1010,-340,2864,39,48,813
1221117,26556204,24754120,26558740,24756500,2167,1649,2082,-917,1579,998,-252,2946,40,50,813
1222118,26556344,24754324,26558937,24756697,2168,1896,2076,-1209,1666,915,260,3457,40,50,813
1223119,26556512,24754552,26559134,24756894,2006,1733,2105,-1403,1762,665,467,3084,35,47,811
1224120,26556656,24754800,26559331,24757091,2180,1586,2140,-1661,1813,295,685,2912,35,47,811
1225121,26556824,24755036,26559528,24757288,2043,1644,2176,-1944,1846,-98,741,2880,35,34,810
1226122,26556972,24755236,26559725,24757485,2190,1869,2193,-2227,1922,-352,374,2965,35,34,810
1227123,26557100,24755416,26559922,24757682,2346,2001,2184,-2351,2067,-582,-63,3418,38,46,811
1228124,26557264,24755648,26560119,24757879,2136,1662,2167,-2392,2274,-843,-368,3714,38,46,811
1229126,26557388,24755912,26560316,24758076,2418,1432,2227,-2176,2502,-1036,-482,5303,17,57,811
1230126,26557540,24756208,26560513,24758273,2264,1189,2358,-1769,2698,-1156,-239,5589,17,57,811
1231127,26557664,24756440,26560710,24758470,2471,1575,2445,-1472,2852,-1273,-56,4331,32,61,811
1232128,26557776,24756684,26560907,24758667,2584,1479,2478,-1236,2981,-1330,-57,4348,32,61,811
1233129,26557944,24756964,26561104,24758864,2248,1218,2480,-997,3091,-1394,-73,4413,23,50,813
1234130,26558044,24757244,26561301,24759061,2716,1182,2473,-645,3180,-1299,-121,4533,23,50,813
1235131,26558200,24757528,26561498,24759258,2385,1119,2470,-407,3268,-1104,-450,4014,45,58,811
1236132,26558380,24757904,26561695,24759455,2243,466,2455,-267,3327,-973,223,3844,45,58,811
1237133,26558560,24758188,26561892,24759652,2251,1003,2397,-194,3375,-779,527,3621,37,61,810
1238134,26558732,24758404,26562089,24759849,2313,1420,2339,-171,3414,-551,615,3380,37,61,810
1239135,26558904,24758604,26562286,24760046,2324,1519,2284,-100,3433,-252,818,3549,30,52,815
1240136,26559088,24758832,26562483,24760243,2255,1331,2232,-21,3416,-36,823,3374,30,52,815
1241137,26559248,24759068,26562680,24760440,2423,1263,2182,-5,3376,142,715,3283,49,50,812
1242138,26559400,24759348,26562877,24760637,2492,952,2131,-16,3311,264,1073,3104,49,50,812
1243139,26559544,24759584,26563074,24760834,2567,1211,2063,-114,3205,409,1587,2948,40,46,812
1244140,26559696,24759816,26563271,24761031,2538,1220,1963,-143,3064,666,1910,3026,40,46,812
1245141,26559852,24760020,26563468,24761228,2531,1392,1820,-102,2926,998,2019,3422,37,48,813
1246143,26560016,24760312,26563665,24761425,2496,801,1643,91,2810,1397,2275,3909,37,48,813
1247143,26560144,24760608,26563862,24761622,2752,732,1486,344,2713,1485,2623,3903,43,52,811
1248144,26560276,24760828,26564059,24761819,2756,1198,1334,660,2583,1452,2692,4197,43,52,811
1249145,26560412,24761056,26564256,24762016,2759,1134,1159,1019,2427,1281,2401,4420,40,46,812
1250146,26560548,24761332,26564453,24762213,2787,800,939,1476,2208,978,2512,4750,40,46,812
1251147,26560700,24761616,26564650,24762410,2707,711,691,1962,1852,861,3321,4547,29,59,810
1252148,26560844,24761860,26564847,24762607,2781,941,431,2379,1490,942,2856,4493,29,59,810
1253149,26561016,24762076,26565044,24762804,2618,1107,138,2891,1194,868,2320,4781,23,50,810
1254150,26561184,24762308,26565241,24763001,2656,993,-197,3475,914,556,1943,4998,23,50,810
1255151,26561336,24762584,26565438,24763198,2777,683,-549,4064,610,410,1766,5103,28,60,811
1256159,26561508,24762872,26565668,24763428,2678,583,-886,4569,349,469,1242,4813,28,60,811
1257153,26561672,24763116,26565865,24763625,2743,837,-1203,4915,127,559,1337,4269,28,58,812
1258154,26561836,24763356,26566062,24763822,2759,843,-1469,5010,-88,717,1646,3455,28,58,812
1259155,26562052,24763588,26566259,24764019,2426,878,-1686,4818,-305,807,1535,2762,48,43,812
1260156,26562224,24763796,26566456,24764216,2713,1023,-1847,4435,-478,869,1338,2212,48,43,812
1261158,26562412,24764024,26566653,24764413,2617,884,-1961,3896,-621,895,1471,1732,32,38,812
1262159,26562592,24764232,26566850,24764610,2676,1005,-2076,3342,-767,881,1871,1766,32,38,812
1263159,26562792,24764420,26567047,24764807,2550,1134,-2216,2879,-918,784,2073,2115,52,32,812
1264160,26563004,24764568,26567244,24765004,2470,1406,-2406,2563,-1061,602,1939,2541,52,32,812
1265161,26563212,24764700,26567441,24765201,2491,1535,-2627,2382,-1212,276,1844,3020,38,29,812
1266162,26563420,24764816,26567638,24765398,2487,1670,-2852,2313,-1372,-64,1455,3519,38,29,812
1267163,26563624,24764956,26567835,24765595,2509,1545,-3081,2434,-1522,-368,594,4163,39,22,811
1268164,26563824,24765096,26568032,24765792,2534,1570,-3293,2659,-1647,-720,-235,4627,39,22,811
1269165,26564028,24765228,26568229,24765989,2507,1649,-2800,4080,-1629,-1412,-1732,14944,52,35,810
1270166,26564236,24765384,26568426,24766186,2478,1517,-1312,7517,-1408,-2197,-2675,28521,52,35,810
1271167,26564416,24765532,26568623,24766383,2661,1588,-388,9128,-1437,-1127,137,6456,51,34,809
1272168,26564656,24765696,26568820,24766580,2267,1504,-411,8634,-1687,-792,963,2438,51,34,809
1273169,26564876,24765868,26569017,24766777,2383,1465,-779,7186,-1961,-265,1227,1204,37,21,811
1274170,26565100,24766028,26569214,24766974,2347,1556,-1077,6044,-2171,-230,1153,1429,37,21,811
1275171,26565340,24766160,26569411,24767171,2230,1760,-1269,5076,-2261,-152,886,1023,34,24,812
1276172,26565536,24766280,26569608,24767368,2505,1869,-1437,4228,-2294,96,148,1320,34,24,812
1277173,26565748,24766396,26569805,24767565,2399,1929,-1582,3317,-2296,-52,-327,1353,42,27,811
1278175,26565964,24766548,26570002,24767762,2367,1725,-1536,2531,-2297,-402,-644,3235,42,27,811
1279175,26566164,24766696,26570199,24767959,2467,1772,-562,3705,-2151,-1520,-1963,20231,39,23,810
1280177,26566384,24766808,26570396,24768156,2333,2034,794,5264,-2017,-1652,-769,15861,39,23,810
1281177,26566624,24766920,26570593,24768353,2189,2071,1202,5085,-2165,-974,824,2283,38,24,808
1282179,26566836,24767028,26570790,24768550,2358,2136,864,3601,-2455,-1021,724,987,38,24,808
1283179,26567068,24767144,26570987,24768747,2219,2122,401,1994,-2684,-927,533,1260,38,17,809
1284181,26567288,24767248,26571184,24768944,2285,2238,27,1011,-2776,-1012,449,2210,38,17,809
1285182,26567516,24767368,26571381,24769141,2221,2173,-290,308,-2775,-1212,428,2937,48,21,809
1286182,26567724,24767456,26571578,24769338,2342,2421,-501,73,-2733,-1387,149,5319,48,21,809
1287183,26567964,24767564,26571775,24769535,2124,2335,-214,581,-2595,-2265,-139,12572,37,17,808
1288184,26568212,24767672,26571972,24769732,2053,2375,217,1255,-2477,-2137,329,10666,37,17,808
1289185,26568436,24767784,26572169,24769929,2191,2387,233,1018,-2480,-1713,1176,3890,41,31,807
1290186,26568684,24767896,26572366,24770126,2020,2424,-69,53,-2503,-1534,1209,2656,41,31,807
1291187,26568932,24768012,26572563,24770323,1998,2436,-411,-898,-2455,-1282,765,2833,39,18,808
1292188,26569164,24768112,26572760,24770520,2083,2579,-665,-1640,-2275,-1213,595,3077,39,18,808
1293189,26569400,24768224,26572957,24770717,2042,2542,-856,-2091,-2016,-1044,577,3741,38,20,808
1294191,26569688,24768344,26573154,24770914,1678,2526,-981,-2413,-1777,-956,560,4422,38,20,808
1295191,26569956,24768472,26573351,24771111,1771,2507,-846,-2251,-1588,-583,-87,8447,44,27,808
1296193,26570208,24768612,26573548,24771308,1848,2457,-508,-1718,-1472,-403,-589,9559,44,27,808
1297193,26570480,24768724,26573745,24771505,1691,2671,-348,-1671,-1417,-1108,-332,4913,58,34,810
1298194,26570744,24768816,26573942,24771702,1712,2842,-418,-2009,-1403,-1419,238,4055,58,34,810
