"Data file recorded 2014/9/24  13:44:51"
"%  Right Stride Frequency         = 2.0"
"%  Left Stride Frequency         = 2.0"
"%  Phase (Fractional)         = 32768.0"
"%  Experiment.py "
"%  Motor Gains    = [1800, 200, 100, 0, 0, 1800, 200, 100, 0, 0]
"% Columns: "
"% time | Right Leg Pos | Left Leg Pos | Commanded Right Leg Pos | Commanded Left Leg Pos | DCR | DCL | GyroX | GryoY | GryoZ | AX | AY | AZ | RBEMF | LBEMF | VBatt "
10946,17186124,18790432,17185591,18791223,-123,434,-381,-555,360,233,-429,4064,9,-2,829
11947,17186136,18790432,17185722,18791354,-121,542,-380,-554,361,245,-436,4071,9,-2,829
12948,17186132,18790432,17185853,18791485,38,599,-379,-556,362,230,-423,4087,-11,8,829
13949,17186132,18790432,17185984,18791616,70,657,-378,-549,361,222,-416,4084,-11,8,829
14950,17186132,18790428,17186115,18791747,128,741,-377,-548,360,229,-393,4080,-11,-7,828
15951,17186136,18790428,17186246,18791878,159,774,-376,-556,362,247,-455,4091,-11,-7,828
16952,17186136,18790428,17186377,18792009,241,832,-375,-559,362,248,-438,4060,11,-3,827
17953,17186136,18790440,17186508,18792140,299,810,-375,-566,362,260,-452,4084,11,-3,827
18954,17186120,18790432,17186639,18792271,464,996,-372,-564,362,265,-447,4075,0,-5,826
19955,17186128,18790428,17186770,18792402,368,1031,-372,-559,361,233,-426,4054,0,-5,826
20956,17186136,18790436,17186901,18792533,423,1010,-371,-551,361,227,-422,4040,7,8,826
21957,17186124,18790432,17187032,18792664,611,1145,-370,-560,361,232,-431,4040,7,8,826
22958,17186128,18790436,17187163,18792795,566,1151,-370,-553,362,252,-419,4042,-11,7,825
23959,17186128,18790424,17187294,18792926,649,1314,-371,-572,363,246,-428,4034,-11,7,825
24960,17186132,18790432,17187425,18793057,680,1244,-371,-573,362,241,-426,4076,9,4,823
25961,17186128,18790432,17187556,18793188,790,1352,-371,-564,362,225,-430,4096,9,4,823
26962,17186128,18790432,17187687,18793319,823,1410,-371,-537,363,228,-452,4047,11,-2,822
27963,17186124,18790424,17187818,18793450,907,1521,-370,-558,364,224,-444,4059,11,-2,822
28964,17186132,18790420,17187949,18793581,886,1557,-369,-564,361,246,-422,4063,-2,0,823
29965,17186136,18790440,17188080,18793712,968,1456,-369,-578,360,206,-415,4067,-2,0,823
30966,17186128,18790440,17188211,18793843,1104,1639,-370,-569,362,222,-428,4060,-1,-6,822
31967,17186132,18790436,17188342,18793974,1086,1724,-373,-561,361,235,-433,4088,-1,-6,822
32968,17186132,18790428,17188473,18794105,1168,1811,-373,-532,359,261,-414,4048,-3,1,821
33969,17186128,18790428,17188604,18794236,1253,1819,-373,-541,357,263,-433,4087,-3,1,821
34970,17186128,18790452,17188735,18794367,1286,1717,-373,-576,355,232,-422,4057,-10,2,820
35971,17186136,18790476,17188866,18794498,1290,1765,-372,-575,358,226,-452,4039,-10,2,820
36972,17186132,18790504,17188997,18794629,1426,1785,-377,-569,354,235,-458,4041,-8,12,817
37973,17186128,18790504,17189128,18794760,1485,2019,-390,-548,347,249,-875,4062,-8,12,817
38974,17186140,18790512,17189259,18794891,1438,2024,-384,-534,346,323,-821,4060,8,4,818
39975,17186132,18790516,17189390,18795022,1625,2106,-351,-541,328,292,-221,4031,8,4,818
40976,17186136,18790540,17189521,18795153,1606,2029,-330,-533,304,336,-298,4168,-9,-6,817
41977,17186136,18790552,17189652,18795284,1690,2157,-318,-523,288,319,-98,4037,-9,-6,817
42978,17186132,18790564,17189783,18795415,1775,2210,-311,-568,287,361,46,3972,-9,-1,816
43979,17186124,18790572,17189914,18795546,1861,2289,-300,-581,307,393,-87,3953,-9,-1,816
44980,17186136,18790580,17190045,18795677,1789,2344,-290,-627,350,372,-218,3889,7,-5,815
45981,17186140,18790592,17190176,18795808,1896,2373,-295,-677,392,338,-282,3890,7,-5,815
46982,17186140,18790612,17190307,18795939,1979,2372,-312,-728,426,311,-417,3974,14,1,813
47983,17186156,18790632,17190438,18796070,1930,2422,-320,-718,448,278,-383,4101,14,1,813
48984,17186160,18790640,17190569,18796201,2062,2552,-309,-649,466,267,-435,4263,-1,-1,812
49985,17186152,18790676,17190700,18796332,2199,2421,-292,-544,484,205,-670,4295,-1,-1,812
50986,17186204,18790716,17190831,18796463,1860,2437,-275,-473,491,188,-697,4232,7,0,812
51987,17186240,18790748,17190962,18796594,2003,2532,-256,-434,484,203,-524,4175,7,0,812
52988,17186272,18790784,17191093,18796725,2072,2549,-242,-410,478,222,-522,4145,0,7,811
53989,17186348,18790836,17191224,18796856,1821,2485,-233,-392,483,252,-546,4062,0,7,811
54990,17186408,18790872,17191355,18796987,1953,2628,-222,-406,493,310,-478,3938,26,2,812
55991,17186452,18790916,17191486,18797118,2093,2617,-208,-434,499,336,-344,3883,26,2,812
56992,17186592,18790972,17191617,18797249,1490,2576,-208,-473,505,375,-333,3880,14,8,813
57993,17186728,18791016,17191748,18797380,1514,2691,-220,-523,505,368,-180,3882,14,8,813
58994,17186844,18791068,17191879,18797511,1646,2677,-232,-566,500,416,-182,3856,18,4,810
59995,17186948,18791164,17192010,18797642,1734,2418,-232,-589,491,449,-216,3896,18,4,810
60996,17187084,18791244,17192141,18797773,1533,2542,-235,-574,489,483,-370,4079,28,11,813
61997,17187208,18791320,17192272,18797904,1612,2593,-251,-524,507,515,-523,4107,28,11,813
62998,17187312,18791400,17192403,18798035,1750,2591,-278,-491,521,576,-392,4029,17,9,814
63999,17187420,18791508,17192534,18798166,1736,2427,-305,-452,512,649,-265,4080,17,9,814
65000,17187540,18791608,17192665,18798297,1667,2492,-327,-361,488,613,-192,4219,14,18,814
66001,17187620,18791732,17192796,18798428,1940,2347,-336,-260,462,582,-194,4275,14,18,814
67002,17187724,18791856,17192927,18798559,1803,2351,-333,-134,434,613,-309,4326,20,16,814
68003,17187828,18791976,17193058,18798690,1816,2382,-322,5,422,663,-370,4313,20,16,814
69004,17187904,18792108,17193189,18798821,2016,2308,-303,124,417,679,-342,4204,12,29,812
70005,17188012,18792260,17193320,18798952,1827,2175,-285,192,415,667,-477,4147,12,29,812
71006,17188104,18792400,17193451,18799083,1945,2247,-264,230,418,623,-316,4069,19,34,813
72007,17188196,18792528,17193582,18799214,1963,2325,-244,243,414,710,-179,4063,19,34,813
73008,17188284,18792668,17193713,18799345,2008,2248,-212,289,407,693,-236,3998,19,22,815
74009,17188376,18792792,17193844,18799476,2001,2352,-165,345,411,618,-302,4035,19,22,815
75010,17188452,18792956,17193975,18799607,2127,2088,-108,417,422,540,-91,4089,22,27,813
76011,17188508,18793136,17194106,18799738,2286,1968,-59,503,439,458,175,4105,22,27,813
77012,17188596,18793308,17194237,18799869,2105,2002,-23,610,462,363,382,4117,28,42,813
78013,17188668,18793472,17194368,18800000,2232,2038,-2,710,495,167,429,4164,28,42,813
79014,17188748,18793632,17194499,18800131,2206,2052,-3,844,552,-14,126,4357,28,42,814
80015,17188824,18793808,17194630,18800262,2256,1933,-20,1049,623,-158,17,4387,28,42,814
81016,17188916,18794004,17194761,18800393,2175,1781,-46,1256,699,-350,-4,4437,27,42,813
82017,17189000,18794216,17194892,18800524,2247,1647,-83,1483,779,-589,-250,4409,27,42,813
83018,17189060,18794396,17195023,18800655,2429,1826,-117,1647,880,-785,-918,4384,22,25,814
84019,17189132,18794508,17195154,18800786,2381,2260,-119,1789,1002,-873,-1415,4374,22,25,814
85020,17189212,18794592,17195285,18800917,2354,2457,-79,1927,1150,-887,-1739,4317,9,22,815
86021,17189284,18794704,17195416,18801048,2431,2292,-7,1972,1278,-953,-910,4055,9,22,815
87022,17189372,18794816,17195547,18801179,2351,2302,53,1947,1369,-918,-419,3914,9,30,812
88023,17189444,18794924,17195678,18801310,2479,2338,99,1868,1436,-880,-188,3602,9,30,812
89024,17189536,18795048,17195809,18801441,2372,2242,156,1666,1466,-906,398,3355,10,20,811
90025,17189624,18795156,17195940,18801572,2417,2353,226,1449,1484,-849,-13,3304,10,20,811
91026,17189704,18795276,17196071,18801703,2490,2285,302,1185,1526,-760,-418,3287,28,31,810
92027,17189784,18795424,17196202,18801834,2514,2103,354,1025,1576,-665,-434,3410,28,31,810
93028,17189888,18795616,17196333,18801965,2378,1803,389,919,1630,-620,-425,3539,20,39,811
94029,17189968,18795800,17196464,18802096,2551,1830,397,932,1692,-699,-460,3903,20,39,811
95030,17190056,18795956,17196595,18802227,2521,1996,367,1008,1748,-749,-505,4075,32,46,812
96031,17190148,18796160,17196726,18802358,2514,1665,308,1070,1783,-841,-506,4086,32,46,812
97032,17190252,18796396,17196857,18802489,2453,1420,220,1185,1782,-922,-380,4265,23,47,813
98033,17190372,18796636,17196988,18802620,2359,1348,106,1306,1758,-1035,-570,4281,23,47,813
99034,17190464,18796840,17197119,18802751,2552,1542,-18,1398,1733,-969,-1162,4275,19,42,814
100035,17190560,18797008,17197250,18802882,2543,1752,-122,1488,1709,-807,-1452,4074,19,42,814
101036,17190668,18797204,17197381,18803013,2481,1549,-208,1426,1651,-717,-1016,3681,21,38,815
102037,17190756,18797424,17197512,18803144,2625,1362,-299,1211,1540,-565,-580,3368,21,38,815
103038,17190844,18797632,17197643,18803275,2645,1404,-382,907,1395,-363,-95,2998,33,46,812
104039,17190940,18797876,17197774,18803406,2613,1131,-433,518,1246,-149,386,2772,33,46,812
105040,17191028,18798116,17197905,18803537,2683,1109,-472,52,1112,38,600,2602,19,39,814
106041,17191116,18798280,17198036,18803668,2703,1570,-520,-468,1023,225,194,2501,19,39,814
107042,17191184,18798520,17198167,18803799,2856,1048,-558,-934,984,409,-163,2606,33,40,815
108043,17191260,18798752,17198298,18803930,2832,1055,-571,-1310,983,594,-370,2987,33,40,815
109044,17191316,18798984,17198429,18804061,2991,1012,-559,-1513,1016,682,-474,3635,16,38,813
110045,17191392,18799204,17198560,18804192,2892,1048,-536,-1513,1054,712,-478,4191,16,38,813
111046,17191444,18799412,17198691,18804323,3078,1091,-508,-1387,1068,717,-766,4497,20,50,814
112047,17191484,18799604,17198822,18804454,3194,1165,-479,-1212,1045,648,-812,4665,20,50,814
113048,17191536,18799788,17198953,18804585,3156,1193,-451,-1060,998,602,-1239,4733,9,37,812
114049,17191592,18799984,17199084,18804716,3165,1089,-401,-920,936,627,-1231,4735,9,37,812
115050,17191648,18800224,17199215,18804847,3199,767,-347,-797,846,659,-320,4679,15,51,810
116051,17191720,18800452,17199346,18804978,3127,800,-313,-674,692,592,1181,4786,15,51,810
117052,17191788,18800644,17199477,18805109,3180,1000,-324,-500,507,627,1332,4977,6,46,811
118053,17191860,18800828,17199608,18805240,3183,1027,-355,-295,347,645,1321,4952,6,46,811
119054,17191912,18800992,17199739,18805371,3344,1139,-377,-98,231,619,1176,4840,6,46,813
120055,17191992,18801172,17199870,18805502,3194,1018,-405,45,130,568,1308,4719,6,46,813
121056,17192052,18801332,17200001,18805633,3351,1131,-472,145,-29,580,1815,4670,26,36,812
122057,17192112,18801516,17200132,18805764,3384,958,-571,197,-221,620,1788,4368,26,36,812
123058,17192156,18801680,17200263,18805895,3523,1070,-691,153,-375,712,1256,4224,23,34,810
124059,17192200,18801844,17200394,18806026,3563,1056,-821,110,-474,694,419,4353,23,34,810
125060,17192248,18802012,17200525,18806157,3576,1016,-936,82,-531,595,-43,4349,15,35,810
126061,17192296,18802180,17200656,18806288,3614,1000,-1032,21,-608,351,440,4068,15,35,810
127062,17192384,18802328,17200787,18806419,3385,1118,-1141,-137,-735,158,1115,3841,4,31,809
128063,17192436,18802472,17200918,18806550,3646,1139,-1274,-356,-842,154,967,3861,4,31,809
129064,17192524,18802620,17201049,18806681,3442,1107,-1395,-560,-871,144,433,3870,6,27,809
130065,17192612,18802780,17201180,18806812,3462,1020,-1460,-805,-828,67,-194,3732,6,27,809
131066,17192740,18802964,17201311,18806943,3215,847,-1428,-1067,-740,-13,-783,4004,30,31,809
132067,17192856,18803120,17201442,18807074,3299,1012,-990,-717,-634,522,-1129,9826,30,31,809
133068,17192976,18803248,17201573,18807205,3279,1189,-244,223,-563,1018,-893,12389,20,41,810
134069,17193084,18803368,17201704,18807336,3367,1245,124,425,-496,293,-539,4432,20,41,810
135090,17193188,18803480,17201844,18807476,3800,1989,60,-22,-407,264,-370,3510,15,34,810
136084,17193308,18803624,17201975,18807607,3800,1784,-150,-565,-299,534,-341,3498,15,34,810
137085,17193420,18803780,17202106,18807738,3800,1699,-306,-899,-197,727,-125,3851,13,31,809
138086,17193540,18803892,17202237,18807869,3800,1983,-382,-1060,-97,767,4,3989,13,31,809
139086,17193668,18803988,17202368,18808000,3800,2099,-406,-1096,-4,919,-472,4152,19,24,805
140088,17193788,18804104,17202499,18808131,3800,1981,-401,-1105,76,901,-692,4415,19,24,805
141089,17193896,18804236,17202630,18808262,3800,1882,-371,-1102,130,829,-801,4607,22,26,805
142090,17194040,18804388,17202761,18808393,3800,1749,-325,-1034,125,871,-878,4885,22,26,805
143091,17194136,18804468,17202892,18808524,3800,2221,-266,-854,86,849,-732,5111,26,31,804
144092,17194228,18804512,17203023,18808655,3800,2485,-211,-651,17,747,-183,5278,26,31,804
145093,17194368,18804604,17203154,18808786,3800,2203,-198,-382,-75,753,47,5376,34,26,805
146094,17194460,18804668,17203285,18808917,3800,2409,-197,-67,-154,670,264,5395,34,26,805
147095,17194544,18804760,17203416,18809048,3800,2252,-181,235,-207,634,4,5436,17,22,800
148096,17194672,18804824,17203547,18809179,3800,2456,-121,444,-236,605,-681,5231,17,22,800
149097,17194788,18804852,17203678,18809310,3800,2728,1,647,-245,477,-1105,5057,16,10,802
150097,17194864,18804864,17203809,18809441,3800,2881,149,782,-266,465,-1158,4821,16,10,802
151098,17194996,18804908,17203940,18809572,3800,2720,287,854,-315,405,-789,4561,13,10,800
152099,17195156,18804984,17204071,18809703,3800,2545,397,906,-384,253,-138,4586,13,10,800
153101,17195316,18805048,17204202,18809834,3800,2651,482,954,-468,156,114,4356,23,14,799
154089,17195532,18805072,17204333,18809965,3485,2949,557,897,-562,142,368,3984,23,14,799
155090,17195760,18805044,17204464,18810096,3370,3345,618,715,-612,326,126,3721,34,5,801
156091,17195964,18805084,17204595,18810227,3489,2961,658,354,-587,558,-583,3290,34,5,801
157092,17196268,18805152,17204726,18810358,2789,2814,665,81,-507,642,-1415,3632,45,19,801
158093,17196560,18805220,17204857,18810489,2796,2843,663,-73,-406,292,-1971,3745,45,19,801
159094,17196828,18805296,17204988,18810620,2887,2818,647,-183,-345,40,-2337,3834,62,26,801
160095,17197116,18805356,17205119,18810751,2694,2950,581,-178,-340,-19,-2117,4216,62,26,801
161096,17197404,18805392,17205250,18810882,2627,3143,461,-144,-355,-161,-1320,4365,63,23,807
162097,17197652,18805456,17205381,18811013,2827,2999,303,-15,-367,-247,-960,4501,63,23,807
163098,17197904,18805528,17205512,18811144,2751,2975,181,61,-344,-497,-734,4291,56,11,806
164099,17198160,18805616,17205643,18811275,2672,2895,135,53,-280,-454,-790,4139,56,11,806
165100,17198412,18805692,17205774,18811406,2646,2996,140,21,-222,-261,-714,3925,42,25,805
166101,17198652,18805712,17205905,18811537,2674,3395,173,-116,-205,-329,-104,3483,42,25,805
167102,17198888,18805744,17206036,18811668,2654,3365,204,-361,-235,-229,387,3394,39,21,806
168103,17199160,18805820,17206167,18811799,2369,3115,258,-634,-269,-94,284,3318,39,21,806
169104,17199364,18805888,17206298,18811930,2763,3194,358,-866,-295,3,197,3371,49,24,803
170105,17199568,18806012,17206429,18812061,2732,2848,477,-1053,-322,-56,-153,3367,49,24,803
171106,17199800,18806076,17206560,18812192,2514,3254,575,-1271,-341,-180,-829,3356,39,16,807
172107,17199972,18806128,17206691,18812323,2872,3365,664,-1350,-333,-127,-1750,3734,51,8,806
173108,17200160,18806128,17206822,18812454,2748,3748,750,-1408,-307,-122,-2219,3789,51,8,806
174109,17200348,18806184,17206953,18812585,2725,3432,826,-1394,-285,-240,-2251,4003,28,25,800
175110,17200496,18806284,17207084,18812716,2969,3172,885,-1310,-274,-307,-2089,4118,28,25,800
176111,17200620,18806376,17207215,18812847,3123,3241,956,-1217,-300,-205,-1446,4053,37,17,803
177112,17200808,18806412,17207346,18812978,2699,3634,1053,-1106,-365,-106,-745,4079,37,17,803
178113,17200924,18806444,17207477,18813109,3157,3703,1138,-1037,-428,-94,-463,3951,38,8,800
179127,17201024,18806452,17207608,18813240,3272,3800,1209,-1046,-474,-31,-315,3703,38,8,800
180115,17201216,18806524,17207739,18813371,2671,3536,1274,-1136,-528,90,-46,3304,39,23,798
181116,17201384,18806636,17207870,18813502,2806,3296,1326,-1272,-589,242,134,3103,39,23,798
182117,17201528,18806748,17208001,18813633,2952,3305,1351,-1445,-636,255,175,3007,28,18,802
183118,17201688,18806804,17208132,18813764,2840,3690,1332,-1571,-660,315,221,3073,28,18,802
184132,17201880,18806840,17208263,18813895,2615,3800,1269,-1640,-665,351,175,3190,43,19,802
185120,17202012,18806896,17208394,18814026,2990,3767,1198,-1677,-655,337,-177,3195,43,19,802
186121,17202144,18806956,17208525,18814157,2991,3775,1128,-1666,-638,209,-731,3355,26,27,799
187122,17202308,18807076,17208656,18814288,2778,3406,1057,-1630,-613,87,-1224,3397,26,27,799
188123,17202420,18807200,17208787,18814419,3112,3385,969,-1588,-592,50,-1594,3407,42,31,799
189124,17202496,18807280,17208918,18814550,3363,3684,880,-1513,-582,-63,-1362,3318,42,31,799
190138,17202676,18807296,17209049,18814681,2692,3800,790,-1453,-595,-148,-822,3351,18,18,799
191126,17202768,18807372,17209180,18814812,3260,3787,684,-1376,-614,-195,-85,3447,18,18,799
192140,17202836,18807444,17209311,18814943,3440,3800,571,-1283,-629,-221,499,3361,25,18,797
193128,17202960,18807580,17209442,18815074,3094,3438,455,-1223,-639,-225,682,3121,25,18,797
194129,17203072,18807680,17209573,18815205,3178,3678,347,-1310,-633,-306,629,2814,27,31,795
195130,17203164,18807764,17209704,18815336,3322,3800,245,-1433,-614,-331,666,2694,27,31,795
196143,17203268,18807812,17209835,18815467,3260,3800,145,-1545,-589,-343,709,2687,19,33,798
197144,17203420,18807868,17209966,18815598,2952,3800,27,-1618,-569,-361,946,2731,19,33,798
198146,17203524,18807964,17210097,18815729,3265,3800,-120,-1702,-528,-348,871,2791,41,33,797
199134,17203600,18808100,17210228,18815860,3465,3564,-289,-1775,-472,-281,573,2832,41,33,797
200135,17203792,18808224,17210359,18815991,2715,3644,-472,-1786,-414,-382,203,3021,41,33,796
201136,17203904,18808328,17210490,18816122,3225,3782,-659,-1754,-358,-551,-146,3193,41,33,796
202150,17203976,18808392,17210621,18816253,3502,3800,-1071,-1510,-239,-645,-199,3568,35,22,800
203150,17204176,18808424,17210752,18816384,2672,3800,-1281,-1366,-180,-678,-39,3601,35,22,800
204139,17204364,18808560,17210883,18816515,2724,3657,-1470,-1302,-126,-698,-34,3427,32,28,796
205152,17204532,18808640,17211014,18816646,2834,3800,-1616,-1329,-66,-643,112,3266,32,28,796
206141,17204732,18808780,17211145,18816777,2605,3654,-1750,-1346,-11,-664,121,3494,49,25,801
207155,17204964,18808872,17211276,18816908,2361,3800,-1899,-1340,15,-604,-649,3426,49,25,801
208155,17205180,18808932,17211407,18817039,2426,3800,-2030,-1368,25,-557,-1325,3417,60,18,801
209156,17205376,18808960,17211538,18817170,2523,3800,-2155,-1424,62,-469,-1466,3472,60,18,801
210158,17205688,18809024,17211669,18817301,1720,3800,-2290,-1488,137,-264,-1075,3444,61,27,802
211159,17205940,18809116,17211800,18817432,2043,3800,-2389,-1521,212,-274,-275,3425,61,27,802
212159,17206156,18809192,17211931,18817563,2231,3800,-2440,-1686,278,-446,-230,3220,56,28,803
213161,17206436,18809288,17212062,18817694,1767,3800,-2455,-1833,332,-397,-459,3446,56,28,803
214162,17206708,18809360,17212193,18817825,1756,3800,-2428,-1936,389,-365,-1001,3579,59,12,803
215163,17207028,18809428,17212324,18817956,1374,3800,-2351,-1999,438,-427,-1355,3747,59,12,803
216164,17207336,18809504,17212455,18818087,1372,3800,-2233,-2053,439,-556,-1196,3841,63,26,805
217164,17207632,18809588,17212586,18818218,1376,3800,-2100,-2100,404,-616,-1025,4119,63,26,805
218166,17207928,18809688,17212717,18818349,1304,3800,-1972,-2059,365,-611,-1052,4408,67,32,806
219166,17208268,18809804,17212848,18818480,938,3800,-1850,-1991,326,-679,-1204,4416,67,32,806
220167,17208540,18809944,17212979,18818611,1302,3800,-1722,-1879,312,-827,-1555,4533,60,37,806
221168,17208840,18810100,17213110,18818742,1054,3800,-1595,-1819,348,-875,-1910,4488,60,37,806
222169,17209144,18810256,17213241,18818873,954,3800,-1464,-1761,425,-848,-1953,4457,69,36,806
223170,17209436,18810408,17213372,18819004,959,3800,-1367,-1747,534,-841,-2151,4530,69,36,806
224159,17209688,18810572,17213503,18819135,1156,3782,-1289,-1728,676,-816,-2442,4585,50,47,807
225160,17209960,18810752,17213634,18819266,970,3661,-1202,-1712,823,-826,-2314,4664,50,47,807
226161,17210184,18810952,17213765,18819397,1230,3508,-1083,-1642,953,-870,-1989,4736,57,33,808
227162,17210396,18811152,17213896,18819528,1270,3478,-926,-1603,1067,-864,-1643,4795,57,33,808
228163,17210620,18811336,17214027,18819659,1155,3557,-730,-1559,1166,-778,-1075,4830,37,34,809
229164,17210840,18811528,17214158,18819790,1142,3482,-512,-1582,1224,-761,-196,4553,37,34,809
230165,17211004,18811676,17214289,18819921,1477,3751,-303,-1745,1236,-665,431,4352,40,49,809
231166,17211200,18811872,17214420,18820052,1250,3424,-114,-1977,1213,-447,887,4212,40,49,809
232167,17211356,18812076,17214551,18820183,1490,3343,50,-2213,1174,-350,1145,4166,40,31,807
233168,17211512,18812232,17214682,18820314,1479,3634,172,-2415,1121,-195,1238,4212,40,31,807
234169,17211668,18812380,17214813,18820445,1469,3678,240,-2614,1069,-73,999,4266,35,23,807
235183,17211848,18812480,17214944,18820576,1297,3800,272,-2831,1013,85,786,4335,35,23,807
236171,17211972,18812624,17215075,18820707,1651,3714,298,-2971,954,132,498,4542,29,33,807
237172,17212132,18812772,17215206,18820838,1414,3683,317,-3096,883,176,369,4665,29,33,807
238186,17212256,18812888,17215337,18820969,1642,3800,299,-3088,776,200,462,5193,17,33,806
239187,17212352,18812972,17215468,18821100,1834,3800,237,-2957,687,373,429,5371,17,33,806
240187,17212492,18813080,17215599,18821231,1555,3800,144,-2802,631,681,525,5443,30,22,805
241188,17212624,18813184,17215730,18821362,1605,3800,37,-2692,591,835,678,5346,30,22,805
242177,17212700,18813336,17215861,18821493,1981,3706,-97,-2608,529,930,877,5396,33,38,803
243178,17212856,18813508,17215992,18821624,1470,3564,-269,-2492,435,989,868,5438,33,38,803
244191,17212956,18813628,17216123,18821755,1834,3800,-444,-2405,354,1148,748,5349,22,25,804
245193,17213020,18813756,17216254,18821886,2089,3800,-601,-2284,316,1358,640,5392,22,25,804
246194,17213124,18813884,17216385,18822017,1852,3800,-714,-2208,295,1432,532,5363,29,28,804
247195,17213264,18814016,17216516,18822148,1624,3800,-773,-2162,234,1330,391,5520,29,28,804
248183,17213360,18814184,17216647,18822279,1914,3588,-780,-2032,154,1209,87,6219,21,26,804
249184,17213464,18814336,17216778,18822410,1877,3681,-768,-1836,100,1062,-76,6054,21,26,804
250197,17213584,18814432,17216909,18822541,1782,3800,-776,-1691,79,875,-300,5494,35,17,805
251199,17213708,18814524,17217040,18822672,1761,3800,-800,-1660,65,614,-467,5096,35,17,805
252199,17213808,18814652,17217171,18822803,1925,3800,-817,-1706,50,383,-569,4790,34,16,804
253188,17213920,18814796,17217302,18822934,1859,3765,-826,-1801,56,155,-691,4771,34,16,804
254202,17214032,18814912,17217433,18823065,1868,3800,-834,-1893,87,-82,-773,4800,26,32,803
255203,17214124,18815008,17217564,18823196,2011,3800,-830,-1926,121,-269,-741,4795,26,32,803
256203,17214268,18815092,17217695,18823327,1681,3800,-800,-1956,143,-410,-678,4734,35,22,803
257205,17214384,18815212,17217826,18823458,1863,3800,-755,-1979,164,-519,-706,4886,35,22,803
258205,17214472,18815308,17217957,18823589,2058,3800,-693,-1936,197,-662,-840,4967,29,28,804
259207,17214616,18815456,17218088,18823720,1702,3800,-611,-1889,248,-784,-930,4937,29,28,804
260214,17214756,18815548,17218228,18823860,1728,3800,-515,-1841,329,-961,-1043,5012,17,22,803
261209,17214876,18815672,17218359,18823991,1859,3800,-414,-1799,451,-1154,-1248,5072,17,22,803
262210,17214992,18815752,17218490,18824122,1891,3800,-320,-1670,612,-1223,-1341,5231,16,33,805
263211,17215156,18815860,17218621,18824253,1577,3800,-237,-1482,781,-1332,-1120,5380,16,33,805
264212,17215280,18815988,17218752,18824384,1831,3800,-152,-1269,938,-1437,-1120,5388,37,33,804
265213,17215388,18816120,17218883,18824515,1941,3800,-72,-1089,1080,-1487,-1106,5402,37,33,804
266214,17215540,18816216,17219014,18824646,1658,3800,1,-933,1215,-1548,-1009,5340,25,21,803
267215,17215664,18816352,17219145,18824777,1837,3800,79,-853,1358,-1582,-965,5218,25,21,803
268216,17215760,18816444,17219276,18824908,2028,3800,175,-827,1514,-1569,-1036,5045,35,26,802
269217,17215916,18816532,17219407,18825039,1643,3800,293,-850,1680,-1535,-1069,4916,35,26,802
270218,17216040,18816668,17219538,18825170,1847,3800,429,-908,1857,-1503,-1093,4754,20,24,803
271219,17216176,18816796,17219669,18825301,1770,3800,562,-1009,2035,-1451,-1076,4684,20,24,803
272219,17216300,18816920,17219800,18825432,1849,3800,682,-1149,2207,-1408,-896,4548,38,30,804
273221,17216440,18817044,17219931,18825563,1746,3800,791,-1363,2367,-1320,-807,4397,38,30,804
274221,17216572,18817144,17220062,18825694,1795,3800,878,-1601,2505,-1210,-783,4375,39,21,804
275223,17216688,18817280,17220193,18825825,1903,3800,944,-1835,2618,-1082,-902,4324,39,21,804
276224,17216836,18817424,17220324,18825956,1696,3800,1009,-2067,2716,-930,-883,4337,34,34,804
277225,17216936,18817544,17220455,18826087,2010,3800,1077,-2284,2798,-727,-783,4383,34,34,804
278226,17217040,18817680,17220586,18826218,1998,3800,1141,-2487,2856,-569,-638,4451,27,35,803
279227,17217168,18817800,17220717,18826349,1850,3800,1195,-2671,2895,-438,-540,4536,27,35,803
280228,17217300,18817892,17220848,18826480,1825,3800,1229,-2851,2910,-288,-374,4563,28,32,803
281229,17217400,18818016,17220979,18826611,2039,3800,1244,-2986,2892,-38,-116,4640,28,32,803
282230,17217528,18818136,17221110,18826742,1867,3800,1240,-3082,2865,202,-41,4787,36,31,804
283230,17217652,18818236,17221241,18826873,1895,3800,1237,-3167,2828,450,247,4559,36,31,804
284231,17217744,18818356,17221372,18827004,2113,3800,1232,-3285,2754,614,605,4543,35,15,803
285232,17217892,18818420,17221503,18827135,1756,3800,1192,-3294,2682,778,568,5002,35,15,803
286233,17217996,18818504,17221634,18827266,2043,3800,1130,-3288,2628,961,711,4936,19,14,803
287234,17218076,18818600,17221765,18827397,2217,3800,1082,-3291,2561,1195,1075,4749,19,14,803
288235,17218172,18818700,17221896,18827528,2133,3800,1046,-3301,2477,1446,1333,4798,30,25,802
289236,17218288,18818800,17222027,18827659,2015,3800,996,-3271,2383,1622,1328,4771,30,25,802
290237,17218360,18818856,17222158,18827790,2317,3800,944,-3269,2292,1668,1160,4625,21,9,800
291238,17218416,18818904,17222289,18827921,2451,3800,924,-3275,2221,1628,1042,4397,21,9,800
292240,17218516,18818996,17222420,18828052,2190,3800,912,-3300,2162,1513,807,4460,27,10,801
293241,17218616,18819072,17222551,18828183,2204,3800,889,-3304,2109,1324,521,4449,27,10,801
294242,17218668,18819212,17222682,18828314,2539,3800,870,-3271,2065,1126,307,4451,33,16,801
295242,17218808,18819284,17222813,18828445,1987,3800,861,-3135,2048,967,26,4544,33,16,801
296244,17218916,18819360,17222944,18828576,2198,3800,860,-2961,2096,803,-228,4725,17,15,800
297244,17219000,18819432,17223075,18828707,2368,3800,870,-2738,2191,587,-295,4764,17,15,800
298246,17219136,18819512,17223206,18828838,2042,3800,909,-2584,2280,463,-56,4387,29,9,802
299246,17219236,18819596,17223337,18828969,2282,3800,992,-2501,2326,472,303,4135,29,9,802
300248,17219312,18819680,17223468,18829100,2457,3800,1107,-2455,2341,451,431,4038,17,26,801
301249,17219440,18819756,17223599,18829231,2134,3800,1233,-2376,2344,295,378,3987,17,26,801
302250,17219512,18819808,17223730,18829362,2510,3800,1348,-2193,2362,79,254,4158,17,18,801
303251,17219576,18819860,17223861,18829493,2591,3800,1437,-1908,2386,-33,-9,4405,17,18,801
304252,17219672,18819924,17223992,18829624,2407,3800,1497,-1588,2398,40,-7,4335,12,10,800
305253,17219756,18820004,17224123,18829755,2504,3800,1551,-1340,2406,147,101,4113,12,10,800
306253,17219848,18820088,17224254,18829886,2472,3800,1595,-1132,2397,211,188,3921,32,8,800
307254,17219928,18820152,17224385,18830017,2569,3800,1623,-917,2398,222,51,3851,32,8,800
308255,17220064,18820168,17224516,18830148,2218,3800,1648,-697,2454,159,-130,3760,12,7,800
309257,17220148,18820172,17224647,18830279,2565,3800,1676,-519,2556,205,-74,3604,12,7,800
310258,17220220,18820216,17224778,18830410,2667,3800,1696,-360,2667,303,73,3431,14,3,800
311258,17220328,18820264,17224909,18830541,2453,3800,1717,-297,2734,386,234,3089,14,3,800
312260,17220400,18820324,17225040,18830672,2705,3800,1751,-317,2730,517,426,2629,32,4,797
313260,17220464,18820360,17225171,18830803,2785,3800,1795,-412,2657,603,497,2359,32,4,797
314262,17220572,18820388,17225302,18830934,2521,3800,1829,-525,2564,630,354,2227,24,6,799
315262,17220612,18820456,17225433,18831065,2986,3800,1814,-609,2496,678,274,2359,24,6,799
316264,17220640,18820540,17225564,18831196,3107,3800,1759,-623,2443,746,244,2381,7,6,799
317264,17220740,18820616,17225695,18831327,2672,3800,1675,-588,2400,925,134,2464,7,6,799
318266,17220816,18820712,17225826,18831458,2847,3800,1586,-540,2361,1149,141,2351,31,12,797
319267,17220872,18820800,17225957,18831589,3006,3800,1493,-538,2309,1309,140,2213,31,12,797
320268,17220960,18820896,17226088,18831720,2826,3800,1377,-503,2235,1317,10,2321,30,21,797
321269,17221060,18821012,17226219,18831851,2766,3800,1218,-348,2162,1253,-202,2636,30,21,797
322269,17221156,18821124,17226350,18831982,2807,3800,1035,-98,2111,1120,-429,2818,17,23,797
323270,17221248,18821264,17226481,18832113,2850,3800,867,161,2067,981,-586,2745,17,23,797
324272,17221400,18821408,17226612,18832244,2467,3800,721,357,2009,925,-636,2670,18,41,799
325273,17221512,18821544,17226743,18832375,2726,3800,585,526,1934,913,-667,2503,18,41,799
326274,17221600,18821668,17226874,18832506,2896,3800,470,587,1852,928,-716,2045,27,29,800
327275,17221720,18821792,17227005,18832637,2702,3800,391,516,1773,1070,-714,1664,27,29,800
328275,17221832,18821924,17227136,18832768,2761,3800,319,381,1709,1174,-762,1549,24,31,799
329276,17221932,18822044,17227267,18832899,2851,3800,238,214,1638,1231,-507,1326,24,31,799
330277,17222024,18822152,17227398,18833030,2919,3800,165,-24,1517,1219,10,1083,29,16,799
331278,17222140,18822260,17227529,18833161,2777,3800,91,-293,1346,1148,350,1029,29,16,799
332279,17222248,18822344,17227660,18833292,2838,3800,-4,-536,1152,1139,439,1152,21,30,798
333280,17222352,18822408,17227791,18833423,2876,3800,-119,-702,952,1119,235,1282,21,30,798
334281,17222492,18822512,17227922,18833554,2648,3800,-257,-832,753,915,-153,1505,28,29,797
335283,17222624,18822600,17228053,18833685,2698,3800,-428,-865,556,690,-632,1793,28,29,797
336283,17222768,18822700,17228184,18833816,2619,3800,-637,-854,385,486,-1172,1951,42,11,799
337285,17222924,18822784,17228315,18833947,2534,3800,-892,-756,252,274,-1524,2335,42,11,799
338285,17223056,18822840,17228446,18834078,2684,3800,-1153,-618,158,257,-1640,2364,33,16,799
339286,17223160,18822932,17228577,18834209,2872,3800,-1377,-602,86,568,-1443,2025,33,16,799
340287,17223272,18823020,17228708,18834340,2831,3800,-1556,-702,25,1031,-1209,1831,34,25,798
341289,17223376,18823108,17228839,18834471,2894,3800,-1702,-878,-28,1283,-1067,1642,34,25,798
342290,17223484,18823236,17228970,18834602,2880,3800,-1809,-1136,-75,1411,-753,1501,37,30,798
343291,17223584,18823352,17229101,18834733,2946,3800,-1893,-1460,-130,1480,-405,1414,37,30,798
344291,17223720,18823448,17229232,18834864,2720,3800,-1987,-1773,-202,1651,-317,1550,19,29,797
345292,17223856,18823592,17229363,18834995,2719,3800,-2090,-2035,-275,1789,-487,1782,19,29,797
346293,17224008,18823744,17229494,18835126,2610,3800,-2202,-2207,-341,1702,-733,2153,47,40,799
347294,17224164,18823892,17229625,18835257,2575,3800,-2341,-2271,-384,1434,-1001,2745,47,40,799
348295,17224272,18824100,17229756,18835388,2886,3800,-2495,-2177,-406,1233,-1194,3275,20,50,800
349297,17224372,18824268,17229887,18835519,2951,3800,-2627,-2064,-442,1245,-917,3329,20,50,800
350297,17224476,18824480,17230018,18835650,2939,3800,-2731,-2002,-493,1675,-653,3424,19,48,798
351298,17224544,18824724,17230149,18835781,3193,3800,-2839,-1942,-520,2113,-635,3585,19,48,798
352299,17224616,18824940,17230280,18835912,3195,3800,-2928,-1922,-543,2494,-263,3316,31,54,799
353300,17224724,18825176,17230411,18836043,2981,3800,-2981,-1982,-578,2650,36,3309,31,54,799
354301,17224852,18825452,17230542,18836174,2858,3800,-3009,-2040,-625,2575,214,3563,21,59,796
355302,17224968,18825760,17230673,18836305,2941,3800,-3032,-2044,-682,2727,302,3839,21,59,796
356290,17225092,18826092,17230804,18836436,2895,3751,-3064,-1877,-737,2704,226,4416,32,66,799
357293,17225260,18826412,17230935,18836567,2604,3744,-3121,-1551,-774,2303,-265,5123,32,66,799
358294,17225388,18826740,17231066,18836698,2857,3610,-3184,-1148,-800,1836,-898,5379,26,74,799
359295,17225536,18827168,17231197,18836829,2726,2856,-3213,-779,-805,1523,-1215,5242,26,74,799
360296,17225656,18827556,17231328,18836960,2907,2995,-3169,-564,-781,1580,-1162,4858,24,68,800
361297,17225780,18827928,17231459,18837091,2886,2991,-3064,-517,-752,1919,-802,4560,24,68,800
362297,17225896,18828276,17231590,18837222,2944,3048,-2931,-507,-724,2167,-138,4602,22,68,805
363298,17226020,18828704,17231721,18837353,2898,2418,-2792,-407,-683,1982,-134,5005,22,68,805
364299,17226172,18829116,17231852,18837484,2715,2397,-2644,-190,-666,1558,-199,5267,43,90,804
365301,17226320,18829520,17231983,18837615,2733,2329,-2481,75,-659,1262,-264,5482,43,90,804
366302,17226484,18829948,17232114,18837746,2620,2049,-2277,309,-647,1399,81,5393,47,82,807
367303,17226656,18830400,17232245,18837877,2553,1760,-2070,487,-608,1329,113,5443,47,82,807
368303,17226828,18830784,17232376,18838008,2536,2075,-1844,692,-562,787,-60,5703,44,92,810
369305,17226964,18831248,17232507,18838139,2759,1430,-1557,850,-552,610,525,5298,44,92,810
370305,17227104,18831748,17232638,18838270,2731,1045,-1190,833,-549,889,1099,4895,24,87,811
371307,17227248,18832156,17232769,18838401,2702,1499,-833,914,-526,1245,1319,5564,24,87,811
372307,17227376,18832600,17232900,18838532,2804,1137,-571,1330,-447,1263,827,6626,20,97,813
373308,17227528,18833048,17233031,18838663,2647,974,-376,1973,-345,906,346,6957,20,97,813
374310,17227680,18833480,17233162,18838794,2639,943,-172,2552,-393,431,841,6608,47,88,812
375310,17227876,18833884,17233293,18838925,2336,999,69,2957,-501,436,505,6302,47,88,812
376311,17228048,18834368,17233424,18839056,2469,345,313,3317,-523,897,505,6436,30,86,813
377312,17228224,18834796,17233555,18839187,2425,565,539,3705,-426,1140,323,6475,30,86,813
378313,17228384,18835140,17233686,18839318,2513,998,814,3960,-356,1142,809,5604,29,82,815
379314,17228552,18835604,17233817,18839449,2448,102,1178,3978,-413,1305,1343,4833,29,82,815
380315,17228692,18835984,17233948,18839580,2620,519,1547,3883,-518,1574,1204,4850,21,78,815
381316,17228848,18836400,17234079,18839711,2510,169,1843,3914,-587,1693,647,5119,21,78,815
382318,17229004,18836732,17234210,18839842,2500,606,2103,4044,-619,1548,190,5093,30,70,816
383318,17229176,18837104,17234341,18839973,2383,251,2362,4171,-701,1341,52,4853,30,70,816
384319,17229412,18837496,17234472,18840104,1938,12,2608,4233,-861,1337,86,4698,32,58,816
385327,17229676,18837756,17234612,18840244,1710,785,2820,4357,-1033,1566,28,4811,32,58,816
386321,17229912,18838016,17234743,18840375,1839,728,2935,4633,-1147,1636,-550,5407,60,62,819
387322,17230168,18838356,17234874,18840506,1661,137,2940,5098,-1176,1430,-1420,5786,60,62,819
388323,17230412,18838692,17235005,18840637,1686,72,2894,5570,-1181,1286,-1554,5288,41,41,818
389324,17230648,18838868,17235136,18840768,1691,1052,2871,5830,-1164,1434,-1434,4543,41,41,818
390326,17230984,18839044,17235267,18840899,977,1034,2881,5858,-1149,1641,-1118,3983,61,35,821
391327,17231292,18839244,17235398,18841030,1075,853,2838,5885,-1109,1931,-1034,3833,61,35,821
392328,17231548,18839428,17235529,18841161,1346,930,2750,5848,-1021,2172,-853,3290,43,30,821
393329,17231800,18839616,17235660,18841292,1318,881,2675,5647,-914,2214,-645,2664,43,30,821
394330,17232028,18839768,17235791,18841423,1426,1097,2651,5293,-810,1982,-451,2106,60,27,821
395330,17232272,18839896,17235922,18841554,1278,1248,2638,4921,-711,1760,-385,1971,60,27,821
396331,17232520,18840048,17236053,18841685,1202,1090,2584,4586,-616,1446,-321,1902,42,28,819
397332,17232736,18840164,17236184,18841816,1365,1321,2477,4309,-544,1142,-69,1991,42,28,819
398333,17232924,18840312,17236315,18841947,1516,1114,2330,4191,-520,789,147,2188,41,27,819
399335,17233100,18840424,17236446,18842078,1572,1348,2156,4121,-545,323,229,2316,41,27,819
400335,17233292,18840592,17236577,18842209,1445,982,1928,4202,-635,-253,489,2725,46,32,818
401336,17233468,18840768,17236708,18842340,1526,912,1650,4417,-809,-762,947,2836,46,32,818
402337,17233648,18840952,17236839,18842471,1480,839,1340,4705,-1033,-1175,999,2893,48,41,819
403338,17233800,18841160,17236970,18842602,1647,656,997,4992,-1316,-1793,1430,2732,48,41,819
404339,17233964,18841304,17237101,18842733,1558,1050,603,5106,-1734,-2487,2131,2211,24,32,820
405340,17234120,18841468,17237232,18842864,1597,911,214,5052,-2235,-2914,2059,1879,24,32,820
406342,17234280,18841592,17237363,18842995,1560,1165,-146,4922,-2656,-3136,1634,1599,42,32,819
407342,17234436,18841724,17237494,18843126,1574,1115,-480,4705,-2906,-3169,725,1479,42,32,819
408343,17234552,18841848,17237625,18843257,1832,1168,-766,4385,-2924,-2939,-717,1047,43,31,819
409344,17234748,18841972,17237756,18843388,1304,1171,-1015,4037,-2774,-2956,-1862,1272,43,31,819
410346,17234892,18842056,17237887,18843519,1624,1442,-1212,3583,-2595,-2990,-2004,843,33,16,817
411346,17235052,18842160,17238018,18843650,1512,1329,-1337,2883,-2437,-2964,-2036,149,33,16,817
412347,17235188,18842300,17238149,18843781,1660,1100,-1383,1858,-2237,-2668,-2330,-525,38,16,817
413349,17235332,18842408,17238280,18843912,1605,1310,-1391,618,-1970,-2287,-2409,-922,38,16,817
414350,17235428,18842524,17238411,18844043,1920,1268,-1421,-678,-1637,-2027,-2409,-913,13,19,818
415351,17235544,18842632,17238542,18844174,1803,1328,-1489,-1964,-1228,-1787,-2414,-986,13,19,818
416351,17235688,18842760,17238673,18844305,1623,1204,-1616,-3229,-761,-1477,-2506,-704,21,14,816
417352,17235788,18842868,17238804,18844436,1912,1341,-1794,-4366,-266,-1212,-2423,-189,21,14,816
418353,17235920,18842984,17238935,18844567,1712,1297,-2004,-5445,185,-1042,-1937,113,33,28,817
419354,17236088,18843056,17239066,18844698,1471,1598,-2210,-6436,540,-872,-1277,505,33,28,817
420355,17236184,18843172,17239197,18844829,1938,1331,-2420,-7287,812,-667,-819,1061,17,12,816
421356,17236304,18843264,17239328,18844960,1792,1498,-2630,-7959,1048,-352,-828,1615,17,12,816
422357,17236408,18843344,17239459,18845091,1905,1595,-2840,-8484,1263,33,-879,2228,12,16,816
423358,17236488,18843456,17239590,18845222,2079,1405,-3126,-8741,1400,528,-255,3285,12,16,816
424359,17236584,18843536,17239721,18845353,1994,1627,-3624,-8510,1438,1105,73,5224,30,27,815
425360,17236704,18843624,17239852,18845484,1850,1596,-4008,-8401,1445,1538,-156,3943,30,27,815
426361,17236788,18843728,17239983,18845615,2096,1509,-4148,-8554,1425,1947,-92,3740,15,12,814
427362,17236880,18843840,17240114,18845746,2064,1467,-4221,-8753,1413,2468,-186,4141,15,12,814
428363,17236988,18843944,17240245,18845877,1975,1529,-4378,-8657,1409,3178,-71,5213,11,18,814
429364,17237104,18844032,17240376,18846008,1931,1649,-4517,-8378,1417,3910,124,5483,11,18,814
430365,17237204,18844128,17240507,18846139,2046,1614,-4654,-8093,1365,4546,774,5569,11,23,814
431367,17237336,18844256,17240638,18846270,1847,1416,-4810,-7683,1240,5236,1287,6508,11,23,814
432367,17237456,18844356,17240769,18846401,1926,1605,-5048,-6682,1060,5854,1688,8633,16,14,814
433368,17237564,18844476,17240900,18846532,2013,1485,-5251,-5715,752,5861,1988,7431,16,14,814
434369,17237676,18844580,17241031,18846663,1996,1598,-5279,-5211,352,5830,1874,6118,14,15,815
435370,17237808,18844680,17241162,18846794,1871,1637,-5223,-4900,-105,5952,1896,6591,14,15,815
436371,17237912,18844764,17241293,18846925,2059,1757,-5244,-4343,-643,6235,2276,7459,14,16,815
437372,17238028,18844868,17241424,18847056,1991,1645,-5268,-3757,-1100,6332,1350,6955,14,16,815
438373,17238184,18844964,17241555,18847187,1731,1710,-4382,-2555,-1399,6458,-384,13170,32,16,815
439374,17238300,18845096,17241686,18847318,1988,1486,-1251,2892,-1498,7242,-4888,32767,32,16,815
440375,17238456,18845216,17241817,18847449,1728,1566,1675,5941,-1778,5894,-696,11332,27,31,815
441376,17238616,18845320,17241948,18847580,1691,1678,2355,4834,-2182,5447,482,1097,27,31,815
442377,17238760,18845432,17242079,18847711,1786,1637,2023,2726,-2504,5695,148,1708,30,27,815
443378,17238908,18845512,17242210,18847842,1754,1859,1346,1695,-2532,6090,-1171,4823,30,27,815
444379,17239076,18845620,17242341,18847973,1613,1696,968,1628,-2484,4705,-806,3583,24,19,814
445380,17239240,18845692,17242472,18848104,1624,1946,959,847,-2661,3624,-181,1013,24,19,814
446381,17239364,18845772,17242603,18848235,1878,1920,1084,-335,-2982,3176,-310,872,40,16,815
447383,17239540,18845836,17242734,18848366,1534,2049,1126,-1376,-3026,2396,-1482,2040,40,16,815
448383,17239700,18845932,17242865,18848497,1621,1866,958,-1612,-2830,1898,-2000,4316,24,27,815
449385,17239836,18846036,17242996,18848628,1770,1828,637,-1213,-2750,787,-1315,5267,24,27,815
450385,17239996,18846112,17243127,18848759,1607,2028,432,-801,-2807,-306,-930,4908,24,13,815
451386,17240152,18846200,17243258,18848890,1622,1972,405,-597,-2878,-843,-1020,4047,24,13,815
452387,17240344,18846316,17243389,18849021,1372,1804,538,-647,-2836,-1695,-1157,3803,25,19,815
453388,17240520,18846432,17243520,18849152,1452,1811,668,-413,-2698,-2292,-993,4791,25,19,815
454389,17240716,18846508,17243651,18849283,1299,2086,720,143,-2552,-2586,-810,5118,47,27,814
455391,17240956,18846632,17243782,18849414,976,1789,749,787,-2382,-2964,-719,5237,47,27,814
456391,17241236,18846736,17243913,18849545,662,1927,711,1540,-2187,-2968,-233,5700,51,27,816
457393,17241560,18846832,17244044,18849676,302,1992,746,2055,-1994,-3127,2,4384,51,27,816
458393,17241748,18846984,17244175,18849807,1128,1634,873,2320,-1740,-3274,-388,4182,53,25,818
459394,17241968,18847108,17244306,18849938,889,1812,976,2586,-1390,-3152,-566,4394,53,25,818
460395,17242152,18847204,17244437,18850069,1092,2004,1020,2928,-1068,-3049,-54,4391,54,33,819
461396,17242340,18847316,17244568,18850200,1042,1912,1049,3267,-808,-2858,398,4165,54,33,819
462397,17242564,18847424,17244699,18850331,777,1948,1095,3386,-608,-2471,644,3482,37,18,819
463398,17242808,18847528,17244830,18850462,602,1986,1139,3330,-441,-2093,857,3238,37,18,819
464399,17243000,18847708,17244961,18850593,900,1489,1174,3195,-267,-1800,657,3049,48,35,818
465400,17243224,18847836,17245092,18850724,660,1817,1211,3053,-58,-1332,97,3005,48,35,818
466401,17243412,18847952,17245223,18850855,860,1898,1209,2910,162,-1030,-71,2891,39,18,818
467402,17243604,18848084,17245354,18850986,809,1799,1138,2814,363,-758,-177,3036,39,18,818
468403,17243740,18848200,17245485,18851117,1157,1905,998,2697,519,-559,-257,3007,24,19,819
469404,17243924,18848392,17245616,18851248,834,1405,822,2542,649,-457,-516,2982,24,19,819
470405,17244132,18848524,17245747,18851379,650,1779,608,2322,759,-225,-643,2695,20,22,819
471406,17244252,18848664,17245878,18851510,1206,1726,365,2013,812,-11,-142,2542,20,22,819
472407,17244428,18848820,17246009,18851641,836,1615,110,1662,807,126,166,2492,22,25,821
473408,17244572,18848948,17246140,18851772,1031,1793,-140,1265,775,305,88,2204,22,25,821
474409,17244732,18849112,17246271,18851903,919,1554,-390,787,731,619,32,2041,21,26,818
475410,17244872,18849304,17246402,18852034,1040,1352,-643,264,682,907,254,2015,21,26,818
476411,17245000,18849476,17246533,18852165,1116,1460,-879,-307,630,1027,374,1801,26,39,817
477412,17245116,18849648,17246664,18852296,1199,1442,-1102,-868,575,958,441,1785,26,39,817
478413,17245248,18849812,17246795,18852427,1098,1479,-1309,-1394,514,894,500,1823,32,22,820
479414,17245324,18849976,17246926,18852558,1473,1464,-1493,-1913,426,723,722,1847,32,22,820
480415,17245444,18850140,17247057,18852689,1202,1451,-1649,-2330,308,376,769,2053,12,33,819
481416,17245560,18850276,17247188,18852820,1235,1623,-1798,-2697,162,-67,727,2288,12,33,819
482417,17245660,18850432,17247319,18852951,1349,1488,-1915,-3004,-10,-425,701,2434,15,27,818
483418,17245772,18850592,17247450,18853082,1282,1451,-1998,-3166,-171,-680,522,2829,15,27,818
484419,17245896,18850772,17247581,18853213,1211,1305,-2054,-3192,-304,-847,306,3019,16,44,818
485420,17246012,18850928,17247712,18853344,1268,1444,-2096,-3137,-385,-806,38,3305,16,44,818
486421,17246136,18851112,17247843,18853475,1221,1246,-2134,-3010,-407,-825,70,3321,29,35,819
487422,17246260,18851256,17247974,18853606,1225,1491,-2166,-2918,-388,-926,288,3241,29,35,819
488424,17246384,18851416,17248105,18853737,1228,1378,-2202,-2843,-342,-1146,439,3125,30,28,818
489424,17246516,18851556,17248236,18853868,1177,1501,-2233,-2843,-270,-1284,544,2848,30,28,818
490425,17246616,18851732,17248367,18853999,1392,1256,-2255,-2870,-172,-1216,401,2722,18,40,819
491426,17246756,18851936,17248498,18854130,1138,1050,-2257,-2934,-38,-1145,224,2444,18,40,819
492427,17246880,18852092,17248629,18854261,1241,1339,-2237,-3075,130,-965,-404,2175,37,27,819
493429,17246992,18852248,17248760,18854392,1325,1328,-2186,-3298,325,-601,-946,1930,37,27,819
494429,17247140,18852400,17248891,18854523,1093,1344,-2121,-3576,519,-283,-1065,1941,35,31,821
495430,17247268,18852552,17249022,18854654,1219,1335,-2067,-3720,693,26,-1203,2280,35,31,821
496431,17247408,18852684,17249153,18854785,1141,1461,-2021,-3781,813,188,-998,2456,28,27,819
497433,17247592,18852848,17249284,18854916,843,1246,-1986,-3671,871,262,-906,2972,28,27,819
498433,17247748,18852976,17249415,18855047,1007,1473,-2004,-3295,881,212,-874,3870,26,22,818
499434,17247916,18853100,17249546,18855178,917,1502,-2051,-2814,892,79,-1222,3911,26,22,818
500435,17248052,18853228,17249677,18855309,1115,1478,-2076,-2364,910,-245,-1672,3927,33,24,820
501436,17248184,18853328,17249808,18855440,1139,1668,-2083,-1968,910,-479,-1749,3937,33,24,820
502438,17248336,18853452,17249939,18855571,1006,1521,-2105,-1573,882,-525,-1844,3948,34,15,820
503438,17248452,18853544,17250070,18855702,1238,1738,-2154,-1119,872,-639,-2296,4011,34,15,820
504440,17248620,18853632,17250201,18855833,896,1783,-2175,-739,870,-779,-2275,3865,20,28,819
505440,17248736,18853728,17250332,18855964,1228,1748,-2197,-342,853,-880,-2190,4154,20,28,819
506441,17248848,18853796,17250463,18856095,1262,1952,-2224,-24,822,-935,-1662,3989,37,22,818
507442,17248988,18853864,17250594,18856226,1083,1979,-2247,216,762,-790,-931,3911,37,22,818
508443,17249108,18853964,17250725,18856357,1213,1794,-2270,420,732,-661,-864,3861,17,7,817
509444,17249232,18854040,17250856,18856488,1192,1968,-2314,573,755,-598,-865,3785,17,7,817
510454,17249388,18854112,17250996,18856628,985,2024,-2384,683,798,-508,-802,3775,28,7,816
511446,17249480,18854188,17251127,18856759,1402,2023,-2410,659,832,-603,-893,3496,28,7,816
512447,17249572,18854244,17251258,18856890,1420,2181,-2380,615,837,-693,-1070,3535,12,16,816
513448,17249696,18854304,17251389,18857021,1223,2188,-2319,585,838,-816,-1441,3729,12,16,816
514449,17249792,18854392,17251520,18857152,1414,2033,-2276,584,850,-838,-1627,4010,30,21,816
515450,17249896,18854472,17251651,18857283,1377,2106,-2236,678,835,-770,-1656,4292,30,21,816
516451,17250000,18854536,17251782,18857414,1389,2236,-2204,800,791,-746,-1546,4433,23,4,815
517452,17250096,18854592,17251913,18857545,1454,2319,-2188,910,740,-681,-1334,4698,23,4,815
518453,17250180,18854640,17252044,18857676,1551,2407,-1362,2279,756,-322,-1665,16212,17,17,815
519454,17250284,18854716,17252175,18857807,1438,2256,859,6562,913,-339,-1786,32767,17,17,815
520455,17250376,18854788,17252306,18857938,1530,2308,2235,8286,869,-314,400,6047,26,7,812
521457,17250444,18854852,17252437,18858069,1708,2387,2303,7278,642,-130,1056,945,26,7,812
522457,17250536,18854924,17252568,18858200,1575,2364,1840,5092,425,294,852,-98,27,4,812
523458,17250644,18854984,17252699,18858331,1486,2471,1546,3444,292,544,681,540,27,4,812
524459,17250724,18855036,17252830,18858462,1684,2556,1379,2369,319,477,285,1064,26,10,812
525461,17250792,18855136,17252961,18858593,1787,2271,1242,1474,399,759,-279,1212,26,10,812
526461,17250888,18855228,17253092,18858724,1628,2339,1034,646,465,739,-565,1743,23,9,812
527463,17250956,18855324,17253223,18858855,1831,2329,837,-233,540,361,-767,1800,23,9,812
528463,17251016,18855420,17253354,18858986,1912,2346,621,-1044,552,283,-980,2022,14,25,812
529464,17251120,18855472,17253485,18859117,1650,2656,438,-1865,512,-120,-912,2119,14,25,812
530465,17251184,18855556,17253616,18859248,1929,2477,244,-2460,488,-440,-1133,3055,28,17,812
531466,17251256,18855656,17253747,18859379,1906,2392,-21,-2683,480,-519,-1455,4403,28,17,812
532467,17251360,18855732,17253878,18859510,1718,2567,-29,-2153,575,-877,-1592,9439,19,27,810
533468,17251440,18855804,17254009,18859641,1891,2618,699,-71,750,-984,-1106,20346,19,27,810
534469,17251508,18855904,17254140,18859772,1994,2457,1308,1384,764,-573,142,9619,20,23,810
535470,17251596,18855968,17254271,18859903,1889,2713,1241,1672,672,-272,805,5682,20,23,810
536471,17251668,18856028,17254402,18860034,2015,2770,883,1457,620,126,907,4947,24,24,810
537472,17251724,18856136,17254533,18860165,2149,2480,619,1058,602,418,1182,4117,24,24,810
538473,17251820,18856216,17254664,18860296,1914,2678,516,780,610,469,1386,4004,29,24,810
539474,17251884,18856316,17254795,18860427,2145,2568,471,397,641,732,1062,3332,29,24,810
540475,17251948,18856412,17254926,18860558,2174,2609,424,-137,679,1045,471,3099,15,14,810
541477,17252028,18856516,17255057,18860689,2098,2572,395,-692,728,998,322,3024,15,14,810
542477,17252136,18856640,17255188,18860820,1934,2450,410,-1317,732,1048,303,2772,14,24,809
543478,17252244,18856760,17255319,18860951,1944,2481,434,-1884,678,1059,272,2977,14,24,809
544479,17252344,18856872,17255450,18861082,2008,2541,469,-2343,621,919,119,3272,25,29,808
545480,17252436,18857000,17255581,18861213,2076,2443,497,-2663,546,990,219,3574,25,29,808
546481,17252524,18857112,17255712,18861344,2120,2552,509,-2801,472,947,235,4027,23,36,811
547482,17252624,18857228,17255843,18861475,2060,2534,501,-2794,430,768,245,4451,23,36,811
548483,17252716,18857384,17255974,18861606,2127,2274,476,-2715,384,733,436,4482,33,36,811
549485,17252792,18857524,17256105,18861737,2252,2371,436,-2656,335,619,701,4477,33,36,811
550485,17252860,18857672,17256236,18861868,2330,2314,367,-2540,291,630,737,4700,26,35,810
551486,17252968,18857836,17256367,18861999,2091,2201,264,-2397,249,711,843,4584,26,35,810
552487,17253048,18858000,17256498,18862130,2290,2186,151,-2310,205,647,1045,4478,16,26,810
553488,17253108,18858156,17256629,18862261,2446,2226,40,-2167,167,642,849,4526,16,26,810
554489,17253212,18858324,17256760,18862392,2184,2136,-58,-2114,126,757,704,4148,24,43,811
555490,17253288,18858480,17256891,18862523,2384,2201,-149,-2116,78,860,523,4147,24,43,811
556491,17253348,18858656,17257022,18862654,2515,2056,-216,-2080,46,903,198,4093,13,31,810
557492,17253432,18858900,17257153,18862785,2387,1583,-264,-2073,31,1008,-183,3971,13,31,810
558493,17253512,18859100,17257284,18862916,2435,1828,-298,-1990,47,1130,-577,4139,14,35,810
559494,17253596,18859308,17257415,18863047,2432,1746,-314,-1932,61,1135,-276,3924,14,35,810
560495,17253672,18859508,17257546,18863178,2506,1765,-336,-1924,42,1147,-77,3694,11,46,813
561496,17253756,18859768,17257677,18863309,2478,1335,-375,-1908,-19,1030,239,3728,11,46,813
562497,17253856,18859916,17257808,18863440,2392,2028,-426,-1860,-91,905,246,3817,21,44,812
563498,17253920,18860060,17257939,18863571,2647,2047,-482,-1759,-157,901,-171,3843,21,44,812
564499,17253984,18860144,17258070,18863702,2677,2444,-524,-1607,-193,841,-634,3909,15,27,812
565500,17254044,18860256,17258201,18863833,2734,2278,-544,-1435,-213,741,-643,3977,15,27,812
566501,17254100,18860388,17258332,18863964,2793,2153,-556,-1190,-248,695,-660,4004,14,19,808
567502,17254184,18860528,17258463,18864095,2640,2100,-556,-964,-303,457,196,3915,14,19,808
568503,17254248,18860700,17258594,18864226,2794,1883,-582,-701,-377,368,708,4124,13,25,807
569504,17254312,18860880,17258725,18864357,2825,1812,-645,-470,-450,375,591,4006,13,25,807
570505,17254388,18861076,17258856,18864488,2775,1684,-692,-201,-480,313,71,4001,14,44,809
571506,17254504,18861276,17258987,18864619,2533,1630,-688,97,-462,301,-975,3877,14,44,809
572507,17254596,18861460,17259118,18864750,2701,1706,-636,287,-440,268,-1341,3672,25,34,809
573508,17254688,18861628,17259249,18864881,2719,1791,-574,551,-422,281,-1454,3876,25,34,809
574509,17254776,18861900,17259380,18865012,2764,1080,-516,855,-393,274,-1549,3711,11,50,812
575510,17254880,18862120,17259511,18865143,2676,1366,-462,1103,-369,274,-1657,3773,11,50,812
576511,17254964,18862328,17259642,18865274,2822,1408,-405,1378,-358,281,-1686,3721,14,38,809
577512,17255064,18862520,17259773,18865405,2737,1481,-341,1597,-348,339,-1568,3385,14,38,809
578513,17255176,18862676,17259904,18865536,2671,1696,-284,1800,-337,404,-1392,3417,19,36,811
579514,17255268,18862868,17260035,18865667,2814,1446,-244,1954,-322,485,-1083,3250,19,36,811
580515,17255360,18863076,17260166,18865798,2833,1312,-230,2078,-333,647,-493,3223,17,34,811
581516,17255464,18863304,17260297,18865929,2770,1145,-238,2260,-374,791,148,3309,17,34,811
582517,17255572,18863512,17260428,18866060,2756,1236,-256,2430,-446,877,653,3251,29,52,811
583518,17255656,18863716,17260559,18866191,2928,1230,-300,2659,-533,1065,684,3444,29,52,811
584519,17255760,18863908,17260690,18866322,2816,1278,-362,2863,-599,1204,582,3492,35,37,812
585520,17255856,18864156,17260821,18866453,2882,877,-431,3069,-637,1298,401,3460,35,37,812
586521,17255976,18864392,17260952,18866584,2737,907,-509,3233,-682,1297,393,3304,28,38,811
587522,17256080,18864596,17261083,18866715,2850,1075,-602,3334,-743,1195,252,3200,28,38,811
588523,17256176,18864836,17261214,18866846,2916,803,-703,3400,-817,1191,-106,3193,34,36,811
589524,17256276,18865040,17261345,18866977,2906,996,-796,3414,-877,1191,-534,3071,34,36,811
590525,17256384,18865232,17261476,18867108,2867,1044,-867,3463,-913,1027,-802,3185,15,53,813
591526,17256472,18865456,17261607,18867239,3012,804,-922,3521,-940,870,-890,3171,15,53,813
592527,17256584,18865688,17261738,18867370,2871,710,-961,3532,-969,759,-427,3101,16,38,812
593528,17256684,18865916,17261869,18867501,2961,693,-983,3543,-967,661,-676,3129,16,38,812
594529,17256756,18866164,17262000,18867632,3163,517,-975,3516,-912,537,-1383,2958,32,33,812
595530,17256848,18866372,17262131,18867763,3056,733,-960,3414,-865,250,-769,2846,32,33,812
596531,17256908,18866524,17262262,18867894,3288,1074,-974,3309,-867,-48,68,2946,28,46,812
597532,17256972,18866660,17262393,18868025,3294,1172,-1006,3243,-895,-296,164,3076,28,46,812
598533,17257040,18866828,17262524,18868156,3297,956,-1046,3209,-922,-590,85,3152,3,39,811
599534,17257096,18867004,17262655,18868287,3406,886,-1097,3169,-943,-1017,21,3222,3,39,811
600535,17257156,18867168,17262786,18868418,3414,947,-1154,3185,-959,-1344,-259,3384,6,28,809
601536,17257224,18867340,17262917,18868549,3392,880,-1214,3212,-994,-1682,-181,3434,6,28,809
602537,17257312,18867520,17263048,18868680,3288,808,-1280,3162,-1053,-2073,126,3332,27,26,809
603538,17257384,18867640,17263179,18868811,3415,1188,-1372,3075,-1118,-2295,193,3315,27,26,809
604539,17257452,18867772,17263310,18868942,3469,1113,-1463,2883,-1180,-2390,199,3030,25,32,809
605540,17257544,18867892,17263441,18869073,3337,1192,-1556,2574,-1282,-2547,940,2700,25,32,809
606541,17257628,18868048,17263572,18869204,3409,958,-1688,2118,-1443,-2611,1576,2252,9,24,808
607542,17257684,18868172,17263703,18869335,3618,1161,-1851,1475,-1575,-2561,1420,2037,9,24,808
608543,17257740,18868312,17263834,18869466,3652,1057,-2011,845,-1587,-2465,868,2242,11,27,807
609544,17257792,18868444,17263965,18869597,3712,1106,-2148,255,-1480,-2370,200,2321,11,27,807
610545,17257864,18868600,17264096,18869728,3615,946,-2260,-321,-1286,-2293,-287,2428,19,31,805
611546,17257936,18868748,17264227,18869859,3642,989,-2342,-925,-1058,-2207,-496,2432,19,31,805
612547,17258000,18868912,17264358,18869990,3723,874,-2385,-1563,-857,-2089,-187,2487,17,24,806
613548,17258084,18869016,17264489,18870121,3619,1261,-2417,-2158,-705,-1958,255,2729,17,24,806
614549,17258188,18869172,17264620,18870252,3507,925,-2344,-2680,-557,-1666,367,3996,30,24,807
615550,17258292,18869292,17264751,18870383,3521,1156,-1114,-1931,-389,584,81,20139,30,24,807
616551,17258388,18869396,17264882,18870514,3587,1268,1559,781,-309,3105,-573,32767,21,37,807
617552,17258480,18869552,17265013,18870645,3630,932,3274,2252,-109,463,-1036,12044,21,37,807
618553,17258592,18869640,17265144,18870776,3515,1376,3236,1820,179,-656,-532,3275,33,21,808
619554,17258696,18869764,17265275,18870907,3579,1154,2512,619,402,-522,-209,2441,33,21,808
620555,17258776,18869880,17265406,18871038,3752,1211,1909,-337,523,-295,185,2642,10,31,806
621569,17258852,18870000,17265537,18871169,3800,1191,1503,-876,563,-166,804,3012,10,31,806
622570,17258932,18870104,17265668,18871300,3800,1303,1120,-1200,530,-1,1338,3346,25,27,807
623571,17259000,18870232,17265799,18871431,3800,1154,668,-1428,487,178,1433,3570,25,27,807
624572,17259080,18870316,17265930,18871562,3800,1451,228,-1751,467,245,1071,3309,23,13,805
625573,17259152,18870384,17266061,18871693,3800,1579,-141,-2096,451,345,347,3363,23,13,805
626574,17259216,18870424,17266192,18871824,3800,1794,-439,-2451,429,267,-340,3462,23,8,805
627575,17259272,18870504,17266323,18871955,3800,1566,-671,-2772,355,207,-301,3500,23,8,805
628576,17259300,18870544,17266454,18872086,3800,1857,-851,-3052,204,268,-44,3582,18,6,803
629577,17259348,18870564,17266585,18872217,3800,2031,-983,-3264,58,363,-31,3749,18,6,803
630578,17259376,18870572,17266716,18872348,3800,2160,-1082,-3372,-51,516,-23,3974,20,8,802
631579,17259424,18870596,17266847,18872479,3800,2108,-1186,-3449,-150,543,165,3989,20,8,802
632580,17259464,18870656,17266978,18872610,3800,1914,-1291,-3527,-259,376,406,4062,5,15,801
633581,17259504,18870732,17267109,18872741,3800,1838,-1364,-3593,-390,299,421,4008,5,15,801
634582,17259544,18870776,17267240,18872872,3800,2078,-1414,-3617,-497,245,90,4166,20,13,801
635590,17259592,18870772,17267380,18873012,3800,2441,-1419,-3534,-548,94,-194,4442,20,13,801
636584,17259640,18870824,17267511,18873143,3800,2126,-1380,-3347,-560,-33,-238,4504,6,21,802
637585,17259664,18870880,17267642,18873274,3800,2135,-1304,-3196,-584,-143,-44,4513,6,21,802
638586,17259740,18870952,17267773,18873405,3800,2060,-1187,-3063,-623,-235,166,4527,22,7,799
639587,17259804,18871036,17267904,18873536,3800,2007,-1061,-2914,-658,-318,424,4497,22,7,799
640588,17259872,18871060,17268035,18873667,3800,2429,-959,-2720,-659,-461,546,4559,21,7,801
641589,17259948,18871072,17268166,18873798,3800,2557,-867,-2551,-601,-564,332,4535,21,7,801
642590,17260028,18871140,17268297,18873929,3800,2235,-741,-2329,-492,-561,-26,4376,27,12,800
643591,17260124,18871196,17268428,18874060,3800,2344,-584,-2123,-347,-539,-306,4406,27,12,800
644592,17260208,18871280,17268559,18874191,3800,2190,-424,-1938,-170,-494,-389,4451,24,6,799
645593,17260320,18871352,17268690,18874322,3800,2292,-272,-1750,-1,-443,-411,4276,24,6,799
646594,17260436,18871372,17268821,18874453,3800,2666,-123,-1537,131,-422,-339,4262,31,23,800
647595,17260520,18871388,17268952,18874584,3800,2742,27,-1389,236,-328,-146,4178,31,23,800
648596,17260660,18871472,17269083,18874715,3800,2339,167,-1215,313,-183,324,4056,21,22,801
649597,17260784,18871568,17269214,18874846,3800,2279,282,-1064,379,-81,589,3997,21,22,801
650598,17260868,18871676,17269345,18874977,3800,2215,360,-933,437,-6,857,3920,17,24,799
651599,17260964,18871772,17269476,18875108,3800,2307,410,-819,500,201,296,3790,17,24,799
652600,17261052,18871788,17269607,18875239,3800,2857,467,-687,596,404,-645,3831,8,20,800
653601,17261100,18871808,17269738,18875370,3800,2882,540,-608,676,558,-809,3743,8,20,800
654602,17261188,18871884,17269869,18875501,3800,2557,602,-493,707,733,-806,3723,8,24,799
655603,17261284,18871956,17270000,18875632,3800,2608,634,-358,688,877,-653,3745,8,24,799
656604,17261340,18872080,17270131,18875763,3800,2287,637,-242,617,1093,-279,3739,21,24,797
657605,17261400,18872132,17270262,18875894,3800,2773,621,-100,482,1260,558,3706,21,24,797
658606,17261500,18872144,17270393,18876025,3800,3075,590,30,351,1497,465,3675,14,19,799
659607,17261564,18872184,17270524,18876156,3800,2941,560,64,252,1734,-253,3467,14,19,799
660608,17261652,18872272,17270655,18876287,3800,2661,537,57,164,1820,-337,3262,13,28,798
661609,17261756,18872352,17270786,18876418,3800,2734,520,59,72,1868,-331,3136,13,28,798
662610,17261836,18872508,17270917,18876549,3800,2248,503,-7,-40,1852,-367,3044,20,19,797
663611,17261908,18872548,17271048,18876680,3800,3014,464,-8,-163,1758,-422,3195,20,19,797
664612,17262000,18872516,17271179,18876811,3800,3537,411,20,-298,1630,-282,3261,13,24,796
665613,17262080,18872596,17271310,18876942,3800,2860,342,40,-452,1543,67,3306,13,24,796
666614,17262144,18872676,17271441,18877073,3800,2884,242,100,-575,1432,271,3420,26,31,797
667615,17262252,18872808,17271572,18877204,3800,2558,124,230,-660,1215,208,3338,26,31,797
668616,17262352,18872872,17271703,18877335,3800,3014,12,300,-713,961,-69,3181,11,27,797
669617,17262432,18872908,17271834,18877466,3800,3232,-91,337,-745,735,-414,3177,11,27,797
670618,17262528,18872916,17271965,18877597,3800,3462,-200,407,-759,508,-590,3273,19,17,799
671619,17262664,18872984,17272096,18877728,3800,3115,-330,480,-787,237,-506,3249,19,17,799
672620,17262748,18873092,17272227,18877859,3800,2876,-461,497,-828,-83,-608,3179,16,16,796
673621,17262836,18873228,17272358,18877990,3800,2700,-575,541,-855,-272,-959,3110,16,16,796
674622,17262968,18873308,17272489,18878121,3800,3074,-667,552,-852,-428,-691,2960,19,15,796
675623,17263084,18873352,17272620,18878252,3800,3338,-758,486,-814,-587,-557,2733,19,15,796
676624,17263148,18873352,17272751,18878383,3800,3670,-842,371,-736,-693,-724,2609,35,14,798
677625,17263268,18873428,17272882,18878514,3800,3221,-911,140,-632,-781,-762,2380,35,14,798
678626,17263384,18873552,17273013,18878645,3800,2925,-976,-124,-526,-848,-613,2405,24,27,794
679627,17263468,18873704,17273144,18878776,3800,2741,-1050,-342,-438,-996,-400,2461,24,27,794
680628,17263564,18873812,17273275,18878907,3800,3028,-1132,-525,-368,-1127,-470,2535,32,23,796
681629,17263708,18873848,17273406,18879038,3800,3520,-1222,-675,-302,-1146,-626,2706,32,23,796
682630,17263816,18873856,17273537,18879169,3800,3750,-1308,-791,-235,-1117,-560,2783,26,12,798
683631,17263980,18873908,17273668,18879300,3800,3511,-1391,-913,-201,-1130,-278,2875,26,12,798
684631,17264212,18874016,17273799,18879431,3800,3172,-1476,-1033,-161,-989,-407,3018,34,25,794
685633,17264396,18874168,17273930,18879562,3800,2889,-1544,-1208,-64,-634,-914,3052,34,25,794
686634,17264588,18874224,17274061,18879693,3800,3523,-1590,-1347,47,-234,-1646,3251,59,19,794
687635,17264860,18874248,17274192,18879824,3800,3771,-1623,-1368,127,-289,-2204,3544,59,19,794
688649,17265088,18874224,17274323,18879955,3800,3800,-1651,-1326,180,-326,-2475,3701,51,21,798
689637,17265268,18874288,17274454,18880086,3800,3621,-1684,-1293,201,-93,-2254,4003,51,21,798
690625,17265536,18874408,17274585,18880217,3754,3277,-1712,-1245,192,154,-1443,4156,55,24,793
691626,17265816,18874504,17274716,18880348,3616,3444,-1723,-1124,142,268,-496,4357,55,24,793
692640,17266040,18874596,17274847,18880479,3800,3487,-1707,-1034,67,401,-511,4264,55,14,792
693654,17266264,18874624,17274978,18880610,3800,3800,-1642,-1014,3,819,-709,4255,55,14,792
694642,17266572,18874628,17275109,18880741,3286,3800,-1548,-967,-63,1302,-384,4371,65,26,796
695630,17266800,18874712,17275240,18880872,3744,3662,-1453,-996,-172,1517,-229,4259,65,26,796
696644,17267000,18874848,17275371,18881003,3800,3336,-931,-583,-327,2246,-300,9645,69,16,793
697632,17267332,18874972,17275502,18881134,2980,3415,631,1755,-576,4176,48,26630,69,16,793
698633,17267584,18875064,17275633,18881265,3428,3634,1870,3156,-779,2569,425,9284,67,18,791
699634,17267800,18875164,17275764,18881396,3617,3598,2026,2750,-874,1887,757,2534,67,18,791
700648,17268100,18875216,17275895,18881527,3019,3800,1709,1526,-893,1828,409,1963,40,36,800
701637,17268308,18875324,17276026,18881658,3562,3595,1389,471,-905,1830,185,2207,40,36,800
702637,17268516,18875512,17276157,18881789,3529,3072,1200,-174,-994,1439,555,2343,44,41,796
703638,17268732,18875664,17276288,18881920,3444,3289,1005,-758,-1183,1079,514,2338,44,41,796
704639,17268988,18875812,17276419,18882051,3140,3307,752,-1229,-1401,841,150,2882,43,35,797
705641,17269180,18875920,17276550,18882182,3515,3568,452,-1625,-1540,572,-262,3217,43,35,797
706641,17269344,18876000,17276681,18882313,3677,3767,131,-1860,-1601,501,-474,3548,55,28,799
707642,17269616,18876132,17276812,18882444,2941,3443,-175,-2078,-1642,169,-262,3530,55,28,799
708643,17269780,18876284,17276943,18882575,3603,3310,-434,-2316,-1670,-206,-225,3658,33,31,795
709644,17269936,18876492,17277074,18882706,3643,2927,-647,-2518,-1672,-277,-433,3749,33,31,795
710645,17270144,18876652,17277205,18882837,3285,3216,-784,-2744,-1598,-338,-623,3693,32,44,798
711646,17270328,18876816,17277336,18882968,3414,3177,-854,-2934,-1476,-447,-850,3840,32,44,798
712647,17270500,18876928,17277467,18883099,3472,3512,-863,-3173,-1340,-567,-937,3590,45,41,799
713648,17270700,18877084,17277598,18883230,3268,3227,-855,-3429,-1214,-662,-632,3688,45,41,799
714649,17270912,18877284,17277729,18883361,3159,2923,-850,-3588,-1095,-661,-187,4023,52,39,799
715650,17271068,18877472,17277860,18883492,3499,2974,-845,-3733,-983,-560,303,3992,52,39,799
716651,17271248,18877712,17277991,18883623,3329,2602,-835,-3847,-888,-492,761,4235,48,51,800
717653,17271492,18877888,17278122,18883754,2881,2983,-804,-3912,-801,-390,1103,4286,48,51,800
718653,17271692,18878056,17278253,18883885,3127,3018,-756,-3994,-743,-246,1151,4365,42,38,799
719654,17271840,18878216,17278384,18884016,3445,3057,-676,-4055,-703,-158,970,4658,42,38,799
720655,17272076,18878420,17278515,18884147,2850,2751,-465,-3965,-669,96,471,6228,49,49,803
721656,17272304,18878604,17278646,18884278,2860,2854,-174,-3622,-654,368,207,7293,49,49,803
722657,17272488,18878796,17278777,18884409,3112,2778,-11,-3504,-627,26,275,4783,36,50,800
723658,17272708,18879024,17278908,18884540,2849,2512,-7,-3591,-584,59,649,4484,36,50,800
724659,17272936,18879232,17279039,18884671,2757,2604,-54,-3671,-535,241,1030,4419,35,58,805
725661,17273148,18879432,17279170,18884802,2823,2624,-89,-3716,-465,432,771,4367,35,58,805
726661,17273360,18879684,17279301,18884933,2789,2247,-93,-3772,-391,608,382,4176,51,44,806
727662,17273576,18879912,17279432,18885064,2728,2356,-69,-3922,-347,583,330,3847,51,44,806
728663,17273792,18880164,17279563,18885195,2692,2153,-61,-4067,-308,664,354,4040,53,58,806
729664,17273976,18880424,17279694,18885326,2869,2048,-93,-4119,-210,848,199,4318,53,58,806
730665,17274200,18880668,17279825,18885457,2579,2099,-148,-4111,-81,984,352,4364,34,56,806
731666,17274444,18880856,17279956,18885588,2406,2425,-200,-4089,45,1073,388,4422,34,56,806
732667,17274644,18881096,17280087,18885719,2651,2053,-240,-4075,151,1136,221,4310,41,48,809
733668,17274852,18881304,17280218,18885850,2569,2220,-263,-4099,219,1263,-55,4334,41,48,809
734669,17275040,18881552,17280349,18885981,2670,1919,-293,-4053,271,1270,-407,4663,32,43,809
735670,17275232,18881812,17280480,18886112,2619,1788,-343,-3835,328,1209,-627,5155,32,43,809
736671,17275384,18882040,17280611,18886243,2861,1947,-388,-3461,388,1172,-564,5368,28,39,809
737672,17275584,18882212,17280742,18886374,2531,2280,-396,-3175,389,1088,41,5018,28,39,809
738673,17275756,18882412,17280873,18886505,2689,2075,-396,-2985,311,1088,691,4930,22,36,810
739674,17275928,18882620,17281004,18886636,2672,1991,-383,-2833,212,1023,1069,4780,22,36,810
740675,17276108,18882816,17281135,18886767,2602,2039,-355,-2717,153,1094,1034,4646,26,36,808
741676,17276300,18883032,17281266,18886898,2501,1877,-299,-2653,133,1095,1026,4482,26,36,808
742677,17276484,18883232,17281397,18887029,2529,1948,-221,-2628,117,895,1195,4305,27,45,808
743678,17276652,18883396,17281528,18887160,2613,2159,-131,-2589,78,668,1301,4212,27,45,808
744679,17276844,18883580,17281659,18887291,2437,2011,-47,-2550,56,527,1222,4379,26,31,810
745680,17277044,18883768,17281790,18887422,2358,1962,50,-2425,60,333,1410,4533,26,31,810
746681,17277208,18883956,17281921,18887553,2570,1938,132,-2174,50,24,1416,4753,48,44,809
747682,17277416,18884168,17282052,18887684,2262,1753,197,-1889,10,-400,1177,4845,48,44,809
748683,17277624,18884328,17282183,18887815,2228,2066,263,-1583,-1,-690,337,4911,36,33,811
749684,17277776,18884476,17282314,18887946,2570,2134,360,-1257,64,-876,-211,4804,36,33,811
750686,17277952,18884660,17282445,18888077,2401,1886,463,-995,174,-1105,-19,4529,35,31,811
751686,17278168,18884808,17282576,18888208,2115,2105,544,-821,273,-1393,420,4274,35,31,811
752687,17278348,18884992,17282707,18888339,2319,1857,606,-755,351,-1585,348,4024,41,40,808
753688,17278528,18885148,17282838,18888470,2299,2021,654,-651,404,-1737,458,3987,41,40,808
754689,17278740,18885280,17282969,18888601,2064,2172,712,-519,444,-1994,476,3914,29,40,811
755690,17278920,18885412,17283100,18888732,2242,2171,762,-398,473,-2183,502,3880,29,40,811
756691,17279140,18885536,17283231,18888863,1954,2226,802,-318,493,-2234,339,3743,34,29,811
757692,17279324,18885680,17283362,18888994,2157,2096,819,-280,512,-2283,-385,3572,34,29,811
758694,17279528,18885824,17283493,18889125,2001,2090,817,-326,523,-2379,-966,3368,48,24,811
759694,17279736,18885952,17283624,18889256,1942,2192,811,-374,533,-2465,-1051,3264,48,24,811
760702,17279924,18886036,17283764,18889396,2047,2493,803,-397,564,-2530,-1038,3255,37,32,811
761696,17280120,18886148,17283895,18889527,1969,2326,784,-404,617,-2575,-943,3222,37,32,811
762697,17280312,18886260,17284026,18889658,1969,2336,759,-454,672,-2561,-748,3016,49,14,810
763698,17280528,18886348,17284157,18889789,1781,2506,743,-603,714,-2400,-628,2799,49,14,810
764699,17280756,18886468,17284288,18889920,1665,2310,737,-793,754,-2292,-765,2665,32,30,810
765700,17280948,18886564,17284419,18890051,1864,2477,737,-992,804,-2271,-1094,2690,32,30,810
766702,17281128,18886656,17284550,18890182,1917,2519,746,-1209,885,-2211,-1312,2581,30,15,810
767702,17281332,18886752,17284681,18890313,1736,2510,753,-1391,999,-2173,-1670,2715,30,15,810
768703,17281532,18886868,17284812,18890444,1732,2393,745,-1536,1149,-2064,-1836,2862,29,32,811
769704,17281700,18886976,17284943,18890575,1916,2454,737,-1709,1313,-1805,-1634,2733,29,32,811
770705,17281924,18887084,17285074,18890706,1526,2464,725,-1859,1481,-1654,-1599,2912,28,24,810
771706,17282116,18887220,17285205,18890837,1699,2288,688,-1909,1646,-1551,-1607,3221,28,24,810
772707,17282276,18887336,17285336,18890968,1887,2421,637,-1927,1803,-1399,-1436,3274,36,30,811
773708,17282476,18887420,17285467,18891099,1608,2641,572,-1936,1966,-1213,-1341,3362,36,30,811
774709,17282648,18887560,17285598,18891230,1765,2288,490,-1904,2119,-1127,-1275,3494,40,32,811
775710,17282792,18887676,17285729,18891361,1935,2446,409,-1922,2241,-1088,-1264,3363,40,32,811
776711,17282984,18887784,17285860,18891492,1608,2506,335,-1987,2329,-970,-1166,3240,42,27,811
777712,17283156,18887896,17285991,18891623,1716,2490,252,-2096,2396,-750,-998,3227,42,27,811
778713,17283288,18887992,17286122,18891754,1966,2607,146,-2173,2466,-484,-970,3384,47,23,811
779714,17283424,18888084,17286253,18891885,1940,2649,21,-2191,2548,-257,-1143,3583,47,23,811
780715,17283596,18888204,17286384,18892016,1697,2480,-109,-2173,2643,-61,-1175,3619,30,27,811
781716,17283744,18888308,17286515,18892147,1840,2593,-238,-2173,2728,49,-1255,3650,30,27,811
782717,17283880,18888432,17286646,18892278,1914,2472,-363,-2217,2788,234,-1414,3590,35,18,809
783719,17284008,18888528,17286777,18892409,1965,2662,-473,-2312,2827,530,-1490,3432,35,18,809
784719,17284128,18888640,17286908,18892540,2021,2571,-578,-2482,2859,846,-1628,3332,20,29,809
785720,17284224,18888768,17287039,18892671,2187,2474,-687,-2690,2886,1108,-1776,3350,20,29,809
786721,17284384,18888880,17287170,18892802,1775,2583,-807,-2874,2888,1329,-1713,3383,39,30,808
787722,17284508,18888992,17287301,18892933,2003,2591,-929,-3054,2866,1486,-1560,3357,39,30,808
788723,17284620,18889112,17287432,18893064,2087,2547,-1056,-3228,2832,1623,-1665,3554,31,25,809
789724,17284768,18889244,17287563,18893195,1855,2473,-1181,-3398,2792,1748,-1680,3604,31,25,809
790725,17284872,18889364,17287694,18893326,2143,2554,-1295,-3561,2740,1748,-1725,3698,23,36,809
791726,17284968,18889488,17287825,18893457,2208,2532,-1394,-3692,2659,1716,-1734,3836,23,36,809
792727,17285092,18889616,17287956,18893588,2037,2509,-1473,-3824,2550,1724,-1669,3884,36,34,811
793728,17285184,18889736,17288087,18893719,2254,2565,-1536,-3955,2428,1888,-1604,3972,36,34,811
794729,17285272,18889888,17288218,18893850,2299,2357,-1600,-4063,2331,2142,-1680,4119,17,32,809
795730,17285380,18890052,17288349,18893981,2185,2267,-1661,-4105,2228,2186,-1814,4353,17,32,809
796731,17285484,18890236,17288480,18894112,2222,2120,-1700,-4106,2092,2219,-1697,4531,15,24,808
797732,17285564,18890400,17288611,18894243,2396,2231,-1720,-4028,1958,2055,-2010,4794,15,24,808
798733,17285656,18890552,17288742,18894374,2338,2298,-1738,-3899,1851,1900,-2255,5029,31,26,810
799734,17285764,18890716,17288873,18894505,2249,2209,-1739,-3672,1770,1817,-2363,5215,31,26,810
800735,17285824,18890852,17289004,18894636,2580,2382,-1706,-3442,1698,1639,-2328,5388,32,29,809
801736,17285884,18891032,17289135,18894767,2612,2087,-1625,-3221,1634,1488,-2438,5499,32,29,809
802737,17285972,18891224,17289266,18894898,2457,1986,-1503,-3018,1591,1558,-2233,5485,16,39,810
803738,17286072,18891412,17289397,18895029,2396,1986,-1361,-2797,1568,1883,-1866,5414,16,39,810
804739,17286116,18891612,17289528,18895160,2785,1882,-1188,-2582,1548,2162,-1568,5303,31,30,809
805740,17286196,18891820,17289659,18895291,2583,1799,-999,-2395,1530,2172,-1578,5345,31,30,809
806741,17286248,18892024,17289790,18895422,2793,1792,-798,-2214,1507,2113,-1546,5321,10,48,809
807742,17286288,18892236,17289921,18895553,2909,1707,-588,-2015,1452,1941,-1608,5425,10,48,809
808743,17286328,18892472,17290052,18895684,2950,1512,-362,-1813,1326,1674,-1775,5316,3,50,809
809744,17286384,18892708,17290183,18895815,2883,1466,-109,-1641,1147,1637,-1766,5135,3,50,809
810745,17286428,18892928,17290314,18895946,2997,1528,136,-1438,975,1582,-2015,5402,8,40,809
811746,17286468,18893148,17290445,18896077,3063,1489,352,-1131,866,1484,-2477,5649,8,40,809
812747,17286520,18893388,17290576,18896208,3024,1317,561,-769,809,1428,-2430,5526,0,40,810
813748,17286588,18893592,17290707,18896339,2952,1510,793,-519,749,1416,-2014,5293,0,40,810
814749,17286668,18893788,17290838,18896470,2900,1532,1036,-287,687,1449,-1734,5202,21,53,808
815751,17286784,18894024,17290969,18896601,2683,1236,1284,-83,642,1369,-1418,5131,21,53,808
816751,17286884,18894256,17291100,18896732,2797,1218,1521,157,622,1238,-1208,5177,31,52,809
817752,17286968,18894484,17291231,18896863,2918,1200,1714,462,632,1048,-1326,5526,31,52,809
818753,17287076,18894696,17291362,18896994,2779,1265,1877,834,682,831,-1472,5584,16,36,810
819754,17287152,18894892,17291493,18897125,3004,1337,2044,1142,738,791,-1127,5295,16,36,810
820755,17287220,18895084,17291624,18897256,3083,1336,2227,1350,760,964,-557,5009,27,51,811
821756,17287272,18895316,17291755,18897387,3219,1042,2415,1421,730,1283,77,4543,27,51,811
822757,17287352,18895536,17291886,18897518,3067,1077,2597,1377,641,1676,673,4097,29,41,809
823758,17287404,18895784,17292017,18897649,3277,852,2762,1281,528,1856,930,3815,29,41,809
824759,17287440,18895980,17292148,18897780,3419,1149,2883,1171,434,1922,847,3692,24,40,809
825760,17287472,18896172,17292279,18897911,3489,1148,2953,1104,369,2048,766,3697,24,40,809
826761,17287520,18896360,17292410,18898042,3426,1148,2981,1076,321,2243,874,3724,22,39,809
827762,17287568,18896588,17292541,18898173,3464,855,2967,1091,272,2393,769,3773,22,39,809
828763,17287612,18896824,17292672,18898304,3528,760,2913,1135,214,2318,571,3741,10,53,806
829764,17287648,18897108,17292803,18898435,3621,393,2823,1220,170,2191,191,3847,10,53,806
830765,17287692,18897324,17292934,18898566,3610,780,2699,1344,134,2121,-146,3802,13,42,807
831766,17287768,18897548,17293065,18898697,3435,689,2553,1448,103,2132,-293,3604,13,42,807
832767,17287864,18897712,17293196,18898828,3327,1050,2416,1498,80,2125,-411,3244,15,43,808
833768,17288032,18897952,17293327,18898959,2861,528,2306,1438,50,1956,-241,2771,15,43,808
834769,17288220,18898212,17293458,18899090,2712,346,2198,1318,-18,1463,-174,2721,39,41,809
835770,17288456,18898448,17293589,18899221,2367,450,2059,1342,-98,682,-460,3161,39,41,809
836771,17288696,18898716,17293720,18899352,2295,190,1931,1430,-165,231,-53,2874,54,53,814
837772,17288904,18898996,17293851,18899483,2462,50,1857,1389,-264,561,1018,2064,54,53,814
838774,17289100,18899308,17293982,18899614,2510,-230,1815,1163,-399,1075,1757,1712,56,40,816
839774,17289300,18899540,17294113,18899745,2456,226,1792,801,-553,1239,2138,1325,56,40,816
840775,17289512,18899728,17294244,18899876,2346,477,1783,441,-669,1171,2065,1244,54,37,816
841776,17289720,18899904,17294375,18900007,2338,532,1781,154,-694,1044,1803,1282,54,37,816
842777,17289872,18900092,17294506,18900138,2680,432,1798,-101,-614,990,1191,1231,48,47,817
843778,17290040,18900308,17294637,18900269,2564,219,1799,-173,-504,674,1121,1640,48,47,817
844779,17290148,18900524,17294768,18900400,2950,182,1767,-268,-417,458,1497,1582,38,41,816
845780,17290280,18900748,17294899,18900531,2800,91,1707,-316,-358,636,1699,1705,38,41,816
846781,17290424,18900920,17295030,18900662,2721,397,1645,-198,-280,919,1671,1910,15,46,815
847782,17290548,18901112,17295161,18900793,2850,245,1594,-70,-165,1227,1425,1892,15,46,815
848783,17290720,18901300,17295292,18900924,2533,245,1537,116,37,1354,824,1993,29,36,814
849784,17290912,18901492,17295423,18901055,2382,193,1450,335,292,1102,971,2186,29,36,814
850785,17291076,18901728,17295554,18901186,2543,-128,1304,682,476,903,1096,2568,29,32,814
851786,17291176,18901976,17295685,18901317,2957,-254,1140,1177,620,850,940,2738,29,32,814
852787,17291268,18902224,17295816,18901448,3025,-306,993,1595,768,804,1092,2486,26,34,815
853788,17291336,18902432,17295947,18901579,3204,-89,826,1983,891,932,1079,2639,26,34,815
854789,17291396,18902572,17296078,18901710,3286,332,635,2458,948,912,1179,2755,12,45,813
855790,17291456,18902724,17296209,18901841,3318,247,436,2828,920,967,1429,2339,12,45,813
856791,17291564,18902888,17296340,18901972,3029,157,248,3095,847,1100,1277,1918,15,25,811
857792,17291704,18903012,17296471,18902103,2826,410,49,3270,779,942,1242,1914,15,25,811
858793,17291864,18903140,17296602,18902234,2690,386,-180,3458,706,834,1326,1919,36,39,811
859794,17292040,18903272,17296733,18902365,2570,361,-424,3513,553,772,1774,1429,36,39,811
860795,17292216,18903388,17296864,18902496,2551,468,-643,3439,335,720,1975,1074,45,30,813
861796,17292404,18903480,17296995,18902627,2452,634,-876,3270,89,877,1904,1022,45,30,813
862797,17292584,18903612,17297126,18902758,2481,383,-1149,3111,-119,871,1376,1317,25,16,815
863798,17292740,18903700,17297257,18902889,2622,677,-1441,2982,-239,645,1090,1387,25,16,815
864799,17292864,18903772,17297388,18903020,2826,803,-1729,2739,-382,442,1602,841,38,19,815
865800,17293056,18903844,17297519,18903151,2375,829,-2027,2305,-552,651,1937,489,38,19,815
866801,17293216,18903916,17297650,18903282,2563,855,-2344,1837,-698,1038,1827,438,39,10,814
867802,17293432,18903992,17297781,18903413,2176,854,-2726,1509,-825,992,1340,988,39,10,814
868803,17293676,18904060,17297912,18903544,1952,931,-3209,1446,-883,458,428,2119,51,18,815
869804,17293880,18904124,17298043,18903675,2171,985,-4342,2128,-819,-182,-265,3342,51,18,815
870805,17294044,18904180,17298174,18903806,2407,1068,-4820,2426,-735,-378,-809,3072,38,8,816
871806,17294184,18904228,17298305,18903937,2554,1155,-5205,2486,-648,-296,-1100,2889,38,8,816
872807,17294296,18904324,17298436,18904068,2738,870,-5585,2577,-561,-81,-1099,3316,25,20,815
873808,17294412,18904408,17298567,18904199,2720,966,-6009,2837,-407,-108,-1460,3830,25,20,815
874809,17294520,18904492,17298698,18904330,2782,986,-6392,2999,-221,-444,-1609,3473,28,21,812
875810,17294652,18904592,17298829,18904461,2632,900,-6658,2968,-79,-826,-1237,3357,28,21,812
876811,17294764,18904672,17298960,18904592,2766,1047,-6814,2872,-2,-955,-655,3403,36,27,813
877812,17294960,18904752,17299091,18904723,2213,1070,-6924,2740,67,-898,-898,3276,36,27,813
878813,17295144,18904840,17299222,18904854,2266,1039,-6988,2515,196,-1046,-1372,3457,37,12,813
879814,17295296,18904920,17299353,18904985,2457,1111,-7006,2292,374,-1149,-1721,3793,37,12,813
880815,17295452,18905040,17299484,18905116,2422,866,-6962,2068,529,-1225,-2021,3708,21,19,815
881817,17295640,18905136,17299615,18905247,2197,1031,-6828,1724,619,-1380,-2052,3490,21,19,815
882817,17295824,18905208,17299746,18905378,2200,1207,-6630,1285,675,-1535,-2383,3581,45,28,814
883819,17296024,18905232,17299877,18905509,2071,1554,-6417,847,734,-1738,-2992,4028,45,28,814
884819,17296296,18905264,17300008,18905640,1560,1548,-6174,574,796,-2225,-3225,4507,53,12,814
885827,17296560,18905320,17300148,18905780,1555,1435,-5895,400,844,-2690,-3472,5013,53,12,814
886821,17296848,18905464,17300279,18905911,1337,879,-5596,293,887,-2785,-3706,5553,47,32,814
887822,17297108,18905568,17300410,18906042,1457,1141,-3369,3554,1081,-677,-6379,32767,47,32,814
888823,17297324,18905664,17300541,18906173,1694,1206,578,10064,1281,825,-6057,32767,47,16,817
889824,17297544,18905784,17300672,18906304,1631,1062,2674,11780,1198,-752,-692,3139,47,16,817
890825,17297828,18905872,17300803,18906435,1165,1281,2636,9567,1065,-663,-410,976,46,17,819
891826,17298064,18905992,17300934,18906566,1419,1086,2308,6537,1002,-160,-1163,-461,46,17,819
892827,17298292,18906108,17301065,18906697,1427,1117,2112,4331,1119,410,-1088,702,57,18,818
893829,17298536,18906196,17301196,18906828,1277,1311,2242,2934,1291,530,3,668,57,18,818
894829,17298724,18906336,17301327,18906959,1603,982,2230,1438,1360,1306,67,657,47,17,818
895830,17298960,18906456,17301458,18907090,1257,1112,2167,128,1386,1394,190,1110,47,17,818
896831,17299208,18906592,17301589,18907221,1132,1010,2046,-1397,1395,860,76,1137,31,23,818
897833,17299412,18906708,17301720,18907352,1375,1142,1883,-2746,1287,699,-479,1583,31,23,818
898833,17299616,18906808,17301851,18907483,1344,1256,1728,-4003,1194,102,-598,1867,54,26,819
899834,17299828,18906908,17301982,18907614,1258,1270,1601,-4907,1099,133,-586,2736,54,26,819
900835,17300004,18907024,17302113,18907745,1463,1176,1434,-5568,919,151,-361,3219,41,13,819
901837,17300184,18907128,17302244,18907876,1418,1263,1028,-5511,797,-28,-420,6418,41,13,819
902837,17300360,18907196,17302375,18908007,1423,1516,537,-4778,724,28,-468,7245,42,19,818
903838,17300548,18907308,17302506,18908138,1324,1249,221,-4256,548,-195,350,6420,42,19,818
904839,17300704,18907420,17302637,18908269,1513,1258,50,-3761,306,-302,1034,7016,43,13,818
905841,17300836,18907500,17302768,18908400,1663,1481,-121,-3285,40,-4,1402,6735,43,13,818
906841,17300960,18907596,17302899,18908531,1717,1396,-273,-2918,-220,-38,1344,6315,18,21,817
907842,17301088,18907696,17303030,18908662,1693,1385,-379,-2562,-478,-410,1413,6198,18,21,817
908843,17301224,18907840,17303161,18908793,1641,1104,-367,-2492,-771,-505,1308,5047,17,18,816
909844,17301364,18907968,17303292,18908924,1613,1206,-305,-2567,-1047,-293,881,4884,17,18,816
910845,17301536,18908084,17303423,18909055,1395,1287,-192,-2587,-1217,-265,333,4744,27,14,817
911846,17301680,18908200,17303554,18909186,1565,1295,-69,-2722,-1302,-71,-201,4141,27,14,817
912847,17301816,18908304,17303685,18909317,1613,1382,73,-2857,-1337,41,-489,4016,35,12,817
913848,17301948,18908408,17303816,18909448,1637,1394,235,-3064,-1317,50,-583,3609,35,12,817
914849,17302076,18908508,17303947,18909579,1665,1432,421,-3392,-1288,164,-656,3068,22,28,817
915850,17302192,18908588,17304078,18909710,1746,1580,592,-3798,-1295,-59,-427,3072,22,28,817
916851,17302324,18908656,17304209,18909841,1646,1683,726,-4146,-1333,-49,-38,3101,15,16,816
917852,17302440,18908788,17304340,18909972,1753,1283,827,-4560,-1370,45,-403,2471,15,16,816
918853,17302596,18908896,17304471,18910103,1492,1443,930,-5053,-1382,-31,-367,2166,16,28,815
919854,17302712,18908968,17304602,18910234,1749,1694,1022,-5482,-1354,-76,-583,2480,16,28,815
920855,17302824,18909052,17304733,18910365,1783,1641,1077,-5809,-1259,-172,-1126,2653,16,22,816
921856,17302996,18909144,17304864,18910496,1390,1608,1120,-6116,-1083,-443,-1669,2602,16,22,816
922857,17303120,18909252,17304995,18910627,1693,1518,1203,-6438,-893,-571,-1807,2211,16,12,815
923858,17303244,18909360,17305126,18910758,1698,1528,1332,-6848,-702,-663,-2003,2059,16,12,815
924859,17303356,18909452,17305257,18910889,1781,1646,1475,-7076,-479,-578,-2088,2613,17,21,817
925860,17303496,18909544,17305388,18911020,1603,1663,1618,-7112,-214,-346,-2106,2932,17,21,817
926861,17303620,18909624,17305519,18911151,1706,1761,1755,-7008,62,-60,-1778,3272,30,12,816
927862,17303752,18909708,17305650,18911282,1656,1756,1848,-6726,317,255,-1168,3861,30,12,816
928863,17303888,18909812,17305781,18911413,1629,1644,1915,-6354,533,621,-830,3935,20,25,814
929864,17304036,18909920,17305912,18911544,1547,1629,1937,-5907,683,994,-464,4054,20,25,814
930865,17304144,18910016,17306043,18911675,1807,1720,1865,-5227,780,1332,-133,4850,14,26,815
931866,17304280,18910108,17306174,18911806,1631,1763,1646,-4305,799,1732,395,5557,14,26,815
932867,17304428,18910232,17306305,18911937,1548,1566,1520,-3632,763,2109,542,3911,27,30,816
933868,17304524,18910316,17306436,18912068,1889,1836,1484,-3257,727,2679,784,3649,27,30,816
934869,17304644,18910428,17306567,18912199,1745,1671,1445,-2947,677,3185,748,3790,36,31,815
935870,17304776,18910508,17306698,18912330,1669,1893,1184,-2327,667,3633,266,4752,36,31,815
936871,17304868,18910604,17306829,18912461,1937,1809,862,-1693,753,3967,-95,4009,18,32,814
937872,17304976,18910720,17306960,18912592,1847,1691,675,-1417,832,4477,538,2791,18,32,814
938873,17305112,18910828,17307091,18912723,1670,1751,583,-1443,870,4736,723,2426,26,24,813
939874,17305224,18910908,17307222,18912854,1830,1949,512,-1533,898,4890,695,2402,26,24,813
940875,17305332,18911000,17307353,18912985,1865,1892,411,-1563,890,4961,962,2400,22,19,813
941876,17305492,18911116,17307484,18913116,1527,1748,238,-1451,828,4974,1366,2817,22,19,813
942877,17305580,18911180,17307615,18913247,1997,2103,1,-1212,676,4971,1689,3031,22,8,814
943878,17305684,18911244,17307746,18913378,1909,2133,-252,-995,414,4879,1910,2822,22,8,814
944879,17305844,18911296,17307877,18913509,1547,2243,-511,-812,77,4745,2007,2942,15,23,815
945880,17306008,18911376,17308008,18913640,1507,2091,-769,-607,-294,4638,2118,2969,15,23,815
946881,17306132,18911460,17308139,18913771,1760,2087,-1014,-397,-654,4537,2086,3104,19,23,812
947883,17306284,18911564,17308270,18913902,1577,1975,-1258,-92,-993,4380,1944,3341,19,23,812
948883,17306416,18911608,17308401,18914033,1702,2388,-1486,202,-1318,4113,1665,3131,35,8,814
949885,17306532,18911692,17308532,18914164,1808,2159,-1715,456,-1650,3734,1458,2995,35,8,814
950886,17306680,18911752,17308663,18914295,1602,2341,-1915,642,-1977,3384,1231,2625,15,19,813
951886,17306820,18911840,17308794,18914426,1648,2185,-2110,814,-2208,3186,416,2835,15,19,813
952887,17306964,18911964,17308925,18914557,1618,1964,-2306,999,-2342,2630,-477,2898,37,22,812
953888,17307100,18912040,17309056,18914688,1666,2288,-2482,1226,-2436,1982,-892,2979,37,22,812
954889,17307236,18912112,17309187,18914819,1664,2340,-2615,1387,-2529,1583,-646,2714,19,8,812
955890,17307388,18912200,17309318,18914950,1556,2259,-2740,1500,-2578,1485,-632,2756,19,8,812
956891,17307528,18912272,17309449,18915081,1627,2386,-2859,1545,-2542,1387,-668,2350,26,23,812
957892,17307684,18912368,17309580,18915212,1516,2252,-2919,1416,-2426,1209,-739,1804,26,23,812
958893,17307828,18912496,17309711,18915343,1586,2054,-2899,1118,-2260,1033,-841,1521,29,26,813
959894,17307956,18912652,17309842,18915474,1687,1869,-2851,754,-2095,944,-512,1525,29,26,813
960895,17308096,18912792,17309973,18915605,1609,1965,-2806,517,-1961,844,-214,1828,20,29,812
961896,17308228,18912928,17310104,18915736,1659,1988,-2803,492,-1808,651,-500,2710,20,29,812
962897,17308376,18913052,17310235,18915867,1551,2067,-2853,776,-1639,487,-491,3587,32,32,813
963898,17308524,18913164,17310366,18915998,1545,2151,-2909,1247,-1520,290,-148,4009,32,32,813
964899,17308748,18913328,17310497,18916129,1029,1811,-2969,1815,-1455,-67,-185,4395,22,21,814
965900,17308908,18913492,17310628,18916260,1416,1798,-3056,2349,-1451,-364,-113,4567,22,21,814
966901,17309132,18913668,17310759,18916391,976,1703,-3178,2901,-1466,-634,-136,4697,25,34,814
967902,17309300,18913812,17310890,18916522,1310,1898,-3306,3460,-1452,-981,-281,4743,25,34,814
968903,17309500,18913964,17311021,18916653,1080,1839,-3420,3973,-1402,-1180,-344,4696,26,32,816
969904,17309728,18914108,17311152,18916784,863,1884,-3501,4322,-1327,-1157,-145,4192,26,32,816
970905,17309916,18914248,17311283,18916915,1088,1906,-3535,4486,-1231,-1076,285,3792,34,32,816
971906,17310104,18914388,17311414,18917046,1063,1903,-3548,4479,-1106,-1059,315,3448,34,32,816
972907,17310348,18914544,17311545,18917177,664,1792,-3535,4336,-933,-1144,-1,3315,27,35,817
973908,17310524,18914700,17311676,18917308,1070,1782,-3509,4192,-682,-1197,-374,3413,27,35,817
974909,17310688,18914840,17311807,18917439,1130,1878,-3471,4025,-363,-1092,-508,3348,43,30,817
975910,17310852,18914980,17311938,18917570,1116,1875,-3416,3791,-42,-1026,-307,3182,43,30,817
976911,17311016,18915136,17312069,18917701,1101,1764,-3338,3453,197,-1229,-111,2967,29,24,817
977912,17311168,18915316,17312200,18917832,1167,1593,-3257,3009,335,-1230,-156,2722,29,24,817
978913,17311328,18915472,17312331,18917963,1105,1732,-3198,2457,408,-1014,-99,2591,20,34,817
979914,17311440,18915612,17312462,18918094,1414,1829,-3174,1898,477,-691,-670,2743,20,34,817
980915,17311596,18915760,17312593,18918225,1128,1772,-3161,1463,565,-420,-1672,2960,32,35,818
981916,17311768,18915908,17312724,18918356,1010,1765,-3126,1095,660,-297,-1875,3252,32,35,818
982917,17311908,18916040,17312855,18918487,1206,1865,-3103,885,702,-127,-1544,3913,23,40,815
983918,17312064,18916224,17312986,18918618,1095,1518,-3133,814,659,-72,-782,4239,23,40,815
984919,17312204,18916388,17313117,18918749,1192,1628,-3170,798,549,-347,-307,4380,24,27,816
985920,17312360,18916548,17313248,18918880,1081,1641,-3182,780,400,-411,-156,4535,24,27,816
986921,17312520,18916708,17313379,18919011,1043,1629,-3169,759,231,-372,-110,4589,40,36,818
987922,17312672,18916860,17313510,18919142,1084,1669,-3137,805,54,-458,-551,4688,40,36,818
988923,17312852,18917040,17313641,18919273,887,1474,-3074,875,-89,-669,-1499,4753,32,39,818
989925,17313036,18917180,17313772,18919404,839,1720,-2976,914,-207,-977,-1664,4949,32,39,818
990925,17313196,18917356,17313903,18919535,977,1476,-2431,1538,-241,-1701,-1822,10318,40,43,818
991926,17313380,18917516,17314034,18919666,804,1563,-645,4635,88,-3869,-3967,31652,40,43,818
992927,17313532,18917664,17314165,18919797,995,1632,902,6818,298,-2643,-1782,13285,25,41,819
993928,17313620,18917804,17314296,18919928,1414,1678,1268,6727,188,-1845,-13,3430,25,41,819
994929,17313776,18917964,17314427,18920059,978,1540,1105,5354,-10,-1605,-60,1999,30,31,818
995930,17313900,18918124,17314558,18920190,1181,1528,1000,3935,-97,-1389,-458,1633,30,31,818
996931,17313996,18918252,17314689,18920321,1371,1730,1082,2888,-3,-1529,-489,1755,30,23,816
997932,17314136,18918412,17314820,18920452,1092,1518,1212,1913,182,-1417,-847,1613,30,23,816
998933,17314240,18918540,17314951,18920583,1330,1719,1304,1054,362,-1335,-1181,1883,26,27,818
999934,17314332,18918676,17315082,18920714,1422,1667,1368,183,562,-1647,-1454,2030,26,27,818
1000935,17314448,18918796,17315213,18920845,1279,1773,1400,-633,710,-1756,-1586,2163,19,38,818
1001936,17314560,18918892,17315344,18920976,1312,1938,1405,-1374,799,-2015,-1776,2373,19,38,818
1002937,17314672,18919012,17315475,18921107,1320,1794,1384,-1941,865,-2303,-2196,2969,26,31,816
1003938,17314804,18919088,17315606,18921238,1195,2093,1316,-2342,925,-2329,-2605,3447,26,31,816
1004939,17314892,18919164,17315737,18921369,1489,2117,1230,-2598,1024,-2606,-2779,3908,10,10,814
1005940,17314972,18919276,17315868,18921500,1562,1902,1137,-2632,1141,-2760,-2724,4525,10,10,814
1006941,17315084,18919352,17315999,18921631,1371,2151,1020,-2562,1231,-2780,-2328,4660,17,9,814
1007942,17315208,18919432,17316130,18921762,1299,2149,879,-2464,1322,-2866,-1737,4921,17,9,814
1008943,17315268,18919492,17316261,18921893,1730,2306,732,-2292,1430,-2852,-1367,5096,11,8,815
1009944,17315360,18919572,17316392,18922024,1547,2204,615,-2247,1536,-2717,-1194,4826,11,8,815
1010954,17315476,18919672,17316532,18922164,1409,2097,532,-2199,1671,-2596,-1275,4950,20,26,814
1011946,17315540,18919748,17316663,18922295,1763,2271,483,-2184,1847,-2407,-1416,4677,20,26,814
1012947,17315616,18919816,17316794,18922426,1712,2349,464,-2284,2011,-2104,-1265,4334,15,26,813
1013948,17315708,18919908,17316925,18922557,1629,2217,490,-2439,2140,-1835,-947,4270,15,26,813
1014950,17315808,18919960,17317056,18922688,1593,2502,562,-2682,2234,-1486,-769,3983,27,11,812
1015950,17315892,18920024,17317187,18922819,1715,2457,644,-2924,2308,-1057,-698,4070,27,11,812
1016951,17315996,18920088,17317318,18922950,1601,2487,690,-3017,2410,-677,-705,4519,28,4,812
1017952,17316056,18920148,17317449,18923081,1908,2544,701,-3018,2526,-285,-529,4650,28,4,812
1018953,17316128,18920228,17317580,18923212,1859,2442,717,-3050,2564,-64,69,4500,9,17,811
1019954,17316256,18920296,17317711,18923343,1511,2546,835,-3085,2508,213,298,5194,9,17,811
1020955,17316328,18920368,17317842,18923474,1887,2546,1197,-2690,2356,1086,415,9594,28,19,810
1021956,17316396,18920424,17317973,18923605,1940,2680,1528,-2341,2149,994,647,7092,28,19,810
1022957,17316484,18920516,17318104,18923736,1834,2473,1535,-2451,1960,774,666,4077,14,17,811
1023958,17316556,18920584,17318235,18923867,1960,2651,1353,-2791,1807,1048,525,3864,14,17,811
1024959,17316616,18920668,17318366,18923998,2067,2573,1145,-3101,1671,1312,535,4029,19,8,809
1025960,17316704,18920748,17318497,18924129,1911,2620,981,-3235,1530,1496,568,4256,19,8,809
1026961,17316788,18920844,17318628,18924260,1957,2537,874,-3374,1357,1628,443,3929,24,19,808
1027962,17316844,18920940,17318759,18924391,2165,2553,810,-3535,1156,1825,491,3991,24,19,808
1028963,17316940,18921032,17318890,18924522,1931,2595,743,-3626,991,1992,323,4371,13,17,808
1029964,17317032,18921100,17319021,18924653,1974,2774,655,-3654,856,2135,399,4498,13,17,808
1030965,17317092,18921176,17319152,18924784,2205,2749,574,-3646,713,2207,531,4440,9,23,809
1031966,17317176,18921252,17319283,18924915,2076,2773,517,-3639,574,2200,525,4444,9,23,809
1032967,17317272,18921328,17319414,18925046,2017,2798,458,-3597,456,2271,354,4653,21,16,808
1033968,17317328,18921412,17319545,18925177,2301,2770,394,-3489,375,2292,337,4836,21,16,808
1034969,17317404,18921476,17319676,18925308,2200,2924,347,-3321,328,2245,427,4841,10,16,807
1035970,17317492,18921548,17319807,18925439,2144,2901,326,-3135,305,2256,547,4907,10,16,807
1036971,17317556,18921632,17319938,18925570,2324,2848,310,-2887,305,2186,846,5062,14,21,807
1037973,17317660,18921680,17320069,18925701,2086,3111,303,-2551,302,2104,1168,5206,14,21,807
1038973,17317796,18921772,17320200,18925832,1885,2853,317,-2133,288,2006,1221,5210,34,11,806
1039974,17317876,18921880,17320331,18925963,2257,2764,355,-1737,281,1907,1015,5281,34,11,806
1040975,17317952,18921960,17320462,18926094,2308,2962,406,-1267,296,1866,670,5380,13,14,805
1041976,17318052,18922052,17320593,18926225,2171,2905,455,-823,318,1799,421,5276,13,14,805
1042977,17318148,18922172,17320724,18926356,2213,2736,490,-361,340,1673,258,5293,29,27,807
1043978,17318204,18922276,17320855,18926487,2495,2848,514,115,350,1550,130,5217,29,27,807
1044979,17318288,18922400,17320986,18926618,2342,2727,533,556,335,1444,113,4917,30,17,806
1045980,17318372,18922532,17321117,18926749,2363,2678,542,909,281,1317,316,4713,30,17,806
1046981,17318432,18922656,17321248,18926880,2545,2732,536,1199,209,1237,362,4528,27,33,806
1047982,17318508,18922764,17321379,18927011,2469,2843,520,1462,136,1205,230,4380,27,33,806
1048983,17318616,18922908,17321510,18927142,2280,2612,509,1679,51,1190,354,4059,9,22,806
1049984,17318672,18923044,17321641,18927273,2638,2661,508,1813,-51,1188,567,3764,9,22,806
1050985,17318740,18923200,17321772,18927404,2592,2526,499,1914,-162,1213,488,3625,16,29,804
1051986,17318828,18923352,17321903,18927535,2486,2543,483,1950,-266,1244,600,3385,16,29,804
1052987,17318900,18923484,17322034,18927666,2613,2668,447,1920,-355,1259,887,3101,20,22,806
1053988,17318948,18923636,17322165,18927797,2800,2534,376,1813,-400,1283,698,2765,20,22,806
1054989,17319056,18923796,17322296,18927928,2435,2472,288,1666,-397,1252,413,2537,14,24,807
1055990,17319120,18923932,17322427,18928059,2741,2621,215,1474,-366,1164,276,2474,14,24,807
1056991,17319164,18924068,17322558,18928190,2904,2620,158,1303,-333,1140,75,2521,9,31,805
1057992,17319264,18924260,17322689,18928321,2569,2243,105,1211,-288,1132,-578,2760,9,31,805
1058993,17319332,18924448,17322820,18928452,2797,2244,54,1196,-230,1076,-1174,2868,26,33,805
1059994,17319376,18924644,17322951,18928583,2986,2167,-2,1214,-174,956,-1423,2904,26,33,805
1060995,17319440,18924892,17323082,18928714,2891,1791,-76,1277,-143,814,-1141,3096,10,49,807
1061997,17319500,18925104,17323213,18928845,2948,1981,-169,1407,-160,599,-370,3218,10,49,807
1062997,17319560,18925344,17323344,18928976,2979,1759,-269,1566,-215,449,94,3399,23,45,806
1063998,17319604,18925484,17323475,18929107,3119,2381,-369,1783,-277,306,-54,3406,23,45,806
1064999,17319696,18925612,17323606,18929238,2837,2458,-479,1978,-319,258,-388,3315,7,36,807
1066000,17319768,18925736,17323737,18929369,2989,2486,-577,2104,-359,206,-308,3146,7,36,807
1067001,17319816,18925868,17323868,18929500,3175,2437,-641,2181,-439,109,119,3019,22,40,804
1068002,17319908,18926000,17323999,18929631,2918,2437,-700,2267,-516,131,134,2951,22,40,804
1069003,17320000,18926168,17324130,18929762,2936,2196,-763,2281,-567,41,706,2767,26,28,804
1070004,17320076,18926368,17324261,18929893,3062,1967,-832,2239,-581,71,465,2486,26,28,804
1071005,17320172,18926592,17324392,18930024,2953,1777,-904,2064,-566,39,48,2244,13,36,805
1072006,17320268,18926864,17324523,18930155,2968,1415,-970,1877,-522,-25,-653,2232,13,36,805
1073007,17320364,18927052,17324654,18930286,2985,1916,-1011,1664,-497,-131,-916,2092,27,44,806
1074008,17320476,18927292,17324785,18930417,2894,1544,-1033,1457,-461,-133,-1556,2265,27,44,806
1075009,17320552,18927544,17324916,18930548,3144,1416,-1039,1303,-423,-242,-704,2398,26,41,809
1076010,17320660,18927792,17325047,18930679,2955,1390,-1077,1223,-383,-317,-563,2650,26,41,809
1077011,17320756,18928012,17325178,18930810,3046,1526,-1164,1173,-326,-299,-1153,2700,24,45,809
1078013,17320856,18928208,17325309,18930941,3035,1649,-1247,1104,-268,-387,-1142,2584,24,45,809
1079014,17320956,18928420,17325440,18931072,3050,1513,-1305,1009,-250,-535,-719,2609,25,53,809
1080014,17321052,18928660,17325571,18931203,3091,1291,-1367,856,-271,-623,-301,2603,25,53,809
1081015,17321148,18928888,17325702,18931334,3108,1323,-1441,757,-302,-554,-136,2811,14,56,808
1082016,17321252,18929108,17325833,18931465,3071,1335,-1503,713,-334,-475,49,2958,14,56,808
1083017,17321356,18929340,17325964,18931596,3084,1216,-1546,680,-374,-395,397,2904,23,50,808
1084018,17321464,18929580,17326095,18931727,3070,1119,-1572,583,-435,-367,839,2883,23,50,808
1085019,17321584,18929868,17326226,18931858,2999,750,-1590,480,-503,-321,1044,2828,29,57,809
1086020,17321696,18930092,17326357,18931989,3059,1109,-1634,339,-556,-285,915,2947,29,57,809
1087021,17321804,18930348,17326488,18932120,3095,855,-1714,264,-578,-381,567,3119,28,44,810
1088022,17321908,18930604,17326619,18932251,3133,800,-1790,199,-582,-391,77,3218,28,44,810
1089023,17322012,18930804,17326750,18932382,3146,1120,-1841,191,-585,-377,-177,3454,35,49,810
1090024,17322120,18931052,17326881,18932513,3132,770,-1876,244,-597,-377,-302,3706,35,49,810
1091025,17322212,18931324,17327012,18932644,3250,558,-1905,398,-608,-306,-476,3947,34,60,811
1092026,17322304,18931584,17327143,18932775,3268,576,-1914,554,-592,-299,-624,4021,34,60,811
1093027,17322404,18931824,17327274,18932906,3233,654,-1900,673,-519,-231,-1244,3977,33,39,810
1094028,17322492,18932020,17327405,18933037,3328,900,-1867,730,-425,-176,-1196,3846,33,39,810
1095029,17322564,18932172,17327536,18933168,3453,1166,-1819,703,-341,-149,-619,3578,10,47,809
1096030,17322636,18932336,17327667,18933299,3480,1077,-1768,614,-307,-114,540,3578,10,47,809
1097031,17322708,18932508,17327798,18933430,3507,1009,-1734,586,-311,-176,1382,3806,23,27,809
1098032,17322784,18932656,17327929,18933561,3507,1151,-1701,610,-343,-232,1712,3919,23,27,809
1099033,17322888,18932800,17328060,18933692,3345,1171,-1682,671,-410,-326,1647,4190,22,37,807
1100034,17322984,18932944,17328191,18933823,3412,1166,-1715,796,-487,-415,1333,4547,22,37,807
1101035,17323072,18933068,17328322,18933954,3482,1294,-1793,1006,-523,-378,727,4783,22,37,807
1102036,17323172,18933192,17328453,18934085,3421,1297,-1797,1269,-582,-577,645,5375,22,37,807
1103037,17323268,18933328,17328584,18934216,3463,1220,-898,3056,-524,-1589,-511,20139,30,20,807
1104038,17323328,18933448,17328715,18934347,3720,1326,588,5726,-390,-1881,-595,21473,30,20,807
1105039,17323412,18933556,17328846,18934478,3591,1411,1263,6320,-461,-952,956,3749,10,28,805
1106040,17323500,18933676,17328977,18934609,3586,1341,1107,5279,-686,-827,1430,1906,10,28,805
1107041,17323596,18933772,17329108,18934740,3553,1506,727,3763,-937,-610,1103,1076,25,21,805
1108042,17323700,18933940,17329239,18934871,3516,1040,405,2618,-1037,-614,84,1435,25,21,805
1109043,17323824,18934068,17329370,18935002,3396,1291,175,1747,-978,-677,-506,1486,32,27,805
1110044,17323936,18934224,17329501,18935133,3480,1106,-46,869,-933,-620,-489,1384,32,27,805
1111045,17324048,18934352,17329632,18935264,3489,1282,-262,-101,-961,-801,87,1435,17,19,807
1112046,17324188,18934468,17329763,18935395,3311,1364,-497,-1041,-1030,-923,365,1949,17,19,807
1113047,17324292,18934580,17329894,18935526,3549,1397,-747,-1808,-1112,-880,443,2888,18,19,807
1114048,17324384,18934724,17330025,18935657,3642,1192,-770,-2072,-1102,-717,315,6442,18,19,807
1115049,17324488,18934836,17330156,18935788,3580,1400,-144,-1046,-995,0,465,16845,24,36,807
1116050,17324572,18934956,17330287,18935919,3727,1356,597,150,-843,-43,353,13107,24,36,807
1117051,17324660,18935056,17330418,18936050,3722,1494,667,336,-679,-238,436,5261,10,31,805
1118052,17324748,18935144,17330549,18936181,3742,1588,241,-151,-538,3,478,3954,10,31,805
1119053,17324832,18935260,17330680,18936312,3788,1420,-247,-784,-405,137,382,3600,9,21,804
1120067,17324880,18935380,17330811,18936443,3800,1400,-635,-1100,-253,143,490,4200,9,21,804
1121068,17324936,18935508,17330942,18936574,3800,1352,-933,-1265,-121,252,953,4085,3,15,803
1122069,17324980,18935596,17331073,18936705,3800,1621,-1179,-1389,-33,424,1062,4221,3,15,803
1123070,17325044,18935668,17331204,18936836,3800,1747,-1374,-1444,56,401,626,4408,23,25,803
1124071,17325120,18935716,17331335,18936967,3800,1933,-1529,-1658,155,471,197,4195,23,25,803
1125072,17325164,18935792,17331466,18937098,3800,1782,-1645,-1847,236,663,70,4288,24,20,802
1126073,17325236,18935824,17331597,18937229,3800,2102,-1697,-1989,303,743,69,4371,24,20,802
1127074,17325300,18935824,17331728,18937360,3800,2360,-1700,-2093,332,880,29,4525,19,19,800
1128075,17325344,18935856,17331859,18937491,3800,2203,-1649,-2107,335,894,-59,5016,19,19,800
1129076,17325440,18935924,17331990,18937622,3800,2007,-1447,-1914,315,996,52,6745,15,19,800
1130076,17325520,18935972,17332121,18937753,3800,2168,-1145,-1634,229,1057,271,6869,15,19,800
1131078,17325604,18936056,17332252,18937884,3800,1964,-916,-1641,104,611,435,4527,15,7,800
1132079,17325688,18936080,17332383,18938015,3800,2387,-781,-1851,5,425,-90,4186,15,7,800
1133079,17325812,18936076,17332514,18938146,3800,2621,-647,-2063,-67,356,-490,3993,15,12,800
1134081,17325928,18936108,17332645,18938277,3800,2440,-494,-2171,-111,181,-694,4018,15,12,800
1135082,17326032,18936144,17332776,18938408,3800,2457,-317,-2194,-154,70,-802,4234,15,7,800
1136090,17326164,18936220,17332916,18938548,3800,2236,-105,-2228,-237,-34,-629,4134,15,7,800
1137084,17326308,18936280,17333047,18938679,3800,2368,104,-2181,-363,-189,-90,4386,29,5,799
1138085,17326436,18936296,17333178,18938810,3800,2693,261,-2088,-490,-345,330,4449,29,5,799
1139086,17326568,18936308,17333309,18938941,3800,2772,383,-1952,-540,-354,-242,4436,35,18,799
1140087,17326688,18936384,17333440,18939072,3800,2396,506,-1748,-493,-331,-979,4508,35,18,799
1141087,17326784,18936444,17333571,18939203,3800,2528,638,-1608,-426,-409,-1011,4346,34,26,798
1142088,17326912,18936552,17333702,18939334,3800,2238,766,-1493,-371,-437,-881,4185,34,26,798
1143090,17327020,18936632,17333833,18939465,3800,2436,874,-1390,-347,-413,-113,4090,19,26,799
1144091,17327168,18936672,17333964,18939596,3800,2726,923,-1274,-337,-338,565,4175,19,26,799
1145092,17327288,18936700,17334095,18939727,3800,2848,936,-1127,-290,-173,188,4168,18,12,800
1146093,17327432,18936764,17334226,18939858,3800,2652,972,-980,-210,-108,-518,3905,18,12,800
1147094,17327540,18936848,17334357,18939989,3800,2549,1034,-923,-150,-89,-773,3682,32,21,798
1148095,17327664,18936932,17334488,18940120,3800,2569,1096,-943,-129,-18,-673,3454,32,21,798
1149096,17327800,18937020,17334619,18940251,3800,2564,1129,-976,-126,151,-723,3365,20,12,797
1150097,17327924,18937060,17334750,18940382,3800,2905,1126,-1030,-126,270,-382,3272,20,12,797
1151098,17328060,18937092,17334881,18940513,3800,2999,1096,-1084,-161,258,657,3246,38,20,799
1152086,17328248,18937184,17335012,18940644,3583,2642,1026,-1048,-247,307,1326,3343,38,20,799
1153087,17328428,18937264,17335143,18940775,3612,2740,927,-1018,-336,436,972,3310,25,28,797
1154088,17328608,18937380,17335274,18940906,3592,2522,850,-1026,-351,744,175,3282,25,28,797
1155089,17328808,18937456,17335405,18941037,3438,2797,811,-1108,-321,1044,-438,3035,47,21,800
1156090,17329076,18937464,17335536,18941168,2954,3277,774,-1164,-326,926,-877,3244,47,21,800
1157091,17329292,18937512,17335667,18941299,3243,3064,734,-1116,-346,557,-1515,3462,34,11,800
1158092,17329508,18937588,17335798,18941430,3207,2914,677,-999,-369,506,-1874,3495,34,11,800
1159093,17329752,18937692,17335929,18941561,2983,2752,608,-903,-379,728,-2007,3481,40,17,799
1160094,17329984,18937800,17336060,18941692,3016,2738,547,-777,-390,854,-1724,3509,40,17,799
1161095,17330208,18937840,17336191,18941823,3026,3203,498,-651,-453,780,-1140,3375,42,14,801
1162096,17330428,18937876,17336322,18941954,3013,3271,438,-644,-571,708,-378,3263,42,14,801
1163097,17330664,18937916,17336453,18942085,2867,3287,376,-606,-692,1002,-473,3321,47,17,803
1164098,17330852,18938028,17336584,18942216,3143,2846,331,-601,-778,1249,-1060,3028,47,17,803
1165099,17331084,18938136,17336715,18942347,2825,2881,306,-717,-839,1221,-1427,2757,41,24,800
1166100,17331312,18938232,17336846,18942478,2808,2972,257,-891,-887,1300,-1444,2744,41,24,800
1167101,17331508,18938280,17336977,18942609,2981,3310,168,-1017,-921,1503,-1105,2819,40,23,802
1168103,17331744,18938312,17337108,18942740,2686,3454,66,-1086,-945,1573,-676,2923,40,23,802
1169103,17331964,18938380,17337239,18942871,2748,3258,-21,-1164,-988,1399,71,2840,34,11,803
1170104,17332152,18938472,17337370,18943002,2924,3126,-126,-1240,-1061,1326,475,3041,34,11,803
1171105,17332340,18938600,17337501,18943133,2900,2903,-274,-1245,-1100,1424,299,3263,48,29,799
1172107,17332592,18938672,17337632,18943264,2447,3279,-426,-1193,-1153,1397,572,3339,40,13,802
1173107,17332792,18938696,17337763,18943395,2743,3627,-550,-1072,-1211,1221,207,3529,40,13,802
1174108,17332980,18938744,17337894,18943526,2794,3515,-631,-971,-1274,1027,121,3697,54,25,803
1175109,17333216,18938804,17338025,18943657,2449,3472,-700,-789,-1360,940,221,3938,54,25,803
1176110,17333424,18938884,17338156,18943788,2591,3371,-767,-580,-1444,879,204,3871,30,16,799
1177111,17333556,18939016,17338287,18943919,3067,3046,-826,-478,-1476,862,220,3662,30,16,799
1178112,17333764,18939092,17338418,18944050,2559,3421,-877,-460,-1435,814,111,3442,47,19,802
1179113,17333952,18939156,17338549,18944181,2660,3527,-890,-519,-1367,709,10,3059,47,19,802
1180114,17334092,18939208,17338680,18944312,2957,3637,-892,-626,-1306,446,10,3117,42,29,801
1181115,17334268,18939272,17338811,18944443,2713,3593,-918,-736,-1224,258,-540,3225,42,29,801
1182116,17334456,18939400,17338942,18944574,2613,3195,-952,-805,-1134,170,-884,3336,44,27,797
1183117,17334600,18939516,17339073,18944705,2883,3278,-984,-772,-1077,-9,-620,3635,44,27,797
1184118,17334720,18939628,17339204,18944836,3039,3312,-1014,-671,-1056,-245,-247,3783,35,23,802
1185119,17334932,18939672,17339335,18944967,2429,3776,-1044,-550,-1065,-290,10,3860,35,23,802
1186120,17335084,18939728,17339466,18945098,2796,3735,-1057,-468,-1102,-391,383,3848,24,16,799
1187121,17335180,18939804,17339597,18945229,3163,3636,-1073,-438,-1123,-450,253,3702,24,16,799
1188122,17335384,18939928,17339728,18945360,2455,3340,-1095,-481,-1101,-396,-79,3401,32,30,798
1189123,17335528,18940040,17339859,18945491,2826,3424,-1113,-649,-1040,-387,-420,3269,32,30,798
1190124,17335624,18940160,17339990,18945622,3142,3380,-1110,-870,-963,-449,-707,3113,42,27,801
1191138,17335808,18940216,17340121,18945753,2570,3800,-1082,-1122,-907,-467,-917,3030,42,27,801
1192126,17335976,18940300,17340252,18945884,2655,3660,-1043,-1331,-850,-517,-954,3283,43,19,796
1193127,17336120,18940404,17340383,18946015,2800,3548,-1013,-1501,-802,-489,-386,3507,43,19,796
1194128,17336236,18940552,17340514,18946146,2981,3267,-1014,-1540,-791,-421,-81,3855,24,21,797
1195129,17336460,18940752,17340645,18946277,2267,2912,-1029,-1546,-792,-433,83,3975,24,21,797
1196130,17336604,18940840,17340776,18946408,2762,3632,-1051,-1591,-797,-357,226,3934,49,39,800
1197131,17336760,18940972,17340907,18946539,2677,3358,-1080,-1687,-821,-289,234,3874,49,39,800
1198132,17336968,18941084,17341038,18946670,2319,3492,-1106,-1835,-842,-224,129,3717,29,42,799
1199133,17337136,18941220,17341169,18946801,2553,3341,-1134,-2024,-826,-116,-123,3723,29,42,799
1200134,17337264,18941384,17341300,18946932,2805,3153,-1146,-2252,-771,-70,-306,3916,26,31,801
1201135,17337476,18941576,17341431,18947063,2246,2952,-952,-2173,-702,272,-246,6603,26,31,801
1202136,17337652,18941724,17341562,18947194,2452,3220,-207,-984,-687,1182,367,15640,42,35,801
1203137,17337828,18941868,17341693,18947325,2432,3241,471,-170,-676,586,181,8177,42,35,801
1204138,17338048,18942020,17341824,18947456,2119,3182,595,-397,-622,264,80,3352,39,29,803
1205139,17338260,18942200,17341955,18947587,2134,2988,401,-1130,-534,359,-84,2854,39,29,803
1206140,17338432,18942376,17342086,18947718,2367,2994,205,-1868,-466,416,-275,2702,52,28,805
1207141,17338628,18942556,17342217,18947849,2189,2949,67,-2423,-438,214,-284,2817,52,28,805
1208142,17338840,18942768,17342348,18947980,2054,2714,-59,-2888,-466,30,-260,3108,51,46,805
1209143,17339028,18942948,17342479,18948111,2180,2893,-229,-3150,-516,17,-359,3633,51,46,805
1210144,17339204,18943120,17342610,18948242,2235,2926,-430,-3296,-550,-21,-36,4000,47,41,808
1211145,17339400,18943320,17342741,18948373,2083,2722,-637,-3342,-565,-96,40,4295,47,41,808
1212146,17339588,18943512,17342872,18948504,2109,2745,-822,-3329,-568,-206,-102,4556,48,32,806
1213147,17339760,18943708,17343003,18948635,2191,2693,-957,-3284,-564,-436,6,4688,48,32,806
1214148,17339956,18943900,17343134,18948766,2013,2692,-1037,-3253,-537,-482,8,4768,45,48,806
1215149,17340136,18944048,17343265,18948897,2092,2960,-1032,-3235,-464,-520,-60,5112,45,48,806
1216150,17340316,18944188,17343396,18949028,2071,3007,-783,-2893,-304,-573,-312,8263,47,47,809
1217151,17340456,18944376,17343527,18949159,2318,2683,-331,-2378,-116,-324,-442,9135,47,47,809
1218153,17340624,18944560,17343658,18949290,2127,2686,-22,-2359,48,-247,-455,4717,27,46,806
1219153,17340768,18944760,17343789,18949421,2272,2557,49,-2708,212,-301,-901,3871,27,46,806
1220154,17340896,18944968,17343920,18949552,2373,2474,25,-3120,370,-232,-1064,3768,41,52,808
1221155,17341052,18945168,17344051,18949683,2188,2495,-8,-3360,493,-244,-936,4187,41,52,808
1222156,17341200,18945340,17344182,18949814,2231,2653,-40,-3374,558,-352,-697,4500,36,35,808
1223157,17341332,18945548,17344313,18949945,2332,2394,-106,-3292,543,-476,-125,4779,36,35,808
1224158,17341516,18945756,17344444,18950076,1984,2361,-211,-3076,494,-499,330,5326,21,37,807
1225159,17341684,18945984,17344575,18950207,2068,2194,-326,-2814,445,-422,488,5332,21,37,807
1226160,17341840,18946200,17344706,18950338,2133,2233,-435,-2570,383,-336,520,5151,37,45,809
1227161,17341988,18946380,17344837,18950469,2176,2437,-514,-2403,320,-401,534,4942,37,45,809
1228162,17342168,18946584,17344968,18950600,1955,2255,-553,-2361,288,-301,43,4598,23,51,809
1229163,17342324,18946764,17345099,18950731,2094,2385,-560,-2421,303,-100,-284,4386,23,51,809
1230164,17342496,18946960,17345230,18950862,1977,2257,-543,-2507,360,-258,-212,4249,34,52,811
1231165,17342652,18947172,17345361,18950993,2066,2123,-515,-2615,428,-289,34,4157,34,52,811
1232166,17342816,18947396,17345492,18951124,2002,2007,-484,-2731,481,-294,534,4082,41,37,810
1233167,17342996,18947596,17345623,18951255,1881,2127,-464,-2790,530,-328,762,4322,41,37,810
1234168,17343156,18947764,17345754,18951386,1994,2312,-456,-2735,591,-365,785,4388,43,46,812
1235169,17343312,18947960,17345885,18951517,2008,2110,-440,-2777,640,-564,899,4156,43,46,812
1236170,17343444,18948136,17346016,18951648,2159,2215,-420,-2812,668,-673,892,4346,42,33,810
1237171,17343624,18948336,17346147,18951779,1837,2036,-412,-2794,693,-701,545,4424,42,33,810
1238172,17343780,18948536,17346278,18951910,1977,2006,-404,-2719,738,-699,-48,4531,36,48,809
1239173,17343948,18948704,17346409,18952041,1886,2190,-383,-2602,792,-819,-322,4632,36,48,809
1240174,17344104,18948872,17346540,18952172,1951,2175,-344,-2463,829,-928,-581,4634,27,36,812
1241175,17344264,18949032,17346671,18952303,1913,2212,-286,-2282,862,-912,-546,4648,27,36,812
1242176,17344428,18949200,17346802,18952434,1875,2147,-222,-2147,904,-998,-412,4652,20,40,811
1243177,17344588,18949356,17346933,18952565,1887,2212,-151,-2095,936,-975,-153,4365,20,40,811
1244178,17344752,18949504,17347064,18952696,1849,2254,-68,-2125,955,-894,-108,3999,24,29,811
1245179,17344936,18949628,17347195,18952827,1700,2408,63,-2240,977,-727,-245,3531,24,29,811
1246180,17345076,18949776,17347326,18952958,1971,2252,200,-2383,1029,-525,-508,3629,41,35,810
1247181,17345268,18949932,17347457,18953089,1620,2191,317,-2529,1083,-488,-612,3548,41,35,810
1248182,17345424,18950064,17347588,18953220,1834,2341,434,-2647,1116,-478,-854,3545,46,36,809
1249183,17345584,18950192,17347719,18953351,1798,2368,556,-2764,1139,-334,-906,3516,46,36,809
1250184,17345756,18950332,17347850,18953482,1705,2290,653,-2828,1188,-312,-1082,3826,45,30,811
1251185,17345944,18950464,17347981,18953613,1581,2340,713,-2715,1261,-323,-1151,4280,45,30,811
1252186,17346124,18950580,17348112,18953744,1609,2447,758,-2509,1328,-428,-1105,4412,24,19,812
1253187,17346284,18950692,17348243,18953875,1721,2481,805,-2295,1364,-476,-1013,4357,24,19,812
1254188,17346464,18950812,17348374,18954006,1576,2436,856,-2127,1401,-358,-900,4268,37,16,811
1255189,17346660,18950920,17348505,18954137,1447,2522,899,-1979,1449,-234,-777,4218,37,16,811
1256190,17346788,18951032,17348636,18954268,1874,2507,932,-1885,1502,-166,-657,4037,34,16,811
1257191,17346968,18951116,17348767,18954399,1528,2702,972,-1881,1544,-82,-509,3613,34,16,811
1258192,17347160,18951228,17348898,18954530,1426,2537,1029,-1982,1584,6,-505,3378,40,14,809
1259193,17347312,18951324,17349029,18954661,1667,2652,1085,-2068,1626,-76,-718,3404,40,14,809
1260194,17347464,18951432,17349160,18954792,1659,2588,1128,-2119,1672,-108,-887,3447,22,13,811
1261202,17347668,18951524,17349300,18954932,1306,2710,1149,-2132,1715,-139,-904,3526,22,13,811
1262196,17347808,18951604,17349431,18955063,1702,2808,1167,-2145,1768,-106,-878,3568,25,18,810
1263197,17347944,18951680,17349562,18955194,1726,2858,1173,-2088,1813,-111,-878,3752,25,18,810
1264198,17348124,18951744,17349693,18955325,1429,2963,1156,-1992,1853,-79,-906,3829,26,7,808
1265199,17348260,18951824,17349824,18955456,1702,2886,1115,-1864,1890,130,-820,3887,26,7,808
1266200,17348392,18951920,17349955,18955587,1727,2802,1055,-1742,1929,310,-719,3778,23,10,809
1267201,17348572,18952008,17350086,18955718,1406,2872,961,-1607,1977,316,-843,3950,23,10,809
1268202,17348720,18952096,17350217,18955849,1598,2891,849,-1411,2039,282,-1017,3994,30,14,806
1269203,17348836,18952168,17350348,18955980,1805,3018,750,-1309,2093,251,-1004,3727,30,14,806
1270204,17348964,18952248,17350479,18956111,1732,2991,658,-1266,2125,390,-941,3649,39,28,808
1271205,17349136,18952348,17350610,18956242,1439,2881,551,-1235,2155,491,-1010,3655,39,28,808
1272206,17349236,18952456,17350741,18956373,1903,2841,444,-1228,2180,605,-923,3461,29,27,807
1273207,17349368,18952572,17350872,18956504,1703,2798,360,-1301,2180,768,-644,3195,29,27,807
1274208,17349500,18952664,17351003,18956635,1703,2967,290,-1406,2164,885,-716,3150,28,25,808
1275209,17349588,18952760,17351134,18956766,1997,2958,209,-1547,2150,949,-837,3190,28,25,808
1276210,17349684,18952868,17351265,18956897,1962,2893,114,-1655,2143,973,-1031,3331,14,24,806
1277211,17349804,18952968,17351396,18957028,1818,2958,16,-1702,2122,962,-1049,3331,14,24,806
1278212,17349916,18953076,17351527,18957159,1876,2919,-91,-1710,2067,1047,-1051,3423,34,17,807
1279213,17350040,18953168,17351658,18957290,1805,3037,-210,-1716,2005,1130,-1175,3563,34,17,807
1280214,17350172,18953252,17351789,18957421,1755,3108,-335,-1722,1940,1158,-1175,3647,36,18,806
1281215,17350292,18953340,17351920,18957552,1835,3102,-465,-1689,1877,1097,-1319,3739,36,18,806
1282216,17350376,18953420,17352051,18957683,2081,3176,-591,-1633,1813,980,-1424,3849,35,11,806
1283217,17350488,18953536,17352182,18957814,1915,2958,-701,-1596,1757,969,-1581,3833,35,11,806
1284218,17350608,18953640,17352313,18957945,1870,3046,-785,-1584,1716,1079,-1589,3714,22,21,805
1285219,17350676,18953768,17352444,18958076,2222,2899,-853,-1610,1684,1152,-1662,3687,22,21,805
1286220,17350792,18953828,17352575,18958207,1930,3355,-900,-1694,1646,1233,-1547,3551,31,23,806
1287221,17350868,18953928,17352706,18958338,2204,3119,-930,-1805,1599,1224,-1393,3434,31,23,806
1288222,17350936,18954036,17352837,18958469,2282,3081,-949,-1934,1553,1195,-1400,3537,11,26,804
1289223,17351060,18954156,17352968,18958600,1936,3011,-963,-2019,1503,1195,-1442,3703,11,26,804
1290224,17351132,18954252,17353099,18958731,2287,3178,-966,-2056,1455,1118,-1437,3750,10,26,803
1291225,17351188,18954364,17353230,18958862,2420,3087,-963,-2035,1416,981,-1525,4032,10,26,803
1292226,17351288,18954452,17353361,18958993,2159,3256,-967,-1961,1405,819,-1691,4417,21,22,802
1293227,17351372,18954584,17353492,18959124,2280,2982,-966,-1818,1409,683,-1674,4467,21,22,802
1294228,17351440,18954716,17353623,18959255,2409,2982,-945,-1706,1405,661,-1575,4410,18,34,804
1295229,17351500,18954856,17353754,18959386,2490,2929,-896,-1619,1393,709,-1502,4351,18,34,804
1296230,17351588,18954968,17353885,18959517,2334,3114,-818,-1625,1381,849,-1289,4269,15,22,804
1297231,17351668,18955088,17354016,18959648,2407,3069,-723,-1633,1372,971,-1085,4195,15,22,804
1298232,17351700,18955208,17354147,18959779,2751,3075,-606,-1661,1351,977,-896,4171,19,27,804
1299233,17351792,18955364,17354278,18959910,2394,2839,-471,-1655,1307,1044,-686,4291,19,27,804
1300234,17351836,18955536,17354409,18960041,2732,2722,-338,-1614,1271,1079,-704,4524,18,33,802
1301235,17351880,18955720,17354540,18960172,2771,2625,-228,-1514,1256,1134,-691,4616,18,33,802
1302236,17351956,18955868,17354671,18960303,2596,2843,-137,-1390,1260,1253,-790,4688,16,26,803
1303237,17351992,18956028,17354802,18960434,2888,2757,-40,-1285,1247,1248,-625,4694,16,26,803
1304238,17352020,18956180,17354933,18960565,2984,2799,47,-1142,1207,1201,-656,4830,4,29,804
1305239,17352096,18956336,17355064,18960696,2709,2764,122,-941,1150,1068,-744,4973,4,29,804
