"Data file recorded 2014/9/24  16:41:11"
"%  Right Stride Frequency         = 9.0"
"%  Left Stride Frequency         = 9.0"
"%  Phase (Fractional)         = 32768.0"
"%  Experiment.py "
"%  Motor Gains    = [1800, 200, 100, 0, 0, 1800, 200, 100, 0, 0]
"% Columns: "
"% time | Right Leg Pos | Left Leg Pos | Commanded Right Leg Pos | Commanded Left Leg Pos | DCR | DCL | GyroX | GryoY | GryoZ | AX | AY | AZ | RBEMF | LBEMF | VBatt "
12141,1788032,1775084,1781564,1814332,919,3800,-410,-456,595,425,-324,4079,-7,7,853
13135,1788032,1775104,1782170,1814938,1208,3800,-414,-462,596,426,-348,4057,5,6,853
14136,1788040,1775168,1782776,1815544,1420,3800,-417,-461,594,429,-368,4069,5,6,853
15137,1788036,1775308,1783382,1816150,1762,3800,-423,-457,586,406,-356,4081,-7,21,833
16138,1788032,1775492,1783988,1816756,2029,3800,-433,-504,550,311,-292,4016,-7,21,833
17139,1788056,1775696,1784594,1817362,2109,3800,-467,-510,498,252,-134,4069,-2,30,828
18140,1788060,1775920,1785200,1817968,2499,3800,-522,-534,464,278,155,4036,-2,30,828
19141,1788076,1776164,1785806,1818574,2682,3800,-583,-571,464,332,310,3935,-3,58,828
20142,1788116,1776404,1786412,1819180,2781,3800,-636,-646,489,303,408,3915,-3,58,828
21143,1788196,1776688,1787018,1819786,2762,3800,-670,-705,540,292,182,3971,6,45,826
22144,1788312,1776940,1787624,1820392,2751,3800,-670,-795,594,246,126,3894,6,45,826
23145,1788436,1777176,1788230,1820998,2913,3800,-642,-902,655,350,72,3892,37,59,825
24146,1788592,1777404,1788836,1821604,2911,3800,-597,-1030,753,557,-49,3773,37,59,825
25147,1788788,1777616,1789442,1822210,2841,3800,-538,-1192,877,644,-54,3699,46,41,825
26148,1789004,1777816,1790048,1822816,2887,3800,-471,-1371,991,791,162,3582,46,41,825
27149,1789232,1778032,1790654,1823422,2978,3800,-361,-1639,1076,932,663,3272,59,50,823
28150,1789520,1778212,1791260,1824028,2744,3800,-237,-1909,1102,901,1017,3417,59,50,823
29151,1789752,1778384,1791866,1824634,3259,3800,-125,-2084,1063,964,1305,3816,66,35,824
30152,1790048,1778524,1792472,1825240,2995,3800,-18,-2182,1009,1187,1642,3935,66,35,824
31153,1790360,1778668,1793078,1825846,3025,3800,57,-2155,949,1230,1834,4516,61,40,825
32154,1790692,1778804,1793684,1826452,3020,3800,69,-1972,897,1308,1864,4960,61,40,825
33155,1790996,1778900,1794290,1827058,3329,3800,46,-1712,859,1459,1960,5148,76,33,823
34156,1791348,1778988,1794896,1827664,3142,3800,23,-1466,828,1631,2124,5011,76,33,823
35157,1791672,1779080,1795502,1828270,3441,3800,13,-1362,758,1749,2538,4929,78,31,823
36158,1791992,1779136,1796108,1828876,3592,3800,224,-999,624,2317,3093,7412,78,31,823
37159,1792392,1779216,1796714,1829482,3184,3800,1008,534,392,3906,3680,17419,63,17,822
38167,1792756,1779280,1797948,1830716,3792,3800,1669,1439,188,3170,3659,7142,63,17,822
39174,1793108,1779336,1798554,1831322,3800,3800,1729,1342,67,2497,3043,3701,78,21,819
40174,1793500,1779380,1799160,1831928,3800,3800,1451,830,-10,2202,1843,3609,78,21,819
41176,1793860,1779416,1799766,1832534,3800,3800,1090,678,-59,2020,487,4915,63,8,819
42177,1794252,1779460,1800372,1833140,3800,3800,706,1040,-87,1784,-288,5641,63,8,819
43178,1794664,1779472,1800978,1833746,3800,3800,302,1449,-132,1578,-963,5576,85,16,819
44179,1795052,1779500,1801584,1834352,3800,3800,-138,1888,-215,1448,-1657,5641,85,16,819
45179,1795460,1779544,1802190,1834958,3800,3800,-563,2090,-312,1420,-2070,4949,78,14,818
46180,1795932,1779592,1802796,1835564,3800,3800,-1006,2248,-372,1848,-2665,4950,78,14,818
47181,1796364,1779656,1803402,1836170,3800,3800,-1451,2357,-375,2041,-3167,4604,78,13,819
48183,1796804,1779708,1804008,1836776,3800,3800,-1786,2213,-393,1940,-3030,3569,78,13,819
49171,1797348,1779756,1804614,1837382,3592,3800,-1956,1681,-502,1980,-2799,2383,97,6,815
50185,1797856,1779788,1805220,1837988,3800,3800,-1993,921,-667,1888,-2713,2199,97,6,815
51173,1798384,1779816,1805826,1838594,3772,3800,-1980,365,-814,1785,-2862,2773,116,12,819
52174,1798976,1779880,1806432,1839200,3379,3800,-1943,-97,-920,1569,-3115,2778,116,12,819
53175,1799540,1779920,1807038,1839806,3574,3800,-1864,-454,-1002,1271,-3099,3198,98,20,820
54176,1800112,1779988,1807644,1840412,3540,3800,-1700,-737,-1090,1031,-2654,3352,98,20,820
55177,1800712,1780060,1808250,1841018,3369,3800,-1498,-992,-1195,689,-2034,3517,127,28,823
56178,1801372,1780108,1808856,1841624,2972,3800,-1268,-1049,-1333,75,-1419,4251,127,28,823
57179,1801964,1780164,1809462,1842230,3405,3800,-1011,-987,-1488,-420,-1076,4536,134,22,822
58180,1802612,1780236,1810068,1842836,3038,3800,-757,-701,-1639,-702,-954,5360,134,22,822
59181,1803348,1780288,1810674,1843442,2432,3800,-467,-236,-1767,-1226,-867,5769,119,15,824
60182,1804020,1780380,1811280,1844048,2804,3800,-178,275,-1873,-1615,-1204,6188,119,15,824
61183,1804676,1780416,1811886,1844654,2884,3800,134,837,-1984,-1970,-1182,6084,124,16,824
62184,1805444,1780500,1812492,1845260,2114,3800,491,1213,-2084,-2410,-1119,5574,124,16,824
63185,1806136,1780568,1813098,1845866,2553,3800,901,1509,-2146,-2679,-1181,5330,141,15,825
64186,1806852,1780660,1813704,1846472,2356,3800,1314,1667,-2121,-2915,-1380,5008,141,15,825
65194,1807648,1780736,1814332,1847100,1783,3800,1697,1800,-1975,-2972,-1416,4823,138,18,828
66188,1808432,1780824,1814938,1847706,1781,3800,2045,1768,-1753,-2853,-1275,4167,138,18,828
67189,1809192,1780908,1815544,1848312,1865,3800,2383,1549,-1492,-2863,-1223,3527,156,25,828
68190,1810004,1780988,1816150,1848918,1450,3800,2698,1099,-1212,-3027,-1253,2832,156,25,828
69191,1810736,1781088,1816756,1849524,1896,3800,3013,537,-901,-3028,-1494,2403,133,30,829
70192,1811512,1781180,1817362,1850130,1547,3800,3290,-84,-562,-3143,-1576,2207,133,30,829
71193,1812236,1781292,1817968,1850736,1821,3800,3538,-718,-181,-3404,-1703,2102,147,22,829
72194,1812976,1781400,1818574,1851342,1664,3800,3712,-1273,240,-3810,-1914,2347,147,22,829
73195,1813644,1781516,1819180,1851948,2087,3800,3833,-1768,700,-4346,-2087,2514,129,25,830
74196,1814356,1781648,1819786,1852554,1768,3800,3920,-2125,1226,-4765,-2290,2932,129,25,830
75197,1815020,1781772,1820392,1853160,2043,3800,3938,-2366,1795,-5187,-2164,3239,141,31,830
76198,1815640,1781916,1820998,1853766,2313,3800,3936,-2515,2395,-5592,-2087,3546,141,31,830
77199,1816304,1782072,1821604,1854372,2014,3800,3904,-2589,3007,-5835,-1895,3819,118,31,829
78200,1816904,1782240,1822210,1854978,2417,3800,3890,-2583,3638,-6037,-1744,3811,118,31,829
79201,1817476,1782384,1822816,1855584,2608,3800,3852,-2706,4294,-5987,-1695,3675,117,29,827
80202,1818028,1782548,1823422,1856190,2758,3800,3829,-2848,4939,-5728,-1524,3475,117,29,827
81203,1818512,1782676,1824028,1856796,3238,3800,3781,-3160,5538,-5309,-1174,2981,100,28,826
82204,1819032,1782828,1824634,1857402,3051,3800,3701,-3585,6042,-4604,-612,2628,100,28,826
83205,1819548,1782976,1825240,1858008,3117,3800,3555,-4040,6463,-3833,-222,2492,122,38,825
84206,1819996,1783116,1825846,1858614,3612,3800,3377,-4590,6826,-2906,-199,2230,122,38,825
85207,1820436,1783264,1826452,1859220,3736,3800,3133,-5093,7180,-1772,-290,2482,90,26,824
86208,1820916,1783392,1827058,1859826,3543,3800,2898,-5733,7486,-687,-80,1555,90,26,824
87222,1821332,1783500,1827664,1860432,3800,3800,2647,-6604,7680,425,176,1257,106,36,821
88222,1821732,1783612,1828270,1861038,3800,3800,2407,-7360,7753,1008,576,1211,106,36,821
89211,1822216,1783716,1828876,1861644,3749,3800,2133,-8295,7710,1723,674,836,77,20,821
90225,1822608,1783816,1829482,1862250,3800,3800,1865,-9047,7567,2482,813,1437,77,20,821
91225,1823008,1783888,1830088,1862856,3800,3800,1519,-9599,7352,3092,1419,1977,82,30,819
92236,1823492,1783980,1830716,1863484,3800,3800,1111,-9844,6954,3644,2134,2820,82,30,819
93227,1823920,1784060,1831322,1864090,3800,3800,628,-9847,6460,3970,2214,3612,80,13,818
94229,1824356,1784128,1831928,1864696,3800,3800,199,-9713,6013,4107,2140,3402,80,13,818
95229,1824772,1784228,1832534,1865302,3800,3800,-194,-9680,5465,4120,2741,3168,73,17,819
96230,1825240,1784320,1833140,1865908,3800,3800,-557,-9485,4736,3793,3407,3988,73,17,819
97232,1825680,1784404,1833746,1866514,3800,3800,-924,-8966,3957,3876,3434,4691,79,14,820
98233,1826132,1784492,1834352,1867120,3800,3800,-1295,-8334,3218,4260,3152,4933,79,14,820
99234,1826620,1784592,1834958,1867726,3800,3800,-1679,-7285,2458,3760,3550,6157,93,25,819
100235,1827048,1784672,1835564,1868332,3800,3800,-2008,-6039,1812,3566,3069,6345,93,25,819
101236,1827552,1784784,1836170,1868938,3800,3800,-2288,-4862,1359,3648,1879,6371,87,26,819
102236,1828080,1784920,1836776,1869544,3800,3800,-2505,-3312,917,2678,2027,7325,87,26,819
103238,1828528,1785044,1837382,1870150,3800,3800,-2498,-2303,655,2421,270,4749,78,23,819
104238,1829052,1785156,1837988,1870756,3800,3800,-2226,-2138,236,2197,405,2793,78,23,819
105240,1829588,1785256,1838594,1871362,3800,3800,-1828,-2000,-257,1426,672,3201,105,22,820
106241,1830116,1785352,1839200,1871968,3800,3800,-1571,-1636,-644,1390,-189,3858,105,22,820
107242,1830680,1785460,1839806,1872574,3800,3800,-1611,-546,-874,1654,-1448,6017,96,28,820
108243,1831196,1785568,1840412,1873180,3800,3800,-1768,870,-1023,1304,-429,6486,96,28,820
109244,1831836,1785648,1841018,1873786,3800,3800,-1734,1952,-1301,2249,203,4663,124,35,820
110245,1832392,1785744,1841624,1874392,3800,3800,-1623,2351,-1676,2408,315,3658,124,35,820
111233,1833092,1785880,1842230,1874998,3522,3800,-1432,2741,-1963,2140,567,3852,128,25,821
112246,1833644,1785992,1842836,1875604,3800,3800,-1400,2997,-2113,2840,-246,3434,128,25,821
113235,1834340,1786132,1843442,1876210,3535,3800,-1363,3322,-2142,2971,-507,3230,117,24,821
114236,1835052,1786244,1844048,1876816,3391,3800,-1310,3496,-2098,3018,-160,2616,117,24,821
115237,1835720,1786368,1844654,1877422,3640,3800,-1253,3334,-2138,3568,-76,1593,145,22,821
116238,1836440,1786500,1845260,1878028,3266,3800,-1280,3038,-2274,3760,799,1804,145,22,821
117239,1837224,1786664,1845866,1878634,2790,3800,-1426,2794,-2413,3936,890,1628,127,26,824
118240,1837932,1786808,1846472,1879240,3221,3800,-1650,2453,-2602,4189,906,1082,127,26,824
119248,1838652,1786972,1847100,1879868,3108,3800,-1882,2074,-2769,4151,1243,1296,148,36,824
120242,1839484,1787148,1847706,1880474,2311,3800,-2096,1662,-2878,4348,987,957,148,36,824
121243,1840224,1787360,1848312,1881080,2828,3800,-2309,1114,-2972,4484,691,338,141,41,824
122244,1840972,1787648,1848918,1881686,2717,3800,-2496,508,-2987,4084,186,514,141,41,824
123245,1841788,1787908,1849524,1882292,2201,3800,-2726,92,-2971,3880,-383,1271,137,53,829
124246,1842604,1788192,1850130,1882898,2111,3800,-3017,-117,-2948,3593,-913,1859,137,53,829
125246,1843304,1788488,1850736,1883504,2796,3800,-3259,-223,-2845,3294,-1276,1964,147,57,825
126248,1844188,1788764,1851342,1884110,1524,3800,-3404,-426,-2774,2944,-1228,1331,147,57,825
127248,1844956,1789156,1851948,1884716,2180,3800,-3515,-661,-2721,2362,-1547,1800,132,63,829
128250,1845728,1789564,1852554,1885322,2083,3800,-3702,-387,-2631,1595,-1677,3357,132,63,829
129250,1846524,1789948,1853160,1885928,1851,3800,-3929,329,-2469,975,-1913,4135,150,84,832
130252,1847260,1790376,1853766,1886534,2171,3800,-4126,1043,-2220,364,-1791,4366,150,84,832
131253,1847924,1790916,1854372,1887140,2596,3800,-4262,1807,-1936,340,-1044,4632,131,87,831
132254,1848692,1791440,1854978,1887746,1876,3800,-4364,2476,-1682,272,-313,3962,131,87,831
133255,1849356,1792068,1855584,1888352,2501,3800,-4436,2995,-1368,7,-253,3847,137,122,830
134256,1850096,1792652,1856190,1888958,1970,3800,-4473,3381,-960,-313,141,3504,137,122,830
135257,1850744,1793300,1856796,1889564,2527,3800,-4459,3609,-486,-231,531,3261,140,111,833
136258,1851268,1793992,1857402,1890170,3339,3800,-4411,3813,-17,126,792,3083,140,111,833
137259,1851836,1794652,1858008,1890776,3082,3800,-4287,3875,406,-174,834,2580,129,127,833
138260,1852416,1795488,1858614,1891382,3019,3800,-4115,3843,768,-459,321,2597,129,127,833
139261,1853032,1796220,1859220,1891988,2791,3800,-3967,3737,1070,-211,-371,2517,134,146,828
140262,1853592,1797028,1859826,1892594,3163,3800,-3856,3748,1328,107,-978,3046,134,146,828
141263,1854088,1797856,1860432,1893200,3612,3800,-3774,3927,1533,256,-1691,3560,142,156,830
142264,1854636,1798600,1861038,1893806,3314,3800,-3633,4167,1746,363,-2156,3755,142,156,830
143265,1855172,1799568,1861644,1894412,3421,3800,-3483,4458,1863,431,-1457,3850,126,160,831
144266,1855708,1800384,1862250,1895018,3452,3800,-3347,4747,1873,802,-1185,3739,126,160,831
145267,1856288,1801276,1862856,1895624,3191,3800,-3247,5051,1799,982,-1471,3938,120,175,829
146275,1856820,1802236,1863484,1896252,3534,3800,-3078,5367,1751,1221,-2294,4082,120,175,829
147269,1857344,1803068,1864090,1896858,3621,3800,-2841,5570,1681,1464,-2541,3914,124,190,828
148270,1857924,1804076,1864696,1897464,3284,3800,-2545,5793,1586,1942,-2806,4006,124,190,828
149271,1858472,1805000,1865302,1898070,3511,3800,-2206,5981,1437,2267,-2974,3662,130,192,828
150272,1859056,1805804,1865908,1898676,3297,3800,-1861,6065,1261,2462,-3459,3747,130,192,828
151273,1859636,1806656,1866514,1899282,3334,3800,-1525,6263,1034,2496,-3657,4132,111,170,829
152274,1860228,1807448,1867120,1899888,3267,3800,-1165,6456,698,2456,-3684,3834,111,170,829
153275,1860804,1808224,1867726,1900494,3381,3800,-772,6523,252,2578,-3565,3620,118,153,830
154276,1861440,1809060,1868332,1901100,2994,3800,-374,6506,-299,2487,-3199,3491,118,153,830
155277,1861984,1809740,1868938,1901706,3598,3800,-65,6499,-920,2410,-2980,3781,119,139,829
156278,1862560,1810388,1869544,1902312,3413,3800,117,6754,-1595,2208,-2410,4536,119,139,829
157279,1863204,1811020,1870150,1902918,2972,3800,199,7243,-2286,1580,-2173,5031,116,128,830
158280,1863812,1811608,1870756,1903524,3198,3800,549,8095,-2912,642,-2499,8683,116,128,830
159281,1864388,1812240,1871362,1904130,3412,3800,1079,9162,-3493,171,-2196,10779,121,113,827
160282,1865100,1812788,1871968,1904736,2517,3800,1400,9518,-4195,234,-835,3971,121,113,827
161283,1865744,1813340,1872574,1905342,2927,3800,1325,9102,-4926,-176,-827,2824,133,119,829
162284,1866400,1813784,1873180,1905948,2831,3800,1118,8484,-5635,-726,-737,2525,133,119,829
163285,1867092,1814320,1873786,1906554,2569,3800,857,7799,-6322,-1472,-533,2336,137,106,830
164286,1867740,1814876,1874392,1907160,2827,3800,668,7126,-6972,-1968,-466,2005,137,106,830
165287,1868404,1815460,1874998,1907766,2703,3800,484,6322,-7519,-2315,-471,1652,142,120,830
166288,1869168,1816092,1875604,1908372,2010,3800,387,5380,-7836,-2870,-513,1396,142,120,830
167289,1869848,1816716,1876210,1908978,2503,3800,329,4349,-7865,-3009,-859,1599,126,115,829
168290,1870560,1817356,1876816,1909584,2258,3800,368,3331,-7608,-3088,-1458,1787,126,115,829
169291,1871352,1817964,1877422,1910190,1678,3800,766,2664,-6977,-3835,-2253,5912,152,117,832
170292,1872112,1818616,1878028,1910796,1811,3800,2039,2901,-5989,-5497,-3591,15842,152,117,832
171293,1872864,1819240,1878634,1911402,1798,3800,4033,3393,-4870,-6522,-3570,18538,152,133,832
172294,1873692,1819940,1879240,1912008,1227,3800,5532,3061,-3907,-6204,-2195,9544,152,133,832
173302,1874424,1820676,1879868,1912636,1782,3800,5892,1755,-3201,-5564,-1340,2065,161,146,834
174296,1875192,1821300,1880474,1913242,1487,3800,5624,243,-2588,-5325,-1158,1537,161,146,834
175297,1875924,1822060,1881080,1913848,1657,3800,5309,-1096,-1938,-5174,-1217,1575,152,134,837
176298,1876684,1822896,1881686,1914454,1416,3800,5058,-2227,-1242,-4950,-1637,1691,152,134,837
177299,1877372,1823756,1882292,1915060,1831,3800,4835,-3283,-493,-4913,-1746,1847,152,163,835
178300,1878056,1824504,1882898,1915666,1822,3800,4558,-4213,258,-4780,-1465,2235,152,163,835
179301,1878780,1825284,1883504,1916272,1521,3800,4209,-5096,956,-4706,-892,2567,135,182,837
180302,1879412,1826148,1884110,1916878,2086,3800,3806,-5757,1606,-4445,-818,3220,135,182,837
181303,1880044,1827236,1884716,1917484,2076,3800,3446,-6247,2322,-4336,-1241,3655,126,184,835
182304,1880720,1828224,1885322,1918090,1771,3800,3120,-6744,3096,-4544,-1165,3953,126,184,835
183305,1881324,1829224,1885928,1918696,2222,3800,2751,-6955,3807,-4626,-598,4983,147,195,837
184306,1881952,1830216,1886534,1919302,2063,3800,2337,-6944,4445,-4988,-76,5616,147,195,837
185307,1882544,1831332,1887140,1919908,2295,3800,1955,-7012,5016,-4994,197,5209,123,195,838
186308,1883056,1832248,1887746,1920514,2838,3800,1635,-7382,5525,-4635,463,4389,123,195,838
187309,1883576,1833180,1888352,1921120,2826,3800,1327,-7920,5994,-4074,965,4326,121,201,837
188310,1884092,1834072,1888958,1921726,2892,3800,997,-8462,6399,-3039,1536,4024,121,201,837
189311,1884612,1834992,1889564,1922332,2906,3800,655,-9251,6788,-2029,1619,3483,116,183,833
190312,1885072,1835880,1890170,1922938,3346,3800,303,-9862,7214,-1246,1656,4231,116,183,833
191313,1885528,1836856,1890776,1923544,3438,3800,-17,-10457,7648,-307,1577,3805,97,190,832
192314,1885944,1837812,1891382,1924150,3772,3800,-323,-11258,8038,1024,1564,3465,97,190,832
193327,1886332,1838748,1891988,1924756,3800,3800,-537,-12092,8357,3046,1713,3198,81,196,829
194329,1886712,1839608,1892594,1925362,3800,3800,-709,-13092,8559,5406,2198,2548,81,196,829
195330,1887068,1840524,1893200,1925968,3800,3800,-885,-13847,8588,7211,3281,3458,97,202,828
196331,1887396,1841512,1893806,1926574,3800,3800,-1219,-14300,8455,8422,3822,4815,97,202,828
197332,1887772,1842368,1894412,1927180,3800,3800,-1688,-14205,8214,9596,3496,6291,73,181,827
198333,1888092,1843104,1895018,1927786,3800,3800,-2241,-13619,8008,10655,3407,7419,73,181,827
199334,1888436,1843804,1895624,1928392,3800,3800,-2616,-13082,7843,11012,3233,5995,73,147,826
200344,1888788,1844408,1896252,1929020,3800,3800,-2823,-13146,7716,10567,1174,4814,73,147,826
201336,1889120,1845056,1896858,1929626,3800,3800,-2915,-13316,7471,9355,876,5376,69,116,824
202337,1889476,1845504,1897464,1930232,3800,3800,-3071,-12629,6757,7720,3392,8072,69,116,824
203338,1889864,1845868,1898070,1930838,3800,3800,-3231,-11326,5913,6826,2111,8598,60,94,821
204339,1890216,1846180,1898676,1931444,3800,3800,-3109,-10234,5259,6386,1463,7351,60,94,821
205340,1890560,1846456,1899282,1932050,3800,3800,-2709,-9166,4851,5967,2219,7695,75,63,821
206341,1890976,1846716,1899888,1932656,3800,3800,-2233,-8089,4392,5221,3519,7717,75,63,821
207342,1891296,1846900,1900494,1933262,3800,3800,-1902,-6757,3859,4136,2533,8670,67,50,820
208343,1891688,1847064,1901100,1933868,3800,3800,-1685,-5115,3353,2671,1942,9188,67,50,820
209344,1892108,1847232,1901706,1934474,3800,3800,-1490,-3575,2733,1727,2909,8193,69,42,818
210345,1892488,1847364,1902312,1935080,3800,3800,-1172,-2269,2013,1011,3083,7557,69,42,818
211346,1892920,1847508,1902918,1935686,3800,3800,-740,-1123,1334,34,3273,7221,76,44,819
212347,1893364,1847676,1903524,1936292,3800,3800,-174,-105,833,-822,2948,6568,76,44,819
213348,1893772,1847824,1904130,1936898,3800,3800,482,917,567,-995,2587,6436,73,37,817
214349,1894208,1847984,1904736,1937504,3800,3800,1105,1834,392,-1412,2436,6130,73,37,817
215350,1894620,1848136,1905342,1938110,3800,3800,1608,2720,264,-2007,1692,6269,79,41,817
216351,1895068,1848316,1905948,1938716,3800,3800,2002,3534,237,-2775,475,6060,79,41,817
217352,1895384,1848524,1906554,1939322,3800,3800,2300,4036,271,-3005,-472,5200,63,43,817
218353,1895820,1848732,1907160,1939928,3800,3800,2506,4454,333,-3076,-1014,4901,63,43,817
219353,1896260,1848984,1907766,1940534,3800,3800,2678,4768,491,-2800,-1456,4070,74,59,819
220355,1896576,1849248,1908372,1941140,3800,3800,2845,4558,722,-1756,-1400,2729,74,59,819
221356,1897048,1849536,1908978,1941746,3800,3800,2918,4193,1123,-780,-2393,2976,88,49,819
222357,1897576,1849856,1909584,1942352,3800,3800,2816,4092,1666,-162,-2865,3000,88,49,819
223357,1897972,1850156,1910190,1942958,3800,3800,2728,3639,2059,222,-1901,1398,101,64,821
224358,1898500,1850484,1910796,1943564,3800,3800,2544,2853,2254,863,-2078,1417,101,64,821
225359,1899080,1850904,1911402,1944170,3800,3800,2221,2309,2378,1762,-1591,2166,109,87,821
226361,1899528,1851280,1912008,1944776,3800,3800,1757,1839,2401,2806,-44,1595,109,87,821
227368,1900080,1851760,1912636,1945404,3800,3800,1166,1152,2299,3607,113,1454,98,99,822
228363,1900744,1852264,1913242,1946010,3800,3800,418,582,2127,3675,81,2295,98,99,822
229364,1901348,1852732,1913848,1946616,3800,3800,-531,499,1901,4417,583,3861,128,91,824
230365,1901984,1853300,1914454,1947222,3800,3800,-1597,682,1667,4989,426,3923,128,91,824
231366,1902716,1853860,1915060,1947828,3800,3800,-2322,89,1479,4701,511,1120,129,116,825
232367,1903484,1854384,1915666,1948434,3800,3800,-2761,-870,1294,5259,703,1204,129,116,825
233368,1904184,1855068,1916272,1949040,3800,3800,-3092,-1733,1149,5733,145,1393,146,119,826
234356,1905108,1855636,1916878,1949646,3459,3800,-3329,-2516,1077,5639,-190,1125,146,119,826
235369,1905952,1856352,1917484,1950252,3800,3800,-3474,-3173,1004,5577,-351,1482,167,134,826
236358,1906840,1857032,1918090,1950858,3459,3800,-3577,-3474,879,5421,-227,2505,167,134,826
237359,1907892,1857836,1918696,1951464,2240,3800,-3642,-3446,721,5033,-123,3079,186,148,827
238360,1908928,1858692,1919302,1952070,2153,3800,-3687,-3075,551,4769,-345,4005,186,148,827
239361,1909784,1859588,1919908,1952676,3171,3800,-3713,-2279,343,4259,-466,5255,169,155,830
240362,1910800,1860436,1920514,1953282,1992,3800,-3688,-1103,89,3522,-914,5988,169,155,830
241363,1911764,1861308,1921120,1953888,2162,3800,-3574,220,-222,2968,-1226,5952,178,170,835
242364,1912624,1862284,1921726,1954494,2702,3800,-3409,1485,-613,2600,-1304,5785,178,170,835
243365,1913532,1863308,1922332,1955100,2272,3800,-3180,2941,-1006,2420,-1850,6066,185,167,836
244366,1914436,1864212,1922938,1955706,2167,3800,-2839,4312,-1317,1851,-2142,5391,185,167,836
245367,1915312,1865212,1923544,1956312,2225,3800,-2346,5396,-1566,1341,-2300,4533,172,183,835
246368,1916188,1866156,1924150,1956918,2107,3800,-1769,6298,-1763,1248,-2505,4027,172,183,835
247369,1916904,1867176,1924756,1957524,3061,3800,-1125,7110,-1862,1199,-2744,3332,174,183,835
248370,1917624,1868224,1925362,1958130,2987,3800,-406,7720,-1838,1028,-3033,2299,174,183,835
249371,1918436,1869324,1925968,1958736,2323,3800,367,7940,-1713,678,-3219,1243,176,209,836
250372,1919168,1870284,1926574,1959342,2769,3800,1236,7883,-1548,593,-3199,464,176,209,836
251373,1919896,1871192,1927180,1959948,2742,3800,2079,7811,-1423,374,-3104,275,171,210,833
252374,1920636,1872172,1927786,1960554,2610,3800,2899,7930,-1169,346,-3847,710,171,210,833
253375,1921348,1873076,1928392,1961160,2740,3800,3619,8161,-790,115,-3687,659,164,190,834
254383,1922072,1874000,1929020,1961788,2624,3800,4189,8328,-453,58,-3194,489,164,190,834
255377,1922848,1874912,1929626,1962394,2225,3800,4615,8626,-149,241,-2808,656,159,182,833
256378,1923520,1875748,1930232,1963000,2848,3800,4879,8986,0,-256,-2294,731,159,182,833
257379,1924176,1876580,1930838,1963606,2927,3800,5077,9289,-15,-428,-1998,447,155,195,833
258380,1924840,1877464,1931444,1964212,2853,3800,5220,9305,-191,-118,-1266,-324,155,195,833
259381,1925576,1878412,1932050,1964818,2347,3800,5254,9266,-479,435,-726,-321,136,175,832
260381,1926184,1879304,1932656,1965424,3148,3800,5132,9375,-767,638,-518,176,136,175,832
261383,1926772,1880188,1933262,1966030,3282,3800,4905,9450,-1070,500,-51,-125,126,175,833
262384,1927416,1881048,1933868,1966636,2916,3800,4536,9478,-1566,606,1455,-307,126,175,833
263385,1928004,1881908,1934474,1967242,3275,3800,4024,9230,-2517,498,3591,-1245,126,173,832
264386,1928552,1882856,1935080,1967848,3551,3800,3380,8692,-3813,599,4479,-1614,126,173,832
265387,1929176,1883624,1935686,1968454,3070,3800,2650,7980,-5073,912,4414,-1855,99,164,831
266388,1929784,1884464,1936292,1969060,3170,3800,1946,7141,-5974,1553,3855,-2007,99,164,831
267389,1930356,1885324,1936898,1969666,3411,3800,1219,6273,-6463,2281,2919,-1850,128,184,828
268390,1930984,1886244,1937504,1970272,3053,3800,488,5419,-6659,2326,2056,-1791,128,184,828
269391,1931552,1887084,1938110,1970878,3446,3800,-232,4414,-6788,2130,2237,-2071,110,183,829
270392,1932172,1888176,1938716,1971484,3116,3800,-884,3307,-6968,2026,1816,-2235,110,183,829
271393,1932812,1889132,1939322,1972090,2977,3800,-1495,2279,-7092,1966,1166,-1797,131,192,831
272394,1933440,1890112,1939928,1972696,3044,3800,-2039,1443,-7033,1875,-283,-1383,131,192,831
273395,1934032,1891064,1940534,1973302,3277,3800,-2467,619,-6748,1581,-1377,-1178,135,190,831
274396,1934732,1892096,1941140,1973908,2562,3800,-2849,-136,-6296,1338,-1464,-917,135,190,831
275397,1935368,1893236,1941746,1974514,2949,3800,-3251,-1040,-5798,1351,-1421,-1463,122,214,832
276398,1936072,1894212,1942352,1975120,2482,3800,-3656,-2039,-5329,1016,-1240,-1435,122,214,832
277399,1936856,1895420,1942958,1975726,1906,3800,-4034,-2844,-4933,224,-1260,-801,145,231,836
278400,1937544,1896596,1943564,1976332,2471,3800,-4432,-3535,-4640,-773,-1451,-367,145,231,836
279401,1938252,1897700,1944170,1976938,2302,3800,-4780,-3986,-4408,-1772,-1851,358,150,234,835
280402,1939076,1898844,1944776,1977544,1482,3800,-5074,-4146,-4173,-2800,-2442,1211,150,234,835
281410,1939816,1899904,1945404,1978172,1959,3800,-5364,-3939,-3948,-3976,-3151,2724,154,214,835
282404,1940540,1900940,1946010,1978778,2008,3800,-5686,-3311,-3687,-4980,-4028,4399,154,214,835
283405,1941328,1901980,1946616,1979384,1529,3800,-5960,-2326,-3358,-5628,-4191,5295,151,217,839
284406,1942048,1903032,1947222,1979990,1905,3800,-6120,-1263,-3046,-5983,-3479,5286,151,217,839
285407,1942776,1904088,1947828,1980596,1803,3800,-6204,-470,-2778,-6021,-3153,5155,150,220,838
286408,1943536,1905196,1948434,1981202,1536,3800,-6237,15,-2453,-5725,-3319,4903,150,220,838
287409,1944232,1906220,1949040,1981808,1897,3800,-6201,317,-2038,-5325,-3691,4484,153,213,839
288410,1944872,1907216,1949646,1982414,2233,3800,-6045,244,-1574,-4970,-3522,3445,153,213,839
289411,1945572,1908188,1950252,1983020,1818,3800,-5800,-243,-1087,-4396,-3260,2686,150,202,839
290412,1946248,1909044,1950858,1983626,1938,3800,-5519,-874,-553,-4237,-2773,2892,150,202,839
291413,1946872,1909968,1951464,1984232,2256,3800,-5148,-1559,45,-4304,-2857,2917,148,185,835
292414,1947548,1910720,1952070,1984838,1902,3800,-4709,-2361,651,-4700,-3103,2938,148,185,835
293415,1948116,1911388,1952676,1985444,2593,3800,-4180,-3219,1243,-4838,-2603,3308,125,132,835
294416,1948652,1911992,1953282,1986050,2825,3800,-1088,-3957,1632,-1576,-2021,27582,125,132,835
295417,1949240,1912520,1953888,1986656,2509,3800,6243,-3740,1557,3117,-2055,32767,116,126,833
296418,1949744,1913004,1954494,1987262,3080,3800,10799,-3316,1851,-2759,-3486,18495,116,126,833
297419,1950236,1913448,1955100,1987868,3206,3800,10963,-3906,2554,-5210,-2521,4157,109,109,829
298420,1950696,1913828,1955706,1988474,3471,3800,9551,-4602,3214,-4897,-1671,4844,109,109,829
299421,1951168,1914156,1956312,1989080,3456,3800,8483,-5300,3720,-4666,-729,4586,107,87,826
300435,1951592,1914496,1956918,1989686,3800,3800,8001,-5798,4137,-4384,-185,4701,107,87,826
301436,1951980,1914820,1957524,1990292,3800,3800,7529,-6066,4517,-4067,556,5501,83,71,822
302437,1952376,1915100,1958130,1990898,3800,3800,5538,-3878,5119,-2552,623,16554,83,71,822
303437,1952732,1915328,1958736,1991504,3800,3800,1878,900,5730,-1350,1719,20664,72,53,820
304438,1953084,1915572,1959342,1992110,3800,3800,-1273,3534,5951,-1534,2409,9987,72,53,820
305439,1953416,1915752,1959948,1992716,3800,3800,-2442,1735,6002,-622,2763,-1573,65,61,820
306441,1953744,1916012,1960554,1993322,3800,3800,-2422,-2506,6070,945,3356,-3563,65,61,820
307442,1954020,1916328,1961160,1993928,3800,3800,-2442,-6463,6374,2943,2980,-1763,57,49,819
308451,1954348,1916572,1961788,1994556,3800,3800,-2854,-9500,6902,4498,2542,-592,57,49,819
309443,1954604,1916800,1962394,1995162,3800,3800,-3330,-12040,7317,5912,3197,1015,52,59,819
310445,1954820,1917076,1963000,1995768,3800,3800,-3826,-14067,7540,7160,3289,3711,52,59,819
311446,1955064,1917404,1963606,1996374,3800,3800,-4359,-15577,7741,7070,1404,5526,41,66,819
312446,1955324,1917764,1964212,1996980,3800,3800,-4855,-16688,7945,6877,68,6007,41,66,819
313447,1955564,1918080,1964818,1997586,3800,3800,-5224,-17458,8199,6820,-1145,6247,47,66,817
314449,1955816,1918420,1965424,1998192,3800,3800,-5529,-17970,8403,5896,-1261,6345,47,66,817
315450,1956068,1918816,1966030,1998798,3800,3800,-5733,-18098,8352,4456,-1628,7237,56,84,819
316451,1956308,1919204,1966636,1999404,3800,3800,-5703,-18064,8227,3879,-2100,6544,56,84,819
317451,1956624,1919604,1967242,2000010,3800,3800,-3485,-14479,7834,8124,-1159,32767,46,80,819
318453,1956856,1919972,1967848,2000616,3800,3800,587,-6960,6914,9608,571,32767,46,80,819
319453,1957180,1920456,1968454,2001222,3800,3800,2617,-3936,6131,2439,739,7099,57,93,819
320455,1957508,1920888,1969060,2001828,3800,3800,2692,-3848,5594,1344,87,6987,57,93,819
321455,1957856,1921336,1969666,2002434,3800,3800,2503,-4538,5190,808,-1025,5997,77,93,820
322457,1958184,1921892,1970272,2003040,3800,3800,2585,-4020,4863,445,-1464,8308,77,93,820
323458,1958604,1922436,1970878,2003646,3800,3800,2888,-2334,4575,149,-1197,9182,80,93,821
324458,1959012,1923068,1971484,2004252,3800,3800,3256,-969,3944,-41,106,6456,80,93,821
325459,1959388,1923676,1972090,2004858,3800,3800,3875,-441,3169,-802,-58,4090,73,120,821
326461,1959896,1924344,1972696,2005464,3800,3800,4646,-495,2431,-1648,-460,3482,73,120,821
327462,1960352,1925040,1973302,2006070,3800,3800,5214,3,1898,-1653,-2603,5310,107,138,820
328463,1960784,1925792,1973908,2006676,3800,3800,5642,1152,1815,-1861,-3995,5927,107,138,820
329464,1961356,1926568,1974514,2007282,3800,3800,6007,2108,1873,-1553,-3326,4580,89,135,824
330465,1961920,1927320,1975120,2007888,3800,3800,6422,2606,1691,-1431,-2084,2974,89,135,824
331466,1962388,1928148,1975726,2008494,3800,3800,6903,2588,1406,-1485,-1684,1532,121,154,825
332467,1963032,1929016,1976332,2009100,3800,3800,7338,2390,1196,-337,-2320,787,121,154,825
333468,1963680,1929908,1976938,2009706,3800,3800,7567,2384,1301,458,-3034,1732,127,165,826
334469,1964384,1930840,1977544,2010312,3800,3800,7755,2682,1635,618,-2750,1497,127,165,826
335476,1965092,1931780,1978172,2010940,3800,3800,7967,2583,1896,1054,-2594,-500,148,170,827
336471,1965808,1932712,1978778,2011546,3800,3800,8145,2134,2074,1312,-2282,-864,148,170,827
337472,1966592,1933728,1979384,2012152,3800,3800,8121,2075,2340,1670,-2530,452,155,186,828
338473,1967400,1934772,1979990,2012758,3800,3800,7937,2341,2687,1876,-3111,704,155,186,828
339474,1968308,1935688,1980596,2013364,3800,3800,7729,2694,2993,1416,-2877,532,156,182,829
340475,1969180,1936596,1981202,2013970,3800,3800,7538,3113,3162,1208,-2876,311,156,182,829
341463,1970104,1937432,1981808,2014576,3597,3800,7314,3300,3200,1199,-2938,-645,177,181,830
342464,1971132,1938196,1982414,2015182,2763,3800,7047,3446,3247,1140,-3007,-549,177,181,830
343465,1972028,1939016,1983020,2015788,3463,3800,6759,3829,3359,1202,-3190,-312,181,160,830
344466,1973024,1939840,1983626,2016394,2669,3800,6451,4309,3561,1404,-3746,-293,181,160,830
345467,1974076,1940584,1984232,2017000,2125,3800,6121,5018,3836,1691,-4035,169,189,167,832
346468,1975012,1941352,1984838,2017606,2707,3800,5793,5605,4028,2133,-3441,-576,189,167,832
347469,1976000,1942060,1985444,2018212,2216,3800,5418,5987,3970,2740,-2934,-1194,194,163,832
348470,1976928,1942780,1986050,2018818,2451,3800,4992,6227,3699,3199,-2514,-1771,194,163,832
349471,1977844,1943584,1986656,2019424,2391,3800,4416,6390,3266,3789,-1807,-1753,186,146,833
350472,1978708,1944380,1987262,2020030,2605,3800,3733,6765,2757,4277,-1056,-1050,186,146,833
351473,1979668,1945072,1987868,2020636,1851,3800,3079,6973,2281,4070,-786,-1906,183,159,834
352474,1980472,1945824,1988474,2021242,2740,3800,2606,6718,1759,4107,-83,-3396,183,159,834
353475,1981340,1946524,1989080,2021848,2227,3800,2160,6175,1122,4377,1732,-3640,166,150,832
354476,1982108,1947344,1989686,2022454,2782,3800,1733,5705,422,4258,2778,-3517,166,150,832
355477,1982824,1948100,1990292,2023060,3060,3800,1238,5231,-288,3828,3656,-3486,163,147,832
356478,1983564,1948860,1990898,2023666,2852,3800,720,4701,-1045,3254,5514,-3680,163,147,832
357479,1984356,1949656,1991504,2024272,2448,3800,190,4145,-1876,2782,6299,-3608,181,159,832
358480,1985120,1950408,1992110,2024878,2554,3800,-223,3760,-2602,2560,5584,-3135,181,159,832
359481,1985808,1951256,1992716,2025484,2994,3800,-585,3506,-3183,1913,6326,-2714,182,158,832
360482,1986568,1952112,1993322,2026090,2479,3800,-1074,3401,-3836,1128,7483,-2485,182,158,832
361483,1987316,1952860,1993928,2026696,2492,3800,-1668,3329,-4554,851,7971,-2425,167,168,833
362491,1987980,1953824,1994556,2027324,3002,3800,-2253,3258,-5287,361,8432,-2447,167,168,833
363485,1988656,1954668,1995162,2027930,2898,3800,-2835,3173,-5956,17,7465,-2044,160,178,832
364486,1989300,1955552,1995768,2028536,3083,3800,-3358,3228,-6384,-150,6287,-1616,160,178,832
365487,1989904,1956572,1996374,2029142,3335,3800,-3753,3172,-6534,136,6040,-2282,133,174,832
366488,1990504,1957488,1996980,2029748,3363,3800,-3984,2681,-6500,524,5960,-3434,133,174,832
367489,1991044,1958460,1997586,2030354,3768,3800,-4140,1781,-6296,889,5396,-3876,128,210,831
368503,1991560,1959488,1998192,2030960,3800,3800,-4189,732,-5855,1214,4458,-4116,128,210,831
369491,1992124,1960560,1998798,2031566,3679,3800,-4234,-470,-5280,1382,3602,-4397,116,219,830
370504,1992652,1961736,1999404,2032172,3800,3800,-4312,-1589,-4596,1128,3035,-3724,116,219,830
371506,1993144,1962680,2000010,2032778,3800,3800,-4426,-2560,-3852,979,2701,-3242,108,223,828
372506,1993704,1963672,2000616,2033384,3800,3800,-4653,-3405,-3144,997,2376,-2938,108,223,828
373508,1994212,1964592,2001222,2033990,3800,3800,-4933,-4090,-2443,759,2093,-2292,111,210,828
374508,1994732,1965476,2001828,2034596,3800,3800,-5279,-4696,-1763,628,1509,-1923,111,210,828
375510,1995276,1966380,2002434,2035202,3800,3800,-5687,-5216,-1155,590,1444,-1383,111,193,827
376498,1995876,1967356,2003040,2035808,3679,3800,-6105,-5519,-603,751,1554,-629,111,193,827
377512,1996448,1968284,2003646,2036414,3800,3800,-6581,-5714,-171,1019,1913,-293,115,196,827
378513,1997008,1969268,2004252,2037020,3800,3800,-7052,-5843,156,981,2118,237,115,196,827
379501,1997684,1970272,2004858,2037626,3212,3800,-7495,-5869,402,1030,2092,841,126,194,828
380502,1998320,1971188,2005464,2038232,3451,3800,-8017,-5601,536,1280,2027,2424,126,194,828
381503,1998964,1972260,2006070,2038838,3385,3800,-8709,-4511,542,1578,1344,5801,140,206,829
382504,1999728,1973220,2006676,2039444,2567,3800,-9416,-2988,414,1706,548,6125,140,206,829
383505,2000444,1974148,2007282,2040050,2820,3800,-10013,-1577,185,1753,129,5821,152,199,832
384506,2001212,1975020,2007888,2040656,2425,3800,-10525,-308,-79,1686,-471,6225,152,199,832
385507,2002020,1975832,2008494,2041262,2088,3800,-10994,915,-345,1632,-1028,6413,145,173,834
386508,2002824,1976672,2009100,2041868,2027,3800,-11399,2020,-625,1581,-1527,6225,145,173,834
387509,2003588,1977340,2009706,2042474,2209,3800,-11694,2864,-995,1691,-1183,5575,139,143,833
388510,2004484,1978024,2010312,2043080,1258,3800,-11914,3431,-1530,1596,-1465,5304,139,143,833
389518,2005256,1978608,2010940,2043708,1970,3800,-12049,3742,-2288,949,-1454,4876,160,135,832
390512,2006004,1979208,2011546,2044314,2059,3800,-12007,3886,-3266,22,-1333,4597,160,135,832
391512,2006824,1979732,2012152,2044920,1516,3800,-11715,3687,-4399,-792,-1225,3232,162,117,833
392514,2007620,1980304,2012758,2045526,1583,3800,-11242,3240,-5477,-1325,-1908,3224,162,117,833
393515,2008408,1980780,2013364,2046132,1554,3800,-7605,8105,-5594,-4607,-9748,32767,164,108,832
394516,2009232,1981208,2013970,2046738,1235,3800,151,21095,-4369,-7902,-15671,32767,164,108,832
395517,2009988,1981632,2014576,2047344,1595,3800,4936,25059,-4146,-981,-2743,2400,150,106,833
396518,2010696,1982124,2015182,2047950,1851,3800,5617,20806,-4765,-391,-750,-6517,150,106,833
397519,2011488,1982580,2015788,2048556,1245,3800,5020,14193,-5306,-835,-2753,-7719,148,100,833
398520,2012212,1983092,2016394,2049162,1618,3800,6161,7932,-5021,-6873,-7683,3535,148,100,833
399521,2012860,1983572,2017000,2049768,2076,3800,8038,1174,-3892,-13020,-8442,-1266,155,103,832
400522,2013544,1984060,2017606,2050374,1818,3800,8462,-5416,-2287,-12456,-9316,-4653,155,103,832
401523,2014144,1984624,2018212,2050980,2346,3800,7540,-10704,-599,-11964,-10641,-931,137,115,832
402524,2014712,1985160,2018818,2051586,2564,3800,6434,-14308,648,-10005,-9505,579,137,115,832
403525,2015280,1985712,2019424,2052192,2581,3800,5690,-16889,1233,-7514,-7408,157,126,98,831
404526,2015796,1986292,2020030,2052798,2946,3800,5158,-18442,1429,-5322,-5986,1925,126,98,831
405527,2016268,1986868,2020636,2053404,3281,3800,3677,-17263,2059,-3768,-2973,10789,126,110,830
406528,2016732,1987548,2021242,2054010,3394,3800,871,-13296,3464,-3948,-1461,17098,126,110,830
407529,2017188,1988252,2021848,2054616,3511,3800,-1427,-10966,4574,-4745,-1935,7824,95,125,828
408543,2017592,1989036,2022454,2055222,3800,3800,-1927,-12386,4957,-5494,-711,-433,95,125,828
409544,2018008,1989808,2023060,2055828,3800,3800,-1376,-15061,5193,-4799,214,-368,96,133,827
410545,2018388,1990604,2023666,2056434,3800,3800,-955,-17275,5459,-2381,467,-7,96,133,827
411546,2018788,1991416,2024272,2057040,3800,3800,-866,-18458,5947,-949,362,2516,80,154,823
412547,2019172,1992268,2024878,2057646,3800,3800,-974,-18458,6805,966,-407,5094,80,154,823
413547,2019576,1993252,2025484,2058252,3800,3800,-1240,-17636,7800,3574,-1147,6828,80,176,823
414549,2019948,1994092,2026090,2058858,3800,3800,-1503,-16704,8813,4189,-1302,7448,80,176,823
415549,2020324,1995028,2026696,2059464,3800,3800,-1456,-16250,9701,4512,-1543,5940,77,168,825
416560,2020768,1995992,2027324,2060092,3800,3800,-1214,-16106,10256,5405,-1531,5001,77,168,825
417552,2021180,1996900,2027930,2060698,3800,3800,-802,-15982,10561,5405,-1111,5175,84,173,825
418553,2021568,1997948,2028536,2061304,3800,3800,-335,-15545,10662,5242,-1279,5991,84,173,825
419554,2022064,1999032,2029142,2061910,3800,3800,120,-14625,10608,5326,-1239,6970,89,195,827
420555,2022500,1999960,2029748,2062516,3800,3800,608,-13192,10479,5011,-218,8179,89,195,827
421556,2022952,2000868,2030354,2063122,3800,3800,1185,-11437,10245,5307,-191,8705,89,198,827
422557,2023484,2001916,2030960,2063728,3800,3800,1845,-9313,9862,5161,-183,9445,89,198,827
423558,2023988,2002800,2031566,2064334,3800,3800,2586,-7116,9500,4671,-534,9768,94,184,827
424559,2024512,2003664,2032172,2064940,3800,3800,3367,-4918,9042,4500,-1230,9308,94,184,827
425560,2025068,2004488,2032778,2065546,3800,3800,4142,-2672,8433,3900,-1312,8892,94,166,826
426561,2025668,2005244,2033384,2066152,3800,3800,4980,-490,7841,3421,-1950,8469,94,166,826
427562,2026192,2005988,2033990,2066758,3800,3800,5730,1864,7293,3185,-3503,8848,112,157,826
428550,2026848,2006628,2034596,2067364,3644,3800,6510,3992,6732,2009,-3347,7077,112,157,826
429551,2027500,2007404,2035202,2067970,3650,3800,7374,5352,5714,1112,-1286,4373,128,147,825
430552,2028140,2007976,2035808,2068576,3712,3800,8069,6326,4333,979,-1458,3904,128,147,825
431553,2028836,2008652,2036414,2069182,3324,3800,8454,7689,2982,1515,-788,5765,129,144,825
432554,2029552,2009264,2037020,2069788,3152,3800,8472,9772,1965,3274,-764,7393,129,144,825
433555,2030216,2009988,2037626,2070394,3453,3800,8317,12107,1321,4463,-1019,7108,146,139,825
434556,2031028,2010604,2038232,2071000,2438,3800,8191,13714,791,4402,-1419,4429,146,139,825
435557,2031748,2011244,2038838,2071606,2965,3800,8259,13986,1,4587,-234,4,159,128,827
436558,2032508,2011820,2039444,2072212,2649,3800,8456,12817,-994,5081,94,-3682,159,128,827
437559,2033300,2012464,2040050,2072818,2369,3800,8440,11198,-1912,6315,-33,-4065,138,133,832
438560,2034036,2013036,2040656,2073424,2663,3800,8166,9702,-2587,6587,-702,-3967,138,133,832
439561,2034776,2013792,2041262,2074030,2580,3800,7694,8336,-3050,6431,-745,-3667,148,120,830
440562,2035600,2014424,2041868,2074636,1960,3800,7137,6844,-3515,6221,111,-4029,148,120,830
441563,2036424,2015096,2042474,2075242,1865,3800,6488,5351,-3913,6167,983,-3828,147,125,830
442564,2037212,2015740,2043080,2075848,2012,3800,5864,3681,-4353,5682,2358,-4971,147,125,830
443572,2037984,2016480,2043708,2076476,2050,3800,5196,1938,-4766,5281,2580,-4726,158,150,833
444566,2038728,2017252,2044314,2077082,2165,3800,4522,428,-4986,4678,1916,-3898,158,150,833
445567,2039456,2017976,2044920,2077688,2213,3800,3840,-564,-5062,4213,1708,-2684,169,145,833
446568,2040176,2018756,2045526,2078294,2214,3800,3143,-1101,-5072,3358,1546,-1584,169,145,833
447569,2040976,2019604,2046132,2078900,1629,3800,2485,-1470,-5088,2970,1926,-1660,151,155,832
448570,2041708,2020428,2046738,2079506,2000,3800,1840,-2077,-5139,3139,2372,-2168,151,155,832
449571,2042392,2021252,2047344,2080112,2267,3800,1173,-2440,-5135,2975,2478,-1071,144,171,834
450572,2043100,2022084,2047950,2080718,2073,3800,481,-2266,-5002,2075,2272,358,144,171,834
451573,2043740,2023060,2048556,2081324,2484,3800,-381,-1354,-4518,1273,621,2641,127,195,835
452574,2044360,2024132,2049162,2081930,2604,3800,-1785,743,-3441,1447,-807,6561,127,195,835
453575,2045020,2025088,2049768,2082536,2331,3800,-3029,2772,-2502,733,1280,3850,136,202,835
454576,2045604,2026116,2050374,2083142,2817,3800,-3583,3444,-2202,-330,3621,171,136,202,835
455577,2046232,2027252,2050980,2083748,2532,3800,-3845,3325,-2237,-983,4492,-299,132,203,833
456578,2046916,2028260,2051586,2084354,2149,3800,-4148,3222,-2221,-1477,5221,-294,132,203,833
457579,2047440,2029252,2052192,2084960,3186,3800,-4569,3491,-2022,-1219,5611,123,133,200,833
458593,2047848,2030236,2052798,2085566,3800,3800,-5037,3960,-1687,-676,5808,154,133,200,833
459581,2048400,2031160,2053404,2086172,3124,3800,-5479,4100,-1307,-591,5484,-716,127,206,835
460582,2048896,2032064,2054010,2086778,3523,3800,-5851,3868,-957,-510,4858,-1145,127,206,835
461596,2049340,2033084,2054616,2087384,3800,3800,-6203,3417,-676,-213,4389,-1361,123,193,829
462584,2049848,2034032,2055222,2087990,3564,3800,-6614,2909,-459,151,4033,-1335,123,193,829
463598,2050284,2035020,2055828,2088596,3800,3800,-7044,2427,-251,362,3411,-1008,107,200,829
464599,2050744,2035936,2056434,2089202,3800,3800,-7493,2140,12,775,2274,95,107,200,829
465600,2051208,2036888,2057040,2089808,3800,3800,-7960,2096,322,1378,1467,1119,106,195,829
466601,2051648,2037968,2057646,2090414,3800,3800,-8354,2087,588,2044,1370,1308,106,195,829
467602,2052096,2038916,2058252,2091020,3800,3800,-8656,1740,723,2865,1270,447,111,197,826
468603,2052584,2039792,2058858,2091626,3800,3800,-8944,1094,734,3121,1098,278,111,197,826
469604,2053056,2040608,2059464,2092232,3800,3800,-9193,422,777,3259,567,650,105,176,827
470611,2053500,2041344,2060092,2092860,3800,3800,-9421,-90,815,3297,232,1105,105,176,827
471606,2053992,2042072,2060698,2093466,3800,3800,-9570,-436,806,3080,-150,1767,94,139,825
472606,2054452,2042596,2061304,2094072,3800,3800,-9610,-595,727,3000,-603,2562,94,139,825
473608,2054940,2043056,2061910,2094678,3800,3800,-9577,-531,602,2773,-1172,3673,103,112,824
474609,2055456,2043504,2062516,2095284,3800,3800,-9570,-151,480,2235,-1460,4958,103,112,824
475610,2055948,2043832,2063122,2095890,3800,3800,-9507,368,291,1914,-1372,5129,95,87,823
476611,2056412,2044120,2063728,2096496,3800,3800,-9450,918,-73,1941,-1449,5421,95,87,823
477612,2056960,2044388,2064334,2097102,3800,3800,-9439,1406,-663,1904,-1159,5300,115,69,820
478613,2057444,2044608,2064940,2097708,3800,3800,-9495,1900,-1425,1703,-1255,5769,115,69,820
479613,2057980,2044832,2065546,2098314,3800,3800,-9481,2328,-2308,895,-1167,5665,92,42,819
480614,2058528,2045028,2066152,2098920,3800,3800,-7936,4544,-3015,-728,-3313,16801,92,42,819
481615,2059064,2045192,2066758,2099526,3800,3800,-1221,18901,-2504,-5104,-11545,32767,107,57,818
482617,2059588,2045428,2067364,2100132,3800,3800,4875,28975,-2593,278,-1138,21419,107,57,818
483618,2060140,2045616,2067970,2100738,3800,3800,6001,27949,-3879,2014,3809,-3247,112,52,820
484618,2060744,2045836,2068576,2101344,3800,3800,4681,22772,-5404,2410,2098,-3745,112,52,820
485619,2061304,2046036,2069182,2101950,3800,3800,3366,18009,-6458,2727,-52,-4247,108,41,820
486620,2061904,2046244,2069788,2102556,3800,3800,2763,14998,-6923,2020,-405,-3346,108,41,820
487621,2062540,2046484,2070394,2103162,3800,3800,3872,11096,-6758,-2138,-3042,3560,123,57,820
488622,2063140,2046732,2071000,2103768,3800,3800,6506,4426,-5727,-10236,-6461,11356,123,57,820
489611,2063800,2046928,2071606,2104374,3719,3800,7042,-2237,-4596,-8254,-4582,-3644,117,58,821
490612,2064552,2047248,2072212,2104980,3081,3800,5926,-7718,-3673,-7846,-4143,-2604,117,58,821
491613,2065260,2047572,2072818,2105586,3313,3800,3432,-9840,-2761,-5465,-3165,6439,139,67,822
492614,2065980,2047904,2073424,2106192,3189,3800,155,-8484,-1924,-3156,-1057,11896,139,67,822
493615,2066736,2048268,2074030,2106798,2900,3800,-2210,-7435,-1584,-3686,-216,5383,137,79,825
494616,2067516,2048672,2074636,2107404,2674,3800,-2771,-8893,-1465,-4214,-758,-1040,137,79,825
495617,2068276,2049092,2075242,2108010,2733,3800,-2471,-11455,-1193,-3300,-432,-1568,145,84,827
496618,2069124,2049520,2075848,2108616,2078,3800,-2251,-13341,-624,-2859,-1028,-125,145,84,827
497626,2069956,2050024,2076476,2109244,2090,3800,-2224,-14478,158,-3437,-1082,817,171,94,828
498620,2070760,2050572,2077082,2109850,2179,3800,-2255,-15188,923,-3892,-383,2243,171,94,828
499621,2071668,2051020,2077688,2110456,1398,3800,-2277,-15300,1518,-3903,323,4357,155,95,830
500622,2072500,2051620,2078294,2111062,1775,3800,-2255,-14891,1948,-4264,395,5249,155,95,830
501623,2073292,2052160,2078900,2111668,1944,3800,-2249,-13838,2264,-4521,-20,7705,158,114,830
502624,2074220,2052836,2079506,2112274,953,3800,-2250,-12321,2543,-4777,-603,9144,158,114,830
503625,2074956,2053552,2080112,2112880,2097,3800,-2155,-10526,2795,-5095,-944,9522,139,113,833
504626,2075736,2054328,2080718,2113486,1747,3800,-1907,-8733,2996,-5477,-1008,9370,139,113,833
505627,2076480,2055084,2081324,2114092,1912,3800,-1503,-7108,3102,-5898,-1034,9031,149,143,835
506628,2077216,2055920,2081930,2114698,1906,3800,-996,-5711,3179,-6148,-1446,8520,149,143,835
507629,2077952,2056712,2082536,2115304,1850,3800,-364,-4422,3332,-6102,-1902,7962,168,162,834
508630,2078712,2057748,2083142,2115910,1632,3800,307,-3228,3542,-5745,-1875,7486,168,162,834
509631,2079368,2058668,2083748,2116516,2261,3800,1028,-2262,3801,-5077,-1749,6624,133,176,834
510632,2079996,2059560,2084354,2117122,2428,3800,1778,-1574,4086,-4288,-1750,5692,133,176,834
511633,2080664,2060564,2084960,2117728,2151,3800,2607,-1272,4344,-3558,-1818,4394,148,176,834
512634,2081312,2061564,2085566,2118334,2259,3800,3461,-1330,4565,-2982,-1862,3236,148,176,834
513635,2081876,2062548,2086172,2118940,2803,3800,4330,-1761,4784,-2159,-2103,1791,151,198,834
514636,2082528,2063624,2086778,2119546,2233,3800,5187,-2556,5031,-1112,-2270,525,151,198,834
515637,2083036,2064752,2087384,2120152,3177,3800,6013,-3569,5261,-209,-2498,-305,122,202,835
516638,2083580,2065720,2087990,2120758,2980,3800,6824,-4783,5475,515,-2974,-1347,122,202,835
517639,2084168,2066696,2088596,2121364,2714,3800,7593,-6187,5713,1298,-3694,-1708,121,204,835
518640,2084688,2067736,2089202,2121970,3178,3800,8324,-7585,5971,1845,-4398,-1819,121,204,835
519641,2085188,2068804,2089808,2122576,3351,3800,8928,-8716,6235,2328,-5020,-1044,114,204,832
520642,2085716,2069764,2090414,2123182,3210,3800,9386,-9346,6475,2482,-5264,89,114,204,832
521643,2086272,2070716,2091020,2123788,3058,3800,9743,-9736,6589,2565,-5096,215,119,186,830
522644,2086780,2071628,2091626,2124394,3402,3800,10010,-9956,6577,2446,-5597,416,119,186,830
523645,2087284,2072628,2092232,2125000,3473,3800,10188,-9942,6500,2472,-5653,782,106,191,829
524655,2087852,2073556,2092860,2125628,3100,3800,10194,-9453,6366,2343,-5471,1916,106,191,829
525647,2088440,2074476,2093466,2126234,2984,3800,10021,-8479,6291,1962,-5137,2840,121,185,830
526648,2088956,2075508,2094072,2126840,3475,3800,9766,-7237,6279,1869,-4181,3053,121,185,830
527649,2089580,2076432,2094678,2127446,2793,3800,9457,-5694,6261,1712,-3887,3593,137,201,830
528650,2090188,2077320,2095284,2128052,2893,3800,9129,-4094,6225,1548,-3625,3234,137,201,830
529651,2090732,2078352,2095890,2128658,3321,3800,8830,-2768,6075,1104,-2937,2126,118,193,829
530652,2091352,2079380,2096496,2129264,2841,3800,8512,-1615,5665,566,-1442,1616,118,193,829
531653,2091904,2080260,2097102,2129870,3291,3800,8030,-453,4994,422,-87,1516,114,180,831
532654,2092544,2081180,2097708,2130476,2727,3800,7328,726,4155,371,825,1397,114,180,831
533655,2093080,2082128,2098314,2131082,3409,3800,6611,1677,3265,470,1089,153,126,191,830
534656,2093644,2083048,2098920,2131688,3253,3800,5913,2229,2483,698,1478,-749,126,191,830
535657,2094260,2084004,2099526,2132294,2925,3800,5163,2513,1929,1537,1556,-1315,123,192,832
536658,2094912,2085016,2100132,2132900,2680,3800,4279,2642,1686,2956,1237,-1633,123,192,832
537659,2095484,2085992,2100738,2133506,3196,3800,3325,2689,1727,4037,598,-1826,115,191,829
538660,2096112,2086940,2101344,2134112,2838,3800,2443,2502,1903,4462,-102,-2438,115,191,829
539661,2096812,2087984,2101950,2134718,2347,3800,1794,1714,2073,4226,158,-3785,124,188,832
540662,2097468,2089076,2102556,2135324,2601,3800,1235,467,2169,5025,1586,-4041,124,188,832
541663,2098124,2090192,2103162,2135930,2580,3800,727,-835,2209,5864,2474,-4959,146,218,833
542664,2098788,2091232,2103768,2136536,2506,3800,330,-2536,2162,5943,3959,-6524,146,218,833
543665,2099388,2092388,2104374,2137142,2910,3800,-59,-4637,1980,6342,5023,-6908,119,241,834
544666,2099924,2093512,2104980,2137748,3341,3800,-491,-6621,1753,6493,5035,-6151,119,241,834
545667,2100556,2094628,2105586,2138354,2731,3800,-867,-7956,1689,6512,4558,-4555,114,240,834
546668,2101176,2095860,2106192,2138960,2801,3800,-1228,-8598,1696,6893,4816,-2659,114,240,834
547669,2101792,2096960,2106798,2139566,2822,3800,-1649,-8335,1806,6507,4343,271,130,236,832
548670,2102488,2098052,2107404,2140172,2284,3800,-2131,-7348,1957,5793,3780,1970,130,236,832
549671,2103196,2099088,2108010,2140778,2164,3800,-2524,-6410,1995,5346,3731,1381,129,235,834
550672,2103956,2100160,2108616,2141384,1772,3800,-2786,-5300,1815,4849,4598,2696,129,235,834
551680,2104624,2101356,2109244,2142012,2331,3800,-3056,-3729,1498,4355,4653,3977,139,224,836
552674,2105368,2102316,2109850,2142618,1796,3800,-3428,-1633,1208,4004,4265,5104,139,224,836
553675,2106008,2103348,2110456,2143224,2432,3800,-3944,984,1041,3608,4368,6486,138,210,838
554676,2106704,2104288,2111062,2143830,2044,3800,-4506,3882,857,3571,4698,6662,138,210,838
555677,2107428,2105160,2111668,2144436,1818,3800,-4911,6181,518,4004,5464,4442,148,204,836
556678,2108084,2106036,2112274,2145042,2222,3800,-5133,7564,87,5108,5724,2661,148,204,836
557679,2108744,2106756,2112880,2145648,2173,3800,-5306,8426,-364,6823,5697,1444,141,156,835
558680,2109416,2107476,2113486,2146254,2070,3800,-5495,8545,-781,7512,5462,-784,141,156,835
559681,2109972,2108068,2114092,2146860,2818,3800,-5607,8338,-1076,7447,4160,-1330,138,134,832
560682,2110588,2108596,2114698,2147466,2440,3800,-5644,7757,-1291,6644,3626,-2068,138,134,832
561683,2111168,2109120,2115304,2148072,2676,3800,-5798,6936,-1628,6535,4434,-2142,115,111,830
562684,2111664,2109532,2115910,2148678,3250,3800,-6334,6372,-2211,6879,5058,-1462,115,111,830
563685,2112220,2109932,2116516,2149284,2898,3800,-6984,5727,-2975,6338,5323,-2241,119,90,829
564686,2112724,2110312,2117122,2149890,3269,3800,-7562,4862,-3733,5572,4111,-2333,119,90,829
565700,2113068,2110672,2117728,2150496,3800,3800,-8072,3872,-4262,5188,2374,-1754,108,78,824
566688,2113536,2110996,2118334,2151102,3672,3800,-8540,3338,-4563,5417,997,-374,108,78,824
567689,2113996,2111344,2118940,2151708,3786,3800,-8970,3053,-4759,4738,529,-160,105,78,823
568702,2114436,2111624,2119546,2152314,3800,3800,-9362,2821,-5006,3283,522,316,99,63,820
569703,2114836,2111880,2120152,2152920,3800,3800,-9805,2536,-5311,2500,215,664,99,63,820
570704,2115264,2112156,2120758,2153526,3800,3800,-10172,2370,-5544,2307,-693,694,82,48,820
571705,2115668,2112388,2121364,2154132,3800,3800,-10475,2186,-5574,2252,-1640,953,82,48,820
572707,2116068,2112676,2121970,2154738,3800,3800,-10674,2089,-5467,1849,-2561,1676,78,76,819
573707,2116488,2113012,2122576,2155344,3800,3800,-10627,1380,-5023,1166,-3513,916,78,76,819
574709,2116852,2113316,2123182,2155950,3800,3800,-10496,934,-4786,1269,-3753,1313,78,63,820
575709,2117272,2113600,2123788,2156556,3800,3800,-10442,569,-4632,747,-3850,1876,78,63,820
576710,2117692,2113944,2124394,2157162,3800,3800,-10357,361,-4362,225,-4986,2554,95,80,819
577711,2118092,2114324,2125000,2157768,3800,3800,-10315,423,-3988,-686,-5504,3863,95,80,819
578719,2118528,2114672,2125628,2158396,3800,3800,-10349,816,-3603,-1751,-5963,5325,92,81,820
579714,2118984,2114988,2126234,2159002,3800,3800,-7793,4909,-2830,-4138,-10270,23801,92,81,820
580714,2119404,2115368,2126840,2159608,3800,3800,2261,26539,-129,-9972,-24507,32767,100,72,820
581715,2119848,2115764,2127446,2160214,3800,3800,10793,32297,1735,121,-11244,25288,100,72,820
582716,2120344,2116136,2128052,2160820,3800,3800,12472,32297,1889,3039,-3669,-5660,93,72,821
583717,2120836,2116496,2128658,2161426,3800,3800,10720,32297,1435,3075,-2366,-7583,93,72,821
584718,2121304,2116936,2129264,2162032,3800,3800,8602,27261,1141,2337,-2634,-5485,103,96,821
585719,2121856,2117404,2129870,2162638,3800,3800,6369,23735,1290,-3696,-3100,-1462,103,96,821
586720,2122372,2117824,2130476,2163244,3800,3800,3815,19236,1644,-8083,-4625,-3202,101,104,821
587721,2122920,2118340,2131082,2163850,3800,3800,1501,11093,1705,-12111,-5046,-9419,101,104,821
588723,2123496,2118932,2131688,2164456,3800,3800,-346,1361,1622,-12809,-2674,-9089,122,111,821
589724,2124128,2119460,2132294,2165062,3800,3800,-1786,-5583,1576,-9493,-463,-3822,122,111,821
590725,2124736,2120116,2132900,2165668,3800,3800,-2883,-8746,1468,-5624,-279,-786,134,112,824
591725,2125380,2120680,2133506,2166274,3800,3800,-3440,-9646,1183,-3713,1850,254,134,112,824
592714,2126092,2121412,2134112,2166880,3597,3800,-3879,-9416,854,-1932,3171,2315,138,126,824
593715,2126784,2122148,2134718,2167486,3685,3800,-4155,-9228,580,-1480,3020,2006,138,126,824
594716,2127516,2122952,2135324,2168092,3382,3800,-4226,-10474,398,-2248,3349,310,139,145,827
595717,2128280,2123708,2135930,2168698,3113,3800,-4168,-11406,234,-2123,3370,2472,139,145,827
596718,2129008,2124568,2136536,2169304,3287,3800,-4092,-11741,203,-2225,2459,3298,161,150,829
597719,2129796,2125400,2137142,2169910,2833,3800,-4001,-11384,456,-2151,994,5711,161,150,829
598720,2130592,2126252,2137748,2170516,2701,3800,-4102,-9992,956,-1798,411,9005,159,185,829
599721,2131404,2127276,2138354,2171122,2512,3800,-4252,-8163,1600,-1532,169,9904,159,185,829
600722,2132200,2128196,2138960,2171728,2529,3800,-4201,-6268,2142,-1604,431,9177,176,189,832
601723,2133120,2129140,2139566,2172334,1618,3800,-3929,-4872,2460,-2029,819,8046,176,189,832
602724,2133980,2130180,2140172,2172940,1883,3800,-3578,-3485,2585,-2384,1018,8838,175,188,834
603725,2134936,2131064,2140778,2173546,1130,3800,-3198,-1993,2590,-2926,459,8458,175,188,834
604726,2135876,2132068,2141384,2174152,1084,3800,-2650,-673,2593,-3299,-163,7521,168,172,835
605734,2136740,2133072,2142012,2174780,1456,3800,-1988,574,2621,-3258,-678,7456,168,172,835
606728,2137536,2133864,2142618,2175386,1799,3800,-1294,1696,2739,-2772,-1265,6837,177,187,837
607729,2138388,2134716,2143224,2175992,1342,3800,-554,2659,2866,-2423,-1572,6043,177,187,837
608730,2139284,2135540,2143830,2176598,940,3800,310,3210,2852,-2475,-1712,4372,168,169,834
609731,2139964,2136388,2144436,2177204,2259,3800,1272,3228,2666,-2437,-1900,3039,168,169,834
610732,2140832,2137172,2145042,2177810,970,3800,2240,3040,2411,-2076,-2335,2423,178,153,835
611733,2141604,2137928,2145648,2178416,1498,3800,3090,2810,2237,-1518,-2911,2004,178,153,835
612734,2142368,2138696,2146254,2179022,1478,3800,3870,2368,2113,-848,-3299,1004,143,165,836
613735,2143156,2139412,2146860,2179628,1249,3800,4588,1730,1959,-382,-3470,211,143,165,836
614736,2143860,2140168,2147466,2180234,1732,3800,5283,870,1773,-64,-3455,-702,153,157,835
615737,2144576,2141004,2148072,2180840,1609,3800,5883,-235,1548,369,-3427,-1467,153,157,835
616737,2145316,2141716,2148678,2181446,1401,3800,6366,-1419,1254,201,-2385,-1724,152,159,835
617739,2145996,2142460,2149284,2182052,1744,3800,6691,-2481,851,-63,-1043,-1708,152,159,835
618740,2146600,2143268,2149890,2182658,2220,3800,6796,-3345,237,-608,-1066,-1484,154,147,835
619741,2147292,2144076,2150496,2183264,1634,3800,6673,-4043,-590,-1417,-1116,-1199,154,147,835
620742,2147908,2144952,2151102,2183870,2105,3800,6430,-4641,-1417,-1779,-1473,-956,139,159,832
621743,2148484,2145680,2151708,2184476,2368,3800,6129,-5058,-2019,-2146,-1052,-414,139,159,832
622744,2149100,2146488,2152314,2185082,2115,3800,5852,-5239,-2334,-2905,-198,111,140,169,833
623745,2149656,2147240,2152920,2185688,2512,3800,5622,-5277,-2400,-3519,-934,36,140,169,833
624746,2150216,2148128,2153526,2186294,2508,3800,5382,-5509,-2267,-3958,-1680,-483,137,156,833
625747,2150760,2148964,2154132,2186900,2636,3800,5123,-5714,-1947,-3908,-1454,-306,137,156,833
626748,2151324,2149820,2154738,2187506,2530,3800,4816,-6081,-1533,-3610,-1620,-926,124,165,832
627749,2151856,2150800,2155344,2188112,2763,3800,4575,-6704,-1018,-3143,-2487,-1324,124,165,832
628750,2152276,2151656,2155950,2188718,3546,3800,4345,-7495,-365,-2555,-2353,-1828,119,175,832
629751,2152744,2152612,2156556,2189324,3307,3800,4138,-8610,399,-1888,-1786,-2955,119,175,832
630752,2153160,2153508,2157162,2189930,3716,3800,3947,-9898,1228,-1256,-1038,-3242,81,206,826
631765,2153524,2154628,2157768,2190536,3800,3800,3691,-11274,1956,-949,-264,-3618,81,206,826
632775,2153928,2155548,2158396,2191164,3800,3800,3356,-12534,2596,-576,-26,-3200,79,202,826
633768,2154296,2156656,2159002,2191770,3800,3800,3010,-13624,3261,140,355,-3000,79,202,826
634769,2154672,2157756,2159608,2192376,3800,3800,2603,-14690,3892,659,495,-3014,81,205,826
635769,2155120,2158864,2160214,2192982,3800,3800,2129,-15433,4512,871,86,-1524,81,205,826
636770,2155568,2159936,2160820,2193588,3800,3800,1609,-15417,5215,1106,-402,563,78,198,827
637771,2155944,2160940,2161426,2194194,3800,3800,1084,-15029,5883,1246,-72,1150,78,198,827
638772,2156440,2161876,2162032,2194800,3800,3800,539,-14199,6455,1396,298,2526,93,203,827
639773,2156916,2162844,2162638,2195406,3800,3800,-363,-12499,7089,1773,461,5573,93,203,827
640774,2157296,2163760,2163244,2196012,3800,3800,-1175,-11198,7661,1660,469,2851,86,205,826
641775,2157820,2164764,2163850,2196618,3800,3800,-1579,-10502,7942,1797,1420,2113,86,205,826
642776,2158276,2165776,2164456,2197224,3800,3800,-1847,-9980,8084,1864,1547,2219,86,195,826
643778,2158652,2166804,2165062,2197830,3800,3800,-2080,-9751,8150,2511,1920,1342,86,195,826
644778,2159164,2167780,2165668,2198436,3800,3800,-2374,-9473,8134,3275,2197,1757,93,210,827
645780,2159636,2168784,2166274,2199042,3800,3800,-2626,-8978,8151,3441,2090,2039,93,210,827
646780,2160048,2169832,2166880,2199648,3800,3800,-2783,-8696,8140,3770,1614,1484,96,199,827
647781,2160604,2170772,2167486,2200254,3800,3800,-2899,-8262,8064,4431,1564,2781,96,199,827
648782,2161136,2171624,2168092,2200860,3800,3800,-3174,-7150,8040,5499,1633,5037,103,178,827
649783,2161636,2172416,2168698,2201466,3800,3800,-3643,-5699,8241,6808,-188,5758,103,178,827
650772,2162272,2173112,2169304,2202072,3695,3800,-4168,-4112,8055,6378,1634,6686,123,129,825
651773,2162944,2173648,2169910,2202678,3442,3800,-4697,-2453,7581,6234,1090,7240,123,129,825
652774,2163628,2174144,2170516,2203284,3334,3800,-4876,-1253,6986,6931,1236,4948,140,115,823
653776,2164340,2174548,2171122,2203890,3114,3800,-4670,-1090,6295,6985,1381,2197,140,115,823
654777,2165020,2174848,2171728,2204496,3282,3800,-4276,-1335,5618,7717,855,1985,135,76,823
655777,2165704,2175108,2172334,2205102,3225,3800,-3935,-1453,4880,8541,1155,2145,135,76,823
656778,2166488,2175324,2172940,2205708,2523,3800,-3641,-1432,4066,8531,1472,2274,144,62,824
657780,2167212,2175556,2173546,2206314,2847,3800,-3382,-1316,3277,8756,1307,2721,144,62,824
658780,2167912,2175744,2174152,2206920,2957,3800,-3248,-955,2484,9137,1452,3704,142,37,826
659788,2168688,2175904,2174780,2207548,2418,3800,-3238,-207,1551,8928,3122,4823,142,37,826
660782,2169372,2176064,2175386,2208154,2960,3800,-3499,1118,383,8794,4576,7178,135,35,822
661783,2170092,2176208,2175992,2208760,2686,3800,-3981,2869,-562,8698,2363,7821,135,35,822
662784,2170800,2176396,2176598,2209366,2717,3800,-4410,4393,-1445,7585,2644,6870,133,49,823
663785,2171572,2176584,2177204,2209972,2246,3800,-4563,5169,-2378,7024,2326,4491,133,49,823
664786,2172268,2176792,2177810,2210578,2682,3800,-4635,5387,-3214,6731,1140,3999,121,40,824
665787,2172996,2177012,2178416,2211184,2429,3800,-4787,5599,-3880,6189,580,3945,121,40,824
666788,2173700,2177248,2179022,2211790,2537,3800,-5028,5854,-4418,5649,516,3700,130,49,825
667789,2174364,2177504,2179628,2212396,2763,3800,-5293,5996,-4838,5008,504,3369,130,49,825
668790,2175012,2177796,2180234,2213002,2845,3800,-5553,6037,-5122,4266,579,3323,128,68,826
669791,2175644,2178056,2180840,2213608,2935,3800,-5744,5795,-5325,3670,1492,2178,128,68,826
670792,2176240,2178440,2181446,2214214,3165,3800,-5839,5340,-5464,3029,1895,1702,123,73,826
671793,2176820,2178856,2182052,2214820,3278,3800,-5986,5133,-5444,2521,1225,3038,123,73,826
672794,2177484,2179244,2182658,2215426,2728,3800,-6227,5202,-5256,2184,1149,3439,109,92,824
673795,2178048,2179760,2183264,2216032,3373,3800,-6427,5246,-5015,2002,1680,3216,109,92,824
674809,2178524,2180268,2183870,2216638,3800,3800,-6589,5060,-4745,1907,1550,2740,102,101,825
675810,2179028,2180780,2184476,2217244,3800,3800,-6701,4703,-4438,1588,1458,2605,102,101,825
676811,2179520,2181380,2185082,2217850,3800,3800,-6775,4478,-4033,1081,899,3369,105,104,822
677799,2180064,2181908,2185688,2218456,3681,3800,-6864,4458,-3574,745,578,3895,105,104,822
678800,2180624,2182564,2186294,2219062,3602,3800,-6921,4452,-3124,520,624,3766,112,127,822
679814,2181084,2183192,2186900,2219668,3800,3800,-5160,6869,-2379,-575,-3371,23975,112,127,822
680815,2181608,2183828,2187506,2220274,3800,3800,413,18209,-728,-2697,-11361,32767,127,125,824
681816,2182136,2184520,2188112,2220880,3800,3800,4442,24432,422,300,-2772,15674,127,125,824
682817,2182620,2185256,2188718,2221486,3800,3800,5207,23233,768,797,201,-1337,106,150,824
683818,2183136,2186016,2189324,2222092,3800,3800,4342,19294,794,931,-195,-2429,106,150,824
684806,2183716,2186944,2189930,2222698,3723,3800,3885,16137,879,444,-494,-3098,127,154,825
685820,2184236,2187704,2190536,2223304,3800,3800,3786,14009,1252,-295,-766,-1920,127,154,825
686828,2184768,2188608,2191164,2223932,3800,3800,3832,12923,1795,-99,-1733,-418,119,170,825
687822,2185328,2189464,2191770,2224538,3800,3800,3628,12068,2417,-15,-2637,735,119,170,825
688823,2185896,2190372,2192376,2225144,3800,3800,3315,11562,3065,-457,-3165,2060,117,161,826
689824,2186484,2191388,2192982,2225750,3800,3800,2982,11029,3538,-838,-3392,1858,117,161,826
690812,2187148,2192224,2193588,2226356,3305,3800,2626,10518,3702,-1267,-3286,2143,119,193,827
691813,2187784,2193264,2194194,2226962,3468,3800,2299,9954,3583,-1766,-2864,1639,119,193,827
692814,2188404,2194304,2194800,2227568,3563,3800,1958,9341,3277,-1991,-3151,1705,144,203,829
693815,2189140,2195292,2195406,2228174,2782,3800,1659,8822,2878,-2461,-3494,1923,144,203,829
694816,2189820,2196312,2196012,2228780,3101,3800,1381,8365,2389,-2738,-3600,2068,141,210,829
695817,2190516,2197324,2196618,2229386,2962,3800,1121,8061,1683,-2622,-3319,2233,141,210,829
696818,2191276,2198312,2197224,2229992,2496,3800,788,7927,831,-2672,-3337,3029,140,210,831
697819,2191988,2199156,2197830,2230598,2751,3800,471,7938,3,-2307,-3931,3280,140,210,831
698820,2192716,2200080,2198436,2231204,2598,3800,275,7923,-707,-1433,-4517,3167,142,181,831
699821,2193456,2200944,2199042,2231810,2465,3800,243,8025,-1297,-1071,-4204,3605,142,181,831
700822,2194296,2201776,2199648,2232416,1738,3800,341,7996,-1859,-942,-3420,2883,169,165,832
701823,2195064,2202532,2200254,2233022,2118,3800,450,7733,-2498,-893,-2579,2275,169,165,832
702824,2195860,2203216,2200860,2233628,1861,3800,574,7405,-3094,-1165,-2528,2218,171,139,833
703825,2196716,2203900,2201466,2234234,1377,3800,713,7036,-3580,-1359,-2608,1868,171,139,833
704826,2197500,2204448,2202072,2234840,1750,3800,875,6554,-3940,-1670,-2833,1657,143,123,832
705827,2198236,2205064,2202678,2235446,1994,3800,1090,6180,-4118,-2021,-2733,1969,143,123,832
706828,2199076,2205664,2203284,2236052,1242,3800,1337,5705,-4166,-2203,-3011,1434,160,122,832
707829,2199796,2206180,2203890,2236658,1942,3800,1599,5151,-4194,-2635,-1820,1199,160,122,832
708830,2200556,2206688,2204496,2237264,1625,3800,1826,4451,-4283,-3502,-77,820,171,115,832
709831,2201380,2207192,2205102,2237870,1130,3800,1955,3720,-4502,-4011,220,599,171,115,832
710832,2202180,2207732,2205708,2238476,1196,3800,2008,2798,-4808,-4472,466,118,171,111,832
711833,2202992,2208280,2206314,2239082,1030,3800,2106,1927,-5018,-4757,-342,229,171,111,832
712834,2203816,2208880,2206920,2239688,861,3800,2089,1144,-4971,-5229,-1231,369,145,111,833
713842,2204644,2209484,2207548,2240316,748,3800,1927,424,-4669,-5794,-1449,417,145,111,833
714836,2205288,2210124,2208154,2240922,1882,3800,1733,-256,-4177,-5993,-1440,560,151,131,834
715837,2206060,2210832,2208760,2241528,1010,3800,1590,-913,-3561,-6318,-1028,414,151,131,834
716838,2206844,2211436,2209366,2242134,857,3800,1465,-1670,-2848,-6612,-1052,67,153,122,833
717839,2207368,2212124,2209972,2242740,2519,3800,1355,-2546,-2081,-6654,-1153,-24,153,122,833
718840,2208064,2212740,2210578,2243346,1404,3800,1243,-3322,-1312,-6668,-1294,467,141,129,835
719841,2208744,2213440,2211184,2243952,1473,3800,1127,-3903,-578,-6960,-1064,833,141,129,835
720842,2209372,2214172,2211790,2244558,1788,3800,1001,-4400,149,-7152,-1982,822,142,146,832
721844,2210036,2214880,2212396,2245164,1538,3800,815,-5003,910,-7397,-3123,776,142,146,832
722844,2210632,2215712,2213002,2245770,1968,3800,632,-5591,1723,-7524,-3663,1045,125,150,832
723845,2211176,2216480,2213608,2246376,2320,3800,429,-6143,2570,-7610,-3718,1201,125,150,832
724846,2211708,2217284,2214214,2246982,2429,3800,269,-6847,3503,-7849,-4370,839,113,165,833
725847,2212252,2217948,2214820,2247588,2381,3800,190,-7682,4459,-8310,-4427,1053,113,165,833
726848,2212704,2218932,2215426,2248194,3025,3800,158,-8354,5359,-8628,-4125,1816,123,176,833
727849,2213176,2219896,2216032,2248800,2959,3800,131,-8906,6242,-8550,-4278,1892,123,176,833
728850,2213572,2220800,2216638,2249406,3527,3800,178,-9627,7152,-7546,-3827,1323,92,188,830
729864,2213936,2221852,2217244,2250012,3800,3800,278,-11065,7956,-5164,-2878,-653,92,188,830
730852,2214340,2222884,2217850,2250618,3673,3800,416,-13030,8637,-2798,-2288,-1653,89,199,827
731866,2214680,2223944,2218456,2251224,3800,3800,569,-15219,9275,-1056,-1672,-1955,89,199,827
732867,2215032,2224880,2219062,2251830,3800,3800,774,-17569,9774,534,-1114,-2559,74,185,825
733868,2215392,2225788,2219668,2252436,3800,3800,938,-19924,10107,1657,-289,-2192,74,185,825
734869,2215700,2226672,2220274,2253042,3800,3800,1061,-21696,10389,3160,45,-420,64,200,824
735870,2216004,2227508,2220880,2253648,3800,3800,1117,-23106,10555,4487,178,212,64,200,824
736871,2216300,2228376,2221486,2254254,3800,3800,1160,-24395,10575,5429,615,758,77,177,824
737872,2216600,2229368,2222092,2254860,3800,3800,1207,-25414,10460,7002,1411,1616,77,177,824
738873,2216864,2230212,2222698,2255466,3800,3800,1246,-26123,10317,8270,1395,2061,57,196,824
739874,2217124,2231116,2223304,2256072,3800,3800,1336,-26678,10263,8558,959,2773,57,196,824
740884,2217420,2232104,2223932,2256700,3800,3800,1380,-26786,10237,9002,383,4514,56,210,823
741876,2217716,2233016,2224538,2257306,3800,3800,794,-25017,10214,10338,290,10935,56,210,823
742877,2217996,2234016,2225144,2257912,3800,3800,-482,-21761,10096,10228,446,13272,79,200,824
743878,2218284,2234956,2225750,2258518,3800,3800,-1003,-19811,9724,9801,2658,7276,79,200,824
744879,2218600,2235828,2226356,2259124,3800,3800,-1204,-18164,9266,9069,2157,11002,66,187,824
745880,2218896,2236612,2226962,2259730,3800,3800,-1359,-15946,8976,7879,947,11331,66,187,824
746881,2219292,2237360,2227568,2260336,3800,3800,-1142,-14201,8962,7532,-17,8380,85,148,823
747881,2219676,2238036,2228174,2260942,3800,3800,-840,-12448,8562,7384,3543,9799,85,148,823
748883,2220052,2238604,2228780,2261548,3800,3800,-744,-10213,7856,7062,3497,11431,87,107,822
749883,2220548,2239052,2229386,2262154,3800,3800,-501,-7978,7227,6691,2345,10013,87,107,822
750885,2220988,2239416,2229992,2262760,3800,3800,-254,-5500,6703,6544,2909,11740,94,83,821
751885,2221432,2239744,2230598,2263366,3800,3800,-338,-2245,6401,7374,3929,14214,94,83,821
752887,2221972,2240024,2231204,2263972,3800,3800,-552,1133,6014,7948,5037,13059,92,66,817
753888,2222464,2240228,2231810,2264578,3800,3800,-517,3755,5358,7417,5554,10172,92,66,817
754889,2222932,2240432,2232416,2265184,3800,3800,-276,5248,4489,7049,6091,7552,93,35,819
755890,2223536,2240580,2233022,2265790,3800,3800,106,6024,3571,6894,5084,5685,93,35,819
756891,2224032,2240728,2233628,2266396,3800,3800,482,6506,2882,6315,4191,4774,96,44,818
757892,2224540,2240904,2234234,2267002,3800,3800,894,6588,2460,6107,3697,2765,96,44,818
758893,2225112,2241060,2234840,2267608,3800,3800,1238,6149,2073,6422,3960,1673,117,26,817
759894,2225652,2241236,2235446,2268214,3800,3800,1603,5677,1786,6305,3742,1751,117,26,817
760895,2226220,2241392,2236052,2268820,3800,3800,1939,5123,1502,5977,4065,1664,124,33,819
761896,2226736,2241548,2236658,2269426,3800,3800,2379,4518,1058,5119,4771,1083,124,33,819
762897,2227300,2241712,2237264,2270032,3800,3800,2754,3870,529,4660,5998,1490,115,47,818
763898,2227776,2241896,2237870,2270638,3800,3800,2796,3604,-14,5453,7010,2522,115,47,818
764899,2228380,2242092,2238476,2271244,3800,3800,2418,3436,-451,5428,6668,2639,118,36,817
765900,2228856,2242284,2239082,2271850,3800,3800,1989,3179,-832,4263,6108,1991,118,36,817
766901,2229444,2242496,2239688,2272456,3800,3800,1686,2521,-1194,3182,5333,866,107,51,819
767908,2230048,2242740,2240316,2273084,3800,3800,1473,1699,-1348,2430,3549,830,107,51,819
768903,2230704,2242996,2240922,2273690,3800,3800,1045,1346,-1324,2014,2308,2620,112,63,819
769904,2231376,2243288,2241528,2274296,3800,3800,403,1618,-1260,1732,1388,3822,112,63,819
770905,2232104,2243556,2242134,2274902,3800,3800,-479,2596,-1161,1454,-36,5918,133,75,821
771893,2233004,2243960,2242740,2275508,3372,3800,-1997,4622,-723,1041,-3064,9023,133,75,821
772907,2233764,2244376,2243346,2276114,3800,3800,-2804,5025,-822,563,2810,755,160,84,823
773895,2234724,2244780,2243952,2276720,2778,3800,-3163,4450,-1439,205,3882,1498,160,84,823
774896,2235648,2245316,2244558,2277326,2865,3800,-3467,3689,-2045,136,3932,886,159,104,823
775897,2236544,2245856,2245164,2277932,2914,3800,-4051,3309,-2335,208,2854,1491,159,104,823
776898,2237504,2246432,2245770,2278538,2360,3800,-4818,3342,-2317,223,2064,1870,182,115,826
777899,2238472,2247048,2246376,2279144,2153,3800,-5432,3026,-2224,323,1431,225,182,115,826
778900,2239316,2247620,2246982,2279750,2824,3800,-6042,2721,-2075,543,-337,705,174,131,829
779901,2240196,2248404,2247588,2280356,2481,3800,-6509,2306,-1830,887,-633,202,174,131,829
780902,2241108,2249052,2248194,2280962,2147,3800,-6829,2392,-1589,1258,-275,1957,172,144,829
781903,2241960,2249872,2248800,2281568,2415,3800,-7110,3095,-1289,787,-1210,3617,172,144,829
782904,2242792,2250660,2249406,2282174,2443,3800,-7460,3881,-984,177,-1127,3560,176,150,832
783905,2243656,2251532,2250012,2282780,2131,3800,-7719,4222,-854,301,-238,1753,176,150,832
784906,2244308,2252544,2250618,2283386,3436,3800,-7825,4033,-828,529,342,661,156,178,832
785908,2245024,2253360,2251224,2283992,2989,3800,-7816,3690,-849,447,253,636,156,178,832
786908,2245800,2254364,2251830,2284598,2540,3800,-7767,3342,-836,133,-171,870,178,180,830
787909,2246524,2255360,2252436,2285204,2816,3800,-7645,3264,-667,191,-1398,1704,178,180,830
788910,2247208,2256316,2253042,2285810,3032,3800,-7488,3600,-386,345,-2733,2571,163,181,832
789911,2247900,2257304,2253648,2286416,2945,3800,-7202,4037,-86,54,-3461,2702,163,181,832
790912,2248532,2258408,2254254,2287022,3310,3800,-6737,4379,154,-395,-4123,2919,147,201,832
791913,2249148,2259436,2254860,2287628,3407,3800,-6180,4846,312,-283,-4357,3615,147,201,832
792914,2249860,2260460,2255466,2288234,2761,3800,-5576,5575,482,176,-4560,4004,148,207,831
793915,2250480,2261536,2256072,2288840,3331,3800,-4926,6250,564,117,-4524,3536,148,207,831
794923,2251092,2262576,2256700,2289468,3389,3800,-4208,6688,579,79,-4961,3311,139,198,831
795917,2251768,2263728,2257306,2290074,2959,3800,-3431,7028,525,281,-5223,3456,139,198,831
796918,2252408,2264668,2257912,2290680,3170,3800,-2639,7458,399,711,-5877,3703,150,211,829
797919,2253072,2265652,2258518,2291286,2996,3800,-1754,7931,263,892,-6846,3704,150,211,829
798920,2253744,2266676,2259124,2291892,2918,3800,-823,8368,179,1122,-7723,4030,130,186,830
799921,2254384,2267572,2259730,2292498,3105,3800,104,8885,162,1755,-8156,4364,130,186,830
800922,2255028,2268552,2260336,2293104,3064,3800,968,9411,172,2433,-7872,4273,148,180,831
801923,2255708,2269464,2260942,2293710,2808,3800,1813,9793,147,2980,-7492,3809,148,180,831
802924,2256344,2270252,2261548,2294316,3070,3800,2558,10021,83,3013,-7305,3665,138,186,830
803925,2257008,2271164,2262154,2294922,2871,3800,3218,10148,-25,2761,-6677,3345,138,186,830
804926,2257700,2272112,2262760,2295528,2659,3800,3702,10121,-184,2958,-5938,3066,156,197,831
805927,2258396,2273004,2263366,2296134,2595,3800,4025,10211,-392,3075,-5128,3217,156,197,831
806928,2259036,2273980,2263972,2296740,2931,3800,4188,10322,-683,2842,-3730,3065,150,206,831
807929,2259780,2274940,2264578,2297346,2221,3800,4197,10358,-1144,2626,-2509,2580,150,206,831
808930,2260468,2275888,2265184,2297952,2536,3800,4100,10341,-1765,2076,-1388,2717,133,183,830
809931,2261184,2276744,2265790,2298558,2314,3800,3956,10192,-2484,1568,-502,1877,133,183,830
810932,2261960,2277636,2266396,2299164,1865,3800,3852,9477,-3320,1302,421,-208,160,195,833
811933,2262660,2278596,2267002,2299770,2300,3800,3739,8333,-4129,829,422,-838,160,195,833
812934,2263324,2279528,2267608,2300376,2500,3800,3561,7224,-4709,356,-687,-577,139,186,832
813935,2264012,2280372,2268214,2300982,2315,3800,3305,6205,-5099,-329,-933,-583,139,186,832
814936,2264804,2281352,2268820,2301588,1583,3800,2990,5320,-5438,-1254,-882,-171,147,166,832
815937,2265516,2282316,2269426,2302194,2038,3800,2592,4680,-5772,-2152,-1180,759,147,166,832
816938,2266268,2283384,2270032,2302800,1725,3800,2233,4175,-6080,-3044,-1548,848,155,187,834
817939,2267048,2284396,2270638,2303406,1474,3800,1968,3710,-6297,-4152,-1287,1117,155,187,834
818940,2267764,2285424,2271244,2304012,1826,3800,1723,3292,-6375,-4770,-1610,1461,147,205,835
819941,2268512,2286480,2271850,2304618,1564,3800,1457,2941,-6299,-4881,-1710,1406,147,205,835
820942,2269324,2287588,2272456,2305224,1075,3800,1205,2602,-5991,-5006,-2045,1323,134,222,837
821950,2270056,2288716,2273084,2305852,1529,3800,1004,2162,-5500,-5212,-2383,1076,134,222,837
822944,2270712,2290000,2273690,2306458,1983,3800,830,1577,-4902,-5748,-2566,984,149,233,838
823945,2271452,2291112,2274296,2307064,1399,3800,693,965,-4193,-6458,-2479,1159,149,233,838
824946,2272120,2292240,2274902,2307670,1823,3800,568,435,-3456,-6714,-2327,1165,155,226,838
825947,2272772,2293288,2275508,2308276,1903,3800,427,-113,-2736,-7048,-2118,999,155,226,838
826948,2273484,2294336,2276114,2308882,1482,3800,301,-746,-1999,-7664,-2128,967,147,225,837
827949,2274128,2295464,2276720,2309488,1891,3800,188,-1437,-1234,-7938,-2196,1032,147,225,837
828950,2274728,2296512,2277326,2310094,2169,3800,81,-2093,-412,-8375,-2086,1292,124,210,836
829951,2275388,2297572,2277932,2310700,1770,3800,-75,-2710,461,-8849,-2223,1816,124,210,836
830952,2275960,2298588,2278538,2311306,2336,3800,-217,-3213,1382,-9163,-2847,2180,140,216,835
831953,2276508,2299656,2279144,2311912,2512,3800,-301,-3761,2402,-9629,-3115,2316,140,216,835
832954,2277076,2300804,2279750,2312518,2405,3800,-286,-4539,3463,-9687,-3054,1756,115,217,836
833956,2277560,2301840,2280356,2313124,2983,3800,-233,-5658,4492,-9476,-2841,1415,115,217,836
834956,2278100,2302820,2280962,2313730,2663,3800,-176,-6778,5491,-8875,-2513,1860,116,212,834
835957,2278588,2303744,2281568,2314336,3040,3800,-77,-8223,6405,-6818,-1933,375,116,212,834
836958,2279056,2304628,2282174,2314942,3227,3800,137,-10177,7258,-4179,-1371,-1105,111,164,830
837959,2279472,2305352,2282780,2315548,3636,3800,352,-12232,8056,-1816,-634,-761,111,164,830
838960,2279924,2306060,2283386,2316154,3479,3800,586,-14422,8742,-334,-272,-1612,110,143,828
839974,2280332,2306656,2283992,2316760,3800,3800,905,-16720,9324,509,-25,-1389,110,143,828
840974,2280744,2307200,2284598,2317366,3800,3800,1064,-18318,9754,1734,1004,1519,100,116,823
841975,2281156,2307680,2285204,2317972,3800,3800,989,-19012,9993,2915,1855,3714,100,116,823
842977,2281520,2308092,2285810,2318578,3800,3800,887,-19456,10143,3581,1726,3880,94,86,820
843978,2281896,2308448,2286416,2319184,3800,3800,873,-19926,10213,4103,1344,4227,94,86,820
844979,2282280,2308704,2287022,2319790,3800,3800,841,-20166,10185,4776,1749,5815,68,54,819
845980,2282624,2308904,2287628,2320396,3800,3800,639,-19587,10083,5129,2604,8804,68,54,819
846981,2282932,2309108,2288234,2321002,3800,3800,309,-18492,9906,5524,3142,10047,56,59,818
847981,2283232,2309324,2288840,2321608,3800,3800,-484,-15837,9523,7125,5437,19179,56,59,818
848991,2283496,2309520,2289468,2322236,3800,3800,-2131,-10328,8684,9053,9344,29389,57,45,818
849983,2283748,2309676,2290074,2322842,3800,3800,-4021,-3551,7599,10954,11170,32767,57,45,818
850985,2283972,2309820,2290680,2323448,3800,3800,-4944,1757,6773,12285,9070,30229,42,41,816
851986,2284228,2309956,2291286,2324054,3800,3800,-4560,4405,6359,12192,6356,25241,42,41,816
852987,2284432,2310104,2291892,2324660,3800,3800,-4038,4893,6361,10137,4325,14827,37,41,814
853988,2284672,2310312,2292498,2325266,3800,3800,-3796,3882,5989,7690,5909,7616,37,41,814
854989,2284936,2310492,2293104,2325872,3800,3800,-3623,2251,5438,6771,4149,4606,50,37,815
855990,2285144,2310688,2293710,2326478,3800,3800,-3257,94,5086,6055,2946,286,50,37,815
856991,2285376,2310920,2294316,2327084,3800,3800,-2589,-2461,4923,4503,1385,-933,40,35,816
857992,2285624,2311132,2294922,2327690,3800,3800,-2017,-4428,4670,4197,3411,1254,40,35,816
858993,2285952,2311368,2295528,2328296,3800,3800,-1770,-5452,4393,4405,2812,3479,62,52,816
859994,2286240,2311672,2296134,2328902,3800,3800,-1773,-5785,4083,3819,1079,4447,62,52,816
860995,2286576,2311992,2296740,2329508,3800,3800,-2032,-5286,3767,2550,203,7735,56,65,817
861996,2286916,2312312,2297346,2330114,3800,3800,-2400,-4328,3284,1231,1066,8996,56,65,817
862997,2287252,2312632,2297952,2330720,3800,3800,-2607,-3373,2539,-540,1014,8277,62,63,817
863998,2287676,2312948,2298558,2331326,3800,3800,-2391,-3082,1517,-2222,2254,5463,62,63,817
864999,2288080,2313372,2299164,2331932,3800,3800,-1844,-3486,537,-3091,1155,4082,77,70,817
866000,2288412,2313812,2299770,2332538,3800,3800,-1272,-3794,-284,-3604,285,4831,77,70,817
867001,2288888,2314220,2300376,2333144,3800,3800,-982,-3238,-688,-3954,-2154,7646,85,85,819
868002,2289332,2314708,2300982,2333750,3800,3800,-939,-1890,-626,-3845,-3618,8576,85,85,819
869003,2289784,2315228,2301588,2334356,3800,3800,-912,-631,-408,-3877,-3663,7601,105,107,820
870004,2290320,2315796,2302194,2334962,3800,3800,-650,-133,-255,-3601,-2981,5523,105,107,820
871005,2290864,2316436,2302800,2335568,3800,3800,-161,-236,-164,-3097,-2628,4099,105,125,821
872006,2291424,2317064,2303406,2336174,3800,3800,394,-648,-49,-2447,-2040,3333,105,125,821
873007,2292040,2317768,2304012,2336780,3800,3800,886,-1036,140,-1544,-1707,3378,136,120,823
874008,2292660,2318456,2304618,2337386,3800,3800,1193,-1097,482,-678,-1868,4300,136,120,823
875009,2293344,2319224,2305224,2337992,3800,3800,1435,-958,928,149,-1839,4029,141,131,823
876017,2294104,2320052,2305852,2338620,3800,3800,1639,-1131,1251,862,-1362,3100,141,131,823
877011,2294792,2320908,2306458,2339226,3800,3800,1912,-1405,1421,1526,-945,2559,156,155,824
878012,2295516,2321708,2307064,2339832,3800,3800,2179,-1849,1495,2161,-661,1945,156,155,824
879013,2296312,2322632,2307670,2340438,3800,3800,2395,-2216,1498,2912,-588,2009,148,187,825
880014,2297124,2323512,2308276,2341044,3800,3800,2503,-2418,1501,3492,-490,2451,148,187,825
881015,2297984,2324524,2308882,2341650,3800,3800,2541,-2388,1507,4026,-611,2735,168,167,828
882003,2299072,2325536,2309488,2342256,2633,3800,2544,-2173,1527,4393,-1057,3140,168,167,828
883004,2299980,2326604,2310094,2342862,3627,3800,2598,-1812,1579,4040,-1188,3144,173,203,829
884005,2300992,2327516,2310700,2343468,2801,3800,2704,-1375,1589,3429,-1535,3355,173,203,829
885006,2301848,2328488,2311306,2344074,3667,3800,2823,-790,1528,2902,-2080,3788,174,199,833
886007,2302888,2329608,2311912,2344680,2328,3800,2927,56,1439,2432,-2595,4445,174,199,833
887008,2303908,2330488,2312518,2345286,2273,3800,3003,1179,1293,2423,-2905,4651,170,187,832
888009,2304780,2331344,2313124,2345892,3083,3800,3142,2226,1121,2409,-3068,3971,170,187,832
889010,2305804,2332264,2313730,2346498,1951,3800,3324,3285,999,2559,-3552,4279,201,182,834
890011,2306668,2333116,2314336,2347104,2839,3800,3471,4556,965,2812,-3994,4425,201,182,834
891012,2307544,2333952,2314942,2347710,2647,3800,3659,5584,935,2486,-4147,3120,182,170,832
892013,2308520,2334936,2315548,2348316,1861,3800,3908,6371,880,2291,-4333,2504,182,170,832
893014,2309360,2335644,2316154,2348922,2609,3800,4205,6936,792,2252,-3949,1703,184,183,832
894015,2310076,2336540,2316760,2349528,3337,3800,4420,7478,731,2604,-4112,1669,184,183,832
895016,2310904,2337428,2317366,2350134,2540,3800,4620,7930,723,2500,-4123,702,165,185,835
896017,2311668,2338212,2317972,2350740,2873,3800,4879,7855,715,2212,-3495,-1026,165,185,835
897018,2312444,2339108,2318578,2351346,2724,3800,5175,7438,623,2075,-2879,-1522,184,172,829
898019,2313264,2339908,2319184,2351952,2356,3800,5398,7157,564,2045,-2513,-1012,184,172,829
899020,2313984,2340696,2319790,2352558,2932,3800,5460,7130,401,1491,-1536,-881,178,165,832
900021,2314696,2341532,2320396,2353164,2936,3800,5385,7029,-32,715,11,-1543,178,165,832
901022,2315440,2342296,2321002,2353770,2677,3800,5164,6723,-795,243,2163,-2057,153,159,832
902023,2316100,2343220,2321608,2354376,3179,3800,4799,6240,-1925,-128,3858,-2807,153,159,832
903031,2316700,2344032,2322236,2355004,3567,3800,4316,5582,-3132,-286,3172,-2845,144,164,830
904025,2317340,2344964,2322842,2355610,3303,3800,3750,5122,-4053,-66,1750,-1994,144,164,830
905038,2317896,2345772,2323448,2356216,3800,3800,3124,4783,-4474,429,499,-1484,119,171,829
906040,2318412,2346684,2324054,2356822,3800,3800,2469,4545,-4658,874,268,-1290,119,171,829
907041,2318976,2347676,2324660,2357428,3800,3800,1760,4295,-4753,1276,-431,-1198,109,165,827
908042,2319436,2348608,2325266,2358034,3800,3800,1087,3928,-4752,1798,-1004,-1411,109,165,827
909043,2319896,2349532,2325872,2358640,3800,3800,499,3262,-4653,2198,-836,-1826,99,200,824
910044,2320404,2350376,2326478,2359246,3800,3800,67,2384,-4422,2689,-846,-2327,99,200,824
911045,2320844,2351392,2327084,2359852,3800,3800,-327,1278,-4137,3115,-871,-2900,96,208,826
912046,2321292,2352444,2327690,2360458,3800,3800,-709,-6,-3806,3102,-585,-3080,96,208,826
913047,2321772,2353680,2328296,2361064,3800,3800,-1082,-1342,-3402,3168,-516,-3068,94,237,826
914048,2322256,2354784,2328902,2361670,3800,3800,-1502,-2633,-2978,3289,-247,-2758,94,237,826
915048,2322740,2355828,2329508,2362276,3800,3800,-1885,-3672,-2485,3113,-34,-1977,97,232,827
916050,2323284,2356884,2330114,2362882,3800,3800,-2297,-4360,-1958,2931,1,-931,97,232,827
917051,2323876,2357936,2330720,2363488,3800,3800,-2790,-4494,-1419,2507,155,977,118,221,827
918052,2324460,2359024,2331326,2364094,3800,3800,-3450,-3875,-931,1993,425,3628,118,221,827
919053,2325056,2360028,2331932,2364700,3800,3800,-4098,-3035,-560,1765,502,3319,125,221,826
920041,2325748,2361008,2332538,2365306,3564,3800,-4629,-2381,-288,1612,1068,3258,125,221,826
921055,2326384,2362064,2333144,2365912,3800,3800,-5061,-1731,-107,1458,1835,3720,121,214,827
922043,2327068,2363128,2333750,2366518,3569,3800,-5559,-847,-30,1425,2117,5030,121,214,827
923044,2327864,2364232,2334356,2367124,2786,3800,-6028,285,120,1591,1671,5468,154,214,830
924045,2328592,2365288,2334962,2367730,3160,3800,-6429,1407,319,1900,1853,5613,154,214,830
925046,2329340,2366280,2335568,2368336,2973,3800,-6739,2496,402,1990,1931,5834,163,215,831
926047,2330212,2367264,2336174,2368942,2083,3800,-6995,3442,320,1789,1628,5452,163,215,831
927048,2331032,2368156,2336780,2369548,2314,3800,-7123,4146,82,1578,1762,4784,148,191,832
928049,2331920,2368964,2337386,2370154,1767,3800,-7148,4623,-234,1106,1863,4652,148,191,832
929050,2332824,2369820,2337992,2370760,1537,3800,-7102,5049,-610,232,1876,4652,169,147,833
930058,2333696,2370484,2338620,2371388,1630,3800,-7029,5280,-1153,-722,2710,4091,169,147,833
931052,2334536,2371132,2339226,2371994,1729,3800,-6899,5246,-1857,-1736,2761,3418,155,141,832
932053,2335328,2371672,2339832,2372600,1948,3800,-6724,5055,-2707,-2690,1651,3380,155,141,832
933054,2336104,2372224,2340438,2373206,1974,3800,-6578,4989,-3596,-3450,618,4131,185,113,833
934055,2336876,2372740,2341044,2373812,1927,3800,-6290,4726,-4453,-4085,592,2948,185,113,833
935056,2337764,2373212,2341650,2374418,1079,3800,-5799,4130,-5128,-4581,367,2223,160,93,830
936057,2338516,2373672,2342256,2375024,1865,3800,-5339,3351,-5491,-4632,-671,2533,160,93,830
937058,2339296,2374124,2342862,2375630,1615,3800,-5061,2602,-5511,-5325,-1280,3188,167,98,830
938059,2340152,2374500,2343468,2376236,1031,3800,-2377,1745,-4864,-11133,-5524,24258,167,98,830
939060,2340884,2374996,2344074,2376842,1750,3800,5799,1209,-2703,-20994,-14486,32767,152,94,830
940061,2341552,2375444,2344680,2377448,2124,3800,11090,1285,-1072,-10779,-4982,18265,152,94,830
941062,2342228,2375904,2345286,2378054,2044,3800,11267,-627,-411,-9865,-2159,421,153,89,831
942063,2342840,2376408,2345892,2378660,2442,3800,9618,-4710,-107,-10571,-2929,-1001,153,89,831
943064,2343452,2376900,2346498,2379266,2440,3800,8369,-8108,368,-9082,-2546,1635,125,105,828
944065,2344032,2377460,2347104,2379872,2652,3800,7770,-8929,1205,-7640,-1200,4668,125,105,828
945066,2344532,2378068,2347710,2380478,3199,3800,7405,-8357,2260,-7267,-856,4887,105,107,828
946067,2345020,2378572,2348316,2381084,3327,3800,6722,-7626,3492,-7167,-785,6565,105,107,828
947081,2345436,2379204,2348922,2381690,3800,3800,4546,-5448,5153,-4949,-1001,14010,114,115,827
948069,2345892,2379792,2349528,2382296,3677,3800,1636,-2873,6806,-3686,-567,11692,114,115,827
949083,2346300,2380464,2350134,2382902,3800,3800,-348,-2552,7790,-3830,-126,2984,81,135,825
950084,2346684,2381188,2350740,2383508,3800,3800,-865,-5457,8148,-2744,566,-4867,81,135,825
951085,2347116,2381944,2351346,2384114,3800,3800,-465,-10090,8210,-727,2039,-7917,82,138,821
952086,2347484,2382652,2351952,2384720,3800,3800,-51,-14344,8367,1277,1788,-6989,82,138,821
953087,2347840,2383500,2352558,2385326,3800,3800,-122,-17241,8845,3344,494,-3427,75,133,821
954088,2348232,2384228,2353164,2385932,3800,3800,-648,-18658,9721,5326,-1623,725,75,133,821
955089,2348576,2385172,2353770,2386538,3800,3800,-1355,-19060,10822,7249,-3035,3188,71,148,822
956090,2348952,2386008,2354376,2387144,3800,3800,-1899,-19332,11607,8058,-2203,3042,71,148,822
957100,2349372,2386904,2355004,2387772,3800,3800,-2141,-19966,11741,7599,-775,2190,80,168,823
958092,2349820,2387788,2355610,2388378,3800,3800,-2194,-20470,11326,6828,361,3127,80,168,823
959093,2350256,2388640,2356216,2388984,3800,3800,-2092,-20585,10741,6553,520,3879,83,186,823
960094,2350768,2389588,2356822,2389590,3800,3800,-1881,-20119,10177,6499,526,5281,83,186,823
961095,2351260,2390652,2357428,2390196,3800,3800,-1642,-18747,9754,6230,-166,7869,110,200,825
962096,2351780,2391692,2358034,2390802,3800,3800,-1461,-16657,9476,6196,-839,9726,110,200,825
963097,2352376,2392656,2358640,2391408,3800,3800,-1272,-14010,9104,5852,-363,10797,102,197,824
964098,2352884,2393712,2359246,2392014,3800,3800,-959,-10918,8715,5116,-802,11797,102,197,824
965099,2353476,2394680,2359852,2392620,3800,3800,-551,-7731,8201,4019,-1027,11896,112,202,826
966100,2354020,2395676,2360458,2393226,3800,3800,-72,-4656,7335,2482,-800,11387,112,202,826
967101,2354608,2396596,2361064,2393832,3800,3800,-57,-783,5095,8754,-8848,12251,107,184,826
968102,2355220,2397492,2361670,2394438,3800,3800,-823,4579,1025,13958,-16993,9343,107,184,826
969090,2355888,2398272,2362276,2395044,3584,3800,-787,7341,-1418,2053,-2696,6379,116,165,826
970091,2356532,2399064,2362882,2395650,3718,3800,329,8881,-2048,1289,-1648,5230,116,165,826
971092,2357240,2399848,2363488,2396256,3274,3800,1305,9710,-1710,1856,-3053,6449,143,157,826
972093,2357952,2400628,2364094,2396862,3204,3800,2081,11659,-1290,3099,-3718,6890,143,157,826
973094,2358716,2401308,2364700,2397468,2810,3800,2595,13163,-1039,3740,-2764,5066,152,148,826
974095,2359444,2402072,2365306,2398074,2984,3800,3406,14048,-982,3506,-1249,2262,152,148,826
975096,2360292,2402812,2365912,2398680,2128,3800,4242,13629,-1207,3630,-749,-1344,158,165,828
976097,2361032,2403532,2366518,2399286,2745,3800,5188,12387,-1484,4288,-224,-3152,158,165,828
977098,2361760,2404260,2367124,2399892,2768,3800,5783,11087,-1579,5724,273,-2665,137,146,829
978099,2362500,2404936,2367730,2400498,2635,3800,6212,9826,-1632,6611,1226,-3895,137,146,829
979100,2363328,2405664,2368336,2401104,1988,3800,6504,8105,-1675,6072,2020,-5581,154,137,830
980101,2364180,2406368,2368942,2401710,1731,3800,6735,6099,-1740,5687,2608,-5576,154,137,830
981102,2364840,2407108,2369548,2402316,2908,3800,6775,4264,-1897,5100,3012,-4968,142,140,830
982103,2365752,2407840,2370154,2402922,1200,3800,6706,3048,-2107,4312,2660,-3441,142,140,830
983104,2366540,2408604,2370760,2403528,1895,3800,6512,2621,-2322,3419,2136,-1376,166,149,832
984112,2367248,2409308,2371388,2404156,2361,3800,6170,2644,-2521,2083,2800,-255,166,149,832
985106,2368084,2410064,2371994,2404762,1461,3800,5680,2848,-2810,1169,3987,141,165,144,834
986107,2368944,2410820,2372600,2405368,1200,3800,5143,3123,-3163,791,4067,469,165,144,834
987108,2369620,2411612,2373206,2405974,2319,3800,4598,3358,-3580,434,4539,431,137,139,832
988109,2370376,2412500,2373812,2406580,1754,3800,4025,3551,-4066,-12,5135,438,137,139,832
989110,2371128,2413340,2374418,2407186,1716,3800,3397,4072,-4525,-362,4852,1475,156,161,834
990111,2371816,2414180,2375024,2407792,2080,3800,2738,5006,-4759,-271,3553,2288,156,161,834
991112,2372528,2415020,2375630,2408398,1885,3800,2156,5899,-4706,72,2930,2017,151,180,834
992113,2373176,2415952,2376236,2409004,2267,3800,1641,6634,-4456,500,2802,1943,151,180,834
993101,2373800,2417052,2376842,2409610,2409,3018,1113,7181,-4167,960,3161,1441,136,194,833
994115,2374492,2417984,2377448,2410216,1948,3800,527,7425,-3843,1134,3212,856,136,194,833
995103,2375004,2418996,2378054,2410822,3114,3243,-83,7281,-3572,1056,2890,-465,123,201,832
996104,2375468,2420076,2378660,2411428,3477,2609,-657,6663,-3322,1085,2224,-1784,123,201,832
997105,2376020,2421120,2379266,2412034,2952,2640,-1210,5670,-3080,1137,1775,-2568,111,227,833
998107,2376484,2422160,2379872,2412640,3564,2472,-1801,4421,-2901,1258,1485,-2915,111,227,833
999107,2376984,2423040,2380478,2413246,3387,3349,-2953,4042,-2459,2353,519,962,127,197,832
1000108,2377464,2423908,2381084,2413852,3567,3308,-4752,4528,-1529,2647,-1734,2198,127,197,832
1001109,2377932,2424752,2381690,2414458,3704,3352,-6579,4754,-555,2351,-1603,736,102,171,831
1002123,2378372,2425600,2382296,2415064,3800,3218,-7862,4160,59,2047,-310,-1263,102,171,831
1003112,2378848,2426504,2382902,2415670,3786,2735,-8386,2462,151,1654,967,-4255,110,179,828
1004125,2379288,2427364,2383508,2416276,3800,2897,-8511,323,67,1671,998,-4487,110,179,828
1005126,2379740,2428268,2384114,2416882,3800,2488,-8700,-1492,130,1865,144,-2987,101,174,828
1006114,2380248,2429116,2384720,2417488,3772,2730,-9183,-2171,414,2203,-1435,701,101,174,828
1007128,2380712,2429940,2385326,2418094,3800,2782,-9717,-2344,926,2466,-2963,1228,120,173,827
1008129,2381160,2430812,2385932,2418700,3800,2363,-10074,-2561,1241,2010,-2187,1202,120,173,827
1009130,2381648,2431592,2386538,2419306,3800,2858,-10185,-2932,1180,1420,-1576,1037,89,165,828
1010131,2382092,2432276,2387144,2419912,3800,3422,-10282,-3141,985,1225,-1813,2243,89,165,828
1011152,2382596,2432892,2387772,2420540,3800,3800,-10420,-2924,889,1128,-2249,3462,96,153,829
1012146,2383092,2433436,2388378,2421146,3800,3800,-10501,-2202,965,813,-2884,5078,96,153,829
1013147,2383632,2433928,2388984,2421752,3800,3800,-10470,-1326,998,503,-2758,5485,91,111,824
1014148,2384128,2434392,2389590,2422358,3800,3800,-10331,-421,813,-5,-1493,6164,91,111,824
1015149,2384640,2434760,2390196,2422964,3800,3800,-10045,428,422,-953,-567,6213,110,92,821
1016150,2385176,2435012,2390802,2423570,3800,3800,-9811,1346,-183,-1641,-124,7128,110,92,821
1017150,2385720,2435232,2391408,2424176,3800,3800,-9579,2488,-931,-2257,-780,7806,115,58,818
1018152,2386240,2435380,2392014,2424782,3800,3800,-6356,8475,-1285,-3445,-4746,32767,115,58,818
1019153,2386800,2435488,2392620,2425388,3800,3800,1049,23200,-1007,-4643,-6703,32767,112,29,818
1020154,2387332,2435564,2393226,2425994,3800,3800,5325,28828,-1702,-648,2601,5095,112,29,818
1021155,2387908,2435604,2393832,2426600,3800,3800,5521,26171,-3199,73,4992,-2863,111,13,817
1022143,2388536,2435676,2394438,2427206,3666,3800,4298,20647,-4791,941,4030,-5250,111,13,817
1023157,2389084,2435744,2395044,2427812,3800,3800,3610,16418,-5957,1048,2628,-4909,126,13,818
1024158,2389668,2435800,2395650,2428418,3800,3800,3397,13806,-6430,1154,686,-2543,126,13,818
1025146,2390316,2435872,2396256,2429024,3562,3800,4347,10623,-6286,-576,-2146,2620,114,26,819
1026147,2390948,2435944,2396862,2429630,3651,3800,7354,5221,-5289,-4758,-5814,19412,114,26,819
1027148,2391600,2436076,2397468,2430236,3507,3800,8721,929,-4312,-437,-3605,-729,123,26,818
1028149,2392300,2436232,2398074,2430842,3167,3800,7886,-3053,-3359,-5375,-2197,-3290,123,26,818
1029150,2392964,2436384,2398680,2431448,3367,3800,6831,-7318,-2279,-9635,-284,-3159,145,45,819
1030151,2393660,2436584,2399286,2432054,3129,3800,4712,-8760,-1184,-6089,926,8745,145,45,819
1031152,2394388,2436788,2399892,2432660,2876,3800,1290,-6294,-472,-3190,881,14467,138,55,822
1032153,2395120,2437028,2400498,2433266,2797,3800,-1832,-4494,-405,-2898,323,7662,138,55,822
1033154,2395856,2437276,2401104,2433872,2716,3800,-3031,-5817,-622,-3079,-1287,-979,148,62,823
1034155,2396652,2437564,2401710,2434478,2258,3800,-2874,-9681,-747,-2761,-526,-4830,148,62,823
1035156,2397460,2437932,2402316,2435084,2095,3800,-2520,-13300,-602,-2131,-379,-3461,158,61,825
1036157,2398228,2438292,2402922,2435690,2275,3800,-2476,-15628,-163,-1747,-873,-1685,158,61,825
1037158,2399092,2438684,2403528,2436296,1563,3800,-2558,-16859,403,-1741,-1135,371,156,77,826
1038166,2399928,2439120,2404156,2436924,1648,3800,-2698,-17444,961,-2001,-1092,2452,156,77,826
1039160,2400752,2439572,2404762,2437530,1628,3800,-2942,-17482,1453,-2171,-858,4824,145,81,827
1040161,2401528,2440028,2405368,2438136,1854,3800,-3320,-16518,1854,-2036,-575,8131,145,81,827
1041162,2402296,2440516,2405974,2438742,1833,3800,-3696,-14997,2225,-2179,-1255,9012,159,97,829
1042163,2403040,2441040,2406580,2439348,1923,3800,-3854,-13534,2596,-3084,-1968,8607,159,97,829
1043164,2403860,2441588,2407186,2439954,1355,3800,-3792,-12296,2820,-3942,-1636,8581,146,113,831
1044165,2404588,2442212,2407792,2440560,1877,3800,-3578,-10968,2786,-4484,-1126,8922,146,113,831
1045166,2405304,2442832,2408398,2441166,1904,3800,-3251,-9675,2705,-5088,-1725,8560,163,127,831
1046167,2405964,2443576,2409004,2441772,2231,3800,-2780,-8547,2739,-5283,-1819,7878,163,127,831
1047168,2406680,2444172,2409610,2442378,1833,3800,-2221,-7548,2898,-5079,-1483,7948,147,123,831
1048169,2407300,2444912,2410216,2442984,2428,3800,-1591,-6378,3131,-5196,-994,8429,147,123,831
1049170,2407880,2445572,2410822,2443590,2689,3800,-931,-5298,3426,-5502,-1014,7845,145,139,831
1050171,2408484,2446380,2411428,2444196,2541,3800,-200,-4522,3806,-5383,-1354,6751,145,139,831
1051172,2409056,2447248,2412034,2444802,2756,3800,587,-4185,4185,-4846,-860,5450,123,152,828
1052173,2409564,2448108,2412640,2445408,3200,3800,1419,-4259,4479,-3820,-219,3990,123,152,828
1053174,2410108,2448988,2413246,2446014,3004,3800,2314,-4957,4680,-2721,-4,1849,122,159,830
1054175,2410572,2449796,2413852,2446620,3566,3800,3257,-6109,4932,-1593,-422,538,122,159,830
1055189,2411000,2450788,2414458,2447226,3800,3800,4172,-7470,5237,-326,-598,-216,104,173,827
1056177,2411480,2451820,2415064,2447832,3601,3800,5025,-8887,5559,753,-904,-799,104,173,827
1057191,2411924,2452680,2415670,2448438,3800,3800,5879,-10257,5869,1618,-1143,-974,104,178,825
1058192,2412376,2453712,2416276,2449044,3800,3800,6681,-11573,6104,2576,-1176,-1029,104,178,825
1059180,2412872,2454744,2416882,2449650,3691,3800,7451,-12724,6247,3073,-1409,-863,99,190,825
1060194,2413348,2455708,2417488,2450256,3800,3800,8145,-13552,6368,3436,-2148,45,99,190,825
1061194,2413800,2456760,2418094,2450862,3800,3800,8717,-13753,6420,2936,-3045,1497,117,199,823
1062170,2414340,2457992,2418700,2451468,3572,2510,9110,-13245,6428,2078,-3651,3029,117,199,823
1063171,2414868,2458996,2419306,2452074,3682,3759,9431,-12354,6412,1852,-3663,3196,108,200,825
1064172,2415388,2459996,2419912,2452680,3771,3609,9669,-11303,6331,1800,-3738,3693,108,200,825
1065182,2415924,2461024,2420540,2453308,3711,3257,9785,-9593,6273,1415,-4006,5393,98,206,830
1066174,2416524,2462032,2421146,2453914,3315,3204,9805,-7645,6258,1062,-4530,5454,98,206,830
1067188,2417000,2463032,2421752,2454520,3800,3079,9705,-5275,6265,578,-5435,6733,129,199,826
1068189,2417616,2463876,2422358,2455126,3269,3800,9558,-2785,6326,185,-5001,6274,129,199,826
1069177,2418176,2464744,2422964,2455732,3641,3681,9268,-258,6435,347,-6395,6646,113,184,830
1070178,2418744,2465580,2423570,2456338,3608,3778,8796,2481,6608,509,-6613,7058,113,184,830
1071179,2419368,2466420,2424176,2456944,3251,3648,8338,5112,6656,470,-5592,5958,122,184,827
1072180,2419996,2467308,2424782,2457550,3218,3222,7939,7471,6560,912,-5876,5260,122,184,827
1073181,2420636,2468116,2425388,2458156,3129,3633,7547,9389,6409,1836,-5212,4030,112,176,826
1074182,2421292,2468984,2425994,2458762,3008,3140,7151,10772,6206,3380,-4230,2314,112,176,826
1075183,2421932,2469764,2426600,2459368,3093,3612,6666,11690,5928,5098,-3181,1073,137,159,830
1076197,2422584,2470480,2427206,2459974,2999,3800,6043,12580,5742,6676,-2389,1251,137,159,830
1077185,2423296,2471380,2427812,2460580,2578,2680,5265,13275,5585,7527,-1248,600,154,165,832
1078186,2423944,2472116,2428418,2461186,2961,3646,4600,12820,5109,7326,790,-3109,154,165,832
1079187,2424592,2472844,2429024,2461792,2943,3641,4049,10947,4142,7911,3303,-6350,129,152,828
1080201,2425288,2473516,2429630,2462398,2605,3800,3623,8400,2837,8895,5047,-8078,129,152,828
1081189,2426024,2474264,2430236,2463004,2298,3419,3086,5749,1521,9786,6931,-7744,134,148,829
1082190,2426724,2474972,2430842,2463610,2482,3622,2271,3416,591,10368,5727,-6448,134,148,829
1083191,2427380,2475932,2431448,2464216,2736,1890,1519,825,-154,9636,5250,-8429,133,154,829
1084205,2428076,2476560,2432054,2464822,2448,3800,930,-1695,-977,9335,6489,-7571,133,154,829
1085193,2428708,2477260,2432660,2465428,2837,3460,373,-3862,-1747,8832,5246,-6465,129,132,830
1086194,2429384,2478068,2433266,2466034,2531,2693,-152,-5697,-2358,7757,5321,-6004,129,132,830
1087208,2430144,2478660,2433872,2466640,1940,3800,-577,-6997,-2907,6834,5969,-4955,138,152,830
1088196,2430872,2479492,2434478,2467246,2087,2446,-880,-7652,-3429,6001,5877,-3427,138,152,830
1089197,2431544,2480332,2435084,2467852,2409,2290,-1064,-7662,-3780,4843,5542,-1621,152,159,835
1090198,2432296,2481208,2435690,2468458,1845,1944,-1299,-6863,-3997,4075,5620,824,152,159,835
1091199,2432968,2482124,2436296,2469064,2317,1556,-1739,-4915,-4072,3378,4742,3836,125,183,838
1092207,2433588,2482956,2436924,2469692,2647,1989,-2252,-2560,-4023,2018,3613,4202,125,183,838
1093201,2434252,2483996,2437530,2470298,2346,496,-2689,-392,-4008,1236,2983,3745,121,190,840
1094202,2434872,2484844,2438136,2470904,2616,1587,-3103,1451,-4107,729,3398,3133,121,190,840
1095203,2435472,2485676,2438742,2471510,2744,1584,-3575,3033,-4296,458,4159,2466,128,173,835
1096204,2436096,2486520,2439348,2472116,2587,1403,-4079,4346,-4539,682,4137,1431,128,173,835
1097205,2436696,2487300,2439954,2472722,2740,1723,-4525,5298,-4746,1062,3388,415,112,164,838
1098206,2437292,2488124,2440560,2473328,2770,1349,-4936,6103,-4764,1980,2193,181,112,164,838
1099207,2437884,2488980,2441166,2473934,2802,1036,-5354,6632,-4489,2385,917,-101,109,181,838
1100208,2438440,2489716,2441772,2474540,3050,1726,-5773,6776,-3955,2796,-158,-586,109,181,838
1101209,2438996,2490468,2442378,2475146,3072,1559,-6154,6448,-3386,3582,272,-2161,117,156,838
1102210,2439608,2491164,2442984,2475752,2720,1868,-6463,5450,-2904,3938,965,-4077,117,156,838
1103211,2440164,2491800,2443590,2476358,3092,2226,-6747,4033,-2488,3875,420,-4484,120,139,835
1104212,2440636,2492448,2444196,2476964,3677,2130,-7025,2432,-2054,3502,-195,-4510,120,139,835
1105226,2441068,2493036,2444802,2477570,3800,2510,-7274,878,-1619,3319,-343,-4427,115,124,834
1106214,2441584,2493508,2445408,2478176,3520,3291,-7519,-535,-1303,3062,-379,-3989,115,124,834
1107228,2442048,2493984,2446014,2478782,3800,3320,-7876,-1381,-1019,2724,-1028,-1550,122,114,828
1108241,2442520,2494392,2446620,2479388,3800,3800,-8788,-713,-694,2303,-1210,3938,122,114,828
1109242,2443012,2494764,2447226,2479994,3800,3800,-9636,451,-389,1252,-1989,3184,112,82,825
1110243,2443464,2495108,2447832,2480600,3800,3800,-10058,1380,-212,467,-2799,3331,112,82,825
1111244,2443928,2495460,2448438,2481206,3800,3800,-10291,2396,-87,134,-3493,5134,115,79,820
1112245,2444420,2495752,2449044,2481812,3800,3800,-10575,3654,-58,189,-3430,5853,115,79,820
1113247,2444868,2496056,2449650,2482418,3800,3800,-10908,5030,-175,253,-3016,6000,99,73,820
1114248,2445316,2496332,2450256,2483024,3800,3800,-11249,6339,-447,303,-2076,6208,99,73,820
1115249,2445808,2496564,2450862,2483630,3800,3800,-11614,7493,-959,410,-1014,5742,110,47,819
1116250,2446288,2496792,2451468,2484236,3800,3800,-12035,8351,-1712,155,-533,5455,110,47,819
1117251,2446708,2496996,2452074,2484842,3800,3800,-12374,9014,-2628,-369,-212,5301,90,50,817
1118252,2447168,2497208,2452680,2485448,3800,3800,-12631,9476,-3770,-883,945,5222,90,50,817
1119260,2447612,2497376,2453308,2486076,3800,3800,-12768,9821,-4912,-1299,146,5036,102,39,818
1120253,2448044,2497584,2453914,2486682,3800,3800,-10423,13241,-5395,-3162,-5899,20644,102,39,818
1121255,2448520,2497744,2454520,2487288,3800,3800,-1249,31610,-3712,-8686,-18759,32767,83,44,818
1122256,2448936,2497900,2455126,2487894,3800,3800,6427,32297,-2793,1507,-4822,18453,83,44,818
1123257,2449344,2498052,2455732,2488500,3800,3800,8090,32297,-3562,4376,1387,-7101,78,40,817
1124258,2449828,2498200,2456338,2489106,3800,3800,7150,32297,-4745,3723,-496,-9225,78,40,817
1125259,2450268,2498360,2456944,2489712,3800,3800,9146,22935,-4945,-3210,-6158,10379,80,42,817
1126260,2450692,2498472,2457550,2490318,3800,3800,11519,16028,-4406,-1768,-5654,2380,80,42,817
1127260,2451204,2498620,2458156,2490924,3800,3800,11255,12226,-3764,728,-4675,-2682,81,41,816
1128261,2451628,2498756,2458762,2491530,3800,3800,7620,11380,-2571,1980,-5514,7787,81,41,816
1129263,2452092,2498932,2459368,2492136,3800,3800,2906,11776,-1805,-1091,-843,8619,85,37,816
1130264,2452616,2499076,2459974,2492742,3800,3800,-112,8314,-2090,-9754,2689,-2252,85,37,816
1131265,2453108,2499244,2460580,2493348,3800,3800,-651,929,-2676,-11287,1873,-9320,84,44,817
1132266,2453636,2499400,2461186,2493954,3800,3800,-257,-6552,-3143,-7738,537,-8374,84,44,817
1133267,2454196,2499548,2461792,2494560,3800,3800,-150,-11846,-3372,-6004,-562,-5783,100,43,817
1134268,2454784,2499700,2462398,2495166,3800,3800,-795,-15186,-3183,-5148,-1428,-1851,100,43,817
1135269,2455356,2499844,2463004,2495772,3800,3800,-1810,-16953,-2656,-4760,-2147,1964,122,44,818
1136270,2456008,2500028,2463610,2496378,3800,3800,-2556,-17901,-2083,-4878,-2619,3559,122,44,818
1137271,2456620,2500176,2464216,2496984,3800,3800,-2997,-18243,-1614,-4562,-2332,5450,134,33,819
1138272,2457296,2500348,2464822,2497590,3800,3800,-3324,-17862,-1180,-4145,-1796,6411,134,33,819
1139260,2458040,2500516,2465428,2498196,3699,3800,-3773,-16848,-707,-3874,-1398,7875,137,45,817
1140261,2458768,2500652,2466034,2498802,3747,3800,-4229,-15084,-219,-4033,-1216,9718,137,45,817
1141262,2459500,2500844,2466640,2499408,3667,3800,-4541,-13411,257,-4782,-1322,9506,138,45,819
1142263,2460240,2501032,2467246,2500014,3560,3800,-4598,-11982,700,-5004,-1178,8995,138,45,819
1143264,2461064,2501208,2467852,2500620,2941,3800,-4503,-10682,1104,-4849,-1062,8989,143,42,821
1144265,2461904,2501396,2468458,2501226,2739,3800,-4270,-9401,1436,-4887,-808,8607,143,42,821
1145266,2462800,2501628,2469064,2501832,2263,3800,-3930,-8358,1709,-4842,-669,8012,166,59,822
1146274,2463704,2501912,2469692,2502460,2093,3800,-3465,-7407,1936,-4315,-250,7671,166,59,822
1147268,2464584,2502212,2470298,2503066,2124,3800,-2900,-6569,2112,-3587,165,6975,164,68,825
1148269,2465436,2502516,2470904,2503672,2191,3800,-2270,-5976,2248,-3039,190,6065,164,68,825
1149270,2466436,2502804,2471510,2504278,1094,3800,-1578,-5790,2317,-2627,500,5123,157,76,827
1150271,2467264,2503164,2472116,2504884,2073,3800,-822,-5724,2346,-1973,781,4625,157,76,827
1151272,2468136,2503556,2472722,2505490,1682,3800,-41,-5864,2369,-1605,482,3682,157,83,827
1152273,2469004,2503988,2473328,2506096,1593,3800,796,-6201,2405,-1684,125,2932,157,83,827
1153274,2469816,2504476,2473934,2506702,1853,3800,1645,-6819,2477,-1761,-103,2242,156,97,829
1154275,2470596,2504972,2474540,2507308,1977,3800,2502,-7548,2575,-1647,-320,1867,156,97,829
1155276,2471420,2505460,2475146,2507914,1607,3800,3328,-8177,2707,-1721,-539,1947,163,110,830
1156277,2472204,2505952,2475752,2508520,1780,3800,4111,-8739,2861,-1983,-614,1994,163,110,830
1157278,2472904,2506612,2476358,2509126,2264,3800,4818,-9270,3034,-2326,-870,1978,153,112,830
1158279,2473636,2507196,2476964,2509732,2009,3800,5404,-9681,3194,-2670,-855,2283,153,112,830
1159280,2474264,2507844,2477570,2510338,2650,3800,5921,-9784,3356,-3271,-673,2514,133,119,831
1160281,2474904,2508528,2478176,2510944,2561,3800,6365,-10002,3540,-3756,-962,2150,133,119,831
1161281,2475544,2509240,2478782,2511550,2546,3800,6730,-10070,3797,-3845,-1377,2824,147,128,830
1162283,2476092,2509936,2479388,2512156,3148,3800,6993,-9952,4158,-3577,-1632,3024,147,128,830
1163284,2476596,2510772,2479994,2512762,3468,3800,7195,-9714,4560,-3007,-1677,2710,122,143,829
1164285,2477144,2511560,2480600,2513368,3219,3800,7386,-9751,4910,-2627,-1441,1757,122,143,829
1165286,2477640,2512304,2481206,2513974,3594,3800,7581,-9921,5214,-1874,-1413,1400,110,160,827
1166300,2478092,2513228,2481812,2514580,3800,3800,7733,-10246,5486,-832,-1352,384,110,160,827
1167288,2478600,2514080,2482418,2515186,3630,3800,7848,-10721,5745,-246,-1191,-78,112,171,827
1168301,2479024,2515072,2483024,2515792,3800,3800,7868,-11199,6026,579,-1427,-80,112,171,827
1169302,2479468,2516072,2483630,2516398,3800,3800,7829,-11615,6275,1337,-1694,-316,103,170,825
1170304,2479960,2516936,2484236,2517004,3800,3800,7705,-11853,6471,1618,-1715,-28,103,170,825
1171304,2480392,2518000,2484842,2517610,3800,3800,7626,-12109,6585,1948,-1885,-879,97,201,823
1172305,2480908,2519024,2485448,2518216,3800,3800,7503,-12309,6634,1880,-2359,-245,97,201,823
1173315,2481420,2520108,2486076,2518844,3800,3800,7377,-12052,6735,1456,-2496,487,104,201,824
1174307,2481932,2521084,2486682,2519450,3800,3800,7276,-11800,6756,1531,-2102,-241,104,201,824
1175308,2482440,2522172,2487288,2520056,3800,3800,7128,-11215,6676,1269,-2293,892,126,215,825
1176297,2483024,2523320,2487894,2520662,3626,3800,6913,-10136,6664,829,-2832,1920,126,215,825
1177310,2483568,2524316,2488500,2521268,3800,3800,6569,-8707,6801,1091,-4377,2838,104,223,826
1178300,2484180,2525344,2489106,2521874,3476,3800,6035,-6524,7149,1104,-5175,5542,104,223,826
1179300,2484776,2526504,2489712,2522480,3582,3800,5357,-3599,7553,992,-5330,7027,116,216,827
1180314,2485328,2527508,2490318,2523086,3800,3800,4703,-615,7851,1143,-5738,6639,116,216,827
1181302,2485964,2528464,2490924,2523692,3344,3800,4185,2080,7998,1221,-5198,6157,134,200,828
1182316,2486508,2529412,2491530,2524298,3800,3800,3742,4216,7906,2493,-4475,4524,134,200,828
1183304,2487228,2530256,2492136,2524904,2798,3800,3264,5933,7630,4497,-3691,3660,146,204,825
1184305,2487876,2531276,2492742,2525510,3231,3800,2715,7433,7289,6101,-2874,2764,146,204,825
1185306,2488528,2532044,2493348,2526116,3187,3800,2303,8353,6815,6789,-2488,326,129,186,826
1186308,2489268,2532928,2493954,2526722,2579,3800,2037,8384,6115,7056,-1302,-1626,129,186,826
1187308,2490000,2533824,2494560,2527328,2574,3800,1896,7459,5234,7663,-293,-3821,145,179,829
1188309,2490684,2534680,2495166,2527934,2841,3800,1788,6053,4206,8853,763,-5059,145,179,829
1189310,2491456,2535560,2495772,2528540,2219,3800,1541,4818,3257,10076,1390,-4587,138,182,831
1190311,2492196,2536368,2496378,2529146,2360,3800,1188,3626,2487,10851,1215,-4926,138,182,831
1191312,2492852,2537168,2496984,2529752,2864,3800,920,2053,1725,10791,1550,-6008,145,169,830
1192313,2493584,2537980,2497590,2530358,2335,3800,860,237,963,10390,1798,-6376,145,169,830
1193314,2494300,2538700,2498196,2530964,2388,3800,875,-1602,108,10154,2265,-6506,131,152,830
1194315,2495028,2539520,2498802,2531570,2260,3800,868,-3212,-804,9905,2852,-6085,131,152,830
1195316,2495832,2540384,2499408,2532176,1698,3800,838,-4286,-1711,9307,4018,-4786,146,163,830
1196317,2496528,2541244,2500014,2532782,2334,3800,741,-4686,-2622,8550,4913,-3301,146,163,830
1197318,2497280,2541984,2500620,2533388,1921,3800,588,-4436,-3474,7629,5173,-1741,151,163,832
1198319,2498028,2542740,2501226,2533994,1884,3800,406,-3567,-4170,6751,4705,-271,151,163,832
1199307,2498668,2543636,2501832,2534600,2545,3325,218,-2285,-4813,5634,4847,594,129,163,831
1200315,2499384,2544472,2502460,2535228,2031,3606,55,-769,-5525,4553,5186,1237,129,163,831
1201322,2500080,2545244,2503066,2535834,2118,3800,-55,889,-6254,4069,5157,1568,131,166,833
1202310,2500772,2546172,2503672,2536440,2106,2814,-181,2373,-7004,3811,5793,1105,131,166,833
1203312,2501396,2547092,2504278,2537046,2523,2724,-312,3785,-7716,3987,6853,1054,128,195,834
1204312,2502060,2548124,2504884,2537652,2249,1835,-492,5037,-8276,4082,6809,329,128,195,834
1205313,2502644,2549192,2505490,2538258,2758,1405,-642,5768,-8557,3507,4698,-561,136,201,836
1206314,2503224,2550176,2506096,2538864,2796,1761,-845,6517,-8597,3498,4479,108,136,201,836
1207315,2503880,2551120,2506702,2539470,2299,1861,-1205,7140,-8534,3269,4077,-294,121,205,838
1208316,2504444,2552076,2507308,2540076,2893,1629,-1708,7596,-8438,2910,3871,-395,121,205,838
1209317,2504992,2552916,2507914,2540682,3019,2249,-2273,7984,-8237,2568,3213,-263,137,198,836
1210318,2505608,2553768,2508520,2541288,2590,2064,-3429,9224,-7363,3445,227,3825,137,198,836
1211320,2506120,2554732,2509126,2541894,3281,1204,-5533,11710,-5468,4810,-2039,7123,129,201,837
1212333,2506544,2555524,2509732,2542500,3800,2195,-7778,13801,-3549,4099,-1519,4245,129,201,837
1213322,2507052,2556272,2510338,2543106,3432,2406,-9243,13941,-2559,2630,-821,-1192,113,181,836
1214323,2507532,2557056,2510944,2543712,3662,2099,-9731,12049,-2503,2195,2427,-5914,113,181,836
1215324,2508024,2557780,2511550,2544318,3638,2420,-9635,8932,-2757,2006,4591,-8606,102,158,828
1216337,2508464,2558576,2512156,2544924,3800,1884,-9446,5639,-3000,1338,4840,-8949,102,158,828
1217325,2508960,2559260,2512762,2545530,3735,2547,-9420,2965,-3029,1116,3809,-7384,90,145,829
1218339,2509408,2559936,2513368,2546136,3800,2564,-9571,1132,-2816,1162,2182,-5013,90,145,829
1219340,2509832,2560512,2513974,2546742,3800,3199,-9872,106,-2355,1202,268,-2223,115,146,830
1220341,2510308,2561100,2514580,2547348,3800,3129,-10447,365,-1729,1310,-1437,2959,115,146,830
1221342,2510752,2561720,2515186,2547954,3800,2921,-11520,2479,-1048,1363,-3305,9089,88,141,827
1222343,2511184,2562228,2515792,2548560,3800,3661,-12401,4345,-628,817,-2839,5392,88,141,827
1223357,2511664,2562660,2516398,2549166,3800,3800,-12810,5107,-712,341,-780,3593,92,110,825
1224358,2512100,2563064,2517004,2549772,3800,3800,-13133,5591,-1271,-368,424,5006,92,110,825
1225359,2512520,2563424,2517610,2550378,3800,3800,-13982,7020,-3037,-2165,-14,4151,85,97,821
1226360,2512972,2563768,2518216,2550984,3800,3800,-14126,7498,-3864,-2400,-1022,5003,85,97,821
1227368,2513420,2564012,2518844,2551612,3800,3800,-14132,8214,-4694,-2614,-1249,5733,91,75,819
1228362,2513844,2564228,2519450,2552218,3800,3800,-14025,9034,-5508,-3384,-1691,6199,91,75,819
1229363,2514308,2564404,2520056,2552824,3800,3800,-12137,11488,-5945,-5152,-5134,17007,81,55,818
1230364,2514752,2564524,2520662,2553430,3800,3800,-3257,28658,-4351,-11790,-18852,32767,81,55,818
1231365,2515180,2564608,2521268,2554036,3800,3800,6035,32297,-2834,-2870,-9474,32767,95,35,816
1232366,2515652,2564644,2521874,2554642,3800,3800,8740,32297,-2901,2404,-622,-3333,95,35,816
1233367,2516088,2564684,2522480,2555248,3800,3800,10787,32297,-3071,-3775,-5391,14961,79,6,816
1234368,2516520,2564680,2523086,2555854,3800,3800,12497,25995,-2998,-1348,-5188,3440,79,6,816
1235369,2517004,2564696,2523692,2556460,3800,3800,12486,20830,-2969,1131,-2923,-5188,82,16,815
1236370,2517440,2564708,2524298,2557066,3800,3800,11237,16349,-2669,-4732,-3398,-6415,82,16,815
1237371,2517900,2564712,2524904,2557672,3800,3800,10108,10127,-2071,-9351,-3669,-8135,89,2,814
1238371,2518396,2564724,2525510,2558278,3800,3800,7860,4622,-1058,-8381,-3653,1390,89,2,814
1239372,2518900,2564720,2526116,2558884,3800,3800,3726,2630,-42,-7188,-2098,9582,81,7,815
1240374,2519388,2564716,2526722,2559490,3800,3800,-114,1819,-144,-5622,683,4932,81,7,815
1241374,2519908,2564728,2527328,2560096,3800,3800,-1611,-1231,-964,-5287,496,-4155,94,15,816
1242376,2520512,2564744,2527934,2560702,3800,3800,-1340,-6706,-1633,-5071,434,-7566,94,15,816
1243377,2521048,2564748,2528540,2561308,3800,3800,-1008,-12214,-1852,-4279,700,-6003,103,2,816
1244378,2521644,2564744,2529146,2561914,3800,3800,-1155,-16298,-1653,-3562,-52,-3881,103,2,816
1245379,2522292,2564748,2529752,2562520,3800,3800,-1559,-18958,-1230,-3146,-914,-1559,119,8,817
1246380,2522912,2564784,2530358,2563126,3800,3800,-1914,-20405,-726,-2472,-1573,747,119,8,817
1247381,2523544,2564808,2530964,2563732,3800,3800,-2203,-20937,-195,-1866,-1654,2712,122,9,817
1248369,2524296,2564856,2531570,2564338,3697,3800,-2627,-20380,323,-1611,-932,6130,122,9,817
1249383,2524996,2564896,2532176,2564944,3800,3800,-3411,-18517,765,-1849,29,10417,124,12,816
1250371,2525728,2564960,2532782,2565550,3728,3800,-4090,-16526,1181,-2715,-258,9405,124,12,816
1251372,2526500,2565080,2533388,2566156,3406,3800,-4367,-15048,1621,-3288,-587,8135,142,22,819
1252373,2527312,2565220,2533994,2566762,3067,3800,-4339,-13755,2011,-3760,-619,8227,142,22,819
1253374,2528160,2565340,2534600,2567368,2738,3800,-4284,-12128,2332,-4389,-447,9631,151,39,819
1254382,2529088,2565520,2535228,2567996,2107,3800,-4172,-10428,2625,-4969,-651,9078,151,39,819
1255376,2529968,2565740,2535834,2568602,2287,3800,-3889,-8994,2904,-4786,-575,7669,160,40,823
1256377,2530840,2565980,2536440,2569208,2221,3800,-3461,-7825,3167,-4482,46,7087,160,40,823
1257378,2531784,2566244,2537046,2569814,1624,3800,-2967,-6815,3341,-4383,712,6716,161,47,826
1258379,2532680,2566532,2537652,2570420,1797,3800,-2404,-6048,3427,-4364,782,5639,161,47,826
1259380,2533516,2566812,2538258,2571026,2072,3800,-1739,-5437,3460,-4316,837,4919,152,52,825
1260381,2534492,2567108,2538864,2571632,1036,3800,-1035,-5029,3517,-4333,445,4095,152,52,825
1261382,2535224,2567476,2539470,2572238,2506,3800,-292,-4985,3643,-4657,3,3008,171,84,827
1262383,2536052,2567880,2540076,2572844,1810,3800,438,-5132,3858,-4728,-551,2604,171,84,827
1263384,2536872,2568240,2540682,2573450,1767,3800,1213,-5306,4159,-4688,-1253,2086,174,78,830
1264385,2537632,2568712,2541288,2574056,2074,3800,1939,-5691,4549,-4605,-1990,1688,174,78,830
1265386,2538372,2569188,2541894,2574662,2141,3800,2607,-5988,4987,-4540,-2230,2043,158,88,829
1266387,2539104,2569672,2542500,2575268,2137,3800,3225,-6263,5493,-4688,-2341,1675,158,88,829
1267388,2539756,2570192,2543106,2575874,2617,3800,3812,-6727,5915,-4657,-2109,858,155,115,829
1268389,2540404,2570748,2543712,2576480,2624,3800,4429,-7419,6252,-4495,-1791,94,155,115,829
1269390,2541040,2571256,2544318,2577086,2687,3800,5011,-8297,6573,-3850,-1898,-180,126,100,829
1270391,2541628,2571868,2544924,2577692,2995,3800,5509,-8972,6954,-3089,-2321,105,126,100,829
1271392,2542124,2572452,2545530,2578298,3619,3800,5938,-9694,7382,-2620,-2262,-480,140,117,827
1272393,2542640,2573084,2546136,2578904,3534,3800,6326,-10489,7750,-1782,-2006,-995,140,117,827
1273394,2543180,2573668,2546742,2579510,3414,3800,6647,-11414,8026,-1059,-1862,-1284,100,125,826
1274408,2543632,2574436,2547348,2580116,3800,3800,6898,-12253,8229,-284,-2082,-994,100,125,826
1275409,2544072,2575056,2547954,2580722,3800,3800,7050,-12795,8430,543,-2578,-517,98,122,824
1276410,2544560,2575700,2548560,2581328,3800,3800,7083,-13295,8615,972,-2800,-511,98,122,824
1277411,2545016,2576360,2549166,2581934,3800,3800,7057,-13601,8708,1369,-2566,-147,91,125,821
1278412,2545460,2577076,2549772,2582540,3800,3800,7021,-13902,8740,1733,-2757,-663,91,125,821
1279413,2545956,2577768,2550378,2583146,3800,3800,6916,-14003,8769,1737,-3268,168,93,141,822
1280414,2546476,2578628,2550984,2583752,3800,3800,6700,-13626,8774,1527,-3084,1371,93,141,822
1281424,2546936,2579376,2551612,2584380,3800,3800,6543,-13202,8771,1599,-3258,580,92,142,821
1282403,2547504,2580248,2552218,2584986,3752,3800,6311,-12485,8764,1764,-3805,2105,92,142,821
1283417,2548000,2581028,2552824,2585592,3800,3800,5961,-11172,8790,1403,-3682,3378,105,171,822
1284418,2548560,2581928,2553430,2586198,3800,3800,5621,-10029,8793,1671,-3072,2206,105,171,822
1285419,2549104,2582924,2554036,2586804,3800,3800,5305,-8854,8644,1603,-2054,2564,111,170,824
1286407,2549704,2583768,2554642,2587410,3655,3800,5039,-7676,8442,1321,-1864,2419,111,170,824
1287421,2550256,2584764,2555248,2588016,3800,3800,4809,-6463,8186,1665,-2035,2420,114,168,824
1288421,2550824,2585652,2555854,2588622,3800,3800,4519,-5046,7987,1566,-1839,3222,114,168,824
1289410,2551480,2586620,2556460,2589228,3326,3800,4195,-3420,7909,1600,-2794,3182,110,190,825
1290424,2552028,2587744,2557066,2589834,3800,3800,3911,-2137,7698,1848,-2015,1751,110,190,825
1291412,2552760,2588852,2557672,2590440,2823,3800,3619,-1112,7442,3018,-2057,1961,124,185,826
1292413,2553396,2589848,2558278,2591046,3411,3800,3063,514,7279,5711,-1972,4413,124,185,826
1293414,2554092,2590768,2558884,2591652,2997,3800,2111,3123,7432,7378,-2610,7120,132,207,826
1294415,2554904,2591824,2559490,2592258,2182,3800,1394,4989,7431,6983,-1458,3108,132,207,826
1295416,2555568,2592792,2560096,2592864,3082,3800,1029,5544,6953,6881,-468,737,158,194,829
1296417,2556296,2593644,2560702,2593470,2630,3800,756,5359,6065,7478,1167,-542,158,194,829
1297418,2557088,2594544,2561308,2594076,2149,3800,397,5118,5020,8939,1827,-876,141,166,832
1298419,2557836,2595324,2561914,2594682,2363,3800,-60,4905,4020,9806,2007,-1139,141,166,832
1299420,2558544,2596072,2562520,2595288,2569,3800,-379,4325,3125,10033,2123,-2542,158,172,830
1300421,2559304,2596748,2563126,2595894,2176,3800,-622,3684,2331,10685,1815,-1989,158,172,830
1301422,2560088,2597464,2563732,2596500,1949,3800,-760,3116,1669,10529,1056,-2170,150,149,830
1302423,2560864,2598092,2564338,2597106,1925,3800,-814,2640,1000,9990,1615,-2018,150,149,830
1303424,2561636,2598756,2564944,2597712,1877,3800,-788,2328,233,9251,1581,-1852,138,135,830
1304425,2562432,2599400,2565550,2598318,1645,3800,-715,2217,-588,8570,1820,-1352,138,135,830
1305426,2563116,2600040,2566156,2598924,2311,3800,-666,2262,-1456,8159,2018,-1080,150,136,830
1306427,2563860,2600684,2566762,2599530,1876,3800,-626,2431,-2440,7750,2849,-1151,150,136,830
