"Data file recorded 2014/9/24  18:1:25"
"%  Right Stride Frequency         = 3.0"
"%  Left Stride Frequency         = 3.0"
"%  Phase (Fractional)         = 32768.0"
"%  Experiment.py "
"%  Motor Gains    = [1800, 200, 100, 0, 0, 1800, 200, 100, 0, 0]
"% Columns: "
"% time | Right Leg Pos | Left Leg Pos | Commanded Right Leg Pos | Commanded Left Leg Pos | DCR | DCL | GyroX | GryoY | GryoZ | AX | AY | AZ | RBEMF | LBEMF | VBatt "
11853,2992912,3087804,2974826,3138666,-3800,3800,-143,-701,308,602,-342,4042,9,-7,917
12847,2992916,3087804,2975023,3138863,-3800,3800,-144,-702,307,602,-338,4049,9,6,918
13848,2992816,3087824,2975220,3139060,-3800,3800,-143,-711,309,615,-343,4045,9,6,918
14849,2992648,3087880,2975417,3139257,-3800,3800,-119,-655,310,666,-321,4456,-35,-5,873
15850,2992388,3087968,2975614,3139454,-3800,3800,-74,-558,323,850,-310,4889,-35,-5,873
16851,2992068,3088072,2975811,3139651,-3800,3800,-28,-479,341,1074,-201,4627,-68,4,874
17840,2991676,3088152,2976008,3139848,-3225,3800,4,-420,337,1359,163,4581,-68,4,874
18840,2991240,3088284,2976205,3140045,-2675,3800,24,-395,319,1609,112,4634,-62,-1,874
19842,2990804,3088408,2976402,3140242,-2400,3800,50,-226,311,1669,-215,5332,-62,-1,874
20842,2990340,3088556,2976599,3140439,-1937,3800,19,-131,327,1550,-237,4480,-83,17,879
21844,2989828,3088740,2976796,3140636,-1328,3800,-53,-174,363,1706,-206,3819,-83,17,879
22845,2989372,3088912,2976993,3140833,-1393,3800,-100,-190,417,1940,-107,4292,-78,19,885
23846,2988932,3089116,2977190,3141030,-1216,3800,-69,-62,496,1944,-50,5157,-78,19,885
24846,2988516,3089300,2977387,3141227,-1099,3800,-39,47,583,2113,-137,4634,-80,25,889
25848,2988208,3089488,2977584,3141424,-1554,3800,-62,109,666,2176,-180,4361,-80,25,889
26849,2987912,3089636,2977781,3141621,-1415,3800,-114,160,766,2214,-344,4871,-72,22,889
27850,2987624,3089816,2977978,3141818,-1253,3800,-111,384,866,2224,-472,5323,-72,22,889
28851,2987408,3089984,2978175,3142015,-1524,3800,-60,656,958,2045,-533,5777,-41,19,888
29852,2987252,3090140,2978372,3142212,-1745,3800,-23,842,1023,2019,-464,4899,-41,19,888
30853,2987104,3090256,2978569,3142409,-1645,3800,-46,884,1073,2126,-513,4526,-32,14,888
31854,2986968,3090368,2978766,3142606,-1576,3800,-47,980,1138,2021,-473,5032,-32,14,888
32854,2986852,3090452,2978963,3142803,-1564,3800,-17,1056,1197,1851,-412,4837,-21,5,885
33855,2986760,3090560,2979160,3143000,-1589,3800,-20,982,1230,1840,-307,3876,-21,5,885
34856,2986676,3090640,2979357,3143197,-1517,3800,-7,1014,1279,1702,-346,4741,-5,2,886
35857,2986592,3090716,2979554,3143394,-1395,3800,62,1221,1318,1468,-188,5396,-5,2,886
36858,2986528,3090784,2979751,3143591,-1407,3800,109,1382,1323,1271,-109,4578,-4,0,884
37859,2986452,3090852,2979948,3143788,-1213,3800,103,1489,1333,1016,-197,4620,-4,0,884
38860,2986412,3090924,2980145,3143985,-1335,3800,75,1612,1360,806,-251,4776,-20,11,882
39862,2986356,3090988,2980342,3144182,-1125,3800,21,1752,1377,446,-125,4362,-20,11,882
40862,2986320,3091072,2980539,3144379,-1149,3800,-35,1911,1376,-30,-108,4637,-9,2,887
41864,2986304,3091140,2980736,3144576,-1181,3800,-65,2072,1360,-279,-112,4774,-9,2,887
42865,2986304,3091216,2980933,3144773,-1196,3800,-95,2210,1333,-508,-23,4170,-15,6,888
43865,2986300,3091308,2981130,3144970,-1083,3800,-140,2195,1308,-790,51,3602,-15,6,888
44866,2986276,3091372,2981327,3145167,-862,3800,-176,2049,1284,-1069,111,3314,4,17,887
45867,2986272,3091484,2981524,3145364,-900,3800,-162,1870,1256,-1446,222,3921,4,17,887
46869,2986280,3091564,2981721,3145561,-893,3800,-111,1778,1222,-1713,224,4086,2,8,888
47869,2986276,3091668,2981918,3145758,-731,3800,-71,1568,1160,-1904,243,3472,2,8,888
48870,2986256,3091760,2982115,3145955,-536,3800,-44,1257,1087,-2094,139,3468,-6,16,885
49872,2986252,3091856,2982312,3146152,-548,3800,18,994,1031,-2262,-53,4111,-6,16,885
50873,2986268,3092000,2982509,3146349,-594,3800,99,731,979,-2252,-158,3922,-9,11,890
51874,2986268,3092100,2982706,3146546,-409,3800,109,291,926,-2228,-42,2631,-9,11,890
52874,2986268,3092208,2982903,3146743,-322,3800,57,-248,891,-2208,-44,2511,11,15,891
53876,2986276,3092332,2983100,3146940,-290,3800,66,-681,904,-2194,-251,3786,11,15,891
54877,2986276,3092464,2983297,3147137,-155,3800,156,-862,947,-2054,-343,4649,14,14,891
55877,2986284,3092596,2983494,3147334,-122,3800,211,-1096,993,-1833,-311,3645,14,14,891
56878,2986296,3092772,2983691,3147531,-66,3800,182,-1469,1029,-1561,-89,3170,-7,35,891
57879,2986308,3092908,2983888,3147728,15,3800,165,-1795,1064,-1234,100,3968,-7,35,891
58881,2986336,3093084,2984085,3147925,-12,3800,222,-2038,1095,-994,374,4554,18,36,891
59882,2986376,3093280,2984282,3148122,-18,3800,294,-2251,1114,-892,634,3963,18,36,891
60882,2986404,3093452,2984479,3148319,131,3800,330,-2619,1118,-777,955,3077,17,27,891
61883,2986464,3093664,2984676,3148516,-9,3800,342,-3033,1100,-704,1043,2887,17,27,891
62885,2986548,3093848,2984873,3148713,-110,3800,361,-3442,1080,-655,853,2896,25,28,893
63885,2986624,3094056,2985070,3148910,-7,3800,394,-3774,1065,-669,765,3093,25,28,893
64886,2986704,3094280,2985267,3149107,19,3800,413,-4007,1045,-660,939,3410,8,30,893
65888,2986828,3094504,2985464,3149304,-224,3800,415,-4131,1027,-656,1019,3569,8,30,893
66888,2986904,3094756,2985661,3149501,129,3800,404,-4187,1029,-590,855,3730,11,46,893
67889,2987000,3095024,2985858,3149698,48,3800,399,-4224,1047,-545,737,3699,11,46,893
68890,2987124,3095276,2986055,3149895,-95,3800,396,-4218,1102,-446,454,3892,16,57,893
69891,2987240,3095520,2986252,3150092,-10,3800,395,-4166,1180,-329,349,3787,16,57,893
70892,2987336,3095872,2986449,3150289,160,3800,401,-4152,1271,-263,427,3705,22,68,893
71894,2987468,3096240,2986646,3150486,-38,3800,405,-4110,1390,-115,391,3878,22,68,893
72894,2987600,3096620,2986843,3150683,-9,3800,411,-4046,1532,104,487,3853,38,77,895
73895,2987728,3097048,2987040,3150880,46,3800,439,-4004,1685,244,748,3626,38,77,895
74896,2987860,3097496,2987237,3151077,50,3800,497,-3997,1812,237,1020,3527,39,73,896
75898,2988020,3097944,2987434,3151274,-109,3800,570,-4011,1919,370,1219,3479,39,73,896
76898,2988144,3098484,2987631,3151471,148,3800,648,-3992,2028,524,1318,3496,39,90,897
77899,2988280,3099020,2987828,3151668,100,3800,729,-3890,2125,466,1399,3750,39,90,897
78900,2988416,3099572,2988025,3151865,127,3800,809,-3714,2182,459,1328,3783,28,87,896
79901,2988524,3100196,2988222,3152062,341,3800,905,-3557,2235,470,1180,3668,28,87,896
80902,2988660,3100760,2988419,3152259,193,3800,1018,-3382,2291,421,1178,3667,35,116,897
81903,2988796,3101416,2988616,3152456,218,3800,1117,-3118,2304,338,1044,3965,35,116,897
82904,2988920,3102080,2988813,3152653,325,3800,1213,-2826,2316,462,906,3778,44,126,896
83905,2989024,3102892,2989010,3152850,491,3800,1306,-2571,2314,494,955,3818,44,126,896
84906,2989168,3103616,2989207,3153047,265,3800,1395,-2215,2370,728,678,3800,23,132,899
85907,2989312,3104480,2989404,3153244,288,3800,1482,-1944,2468,803,520,3497,23,132,899
86908,2989432,3105220,2989601,3153441,472,3800,1586,-1704,2562,921,466,3307,24,162,898
87910,2989576,3106144,2989798,3153638,345,3800,1717,-1548,2670,1049,353,2967,24,162,898
88910,2989704,3107044,2989995,3153835,475,3800,1871,-1394,2803,1267,257,2822,23,167,899
89911,2989816,3108024,2990192,3154032,614,3800,2025,-1251,2905,1393,239,2791,23,167,899
90912,2989960,3109012,2990389,3154229,437,3800,2166,-1069,3001,1508,-21,2847,39,166,899
91913,2990072,3109956,2990586,3154426,674,3800,2277,-774,3120,1638,-271,3078,39,166,899
92914,2990176,3110884,2990783,3154623,765,3800,2355,-385,3220,1619,-645,3134,42,171,899
93922,2990304,3111944,2991210,3155050,747,3800,2417,70,3264,1531,-920,3233,42,171,899
94916,2990440,3113104,2991407,3155247,723,3800,2462,570,3250,1489,-1131,3331,27,190,900
95917,2990544,3114132,2991604,3155444,964,3800,2500,1113,3192,1614,-1263,3333,27,190,900
96918,2990684,3115164,2991801,3155641,764,3800,2510,1728,3114,1658,-1586,3534,27,191,901
97920,2990820,3116292,2991998,3155838,817,3800,2494,2342,3030,1798,-2043,3485,27,191,901
98920,2990940,3117356,2992195,3156035,951,3800,2468,2913,2906,1992,-2162,3129,44,188,900
99921,2991096,3118348,2992392,3156232,744,3800,2444,3383,2739,2006,-2308,2683,44,188,900
100922,2991232,3119424,2992589,3156429,896,3800,2390,3737,2525,2177,-2633,2352,28,189,900
101923,2991380,3120360,2992786,3156626,843,3800,2281,3945,2244,2364,-2559,1842,28,189,900
102924,2991528,3121344,2992983,3156823,865,3800,2137,3985,1938,2543,-2430,1392,29,187,900
103925,2991672,3122172,2993180,3157020,913,3800,1968,3944,1615,2866,-2432,1131,29,187,900
104926,2991792,3123136,2993377,3157217,1097,3800,1806,3725,1244,3032,-2253,378,39,178,899
105927,2991928,3124232,2993574,3157414,1025,3800,1633,3371,797,3049,-1886,-109,39,178,899
106928,2992116,3125200,2993771,3157611,704,3800,1418,2922,275,3086,-1255,-445,30,183,900
107929,2992292,3126132,2993968,3157808,788,3800,1118,2449,-314,2916,-565,-458,30,183,900
108930,2992436,3127128,2994165,3158005,1012,3800,738,2023,-1020,2560,179,-312,39,191,900
109931,2992636,3128104,2994362,3158202,661,3800,278,1496,-1897,2049,496,-761,39,191,900
110932,2992756,3128988,2994559,3158399,1195,3800,-256,917,-2833,1725,606,-816,47,177,900
111933,2992928,3129948,2994756,3158596,882,3800,-838,350,-3627,1638,890,-760,47,177,900
112934,2993076,3130880,2994953,3158793,1053,3800,-1417,-228,-4163,1792,315,-857,50,172,900
113935,2993256,3131796,2995150,3158990,861,3800,-1910,-776,-4453,1833,-203,-829,50,172,900
114936,2993444,3132692,2995347,3159187,816,3800,-2329,-1414,-4555,1649,-828,-937,54,177,898
115937,2993648,3133756,2995544,3159384,713,3800,-2709,-1998,-4487,1441,-1676,-122,54,177,898
116938,2993824,3134812,2995741,3159581,897,3800,-3039,-2195,-4173,1218,-2774,1007,34,186,899
117939,2994008,3135888,2995938,3159778,854,3800,-3272,-2142,-3628,904,-3116,1521,34,186,899
118940,2994184,3136868,2996135,3159975,913,3800,-3358,-2223,-2957,735,-2820,1180,54,210,901
119942,2994332,3137936,2996332,3160172,1110,3800,-3446,-2297,-2292,873,-2474,2056,54,210,901
120942,2994524,3139012,2996529,3160369,838,3800,-3624,-1952,-1577,1040,-2310,3222,56,224,901
121931,2994716,3140192,2996726,3160566,840,3800,-3711,-1875,-729,1424,-2236,2045,56,224,901
122931,2994896,3141512,2996923,3160763,923,2435,-3754,-2117,99,1939,-1766,1784,50,236,902
123932,2995048,3142648,2997120,3160960,1118,3176,-3826,-2464,850,1980,-1297,1941,50,236,902
124933,2995204,3143696,2997317,3161157,1112,3356,-3945,-2641,1614,2079,-1515,2580,53,221,902
125934,2995376,3144716,2997514,3161354,1023,3172,-4344,-2331,2404,1919,-1975,4388,53,221,902
126935,2995492,3145628,2997711,3161551,1409,3536,-4858,-1718,3217,1148,-2513,5248,30,184,901
127936,2995652,3146540,2997908,3161748,1151,3225,-4237,130,3988,2302,-1959,14954,30,184,901
128937,2995792,3147324,2998105,3161945,1301,3770,461,10106,4174,10789,509,32767,29,165,902
129951,2995948,3148040,2998302,3162142,1220,3800,5157,18695,4263,6549,-1523,32767,29,165,902
130952,2996104,3148736,2998499,3162339,1238,3800,5581,20312,4762,2480,-1859,4504,46,135,900
131953,2996264,3149388,2998696,3162536,1230,3800,3915,18278,5314,2410,-900,1454,46,135,900
132954,2996388,3149960,2998893,3162733,1487,3800,2325,15711,5602,2310,-863,-284,46,118,894
133955,2996500,3150528,2999090,3162930,1600,3800,1760,13794,5649,1383,-570,-1735,46,118,894
134956,2996644,3151016,2999287,3163127,1424,3800,1420,11782,5527,1014,-449,-1863,23,116,893
135957,2996756,3151504,2999484,3163324,1661,3800,703,10165,4976,-125,1259,-822,23,116,893
136958,2996880,3151952,2999681,3163521,1619,3800,-428,8452,4152,-1739,1803,-566,37,85,889
137959,2997008,3152348,2999878,3163718,1625,3800,-1584,6822,3352,-2531,-262,-408,37,85,889
138960,2997108,3152736,3000075,3163915,1843,3800,-2688,5114,2617,-3298,-240,-478,20,69,889
139961,2997212,3153084,3000272,3164112,1860,3800,-3607,3315,1848,-4434,556,-397,20,69,889
140962,2997316,3153400,3000469,3164309,1901,3800,-4408,1037,881,-5595,825,-1601,16,59,889
141963,2997444,3153688,3000666,3164506,1782,3800,-2138,-3955,351,-10623,-3521,19542,16,59,889
142964,2997588,3153972,3000863,3164703,1706,3800,2086,-9530,128,-8820,-4430,24639,18,61,887
143965,2997688,3154240,3001060,3164900,2024,3800,2726,-12211,-87,-4817,-2236,3106,18,61,887
144966,2997820,3154532,3001257,3165097,1854,3800,870,-11698,158,-4081,-4283,5851,37,58,887
145967,2997936,3154788,3001454,3165294,1989,3800,-921,-11546,603,-3999,-3772,3069,37,58,887
146968,2998044,3155040,3001651,3165491,2080,3800,-1444,-12302,745,-3859,-1931,2039,33,58,884
147969,2998152,3155288,3001848,3165688,2120,3800,-1335,-13865,621,-3542,-1322,1075,33,58,884
148970,2998268,3155520,3002045,3165885,2105,3800,-1254,-15368,533,-2592,-1378,1785,38,51,884
149971,2998380,3155808,3002242,3166082,2169,3800,-1517,-15936,698,-1689,-1409,4488,38,51,884
150972,2998532,3156060,3002439,3166279,1939,3800,-1869,-15971,1073,-639,-724,5467,18,44,884
151973,2998684,3156272,3002636,3166476,1960,3800,-2031,-15411,1498,845,-251,8697,18,44,884
152974,2998832,3156472,3002833,3166673,2007,3800,-364,-11793,1826,4313,-228,32767,43,51,884
153976,2998984,3156688,3003030,3166870,2003,3800,2162,-7229,1938,3425,644,32288,43,51,884
154977,2999100,3156872,3003227,3167067,2264,3800,3103,-6013,2078,86,1078,4909,38,47,885
155977,2999228,3157092,3003424,3167264,2220,3800,2822,-7200,2312,87,993,3253,38,47,885
156978,2999364,3157296,3003621,3167461,2197,3800,2345,-8394,2594,665,162,3403,40,34,885
157979,2999512,3157480,3003818,3167658,2145,3800,2121,-9033,2936,964,162,3343,40,34,885
158980,2999660,3157652,3004015,3167855,2167,3800,2157,-9268,3330,1129,299,3803,25,43,882
159981,2999788,3157824,3004212,3168052,2324,3800,2238,-9271,3654,1101,246,4319,25,43,882
160982,2999976,3158000,3004409,3168249,1954,3800,2336,-9215,3929,724,174,4300,39,26,883
161983,3000132,3158168,3004606,3168446,2173,3800,2446,-9059,4173,611,176,4688,39,26,883
162984,3000308,3158348,3004803,3168643,2057,3800,2554,-8808,4384,423,137,4688,48,36,882
163985,3000472,3158536,3005000,3168840,2147,3800,2635,-8350,4580,52,120,5200,48,36,882
164986,3000652,3158732,3005197,3169037,2056,3800,2735,-7747,4736,-278,134,5029,39,29,883
165987,3000804,3158936,3005394,3169234,2252,3800,2876,-7169,4839,-810,159,5010,39,29,883
166988,3000996,3159136,3005591,3169431,2005,3800,3034,-6423,4914,-1283,327,5395,27,29,883
167989,3001160,3159332,3005788,3169628,2195,3800,3207,-5636,4943,-1520,557,5124,27,29,883
168990,3001360,3159588,3005985,3169825,1970,3800,3392,-4736,4930,-2051,584,5145,50,44,879
169991,3001568,3159836,3006182,3170022,1916,3800,3581,-3803,4852,-2910,641,5223,50,44,879
170992,3001756,3160092,3006379,3170219,2045,3800,3701,-2637,4723,-3136,633,5911,51,57,883
171993,3001952,3160412,3006576,3170416,1997,3800,3807,-1461,4631,-2988,814,5209,51,57,883
172994,3002140,3160712,3006773,3170613,2051,3800,3967,-540,4493,-2725,1840,4139,30,63,885
173995,3002332,3160988,3006970,3170810,2030,3800,4142,101,4250,-2414,2277,3195,30,63,885
174996,3002544,3161344,3007167,3171007,1899,3800,4328,481,4043,-1841,1878,2243,42,71,886
175997,3002788,3161748,3007364,3171204,1679,3800,4514,661,3919,-1396,1567,1213,42,71,886
177005,3003004,3162164,3007594,3171434,1862,3800,4708,514,3856,-1252,885,89,38,77,887
177987,3003212,3162624,3007791,3171631,1908,3429,4905,233,3869,-1057,312,-382,38,77,887
178987,3003448,3163120,3007988,3171828,1716,3074,5048,-124,3980,-573,-290,-562,38,84,889
179988,3003664,3163608,3008185,3172025,1833,2997,5114,-349,4279,287,-1379,-385,38,84,889
180989,3003888,3164156,3008382,3172222,1772,2470,5100,-550,4618,812,-1174,-847,47,109,890
181991,3004104,3164700,3008579,3172419,1815,2344,5003,-875,4806,863,-686,-1061,47,109,890
182991,3004344,3165224,3008776,3172616,1647,2327,4798,-1089,4789,702,-502,-554,44,94,895
183992,3004560,3165780,3008973,3172813,1790,1970,4516,-1174,4675,541,-707,-474,44,94,895
184993,3004768,3166260,3009170,3173010,1836,2323,4231,-1179,4550,609,-640,-261,46,103,899
185995,3005004,3166808,3009367,3173207,1644,1745,3924,-1052,4440,1093,-531,166,46,103,899
186996,3005244,3167332,3009564,3173404,1601,1752,3615,-823,4339,1382,-605,330,42,105,901
187997,3005448,3167888,3009761,3173601,1824,1395,3345,-554,4205,1480,-261,225,42,105,901
188997,3005692,3168456,3009958,3173798,1554,1158,3097,-204,4017,1609,192,353,39,111,903
189998,3005908,3168964,3010155,3173995,1722,1397,2789,187,3799,1633,594,566,39,111,903
190999,3006116,3169460,3010352,3174192,1768,1342,2429,631,3558,1635,802,736,38,95,903
192000,3006360,3169984,3010549,3174389,1522,1024,2067,1090,3298,1822,825,508,38,95,903
193001,3006576,3170480,3010746,3174586,1690,1069,1737,1510,3039,1905,724,501,39,91,903
194003,3006820,3171024,3010943,3174783,1495,617,1431,1956,2810,1938,469,667,39,91,903
195003,3007056,3171556,3011140,3174980,1529,546,1159,2404,2617,1909,459,436,58,102,907
196005,3007288,3171996,3011337,3175177,1539,1014,909,2802,2444,1871,534,288,58,102,907
197005,3007504,3172504,3011534,3175374,1631,454,675,3091,2253,1891,500,17,58,98,909
198007,3007732,3173012,3011731,3175571,1544,317,452,3263,2037,2049,495,-384,58,98,909
199007,3007932,3173468,3011928,3175768,1719,529,233,3346,1840,2135,560,-617,35,94,907
200008,3008176,3173940,3012125,3175965,1424,308,1,3369,1688,2106,511,-667,35,94,907
201009,3008436,3174356,3012322,3176162,1296,563,-213,3428,1566,2066,395,-679,52,75,909
202011,3008664,3174736,3012519,3176359,1484,708,-377,3444,1484,2126,385,-944,52,75,909
203012,3008876,3175036,3012716,3176556,1578,1162,-485,3309,1424,2298,461,-1381,38,81,909
204013,3009088,3175412,3012913,3176753,1571,610,-559,2946,1346,2381,610,-1865,38,81,909
205013,3009332,3175836,3013110,3176950,1352,210,-620,2501,1251,2492,805,-2034,38,78,908
206014,3009564,3176104,3013307,3177147,1412,1154,-709,2096,1138,2528,948,-1882,38,78,908
207015,3009832,3176428,3013504,3177344,1157,748,-833,1858,1052,2524,796,-1472,54,75,908
208016,3010092,3176748,3013701,3177541,1179,719,-959,1762,998,2449,631,-1037,54,75,908
209017,3010348,3177076,3013898,3177738,1180,612,-1030,1713,919,2257,708,-1224,57,66,907
210019,3010548,3177372,3014095,3177935,1529,769,-1047,1532,805,2132,512,-1405,57,66,907
211019,3010784,3177672,3014292,3178132,1287,699,-1087,1429,688,2089,301,-766,47,62,910
212020,3011060,3177956,3014489,3178329,1003,760,-1202,1634,591,1868,0,70,47,62,910
213021,3011352,3178256,3014686,3178526,863,615,-1346,2049,482,1596,-205,186,42,48,907
214022,3011620,3178504,3014883,3178723,981,918,-1499,2517,342,1266,-294,425,42,48,907
215023,3011856,3178716,3015080,3178920,1165,1136,-1658,3068,203,928,-492,732,43,40,909
216024,3012096,3178920,3015277,3179117,1122,1183,-1831,3653,58,597,-719,846,43,40,909
217025,3012392,3179096,3015474,3179314,729,1367,-1988,4232,-111,199,-836,885,40,44,910
218026,3012608,3179328,3015671,3179511,1222,1002,-2241,4717,-407,-115,-272,733,40,44,910
219028,3012828,3179552,3015868,3179708,1186,1040,-2584,4978,-865,-137,233,145,57,35,908
220029,3013052,3179748,3016065,3179905,1151,1215,-2942,5036,-1412,-116,786,-340,57,35,908
221030,3013264,3179964,3016262,3180102,1219,1082,-3243,4865,-2025,-150,1279,-978,34,45,908
222031,3013504,3180160,3016459,3180299,1026,1208,-3519,4486,-2650,-192,1544,-1437,34,45,908
223032,3013736,3180312,3016656,3180496,1062,1502,-3780,3894,-3257,-173,1710,-1798,50,40,908
224032,3013936,3180452,3016853,3180693,1260,1602,-4070,3222,-3846,107,1827,-1832,50,40,908
225033,3014144,3180604,3017050,3180890,1207,1547,-4413,2575,-4384,336,1733,-1517,53,26,907
226035,3014340,3180760,3017247,3181087,1282,1540,-4783,1950,-4870,335,1464,-1413,53,26,907
227036,3014552,3180932,3017444,3181284,1176,1452,-5105,1214,-5354,227,1178,-1733,35,36,905
228037,3014776,3181084,3017641,3181481,1090,1597,-5411,415,-5753,310,-37,-1397,35,36,905
229038,3014968,3181216,3017838,3181678,1293,1751,-5729,-392,-5955,465,-1187,-908,39,28,905
230039,3015156,3181352,3018035,3181875,1322,1752,-6047,-1105,-5983,511,-1711,-641,39,28,905
231040,3015324,3181436,3018232,3182072,1460,2127,-6319,-1755,-5910,287,-2012,-320,28,29,906
232041,3015480,3181568,3018429,3182269,1554,1856,-6520,-2460,-5802,-121,-2107,-354,28,29,906
233041,3015612,3181684,3018626,3182466,1733,1991,-6665,-3207,-5676,-399,-2069,-305,19,29,903
234042,3015748,3181752,3018823,3182663,1736,2348,-6786,-3976,-5465,-518,-2118,-162,19,29,903
235044,3015852,3181872,3019020,3182860,1977,2057,-6944,-4695,-5111,-468,-2467,465,19,18,900
236045,3015972,3181980,3019217,3183057,1912,2172,-7193,-5196,-4615,-284,-2787,1529,19,18,900
237046,3016092,3182124,3019414,3183254,1946,1970,-7530,-5444,-4104,-273,-2552,2259,34,17,896
238047,3016228,3182292,3019611,3183451,1873,1833,-8114,-5300,-3621,93,-2765,3766,34,17,896
239048,3016368,3182432,3019808,3183648,1874,2033,-9005,-4810,-3008,647,-3804,4623,33,28,897
240048,3016520,3182572,3020005,3183845,1819,2058,-9735,-4816,-2444,343,-3806,2704,33,28,897
241049,3016664,3182696,3020202,3184042,1893,2191,-10149,-5233,-1953,207,-3854,2618,21,31,900
242051,3016848,3182808,3020399,3184239,1650,2303,-10640,-5288,-1371,100,-5246,5035,21,31,900
243052,3017000,3182928,3020596,3184436,1870,2287,-8741,-926,-673,2790,-6352,27265,31,16,899
244053,3017148,3183048,3020793,3184633,1917,2322,-619,16996,90,8262,-7091,32767,31,16,899
245053,3017328,3183152,3020990,3184830,1726,2463,5296,26846,947,4191,-6025,12753,40,18,898
246055,3017472,3183300,3021187,3185027,1975,2209,5965,25036,1540,3991,-2010,-4042,40,18,898
247055,3017636,3183416,3021384,3185224,1865,2445,4309,17871,1792,4409,-1386,-8853,42,29,895
248056,3017792,3183524,3021581,3185421,1934,2535,3354,11735,1915,4966,-1721,-8954,42,29,895
249057,3017940,3183644,3021778,3185618,2006,2494,2812,7947,2352,4571,-1897,-5227,32,18,897
250059,3018084,3183756,3021975,3185815,2054,2582,2267,5871,2919,4961,-2265,-3136,32,18,897
251060,3018220,3183844,3022172,3186012,2132,2780,1316,3801,3238,4788,-1272,-2568,18,27,894
252061,3018356,3183944,3022369,3186209,2160,2748,279,1823,3273,3847,360,-1168,18,27,894
253062,3018512,3184044,3022566,3186406,2054,2791,-745,-30,3119,3653,19,-163,32,27,892
254063,3018672,3184160,3022763,3186603,2045,2727,-1625,-1780,2856,2939,-187,-69,32,27,892
255064,3018840,3184276,3022960,3186800,2009,2764,-2237,-3325,2595,1815,583,650,22,29,891
256064,3019032,3184384,3023157,3186997,1862,2853,-2630,-4638,2171,1412,1216,969,22,29,891
257065,3019236,3184512,3023354,3187194,1785,2759,-2931,-5952,1543,489,1564,1315,39,17,892
258067,3019448,3184632,3023551,3187391,1730,2843,-3239,-6772,938,-387,1278,3669,39,17,892
259067,3019656,3184768,3023748,3187588,1750,2771,-2326,-6816,659,-3171,-1898,17533,29,20,892
260078,3019856,3184912,3023978,3187818,1814,2759,818,-4893,1041,-7246,-6312,32767,29,20,892
261069,3020076,3185052,3024175,3188015,1680,2810,3071,-2280,1323,-4434,-3079,24298,47,22,894
262070,3020276,3185180,3024372,3188212,1805,2915,2952,-935,1109,-2480,-852,8706,47,22,894
263071,3020480,3185312,3024569,3188409,1776,2919,1910,-468,679,-2151,-416,7387,34,17,893
264072,3020684,3185452,3024766,3188606,1774,2896,1244,-319,274,-1975,451,6277,34,17,893
265073,3020932,3185612,3024963,3188803,1478,2787,989,-163,-26,-1541,660,5795,36,35,893
266075,3021164,3185784,3025160,3189000,1564,2724,845,0,-323,-1260,1035,5355,36,35,893
267075,3021420,3185920,3025357,3189197,1389,2976,735,3,-660,-1143,1085,4564,46,27,893
268077,3021676,3186096,3025554,3189394,1363,2736,655,-223,-921,-627,480,3826,46,27,893
269077,3021940,3186292,3025751,3189591,1284,2612,564,-543,-901,-76,-352,3656,41,29,894
270078,3022172,3186500,3025948,3189788,1470,2532,481,-841,-647,0,-452,3325,41,29,894
271079,3022416,3186720,3026145,3189985,1374,2448,517,-1411,-389,50,-350,2155,40,39,897
272080,3022628,3186944,3026342,3190182,1569,2411,607,-2264,-152,234,-586,1557,40,39,897
273081,3022828,3187176,3026539,3190379,1643,2347,678,-3197,127,478,-539,1121,37,49,898
274083,3023040,3187372,3026736,3190576,1563,2574,709,-4270,437,921,-469,415,37,49,898
275083,3023212,3187604,3026933,3190773,1824,2333,702,-5398,775,1319,-630,442,40,54,898
276085,3023416,3187888,3027130,3190970,1622,1971,658,-6319,1178,1404,-808,901,40,54,898
277085,3023628,3188148,3027327,3191167,1566,2094,620,-6966,1584,1148,-811,1508,49,42,895
278087,3023808,3188408,3027524,3191364,1774,2067,630,-7357,1898,459,-827,2196,49,42,895
279087,3023972,3188640,3027721,3191561,1889,2227,714,-7576,2118,59,-669,2553,45,46,900
280088,3024160,3188884,3027918,3191758,1744,2131,833,-7592,2271,-34,-644,3025,45,46,900
281089,3024328,3189144,3028115,3191955,1883,2005,978,-7472,2441,-417,-852,3127,41,53,897
282090,3024488,3189388,3028312,3192152,1949,2084,1123,-7229,2585,-841,-1087,3653,41,53,897
283091,3024656,3189612,3028509,3192349,1913,2198,1249,-6841,2701,-922,-1122,3948,41,35,899
284093,3024824,3189836,3028706,3192546,1926,2186,1374,-6286,2789,-966,-1010,4325,41,35,899
285094,3024972,3190056,3028903,3192743,2073,2202,1504,-5687,2817,-1071,-762,4254,42,53,898
286095,3025160,3190264,3029100,3192940,1828,2272,1627,-5163,2771,-1179,-515,4067,42,53,898
287096,3025320,3190516,3029297,3193137,2020,1974,1728,-4644,2674,-1135,-307,4081,30,38,898
288097,3025472,3190744,3029494,3193334,2091,2111,1807,-4070,2535,-862,-181,3948,30,38,898
289097,3025668,3190956,3029691,3193531,1817,2205,1877,-3649,2381,-593,-208,3238,25,36,898
290099,3025808,3191176,3029888,3193728,2192,2145,1928,-3481,2236,-159,-46,2607,25,36,898
291099,3025984,3191360,3030085,3193925,1978,2377,1944,-3496,2160,402,302,2204,32,39,895
292101,3026168,3191568,3030282,3194122,1934,2222,1927,-3551,2179,932,341,1958,32,39,895
293102,3026324,3191776,3030479,3194319,2128,2218,1889,-3688,2245,1247,288,1648,27,30,896
294103,3026480,3191980,3030676,3194516,2146,2240,1834,-3939,2295,1552,394,1212,27,30,896
295103,3026644,3192192,3030873,3194713,2112,2184,1766,-4288,2299,1843,522,953,20,31,897
296105,3026796,3192420,3031070,3194910,2208,2071,1672,-4517,2305,2183,170,1335,20,31,897
297105,3026980,3192592,3031267,3195107,2014,2433,1547,-4648,2355,2352,-136,1602,38,46,895
298107,3027132,3192844,3031464,3195304,2235,1909,1400,-4677,2447,2397,-147,1823,38,46,895
299108,3027316,3193044,3031661,3195501,2041,2233,1244,-4648,2558,2542,-59,2141,38,42,896
300108,3027484,3193252,3031858,3195698,2155,2178,1077,-4485,2654,2685,-77,2406,38,42,896
301109,3027644,3193468,3032055,3195895,2222,2121,873,-4144,2725,2694,-90,2985,42,45,896
302110,3027824,3193680,3032252,3196092,2105,2139,635,-3670,2768,2619,104,3284,42,45,896
303111,3028024,3193888,3032449,3196289,1980,2161,372,-3131,2791,2510,113,3703,34,31,895
304112,3028196,3194092,3032646,3196486,2167,2183,103,-2460,2795,2414,-184,3975,34,31,895
305113,3028392,3194320,3032843,3196683,2019,2019,-164,-1744,2802,2325,-602,4231,40,37,896
306115,3028552,3194552,3033040,3196880,2260,1980,-396,-1014,2800,2268,-607,4204,40,37,896
307115,3028712,3194820,3033237,3197077,2277,1723,-574,-323,2766,2348,-162,4104,47,53,897
308116,3028884,3195076,3033434,3197274,2214,1773,-720,342,2692,2426,341,4132,47,53,897
309117,3029056,3195336,3033631,3197471,2226,1721,-865,1016,2598,2391,615,4160,35,44,897
310119,3029236,3195592,3033828,3197668,2184,1721,-1007,1589,2474,2330,747,3926,35,44,897
311119,3029432,3195880,3034025,3197865,2086,1481,-1116,2054,2370,2334,585,3670,40,46,898
312120,3029616,3196176,3034222,3198062,2168,1387,-1153,2387,2298,2368,172,3169,40,46,898
313121,3029776,3196476,3034419,3198259,2334,1318,-1143,2648,2270,2298,31,3060,40,48,896
314122,3029948,3196820,3034616,3198456,2271,978,-1128,2881,2254,2110,118,2915,40,48,896
315123,3030096,3197028,3034813,3198653,2443,1824,-1113,3066,2236,1912,139,2729,40,63,901
316124,3030244,3197224,3035010,3198850,2466,1900,-1072,3224,2200,1664,72,2758,40,63,901
317126,3030400,3197404,3035207,3199047,2435,2008,-1027,3433,2130,1343,-53,2912,23,32,901
318127,3030560,3197616,3035404,3199244,2427,1801,-989,3685,2045,964,-85,3156,23,32,901
319128,3030676,3197868,3035601,3199441,2739,1528,-967,3951,1966,631,48,3181,47,32,896
320128,3030852,3198112,3035798,3199638,2374,1557,-941,4198,1886,380,275,3111,47,32,896
321130,3031080,3198348,3035995,3199835,2036,1590,-916,4475,1783,165,458,3259,32,53,896
322131,3031268,3198568,3036192,3200032,2291,1680,-889,4739,1670,-22,516,3318,32,53,896
323131,3031452,3198852,3036389,3200229,2323,1243,-868,4997,1569,4,673,3349,53,63,897
324132,3031644,3199128,3036586,3200426,2276,1258,-861,5183,1445,-105,1081,3190,53,63,897
325133,3031832,3199384,3036783,3200623,2305,1357,-890,5323,1262,-407,1502,3100,47,52,898
326134,3032004,3199592,3036980,3200820,2417,1652,-959,5425,1022,-669,1764,3069,47,52,898
327135,3032176,3199836,3037177,3201017,2429,1407,-1054,5582,766,-1085,1829,3211,31,50,900
328136,3032356,3200048,3037374,3201214,2388,1601,-1172,5828,528,-1512,1653,3714,31,50,900
329137,3032524,3200296,3037571,3201411,2476,1353,-1329,6155,289,-1847,1491,4041,27,53,897
330138,3032692,3200528,3037768,3201608,2490,1438,-1537,6446,26,-2193,1537,4005,27,53,897
331139,3032848,3200724,3037965,3201805,2584,1665,-1800,6703,-224,-2328,1478,3898,36,41,897
332140,3032992,3200960,3038162,3202002,2683,1397,-2050,6806,-428,-2394,1366,3614,36,41,897
333142,3033172,3201236,3038359,3202199,2467,1113,-2207,6899,-538,-2456,907,4195,30,50,898
334142,3033332,3201536,3038556,3202396,2609,917,-1477,8400,-375,-3022,-676,17773,30,50,898
335143,3033520,3201800,3038753,3202593,2439,1113,-138,10620,-81,-2586,-366,18672,44,46,895
336144,3033700,3202072,3038950,3202790,2498,1030,468,10928,29,-1394,958,2629,44,46,895
337145,3033888,3202328,3039147,3202987,2453,1105,399,9692,26,-967,786,826,46,44,900
338147,3034064,3202592,3039344,3203184,2538,1026,139,8063,41,-526,650,396,46,44,900
339147,3034252,3202828,3039541,3203381,2468,1184,-49,6828,132,-409,680,765,31,41,900
340148,3034436,3203064,3039738,3203578,2499,1166,-181,5773,228,-457,1062,802,31,41,900
341149,3034628,3203284,3039935,3203775,2453,1256,-374,4799,218,-477,1420,1173,31,51,900
342151,3034820,3203452,3040132,3203972,2456,1594,-606,3870,113,-728,1329,1637,31,51,900
343158,3035016,3203588,3040362,3204202,2447,1835,-786,3070,-54,-901,858,3045,32,45,899
344152,3035212,3203756,3040559,3204399,2448,1648,-544,2949,-229,-1507,214,9845,32,45,899
345153,3035392,3203948,3040756,3204596,2557,1500,369,3692,-320,-2668,-891,17897,46,27,896
346154,3035604,3204156,3040953,3204793,2351,1396,1164,4501,-436,-2500,-817,13892,46,27,896
347155,3035788,3204348,3041150,3204990,2533,1499,1111,4560,-754,-1993,775,6571,32,45,896
348156,3035956,3204536,3041347,3205187,2647,1528,432,4144,-1222,-1996,1027,4516,32,45,896
349157,3036168,3204732,3041544,3205384,2366,1478,-336,3576,-1711,-2070,847,4319,48,30,899
350159,3036348,3204928,3041741,3205581,2574,1478,-751,3047,-2090,-2376,591,6037,48,30,899
351159,3036524,3205120,3041938,3205778,2610,1506,-569,2630,-2338,-2596,-243,9940,47,51,897
352160,3036708,3205380,3042135,3205975,2566,1053,-269,1980,-2561,-2079,-240,7192,47,51,897
353161,3036876,3205580,3042332,3206172,2680,1427,-392,952,-2782,-1493,-10,2854,41,51,897
354163,3037036,3205800,3042529,3206369,2747,1293,-797,-168,-2919,-1146,-627,2078,41,51,897
355164,3037252,3205980,3042726,3206566,2391,1550,-1116,-1240,-2921,-977,-1199,2308,31,33,900
356165,3037444,3206148,3042923,3206763,2544,1638,-1133,-2139,-2778,-1165,-2038,3873,31,33,900
357165,3037624,3206296,3043120,3206960,2628,1784,-831,-2744,-2543,-1520,-2641,6618,33,26,896
358167,3037832,3206432,3043317,3207157,2449,1886,-422,-3162,-2300,-1578,-2582,7032,33,26,896
359167,3038016,3206540,3043514,3207354,2606,2100,-202,-3576,-2113,-1535,-2179,5057,33,16,897
360169,3038196,3206648,3043711,3207551,2639,2139,-237,-3958,-1980,-1733,-2042,4103,33,16,897
361169,3038388,3206760,3043908,3207748,2567,2152,-397,-4291,-1866,-2057,-2239,4179,36,16,896
362171,3038556,3206872,3044105,3207945,2731,2190,-547,-4449,-1766,-2383,-2447,4754,36,16,896
363172,3038752,3206988,3044302,3208142,2557,2201,-607,-4446,-1656,-2625,-2661,5255,42,20,893
364172,3038932,3207100,3044499,3208339,2666,2263,-521,-4232,-1539,-2635,-2885,6848,42,20,893
365173,3039148,3207220,3044696,3208536,2434,2247,-280,-3683,-1457,-2443,-2844,8924,50,20,892
366175,3039344,3207300,3044893,3208733,2560,2549,13,-3077,-1408,-2449,-2661,8509,50,20,892
367176,3039548,3207380,3045090,3208930,2508,2601,207,-2747,-1364,-2421,-2135,6199,36,13,890
368176,3039780,3207500,3045287,3209127,2319,2384,273,-2797,-1308,-2313,-1692,4664,36,13,890
369177,3039968,3207600,3045484,3209324,2599,2552,292,-2950,-1218,-2147,-1512,4141,45,25,890
370179,3040192,3207684,3045681,3209521,2363,2703,337,-3206,-1104,-1917,-1139,3548,45,25,890
371179,3040432,3207772,3045878,3209718,2245,2726,409,-3525,-1008,-1636,-531,3202,48,29,893
372181,3040664,3207876,3046075,3209915,2280,2667,482,-3889,-925,-1264,-379,3102,48,29,893
373181,3040888,3208016,3046272,3210112,2320,2468,550,-4251,-818,-983,-393,2957,42,30,891
374183,3041136,3208184,3046469,3210309,2148,2305,594,-4591,-699,-810,-368,2906,42,30,891
375183,3041380,3208332,3046666,3210506,2153,2453,624,-4959,-588,-579,-458,2804,56,36,891
376184,3041620,3208492,3046863,3210703,2161,2394,654,-5252,-478,-200,-518,2930,56,36,891
377185,3041892,3208624,3047060,3210900,1929,2599,686,-5506,-373,191,-316,2883,53,23,895
378187,3042148,3208768,3047257,3211097,2004,2547,716,-5665,-278,586,-78,3148,53,23,895
379187,3042424,3208952,3047454,3211294,1845,2303,723,-5719,-192,939,283,3679,44,37,894
380188,3042728,3209124,3047651,3211491,1624,2390,711,-5626,-152,1306,913,3821,44,37,894
381189,3042988,3209272,3047848,3211688,1872,2561,655,-5383,-232,1479,1639,4255,45,26,893
382191,3043280,3209420,3048045,3211885,1631,2584,575,-5007,-373,1571,1775,4719,45,26,893
383192,3043608,3209572,3048242,3212082,1350,2579,465,-4464,-491,1757,1584,5137,58,33,898
384192,3043896,3209732,3048439,3212279,1561,2546,343,-3757,-610,1837,1484,5343,58,33,898
385193,3044188,3209872,3048636,3212476,1495,2696,234,-3081,-740,1773,1326,5133,57,23,896
386195,3044488,3210008,3048833,3212673,1401,2749,174,-2554,-890,1714,1176,4499,57,23,896
387196,3044820,3210144,3049030,3212870,1143,2775,190,-2311,-1044,1625,934,3721,53,25,897
388197,3045104,3210264,3049227,3213067,1404,2910,275,-2209,-1170,1568,603,3209,53,25,897
389197,3045376,3210392,3049424,3213264,1447,2891,418,-2223,-1238,1572,158,2700,73,30,894
390198,3045684,3210524,3049621,3213461,1175,2895,585,-2315,-1269,1461,-84,2500,73,30,894
391199,3045992,3210708,3049818,3213658,1127,2576,776,-2356,-1311,1225,-143,2424,68,29,894
392200,3046280,3210828,3050015,3213855,1212,3011,976,-2430,-1399,1023,-78,2259,68,29,894
393201,3046568,3211008,3050212,3214052,1173,2643,1190,-2451,-1536,725,-221,2329,63,25,896
394202,3046852,3211160,3050409,3214249,1161,2839,1391,-2392,-1649,422,-758,2599,63,25,896
395203,3047096,3211340,3050606,3214446,1390,2672,1534,-2191,-1675,268,-1259,2866,55,43,895
396204,3047380,3211484,3050803,3214643,1103,2921,1592,-1888,-1649,62,-1598,3079,55,43,895
397205,3047656,3211672,3051000,3214840,1119,2651,1612,-1492,-1634,-241,-1698,3120,47,42,897
398206,3047904,3211844,3051197,3215037,1272,2762,1624,-1148,-1655,-508,-1675,2895,47,42,897
399208,3048200,3212032,3051394,3215234,929,2667,1641,-853,-1703,-566,-1671,2804,63,36,896
400208,3048444,3212184,3051591,3215431,1234,2912,1641,-570,-1736,-611,-1647,2744,63,36,896
401209,3048688,3212376,3051788,3215628,1214,2665,1640,-280,-1733,-623,-1652,2643,52,45,896
402210,3048944,3212556,3051985,3215825,1114,2748,1655,-8,-1683,-666,-1683,2441,52,45,896
403211,3049156,3212752,3052182,3216022,1382,2650,1705,168,-1583,-587,-1749,2141,57,32,895
404212,3049376,3212928,3052379,3216219,1323,2784,1765,227,-1452,-394,-1776,1770,57,32,895
405213,3049612,3213092,3052576,3216416,1207,2874,1826,211,-1324,-245,-1650,1422,56,42,898
406214,3049840,3213284,3052773,3216613,1243,2701,1859,105,-1208,-148,-1455,1151,56,42,898
407215,3050096,3213512,3052970,3216810,1043,2464,1872,-53,-1101,-47,-1244,946,59,35,897
408216,3050320,3213704,3053167,3217007,1232,2692,1856,-307,-1017,-3,-902,713,59,35,897
409217,3050560,3213896,3053364,3217204,1114,2694,1818,-615,-956,67,-746,618,53,33,897
410218,3050788,3214044,3053561,3217401,1175,2992,1757,-888,-879,151,-748,585,53,33,897
411220,3051020,3214212,3053758,3217598,1136,2880,1679,-1153,-778,211,-720,582,53,34,894
412220,3051288,3214404,3053955,3217795,880,2733,1583,-1398,-664,301,-710,590,53,34,894
413221,3051540,3214604,3054152,3217992,956,2682,1483,-1688,-552,283,-702,501,53,40,893
414222,3051784,3214784,3054349,3218189,986,2815,1359,-1957,-459,259,-575,547,53,40,893
415224,3052052,3214964,3054546,3218386,805,2823,1203,-2239,-379,241,-505,631,61,29,898
416224,3052292,3215136,3054743,3218583,962,2885,1016,-2489,-312,221,-409,792,61,29,898
417225,3052524,3215316,3054940,3218780,997,2843,810,-2627,-263,219,-229,934,59,44,898
418227,3052784,3215488,3055137,3218977,795,2905,590,-2787,-216,197,-99,968,59,44,898
419228,3053016,3215640,3055334,3219174,955,3051,369,-2916,-158,205,-53,1168,44,36,897
420229,3053236,3215832,3055531,3219371,1020,2803,143,-2987,-79,253,-93,1345,44,36,897
421229,3053472,3216000,3055728,3219568,904,2966,-87,-3066,14,410,-104,1330,35,34,897
422231,3053684,3216200,3055925,3219765,1047,2766,-310,-3184,140,562,-156,1280,35,34,897
423231,3053876,3216404,3056122,3219962,1175,2738,-530,-3298,288,621,-50,1345,36,44,896
424232,3054068,3216572,3056319,3220159,1178,2977,-748,-3455,436,703,76,1273,36,44,896
425233,3054256,3216736,3056516,3220356,1207,3017,-975,-3579,584,863,222,1421,32,41,898
426241,3054436,3216932,3056746,3220586,1280,2833,-1209,-3711,745,1006,439,1557,32,41,898
427236,3054624,3217108,3056943,3220783,1234,2967,-1439,-3875,909,1120,614,1432,26,28,895
428236,3054816,3217316,3057140,3220980,1212,2764,-1646,-4079,1078,1183,750,1415,26,28,895
429237,3055012,3217488,3057337,3221177,1187,3001,-1832,-4332,1252,1357,824,1331,45,34,895
430238,3055188,3217656,3057534,3221374,1322,3038,-2032,-4581,1412,1595,985,1658,45,34,895
431240,3055352,3217824,3057731,3221571,1412,3052,-2245,-4720,1549,1745,1123,1914,25,42,896
432241,3055532,3217992,3057928,3221768,1319,3066,-2482,-4837,1655,1961,1353,2058,25,42,896
433242,3055712,3218168,3058125,3221965,1328,3025,-2738,-4916,1717,2070,1489,2387,39,33,891
434243,3055880,3218368,3058322,3222162,1416,2875,-3018,-4904,1752,2083,1409,2893,39,33,891
435243,3056072,3218528,3058519,3222359,1269,3142,-3318,-4711,1779,2044,1141,3372,38,43,892
436244,3056240,3218688,3058716,3222556,1432,3159,-3625,-4523,1798,1986,879,3624,38,43,892
437245,3056404,3218860,3058913,3222753,1472,3095,-3934,-4230,1779,1890,954,4090,24,30,895
438246,3056556,3219000,3059110,3222950,1567,3321,-4258,-3856,1716,1994,1034,4669,24,30,895
439247,3056724,3219192,3059307,3223147,1481,3000,-4607,-3421,1690,2173,722,4924,43,26,892
440248,3056900,3219344,3059504,3223344,1440,3270,-4913,-3102,1648,1965,977,4740,43,26,892
441249,3057072,3219488,3059701,3223541,1477,3344,-5136,-2811,1529,1678,962,4825,34,39,890
442250,3057228,3219632,3059898,3223738,1595,3368,-3306,706,1333,4970,221,32767,34,39,890
443251,3057404,3219804,3060095,3223935,1480,3205,933,9376,1090,6959,-2068,32767,38,26,891
444252,3057564,3219992,3060292,3224132,1596,3110,3198,12818,856,2712,491,6343,38,26,891
445253,3057752,3220132,3060489,3224329,1426,3435,3025,10956,592,2563,1693,-1212,35,25,888
446254,3057936,3220268,3060686,3224526,1457,3488,2083,7224,274,3231,1603,-2759,35,25,888
447255,3058136,3220416,3060883,3224723,1357,3435,1372,4699,61,3146,595,-1530,45,30,891
448256,3058292,3220564,3061080,3224920,1650,3458,1016,2901,70,2522,-174,-1837,45,30,891
449257,3058476,3220708,3061277,3225117,1481,3507,687,1380,125,2344,-818,-1135,38,34,890
450259,3058644,3220868,3061474,3225314,1594,3424,160,20,189,1611,-717,-81,38,34,890
451259,3058848,3221024,3061671,3225511,1367,3467,-379,-1311,260,889,-783,283,27,23,889
452261,3059032,3221172,3061868,3225708,1498,3540,-923,-2516,239,512,-1009,619,27,23,889
453261,3059212,3221320,3062065,3225905,1531,3562,-1343,-3706,189,-429,-779,736,30,32,889
454262,3059412,3221452,3062262,3226102,1405,3692,-1685,-4622,146,-991,-685,1681,30,32,889
455263,3059608,3221604,3062459,3226299,1431,3588,-1934,-5381,88,-1451,-614,2003,30,29,887
456264,3059808,3221744,3062656,3226496,1406,3689,-1915,-5587,136,-2361,-1161,6087,30,29,887
457265,3059976,3221892,3062853,3226693,1619,3661,-361,-2444,592,-4203,-3811,32767,36,20,886
458266,3060176,3222028,3063050,3226890,1418,3764,1782,1493,1130,-4247,-3034,27162,36,20,886
459267,3060372,3222176,3063247,3227087,1444,3712,2437,2560,1350,-3409,-826,5203,34,32,887
460268,3060580,3222324,3063444,3227284,1365,3733,1981,1727,1383,-3194,-766,3691,34,32,887
461269,3060776,3222492,3063641,3227481,1441,3622,1378,694,1410,-2711,-1019,3412,29,25,887
462270,3060972,3222676,3063838,3227678,1442,3529,1011,317,1592,-2627,-862,4247,29,25,887
463271,3061152,3222852,3064035,3227875,1549,3589,821,195,1864,-2098,-460,4138,36,40,888
464272,3061328,3223000,3064232,3228072,1585,3786,614,95,2090,-1620,-129,4232,36,40,888
465273,3061532,3223168,3064429,3228269,1407,3675,427,-192,2302,-1694,419,3754,47,34,889
466275,3061712,3223336,3064626,3228466,1565,3689,261,-667,2441,-1409,693,3293,47,34,889
467288,3061884,3223488,3064823,3228663,1627,3800,113,-1251,2521,-1299,860,3077,47,38,884
468289,3062048,3223644,3065020,3228860,1692,3800,3,-1813,2619,-1409,933,3199,47,38,884
469290,3062224,3223784,3065217,3229057,1627,3800,-103,-2338,2736,-989,705,3079,26,39,887
470278,3062376,3223968,3065414,3229254,1797,3661,-195,-2990,2871,-729,626,2932,26,39,887
471279,3062556,3224148,3065611,3229451,1630,3695,-270,-3586,3006,-508,682,3185,46,34,885
472280,3062696,3224356,3065808,3229648,1905,3516,-304,-4253,3063,-133,763,2657,46,34,885
473281,3062852,3224528,3066005,3229845,1824,3753,-303,-4937,3064,-180,913,2811,24,29,886
474282,3062988,3224700,3066202,3230042,1977,3765,-289,-5471,3068,-267,856,3259,24,29,886
475296,3063172,3224860,3066399,3230239,1683,3800,-276,-6010,3052,-265,739,3249,32,28,887
476284,3063336,3225056,3066596,3230436,1823,3634,-266,-6366,3044,-457,485,3967,32,28,887
477285,3063488,3225288,3066793,3230633,1918,3394,-257,-6553,3070,-511,240,4304,28,30,883
478286,3063656,3225488,3066990,3230830,1832,3594,-266,-6662,3115,-402,-194,4503,28,30,883
479287,3063828,3225696,3067187,3231027,1819,3540,-263,-6712,3181,-631,-379,4680,48,45,884
480288,3063976,3225904,3067384,3231224,1990,3536,-218,-6745,3237,-865,-568,4465,48,45,884
481290,3064180,3226120,3067581,3231421,1638,3479,-126,-6861,3260,-893,-544,4227,28,35,886
482291,3064332,3226344,3067778,3231618,1984,3418,13,-6979,3303,-965,-471,4433,28,35,886
483292,3064508,3226568,3067975,3231815,1843,3407,147,-6975,3372,-786,-403,4790,41,47,886
484293,3064660,3226852,3068172,3232012,2014,2995,256,-6822,3479,-655,-521,5126,41,47,886
485294,3064796,3227156,3068369,3232209,2142,2824,360,-6546,3613,-685,-328,5268,45,60,888
486295,3064940,3227444,3068566,3232406,2115,2885,496,-6333,3689,-643,46,4927,45,60,888
487296,3065112,3227708,3068763,3232603,1952,3007,625,-6134,3686,-446,614,5060,41,64,891
488297,3065244,3228068,3068960,3232800,2232,2336,723,-5839,3722,-97,579,5267,41,64,891
489298,3065388,3228396,3069157,3232997,2180,2479,784,-5549,3750,253,985,5171,42,52,890
490299,3065564,3228724,3069354,3233194,1990,2423,825,-5134,3735,280,981,5392,42,52,890
491300,3065708,3229020,3069551,3233391,2214,2580,849,-4686,3709,378,861,5436,27,56,894
492301,3065860,3229372,3069748,3233588,2185,2163,852,-4243,3689,486,441,5385,27,56,894
493302,3066008,3229740,3069945,3233785,2232,1988,853,-3824,3705,401,-50,5266,34,56,895
494303,3066156,3230068,3070142,3233982,2254,2182,880,-3509,3729,373,-326,4713,34,56,895
495304,3066288,3230380,3070339,3234179,2384,2232,962,-3439,3740,594,-407,4002,24,70,895
496305,3066440,3230640,3070536,3234376,2280,2530,1085,-3483,3785,944,-524,3607,24,70,895
497306,3066576,3230996,3070733,3234573,2406,1860,1233,-3625,3821,1274,-606,3124,43,63,895
498307,3066748,3231336,3070930,3234770,2193,1899,1416,-3823,3811,1435,-766,2686,43,63,895
499308,3066904,3231672,3071127,3234967,2312,1863,1623,-4004,3807,1481,-1106,2715,24,66,892
500309,3067120,3231952,3071324,3235164,1930,2177,1825,-4072,3832,1550,-1388,2836,24,66,892
501310,3067304,3232304,3071521,3235361,2137,1660,2015,-4065,3846,1277,-1292,2994,36,60,896
502311,3067480,3232632,3071718,3235558,2196,1753,2197,-3824,3810,826,-1333,3615,36,60,896
503312,3067664,3232940,3071915,3235755,2153,1830,2379,-3470,3721,809,-1163,3652,28,65,897
504313,3067844,3233220,3072112,3235952,2186,1969,2564,-3031,3637,1262,-737,3835,28,65,897
505314,3068048,3233620,3072309,3236149,2034,1130,2729,-2429,3576,1591,-311,4161,37,57,898
506315,3068284,3233976,3072506,3236346,1818,1336,2889,-1786,3477,1567,46,4038,37,57,898
507316,3068500,3234288,3072703,3236543,1935,1560,3063,-1120,3355,1299,12,3939,57,57,898
508317,3068712,3234568,3072900,3236740,1954,1725,3253,-517,3286,1142,-42,3829,57,57,898
509325,3068928,3234892,3073130,3236970,1936,1409,3413,242,3304,1238,-86,4139,52,52,903
510319,3069128,3235272,3073327,3237167,2036,978,3555,975,3349,1173,227,3732,52,52,903
511320,3069344,3235608,3073524,3237364,1928,1193,3714,1562,3331,1294,663,3143,41,58,898
512320,3069592,3235908,3073721,3237561,1706,1373,3882,2067,3249,1687,674,2764,41,58,898
513322,3069816,3236212,3073918,3237758,1845,1301,4007,2592,3198,1900,390,2822,56,70,903
514323,3070032,3236572,3074115,3237955,1888,880,4078,3101,3188,1909,273,2774,56,70,903
515324,3070252,3236916,3074312,3238152,1854,916,4113,3586,3164,1639,173,2554,48,68,903
516325,3070460,3237280,3074509,3238349,1925,717,4144,4043,3102,1342,168,2235,48,68,903
517326,3070660,3237556,3074706,3238546,1974,1233,4141,4471,3005,1494,297,1950,43,70,904
518327,3070908,3237928,3074903,3238743,1652,557,4092,4835,2891,1913,357,1571,43,70,904
519328,3071136,3238252,3075100,3238940,1764,801,4028,5092,2781,1996,210,1247,39,68,905
520329,3071380,3238532,3075297,3239137,1645,1039,3947,5280,2677,1870,-249,1040,39,68,905
521330,3071584,3238848,3075494,3239334,1892,762,3853,5397,2574,1563,-343,648,54,48,906
522331,3071824,3239100,3075691,3239531,1649,1138,3722,5444,2446,1360,-200,430,54,48,906
523332,3072016,3239420,3075888,3239728,1952,659,3567,5436,2317,1471,-276,76,57,65,904
524333,3072260,3239720,3076085,3239925,1607,739,3393,5371,2173,1629,-378,-114,57,65,904
525333,3072536,3239932,3076282,3240122,1373,1282,3207,5334,2028,1645,-485,-25,56,64,904
526335,3072756,3240160,3076479,3240319,1714,1168,2987,5348,1898,1571,-438,103,56,64,904
527336,3072964,3240396,3076676,3240516,1785,1101,2714,5387,1728,1483,106,-14,56,53,906
528336,3073196,3240680,3076873,3240713,1619,763,2357,5308,1425,1309,969,-379,56,53,906
529337,3073392,3240912,3077070,3240910,1846,1073,1913,5215,1015,1298,1357,-397,32,36,904
530339,3073632,3241164,3077267,3241107,1553,923,1404,5254,615,1237,1360,-237,32,36,904
531340,3073904,3241360,3077464,3241304,1321,1274,872,5308,246,904,1368,-194,54,50,906
532341,3074132,3241564,3077661,3241501,1582,1221,346,5320,-122,471,1437,-278,54,50,906
533342,3074332,3241764,3077858,3241698,1757,1244,-156,5170,-538,-1,1537,-895,46,34,904
534343,3074560,3242000,3078055,3241895,1569,1002,-654,4846,-1008,-68,1489,-1266,46,34,904
535343,3074768,3242216,3078252,3242092,1690,1119,-1216,4469,-1489,-16,1346,-1133,35,45,905
536345,3074980,3242444,3078449,3242289,1659,1030,-1881,4265,-1906,66,707,-738,35,45,905
537345,3075256,3242648,3078646,3242486,1225,1177,-2576,4096,-2287,-170,576,-687,34,32,906
538347,3075480,3242840,3078843,3242683,1538,1255,-3205,3823,-2676,-590,576,-778,34,32,906
539348,3075704,3243020,3079040,3242880,1528,1337,-3740,3395,-3067,-727,393,-1183,55,43,905
540349,3075932,3243268,3079237,3243077,1489,890,-4178,2722,-3447,-701,360,-1752,55,43,905
541350,3076152,3243500,3079434,3243274,1530,974,-4577,2013,-3733,-596,-101,-1389,40,48,905
542351,3076352,3243716,3079631,3243471,1654,1066,-4996,1535,-3848,-575,-1101,-652,40,48,905
543352,3076624,3243936,3079828,3243668,1172,1031,-5410,1226,-3833,-771,-1705,-222,42,35,905
544353,3076864,3244124,3080025,3243865,1354,1235,-5753,913,-3773,-948,-1737,-256,42,35,905
545353,3077112,3244288,3080222,3244062,1282,1399,-6052,533,-3676,-982,-1937,-6,44,41,903
546355,3077308,3244456,3080419,3244259,1608,1387,-6330,94,-3560,-1029,-1951,60,44,41,903
547356,3077560,3244680,3080616,3244456,1234,1025,-6565,-407,-3444,-1229,-1824,121,43,36,906
548357,3077796,3244936,3080813,3244653,1317,799,-6762,-880,-3323,-1421,-1897,480,43,36,906
549358,3078032,3245120,3081010,3244850,1301,1255,-6932,-1223,-3187,-1455,-2014,979,56,41,904
550359,3078288,3245328,3081207,3245047,1150,1100,-7096,-1500,-3050,-1467,-1969,1479,56,41,904
551360,3078500,3245516,3081404,3245244,1420,1229,-7241,-1758,-2925,-1440,-1854,1596,38,40,908
552361,3078684,3245680,3081601,3245441,1601,1392,-7342,-2192,-2828,-1346,-1822,1383,38,40,908
553361,3078896,3245840,3081798,3245638,1420,1434,-7419,-2653,-2747,-1262,-1959,1819,50,31,907
554363,3079084,3246012,3081995,3245835,1575,1370,-7484,-3142,-2657,-1099,-2220,2030,50,31,907
555364,3079228,3246208,3082192,3246032,1873,1220,-7522,-3678,-2557,-765,-2455,2013,30,37,902
556365,3079400,3246372,3082389,3246229,1710,1435,-7554,-4149,-2441,-276,-2625,2507,30,37,902
557366,3079584,3246552,3082586,3246426,1641,1342,-7595,-4638,-2345,417,-2616,2484,20,23,903
558367,3079700,3246744,3082783,3246623,2102,1269,-7635,-5339,-2291,1365,-2451,2254,20,23,903
559368,3079884,3246892,3082980,3246820,1684,1566,-7629,-6072,-2221,2088,-2436,2482,20,32,903
560369,3080064,3247016,3083177,3247017,1717,1748,-7612,-6718,-2114,2639,-2412,2865,20,32,903
561370,3080264,3247160,3083374,3247214,1591,1646,-7536,-7216,-1976,3410,-2446,3853,23,17,901
562371,3080424,3247260,3083571,3247411,1857,1964,-3336,-197,-1993,12114,-5041,32767,23,17,901
563372,3080648,3247392,3083768,3247608,1447,1792,3775,12824,-2304,14852,-6024,32767,27,21,901
564373,3080812,3247524,3083965,3247805,1836,1821,7093,16447,-2264,5930,-2298,1406,27,21,901
565374,3081012,3247672,3084162,3248002,1611,1743,6204,12991,-1677,6010,-3287,-987,31,19,897
566375,3081184,3247812,3084359,3248199,1798,1818,4776,8192,-1135,6164,-3286,-4820,31,19,897
567376,3081368,3247948,3084556,3248396,1728,1869,4003,4238,-905,6218,-1814,-4507,36,18,898
568376,3081532,3248092,3084753,3248593,1869,1844,3726,1711,-768,5688,-2084,-3390,36,18,898
569377,3081704,3248200,3084950,3248790,1831,2108,3031,-201,-475,5598,-4012,-1708,24,25,900
570378,3081892,3248336,3085147,3248987,1735,1960,2005,-1862,-110,5259,-4083,-1242,24,25,900
571380,3082064,3248456,3085344,3249184,1847,2093,800,-3024,82,4844,-3024,1741,24,16,899
572381,3082244,3248576,3085541,3249381,1804,2127,-1228,-4332,190,3748,-3048,2817,24,16,899
573382,3082436,3248680,3085738,3249578,1733,2268,-1874,-4820,244,2904,-1559,2980,46,29,899
574382,3082628,3248828,3085935,3249775,1736,2015,-2323,-5276,56,1970,-59,3215,46,29,899
575384,3082852,3248948,3086132,3249972,1524,2225,-2635,-5571,-268,794,265,4038,43,17,898
576384,3083048,3249076,3086329,3250169,1700,2205,-2766,-5858,-549,-168,24,3772,43,17,898
577385,3083260,3249184,3086526,3250366,1595,2369,-2744,-5961,-789,-699,-58,4543,38,27,898
578387,3083468,3249276,3086723,3250563,1615,2515,-2717,-5564,-991,-1103,261,6301,38,27,898
579388,3083656,3249380,3086920,3250760,1745,2481,-2745,-4656,-1179,-1510,417,7390,39,27,898
580389,3083888,3249504,3087117,3250957,1454,2389,-2655,-3660,-1435,-2050,535,7791,39,27,898
581390,3084120,3249624,3087314,3251154,1440,2448,-1311,-626,-1490,-3620,-1362,26825,49,15,896
582391,3084312,3249744,3087511,3251351,1693,2482,649,3141,-1438,-3804,-1662,24980,49,15,896
583392,3084540,3249868,3087708,3251548,1455,2490,1581,4387,-1643,-2756,75,5142,37,31,898
584393,3084816,3249996,3087905,3251745,1121,2495,1595,3906,-1936,-2377,-386,4315,37,31,898
585393,3085024,3250112,3088102,3251942,1541,2606,1494,3185,-2122,-1508,-1058,3425,53,35,896
586395,3085256,3250276,3088299,3252139,1377,2321,1468,2766,-2039,-821,-1822,3496,53,35,896
587396,3085460,3250412,3088496,3252336,1550,2523,1532,2568,-1730,-444,-2109,3189,46,21,897
588397,3085704,3250568,3088693,3252533,1279,2416,1586,2086,-1440,-214,-1878,2008,46,21,897
589398,3085980,3250676,3088890,3252730,1045,2756,1638,1246,-1228,-230,-1370,1217,31,17,898
590398,3086204,3250776,3089087,3252927,1358,2849,1624,225,-1049,-40,-783,815,31,17,898
591400,3086464,3250896,3089284,3253124,1107,2758,1596,-848,-834,143,-1267,674,50,13,898
592409,3086696,3251032,3089514,3253354,1281,2700,1545,-1703,-493,160,-1719,1353,50,13,898
593401,3086904,3251152,3089711,3253551,1427,2834,1459,-2259,-158,223,-1370,1975,57,15,895
594403,3087156,3251284,3089908,3253748,1128,2788,1284,-2640,177,174,-2117,2567,57,15,895
595404,3087368,3251436,3090105,3253945,1372,2683,1091,-2947,475,-66,-2105,2529,37,31,897
596405,3087596,3251612,3090302,3254142,1259,2543,921,-3204,715,-32,-1940,2672,37,31,897
597406,3087824,3251800,3090499,3254339,1246,2472,771,-3476,939,238,-2088,2689,51,29,896
598407,3088008,3252028,3090696,3254536,1527,2210,587,-3715,1183,769,-2022,2939,51,29,896
599408,3088192,3252252,3090893,3254733,1533,2223,365,-3861,1428,1519,-1448,3156,44,32,897
600409,3088416,3252472,3091090,3254930,1273,2239,194,-3933,1601,1880,-696,3082,44,32,897
601409,3088608,3252704,3091287,3255127,1475,2148,106,-3967,1695,1811,-283,3469,28,52,898
602411,3088784,3252924,3091484,3255324,1585,2214,32,-3812,1745,1580,-123,4239,28,52,898
603412,3089020,3253160,3091681,3255521,1193,2097,-72,-3389,1751,1193,101,4781,34,44,900
604413,3089204,3253408,3091878,3255718,1525,2000,-179,-2816,1681,731,435,5108,34,44,900
605414,3089400,3253640,3092075,3255915,1450,2085,-263,-2208,1527,415,821,5029,32,52,899
606415,3089588,3253888,3092272,3256112,1505,1963,-301,-1738,1287,466,1053,4789,32,52,899
607416,3089772,3254124,3092469,3256309,1536,2022,-310,-1316,1039,708,1027,4611,45,52,900
608416,3089916,3254380,3092666,3256506,1810,1871,-317,-931,831,865,586,4498,45,52,900
609417,3090080,3254664,3092863,3256703,1699,1659,-323,-634,659,882,35,4115,26,45,900
610419,3090228,3254908,3093060,3256900,1822,1888,-286,-502,483,778,-3,3519,26,45,900
611420,3090396,3255116,3093257,3257097,1710,2108,-204,-547,320,892,-54,2996,30,54,898
612421,3090552,3255336,3093454,3257294,1804,2024,-99,-691,190,944,308,2538,30,54,898
613422,3090728,3255536,3093651,3257491,1688,2148,-6,-939,76,763,786,2276,20,36,899
614423,3090876,3255776,3093848,3257688,1886,1879,73,-1286,-53,739,795,2023,20,36,899
615423,3091036,3255972,3094045,3257885,1827,2155,153,-1730,-218,848,666,1608,24,36,899
616425,3091200,3256168,3094242,3258082,1817,2156,241,-2209,-365,971,241,1413,24,36,899
617425,3091352,3256372,3094439,3258279,1913,2104,301,-2665,-450,980,158,1538,24,45,899
618427,3091512,3256596,3094636,3258476,1879,1967,306,-3055,-466,896,19,1792,24,45,899
619428,3091684,3256796,3094833,3258673,1816,2115,212,-3234,-390,793,-224,2399,21,32,898
620429,3091836,3257008,3095030,3258870,1961,2035,86,-3321,-240,657,-452,2426,21,32,898
621430,3091984,3257208,3095227,3259067,2009,2108,-23,-3331,-43,478,-535,2910,38,38,898
622431,3092168,3257424,3095424,3259264,1790,2000,-128,-3118,220,195,-670,3540,38,38,898
623432,3092300,3257624,3095621,3259461,2144,2100,-221,-2720,519,-91,-748,3884,40,43,897
624433,3092456,3257828,3095818,3259658,2013,2072,-287,-2216,830,-326,-770,4173,27,46,898
625433,3092620,3258048,3096015,3259855,1977,1962,-331,-1673,1145,-454,-727,4610,27,46,898
626435,3092768,3258228,3096212,3260052,2100,2220,-371,-1041,1449,-513,-629,4837,25,31,897
627436,3092932,3258428,3096409,3260249,2015,2094,-385,-495,1709,-644,-441,4590,25,31,897
628437,3093116,3258612,3096606,3260446,1896,2199,-354,-18,1944,-718,-263,4325,45,38,896
629438,3093276,3258804,3096803,3260643,2063,2153,-319,333,2197,-670,-100,4037,45,38,896
630439,3093448,3259008,3097000,3260840,2000,2075,-298,660,2495,-545,-89,4027,38,41,895
631440,3093628,3259176,3097197,3261037,1958,2312,-257,944,2791,-650,-206,3899,38,41,895
632441,3093800,3259364,3097394,3261234,2020,2192,-195,1174,3036,-785,-314,3699,43,33,895
633442,3093972,3259528,3097591,3261431,2032,2357,-142,1336,3238,-847,-642,3720,43,33,895
634443,3094128,3259708,3097788,3261628,2150,2265,-114,1478,3377,-769,-554,3699,39,44,896
635443,3094312,3259928,3097985,3261825,1982,2005,-83,1582,3472,-725,-536,3530,39,44,896
636445,3094480,3260184,3098182,3262022,2095,1754,-38,1717,3549,-715,-620,3596,43,52,895
637446,3094640,3260420,3098379,3262219,2163,1863,11,1799,3599,-711,-552,3531,43,52,895
638447,3094828,3260644,3098576,3262416,1992,1926,101,1915,3614,-587,-440,4245,39,54,898
639448,3095024,3260868,3098773,3262613,1943,1914,642,2964,3542,393,-212,12283,39,54,898
640448,3095184,3261112,3098970,3262810,2185,1770,1392,4332,3367,476,-97,11398,36,57,898
641449,3095364,3261404,3099167,3263007,2068,1428,1652,4597,3216,-358,-278,2911,36,57,898
642451,3095520,3261668,3099364,3263204,2237,1574,1517,4022,3131,-192,-521,1966,25,42,895
643451,3095676,3261908,3099561,3263401,2256,1706,1296,3295,3076,93,-219,1768,25,42,895
644453,3095840,3262208,3099758,3263598,2221,1285,1106,2777,3015,51,599,1901,24,37,898
645454,3095984,3262416,3099955,3263795,2370,1856,881,2453,2960,65,645,2358,24,37,898
646455,3096120,3262528,3100152,3263992,2447,2493,590,2244,2842,-42,804,2674,28,40,900
647456,3096284,3262664,3100349,3264189,2288,2371,304,1923,2583,-490,1328,2044,28,40,900
648457,3096460,3262808,3100546,3264386,2223,2344,52,1413,2181,-824,1675,1759,50,19,891
649458,3096632,3262940,3100743,3264583,2259,2448,-212,965,1780,-916,1453,2256,50,19,891
650459,3096840,3263100,3100940,3264780,2030,2290,-464,805,1537,-1007,863,3868,41,38,894
651460,3097004,3263280,3101137,3264977,2321,2172,-174,2154,1490,-1187,105,14815,41,38,894
652461,3097180,3263520,3101334,3265174,2256,1778,471,3680,1415,-1417,836,12498,35,46,895
653462,3097340,3263768,3101531,3265371,2373,1706,638,3694,1149,-1160,1754,2141,35,46,895
654463,3097520,3263968,3101728,3265568,2256,2006,349,2738,886,-902,1362,1408,45,49,895
655464,3097652,3264224,3101925,3265765,2585,1630,-99,1813,808,-515,825,2053,45,49,895
656464,3097820,3264524,3102122,3265962,2374,1309,-357,1476,891,-510,658,3820,45,53,896
657465,3097984,3264800,3102319,3266159,2415,1426,-51,1991,1075,-999,-320,10257,45,53,896
658467,3098140,3265088,3102516,3266356,2484,1311,406,2332,1186,-745,15,6261,30,46,899
659467,3098264,3265352,3102713,3266553,2716,1431,478,1729,1164,-554,721,1283,30,46,899
660468,3098412,3265600,3102910,3266750,2588,1509,220,780,1122,-464,294,1639,42,44,898
661470,3098548,3265856,3103107,3266947,2691,1434,-56,167,1127,-417,-4,3062,42,44,898
662471,3098704,3266120,3103304,3267144,2585,1355,-13,521,1151,-215,-236,8601,33,52,896
663471,3098852,3266368,3103501,3267341,2658,1432,170,1245,1106,-121,-208,7973,33,52,896
664472,3099012,3266652,3103698,3267538,2600,1169,91,1401,1008,-629,143,3983,38,51,896
665473,3099176,3266940,3103895,3267735,2590,1104,-189,1166,898,-690,174,3941,38,51,896
666475,3099352,3267256,3104092,3267932,2526,877,-300,1201,793,-144,106,6260,29,49,898
667476,3099504,3267548,3104289,3268129,2696,986,-228,1488,702,13,98,6637,29,49,898
668476,3099676,3267844,3104486,3268326,2582,917,-224,1569,622,-295,426,4174,27,62,899
669478,3099856,3268184,3104683,3268523,2541,579,-355,1419,527,-255,544,3794,27,62,899
670478,3100024,3268476,3104880,3268720,2629,838,-478,1251,439,-168,215,4401,41,68,899
671479,3100212,3268740,3105077,3268917,2509,983,-502,1301,353,-163,-19,5403,41,68,899
672480,3100404,3268988,3105274,3269114,2488,1061,-506,1344,239,-347,-111,4310,36,52,900
673481,3100596,3269180,3105471,3269311,2491,1413,-551,1204,94,-421,-151,3597,36,52,900
674483,3100772,3269404,3105668,3269508,2601,1201,-622,1049,-56,-414,-276,3657,42,44,898
675490,3100960,3269612,3105898,3269738,2546,1311,-729,1040,-208,-355,-464,4068,42,44,898
676484,3101172,3269812,3106095,3269935,2390,1360,-879,1214,-377,-509,-551,4486,53,46,897
677486,3101364,3270020,3106292,3270132,2518,1305,-1046,1435,-607,-764,-397,4659,53,46,897
678487,3101536,3270204,3106489,3270329,2655,1460,-1182,1652,-877,-912,-536,4812,43,47,898
679487,3101720,3270416,3106686,3270526,2587,1279,-1123,2062,-1155,-899,-381,7101,43,47,898
680489,3101916,3270600,3106883,3270723,2513,1460,-917,2634,-1417,-771,-219,7953,45,44,897
681489,3102076,3270784,3107080,3270920,2756,1465,-858,2764,-1675,-908,392,4130,45,44,897
682491,3102264,3271000,3107277,3271117,2584,1257,-945,2359,-1949,-895,820,2820,44,46,897
683492,3102424,3271200,3107474,3271314,2777,1356,-1032,1676,-2213,-757,275,2377,44,46,897
684493,3102612,3271368,3107671,3271511,2607,1568,-921,1164,-2388,-710,-951,4121,38,39,897
685494,3102808,3271536,3107868,3271708,2558,1581,-510,1188,-2422,-719,-1943,7619,38,39,897
686495,3103000,3271676,3108065,3271905,2586,1781,-175,1133,-2409,-533,-1774,4673,43,20,895
687496,3103208,3271788,3108262,3272102,2482,1993,-161,647,-2434,-449,-1472,2752,43,20,895
688497,3103388,3271900,3108459,3272299,2666,2031,-228,65,-2490,-500,-1169,3944,29,25,895
689498,3103576,3272000,3108656,3272496,2621,2148,-112,-137,-2527,-646,-1079,6493,29,25,895
690499,3103752,3272112,3108853,3272693,2706,2112,83,-275,-2530,-559,-954,5524,30,13,891
691500,3103940,3272212,3109050,3272890,2636,2229,154,-488,-2553,-397,-636,4226,30,13,891
692501,3104116,3272332,3109247,3273087,2721,2138,107,-818,-2579,-441,-688,4002,39,26,891
693502,3104304,3272432,3109444,3273284,2651,2306,103,-992,-2541,-502,-1175,5467,39,26,891
694503,3104488,3272528,3109641,3273481,2683,2375,181,-944,-2436,-514,-1669,5909,31,18,891
695504,3104696,3272640,3109838,3273678,2529,2313,245,-1030,-2327,-455,-1606,4423,31,18,891
696505,3104896,3272752,3110035,3273875,2579,2350,270,-1243,-2248,-427,-1428,4014,40,30,890
697506,3105092,3272852,3110232,3274072,2605,2469,295,-1468,-2194,-342,-1158,4150,40,30,890
698507,3105328,3272944,3110429,3274269,2339,2565,335,-1591,-2153,-232,-759,4545,53,27,888
699508,3105532,3273044,3110626,3274466,2537,2557,350,-1625,-2111,-235,-308,4318,53,27,888
700509,3105716,3273120,3110823,3274663,2669,2761,315,-1680,-2071,-206,-29,4144,39,28,890
701510,3105960,3273228,3111020,3274860,2274,2601,254,-1714,-2042,-167,130,4161,39,28,890
702510,3106180,3273328,3111217,3275057,2415,2693,198,-1754,-2011,-175,99,4104,43,27,886
703511,3106392,3273432,3111414,3275254,2459,2709,149,-1744,-1976,-246,-31,4186,43,27,886
704512,3106660,3273564,3111611,3275451,2079,2564,115,-1745,-1923,-347,-379,4093,39,17,890
705513,3106892,3273696,3111808,3275648,2290,2592,98,-1732,-1836,-284,-830,4103,39,17,890
706515,3107124,3273812,3112005,3275845,2275,2728,94,-1718,-1718,-221,-842,3966,46,22,892
707515,3107388,3273944,3112202,3276042,2047,2657,103,-1822,-1594,-131,-779,3636,46,22,892
708516,3107648,3274064,3112399,3276239,2045,2766,120,-1944,-1490,-31,-616,3541,49,15,889
709517,3107944,3274172,3112596,3276436,1777,2881,146,-2126,-1413,-37,-276,3319,49,15,889
710519,3108212,3274312,3112793,3276633,1922,2706,168,-2273,-1372,15,40,3414,56,19,892
711520,3108492,3274432,3112990,3276830,1811,2866,195,-2339,-1368,87,279,3442,56,19,892
712521,3108764,3274544,3113187,3277027,1829,2954,209,-2392,-1360,69,229,3508,69,34,893
713521,3109072,3274676,3113384,3277224,1556,2857,220,-2372,-1332,107,-200,3541,69,34,893
714523,3109352,3274804,3113581,3277421,1696,2914,231,-2406,-1287,160,-297,3339,49,36,892
715524,3109632,3274940,3113778,3277618,1660,2890,246,-2464,-1232,174,-437,3203,49,36,892
716525,3109904,3275048,3113975,3277815,1678,3105,266,-2551,-1195,241,-480,3199,50,34,892
717525,3110212,3275168,3114172,3278012,1405,3064,296,-2609,-1137,377,-626,3178,50,34,892
718527,3110504,3275304,3114369,3278209,1464,2992,350,-2648,-1056,430,-658,3123,63,30,889
719528,3110776,3275412,3114566,3278406,1557,3207,440,-2737,-1036,410,-257,2932,63,30,889
720528,3111080,3275524,3114763,3278603,1310,3220,536,-2791,-1110,329,169,3128,46,32,891
721529,3111380,3275656,3114960,3278800,1291,3124,619,-2715,-1197,400,83,3398,46,32,891
722531,3111628,3275772,3115157,3278997,1594,3260,674,-2631,-1263,532,-70,3430,48,19,891
723531,3111932,3275896,3115354,3279194,1197,3243,717,-2530,-1304,466,-446,3337,48,19,891
724532,3112208,3276032,3115551,3279391,1339,3196,761,-2523,-1308,325,-863,3075,50,34,890
725533,3112472,3276184,3115748,3279588,1385,3115,813,-2518,-1298,292,-1170,2892,50,34,890
726535,3112764,3276348,3115945,3279785,1168,3056,853,-2478,-1269,244,-1368,3125,47,37,892
727535,3113036,3276476,3116142,3279982,1261,3311,889,-2289,-1233,237,-1302,3322,47,37,892
728537,3113280,3276644,3116339,3280179,1416,3075,935,-2163,-1227,262,-880,3165,45,25,894
729537,3113564,3276800,3116536,3280376,1129,3169,995,-2057,-1285,242,-392,3036,45,25,894
730539,3113824,3276956,3116733,3280573,1252,3187,1055,-1974,-1381,240,-245,2937,52,29,891
731540,3114080,3277116,3116930,3280770,1251,3179,1116,-1898,-1462,238,-388,2897,52,29,891
732540,3114344,3277292,3117127,3280967,1172,3089,1155,-1812,-1495,183,-795,2904,51,39,892
733541,3114572,3277464,3117324,3281164,1384,3126,1213,-1767,-1480,105,-1254,2500,51,39,892
734543,3114804,3277648,3117521,3281361,1344,3057,1248,-1833,-1447,104,-1461,2254,38,46,893
735543,3115016,3277844,3117718,3281558,1463,2984,1270,-1938,-1408,119,-1459,2187,38,46,893
736544,3115276,3278032,3117915,3281755,1136,3039,1266,-2043,-1354,96,-1501,2155,41,29,893
737545,3115552,3278212,3118112,3281952,1002,3096,1241,-2111,-1301,108,-1351,2243,41,29,893
738547,3115796,3278396,3118309,3282149,1182,3078,1213,-2193,-1264,36,-922,1974,60,48,894
739547,3116060,3278588,3118506,3282346,1027,3031,1166,-2339,-1253,12,-456,1945,60,48,894
740549,3116300,3278792,3118703,3282543,1160,2954,1095,-2482,-1246,-11,-267,1838,59,39,893
741549,3116532,3279016,3118900,3282740,1194,2817,997,-2651,-1206,15,-393,1876,59,39,893
742551,3116816,3279216,3119097,3282937,832,2967,905,-2778,-1125,92,-562,1766,58,39,894
743552,3117072,3279396,3119294,3283134,981,3100,821,-2987,-1010,165,-713,1612,58,39,894
744553,3117324,3279608,3119491,3283331,982,2894,723,-3168,-889,162,-681,1735,62,37,896
745554,3117588,3279804,3119688,3283528,878,2995,592,-3304,-782,207,-523,1747,62,37,896
746555,3117848,3280020,3119885,3283725,876,2863,458,-3427,-678,259,-316,1804,56,48,895
747556,3118100,3280216,3120082,3283922,902,2989,320,-3529,-576,323,-122,1974,56,48,895
748557,3118344,3280420,3120279,3284119,932,2936,170,-3611,-473,311,9,2098,61,34,895
749558,3118576,3280620,3120476,3284316,991,2961,3,-3637,-368,347,36,2300,61,34,895
750559,3118808,3280840,3120673,3284513,977,2827,-163,-3671,-255,498,92,2209,40,40,896
751560,3119068,3281012,3120870,3284710,774,3138,-325,-3766,-138,669,76,2054,40,40,896
752561,3119276,3281164,3121067,3284907,1095,3283,-485,-3803,0,694,-71,2343,44,31,895
753562,3119484,3281388,3121264,3285104,1091,2823,-661,-3820,155,749,-124,2346,44,31,895
754563,3119668,3281564,3121461,3285301,1246,3132,-850,-3858,300,895,61,2365,47,40,891
755564,3119880,3281780,3121658,3285498,1065,2874,-1026,-3957,426,1073,334,2341,47,40,891
756565,3120056,3282008,3121855,3285695,1300,2787,-1195,-4041,552,1295,469,2471,31,36,893
757565,3120248,3282172,3122052,3285892,1202,3202,-1376,-4026,690,1396,498,2663,31,36,893
758573,3120448,3282372,3122282,3286122,1166,2990,-1549,-4091,837,1501,488,2658,27,46,895
759568,3120640,3282560,3122479,3286319,1219,3070,-1706,-4132,972,1679,443,2668,27,46,895
760569,3120824,3282740,3122676,3286516,1274,3129,-1854,-4192,1085,1708,348,2714,27,36,894
761570,3121008,3282932,3122873,3286713,1281,3056,-2019,-4208,1193,1819,42,2952,27,36,894
762571,3121188,3283116,3123070,3286910,1314,3113,-2182,-4280,1292,1932,-1,3049,28,40,891
763572,3121356,3283272,3123267,3287107,1401,3307,-2350,-4220,1377,1998,-26,3470,28,40,891
764573,3121548,3283452,3123464,3287304,1254,3165,-2523,-4120,1433,2036,3,3662,27,31,891
765574,3121720,3283628,3123661,3287501,1390,3200,-2713,-3927,1474,2040,-35,4121,27,31,891
766575,3121872,3283792,3123858,3287698,1535,3290,-2900,-3651,1516,2061,21,4671,42,31,892
767576,3122032,3283976,3124055,3287895,1503,3172,-1694,-1074,1476,4245,160,25424,42,31,892
768576,3122180,3284148,3124252,3288092,1599,3259,1122,4800,1242,5612,-176,32767,24,29,890
769577,3122344,3284320,3124449,3288289,1515,3270,2619,7280,1058,2165,-32,6126,24,29,890
770579,3122528,3284480,3124646,3288486,1395,3362,2467,6302,1013,2111,369,1171,24,30,890
771580,3122700,3284636,3124843,3288683,1481,3406,1816,4196,967,2497,444,90,24,30,890
772581,3122856,3284812,3125040,3288880,1600,3291,1323,2732,915,2486,309,612,40,24,890
773581,3123036,3284988,3125237,3289077,1458,3300,1038,1691,918,2163,175,475,40,24,890
774582,3123204,3285144,3125434,3289274,1546,3444,706,899,887,2069,105,1151,25,28,888
775584,3123380,3285320,3125631,3289471,1506,3330,234,291,801,1577,412,1721,25,28,888
776585,3123564,3285488,3125828,3289668,1461,3393,-250,-372,677,846,372,1854,28,35,888
777586,3123720,3285668,3126025,3289865,1655,3327,-756,-919,517,332,58,2290,28,35,888
778587,3123876,3285848,3126222,3290062,1673,3334,-1217,-1442,388,-287,168,2399,34,32,890
779588,3124044,3286024,3126419,3290259,1612,3370,-1659,-1752,284,-557,230,3207,34,32,890
780589,3124224,3286176,3126616,3290456,1545,3540,-2049,-1958,205,-848,-3,3470,26,26,888
781590,3124392,3286328,3126813,3290653,1633,3561,-2168,-1865,223,-1454,-463,6174,26,26,888
782591,3124568,3286488,3127010,3290850,1593,3528,-1002,597,535,-2797,-1953,26954,32,26,888
783592,3124784,3286660,3127207,3291047,1335,3464,652,3343,905,-2904,-1422,20491,32,26,888
784593,3124976,3286820,3127404,3291244,1487,3557,1196,3737,1048,-2382,17,3583,31,32,886
785594,3125148,3286964,3127601,3291441,1623,3681,907,2497,1069,-2236,22,1912,31,32,886
786608,3125360,3287092,3127798,3291638,1368,3800,512,1078,1111,-1827,-269,1755,28,17,887
787608,3125524,3287208,3127995,3291835,1682,3800,296,162,1283,-1915,-254,2340,28,17,887
788597,3125716,3287356,3128192,3292032,1511,3746,196,-442,1539,-1881,-322,2712,35,18,885
789610,3125920,3287496,3128389,3292229,1433,3800,68,-802,1758,-1947,-85,3404,35,18,885
790611,3126112,3287612,3128586,3292426,1511,3800,-38,-1263,1938,-2274,395,3168,28,28,882
791612,3126276,3287748,3128783,3292623,1700,3800,-104,-1733,2027,-2224,696,3326,28,28,882
792613,3126472,3287872,3128980,3292820,1502,3800,-162,-2219,2037,-2236,987,3381,46,23,885
793614,3126640,3288020,3129177,3293017,1689,3800,-206,-2652,2062,-2276,850,3710,46,23,885
794603,3126804,3288188,3129374,3293214,1730,3780,-267,-2968,2091,-1951,576,3955,43,26,885
795616,3126992,3288336,3129571,3293411,1584,3800,-326,-3245,2120,-1894,682,4010,43,26,885
796604,3127172,3288540,3129768,3293608,1642,3576,-373,-3438,2178,-1829,286,4388,44,38,883
797605,3127332,3288716,3129965,3293805,1784,3761,-422,-3650,2256,-1746,-98,4355,44,38,883
798619,3127520,3288884,3130162,3294002,1614,3800,-472,-3735,2360,-1908,-293,4975,28,34,886
799607,3127688,3289072,3130359,3294199,1751,3705,-513,-3848,2450,-1906,-288,4768,28,34,886
800609,3127848,3289252,3130556,3294396,1819,3763,-543,-4060,2498,-1556,-304,4552,33,45,885
801609,3128020,3289452,3130753,3294593,1755,3638,-574,-4265,2561,-1188,-147,4611,33,45,885
802611,3128192,3289644,3130950,3294790,1767,3691,-583,-4517,2643,-963,-269,4415,44,36,884
803611,3128328,3289836,3131147,3294987,2018,3694,-565,-4816,2724,-932,-325,4251,44,36,884
804613,3128464,3290020,3131344,3295184,2046,3751,-504,-5190,2817,-892,-182,4098,23,34,885
805613,3128624,3290220,3131541,3295381,1912,3651,-432,-5569,2922,-567,-267,4282,23,34,885
806615,3128816,3290400,3131738,3295578,1716,3784,-360,-5886,3037,-335,-441,4364,28,44,883
807615,3128984,3290604,3131935,3295775,1878,3632,-258,-6154,3141,-199,-325,4437,28,44,883
808617,3129152,3290804,3132132,3295972,1892,3657,-137,-6344,3170,-11,-13,4710,32,46,884
809618,3129308,3291020,3132329,3296169,1986,3549,12,-6491,3147,171,18,5323,32,46,884
810619,3129472,3291232,3132526,3296366,1951,3569,225,-6415,3127,512,-44,6394,46,37,885
811620,3129656,3291436,3132723,3296563,1832,3617,379,-6408,3101,487,100,5133,46,37,885
812621,3129824,3291652,3132920,3296760,1945,3534,453,-6419,3040,469,401,5085,42,36,885
813621,3129976,3291852,3133117,3296957,2066,3634,478,-6371,2935,542,551,5172,42,36,885
814623,3130140,3292056,3133314,3297154,2006,3607,497,-6221,2843,695,419,5369,44,36,886
815623,3130272,3292332,3133511,3297351,2235,3123,507,-5924,2829,712,-70,5768,44,36,886
816625,3130428,3292624,3133708,3297548,2104,2982,517,-5585,2861,599,-476,5817,45,54,885
817626,3130584,3292896,3133905,3297745,2122,3075,546,-5329,2861,615,-498,5489,45,54,885
818627,3130728,3293136,3134102,3297942,2221,3258,619,-5192,2847,833,-560,5025,44,57,888
819628,3130844,3293436,3134299,3298139,2433,2837,733,-5183,2850,956,-635,4772,44,57,888
820629,3131016,3293760,3134496,3298336,2094,2632,883,-5131,2866,917,-871,4647,28,65,888
821629,3131160,3294108,3134693,3298533,2293,2417,1057,-5109,2899,851,-1104,4507,28,65,888
822631,3131312,3294416,3134890,3298730,2264,2619,1242,-5030,2964,932,-1407,4600,26,56,891
823631,3131448,3294748,3135087,3298927,2391,2411,1423,-4872,3043,798,-1618,4729,26,56,891
824633,3131612,3295124,3135284,3299124,2231,2058,1614,-4686,3096,604,-1596,4682,43,68,891
825633,3131748,3295464,3135481,3299321,2434,2220,1826,-4534,3110,671,-1314,4594,43,68,891
826635,3131876,3295804,3135678,3299518,2514,2159,2043,-4287,3114,903,-1085,4632,41,63,894
827636,3132036,3296088,3135875,3299715,2332,2471,2252,-4020,3118,1278,-719,4648,41,63,894
828637,3132176,3296428,3136072,3299912,2483,2060,2459,-3710,3090,1353,-405,4580,44,73,892
829638,3132356,3296780,3136269,3300109,2241,1916,2673,-3343,3030,1181,-426,4608,44,73,892
830639,3132544,3297088,3136466,3300306,2195,2144,2873,-2887,2987,1091,-705,4765,50,56,892
831640,3132740,3297364,3136663,3300503,2146,2309,3035,-2366,3007,1077,-793,4918,50,56,892
832641,3132920,3297748,3136860,3300700,2255,1553,3174,-1735,3053,734,-654,4986,31,70,895
833642,3133104,3298092,3137057,3300897,2237,1739,3329,-1161,3080,480,-526,4504,31,70,895
834643,3133292,3298412,3137254,3301094,2216,1835,3512,-753,3097,772,-314,4039,33,62,897
835643,3133460,3298692,3137451,3301291,2354,2050,3684,-318,3159,1264,-138,3952,33,62,897
836644,3133688,3299044,3137648,3301488,1967,1532,3841,68,3254,1494,95,3574,47,71,897
837645,3133904,3299424,3137845,3301685,2034,1277,4003,433,3308,1375,215,3256,47,71,897
838646,3134096,3299752,3138042,3301882,2187,1545,4181,685,3352,1082,108,2857,53,54,898
839647,3134324,3300044,3138239,3302079,1949,1728,4334,1013,3434,1001,-76,2989,53,54,898
840648,3134504,3300380,3138436,3302276,2257,1393,4428,1372,3553,1020,80,2881,53,53,898
841656,3134720,3300740,3138666,3302506,2040,1186,4482,1717,3650,1036,289,2626,53,53,898
842651,3134936,3301068,3138863,3302703,2031,1329,4525,2012,3676,1300,347,2281,44,72,898
843652,3135148,3301404,3139060,3302900,2051,1218,4566,2236,3662,1553,261,1933,44,72,898
844653,3135368,3301720,3139257,3303097,1992,1291,4568,2513,3668,1432,-15,2204,61,62,901
845654,3135584,3302084,3139454,3303294,2009,917,4489,2967,3689,885,-435,2513,61,62,901
846654,3135796,3302432,3139651,3303491,2028,952,4379,3485,3689,587,-522,2389,40,74,901
847655,3136016,3302768,3139848,3303688,1968,966,4282,3846,3649,778,-219,1804,40,74,901
848656,3136216,3303084,3140045,3303885,2093,1039,4191,4077,3559,1165,-19,1281,55,57,902
849657,3136464,3303444,3140242,3304082,1772,692,4075,4215,3447,1361,-184,1036,55,57,902
850659,3136676,3303788,3140439,3304279,1990,727,3939,4370,3341,1283,-393,984,38,68,901
851660,3136900,3304088,3140636,3304476,1904,957,3778,4569,3240,1028,-591,993,38,68,901
852660,3137140,3304352,3140833,3304673,1786,1153,3604,4753,3150,895,-629,817,55,48,902
853661,3137348,3304616,3141030,3304870,1982,1124,3388,4966,3022,943,-316,842,55,48,902
854663,3137560,3304984,3141227,3305067,1951,399,3141,5080,2846,1228,-268,382,36,66,903
855663,3137824,3305288,3141424,3305264,1598,752,2874,5093,2668,1540,-363,188,36,66,903
856664,3138068,3305548,3141621,3305461,1702,999,2575,5117,2468,1542,-311,162,57,63,904
857665,3138304,3305824,3141818,3305658,1736,865,2242,5149,2227,1382,72,55,57,63,904
858667,3138560,3306072,3142015,3305855,1586,1017,1895,5107,1915,1225,561,-336,56,48,904
859668,3138800,3306352,3142212,3306052,1667,780,1535,4963,1542,1292,780,-697,56,48,904
860668,3139008,3306636,3142409,3306249,1863,716,1125,4819,1174,1442,667,-619,39,46,904
861670,3139320,3306864,3142606,3306446,1164,1053,684,4718,878,1275,315,-441,39,46,904
862670,3139560,3307072,3142803,3306643,1595,1173,231,4771,675,1228,60,14,62,38,903
863671,3139796,3307296,3143000,3306840,1604,1061,-201,4913,504,1242,159,137,62,38,903
864672,3140036,3307548,3143197,3307037,1561,862,-599,4919,232,1063,896,-525,46,48,904
865673,3140264,3307804,3143394,3307234,1622,811,-986,4689,-185,980,1352,-1170,46,48,904
866675,3140484,3308052,3143591,3307431,1663,839,-1412,4309,-655,799,1347,-1266,38,49,905
867676,3140740,3308268,3143788,3307628,1412,1030,-1861,3960,-1073,524,940,-1002,38,49,905
868676,3141016,3308460,3143985,3307825,1253,1182,-2307,3708,-1435,326,667,-771,40,47,904
869677,3141244,3308700,3144182,3308022,1541,864,-2763,3477,-1737,104,356,-514,40,47,904
870678,3141468,3309012,3144379,3308219,1554,362,-3169,3248,-2013,76,470,-787,54,57,906
871679,3141724,3309248,3144576,3308416,1329,820,-3507,2904,-2297,59,765,-1069,54,57,906
872680,3141928,3309496,3144773,3308613,1651,722,-3846,2537,-2565,-265,570,-655,51,43,905
873682,3142200,3309728,3144970,3308810,1194,807,-4212,2325,-2803,-721,146,-106,51,43,905
874683,3142472,3309888,3145167,3309007,1161,1273,-4584,2221,-2978,-998,-279,148,49,35,905
875684,3142708,3310100,3145364,3309204,1370,942,-4946,2129,-3076,-1147,-617,308,49,35,905
876685,3142936,3310368,3145561,3309401,1406,560,-5316,2011,-3145,-1308,-885,507,44,34,907
877686,3143200,3310600,3145758,3309598,1153,769,-5661,1914,-3224,-1478,-994,527,44,34,907
878687,3143452,3310808,3145955,3309795,1203,914,-5961,1754,-3288,-1650,-1296,728,42,38,905
879688,3143660,3311012,3146152,3309992,1475,936,-6241,1642,-3300,-1547,-1650,1183,42,38,905
880688,3143896,3311188,3146349,3310189,1282,1120,-6512,1543,-3261,-1372,-1733,1375,44,37,907
881689,3144112,3311368,3146546,3310386,1400,1102,-6747,1363,-3214,-1267,-1777,1196,44,37,907
882691,3144320,3311556,3146743,3310583,1445,1056,-6923,1014,-3175,-1229,-1902,970,50,33,904
883692,3144588,3311768,3146940,3310780,1040,899,-7063,537,-3139,-1223,-1898,1023,50,33,904
884693,3144844,3311968,3147137,3310977,1089,973,-7168,56,-3090,-1088,-1952,1323,47,38,904
885693,3145060,3312132,3147334,3311174,1332,1213,-7249,-402,-3027,-990,-2021,1558,47,38,904
886695,3145260,3312296,3147531,3311371,1430,1226,-7293,-915,-2947,-878,-1951,1583,36,20,907
887695,3145496,3312428,3147728,3311568,1188,1455,-7302,-1567,-2863,-638,-2034,1531,36,20,907
888696,3145696,3312568,3147925,3311765,1413,1430,-7276,-2289,-2772,-451,-2147,1637,50,30,905
889697,3145900,3312700,3148122,3311962,1385,1508,-7249,-2967,-2665,-289,-2225,1954,50,30,905
890699,3146072,3312792,3148319,3312159,1597,1804,-7218,-3675,-2516,-58,-2307,1954,31,17,904
891700,3146196,3312904,3148516,3312356,1929,1717,-7174,-4425,-2322,313,-2194,2179,31,17,904
892701,3146304,3313080,3148713,3312553,2069,1326,-7123,-5196,-2117,876,-1802,2410,30,28,902
893701,3146408,3313236,3148910,3312750,2135,1469,-7067,-6077,-1912,1634,-1617,2435,30,28,902
894703,3146516,3313388,3149107,3312947,2149,1513,-7004,-6927,-1706,2408,-1706,2611,31,35,899
895704,3146632,3313532,3149304,3313144,2136,1586,-5918,-6732,-1481,4834,-2324,9710,31,35,899
896704,3146756,3313652,3149501,3313341,2118,1770,-327,3663,-1759,16842,-6515,32767,14,17,897
897705,3146928,3313788,3149698,3313538,1830,1697,5528,12537,-2066,9676,-4103,29123,14,17,897
898707,3147080,3313904,3149895,3313735,1975,1857,6755,12063,-1876,5221,-1377,-1686,40,32,898
899708,3147288,3314036,3150092,3313932,1621,1786,5520,7939,-1270,5500,-3226,-2218,40,32,898
900709,3147464,3314136,3150289,3314129,1831,2028,3888,3942,-623,5350,-4185,-2581,23,18,899
901709,3147648,3314248,3150486,3314326,1787,1991,2945,1783,-126,4899,-3326,-1658,23,18,899
902710,3147820,3314400,3150683,3314523,1874,1761,2177,25,252,4748,-2937,-1601,44,14,900
903711,3147996,3314512,3150880,3314720,1858,2048,1348,-1523,575,4752,-2818,-1078,44,14,900
904712,3148180,3314636,3151077,3314917,1815,2005,434,-3250,860,4087,-1869,-579,45,28,898
905713,3148340,3314740,3151274,3315114,1981,2171,-524,-4389,998,3736,-1095,1671,45,28,898
906715,3148516,3314844,3151471,3315311,1891,2212,-1440,-5358,1140,3703,-1117,1654,24,19,895
907716,3148688,3314980,3151668,3315508,1927,2039,-2112,-6026,1459,3614,-923,2695,24,19,895
908717,3148844,3315116,3151865,3315705,2046,2065,-2565,-6550,1683,3036,148,3021,40,30,894
909718,3149012,3315220,3152062,3315902,1985,2307,-2719,-7196,1638,2131,1141,2511,40,30,894
910719,3149192,3315340,3152259,3316099,1917,2241,-2711,-7754,1410,1252,1438,3351,23,17,895
911720,3149396,3315460,3152456,3316296,1765,2275,-2691,-7870,1159,744,1108,4690,23,17,895
912720,3149612,3315572,3152653,3316493,1682,2362,-2688,-7438,988,114,395,6701,26,30,894
913721,3149824,3315696,3152850,3316690,1701,2319,-1209,-3813,1183,-2353,-2115,32554,26,30,894
914723,3150032,3315836,3153047,3316887,1721,2244,1277,1910,1455,-3614,-1627,32767,32,31,896
915724,3150276,3315944,3153244,3317084,1477,2484,2406,4286,1186,-2530,1495,6812,32,31,896
916725,3150488,3316064,3153441,3317281,1671,2443,2160,4045,622,-2437,1271,5203,30,31,897
917725,3150704,3316172,3153638,3317478,1638,2557,1745,3348,79,-1964,-97,3958,30,31,897
918727,3150928,3316296,3153835,3317675,1577,2490,1501,2747,-250,-1565,-715,3333,30,22,895
919727,3151168,3316412,3154032,3317872,1458,2576,1432,2571,-364,-919,-1238,3346,30,22,895
920729,3151396,3316516,3154229,3318069,1520,2692,1377,2137,-439,-152,-1305,2057,36,26,894
921729,3151648,3316636,3154426,3318266,1346,2626,1389,1421,-486,6,-1669,1434,36,26,894
922731,3151880,3316756,3154623,3318463,1457,2660,1453,478,-473,57,-2052,1016,34,15,895
923732,3152068,3316876,3154820,3318660,1736,2694,1459,-529,-437,347,-2370,898,34,15,895
924741,3152304,3316996,3155050,3318890,1434,2743,1311,-1227,-270,427,-2653,1848,39,20,895
925733,3152516,3317128,3155247,3319087,1578,2696,1017,-1687,59,366,-3556,2175,39,20,895
926734,3152744,3317248,3155444,3319284,1465,2806,793,-2240,364,252,-3765,1437,42,32,893
927735,3152996,3317340,3155641,3319481,1291,3027,658,-2830,632,54,-3638,1761,42,32,893
928736,3153232,3317464,3155838,3319678,1375,2860,580,-3513,852,17,-3355,1280,33,27,893
929737,3153424,3317600,3156035,3319875,1652,2812,517,-4144,972,-54,-2827,1408,33,27,893
930738,3153628,3317768,3156232,3320072,1575,2625,439,-4555,1062,-277,-2838,2392,29,20,891
931739,3153856,3317928,3156429,3320269,1411,2692,333,-4694,1168,-76,-2924,3117,29,20,891
932740,3154068,3318128,3156626,3320466,1506,2441,303,-4700,1259,1,-2316,3035,46,43,894
933741,3154244,3318308,3156823,3320663,1740,2574,344,-4655,1321,-34,-1635,3381,46,43,894
934742,3154464,3318504,3157020,3320860,1456,2475,388,-4523,1369,111,-1276,3926,29,45,895
935743,3154660,3318772,3157217,3321057,1606,1995,395,-4290,1438,325,-965,4243,29,45,895
936744,3154844,3318980,3157414,3321254,1688,2365,389,-3897,1549,534,-842,4583,28,50,895
937745,3155028,3319252,3157611,3321451,1694,1933,409,-3521,1666,666,-719,4537,28,50,895
938746,3155204,3319476,3157808,3321648,1754,2221,454,-3059,1776,647,-527,4873,34,53,899
939748,3155344,3319700,3158005,3321845,2004,2209,522,-2548,1881,630,-286,4940,34,53,899
940749,3155536,3319976,3158202,3322042,1682,1850,606,-2070,1972,804,-116,4787,43,54,898
941750,3155688,3320204,3158399,3322239,1952,2137,695,-1581,2057,1033,164,4885,43,54,898
942751,3155828,3320416,3158596,3322436,2053,2231,784,-1139,2114,1233,548,4635,28,35,895
943752,3156016,3320624,3158793,3322633,1757,2251,874,-849,2127,1481,842,4196,28,35,895
944753,3156176,3320864,3158990,3322830,1949,2032,974,-714,2118,1705,1118,3756,25,45,896
945754,3156332,3321084,3159187,3323027,1992,2148,1071,-706,2104,1881,1485,3410,25,45,896
946755,3156528,3321308,3159384,3323224,1744,2111,1143,-684,2031,1958,1815,3342,32,52,897
947756,3156684,3321536,3159581,3323421,2013,2073,1195,-703,1878,1841,2203,3054,32,52,897
948757,3156864,3321756,3159778,3323618,1870,2114,1216,-863,1644,1844,2372,2640,34,48,896
949757,3157040,3321988,3159975,3323815,1905,2023,1197,-1130,1361,1982,2306,2234,34,48,896
950759,3157236,3322204,3160172,3324012,1781,2116,1146,-1473,1104,1981,2190,2207,43,35,895
951759,3157416,3322388,3160369,3324209,1889,2322,1052,-1673,894,1898,2089,2455,43,35,895
952760,3157572,3322592,3160566,3324406,2057,2194,962,-1890,686,1676,2023,2254,29,48,896
953761,3157764,3322796,3160763,3324603,1835,2192,844,-2082,500,1444,1565,2366,29,48,896
954762,3157928,3322984,3160960,3324800,2026,2296,654,-2183,404,1228,870,2565,43,44,895
955764,3158088,3323216,3161157,3324997,2067,2005,416,-2144,427,930,224,3017,43,44,895
956765,3158260,3323404,3161354,3325194,2004,2285,175,-2000,528,591,-396,3396,31,30,897
957766,3158440,3323604,3161551,3325391,1962,2209,13,-1801,638,288,-772,3360,31,30,897
958766,3158604,3323796,3161748,3325588,2077,2261,-68,-1555,760,37,-1181,3587,37,48,897
959768,3158796,3324000,3161945,3325785,1904,2184,-93,-1225,937,-168,-1352,3809,37,48,897
960768,3158984,3324196,3162142,3325982,1934,2234,-95,-880,1159,-360,-1271,3908,49,39,896
961769,3159148,3324376,3162339,3326179,2100,2342,-51,-472,1386,-504,-912,4062,49,39,896
962771,3159336,3324612,3162536,3326376,1954,1976,40,-87,1590,-622,-496,4016,29,28,895
963772,3159508,3324796,3162733,3326573,2066,2306,150,268,1779,-745,-334,3933,29,28,895
964773,3159664,3324984,3162930,3326770,2184,2285,228,579,1970,-780,-194,3798,25,39,894
965773,3159848,3325156,3163127,3326967,2015,2397,273,821,2167,-684,-38,3626,25,39,894
966775,3159992,3325372,3163324,3327164,2290,2114,273,1038,2356,-551,-95,3447,44,44,894
967776,3160168,3325592,3163521,3327361,2099,2079,232,1226,2542,-618,149,3517,44,44,894
968776,3160328,3325824,3163718,3327558,2216,1990,159,1417,2635,-698,871,3677,32,48,894
969777,3160532,3326032,3163915,3327755,1939,2135,49,1600,2585,-874,1319,3648,32,48,894
970778,3160684,3326248,3164112,3327952,2284,2076,-91,1811,2464,-1058,1380,3528,23,43,896
971779,3160852,3326432,3164309,3328149,2198,2283,-270,1947,2302,-1237,1362,3508,23,43,896
972781,3161008,3326648,3164506,3328346,2292,2075,-499,2084,2134,-1265,1255,3515,35,49,895
973781,3161136,3326896,3164703,3328543,2497,1852,-758,2157,1969,-1177,1234,3304,35,49,895
974782,3161280,3327116,3164900,3328740,2421,2018,-1057,2164,1804,-1062,1099,3172,36,51,892
975783,3161432,3327336,3165097,3328937,2392,2008,-1386,2134,1650,-898,560,3333,36,51,892
976784,3161572,3327612,3165294,3329134,2492,1623,-1689,2111,1517,-722,569,3199,21,43,894
977785,3161676,3327832,3165491,3329331,2759,1963,-1943,2032,1395,-602,786,3034,21,43,894
978787,3161852,3327972,3165688,3329528,2319,2489,-1663,2719,1278,261,782,10585,37,47,894
979787,3162056,3328104,3165885,3329725,2141,2568,-501,5183,1135,1458,675,23694,37,47,894
980788,3162228,3328192,3166082,3329922,2353,2891,254,6212,1017,354,1020,5150,46,28,892
981789,3162400,3328304,3166279,3330119,2365,2779,147,5290,913,199,1543,365,46,28,892
982790,3162580,3328424,3166476,3330316,2324,2763,-289,3667,826,619,1483,-173,29,15,892
983791,3162752,3328552,3166673,3330513,2385,2743,-673,2333,806,860,1308,219,29,15,892
984792,3162916,3328732,3166870,3330710,2450,2427,-957,1481,880,744,994,980,31,34,888
985793,3163068,3328924,3167067,3330907,2546,2354,-1166,942,961,668,723,2131,31,34,888
986794,3163232,3329152,3167264,3331104,2486,2116,-678,1770,1090,-292,10,14309,37,31,889
987795,3163400,3329388,3167461,3331301,2474,2049,367,3325,1204,-661,-135,16199,37,31,889
988797,3163540,3329596,3167658,3331498,2675,2219,787,3348,1087,129,1092,1933,45,55,891
989798,3163692,3329944,3167855,3331695,2621,1279,542,2208,878,237,1525,786,45,55,891
990798,3163836,3330264,3168052,3331892,2695,1400,105,1003,806,460,1383,1406,31,60,894
991799,3163980,3330560,3168249,3332089,2720,1506,-144,616,859,400,1445,3883,31,60,894
992800,3164116,3330848,3168446,3332286,2796,1517,175,1289,1035,-309,606,11141,39,65,896
993801,3164272,3331124,3168643,3332483,2690,1558,586,1972,1182,-210,449,7165,39,65,896
994802,3164464,3331420,3168840,3332680,2469,1389,580,1792,1222,-278,602,2533,38,51,894
995803,3164636,3331708,3169037,3332877,2606,1399,309,1180,1191,-610,440,2681,38,51,894
996805,3164800,3331940,3169234,3333074,2671,1735,24,801,1110,-739,201,3281,50,47,894
997805,3164988,3332212,3169431,3333271,2526,1452,-223,775,1028,-1137,219,3823,50,47,894
998806,3165140,3332476,3169628,3333468,2771,1472,-493,1093,911,-1313,210,4813,29,58,896
999807,3165324,3332760,3169825,3333665,2577,1309,-794,1555,740,-1618,103,5016,29,58,896
1000808,3165536,3333060,3170022,3333862,2397,1164,-1046,1957,568,-1950,-51,4903,32,64,896
1001809,3165716,3333332,3170219,3334059,2605,1306,-1210,2292,407,-1977,-295,4588,32,64,896
1002810,3165900,3333616,3170416,3334256,2587,1194,-1309,2449,293,-1980,-628,4255,34,60,897
1003811,3166116,3333900,3170613,3334453,2380,1156,-1429,2664,267,-1994,-991,4586,34,60,897
1004813,3166308,3334180,3170810,3334650,2533,1144,-1550,2861,318,-1929,-1398,4385,57,64,897
1005814,3166512,3334416,3171007,3334847,2455,1402,-1632,3050,435,-1801,-1634,4516,57,64,897
1006815,3166744,3334652,3171204,3335044,2265,1385,-1653,3260,586,-1712,-1744,4545,37,42,898
1007823,3166944,3334892,3171434,3335274,2480,1355,-1596,3340,694,-1745,-1766,4180,37,42,898
1008817,3167148,3335156,3171631,3335471,2453,1176,-1451,3365,700,-1819,-1484,4598,38,42,897
1009818,3167356,3335376,3171828,3335668,2424,1441,-1100,3582,555,-1434,-837,6789,38,42,897
1010819,3167552,3335600,3172025,3335865,2500,1404,-721,3650,288,-1332,-630,4969,52,45,898
1011820,3167728,3335816,3172222,3336062,2635,1446,-539,3215,-6,-1506,-679,2499,52,45,898
1012821,3167920,3336008,3172419,3336259,2538,1598,-539,2456,-277,-1560,-967,1840,51,45,897
1013821,3168128,3336188,3172616,3336456,2434,1680,-650,1634,-499,-1376,-1342,1765,51,45,897
1014823,3168320,3336428,3172813,3336653,2537,1286,-781,885,-694,-1207,-1235,1996,34,48,896
1015823,3168528,3336620,3173010,3336850,2433,1589,-625,630,-885,-886,-1244,6502,34,48,896
1016824,3168732,3336836,3173207,3337047,2456,1431,-49,1313,-1030,-1176,-1888,12599,32,42,895
1017825,3168920,3337032,3173404,3337244,2561,1557,368,1539,-1204,-1222,-1334,5718,32,42,895
1018827,3169092,3337196,3173601,3337441,2673,1771,381,916,-1427,-975,-761,2478,29,25,895
1019828,3169288,3337356,3173798,3337638,2523,1812,214,-126,-1611,-744,-1323,2287,29,25,895
1020828,3169472,3337500,3173995,3337835,2605,1936,119,-953,-1716,-525,-1986,3378,29,38,896
1021830,3169632,3337620,3174192,3338032,2772,2120,297,-1276,-1738,-188,-2604,6188,29,38,896
1022831,3169824,3337760,3174389,3338229,2576,2020,621,-1306,-1725,32,-2776,7210,43,18,894
1023832,3169992,3337860,3174586,3338426,2739,2312,736,-1531,-1705,-35,-2233,4255,43,18,894
1024832,3170164,3337972,3174783,3338623,2726,2275,620,-2106,-1687,-34,-1314,2908,29,17,891
1025834,3170356,3338096,3174980,3338820,2605,2232,417,-2778,-1665,19,-750,2959,29,17,891
1026835,3170548,3338228,3175177,3339017,2607,2210,271,-3212,-1647,84,-494,4135,52,33,890
1027836,3170764,3338352,3175374,3339214,2449,2292,394,-3000,-1636,348,-524,8133,52,33,890
1028837,3170960,3338460,3175571,3339411,2576,2432,690,-2456,-1669,442,-647,8178,48,17,890
1029838,3171164,3338584,3175768,3339608,2524,2365,798,-2310,-1708,-26,-996,4565,48,17,890
1030839,3171360,3338700,3175965,3339805,2575,2450,706,-2520,-1706,-35,-1243,3905,49,28,891
1031840,3171564,3338816,3176162,3340002,2523,2486,562,-2795,-1649,204,-1253,3732,49,28,891
1032841,3171816,3338932,3176359,3340199,2200,2521,455,-2976,-1538,350,-999,3704,53,33,890
1033842,3172036,3339064,3176556,3340396,2391,2451,385,-3096,-1428,396,-688,3620,53,33,890
1034843,3172280,3339196,3176753,3340593,2220,2479,345,-3259,-1353,464,-422,3440,42,18,890
1035844,3172520,3339328,3176950,3340790,2227,2508,318,-3358,-1314,441,-144,3653,42,18,890
1036844,3172784,3339456,3177147,3340987,2049,2563,313,-3448,-1292,322,23,3696,46,23,891
1037846,3173012,3339584,3177344,3341184,2261,2595,327,-3456,-1268,236,-161,3896,46,23,891
1038847,3173288,3339732,3177541,3341381,1927,2491,342,-3395,-1222,220,-404,4091,58,17,891
1039848,3173548,3339852,3177738,3341578,2001,2700,359,-3257,-1158,69,-388,4044,58,17,891
1040849,3173804,3339968,3177935,3341775,2000,2762,371,-3110,-1107,-107,-568,4011,54,34,890
1041850,3174084,3340084,3178132,3341972,1814,2797,403,-3007,-1061,-224,-770,3847,54,34,890
1042851,3174360,3340212,3178329,3342169,1806,2753,456,-2922,-1002,-231,-910,3761,64,20,892
1043852,3174640,3340336,3178526,3342366,1745,2811,529,-2828,-939,-200,-998,3715,64,20,892
1044853,3174944,3340484,3178723,3342563,1548,2682,617,-2725,-888,-160,-820,3586,53,20,892
1045854,3175200,3340612,3178920,3342760,1823,2838,722,-2659,-859,-87,-514,3459,53,20,892
1046855,3175504,3340732,3179117,3342957,1477,2922,835,-2624,-906,-46,209,3293,62,25,892
1047856,3175792,3340860,3179314,3343154,1538,2903,950,-2538,-1020,50,700,3219,62,25,892
1048857,3176076,3340980,3179511,3343351,1525,2987,1050,-2454,-1101,162,228,3177,47,20,891
1049857,3176356,3341112,3179708,3343548,1515,2941,1130,-2358,-1123,166,-108,3298,47,20,891
1050859,3176636,3341232,3179905,3343745,1479,3051,1199,-2190,-1132,92,-416,3282,62,27,892
1051860,3176892,3341344,3180102,3343942,1603,3138,1241,-2075,-1148,15,-803,3120,62,27,892
1052860,3177188,3341452,3180299,3344139,1311,3203,1294,-2009,-1151,7,-1069,2851,60,24,893
1053862,3177444,3341572,3180496,3344336,1535,3162,1360,-2023,-1139,77,-1059,2683,60,24,893
1054863,3177744,3341708,3180693,3344533,1215,3090,1436,-2022,-1104,183,-1042,2520,46,23,890
1055864,3177992,3341860,3180890,3344730,1519,3010,1512,-2078,-1069,260,-752,2341,46,23,890
1056865,3178260,3342008,3181087,3344927,1363,3057,1575,-2111,-1087,294,-285,2274,55,21,891
1057865,3178524,3342140,3181284,3345124,1359,3186,1598,-2182,-1124,388,-116,2310,55,21,891
1058867,3178768,3342284,3181481,3345321,1464,3135,1587,-2190,-1138,454,-233,2411,44,31,891
1059867,3179032,3342436,3181678,3345518,1310,3106,1542,-2146,-1130,422,-457,2485,44,31,891
1060868,3179300,3342596,3181875,3345715,1254,3072,1485,-2088,-1100,417,-768,2421,59,25,891
1061869,3179532,3342744,3182072,3345912,1465,3170,1435,-2035,-1058,409,-963,2458,59,25,891
1062871,3179784,3342916,3182269,3346109,1316,3031,1377,-1935,-1016,422,-966,2532,60,25,891
1063871,3180040,3343068,3182466,3346306,1266,3176,1324,-1795,-983,446,-867,2601,60,25,891
1064872,3180252,3343220,3182663,3346503,1534,3197,1264,-1685,-940,505,-877,2662,35,36,891
1065873,3180476,3343400,3182860,3346700,1448,3030,1207,-1528,-893,558,-694,2658,35,36,891
1066875,3180712,3343588,3183057,3346897,1356,2985,1126,-1404,-857,526,-513,2596,57,30,892
1067876,3180972,3343764,3183254,3347094,1178,3069,1030,-1288,-835,493,-334,2466,57,30,892
1068876,3181204,3343932,3183451,3347291,1339,3133,928,-1244,-814,477,-361,2224,54,46,893
1069877,3181464,3344096,3183648,3347488,1136,3173,826,-1227,-771,422,-433,2015,54,46,893
1070879,3181708,3344280,3183845,3347685,1217,3054,726,-1336,-717,406,-478,1856,58,36,893
1071880,3181936,3344516,3184042,3347882,1303,2713,606,-1458,-658,383,-439,1743,58,36,893
1072881,3182216,3344720,3184239,3348079,943,2911,481,-1637,-599,462,-389,1616,40,30,891
1073882,3182484,3344892,3184436,3348276,986,3122,355,-1789,-553,461,-255,1507,40,30,891
1074883,3182728,3345076,3184633,3348473,1116,3053,230,-2003,-511,369,-141,1392,44,34,895
1075884,3183008,3345252,3184830,3348670,855,3114,91,-2228,-474,276,-103,1467,44,34,895
1076885,3183296,3345464,3185027,3348867,765,2882,-66,-2421,-432,268,-64,1448,52,35,894
1077885,3183536,3345656,3185224,3349064,1046,3010,-219,-2636,-368,208,-92,1431,52,35,894
1078887,3183748,3345864,3185421,3349261,1216,2906,-364,-2854,-293,192,-173,1545,49,35,894
1079888,3184032,3346044,3185618,3349458,727,3089,-518,-3081,-212,80,-260,1528,49,35,894
1080888,3184284,3346228,3185815,3349655,903,3071,-689,-3249,-125,-63,-331,1693,42,42,895
1081889,3184492,3346400,3186012,3349852,1174,3156,-870,-3361,-46,-115,-285,1845,42,42,895
1082891,3184736,3346592,3186209,3350049,929,3035,-1041,-3496,16,-105,-183,1790,49,47,894
1083892,3184948,3346768,3186406,3350246,1122,3145,-1219,-3564,97,-129,-167,2166,49,47,894
1084893,3185128,3346972,3186603,3350443,1330,2967,-1392,-3600,208,-153,-203,2310,51,32,891
1085893,3185336,3347168,3186800,3350640,1151,3018,-1546,-3665,325,-59,-112,2325,51,32,891
1086895,3185516,3347364,3186997,3350837,1333,3020,-1683,-3669,453,47,8,2487,25,48,893
1087896,3185708,3347588,3187194,3351034,1261,2833,-1792,-3735,592,214,142,2404,25,48,893
1088897,3185908,3347768,3187391,3351231,1210,3116,-1916,-3744,729,388,308,2682,38,30,894
1089898,3186108,3347960,3187588,3351428,1209,3045,-2029,-3850,865,520,430,2654,38,30,894
1090906,3186276,3348168,3187818,3351658,1436,2954,-2136,-3842,968,634,622,3122,26,39,895
1091899,3186472,3348340,3188015,3351855,1262,3191,-2273,-3780,1051,791,637,3303,26,39,895
1092901,3186644,3348516,3188212,3352052,1424,3176,-2425,-3720,1121,1006,600,3273,46,41,893
1093901,3186820,3348688,3188409,3352249,1408,3212,-2571,-3684,1154,1188,753,3409,46,41,893
1094903,3187008,3348864,3188606,3352446,1337,3198,-2746,-3564,1159,1219,645,3972,43,34,891
1095904,3187196,3349032,3188803,3352643,1342,3261,-2954,-3336,1162,1291,411,4476,43,34,891
1096905,3187360,3349192,3189000,3352840,1506,3328,-3185,-3034,1171,1402,320,4687,42,31,890
1097905,3187508,3349360,3189197,3353037,1628,3291,-2412,-1397,1131,3235,331,17932,42,31,890
1098907,3187668,3349548,3189394,3353234,1569,3171,434,4543,957,6056,-1098,32767,21,27,890
1099908,3187844,3349704,3189591,3353431,1479,3390,2448,7763,842,2303,-169,11115,21,27,890
1100909,3187996,3349884,3189788,3353628,1649,3248,2584,7142,785,1735,791,1167,45,25,889
1101910,3188196,3350060,3189985,3353825,1348,3283,1953,4695,736,2119,757,-607,45,25,889
1102910,3188364,3350216,3190182,3354022,1561,3427,1362,2825,671,2240,441,131,26,42,889
1103912,3188520,3350388,3190379,3354219,1654,3338,958,1632,691,1886,158,472,26,42,889
1104912,3188696,3350544,3190576,3354416,1540,3457,588,725,685,1836,114,876,41,34,889
1105913,3188872,3350708,3190773,3354613,1549,3423,145,-66,589,1242,104,1078,41,34,889
1106915,3189032,3350900,3190970,3354810,1665,3251,-289,-1084,461,538,-35,826,27,27,887
1107916,3189248,3351056,3191167,3355007,1308,3494,-731,-1935,292,324,-206,1734,27,27,887
1108916,3189428,3351232,3191364,3355204,1540,3379,-1213,-2519,172,-178,-242,2752,38,42,888
1109917,3189596,3351388,3191561,3355401,1628,3523,-1701,-2636,130,-654,-440,4214,38,42,888
1110918,3189812,3351556,3191758,3355598,1321,3462,-1695,-2051,151,-1447,-1153,9734,41,24,888
1111920,3189980,3351708,3191955,3355795,1633,3582,-289,819,478,-3507,-2740,30189,41,24,888
1112921,3190168,3351840,3192152,3355992,1512,3736,1116,3090,733,-2868,-906,14760,27,37,887
1113921,3190348,3351976,3192349,3356189,1571,3739,1340,2901,746,-2167,150,2862,27,37,887
1114922,3190564,3352120,3192546,3356386,1337,3713,927,1521,749,-1992,-161,2099,46,32,886
1115924,3190748,3352292,3192743,3356583,1544,3550,533,245,877,-1807,-397,1884,46,32,886
1116937,3190940,3352424,3192940,3356780,1496,3800,317,-653,1119,-1886,-178,2104,44,28,882
1117925,3191128,3352568,3193137,3356977,1525,3778,183,-1294,1361,-1840,172,2387,44,28,882
1118939,3191320,3352696,3193334,3357174,1504,3800,53,-1893,1527,-1959,433,2478,31,16,886
1119940,3191548,3352840,3193531,3357371,1265,3800,-49,-2481,1654,-2470,490,2986,31,16,886
1120941,3191740,3352988,3193728,3357568,1493,3800,-108,-2923,1775,-2692,705,3531,51,29,884
1121942,3191932,3353104,3193925,3357765,1495,3800,-161,-3314,1866,-2680,1066,3683,51,29,884
1122943,3192104,3353260,3194122,3357962,1631,3800,-226,-3567,1968,-2561,1234,4231,46,31,885
1123944,3192288,3353388,3194319,3358159,1563,3800,-309,-3680,2101,-2371,1125,4695,46,31,885
1124945,3192476,3353520,3194516,3358356,1542,3800,-389,-3694,2242,-2231,856,4923,25,24,885
1125946,3192660,3353676,3194713,3358553,1573,3800,-467,-3643,2401,-2242,826,5250,25,24,885
1126947,3192840,3353812,3194910,3358750,1606,3800,-531,-3616,2512,-2251,994,5182,29,25,883
1127948,3193020,3353960,3195107,3358947,1614,3800,-558,-3645,2609,-2401,620,5202,29,25,883
1128949,3193172,3354112,3195304,3359144,1809,3800,-564,-3685,2757,-2583,-4,5300,38,21,884
1129950,3193364,3354240,3195501,3359341,1562,3800,-565,-3752,2936,-2411,-313,5283,38,21,884
1130951,3193520,3354388,3195698,3359538,1805,3800,-551,-3850,3111,-1921,-298,5119,28,36,884
1131952,3193680,3354548,3195895,3359735,1797,3800,-490,-4080,3256,-1472,42,4680,28,36,884
1132953,3193828,3354680,3196092,3359932,1893,3800,-405,-4437,3355,-1098,154,4470,34,28,884
1133954,3193976,3354832,3196289,3360129,1916,3800,-313,-4828,3448,-900,-74,4458,34,28,884
1134955,3194120,3355000,3196486,3360326,1964,3800,-233,-5191,3551,-771,-254,4463,22,27,883
1135957,3194304,3355164,3196683,3360523,1721,3800,-143,-5568,3626,-493,-171,4250,22,27,883
1136957,3194460,3355356,3196880,3360720,1914,3800,-40,-5954,3651,-305,-100,4311,46,22,883
1137958,3194636,3355512,3197077,3360917,1798,3800,68,-6248,3632,-40,-99,4428,46,22,883
1138960,3194780,3355696,3197274,3361114,2022,3800,155,-6529,3594,232,-84,4469,35,41,882
1139961,3194968,3355872,3197471,3361311,1751,3800,207,-6709,3551,289,-149,4774,35,41,882
1140962,3195104,3356068,3197668,3361508,2104,3800,228,-6808,3480,294,-50,4829,35,30,884
1141962,3195292,3356280,3197865,3361705,1783,3800,252,-6884,3339,376,225,4759,35,30,884
1142951,3195472,3356500,3198062,3361902,1842,3763,256,-6837,3172,499,88,5332,33,45,884
1143964,3195620,3356696,3198259,3362099,2063,3800,237,-6626,3019,649,-16,5549,33,45,884
1144953,3195752,3356916,3198456,3362296,2193,3756,223,-6393,2905,981,-36,5444,44,45,883
1145966,3195916,3357124,3198653,3362493,2007,3800,245,-6212,2819,1130,18,5232,44,45,883
1146955,3196052,3357348,3198850,3362690,2210,3716,290,-6105,2745,1256,-20,5209,26,46,882
1147955,3196192,3357572,3199047,3362887,2210,3705,352,-5949,2685,1410,-170,5224,26,46,882
1148956,3196344,3357840,3199244,3363084,2156,3400,435,-5833,2658,1479,-317,4989,25,62,882
1149957,3196492,3358152,3199441,3363281,2203,3075,550,-5707,2636,1515,-491,4859,25,62,882
1150958,3196628,3358460,3199638,3363478,2305,3053,695,-5591,2597,1458,-704,4826,23,68,882
1151959,3196784,3358728,3199835,3363675,2199,3272,862,-5495,2554,1361,-888,4766,23,68,882
1152960,3196936,3359076,3200032,3363872,2244,2707,1051,-5376,2527,1349,-943,4724,27,55,888
1153961,3197064,3359480,3200229,3364069,2425,2267,1257,-5163,2517,1076,-1076,4829,27,55,888
1154963,3197208,3359836,3200426,3364266,2349,2498,1458,-4889,2543,727,-1560,5109,40,62,887
1155963,3197336,3360172,3200623,3364463,2480,2563,1665,-4593,2585,599,-1762,4956,40,62,887
1156965,3197468,3360556,3200820,3364660,2485,2182,1877,-4277,2618,783,-1618,4877,40,70,892
1157965,3197592,3360932,3201017,3364857,2567,2153,2104,-3932,2639,1016,-1629,4740,40,70,892
1158966,3197716,3361316,3201214,3365054,2600,2022,2328,-3602,2658,1138,-1650,4647,38,75,890
1159967,3197888,3361620,3201411,3365251,2312,2476,2544,-3201,2695,1132,-1736,4707,38,75,890
1160969,3198068,3361980,3201608,3365448,2269,2056,2750,-2798,2744,1111,-1630,4538,26,76,891
1161969,3198248,3362368,3201805,3365645,2278,1797,2946,-2424,2757,1036,-1354,4336,26,76,891
1162971,3198416,3362708,3202002,3365842,2366,2035,3132,-1992,2760,758,-1546,4441,46,65,892
1163972,3198588,3363056,3202199,3366039,2352,1918,3304,-1479,2797,556,-1705,4514,46,65,892
1164973,3198772,3363428,3202396,3366236,2284,1692,3454,-962,2876,697,-1393,4397,41,75,896
1165973,3198944,3363800,3202593,3366433,2371,1617,3578,-465,2941,891,-795,4219,41,75,896
1166974,3199140,3364120,3202790,3366630,2222,1888,3713,-59,2947,1201,-210,3512,50,77,895
1167975,3199372,3364468,3202987,3366827,1982,1647,3858,248,2935,1463,-61,3172,50,77,895
1168977,3199588,3364836,3203184,3367024,2075,1447,4011,525,2965,1493,88,2970,39,69,897
1169977,3199792,3365256,3203381,3367221,2147,1024,4150,782,3048,1316,92,2896,39,69,897
1170979,3200008,3365572,3203578,3367418,2064,1623,4256,1172,3142,1015,7,2926,34,68,897
1171979,3200220,3365944,3203775,3367615,2084,1196,4355,1412,3224,893,230,2363,34,68,897
1172981,3200432,3366320,3203972,3367812,2078,1092,4454,1593,3278,1214,500,2113,33,73,899
1173988,3200668,3366684,3204202,3368042,1926,1109,4514,1809,3287,1511,551,2065,33,73,899
1174983,3200896,3367048,3204399,3368239,1963,1036,4528,2121,3307,1596,310,2072,44,59,900
1175983,3201128,3367416,3204596,3368436,1924,936,4521,2452,3367,1428,145,1932,44,59,900
1176985,3201348,3367768,3204793,3368633,1988,968,4497,2787,3421,1083,5,2043,48,76,902
1177985,3201564,3368128,3204990,3368830,2006,847,4456,3170,3425,923,78,1846,48,76,902
1178987,3201780,3368452,3205187,3369027,1998,1016,4416,3410,3398,1225,153,1297,44,62,903
1179988,3202028,3368784,3205384,3369224,1776,907,4363,3539,3359,1513,58,916,44,62,903
1180988,3202252,3369184,3205581,3369421,1915,393,4290,3688,3313,1466,-207,903,58,54,903
1181989,3202472,3369496,3205778,3369618,1930,892,4190,3913,3256,1224,-426,1009,58,54,903
1182990,3202680,3369804,3205975,3369815,2001,868,4069,4150,3187,907,-538,1066,56,64,903
1183991,3202916,3370056,3206172,3370012,1810,1194,3926,4406,3102,894,-368,1143,56,64,903
1184993,3203136,3370364,3206369,3370209,1900,795,3761,4662,2970,1209,-94,935,38,61,903
1185994,3203380,3370716,3206566,3370406,1731,452,3576,4876,2819,1558,-63,704,38,61,903
1186995,3203636,3370964,3206763,3370603,1631,1080,3403,5074,2667,1507,-152,705,58,52,902
1187996,3203864,3371232,3206960,3370800,1792,924,3235,5264,2508,1334,-392,626,58,52,902
1188997,3204108,3371440,3207157,3370997,1672,1294,3063,5433,2331,1301,-274,390,58,57,906
1189998,3204352,3371752,3207354,3371194,1652,593,2846,5508,2110,1457,313,102,58,57,906
1190999,3204580,3372012,3207551,3371391,1739,891,2526,5508,1787,1591,1030,-17,54,56,903
1191999,3204852,3372292,3207748,3371588,1431,728,2114,5517,1422,1627,1221,103,54,56,903
1193000,3205120,3372512,3207945,3371785,1426,1093,1689,5533,1066,1600,1306,25,55,55,904
1194001,3205360,3372672,3208142,3371982,1582,1484,1273,5699,745,1595,1318,255,55,55,904
1195002,3205584,3372888,3208339,3372179,1671,1126,888,5763,450,1276,1351,-273,58,37,905
1196003,3205804,3373128,3208536,3372376,1687,957,525,5543,50,998,1719,-1139,58,37,905
1197004,3206028,3373372,3208733,3372573,1650,911,93,5141,-476,912,2246,-1258,38,36,902
1198005,3206288,3373604,3208930,3372770,1399,971,-460,4821,-1011,817,2166,-834,38,36,902
1199006,3206540,3373824,3209127,3372967,1424,1035,-1146,4725,-1532,570,1694,-239,38,49,904
1200007,3206796,3373976,3209324,3373164,1374,1480,-1795,4565,-2034,180,1615,-791,38,49,904
1201008,3207008,3374220,3209521,3373361,1643,884,-2349,4123,-2530,115,1641,-1572,38,49,906
1202010,3207264,3374452,3209718,3373558,1343,944,-2845,3442,-2988,158,1474,-2138,38,49,906
1203011,3207496,3374708,3209915,3373755,1478,768,-3328,2775,-3339,-115,1142,-1735,53,38,903
1204012,3207768,3374940,3210112,3373952,1195,902,-3837,2253,-3564,-474,482,-1123,53,38,903
1205013,3208008,3375148,3210309,3374149,1377,1046,-4352,1913,-3706,-721,24,-628,53,48,905
1206013,3208288,3375320,3210506,3374346,1090,1282,-4836,1679,-3782,-856,-186,-437,53,48,905
1207015,3208524,3375480,3210703,3374543,1349,1374,-5234,1321,-3828,-965,-346,-782,40,34,907
1208015,3208764,3375712,3210900,3374740,1305,908,-5548,801,-3852,-1165,-634,-744,40,34,907
1209016,3209056,3375964,3211097,3374937,939,759,-5829,394,-3792,-1399,-1174,-178,40,49,905
1210017,3209288,3376168,3211294,3375134,1299,1055,-6130,136,-3638,-1423,-1678,499,40,49,905
1211019,3209504,3376368,3211491,3375331,1391,1079,-6473,74,-3405,-1447,-1984,1257,40,36,907
1212020,3209728,3376556,3211688,3375528,1330,1158,-6753,-8,-3129,-1607,-2114,1069,40,36,907
1213021,3209952,3376732,3211885,3375725,1318,1242,-6959,-249,-2891,-1674,-2147,1045,44,43,906
1214022,3210184,3376916,3212082,3375922,1253,1198,-7123,-490,-2705,-1796,-2034,1512,44,43,906
1215022,3210420,3377088,3212279,3376119,1211,1283,-7313,-614,-2551,-1768,-1854,2075,48,34,904
1216023,3210624,3377280,3212476,3376316,1408,1160,-7508,-688,-2417,-1637,-1814,2290,48,34,904
1217024,3210788,3377480,3212673,3376513,1674,1109,-7663,-928,-2271,-1480,-1810,2036,29,37,904
1218026,3210976,3377648,3212870,3376710,1528,1321,-7758,-1343,-2125,-1130,-1765,1726,29,37,904
1219027,3211132,3377848,3213067,3376907,1746,1120,-7847,-1985,-1979,-666,-1819,1551,36,35,905
1220027,3211264,3378004,3213264,3377104,1925,1413,-7933,-2621,-1815,-238,-1805,1715,36,35,905
1221029,3211456,3378148,3213461,3377301,1553,1510,-8023,-3291,-1633,285,-1792,1774,26,30,903
1222029,3211588,3378260,3213658,3377498,1956,1748,-8105,-3995,-1440,745,-1716,2044,26,30,903
1223031,3211712,3378368,3213855,3377695,2039,1812,-8176,-4707,-1225,1174,-1714,2335,25,16,900
1224031,3211832,3378484,3214052,3377892,2098,1797,-8210,-5465,-1010,1750,-1501,2332,25,16,900
1225032,3211952,3378604,3214249,3378089,2133,1806,-8216,-6251,-794,2401,-1523,2556,25,31,898
1226033,3212064,3378744,3214446,3378286,2220,1706,-8210,-6915,-564,3080,-1767,2916,25,31,898
1227035,3212172,3378896,3214643,3378483,2284,1651,-7563,-6967,-356,4818,-1948,7013,26,16,896
1228036,3212292,3379028,3214840,3378680,2244,1805,-2287,2895,-706,17124,-3914,32767,26,16,896
1229036,3212440,3379160,3215037,3378877,2091,1832,3980,13083,-1255,12259,-3331,32767,14,21,896
1230038,3212580,3379320,3215234,3379074,2167,1673,5674,13386,-1311,5826,-1079,-1992,14,21,896
1231038,3212756,3379432,3215431,3379271,1951,2011,4524,9282,-861,5922,-2992,-1859,39,17,896
1232039,3212904,3379564,3215628,3379468,2149,1914,2850,5143,-275,5865,-4393,-2951,39,17,896
1233040,3213080,3379672,3215825,3379665,1983,2103,1936,2670,188,5521,-3673,-2201,36,16,896
1234042,3213248,3379784,3216022,3379862,2047,2116,1318,686,510,5179,-3013,-2190,36,16,896
1235043,3213432,3379936,3216219,3380059,1953,1886,633,-967,679,5075,-2349,-1145,44,25,896
1236044,3213596,3380052,3216416,3380256,2093,2146,-152,-2797,777,4485,-1495,-903,44,25,896
1237044,3213820,3380212,3216613,3380453,1707,1887,-981,-3998,826,3896,-1219,1714,41,26,894
1238045,3213960,3380324,3216810,3380650,2257,2225,-1996,-4256,826,3591,-1269,4748,41,26,894
1239046,3214144,3380436,3217007,3380847,1989,2262,-2798,-4470,758,2861,-428,3139,46,27,893
1240047,3214328,3380584,3217204,3381044,1994,2060,-3263,-5023,581,2002,72,2553,46,27,893
1241048,3214516,3380696,3217401,3381241,1974,2322,-3409,-5968,250,1351,658,2070,36,29,893
1242049,3214708,3380828,3217598,3381438,1952,2226,-3426,-6700,-106,717,-58,3113,36,29,893
1243051,3214940,3380972,3217795,3381635,1687,2174,-3426,-6904,-360,248,-906,4216,50,18,894
1244051,3215172,3381084,3217992,3381832,1672,2411,-3447,-6706,-502,-176,-1471,5374,50,18,894
1245052,3215368,3381196,3218189,3382029,1898,2449,-2571,-4809,-416,-1744,-3129,18771,44,37,895
1246053,3215588,3381368,3218386,3382226,1738,2085,51,1146,108,-4580,-5232,32767,44,37,895
1247054,3215836,3381520,3218583,3382423,1542,2229,1828,4578,185,-2710,-315,11853,33,36,895
1248055,3216068,3381652,3218780,3382620,1627,2384,1998,4684,-286,-2336,1216,4417,33,36,895
1249056,3216304,3381780,3218977,3382817,1585,2439,1515,3623,-874,-1844,327,3524,44,33,895
1250057,3216548,3381896,3219174,3383014,1516,2550,1269,2704,-1219,-1411,-1118,2679,44,33,895
1251059,3216784,3382020,3219371,3383211,1548,2532,1258,2095,-991,-811,-2771,2795,40,15,896
1252059,3217056,3382132,3219568,3383408,1291,2644,1279,1568,-826,-723,-2577,1830,40,15,896
1253061,3217308,3382252,3219765,3383605,1392,2629,1351,778,-681,-784,-2543,1457,53,26,895
1254061,3217556,3382396,3219962,3383802,1395,2502,1419,-192,-537,-561,-2443,908,53,26,895
1255063,3217804,3382544,3220159,3383999,1373,2499,1429,-1121,-380,-395,-1945,1070,50,35,894
1256063,3218032,3382660,3220356,3384196,1485,2735,1432,-1981,-98,-374,-2390,957,50,35,894
1257073,3218288,3382812,3220586,3384426,1299,2545,1359,-2761,272,19,-2691,1422,46,36,897
1258065,3218516,3382968,3220783,3384623,1461,2538,1161,-3169,671,217,-2654,2478,46,36,897
1259066,3218760,3383088,3220980,3384820,1341,2797,965,-3498,1069,12,-2720,2106,32,34,893
1260067,3218980,3383252,3221177,3385017,1481,2537,851,-3912,1373,34,-2473,1902,32,34,893
1261068,3219204,3383400,3221374,3385214,1445,2659,793,-4302,1545,-104,-1854,2426,34,31,893
1262069,3219416,3383564,3221571,3385411,1514,2573,768,-4403,1657,9,-1633,3274,34,31,893
1263070,3219628,3383780,3221768,3385608,1507,2241,745,-4273,1797,231,-1730,3599,40,28,895
1264071,3219808,3383964,3221965,3385805,1715,2447,724,-3943,1975,68,-1427,4330,40,28,895
1265072,3220032,3384152,3222162,3386002,1429,2425,686,-3499,2144,49,-1222,4617,37,44,895
1266073,3220224,3384388,3222359,3386199,1632,2109,663,-3143,2246,288,-773,4410,37,44,895
1267075,3220424,3384612,3222556,3386396,1580,2172,678,-2732,2305,303,-410,4587,39,51,895
1268076,3220612,3384852,3222753,3386593,1659,2054,722,-2294,2379,241,-483,4721,39,51,895
1269077,3220800,3385120,3222950,3386790,1664,1848,791,-1842,2438,206,-428,4560,24,56,898
1270077,3220972,3385376,3223147,3386987,1775,1897,872,-1406,2454,269,13,4576,24,56,898
1271079,3221132,3385564,3223344,3387184,1868,2326,963,-1055,2425,571,354,4250,34,49,897
1272080,3221316,3385788,3223541,3387381,1723,2091,1060,-820,2369,835,548,3832,34,49,897
1273081,3221480,3386016,3223738,3387578,1863,2052,1160,-740,2331,989,701,3392,25,45,898
1274081,3221644,3386244,3223935,3387775,1878,2038,1264,-817,2285,1355,576,2906,25,45,898
1275083,3221820,3386452,3224132,3387972,1813,2159,1355,-969,2227,1586,681,2536,42,41,897
1276084,3221992,3386652,3224329,3388169,1850,2208,1424,-1091,2149,1548,865,2441,42,41,897
1277085,3222176,3386856,3224526,3388366,1780,2180,1451,-1366,2017,1525,968,2112,33,38,896
1278086,3222352,3387052,3224723,3388563,1840,2231,1425,-1706,1826,1502,1036,1989,33,38,896
1279087,3222524,3387296,3224920,3388760,1876,1911,1336,-2019,1614,1574,1106,1931,33,36,896
1280088,3222684,3387516,3225117,3388957,1969,2051,1224,-2348,1383,1640,1111,1714,33,36,896
1281088,3222868,3387720,3225314,3389154,1824,2148,1115,-2675,1139,1443,1104,1838,44,49,895
1282089,3223048,3387900,3225511,3389351,1858,2306,1021,-2938,900,1334,982,1852,44,49,895
1283090,3223220,3388100,3225708,3389548,1919,2180,892,-3127,707,1421,631,2107,34,43,895
1284092,3223360,3388344,3225905,3389745,2144,1884,683,-3153,630,1323,-194,2676,34,43,895
1285093,3223540,3388524,3226102,3389942,1902,2292,435,-3063,659,1054,-473,2954,23,43,895
1286093,3223696,3388736,3226299,3390139,2070,2086,201,-2884,743,883,-575,3145,23,43,895
1287094,3223876,3388936,3226496,3390336,1929,2160,54,-2660,854,653,-416,3256,25,37,896
1288095,3224036,3389132,3226693,3390533,2070,2185,-5,-2376,992,466,-551,3443,25,37,896
1289096,3224208,3389348,3226890,3390730,2007,2052,-11,-2062,1171,345,-803,3607,43,46,895
1290097,3224400,3389568,3227087,3390927,1884,2018,20,-1765,1397,242,-935,3665,43,46,895
1291099,3224600,3389768,3227284,3391124,1834,2141,71,-1433,1649,213,-888,3773,48,46,895
1292100,3224768,3389972,3227481,3391321,2047,2113,116,-1054,1893,110,-692,3949,48,46,895
1293100,3224940,3390176,3227678,3391518,2034,2111,171,-622,2108,-82,-417,3836,46,45,895
1294101,3225116,3390364,3227875,3391715,2018,2215,235,-255,2302,-159,-219,3773,46,45,895
1295102,3225280,3390588,3228072,3391912,2108,1978,274,73,2498,-92,-183,3750,43,41,895
1296104,3225440,3390764,3228269,3392109,2151,2288,283,327,2722,-101,-288,3674,43,41,895
1297104,3225608,3390992,3228466,3392306,2113,1950,286,589,2955,-181,-314,3588,38,35,895
1298105,3225776,3391252,3228663,3392503,2127,1722,284,760,3110,-369,169,3449,38,35,895
1299107,3225960,3391500,3228860,3392700,2033,1775,257,961,3183,-431,339,3629,32,48,894
1300108,3226152,3391752,3229057,3392897,1986,1726,217,1167,3196,-461,414,3642,32,48,894
1301109,3226312,3392016,3229254,3393094,2202,1621,166,1390,3177,-499,356,3566,27,58,897
1302110,3226460,3392268,3229451,3393291,2300,1673,92,1575,3174,-513,-23,3577,27,58,897
1303111,3226628,3392560,3229648,3393488,2188,1381,13,1674,3199,-379,-564,3385,22,63,897
1304111,3226768,3392848,3229845,3393685,2389,1366,-57,1675,3193,-431,-456,3151,22,63,897
1305112,3226900,3393188,3230042,3393882,2468,978,-143,1661,3113,-404,55,3080,36,51,895
1306113,3227068,3393476,3230239,3394079,2256,1263,-260,1537,3000,-219,388,2942,36,51,895
1307115,3227200,3393668,3230436,3394276,2511,1866,-225,1714,2916,185,453,5100,34,54,897
1308116,3227332,3393836,3230633,3394473,2539,2029,639,3714,2811,1675,690,20627,34,54,897
1309116,3227532,3394008,3230830,3394670,2114,2015,1627,5597,2719,1026,590,11784,46,43,899
1310118,3227720,3394184,3231027,3394867,2194,2000,1806,5770,2668,336,602,2360,46,43,899
1311118,3227900,3394380,3231224,3395064,2251,1875,1489,4802,2582,422,1044,1229,32,40,892
1312120,3228052,3394624,3231421,3395261,2447,1554,1097,3730,2377,524,1381,1073,32,40,892
1313120,3228240,3394844,3231618,3395458,2227,1694,809,2995,2146,317,1383,1365,30,49,895
1314121,3228396,3395008,3231815,3395655,2445,2059,564,2454,1968,239,1015,1546,30,49,895
1315122,3228560,3395268,3232012,3395852,2410,1431,286,2066,1825,89,1028,1803,32,50,895
1316124,3228704,3395564,3232209,3396049,2559,1164,8,1454,1677,-490,1379,1350,32,50,895
1317125,3228876,3395864,3232406,3396246,2396,1093,-245,808,1484,-631,1429,1569,36,67,893
1318126,3229008,3396116,3232603,3396443,2675,1369,-226,725,1353,-884,814,5765,36,67,893
1319127,3229188,3396340,3232800,3396640,2384,1532,445,2366,1436,-1286,-336,18109,43,56,897
1320127,3229316,3396612,3232997,3396837,2739,1199,923,3649,1454,-1008,730,7357,43,56,897
1321129,3229448,3396852,3233194,3397034,2744,1380,751,3659,1297,-1123,1486,2980,32,40,895
1322129,3229584,3397092,3233391,3397231,2746,1362,211,3203,1040,-1213,1622,3235,32,40,895
1323131,3229724,3397300,3233588,3397428,2747,1557,-360,2875,813,-1155,1165,3269,40,48,895
1324132,3229876,3397520,3233785,3397625,2692,1472,-838,2723,668,-1413,1172,3112,40,48,895
1325132,3230040,3397768,3233982,3397822,2633,1274,-1257,2598,559,-1442,1023,2981,46,41,893
1326133,3230208,3398024,3234179,3398019,2622,1198,-1607,2256,434,-1387,992,2448,46,41,893
1327134,3230352,3398292,3234376,3398216,2795,1092,-1854,1865,313,-1393,849,2903,46,43,893
1328135,3230528,3398564,3234573,3398413,2605,1034,-1578,2255,207,-629,419,10027,46,43,893
1329136,3230688,3398836,3234770,3398610,2722,1001,-702,3624,121,169,-53,16221,45,50,897
1330137,3230856,3399108,3234967,3398807,2686,968,-160,4009,77,-549,223,4217,45,50,897
1331138,3231036,3399392,3235164,3399004,2619,855,-167,3195,71,-509,426,1364,40,61,897
1332139,3231216,3399672,3235361,3399201,2627,844,-367,2006,119,-180,294,1314,40,61,897
1333141,3231408,3399924,3235558,3399398,2555,994,-522,1109,233,13,194,1826,49,53,897
1334141,3231576,3400116,3235755,3399595,2719,1372,-600,520,351,110,303,2158,49,53,897
1335143,3231780,3400276,3235952,3399792,2492,1587,-680,135,400,44,437,2774,34,49,898
1336143,3231960,3400484,3236149,3399989,2649,1282,-793,-100,409,-171,218,3299,34,49,898
1337144,3232148,3400696,3236346,3400186,2604,1250,-928,-160,374,-426,-114,4202,38,46,894
1338145,3232344,3400896,3236543,3400383,2556,1324,-846,419,287,-664,-178,8842,38,46,894
1339147,3232516,3401112,3236740,3400580,2718,1216,-567,1663,127,-1063,15,11721,48,45,895
1340154,3232684,3401328,3236970,3400810,2771,1222,-538,2461,-154,-1675,358,6075,48,45,895
1341149,3232860,3401516,3237167,3401007,2730,1401,-815,2674,-519,-1928,504,4892,28,36,896
1342150,3233036,3401668,3237364,3401204,2740,1646,-1190,2683,-901,-1903,365,4635,28,36,896
1343151,3233208,3401880,3237561,3401401,2777,1264,-1505,2624,-1242,-1849,-52,4042,25,35,895
1344151,3233388,3402124,3237758,3401598,2736,1043,-1705,2398,-1571,-1820,-170,3385,25,35,895
1345152,3233560,3402324,3237955,3401795,2798,1316,-1711,2077,-1888,-1564,-460,3650,45,33,893
1346153,3233752,3402508,3238152,3401992,2676,1422,-1309,2365,-2049,-1416,-2003,9876,45,33,893
1347155,3233968,3402672,3238349,3402189,2518,1561,-781,2954,-2044,-1184,-2618,9229,48,38,895
1348155,3234148,3402828,3238546,3402386,2751,1629,-632,2808,-2025,-995,-2045,3400,48,38,895
1349157,3234344,3402984,3238743,3402583,2653,1647,-729,2013,-2046,-931,-2016,2444,32,32,893
1350157,3234532,3403132,3238940,3402780,2708,1719,-760,1044,-2090,-882,-1996,2716,32,32,893
1351159,3234708,3403260,3239137,3402977,2793,1874,-533,436,-2091,-1127,-2146,5102,43,32,893
1352159,3234900,3403388,3239334,3403174,2696,1904,-127,181,-2015,-1263,-1890,6534,43,32,893
1353161,3235092,3403516,3239531,3403371,2698,1935,156,-189,-1937,-867,-1426,4241,41,33,893
