"Data file recorded 2014/9/24  16:51:25"
"%  Right Stride Frequency         = 13.0"
"%  Left Stride Frequency         = 13.0"
"%  Phase (Fractional)         = 32768.0"
"%  Experiment.py "
"%  Motor Gains    = [1800, 200, 100, 0, 0, 1800, 200, 100, 0, 0]
"% Columns: "
"% time | Right Leg Pos | Left Leg Pos | Commanded Right Leg Pos | Commanded Left Leg Pos | DCR | DCL | GyroX | GryoY | GryoZ | AX | AY | AZ | RBEMF | LBEMF | VBatt "
11900,21150512,20352628,21129266,20375602,-3800,3800,-414,-463,593,461,-297,4090,2,-7,837
12901,21150536,20352632,21130128,20376464,-3800,3800,-416,-463,592,469,-283,4081,3,-9,837
13902,21150480,20352692,21130990,20377326,-3800,3800,-419,-465,591,462,-299,4075,3,-9,837
14903,21150392,20352872,21131852,20378188,-3800,3800,-413,-478,591,492,-306,4032,-38,17,804
15904,21150188,20353128,21132714,20379050,-3800,3800,-395,-469,599,522,-338,4097,-38,17,804
16905,21149884,20353408,21133576,20379912,-3800,3800,-365,-455,625,521,-740,4161,-66,37,806
17893,21149472,20353752,21134438,20380774,-3279,3800,-315,-413,633,603,-607,4055,-66,37,806
18894,21149020,20354164,21135300,20381636,-2455,3800,-256,-386,618,849,-546,4049,-70,62,807
19895,21148648,20354556,21136162,20382498,-2416,3800,-227,-400,621,1193,-865,4047,-70,62,807
20896,21148084,20354976,21137024,20383360,-591,3800,-193,-430,626,1393,-565,3990,-100,70,813
21897,21147628,20355460,21137886,20384222,-689,3800,-150,-454,563,1645,91,3743,-100,70,813
22898,21147124,20355912,21138748,20385084,210,3800,-133,-568,441,2401,77,3463,-87,71,820
23899,21146668,20356336,21139610,20385946,487,3800,-178,-675,286,3267,193,3360,-87,71,820
24900,21146192,20356804,21140472,20386808,1199,3800,-237,-703,107,3333,216,3525,-96,76,819
25900,21145800,20357292,21141334,20387670,1224,3800,-274,-488,-81,2772,-13,4008,-96,76,819
26902,21145484,20357728,21142196,20388532,1266,3800,-314,-375,-249,2294,-444,4028,-57,94,817
27903,21145180,20358208,21143058,20389394,1702,3800,-392,-76,-394,2496,-712,4653,-57,94,817
28904,21144984,20358668,21143920,20390256,1492,3800,-486,328,-531,2591,-417,4410,-42,92,818
29905,21144880,20359172,21144782,20391118,1341,3800,-525,655,-638,2342,-456,4119,-42,92,818
30906,21144840,20359688,21145644,20391980,1338,3800,-539,791,-704,2118,-665,3720,2,92,818
31907,21144868,20360200,21146506,20392842,1279,3800,-515,733,-726,2026,-404,3318,2,92,818
32927,21144920,20360716,21144788,20391124,3800,3800,-517,735,-737,1870,158,3357,8,98,819
33921,21145020,20361272,21145650,20391986,3800,3800,-531,673,-801,1371,613,2948,8,98,819
34923,21145148,20361748,21146512,20392848,3800,3800,-503,594,-898,897,690,3258,34,112,808
35923,21145476,20362312,21147374,20393710,3800,3800,-435,693,-930,822,-552,3750,34,112,808
36924,21145864,20362824,21148236,20394572,3800,3800,-330,836,-963,751,-661,3345,60,96,807
37912,21146308,20363428,21149098,20395434,3799,3800,-266,863,-1096,40,821,3039,60,96,807
38926,21146776,20363968,21149960,20396296,3800,3800,-292,622,-1283,-717,1443,2474,92,97,810
39914,21147340,20364452,21150822,20397158,3355,3800,-429,284,-1392,-957,583,2519,92,97,810
40915,21147904,20364980,21151684,20398020,3486,3800,-615,69,-1311,-1306,-429,2665,128,105,810
41929,21148440,20365512,21152546,20398882,3800,3800,-768,-212,-1077,-1547,-1147,2491,128,105,810
42917,21149176,20366032,21153408,20399744,2611,3800,-864,-522,-765,-1371,-1517,2482,141,124,813
43919,21149892,20366680,21154270,20400606,2801,3800,-921,-852,-413,-1413,-1390,2559,141,124,813
44920,21150576,20367368,21155132,20401468,3080,3800,-950,-1029,-40,-1591,-2082,2891,143,140,816
45921,21151236,20367896,21155994,20402330,3319,3800,-929,-1208,376,-2214,-2588,3133,143,140,816
46922,21151980,20368528,21156856,20403192,2847,3800,-854,-1355,906,-2744,-2942,3890,157,116,814
47923,21152696,20369056,21157718,20404054,3087,3800,-738,-1239,1560,-3250,-3314,4661,157,116,814
48924,21153368,20369856,21158580,20404916,3447,3800,-645,-1059,2289,-4116,-3080,4854,156,155,815
49925,21154100,20370576,21159442,20405778,3130,3800,-514,-892,3095,-4363,-2588,5173,156,155,815
50939,21154720,20371336,21160304,20406640,3800,3800,-343,-959,3923,-4019,-1653,4788,145,159,816
51934,21155408,20372180,21161172,20407508,3593,3800,-146,-1105,4722,-3367,-1010,4669,145,159,816
52928,21156100,20372984,21162034,20408370,3643,3800,28,-1424,5458,-2627,-536,4247,158,172,814
53942,21156748,20373864,21162896,20409232,3800,3800,210,-2019,6079,-1674,-339,3884,158,172,814
54943,21157380,20374808,21163758,20410094,3800,3800,394,-2662,6546,-790,208,4045,130,178,815
55944,21158056,20375624,21164620,20410956,3800,3800,597,-3180,6872,-240,447,4311,130,178,815
56945,21158696,20376472,21165482,20411818,3800,3800,768,-3575,7063,189,785,4703,134,159,814
57946,21159308,20377300,21166344,20412680,3800,3800,875,-3898,7148,839,1347,5060,134,159,814
58947,21159972,20378084,21167206,20413542,3800,3800,928,-4094,7165,2080,1650,5598,143,170,813
59948,21160660,20378832,21168068,20414404,3800,3800,972,-3996,7175,3203,1735,6121,143,170,813
60949,21161320,20379480,21168930,20415266,3800,3800,996,-3925,7067,3837,2407,6102,136,139,813
61950,21162084,20380104,21169792,20416128,3800,3800,981,-3801,6739,4006,3140,6053,136,139,813
62951,21162724,20380676,21170654,20416990,3800,3800,886,-3814,6306,3983,2975,5614,149,132,812
63952,21163476,20381164,21171516,20417852,3800,3800,676,-3639,5737,3753,3899,6066,149,132,812
64953,21164216,20381668,21172378,20418714,3800,3800,381,-3394,5014,3298,3873,6212,156,102,811
65954,21164952,20382072,21173240,20419576,3800,3800,88,-3146,4228,2931,2865,6524,156,102,811
66955,21165696,20382432,21174102,20420438,3800,3800,-313,-2511,3416,3071,1715,7804,154,96,811
67956,21166392,20382772,21174964,20421300,3800,3800,-807,-2063,2604,3395,878,6317,154,96,811
68957,21167220,20383036,21175826,20422162,3800,3800,-1328,-2020,1610,3423,946,5184,145,72,810
69958,21167972,20383252,21176688,20423024,3800,3800,-1826,-2328,460,4318,1550,4104,145,72,810
70966,21168780,20383436,21177556,20423892,3800,3800,-2495,-2205,-696,5174,1403,6173,171,53,809
71947,21169668,20383596,21178418,20424754,3684,3800,-3350,-1375,-1657,5701,632,7270,171,53,809
72961,21170476,20383724,21179280,20425616,3800,3800,-4090,-783,-2426,5294,1268,5431,155,35,809
73962,21171344,20383824,21180142,20426478,3800,3800,-4535,-707,-3206,4526,1773,4164,155,35,809
74950,21172308,20383900,21181004,20427340,3190,3800,-4694,-1162,-4116,3811,1734,2813,169,20,809
75951,21173224,20383968,21181866,20428202,3467,3800,-4647,-1969,-5104,3271,1211,1577,169,20,809
76953,21174160,20383984,21182728,20429064,3312,3800,-4438,-2941,-5831,3119,-757,1033,170,21,810
77954,21175128,20384024,21183590,20429926,3067,3800,-4276,-3691,-6042,3467,-2901,1803,170,21,810
78954,21176124,20384076,21184452,20430788,2834,3800,-4189,-4028,-5916,3590,-2621,2290,157,23,810
79956,21177012,20384136,21185314,20431650,3500,3800,-4064,-4310,-5779,3357,-2148,2032,157,23,810
80956,21178048,20384204,21186176,20432512,2499,3800,-3928,-4389,-5707,2658,-2113,2600,176,29,811
81957,21178928,20384292,21187038,20433374,3468,3800,-3768,-4320,-5633,1347,-1813,3205,176,29,811
82958,21179868,20384376,21187900,20434236,3061,3800,-3533,-4242,-5625,187,-1267,3104,174,34,812
83959,21180788,20384488,21188762,20435098,3162,3800,-3439,-3753,-5564,-493,-1670,4884,174,34,812
84960,21181628,20384600,21189624,20435960,3673,3800,-3382,-2760,-5304,-1344,-1634,5654,173,29,811
85974,21182408,20384764,21190486,20436822,3800,3800,-3287,-1762,-4955,-1875,-1128,5534,173,29,811
86962,21183284,20384964,21191348,20437684,3481,3800,-3065,-759,-4469,-2512,-1626,5633,163,50,810
87976,21184024,20385156,21192210,20438546,3800,3800,-2715,44,-3755,-2888,-1862,5164,163,50,810
88977,21184688,20385376,21193072,20439408,3800,3800,-2296,568,-3052,-2664,-1460,3993,152,55,809
89987,21185388,20385604,21193940,20440276,3800,3800,-1487,1059,-2397,-3047,-1709,7321,152,55,809
90979,21186148,20385852,21194802,20441138,3800,3800,630,4322,-1556,-4330,-4075,31504,157,66,809
91979,21186792,20386064,21195664,20442000,3800,3800,2630,6837,-861,-3180,-1509,13540,157,66,809
92981,21187428,20386336,21196526,20442862,3800,3800,3267,7039,-432,-1854,1079,2327,133,69,808
93982,21188056,20386612,21197388,20443724,3800,3800,3180,6249,194,-766,165,2376,133,69,808
94983,21188644,20386860,21198250,20444586,3800,3800,3149,5715,1020,-5,-753,2779,138,69,809
95984,21189228,20387104,21199112,20445448,3800,3800,3327,5758,2010,382,-1181,3454,138,69,809
96985,21189848,20387360,21199974,20446310,3800,3800,3592,5844,2920,643,-953,2897,129,61,808
97986,21190380,20387616,21200836,20447172,3800,3800,3759,5693,3529,731,-577,2420,129,61,808
98987,21190948,20387828,21201698,20448034,3800,3800,3866,5371,4004,519,-732,2579,117,54,807
99988,21191568,20388032,21202560,20448896,3800,3800,3878,5304,4402,694,-1075,3576,117,54,807
100989,21192100,20388236,21203422,20449758,3800,3800,3736,5489,4662,629,-808,4167,122,54,807
101990,21192668,20388408,21204284,20450620,3800,3800,3500,5896,4830,609,-183,4865,122,54,807
102991,21193304,20388576,21205146,20451482,3800,3800,3149,6446,4823,1012,294,5436,134,46,806
103992,21193872,20388728,21206008,20452344,3800,3800,2813,7024,4716,1321,739,5530,134,46,806
104993,21194456,20388888,21206870,20453206,3800,3800,2504,7698,4569,1379,1326,6139,113,40,805
105994,21195076,20389016,21207732,20454068,3800,3800,2165,8336,4301,1527,2046,5772,113,40,805
106995,21195716,20389160,21208594,20454930,3800,3800,1718,8807,3910,1605,2793,5617,131,28,807
107995,21196324,20389304,21209456,20455792,3800,3800,1193,9312,3420,1570,3597,5534,131,28,807
109004,21196940,20389420,21210324,20456660,3800,3800,628,9491,2700,1488,5175,4656,132,27,807
109998,21197624,20389564,21211186,20457522,3800,3800,64,9221,1719,1492,6199,3256,132,27,807
110999,21198296,20389676,21212048,20458384,3800,3800,-429,8419,709,1317,5746,1687,130,31,806
112000,21198952,20389788,21212910,20459246,3800,3800,-862,7219,-238,1217,5633,661,130,31,806
113001,21199716,20389948,21213772,20460108,3800,3800,-1310,5983,-1074,1134,5117,1020,148,28,806
114002,21200440,20390092,21214634,20460970,3800,3800,-1803,4883,-1833,706,4517,1379,148,28,806
115003,21201168,20390256,21215496,20461832,3800,3800,-2222,3676,-2543,503,3796,576,139,41,807
116004,21201992,20390432,21216358,20462694,3800,3800,-2510,2141,-3172,455,3507,-334,139,41,807
117005,21202756,20390588,21217220,20463556,3800,3800,-2670,381,-3611,274,2937,-614,159,47,808
118006,21203580,20390764,21218082,20464418,3800,3800,-2733,-1462,-3883,169,2339,-818,159,47,808
119007,21204456,20390988,21218944,20465280,3800,3800,-2711,-3210,-4005,-168,1828,-597,170,52,807
120008,21205348,20391220,21219806,20466142,3800,3800,-2518,-4893,-3964,-769,982,670,170,52,807
121009,21206268,20391456,21220668,20467004,3800,3800,-1121,-6142,-3551,-3309,-2215,14462,178,52,810
122010,21207260,20391728,21221530,20467866,3800,3800,1041,-6694,-2848,-4223,-2517,18976,178,52,810
123011,21208220,20392004,21222392,20468728,3800,3800,1864,-7259,-2378,-2506,-40,4902,185,57,810
124012,21209220,20392272,21223254,20469590,3800,3800,1401,-7983,-2137,-2410,-772,3133,185,57,810
125013,21210308,20392588,21224116,20470452,3800,3800,587,-8382,-1914,-3162,-2165,4425,198,73,810
126014,21211300,20392892,21224978,20471314,3800,3800,-98,-8360,-1636,-3967,-2811,5546,198,73,810
127015,21212320,20393272,21225840,20472176,3800,3800,-532,-7946,-1359,-4644,-3173,6076,182,72,811
128023,21213436,20393664,21226708,20473044,3800,3800,-768,-7652,-1088,-5359,-3276,5485,182,72,811
129017,21214468,20394064,21227570,20473906,3800,3800,-949,-7493,-721,-5888,-3986,5279,209,95,812
130018,21215488,20394484,21228432,20474768,3800,3800,-1159,-7323,-245,-6148,-4990,5491,209,95,812
131019,21216400,20395020,21229294,20475630,3800,3800,-1306,-7124,293,-6559,-5343,5187,190,94,813
132020,21217456,20395512,21230156,20476492,3800,3800,-1318,-7141,789,-7044,-5012,4197,190,94,813
133021,21218420,20396064,21231018,20477354,3800,3800,-1201,-7413,1236,-7177,-4782,3465,213,108,814
134022,21219320,20396612,21231880,20478216,3800,3800,-1044,-7668,1685,-7148,-4921,3930,213,108,814
135023,21220260,20397128,21232742,20479078,3800,3800,-937,-7731,2145,-7316,-4493,4413,186,112,813
136024,21221124,20397808,21233604,20479940,3800,3800,-879,-7675,2617,-7482,-4285,4620,186,112,813
137025,21221972,20398428,21234466,20480802,3800,3800,-803,-7875,3114,-7156,-4415,3766,182,126,813
138026,21222872,20399104,21235328,20481664,3800,3800,-654,-8247,3644,-6176,-4104,3041,182,126,813
139027,21223676,20399792,21236190,20482526,3800,3800,-499,-8831,4182,-4642,-3688,2436,161,136,814
140028,21224480,20400552,21237052,20483388,3800,3800,-322,-9696,4684,-2751,-3514,1503,161,136,814
141029,21225400,20401252,21237914,20484250,3800,3800,-57,-10721,5194,-962,-3762,745,174,154,813
142030,21226192,20402128,21238776,20485112,3800,3800,307,-11851,5703,533,-4135,144,174,154,813
143031,21226980,20402936,21239638,20485974,3800,3800,808,-13007,6191,1769,-4542,35,166,172,814
144032,21227892,20403760,21240500,20486836,3800,3800,1381,-14014,6644,2822,-4635,602,166,172,814
145033,21228648,20404692,21241362,20487698,3800,3800,1970,-14698,6999,3652,-3515,1208,167,167,815
146034,21229496,20405636,21242224,20488560,3800,3800,2407,-15045,7234,4176,-2524,1946,167,167,815
147042,21230356,20406648,21243092,20489428,3800,3800,2733,-15123,7304,4194,-2017,2601,182,185,814
148036,21231216,20407644,21243954,20490290,3800,3800,3082,-14925,7197,4053,-1741,3113,182,185,814
149037,21232036,20408656,21244816,20491152,3800,3800,3417,-14386,6946,4251,-1147,3999,188,204,815
150038,21233052,20409620,21245678,20492014,3800,3800,3653,-13282,6616,4584,-792,5553,188,204,815
151039,21233948,20410688,21246540,20492876,3800,3800,3823,-11543,6363,4558,-1409,7032,184,204,817
152040,21234888,20411800,21247402,20493738,3800,3800,4039,-9517,6258,3951,-2394,7227,184,204,817
153041,21235860,20412944,21248264,20494600,3800,3800,4341,-7450,6209,3359,-2621,7087,166,207,817
154042,21236872,20414072,21249126,20495462,3800,3800,4702,-5537,6113,3071,-2504,6179,166,207,817
155043,21237868,20415120,21249988,20496324,3800,3800,5113,-3980,5923,3298,-2614,4740,183,218,817
156044,21238872,20416200,21250850,20497186,3800,3800,5543,-2832,5664,3807,-2871,3310,183,218,817
157045,21239940,20417364,21251712,20498048,3800,3800,5986,-1921,5432,4438,-3438,2566,194,220,817
158046,21240988,20418516,21252574,20498910,3800,3800,6374,-899,5269,5248,-4023,2865,194,220,817
159047,21242056,20419532,21253436,20499772,3800,3800,6637,555,5245,6222,-4706,3829,203,220,818
160035,21243240,20420588,21254298,20500634,3043,3800,6809,2242,5275,6893,-5096,3937,203,220,818
161049,21244192,20421596,21255160,20501496,3800,3800,7039,3861,5158,7252,-4887,3087,198,209,819
162050,21245204,20422592,21256022,20502358,3800,3800,7308,5129,4839,7265,-4766,2130,198,209,819
163038,21246312,20423440,21256884,20503220,3310,3800,7605,6135,4449,7261,-4743,1353,198,198,819
164052,21247272,20424452,21257746,20504082,3800,3800,7824,7014,4119,7748,-4681,1159,198,198,819
165053,21248244,20425432,21258608,20504944,3800,3800,7892,7953,3833,8324,-4170,804,194,197,819
166050,21249336,20426280,21259476,20505812,3227,3800,7946,8611,3447,8236,-3194,-823,194,197,819
167055,21250172,20427220,21260338,20506674,3800,3800,8103,8817,3058,8288,-2977,-2163,211,205,817
168056,21251052,20428168,21261200,20507536,3800,3800,8335,8472,2676,8171,-2119,-3620,211,205,817
169057,21252012,20429176,21262062,20508398,3800,3800,8647,7685,2246,7812,-882,-4936,206,204,817
170057,21252892,20430048,21262924,20509260,3800,3800,8916,6742,1754,7527,-38,-5557,206,204,817
171058,21253716,20430980,21263786,20510122,3800,3800,9071,5789,1153,6570,-167,-5862,202,182,816
172059,21254560,20431880,21264648,20510984,3800,3800,8918,5153,298,5559,649,-4147,202,182,816
173060,21255444,20432840,21265510,20511846,3800,3800,8041,6327,-455,6336,942,2007,197,192,817
174062,21256196,20433604,21266372,20512708,3800,3800,7048,7928,-1037,5334,1521,-252,197,192,817
175063,21256896,20434588,21267234,20513570,3800,3800,6411,8673,-1823,4042,3350,-3133,163,156,814
176064,21257604,20435524,21268096,20514432,3800,3800,5935,8677,-2563,4117,3139,-3124,163,156,814
177065,21258224,20436396,21268958,20515294,3800,3800,5359,8496,-3133,4508,2688,-3327,151,187,814
178066,21258780,20437400,21269820,20516156,3800,3800,4577,8633,-3688,4166,4620,-2376,151,187,814
179067,21259336,20438320,21270682,20517018,3800,3800,3663,9405,-4321,4324,5771,9,116,190,814
180068,21259780,20439424,21271544,20517880,3800,3800,2630,10309,-4988,5046,6206,-40,116,190,814
181069,21260204,20440496,21272406,20518742,3800,3800,1793,10572,-5642,5399,7374,-2420,93,210,813
182070,21260640,20441604,21273268,20519604,3800,3800,1020,10470,-6309,6267,7970,-2235,93,210,813
183071,21261020,20442708,21274130,20520466,3800,3800,48,10491,-6782,6388,6398,-534,81,211,814
184072,21261428,20443760,21274992,20521328,3800,3800,-856,10469,-6890,6282,5237,-1300,81,211,814
185080,21261832,20444852,21275860,20522196,3800,3800,-1489,9843,-6829,6487,4225,-3241,72,209,813
186074,21262244,20445756,21276722,20523058,3800,3800,-1907,8859,-6736,6239,3962,-3574,72,209,813
187075,21262692,20446532,21277584,20523920,3800,3800,-2321,7891,-6629,5617,3607,-2816,85,169,813
188076,21263172,20447268,21278446,20524782,3800,3800,-2928,7525,-6522,5014,3683,-533,85,169,813
189077,21263640,20447924,21279308,20525644,3800,3800,-3918,8430,-6574,4265,4620,3434,86,136,811
190078,21264160,20448488,21280170,20526506,3800,3800,-5083,9677,-6974,2520,5043,2431,86,136,811
191079,21264680,20449008,21281032,20527368,3800,3800,-6136,10165,-7617,1308,5281,524,101,108,808
192080,21265260,20449472,21281894,20528230,3800,3800,-7088,10126,-8414,783,5972,146,101,108,808
193081,21265820,20449872,21282756,20529092,3800,3800,-8228,10172,-9345,920,6322,897,115,84,808
194082,21266440,20450220,21283618,20529954,3800,3800,-9455,10246,-10404,811,6141,210,115,84,808
195083,21267108,20450572,21284480,20530816,3800,3800,-10577,10405,-11508,-467,4941,1223,133,86,809
196084,21267768,20450896,21285342,20531678,3800,3800,-11579,10637,-12686,-2153,4349,1695,133,86,809
197085,21268436,20451180,21286204,20532540,3800,3800,-12504,10935,-13845,-2991,3553,2003,122,75,809
198086,21269192,20451432,21287066,20533402,3800,3800,-13315,11578,-14787,-3291,2251,2857,122,75,809
199087,21269908,20451688,21287928,20534264,3800,3800,-13859,12256,-15433,-4219,721,2670,128,72,809
200088,21270640,20451964,21288790,20535126,3800,3800,-14199,12444,-15798,-5740,-1182,2118,128,72,809
201089,21271512,20452256,21289652,20535988,3800,3800,-14402,12195,-15830,-7077,-2525,1845,164,76,809
202090,21272332,20452576,21290514,20536850,3800,3800,-14475,11809,-15479,-7889,-3974,1686,164,76,809
203091,21273168,20452912,21291376,20537712,3800,3800,-14322,9944,-14233,-17237,-4850,-750,169,82,809
204098,21274152,20453264,21292244,20538580,3800,3800,-13362,1852,-11308,-32768,-5386,-8469,169,82,809
205093,21275060,20453632,21293106,20539442,3800,3800,-11456,-11544,-6789,-32768,-7607,-11217,176,81,810
206094,21275972,20453988,21293968,20540304,3800,3800,-2152,-24232,-2597,-31931,-25060,32767,176,81,810
207095,21276964,20454440,21294830,20541166,3800,3800,6893,-27971,-489,-12379,-20392,32767,169,93,811
208096,21277848,20454852,21295692,20542028,3800,3800,8286,-23631,482,-6408,-9456,15488,169,93,811
209097,21278852,20455268,21296554,20542890,3800,3800,5872,-19263,1323,-8080,-7421,9484,176,95,811
210098,21279912,20455672,21297416,20543752,3800,3800,4060,-18039,2040,-7509,-5876,6904,176,95,811
211099,21280860,20456144,21298278,20544614,3800,3800,3431,-17624,2574,-7629,-5199,7986,180,105,812
212100,21281788,20456600,21299140,20545476,3800,3800,3076,-17053,3146,-7665,-5123,7861,180,105,812
213101,21282652,20457108,21300002,20546338,3800,3800,2513,-15528,3720,-6568,-5016,9598,179,103,813
214102,21283644,20457588,21300864,20547200,3800,3800,1650,-13743,4335,-6330,-4135,9844,179,103,813
215103,21284504,20458044,21301726,20548062,3800,3800,784,-12152,5042,-6088,-3430,8553,178,90,812
216104,21285316,20458460,21302588,20548924,3800,3800,304,-12144,5484,-6203,-2097,3641,178,90,812
217105,21286204,20458948,21303450,20549786,3800,3800,226,-12733,5769,-5387,-1976,3751,181,90,812
218106,21286952,20459416,21304312,20550648,3800,3800,-33,-13169,6213,-3114,-2170,4488,181,90,812
219107,21287676,20459820,21305174,20551510,3800,3800,-284,-13678,6676,-940,-1992,2827,158,99,811
220107,21288484,20460308,21306036,20552372,3800,3800,-480,-14484,7208,1498,-2081,2297,158,99,811
221109,21289124,20460760,21306898,20553234,3800,3800,-541,-15536,7766,3974,-2025,1143,147,94,810
222110,21289780,20461236,21307760,20554096,3800,3800,-534,-17007,8242,5873,-1710,118,147,94,810
223117,21290472,20461712,21308628,20554964,3800,3800,-316,-18564,8592,6524,-822,-85,136,87,810
224112,21291100,20462224,21309490,20555826,3800,3800,-144,-19987,8879,7397,-465,747,136,87,810
225113,21291712,20462616,21310352,20556688,3800,3800,77,-21018,9134,8100,-649,1635,145,89,809
226114,21292452,20463140,21311214,20557550,3800,3800,340,-21558,9316,8149,-75,2794,145,89,809
227115,21293088,20463596,21312076,20558412,3800,3800,659,-21659,9368,7804,150,3350,136,104,810
228116,21293796,20464120,21312938,20559274,3800,3800,1049,-21441,9226,7331,754,3981,136,104,810
229117,21294564,20464700,21313800,20560136,3800,3800,1444,-20708,8928,6902,1413,6138,144,101,811
230118,21295248,20465220,21314662,20560998,3800,3800,1271,-17810,8392,6829,3431,13894,144,101,811
231119,21296012,20465808,21315524,20561860,3800,3800,1036,-14617,7620,5102,3156,10941,147,111,812
232120,21296848,20466364,21316386,20562722,3800,3800,1255,-12238,6965,3638,-225,8258,147,111,812
233121,21297592,20466952,21317248,20563584,3800,3800,1772,-10689,6696,2789,-2555,7005,163,113,812
234122,21298360,20467636,21318110,20564446,3800,3800,2356,-9113,6408,2630,-1168,7017,163,113,812
235123,21299132,20468264,21318972,20565308,3800,3800,2846,-6976,6132,2395,-1332,8240,161,127,811
236124,21299996,20468960,21319834,20566170,3800,3800,3354,-4398,5944,2113,-1974,8740,161,127,811
237124,21300812,20469688,21320696,20567032,3800,3800,3992,-1452,5903,2208,-2608,9297,167,155,812
238126,21301656,20470432,21321558,20567894,3800,3800,4748,1473,5878,2120,-2399,8807,167,155,812
239126,21302660,20471236,21322420,20568756,3800,3800,5539,4080,5649,2059,-2355,7374,163,158,814
240128,21303612,20472080,21323282,20569618,3800,3800,6332,5858,5195,2187,-2135,4375,163,158,814
241129,21304636,20472928,21324144,20570480,3800,3800,7063,6644,4589,2810,-1522,1733,200,166,815
242139,21305612,20473688,21325012,20571348,3800,3800,7520,6955,3932,4070,-1192,974,200,166,815
243131,21306640,20474608,21325874,20572210,3800,3800,7788,7116,3401,4750,-1521,-268,182,171,815
244132,21307652,20475492,21326736,20573072,3800,3800,8061,6680,2996,5011,-1923,-2546,182,171,815
245133,21308796,20476396,21327598,20573934,3800,3800,8414,5909,2716,5783,-2460,-3176,215,185,815
246134,21309804,20477352,21328460,20574796,3800,3800,8805,5112,2625,6827,-2868,-3381,215,185,815
247135,21310872,20478284,21329322,20575658,3800,3800,9041,4621,2757,8179,-3476,-2608,203,186,816
248136,21311936,20479208,21330184,20576520,3800,3800,9022,4371,3016,8503,-3098,-2355,203,186,816
249137,21312936,20480280,21331046,20577382,3800,3800,9062,3565,3080,6929,-2031,-4909,206,186,817
250138,21313956,20481240,21331908,20578244,3800,3800,9204,2266,2835,6292,-1244,-5619,206,186,817
251139,21314992,20482252,21332770,20579106,3800,3800,9150,1617,2607,6664,-1260,-3110,220,193,818
252140,21315880,20483276,21333632,20579968,3800,3800,8592,2391,2480,6410,-896,747,220,193,818
253141,21316740,20484264,21334494,20580830,3800,3800,7830,3919,2330,5086,-1526,1280,203,205,817
254142,21317676,20485248,21335356,20581692,3800,3800,7381,5296,2403,4648,-2237,623,203,205,817
255143,21318568,20486204,21336218,20582554,3800,3800,7060,6811,2472,4612,-1406,1943,210,200,817
256144,21319396,20487224,21337080,20583416,3800,3800,6561,8875,2531,4906,-1008,3272,210,200,817
257145,21320248,20488168,21337942,20584278,3800,3800,5911,11083,2463,4245,305,2596,192,188,817
258146,21321196,20489020,21338804,20585140,3800,3800,5269,12713,2283,3618,582,964,192,188,817
259146,21322052,20489956,21339666,20586002,3800,3800,4671,14077,1853,3515,1980,518,187,205,817
260147,21322868,20490920,21340528,20586864,3800,3800,4116,15446,1241,3762,3119,251,187,205,817
261156,21323760,20491844,21341396,20587732,3800,3800,3580,16417,517,3745,3952,-1405,175,208,817
262150,21324548,20492872,21342258,20588594,3800,3800,3122,16730,-269,4058,4956,-3179,175,208,817
263151,21325312,20493912,21343120,20589456,3800,3800,2530,16451,-1148,4909,7371,-4452,169,208,816
264151,21326120,20494880,21343982,20590318,3800,3800,1972,15661,-2383,5216,9929,-6275,169,208,816
265153,21326836,20495732,21344844,20591180,3800,3800,1389,14300,-4028,5104,11311,-6803,164,187,816
266154,21327532,20496636,21345706,20592042,3800,3800,684,12887,-5933,5168,12105,-6914,164,187,816
267155,21328324,20497596,21346568,20592904,3800,3800,-84,11328,-7729,5421,10714,-7340,165,172,815
268155,21329040,20498476,21347430,20593766,3800,3800,-774,9665,-9072,5642,8931,-7664,165,172,815
269157,21329756,20499296,21348292,20594628,3800,3800,-1409,7887,-9939,5531,8795,-7390,157,174,813
270158,21330536,20500300,21349154,20595490,3800,3800,-1939,6322,-10470,5419,7054,-6821,157,174,813
271158,21331224,20501208,21350016,20596352,3800,3800,-2501,4899,-10788,5220,4747,-6078,150,194,814
272159,21331972,20502196,21350878,20597214,3800,3800,-3069,3874,-10933,4816,3420,-4950,150,194,814
273161,21332816,20503276,21351740,20598076,3800,3800,-3678,3148,-10876,3904,2883,-3746,153,199,815
274162,21333584,20504352,21352602,20598938,3800,3800,-4212,2914,-10696,2996,2222,-2375,153,199,815
275163,21334364,20505416,21353464,20599800,3800,3800,-4764,3173,-10370,1851,1199,-924,161,216,816
276164,21335168,20506428,21354326,20600662,3800,3800,-5358,3847,-9907,779,249,225,161,216,816
277165,21336124,20507592,21355188,20601524,3800,3800,-5924,4614,-9374,424,-211,491,169,245,816
278166,21337056,20508828,21356050,20602386,3800,3800,-6471,5244,-8851,169,-810,249,169,245,816
279167,21338004,20509952,21356912,20603248,3800,3800,-7005,5647,-8416,-308,-979,-59,167,241,817
280175,21339072,20511104,21357780,20604116,3800,3800,-7332,5884,-8036,-840,-1561,-542,167,241,817
281169,21340116,20512176,21358642,20604978,3800,3800,-7672,6072,-7729,-1525,-1861,-269,195,225,819
282170,21341136,20513240,21359504,20605840,3800,3800,-8063,6403,-7537,-2271,-2604,151,195,225,819
283171,21342252,20514252,21360366,20606702,3800,3800,-8372,6714,-7406,-2974,-3231,-305,205,220,820
284171,21343264,20515332,21361228,20607564,3800,3800,-8510,6830,-7348,-3894,-3613,-823,205,220,820
285173,21344216,20516276,21362090,20608426,3800,3800,-8589,6916,-7306,-4607,-4626,-305,204,199,819
286174,21345372,20517144,21362952,20609288,3800,3800,-8699,7231,-7095,-5213,-5784,691,204,199,819
287175,21346440,20517988,21363814,20610150,3800,3800,-8809,7674,-6736,-6222,-6295,959,204,185,819
288176,21347444,20518852,21364676,20611012,3800,3800,-8860,8193,-6328,-7162,-6945,1538,204,185,819
289177,21348524,20519692,21365538,20611874,3800,3800,-8848,8917,-5829,-8347,-8106,2788,205,168,818
290178,21349516,20520420,21366400,20612736,3800,3800,-8895,9877,-5178,-9479,-9100,4192,205,168,818
291179,21350492,20521060,21367262,20613598,3800,3800,-8979,10869,-4460,-10321,-9312,4293,216,140,815
292180,21351452,20521668,21368124,20614460,3800,3800,-8972,11460,-3774,-11326,-9136,3637,216,140,815
293181,21352324,20522228,21368986,20615322,3800,3800,-8908,11797,-3124,-12071,-9043,3821,179,124,814
294182,21353136,20522808,21369848,20616184,3800,3800,-8922,11963,-2420,-12517,-8680,4281,179,124,814
295183,21353952,20523324,21370710,20617046,3800,3800,-8863,11539,-1686,-12265,-7440,2338,181,98,813
296184,21354716,20523732,21371572,20617908,3800,3800,-8629,9907,-885,-13037,-6502,-452,181,98,813
297185,21355384,20524108,21372434,20618770,3800,3800,-8073,4512,626,-26771,-6851,-5895,156,91,811
298186,21356004,20524460,21373296,20619632,3800,3800,-7333,-4327,2612,-26092,-7247,-8072,156,91,811
299194,21356580,20524784,21374164,20620500,3800,3800,-7071,-12113,4154,-16192,-7625,-4184,122,79,808
300187,21357116,20525080,21375026,20621362,3800,3800,-7209,-16582,5321,-9972,-7394,-368,122,79,808
301189,21357632,20525328,21375888,20622224,3800,3800,-5828,-19239,6320,-2374,-4722,9623,98,68,806
302190,21358104,20525604,21376750,20623086,3800,3800,1288,-23165,6062,9648,1210,32767,98,68,806
303190,21358656,20525868,21377612,20623948,3800,3800,4660,-21532,6183,6986,-1003,32767,96,64,805
304191,21359188,20526104,21378474,20624810,3800,3800,1997,-16338,6831,2991,1899,21662,96,64,805
305192,21359720,20526320,21379336,20625672,3800,3800,-617,-14948,7259,1567,2392,4836,104,52,805
306194,21360268,20526552,21380198,20626534,3800,3800,-1670,-16556,7292,2553,3023,4754,104,52,805
307195,21360796,20526748,21381060,20627396,3800,3800,-2438,-16832,7192,4680,4154,14790,113,40,807
308196,21361488,20526952,21381922,20628258,3800,3800,-3485,-15064,6952,6437,4840,17442,113,40,807
309197,21362040,20527148,21382784,20629120,3800,3800,-3936,-14893,6822,6395,4594,8127,121,46,806
310198,21362652,20527320,21383646,20629982,3800,3800,-3823,-16316,6963,8023,4148,8120,121,46,806
311199,21363288,20527512,21384508,20630844,3800,3800,-3883,-17123,7199,10015,5016,11743,134,35,807
312200,21363928,20527684,21385370,20631706,3800,3800,-4360,-16653,7314,8836,6185,13077,134,35,807
313201,21364568,20527848,21386232,20632568,3800,3800,-4692,-16080,7245,6938,4882,9793,128,51,805
314202,21365268,20528012,21387094,20633430,3800,3800,-4107,-14616,7022,7309,3510,20562,128,51,805
315203,21365928,20528212,21387956,20634292,3800,3800,-2193,-10342,6712,8826,3098,32767,133,43,807
316204,21366604,20528480,21388818,20635154,3800,3800,-909,-8162,6486,4645,3477,10400,133,43,807
317205,21367272,20528744,21389680,20636016,3800,3800,-758,-8204,6138,3127,3710,6576,140,47,807
318215,21368072,20528976,21390548,20636884,3800,3800,-1014,-8601,5546,2553,3218,7443,140,47,807
319207,21368828,20529224,21391410,20637746,3800,3800,-1081,-8430,4912,2359,2218,6945,146,70,808
320208,21369684,20529556,21392272,20638608,3800,3800,-592,-8694,4489,1777,423,2838,146,70,808
321209,21370536,20529892,21393134,20639470,3800,3800,139,-9473,4195,1193,-988,1641,144,75,809
322210,21371412,20530264,21393996,20640332,3800,3800,874,-10497,3660,-330,-622,872,144,75,809
323211,21372276,20530604,21394858,20641194,3800,3800,1490,-11357,2700,-2131,274,1505,159,77,809
324212,21373244,20531044,21395720,20642056,3800,3800,1859,-11556,1415,-2669,801,3115,159,77,809
325213,21374240,20531504,21396582,20642918,3800,3800,2046,-10634,154,-2336,1684,5691,180,92,810
326214,21375128,20531916,21397444,20643780,3800,3800,2099,-9001,-777,-1788,1453,6745,180,92,810
327215,21376160,20532448,21398306,20644642,3800,3800,2323,-7415,-1327,-1948,401,6005,179,90,811
328216,21377056,20533012,21399168,20645504,3800,3800,2680,-5900,-1605,-3126,-1057,6289,179,90,811
329217,21377964,20533492,21400030,20646366,3800,3800,3266,-4500,-1611,-3610,-3388,5688,171,107,813
330218,21378920,20534156,21400892,20647228,3800,3800,3899,-3118,-1340,-3023,-4256,5920,171,107,813
331219,21379816,20534780,21401754,20648090,3800,3800,4601,-1894,-970,-2775,-3166,4172,172,122,812
332220,21380608,20535536,21402616,20648952,3800,3800,5163,-1333,-795,-2491,-2047,2206,172,122,812
333221,21381412,20536316,21403478,20649814,3800,3800,5448,-694,-592,-1629,-2753,3576,183,139,813
334222,21382196,20537180,21404340,20650676,3800,3800,5186,783,-190,-296,-2012,6618,183,139,813
335223,21382944,20537944,21405202,20651538,3800,3800,4770,2595,194,579,-995,5496,166,163,813
336224,21383708,20538840,21406064,20652400,3800,3800,4646,3812,794,1225,-1780,3570,166,163,813
337231,21384440,20539728,21406932,20653268,3800,3800,4865,4541,1575,1296,-1796,2703,174,183,814
338226,21385136,20540680,21407794,20654130,3800,3800,5077,5135,2384,1782,-1698,2731,174,183,814
339227,21385840,20541660,21408656,20654992,3800,3800,5086,5701,3104,2075,-1398,2204,167,191,814
340228,21386572,20542612,21409518,20655854,3800,3800,4888,6093,3636,2230,-1068,1513,167,191,814
341229,21387204,20543504,21410380,20656716,3800,3800,4624,6377,4006,2919,-772,1135,149,196,814
342230,21387868,20544548,21411242,20657578,3800,3800,4281,6628,4275,3127,-743,1346,149,196,814
343231,21388564,20545620,21412104,20658440,3800,3800,3934,6786,4380,3137,-517,808,135,194,815
344232,21389232,20546700,21412966,20659302,3800,3800,3616,6702,4351,3656,-700,-39,135,194,815
345233,21389904,20547708,21413828,20660164,3800,3800,3307,6444,4283,4470,-769,-321,152,199,813
346234,21390604,20548808,21414690,20661026,3800,3800,2919,6338,4270,5278,-1524,506,152,199,813
347235,21391280,20549820,21415552,20661888,3800,3800,2473,6426,4284,5822,-2096,911,143,193,814
348235,21391936,20550780,21416414,20662750,3800,3800,2092,6438,4226,6075,-2231,661,143,193,814
349237,21392688,20551840,21417276,20663612,3800,3800,1825,6398,4018,6633,-1779,636,149,202,815
350238,21393364,20552812,21418138,20664474,3800,3800,1621,6462,3722,7021,-1887,850,149,202,815
351239,21394088,20553752,21419000,20665336,3800,3800,1468,6637,3386,6824,-2236,1154,152,187,815
352240,21394916,20554564,21419862,20666198,3800,3800,1346,6904,3036,6675,-3269,1438,152,187,815
353241,21395708,20555424,21420724,20667060,3800,3800,1295,7311,2703,6325,-3933,1833,164,192,815
354241,21396488,20556376,21421586,20667922,3800,3800,1304,7821,2318,5654,-3863,1846,164,192,815
355243,21397356,20557276,21422448,20668784,3800,3800,1348,8281,1751,4685,-4291,1463,176,189,815
356251,21398216,20558188,21423316,20669652,3800,3800,1282,8911,899,2080,-9289,902,176,189,815
357245,21399096,20559084,21424178,20670514,3800,3800,1236,9529,-29,1418,-6300,1366,188,191,815
358246,21399972,20559972,21425040,20671376,3800,3800,1190,10335,-926,2516,-1600,2107,188,191,815
359247,21400980,20560916,21425902,20672238,3800,3800,1163,10982,-1859,2010,-278,1554,183,190,815
360248,21401948,20561860,21426764,20673100,3800,3800,1197,11335,-3034,1482,1315,296,183,190,815
361249,21402928,20562684,21427626,20673962,3800,3800,1221,11097,-4501,933,2602,-1387,212,189,816
362249,21404080,20563600,21428488,20674824,3800,3800,1284,10351,-6078,234,2837,-3038,212,189,816
363251,21405228,20564468,21429350,20675686,3800,3800,1221,9375,-7405,162,1269,-3021,204,190,817
364252,21406288,20565348,21430212,20676548,3800,3800,1084,8664,-8213,102,-418,-2126,204,190,817
365253,21407492,20566384,21431074,20677410,3800,3800,888,8495,-8467,136,-2415,-586,227,177,817
366254,21408608,20567408,21431936,20678272,3800,3800,665,8607,-8415,45,-3376,-357,227,177,817
367255,21409692,20568424,21432798,20679134,3800,3800,430,8665,-8232,-311,-3723,-254,205,208,817
368256,21410932,20569452,21433660,20679996,3800,3800,297,8459,-8046,-1283,-2609,-1063,205,208,817
369257,21411984,20570436,21434522,20680858,3800,3800,242,7813,-7917,-2626,-1593,-1997,207,227,817
370258,21412980,20571500,21435384,20681720,3800,3800,253,7007,-7767,-4052,-1622,-1988,207,227,817
371259,21414096,20572668,21436246,20682582,3800,3800,310,6264,-7429,-5233,-2090,-1808,234,231,820
372260,21415104,20573840,21437108,20683444,3800,3800,371,5621,-6929,-5913,-2085,-1759,234,231,820
373261,21416120,20574964,21437970,20684306,3800,3800,423,5090,-6349,-6489,-1656,-1577,212,232,820
374262,21417124,20576104,21438832,20685168,3800,3800,458,4578,-5659,-6793,-1275,-1454,212,232,820
375270,21418076,20577196,21439700,20686036,3800,3800,451,3970,-4871,-6979,-865,-1351,213,234,819
376264,21419000,20578344,21440562,20686898,3800,3800,388,3396,-3992,-7628,-488,-861,213,234,819
377265,21419916,20579368,21441424,20687760,3800,3800,236,3072,-3015,-8804,-765,97,210,210,818
378266,21420944,20580356,21442286,20688622,3800,3800,103,2930,-1937,-9789,-878,544,210,210,818
379267,21421780,20581396,21443148,20689484,3800,3800,-48,2959,-763,-10216,-545,1331,174,217,816
380268,21422708,20582476,21444010,20690346,3800,3800,-185,2921,427,-9585,-303,726,174,217,816
381269,21423720,20583476,21444872,20691208,3800,3800,-342,2170,1524,-8334,-13,-918,184,210,818
382270,21424640,20584640,21445734,20692070,3800,3800,-481,730,2514,-6853,858,-2234,184,210,818
383271,21425504,20585700,21446596,20692932,3800,3800,-659,-1171,3361,-5215,2095,-3093,177,212,818
384272,21426424,20586644,21447458,20693794,3800,3800,-936,-3209,4089,-4354,2632,-3155,177,212,818
385273,21427320,20587616,21448320,20694656,3800,3800,-1297,-5104,4820,-4047,2875,-2395,180,208,818
386274,21428192,20588540,21449182,20695518,3800,3800,-1701,-6748,5571,-3064,3047,-1814,180,208,818
387275,21429084,20589408,21450044,20696380,3800,3800,-2141,-8322,6316,-1449,3223,-1682,187,170,816
388276,21429932,20590180,21450906,20697242,3800,3800,-2661,-9760,6993,611,3366,-663,187,170,816
389277,21430820,20590804,21451768,20698104,3800,3800,-3186,-11147,7615,1997,3174,-442,168,142,813
390278,21431700,20591448,21452630,20698966,3800,3800,-3615,-12832,8162,2460,2904,-927,168,142,813
391279,21432556,20591972,21453492,20699828,3800,3800,-3915,-14652,8548,3084,2990,-898,177,113,811
392280,21433388,20592520,21454354,20700690,3800,3800,-4136,-16166,8794,3823,3411,11,177,113,811
393280,21434376,20593052,21455216,20701552,3800,3800,-4699,-16379,8856,4711,4140,5515,164,101,812
394291,21435272,20593460,21456084,20702420,3800,3800,-5948,-14515,8607,5274,4726,12057,164,101,812
395282,21436144,20593836,21456946,20703282,3800,3800,-6934,-13471,8232,5295,4485,5354,176,99,811
396284,21437152,20594268,21457808,20704144,3800,3800,-7255,-14050,7815,5487,3637,2465,176,99,811
397285,21438064,20594624,21458670,20705006,3800,3800,-7330,-15185,7241,5727,3618,2975,185,93,811
398286,21438972,20595060,21459532,20705868,3800,3800,-7644,-15541,6482,5277,3466,5159,185,93,811
399286,21439920,20595456,21460394,20706730,3800,3800,-8070,-14989,5763,4507,2350,6390,166,83,810
400288,21440896,20595844,21461256,20707592,3800,3800,-8467,-14213,5148,3470,699,7257,166,83,810
401288,21441772,20596192,21462118,20708454,3800,3800,-9361,-12292,4902,3047,-3754,12614,178,86,809
402290,21442612,20596616,21462980,20709316,3800,3800,-10571,-9525,4945,2734,-3869,13270,178,86,809
403290,21443540,20597040,21463842,20710178,3800,3800,-10897,-8205,4381,2553,1928,7400,165,93,811
404292,21444372,20597484,21464704,20711040,3800,3800,-7791,-3581,3507,4539,2442,32767,165,93,811
405293,21445236,20597900,21465566,20711902,3800,3800,-165,10734,2880,4808,1388,32767,176,96,810
406294,21446040,20598408,21466428,20712764,3800,3800,4098,16989,2261,3968,4023,7283,176,96,810
407295,21446700,20598868,21467290,20713626,3800,3800,4116,14347,1512,4217,6537,-3852,165,101,810
408296,21447384,20599444,21468152,20714488,3800,3800,2651,8256,860,5035,5331,-6450,165,101,810
409297,21448092,20600100,21469014,20715350,3800,3800,1142,4497,1084,6098,-479,-2330,168,109,811
410298,21448712,20600740,21469876,20716212,3800,3800,-118,2910,1735,5579,-62,-1099,168,109,811
411299,21449336,20601416,21470738,20717074,3800,3800,-1491,2238,1982,6515,2080,794,156,131,810
412300,21449948,20602136,21471600,20717936,3800,3800,-2928,1481,2089,6983,2115,1356,156,131,810
413308,21450516,20602876,21472468,20718804,3800,3800,-3935,-263,2341,5110,1248,-1530,133,141,810
414302,21451064,20603612,21473330,20719666,3800,3800,-4336,-2671,2344,4418,1438,-2946,133,141,810
415302,21451648,20604504,21474192,20720528,3800,3800,-4013,-5676,2178,3878,1182,-4964,132,145,811
416304,21452152,20605324,21475054,20721390,3800,3800,-3532,-8429,2117,2732,13,-3651,132,145,811
417304,21452616,20606080,21475916,20722252,3800,3800,-3124,-10425,2205,2008,-1722,-1949,110,147,811
418306,21453140,20606984,21476778,20723114,3800,3800,-1647,-9293,2623,1003,-6157,19998,110,147,811
419306,21453632,20607780,21477640,20723976,3800,3800,2160,-813,3569,-771,-12888,32767,113,178,811
420308,21454108,20608796,21478502,20724838,3800,3800,4605,4537,4015,-1158,-5275,14591,113,178,811
421309,21454624,20609772,21479364,20725700,3800,3800,4866,5472,3913,-1497,-3584,5819,109,195,811
422310,21455172,20610800,21480226,20726562,3800,3800,4023,5387,3683,-1263,-3852,7749,109,195,811
423311,21455708,20611724,21481088,20727424,3800,3800,3571,6268,3469,-720,-3793,6952,125,198,812
424312,21456248,20612800,21481950,20728286,3800,3800,3473,7571,3284,-621,-3135,7174,125,198,812
425313,21456852,20613972,21482812,20729148,3800,3800,3524,9264,3008,-289,-2549,7495,129,215,813
426313,21457432,20614884,21483674,20730010,3800,3800,3522,10578,2644,296,-2561,6214,129,215,813
427314,21458008,20615884,21484536,20730872,3800,3800,3565,11715,2317,696,-3168,5760,128,202,813
428316,21458684,20616884,21485398,20731734,3800,3800,3617,12725,2018,1188,-3263,5672,128,202,813
429317,21459332,20617808,21486260,20732596,3800,3800,3661,13527,1703,2129,-2944,4706,141,186,813
430318,21460000,20618668,21487122,20733458,3800,3800,3722,14012,1340,2835,-1995,3452,141,186,813
431319,21460780,20619608,21487984,20734320,3800,3800,3756,14102,841,3106,-862,2423,153,173,813
432327,21461524,20620308,21488852,20735188,3800,3800,3796,13872,217,2882,-984,1357,153,173,813
433321,21462268,20621080,21489714,20736050,3800,3800,3861,13306,-447,2625,-2270,626,160,155,812
434322,21463108,20621816,21490576,20736912,3800,3800,3882,12692,-1179,2279,-2692,341,160,155,812
435322,21463960,20622528,21491438,20737774,3800,3800,3853,12071,-2022,1587,-2064,-108,165,147,811
436324,21464816,20623276,21492300,20738636,3800,3800,3744,11309,-2923,712,-1457,-513,165,147,811
437325,21465700,20623964,21493162,20739498,3800,3800,3590,10453,-3831,72,-790,-669,168,157,814
438326,21466524,20624760,21494024,20740360,3800,3800,3394,9609,-4749,-413,89,-898,168,157,814
439327,21467516,20625536,21494886,20741222,3800,3800,3174,8720,-5675,-598,-68,-1384,179,146,814
440328,21468600,20626364,21495748,20742084,3800,3800,2957,7659,-6554,-675,-948,-1849,179,146,814
441329,21469652,20627116,21496610,20742946,3800,3800,2704,6554,-7238,-772,-1385,-1689,175,168,815
442330,21470688,20627984,21497472,20743808,3800,3800,2438,5593,-7706,-1373,-839,-1533,175,168,815
443331,21471728,20628812,21498334,20744670,3800,3800,2196,4756,-7991,-2264,-1317,-1214,207,169,815
444331,21472868,20629660,21499196,20745532,3800,3800,1940,4163,-8054,-3555,-1953,-470,207,169,815
445333,21473980,20630424,21500058,20746394,3800,3800,1667,3959,-7915,-4964,-2649,627,207,178,815
446334,21475032,20631228,21500920,20747256,3800,3800,1410,4053,-7592,-6120,-3135,1010,207,178,815
447335,21476184,20632184,21501782,20748118,3800,3800,1281,3988,-7115,-6843,-3087,324,208,171,815
448336,21477236,20633004,21502644,20748980,3800,3800,1245,3618,-6490,-7255,-3332,-388,208,171,815
449337,21478264,20633948,21503506,20749842,3800,3800,1260,3095,-5708,-7350,-3860,-541,205,188,816
450338,21479400,20634876,21504368,20750704,3800,3800,1282,2295,-4815,-7599,-3590,-1326,205,188,816
451345,21480392,20635944,21505236,20751572,3800,3800,1274,1411,-3897,-7869,-3205,-1249,210,198,818
452340,21481360,20636972,21506098,20752434,3800,3800,1213,582,-2923,-8222,-3487,-1418,210,198,818
453341,21482356,20638092,21506960,20753296,3800,3800,1164,-327,-1832,-8346,-3719,-1926,216,228,818
454342,21483308,20639188,21507822,20754158,3800,3800,1051,-1467,-713,-8074,-3308,-2320,216,228,818
455343,21484236,20640304,21508684,20755020,3800,3800,887,-2556,401,-8065,-2683,-1919,211,220,817
456344,21485280,20641344,21509546,20755882,3800,3800,655,-3460,1554,-8409,-2805,-1457,211,220,817
457345,21486188,20642388,21510408,20756744,3800,3800,415,-4295,2705,-8860,-2898,-1251,187,235,818
458346,21487080,20643464,21511270,20757606,3800,3800,146,-4941,3851,-9260,-2588,-462,187,235,818
459347,21488100,20644404,21512132,20758468,3800,3800,-76,-5474,4924,-8795,-2023,-660,202,207,817
460347,21489024,20645340,21512994,20759330,3800,3800,-319,-6374,5899,-7587,-1654,-1371,202,207,817
461349,21489960,20646288,21513856,20760192,3800,3800,-577,-7328,6807,-5694,-1116,-884,177,197,817
462350,21490892,20647284,21514718,20761054,3800,3800,-878,-8737,7598,-3909,-258,-2103,177,197,817
463351,21491856,20648296,21515580,20761916,3800,3800,-1094,-10485,8216,-2640,127,-2935,184,212,816
464352,21492752,20649388,21516442,20762778,3800,3800,-1178,-12509,8699,-1896,563,-3212,184,212,816
465353,21493696,20650452,21517304,20763640,3800,3800,-1240,-14436,9018,-941,1063,-2568,190,219,817
466354,21494596,20651500,21518166,20764502,3800,3800,-1399,-15926,9209,57,1603,-1200,190,219,817
467355,21495496,20652520,21519028,20765364,3800,3800,-1701,-16948,9429,1507,1561,84,177,229,817
468355,21496428,20653528,21519890,20766226,3800,3800,-1938,-18006,9661,3158,1291,-882,177,229,817
469357,21497380,20654592,21520752,20767088,3800,3800,-2078,-19391,9813,4581,1781,-1275,176,213,817
470367,21498284,20655432,21521620,20767956,3800,3800,-2091,-20722,9888,6120,2096,-748,176,213,817
471359,21499276,20656196,21522482,20768818,3800,3800,-2012,-22125,9917,6862,1864,-750,193,177,816
472360,21500460,20656956,21523344,20769680,3800,3800,-1855,-22940,9954,7596,1657,1354,193,177,816
473361,21501520,20657664,21524206,20770542,3800,3800,-1804,-22606,9920,7712,1451,4027,217,144,815
474362,21502556,20658356,21525068,20771404,3800,3800,-1767,-21714,9767,7134,1408,4703,217,144,815
475363,21503732,20658964,21525930,20772266,3800,3800,-1710,-20613,9397,6105,1655,5355,206,127,815
476363,21504780,20659472,21526792,20773128,3800,3800,-1601,-19376,8762,5051,1730,5426,206,127,815
477365,21505848,20660012,21527654,20773990,3800,3800,-1487,-18171,7864,4741,1629,5324,211,109,812
478366,21506888,20660504,21528516,20774852,3800,3800,-1337,-16784,6855,4593,1061,5815,211,109,812
479367,21507904,20661040,21529378,20775714,3800,3800,-1298,-15189,5985,4132,-225,6588,205,105,811
480368,21508776,20661560,21530240,20776576,3800,3800,-1428,-13477,5207,3649,-873,6887,205,105,811
481369,21509672,20662112,21531102,20777438,3800,3800,-1627,-11888,4420,3194,895,6199,177,112,811
482369,21510688,20662636,21531964,20778300,3800,3800,-1843,-10485,3634,3415,2424,5537,177,112,811
483370,21511516,20663108,21532826,20779162,3800,3800,-2052,-9468,2883,3866,2307,4407,180,100,811
484371,21512284,20663608,21533688,20780024,3800,3800,-2086,-8863,2288,3994,2195,3058,180,100,811
485372,21513068,20664228,21534550,20780886,3800,3800,-2019,-8782,1925,4378,2643,1709,168,119,811
486374,21513828,20664760,21535412,20781748,3800,3800,-1897,-9215,1733,4993,2805,9,168,119,811
487375,21514532,20665396,21536274,20782610,3800,3800,-1826,-10048,1613,5798,3003,-745,163,129,811
488376,21515244,20665976,21537136,20783472,3800,3800,-1743,-10891,1428,6314,3291,-873,163,129,811
489383,21515880,20666712,21538004,20784340,3800,3800,-1748,-11681,1171,6789,2781,-131,153,128,810
490378,21516500,20667388,21538866,20785202,3800,3800,-2996,-10218,1107,7714,785,9342,153,128,810
491379,21517156,20668272,21539728,20786064,3800,3800,-4432,-8304,1036,7215,1806,6660,149,131,811
492379,21517732,20669008,21540590,20786926,3800,3800,-6185,-5252,1428,9263,-41,14171,149,131,811
493380,21518260,20669852,21541452,20787788,3800,3800,-7401,-2756,2049,9126,226,9575,128,157,811
494382,21518856,20670680,21542314,20788650,3800,3800,-7918,-1529,2307,8937,2105,7059,128,157,811
495383,21519360,20671528,21543176,20789512,3800,3800,-7989,-1235,2382,9435,2346,4850,127,166,811
496384,21519860,20672504,21544038,20790374,3800,3800,-7695,-1481,2352,9532,3006,2765,127,166,811
497384,21520384,20673324,21544900,20791236,3800,3800,-7191,-1768,2237,9039,3178,2139,108,189,811
498386,21520896,20674280,21545762,20792098,3800,3800,-6516,-2065,2027,8331,3408,2058,108,189,811
499386,21521388,20675244,21546624,20792960,3800,3800,-4094,523,1823,9076,622,15728,98,183,811
500387,21521896,20676248,21547486,20793822,3800,3800,1357,11096,1810,11132,-4793,32767,98,183,811
501388,21522472,20677240,21548348,20794684,3800,3800,4624,17448,1772,8531,74,9577,111,208,811
502390,21522960,20678344,21549210,20795546,3800,3800,4976,18830,1555,8412,723,6326,111,208,811
503391,21523520,20679452,21550072,20796408,3800,3800,4130,17978,1349,8486,-379,4390,119,212,813
504392,21524096,20680356,21550934,20797270,3800,3800,4049,17960,1047,8237,-469,3911,119,212,813
505393,21524668,20681432,21551796,20798132,3800,3800,4430,17971,665,7485,-53,2205,116,213,813
506394,21525256,20682484,21552658,20798994,3800,3800,4901,18403,304,7640,-1125,3783,116,213,813
507395,21525948,20683564,21553520,20799856,3800,3800,5153,19208,-25,7516,-1280,4405,132,213,813
508402,21526580,20684416,21554388,20800724,3800,3800,5295,19731,-301,6789,-1635,3246,132,213,813
509397,21527256,20685368,21555250,20801586,3800,3800,5577,20033,-682,6293,-1972,2534,146,192,813
510398,21528044,20686208,21556112,20802448,3800,3800,5699,20109,-1150,5533,-2312,2604,146,192,813
511399,21528824,20687088,21556974,20803310,3800,3800,5799,20486,-1645,4892,-2261,2736,162,188,812
512400,21529580,20687960,21557836,20804172,3800,3800,5797,20673,-2219,4257,-1969,1974,162,188,812
513401,21530468,20688884,21558698,20805034,3800,3800,5811,20802,-2906,3173,-1418,1623,163,183,814
514402,21531288,20689696,21559560,20805896,3800,3800,5720,20900,-3699,2759,-1194,2013,163,183,814
515402,21532128,20690640,21560422,20806758,3800,3800,5574,21119,-4647,2720,-608,1292,179,189,815
516404,21533136,20691556,21561284,20807620,3800,3800,5278,20852,-5927,2188,1041,-201,179,189,815
517405,21534136,20692388,21562146,20808482,3800,3800,4906,20191,-7589,1666,701,-1270,204,185,815
518406,21535136,20693356,21563008,20809344,3800,3800,4490,19292,-9262,1328,-67,-1610,204,185,815
519407,21536156,20694188,21563870,20810206,3800,3800,4186,18480,-10553,1239,-993,-1449,206,175,815
520408,21537272,20695104,21564732,20811068,3800,3800,3973,17824,-11452,829,-980,-1390,206,175,815
521409,21538320,20695888,21565594,20811930,3800,3800,3807,17360,-11982,94,-1755,-1045,203,187,815
522410,21539404,20696780,21566456,20812792,3800,3800,3647,16952,-12115,-1042,-3453,-1070,203,187,815
523411,21540540,20697724,21567318,20813654,3800,3800,3517,16542,-11957,-2173,-4316,-981,218,182,815
524412,21541564,20698708,21568180,20814516,3800,3800,3412,16065,-11672,-3108,-3885,-1436,218,182,815
525413,21542600,20699692,21569042,20815378,3800,3800,3369,15482,-11304,-4046,-4164,-1953,218,197,816
526414,21543760,20700732,21569904,20816240,3800,3800,3385,14735,-10726,-5082,-4696,-2333,218,197,816
527421,21544752,20701712,21570772,20817108,3800,3800,3317,13884,-10036,-5986,-5061,-2334,232,203,818
528415,21545772,20702744,21571634,20817970,3800,3800,3198,12947,-9306,-6711,-5147,-3055,232,203,818
529416,21546812,20703884,21572496,20818832,3800,3800,3092,11756,-8450,-7422,-5643,-3931,214,207,819
530417,21547740,20704984,21573358,20819694,3800,3800,2957,10273,-7456,-7821,-5859,-4665,214,207,819
531418,21548676,20706100,21574220,20820556,3800,3800,2684,8631,-6328,-8040,-5783,-4810,223,238,819
532419,21549676,20707204,21575082,20821418,3800,3800,2373,7070,-5092,-8567,-5701,-4752,223,238,819
533420,21550584,20708276,21575944,20822280,3800,3800,2010,5668,-3796,-9491,-5463,-4141,206,230,818
534421,21551448,20709296,21576806,20823142,3800,3800,1526,4628,-2468,-10447,-5385,-3068,206,230,818
535423,21552368,20710384,21577668,20824004,3800,3800,355,3106,92,-11088,-3790,-2649,198,220,817
536424,21553288,20711332,21578530,20824866,3800,3800,-249,2110,1224,-10784,-2328,-3253,198,220,817
537425,21554168,20712336,21579392,20825728,3800,3800,-833,686,2257,-9597,-1311,-4223,170,218,816
538425,21555140,20713396,21580254,20826590,3800,3800,-1433,-1160,3300,-7788,-775,-4727,170,218,816
539427,21555972,20714356,21581116,20827452,3800,3800,-2061,-3115,4382,-6277,-665,-4636,179,204,816
540427,21556860,20715456,21581978,20828314,3800,3800,-2636,-5149,5447,-5769,-257,-4538,179,204,816
541429,21557716,20716424,21582840,20829176,3800,3800,-3099,-7207,6444,-5309,-443,-4360,170,200,817
542430,21558636,20717384,21583702,20830038,3800,3800,-3524,-9035,7354,-4203,-411,-3531,170,200,817
543431,21559488,20718252,21584564,20830900,3800,3800,-3988,-10829,8199,-2976,-146,-3085,163,198,814
544432,21560328,20719080,21585426,20831762,3800,3800,-4472,-12617,8924,-1534,-98,-2651,163,198,814
545433,21561280,20719856,21586288,20832624,3800,3800,-4962,-14256,9506,-460,366,-1288,167,169,814
546443,21562156,20720524,21587156,20833492,3800,3800,-5375,-15651,9897,111,235,-697,167,169,814
547435,21563072,20721112,21588018,20834354,3800,3800,-5662,-17064,10124,727,71,-678,173,126,813
548435,21564000,20721620,21588880,20835216,3800,3800,-5776,-18340,10101,1110,1383,-181,173,126,813
549436,21564972,20722056,21589742,20836078,3800,3800,-5740,-19504,9656,1628,2362,70,193,118,813
550437,21565984,20722496,21590604,20836940,3800,3800,-5608,-20427,8994,2369,1701,880,193,118,813
551439,21567052,20722852,21591466,20837802,3800,3800,-5389,-21050,8425,2947,565,1843,184,90,811
552440,21568060,20723180,21592328,20838664,3800,3800,-5113,-21372,7875,3519,416,2382,184,90,811
553441,21569048,20723484,21593190,20839526,3800,3800,-4974,-21539,7194,4036,1051,3362,182,70,810
554441,21570064,20723784,21594052,20840388,3800,3800,-4926,-21025,6424,3715,687,5256,182,70,810
555443,21571044,20724064,21594914,20841250,3800,3800,-4911,-20009,5526,2452,2334,6377,178,56,808
556443,21572024,20724340,21595776,20842112,3800,3800,-4902,-19206,4438,2031,3074,5922,178,56,808
557445,21572976,20724608,21596638,20842974,3800,3800,-5015,-18357,3305,2620,2243,6787,179,66,809
558446,21573860,20724880,21597500,20843836,3800,3800,-5484,-17095,2428,2777,91,7949,179,66,809
559447,21574764,20725200,21598362,20844698,3800,3800,-6195,-15812,1904,2627,-962,7469,166,79,810
560447,21575580,20725500,21599224,20845560,3800,3800,-6556,-15502,1334,2661,2108,4008,166,79,810
561448,21576516,20725784,21600086,20846422,3800,3800,-6463,-16258,645,3609,3503,1657,170,74,809
562449,21577220,20726152,21600948,20847284,3800,3800,-6221,-17708,-20,5145,3761,-68,170,74,809
563450,21577900,20726512,21601810,20848146,3800,3800,-6136,-19043,-426,5754,2828,490,166,75,809
564451,21578660,20726864,21602672,20849008,3800,3800,-6688,-19225,-237,5952,-420,4745,166,75,809
565459,21579340,20727224,21603540,20849876,3800,3800,-7976,-18157,462,6334,-2735,7496,146,78,807
566453,21579968,20727668,21604402,20850738,3800,3800,-10124,-15776,1223,7701,10,12148,146,78,807
567455,21580632,20728120,21605264,20851600,3800,3800,-11580,-14397,1427,7569,4313,6137,155,89,808
568456,21581204,20728588,21606126,20852462,3800,3800,-6405,-6259,784,16058,3262,32767,155,89,808
569457,21581768,20729044,21606988,20853324,3800,3800,3545,10903,66,16170,-3586,32767,132,97,809
570458,21582364,20729564,21607850,20854186,3800,3800,8310,16340,96,6050,1389,-424,132,97,809
571459,21582872,20730060,21608712,20855048,3800,3800,7173,12466,734,6079,2438,-2572,114,107,808
572460,21583384,20730664,21609574,20855910,3800,3800,5263,6439,1154,5575,3348,-6971,114,107,808
573461,21583912,20731296,21610436,20856772,3800,3800,4460,1219,1100,4687,3990,-8227,122,119,808
574462,21584428,20731956,21611298,20857634,3800,3800,4586,-1755,1211,4254,2597,-5201,122,119,808
575463,21584904,20732632,21612160,20858496,3800,3800,4698,-3923,1661,4424,750,-3547,117,120,809
576464,21585440,20733372,21613022,20859358,3800,3800,4609,-4983,2275,4150,-500,-19,117,120,809
577465,21585900,20734088,21613884,20860220,3800,3800,4340,-5081,3107,3143,-1369,3336,114,142,808
578466,21586400,20734924,21614746,20861082,3800,3800,3555,-3686,4067,3021,-2227,8580,114,142,808
579467,21586924,20735704,21615608,20861944,3800,3800,2722,-1274,5114,2436,-3252,9791,114,153,810
580468,21587416,20736572,21616470,20862806,3800,3800,2221,711,6052,1359,-2751,8003,114,153,810
581469,21587936,20737356,21617332,20863668,3800,3800,1986,2397,6591,767,-2315,7462,96,163,810
582470,21588432,20738308,21618194,20864530,3800,3800,1874,3769,6681,-91,-1607,6737,96,163,810
583471,21589012,20739200,21619056,20865392,3800,3800,2033,5174,6503,-544,-1160,5864,102,174,811
584479,21589536,20740124,21619924,20866260,3800,3800,2057,6676,6168,-534,-1827,6246,102,174,811
585473,21590120,20741136,21620786,20867122,3800,3800,1547,9161,5588,-372,-246,9898,126,205,811
586474,21590752,20742252,21621648,20867984,3800,3800,792,11929,4799,61,616,9133,126,205,811
587475,21591384,20743192,21622510,20868846,3800,3800,574,13591,4025,143,-1109,4330,136,206,812
588476,21592008,20744224,21623372,20869708,3800,3800,862,14193,3343,242,-1717,2982,136,206,812
589477,21592748,20745396,21624234,20870570,3800,3800,1252,14836,2722,1430,-1403,3942,155,202,812
590478,21593468,20746404,21625096,20871432,3800,3800,1416,15887,2202,2541,-1966,4441,155,202,812
591479,21594196,20747332,21625958,20872294,3800,3800,1510,16735,1776,2900,-2575,3179,151,188,814
592480,21595044,20748320,21626820,20873156,3800,3800,1783,16786,1157,3158,-2212,502,151,188,814
593481,21595868,20749192,21627682,20874018,3800,3800,2213,16014,285,3514,-1637,-1069,158,186,814
594482,21596720,20750008,21628544,20874880,3800,3800,2695,14949,-706,3505,-1171,-1706,158,186,814
595483,21597652,20750956,21629406,20875742,3800,3800,3101,13808,-1740,3480,-588,-1797,185,172,814
596484,21598572,20751680,21630268,20876604,3800,3800,3383,12862,-2613,3535,-1646,-1239,185,172,814
597485,21599500,20752396,21631130,20877466,3800,3800,3455,12291,-3203,3543,-1318,-85,190,152,814
598486,21600652,20753116,21631992,20878328,3800,3800,3481,11605,-3862,2716,-1175,-1398,190,152,814
599487,21601620,20753780,21632854,20879190,3800,3800,3576,10398,-4760,1092,-584,-2748,201,143,814
600488,21602656,20754540,21633716,20880052,3800,3800,3736,9050,-5861,-239,1201,-3128,201,143,814
601489,21603808,20755244,21634578,20880914,3800,3800,3867,7446,-7073,-1198,1877,-4249,202,151,814
602490,21604860,20755996,21635440,20881776,3800,3800,3900,5968,-8147,-2045,356,-3676,202,151,814
603498,21605884,20756740,21636308,20882644,3800,3800,3854,4744,-8795,-2742,-1630,-3098,224,145,814
604492,21606968,20757492,21637170,20883506,3800,3800,3834,3629,-8984,-3042,-1303,-2943,224,145,814
605493,21608084,20758208,21638032,20884368,3800,3800,3762,2797,-8898,-3536,-953,-1761,201,154,815
606494,21609132,20759048,21638894,20885230,3800,3800,3549,2384,-8616,-4526,-1641,-653,201,154,815
607495,21610136,20759820,21639756,20886092,3800,3800,3306,2043,-8165,-5626,-2401,-1084,218,170,815
608496,21611240,20760648,21640618,20886954,3800,3800,3149,1627,-7597,-6421,-2705,-1317,218,170,815
609497,21612144,20761352,21641480,20887816,3800,3800,3028,1178,-6931,-6625,-2829,-1468,233,173,814
610498,21613088,20762144,21642342,20888678,3800,3800,2910,755,-6096,-6966,-3415,-1677,233,173,814
611499,21614128,20763148,21643204,20889540,3800,3800,2654,444,-5065,-7648,-3942,-975,202,163,814
612500,21615076,20764020,21644066,20890402,3800,3800,2219,504,-3928,-8119,-3747,69,202,163,814
613501,21615992,20764864,21644928,20891264,3800,3800,1751,491,-2775,-8468,-2962,-880,203,184,815
614502,21617024,20765832,21645790,20892126,3800,3800,1366,153,-1690,-8852,-2333,-1605,203,184,815
615503,21617960,20766800,21646652,20892988,3800,3800,962,-326,-672,-9184,-2143,-1570,219,202,817
616503,21618944,20767700,21647514,20893850,3800,3800,504,-888,356,-9217,-2087,-1625,219,202,817
617505,21619964,20768836,21648376,20894712,3800,3800,32,-1651,1361,-8414,-1472,-2624,194,209,817
618506,21620868,20769956,21649238,20895574,3800,3800,-452,-2921,2356,-7135,-1353,-3655,194,209,817
619507,21621760,20771028,21650100,20896436,3800,3800,-960,-4481,3423,-5750,-1605,-3953,206,205,817
620507,21622776,20771988,21650962,20897298,3800,3800,-1473,-6304,4544,-4733,-1453,-4237,206,205,817
621509,21623596,20772976,21651824,20898160,3800,3800,-1967,-8158,5587,-4152,-1195,-4329,197,210,816
622519,21624496,20773972,21652692,20899028,3800,3800,-2428,-9919,6485,-3763,-294,-3845,197,210,816
623511,21625384,20774864,21653554,20899890,3800,3800,-2907,-11493,7298,-3075,333,-2922,191,198,816
624512,21626316,20775740,21654416,20900752,3800,3800,-3565,-12907,8033,-1863,101,-1996,191,198,816
625513,21627212,20776608,21655278,20901614,3800,3800,-4178,-14135,8713,-962,313,-1716,178,193,816
626514,21628104,20777460,21656140,20902476,3800,3800,-4788,-15312,9309,388,585,-931,178,193,816
627514,21629100,20778408,21657002,20903338,3800,3800,-5992,-15215,9722,2438,2713,4434,192,191,815
628515,21629996,20779404,21657864,20904200,3800,3800,-7010,-15625,10035,2703,1416,-274,192,191,815
629517,21630900,20780388,21658726,20905062,3800,3800,-7442,-16886,10232,3912,263,-1061,178,201,816
630518,21631988,20781420,21659588,20905924,3800,3800,-7488,-18593,10508,4886,-1336,-1085,178,201,816
631519,21632932,20782392,21660450,20906786,3800,3800,-7362,-19943,10689,5703,-1358,347,169,207,815
632519,21633888,20783368,21661312,20907648,3800,3800,-7293,-20567,10687,6395,-1518,1653,169,207,815
633521,21634940,20784424,21662174,20908510,3800,3800,-7253,-20685,10436,6628,-985,2227,184,213,815
634522,21636032,20785312,21663036,20909372,3800,3800,-7221,-20777,9929,6791,-962,2028,184,213,815
635523,21637028,20786096,21663898,20910234,3800,3800,-7121,-20687,9384,6899,-1471,2869,213,163,816
636524,21638092,20786844,21664760,20911096,3800,3800,-7035,-19992,9070,6041,-3182,4875,213,163,816
637525,21639040,20787496,21665622,20911958,3800,3800,-6989,-18797,8822,4966,-3064,5990,199,148,814
638526,21639980,20788200,21666484,20912820,3800,3800,-6918,-17372,8378,4551,-1544,6274,199,148,814
639527,21641012,20788828,21667346,20913682,3800,3800,-6888,-15655,7716,4672,-234,7492,194,130,813
640528,21641964,20789376,21668208,20914544,3800,3800,-6795,-13958,6887,4936,-762,6542,194,130,813
641536,21642772,20789868,21669076,20915412,3800,3800,-6514,-12807,5894,4530,-582,4960,184,104,813
642530,21643572,20790264,21669938,20916274,3800,3800,-6042,-12074,4796,4106,-133,4378,184,104,813
643531,21644364,20790768,21670800,20917136,3800,3800,-5624,-11405,3747,4569,-848,4564,179,95,810
644532,21645068,20791224,21671662,20917998,3800,3800,-5314,-10842,2955,5141,-1850,3985,179,95,810
645533,21645804,20791664,21672524,20918860,3800,3800,-5047,-10426,2246,5168,-1191,3503,150,104,810
646534,21646508,20792136,21673386,20919722,3800,3800,-4766,-10393,1331,5146,561,2427,150,104,810
647535,21647112,20792548,21674248,20920584,3800,3800,-4361,-10623,300,5455,1065,2179,158,98,810
648536,21647720,20792996,21675110,20921446,3800,3800,-3984,-10786,-737,6135,1257,2808,158,98,810
649537,21648344,20793536,21675972,20922308,3800,3800,-3571,-10691,-1586,7305,483,4128,142,96,809
650538,21648868,20793992,21676834,20923170,3800,3800,1947,-546,-2255,15540,-3356,32767,142,96,809
651539,21649348,20794404,21677696,20924032,3800,3800,9302,13250,-2792,14578,-3767,26701,119,96,808
652540,21649888,20794964,21678558,20924894,3800,3800,12012,17350,-3156,10555,212,6056,119,96,808
653541,21650344,20795440,21679420,20925756,3800,3800,10848,14595,-3031,11819,-672,2052,98,99,807
654542,21650772,20796012,21680282,20926618,3800,3800,9539,10923,-2728,12726,-748,-1519,98,99,807
655543,21651260,20796636,21681144,20927480,3800,3800,8580,8366,-2188,13251,-977,-1298,102,99,806
656544,21651656,20797220,21682006,20928342,3800,3800,7087,8243,-793,13869,-3790,3588,102,99,806
657545,21652076,20797908,21682868,20929204,3800,3800,4915,9039,660,12993,-2614,4523,87,127,808
658546,21652528,20798548,21683730,20930066,3800,3800,3282,8794,1248,10805,832,173,87,127,808
659547,21652936,20799304,21684592,20930928,3800,3800,3005,6667,1236,8638,2124,-4225,93,124,808
660554,21653324,20800016,21685460,20931796,3800,3800,3492,3681,955,7507,3061,-4820,93,124,808
661548,21653784,20800776,21686322,20932658,3800,3800,3814,1785,703,5988,3447,-592,91,133,808
662550,21654204,20801520,21687184,20933520,3800,3800,3454,2147,561,4308,3225,5917,91,133,808
663551,21654628,20802352,21688046,20934382,3800,3800,2633,4120,479,3788,3096,8376,96,163,809
664551,21655088,20803152,21688908,20935244,3800,3800,1955,6026,399,3217,3916,7473,96,163,809
665552,21655636,20803988,21689770,20936106,3800,3800,1519,7644,132,2399,4555,7244,91,170,808
666554,21656120,20804964,21690632,20936968,3800,3800,1233,9026,-409,1743,4957,6636,91,170,808
667555,21656680,20805852,21691494,20937830,3800,3800,996,10345,-1154,396,5197,6624,100,178,810
668556,21657280,20806816,21692356,20938692,3800,3800,700,12022,-1890,-579,4468,8033,100,178,810
669557,21657880,20807908,21693218,20939554,3800,3800,462,13886,-2463,-466,3575,7261,124,184,811
670558,21658524,20808868,21694080,20940416,3800,3800,267,15578,-2939,-600,3850,6424,124,184,811
671559,21659248,20809932,21694942,20941278,3800,3800,134,16863,-3392,-1126,3270,5386,144,193,813
672560,21659976,20810996,21695804,20942140,3800,3800,78,17718,-3944,-1478,2851,4188,144,193,813
673560,21660728,20811940,21696666,20943002,3800,3800,133,18398,-4487,-1530,2227,3617,169,203,814
674562,21661560,20812852,21697528,20943864,3800,3800,190,19047,-4852,-1254,1537,3259,169,203,814
675563,21662336,20813792,21698390,20944726,3800,3800,268,19482,-5048,-1274,905,2317,148,193,813
676564,21663168,20814708,21699252,20945588,3800,3800,387,19660,-5137,-1477,275,1720,148,193,813
677565,21664084,20815620,21700114,20946450,3800,3800,544,19615,-5207,-1520,-2,929,171,192,813
678566,21665060,20816520,21700976,20947312,3800,3800,699,19242,-5314,-1486,-266,-236,171,192,813
679574,21666044,20817336,21701844,20948180,3800,3800,814,18540,-5436,-1784,-790,-966,186,182,815
680568,21667116,20818148,21702706,20949042,3800,3800,918,17774,-5490,-2271,-1764,-1121,186,182,815
681569,21668144,20818996,21703568,20949904,3800,3800,1019,16919,-5429,-2796,-2688,-1274,191,190,815
682570,21669204,20819852,21704430,20950766,3800,3800,1151,16084,-5293,-3399,-3053,-1532,191,190,815
683571,21670332,20820580,21705292,20951628,3800,3800,1282,15111,-5193,-4199,-3145,-1746,197,186,815
684571,21671324,20821412,21706154,20952490,3800,3800,1464,13986,-5197,-5012,-2908,-2330,197,186,815
685573,21672356,20822196,21707016,20953352,3800,3800,1650,12624,-5302,-5678,-2462,-2643,211,162,815
686574,21673432,20823036,21707878,20954214,3800,3800,1858,11235,-5388,-6032,-2601,-2711,211,162,815
687575,21674548,20823768,21708740,20955076,3800,3800,1979,9769,-5348,-6242,-3171,-2690,205,151,815
688576,21675524,20824632,21709602,20955938,3800,3800,2028,8264,-5141,-6174,-3427,-2778,205,151,815
689576,21676520,20825456,21710464,20956800,3800,3800,1976,6643,-4726,-6178,-4242,-2980,211,177,816
690578,21677556,20826312,21711326,20957662,3800,3800,1899,4944,-4115,-6149,-4604,-3324,211,177,816
691579,21678512,20827088,21712188,20958524,3800,3800,1796,3201,-3419,-6235,-4666,-3379,214,184,815
692580,21679488,20828008,21713050,20959386,3800,3800,1631,1629,-2684,-6393,-4694,-2726,214,184,815
693580,21680508,20828960,21713912,20960248,3800,3800,1417,209,-1954,-6520,-4241,-2606,194,177,815
694582,21681484,20829844,21714774,20961110,3800,3800,1151,-1106,-1191,-6679,-4084,-2398,194,177,815
695583,21682432,20830592,21715636,20961972,3800,3800,878,-2470,-367,-6963,-3885,-2305,204,183,816
696583,21683496,20831716,21716498,20962834,3800,3800,471,-3496,401,-7248,-3076,-608,204,183,816
697585,21684452,20832648,21717360,20963696,3800,3800,8,-4335,1045,-7572,-2524,-864,211,214,816
698595,21685484,20833744,21718228,20964564,3800,3800,-354,-5377,1651,-7551,-2582,-1576,211,214,816
699587,21686472,20834912,21719090,20965426,3800,3800,-754,-6403,2271,-7189,-2441,-588,207,211,816
700588,21687404,20836016,21719952,20966288,3800,3800,-1302,-7006,2908,-6687,-1954,763,207,211,816
701589,21688296,20837036,21720814,20967150,3800,3800,-1840,-7765,3594,-5606,-1372,-337,175,201,817
702590,21689232,20838076,21721676,20968012,3800,3800,-2152,-9059,4336,-4430,-708,-1586,175,201,817
703591,21690184,20839072,21722538,20968874,3800,3800,-2484,-10342,5078,-3208,-438,-633,176,211,817
704592,21691040,20840088,21723400,20969736,3800,3800,-2751,-11489,5776,-2862,242,-763,176,211,817
705593,21692100,20840964,21724262,20970598,3800,3800,-3130,-12797,6384,-1697,208,-649,191,213,816
706594,21693024,20841844,21725124,20971460,3800,3800,-3465,-14000,6878,-636,302,-474,191,213,816
707595,21693936,20842716,21725986,20972322,3800,3800,-3836,-15244,7308,200,366,-203,198,178,816
708596,21694824,20843644,21726848,20973184,3800,3800,-4120,-16497,7635,1079,445,-335,198,178,816
709597,21695888,20844616,21727710,20974046,3800,3800,-4372,-17760,7836,1925,997,-33,196,204,814
710598,21696896,20845616,21728572,20974908,3800,3800,-4551,-18769,7920,3477,1249,331,196,204,814
711599,21697856,20846608,21729434,20975770,3800,3800,-4738,-19580,7925,4508,749,791,200,212,816
712600,21698964,20847548,21730296,20976632,3800,3800,-5053,-19995,7859,4736,691,2406,200,212,816
713601,21699980,20848500,21731158,20977494,3800,3800,-5569,-19942,7658,4857,-259,3517,211,202,816
714602,21701000,20849372,21732020,20978356,3800,3800,-6220,-19210,7401,5426,-1300,4666,211,202,816
715603,21702160,20850328,21732882,20979218,3800,3800,-6299,-19528,7065,6116,-240,-213,204,178,816
716604,21703156,20851096,21733744,20980080,3800,3800,-5962,-20386,6696,6187,-398,46,204,178,816
717612,21704160,20851756,21734612,20980948,3800,3800,-5693,-20770,6525,5172,-1449,1824,188,142,816
718606,21705248,20852424,21735474,20981810,3800,3800,-5574,-20523,6476,3857,-2215,2411,188,142,816
719607,21706180,20852972,21736336,20982672,3800,3800,-5457,-20028,6323,3269,-1913,2537,184,138,813
720608,21707104,20853596,21737198,20983534,3800,3800,-5319,-19290,6025,3021,-1895,3183,184,138,813
721609,21708088,20854076,21738060,20984396,3800,3800,-5214,-18182,5599,2526,-2956,4296,175,119,811
722610,21708884,20854548,21738922,20985258,3800,3800,-5022,-17204,4986,1718,-2895,3409,175,119,811
723611,21709632,20854988,21739784,20986120,3800,3800,-4609,-16781,4242,1803,-2878,1954,165,96,811
724612,21710460,20855384,21740646,20986982,3800,3800,-4080,-16745,3511,2547,-2837,957,165,96,811
725613,21711168,20855720,21741508,20987844,3800,3800,-3653,-16721,2848,2733,-2467,1207,169,85,810
726614,21711828,20856120,21742370,20988706,3800,3800,-3478,-16412,2395,2564,-3091,2360,169,85,810
727615,21712476,20856524,21743232,20989568,3800,3800,-3235,-16213,1956,2592,-2099,1126,145,95,809
728615,21713152,20856876,21744094,20990430,3800,3800,-2798,-16192,1426,2872,-1252,1239,145,95,809
729617,21713720,20857272,21744956,20991292,3800,3800,-2232,-15579,1254,4420,-2831,3967,150,75,807
730617,21714264,20857688,21745818,20992154,3800,3800,-1728,-14322,1449,5169,-2684,5611,150,75,807
731619,21714816,20858100,21746680,20993016,3800,3800,-1622,-12441,1539,4967,-1190,8720,119,88,805
732620,21715300,20858524,21747542,20993878,3800,3800,-2188,-8933,1497,5877,-717,15526,119,88,805
733621,21715792,20858980,21748404,20994740,3800,3800,1230,4318,1339,17702,-3145,32767,107,91,807
734622,21716296,20859408,21749266,20995602,3800,3800,6903,20697,1083,19745,-3669,32767,107,91,807
735623,21716772,20859780,21750128,20996464,3800,3800,9208,25392,842,10048,-2176,1154,100,94,806
736631,21717216,20860276,21750996,20997332,3800,3800,8144,21443,1041,10822,-3077,-3368,100,94,806
737625,21717708,20860796,21751858,20998194,3800,3800,6996,15799,1471,12152,-2194,-8144,89,88,806
738626,21718156,20861224,21752720,20999056,3800,3800,5899,11239,2102,13114,-857,-7198,89,88,806
739627,21718628,20861816,21753582,20999918,3800,3800,5258,8440,2583,12305,765,-6381,105,106,806
740628,21719140,20862336,21754444,21000780,3800,3800,4932,5753,2587,11389,1824,-6125,105,106,806
741629,21719588,20862960,21755306,21001642,3800,3800,4505,3942,2418,11221,1263,-1119,107,118,807
742630,21720088,20863632,21756168,21002504,3800,3800,3888,3406,2404,10572,1705,2864,107,118,807
743631,21720600,20864280,21757030,21003366,3800,3800,3342,3165,2413,9407,2579,2154,104,130,807
744632,21721132,20864988,21757892,21004228,3800,3800,3084,2936,2315,7726,3036,2700,104,130,807
745633,21721632,20865664,21758754,21005090,3800,3800,2807,3047,1990,5475,3868,4976,96,129,808
746634,21722248,20866444,21759616,21005952,3800,3800,2578,3676,1541,4366,3998,5600,96,129,808
747635,21722784,20867204,21760478,21006814,3800,3800,2315,4611,986,3422,4486,6571,113,132,809
748636,21723388,20868068,21761340,21007676,3800,3800,2113,5851,314,2763,5664,7000,113,132,809
749636,21724008,20868948,21762202,21008538,3800,3800,1736,7253,-592,2200,7332,7545,132,154,810
750638,21724720,20869764,21763064,21009400,3800,3800,1192,8900,-1703,1490,8332,8405,132,154,810
751638,21725412,20870796,21763926,21010262,3800,3800,597,10702,-2647,864,7518,8708,137,174,811
752640,21726148,20871680,21764788,21011124,3800,3800,106,12650,-3400,402,7131,8786,137,174,811
753640,21726912,20872724,21765650,21011986,3800,3800,-268,14489,-4047,-322,6545,7908,146,189,811
754642,21727692,20873812,21766512,21012848,3800,3800,-492,16013,-4633,-981,5706,6634,146,189,811
755649,21728528,20874788,21767380,21013716,3800,3800,-584,17202,-5156,-1295,4520,5356,163,196,814
756644,21729492,20875776,21768242,21014578,3800,3800,-567,18032,-5465,-1554,3002,4388,163,196,814
757644,21730412,20876748,21769104,21015440,3800,3800,-455,18647,-5531,-2000,1676,3892,172,217,814
758646,21731364,20877720,21769966,21016302,3800,3800,-272,19240,-5416,-2678,530,3604,172,217,814
759647,21732424,20878788,21770828,21017164,3800,3800,-43,19741,-5156,-3138,-371,3001,169,211,814
760647,21733424,20879656,21771690,21018026,3800,3800,209,19968,-4805,-3424,-972,1822,169,211,814
761648,21734512,20880620,21772552,21018888,3800,3800,502,19842,-4387,-3875,-1699,873,204,195,815
762649,21735596,20881532,21773414,21019750,3800,3800,830,19434,-3902,-4404,-2728,172,204,195,815
763650,21736596,20882332,21774276,21020612,3800,3800,1187,18781,-3366,-4782,-3712,-469,200,202,814
764652,21737652,20883324,21775138,21021474,3800,3800,1540,17981,-2765,-5064,-4535,-780,200,202,814
765653,21738804,20884256,21776000,21022336,3800,3800,1886,17010,-2125,-5252,-5307,-1437,211,177,815
766654,21739844,20885132,21776862,21023198,3800,3800,2167,15942,-1471,-5368,-5911,-1573,211,177,815
767655,21740796,20886004,21777724,21024060,3800,3800,2356,14633,-872,-5357,-5797,-2425,200,186,815
768656,21741888,20886892,21778586,21024922,3800,3800,2447,13030,-457,-5080,-5438,-3223,200,186,815
769657,21742880,20887788,21779448,21025784,3800,3800,2531,11047,-296,-5053,-4983,-4396,202,170,816
770658,21743844,20888740,21780310,21026646,3800,3800,2611,8831,-337,-5167,-4617,-4984,202,170,816
771658,21744836,20889568,21781172,21027508,3800,3800,2705,6623,-453,-5253,-4564,-4841,208,182,816
772660,21745880,20890340,21782034,21028370,3800,3800,2692,4676,-586,-5434,-4304,-4108,208,182,816
773661,21746868,20891252,21782896,21029232,3800,3800,2584,3058,-696,-5757,-3197,-3729,212,183,815
774671,21747888,20892112,21783764,21030100,3800,3800,2363,1528,-804,-6111,-1409,-3523,212,183,815
775663,21749004,20893060,21784626,21030962,3800,3800,2125,47,-885,-6054,-1387,-3394,214,174,814
776664,21750048,20894008,21785488,21031824,3800,3800,1827,-1378,-865,-5909,-2252,-2649,214,174,814
777665,21751068,20894980,21786350,21032686,3800,3800,1486,-2521,-724,-5525,-2540,-2038,226,193,815
778666,21752172,20895900,21787212,21033548,3800,3800,1084,-3549,-412,-5218,-3159,-1728,226,193,815
779667,21753108,20896916,21788074,21034410,3800,3800,634,-4581,89,-4717,-3137,-1796,208,203,815
780668,21754048,20897900,21788936,21035272,3800,3800,260,-5872,723,-4049,-2486,-2328,208,203,815
781669,21755056,20898960,21789798,21036134,3800,3800,-158,-7230,1430,-3503,-2307,-1645,211,219,816
782670,21756064,20900068,21790660,21036996,3800,3800,-618,-8239,2161,-3006,-2028,-937,211,219,816
783671,21756996,20901200,21791522,21037858,3800,3800,-1051,-9394,2850,-2541,-460,-1930,214,233,816
784672,21758096,20902316,21792384,21038720,3800,3800,-1455,-10831,3373,-1159,1013,-2520,214,233,816
785673,21759052,20903320,21793246,21039582,3800,3800,-1875,-12521,3792,-466,1869,-2928,197,226,816
786674,21760084,20904400,21794108,21040444,3800,3800,-2162,-14310,4174,-541,1497,-2919,197,226,816
787674,21761184,20905324,21794970,21041306,3800,3800,-2414,-15771,4615,-255,519,-1706,191,202,816
788676,21762320,20906232,21795832,21042168,3800,3800,-2725,-16520,5120,-96,675,186,191,202,816
789677,21763452,20907132,21796694,21043030,3800,3800,-3121,-16471,5664,454,1083,2026,197,209,816
790678,21764656,20908000,21797556,21043892,3800,3800,-3547,-15922,6314,828,571,3302,197,209,816
791679,21765824,20909040,21798418,21044754,3800,3800,-3951,-14951,6979,470,1102,4352,228,208,816
792680,21766944,20910036,21799280,21045616,3800,3800,-4232,-14230,7399,873,1822,3147,228,208,816
793687,21768084,20910972,21800148,21046484,3800,3800,-4280,-14093,7463,2111,1848,1684,235,224,817
794681,21769304,20911928,21801010,21047346,3800,3800,-4144,-14257,7353,2952,1615,1296,235,224,817
795682,21770392,20912888,21801872,21048208,3800,3800,-3967,-14503,7179,3177,664,931,225,220,817
796683,21771416,20913796,21802734,21049070,3800,3800,-3865,-14567,7073,2818,-313,1566,225,220,817
797685,21772528,20914712,21803596,21049932,3800,3800,-3978,-14224,7098,2600,-747,2361,216,208,815
798686,21773576,20915488,21804458,21050794,3800,3800,-4194,-13723,7202,2784,-479,2201,216,208,815
799687,21774432,20916204,21805320,21051656,3800,3800,-4345,-13362,7326,2564,-487,1572,206,158,815
800688,21775428,20916836,21806182,21052518,3800,3800,-4335,-13166,7393,2011,-838,1172,206,158,815
801689,21776260,20917368,21807044,21053380,3800,3800,-4022,-13342,7415,1599,-1212,126,198,124,813
802690,21777096,20917924,21807906,21054242,3800,3800,-3612,-13621,7271,1545,-610,-51,198,124,813
803691,21777920,20918360,21808768,21055104,3800,3800,-3425,-13697,6676,1224,525,162,173,111,812
804691,21778628,20918776,21809630,21055966,3800,3800,-3432,-13574,5816,1071,-357,783,173,111,812
805693,21779316,20919184,21810492,21056828,3800,3800,-3506,-13460,4998,1588,-1640,780,163,96,809
806694,21779988,20919536,21811354,21057690,3800,3800,-3460,-13499,4344,1900,-2605,252,163,96,809
807695,21780524,20919888,21812216,21058552,3800,3800,-3311,-13669,3796,1889,-2959,-21,126,81,807
808695,21781056,20920260,21813078,21059414,3800,3800,-3212,-14020,3268,1887,-2678,-211,126,81,807
809697,21781596,20920580,21813940,21060276,3800,3800,-3188,-14217,2822,2536,-1857,974,123,63,806
810697,21782036,20920884,21814802,21061138,3800,3800,-3216,-14032,2389,3540,-754,1627,123,63,806
811698,21782452,20921128,21815664,21062000,3800,3800,-3398,-13631,1817,4109,324,2832,89,68,805
812706,21782888,20921420,21816532,21062868,3800,3800,-3939,-12373,1129,4449,941,7025,89,68,805
813701,21783272,20921788,21817394,21063730,3800,3800,-5338,-8889,250,5149,2047,16003,76,79,805
814702,21783624,20922076,21818256,21064592,3800,3800,-7353,-3441,285,7908,-2387,20927,76,79,805
815703,21783996,20922352,21819118,21065454,3800,3800,-8952,1069,1013,8208,-3869,15319,67,68,804
816703,21784368,20922656,21819980,21066316,3800,3800,-4766,11168,527,21383,1398,32767,67,68,804
817704,21784732,20922988,21820842,21067178,3800,3800,4495,26887,-1734,29031,5018,27796,68,71,803
818705,21785080,20923308,21821704,21068040,3800,3800,9154,28946,-3179,11409,530,-10986,68,71,803
819706,21785480,20923664,21822566,21068902,3800,3800,9542,22252,-3378,10502,898,-11180,84,57,803
820707,21785876,20924008,21823428,21069764,3800,3800,8679,15013,-2839,10889,-907,-8972,84,57,803
821708,21786288,20924404,21824290,21070626,3800,3800,7179,11673,-1701,11509,-4169,-2046,68,79,804
822710,21786772,20924792,21825152,21071488,3800,3800,4517,12698,-25,12620,-3802,8365,68,79,804
823711,21787224,20925148,21826014,21072350,3800,3800,2116,13782,944,10584,-53,2555,93,69,805
824711,21787736,20925596,21826876,21073212,3800,3800,1073,11908,865,7994,1298,-4338,93,69,805
825713,21788296,20926072,21827738,21074074,3800,3800,1400,7779,387,6378,2718,-7501,90,91,806
826713,21788828,20926536,21828600,21074936,3800,3800,1769,3445,31,5841,3322,-6564,90,91,806
827714,21789384,20927108,21829462,21075798,3800,3800,1753,514,-295,5256,4651,-3530,99,97,807
828715,21790032,20927668,21830324,21076660,3800,3800,1110,-1008,-799,4477,6172,-68,99,97,807
829717,21790668,20928256,21831186,21077522,3800,3800,299,-1490,-1641,2954,6324,1992,129,106,806
830718,21791356,20929016,21832048,21078384,3800,3800,-507,-1489,-2595,476,5703,4419,129,106,806
831726,21792088,20929724,21832916,21079252,3800,3800,-1299,-760,-3410,-1778,5904,7049,143,120,809
832720,21792772,20930488,21833778,21080114,3800,3800,-1989,352,-4068,-3026,5242,7713,143,120,809
833721,21793532,20931228,21834640,21080976,3800,3800,-2476,1878,-4649,-4331,4926,8277,153,149,810
834722,21794276,20932076,21835502,21081838,3800,3800,-2873,3748,-5195,-6153,4495,9282,153,149,810
835723,21795192,20933064,21836364,21082700,3800,3800,-3234,5617,-5714,-7497,3865,9458,154,173,811
836724,21796072,20933884,21837226,21083562,3800,3800,-3568,7498,-5955,-7938,3061,10444,154,173,811
837725,21796948,20934848,21838088,21084424,3800,3800,-3794,9735,-5813,-7990,2262,11140,165,172,813
838726,21797996,20935816,21838950,21085286,3800,3800,-3827,11758,-5435,-8481,1667,9615,165,172,813
839727,21798932,20936720,21839812,21086148,3800,3800,-3648,13143,-4903,-8719,1329,7895,180,193,814
840728,21799964,20937760,21840674,21087010,3800,3800,-3311,13916,-4256,-8629,874,6187,180,193,814
841729,21801012,20938932,21841536,21087872,3800,3800,-2858,14246,-3499,-8656,-23,4609,206,191,814
842730,21801976,20939900,21842398,21088734,3800,3800,-2329,14089,-2635,-8997,-895,3121,206,191,814
843731,21802956,20940912,21843260,21089596,3800,3800,-1753,13474,-1709,-8679,-1434,1770,213,203,816
844731,21804064,20941956,21844122,21090458,3800,3800,-1171,12545,-677,-7966,-2535,835,213,203,816
845733,21805104,20942968,21844984,21091320,3800,3800,-614,11318,461,-7306,-4326,-142,210,198,816
846734,21806036,20944024,21845846,21092182,3800,3800,-68,9672,1644,-6723,-6264,-1436,210,198,816
847735,21807096,20944988,21846708,21093044,3800,3800,538,7611,2789,-5723,-7704,-2296,212,202,815
848736,21808080,20946008,21847570,21093906,3800,3800,1174,5240,3753,-4907,-6783,-3672,212,202,815
849736,21808996,20947024,21848432,21094768,3800,3800,1739,2678,4508,-4503,-5731,-4171,206,204,816
850747,21810020,20947912,21849300,21095636,3800,3800,2136,255,5130,-4204,-6372,-3595,206,204,816
851739,21810908,20948912,21850162,21096498,3800,3800,2374,-1704,5695,-3438,-6670,-1988,207,202,815
852740,21811876,20950048,21851024,21097360,3800,3800,2586,-3144,6205,-2522,-6708,-1247,207,202,815
853741,21812896,20951000,21851886,21098222,3800,3800,2849,-4420,6544,-1809,-6026,-1056,211,210,815
854742,21813836,20952036,21852748,21099084,3800,3800,3177,-5681,6646,-1460,-4829,-1082,211,210,815
855743,21814852,20953012,21853610,21099946,3800,3800,3359,-6662,6508,-1464,-3876,346,195,203,817
856744,21815860,20954100,21854472,21100808,3800,3800,3459,-6934,6223,-1364,-4580,1878,195,203,817
857745,21816980,20955096,21855334,21101670,3800,3800,3484,-6809,5760,-1630,-4196,2358,213,199,816
858746,21817980,20956004,21856196,21102532,3800,3800,3388,-6359,5021,-1730,-3110,3438,213,199,816
859747,21818984,20957072,21857058,21103394,3800,3800,3216,-5745,4175,-1215,-2438,3507,221,195,816
860747,21820000,20957912,21857920,21104256,3800,3800,3037,-5309,3520,-290,-1615,2605,221,195,816
861748,21820988,20958848,21858782,21105118,3800,3800,2833,-5232,3094,408,-1417,1949,216,189,815
862750,21821920,20959936,21859644,21105980,3800,3800,2577,-5096,2872,930,-1510,2287,216,189,815
863751,21823000,20960928,21860506,21106842,3800,3800,2257,-5039,2760,973,-206,1754,200,202,814
864752,21824000,20962004,21861368,21107704,3800,3800,1987,-5247,2666,1550,-929,611,200,202,814
865753,21824960,20963060,21862230,21108566,3800,3800,1785,-5770,2569,1540,-1358,-2,218,223,816
866754,21826124,20964156,21863092,21109428,3800,3800,1544,-6415,2459,1985,-1026,-116,218,223,816
867755,21827176,20965128,21863954,21110290,3800,3800,1072,-7091,2321,2663,253,-506,209,238,817
868756,21828268,20966400,21864816,21111152,3800,3800,135,-7287,2434,3252,1167,1512,209,238,817
869764,21829452,20967520,21865684,21112020,3800,3800,-1250,-6939,2880,3760,291,2195,209,229,818
870758,21830592,20968656,21866546,21112882,3800,3800,-1843,-7656,3129,2359,523,-2992,209,229,818
871759,21831800,20969792,21867408,21113744,3800,3800,-1913,-8962,3316,1834,322,-2205,222,231,819
872760,21832984,20970880,21868270,21114606,3800,3800,-1766,-10023,3532,2006,293,-2357,222,231,819
873761,21834092,20972024,21869132,21115468,3800,3800,-1746,-10847,3836,1870,352,-1999,224,231,818
874762,21835308,20973076,21869994,21116330,3800,3800,-1741,-11050,4193,2070,387,-995,224,231,818
875763,21836492,20974096,21870856,21117192,3800,3800,-1829,-10947,4501,1982,549,-253,243,227,818
876764,21837576,20975088,21871718,21118054,3800,3800,-1871,-10382,4779,1077,721,1033,243,227,818
877765,21838732,20976064,21872580,21118916,3800,3800,-1928,-9713,5028,414,685,1064,219,215,818
878766,21839636,20977016,21873442,21119778,3800,3800,-1907,-9119,5237,342,679,561,219,215,818
879767,21840720,20978056,21874304,21120640,3800,3800,-1925,-8629,5349,412,1418,164,230,207,818
880768,21841628,20978920,21875166,21121502,3800,3800,-1887,-8201,5357,398,1229,-269,230,207,818
881769,21842520,20979660,21876028,21122364,3800,3800,-1805,-7782,5317,-63,515,-263,215,172,817
882770,21843388,20980352,21876890,21123226,3800,3800,-1609,-7274,5231,-208,138,-464,215,172,817
883770,21844140,20980992,21877752,21124088,3800,3800,-1458,-6781,5026,-70,-54,-597,197,150,814
884771,21844896,20981616,21878614,21124950,3800,3800,-1361,-6314,4717,351,-412,-388,197,150,814
885772,21845608,20982088,21879476,21125812,3800,3800,-1290,-5971,4400,900,-858,-398,152,108,811
886773,21846192,20982488,21880338,21126674,3800,3800,-1202,-5731,4074,891,-1051,-553,152,108,811
887775,21846756,20982808,21881200,21127536,3800,3800,-1199,-5544,3752,1189,-1716,-133,152,81,809
888782,21847320,20983120,21882068,21128404,3800,3800,-1366,-5088,3467,2053,-2619,1726,152,81,809
889777,21847820,20983372,21882930,21129266,3800,3800,-1592,-4733,3203,3013,-2664,910,116,68,807
890777,21848264,20983576,21883792,21130128,3800,3800,-1646,-5290,2770,3677,-1522,-2156,116,68,807
891779,21848728,20983724,21884654,21130990,3800,3800,-1621,-6441,2196,4165,-1231,-1983,109,41,805
892779,21849160,20983876,21885516,21131852,3800,3800,-1702,-7431,1536,4640,-467,-647,109,41,805
893780,21849548,20983984,21886378,21132714,3800,3800,-2372,-6946,823,5967,-261,5930,80,40,803
894781,21849948,20984084,21887240,21133576,3800,3800,-3489,-5093,404,7978,-1316,8658,80,40,803
895783,21850320,20984184,21888102,21134438,3800,3800,-4493,-3843,-40,8261,-13,5406,86,29,801
896784,21850640,20984284,21888964,21135300,3800,3800,-5290,-3468,-815,8230,1059,4824,86,29,801
897785,21850972,20984376,21889826,21136162,3800,3800,-6127,-3148,-1740,8937,1349,6183,74,17,801
898786,21851336,20984472,21890688,21137024,3800,3800,-6916,-2697,-2451,9493,84,5750,74,17,801
899787,21851680,20984568,21891550,21137886,3800,3800,-7394,-2650,-2845,9946,-314,3993,71,16,801
900788,21852048,20984652,21892412,21138748,3800,3800,-7747,-2534,-3151,10582,838,5683,71,16,801
901789,21852444,20984736,21893274,21139610,3800,3800,-7164,-725,-3562,11344,2187,9835,80,18,801
902790,21852844,20984864,21894136,21140472,3800,3800,565,16455,-3109,11903,-563,32767,80,18,801
903791,21853280,20985000,21894998,21141334,3800,3800,8860,31203,-2795,14026,451,22698,81,22,802
904792,21853772,20985152,21895860,21142196,3800,3800,10125,31684,-2880,14748,1882,5914,81,22,802
905793,21854260,20985368,21896722,21143058,3800,3800,8144,26980,-3098,14458,2660,-2403,89,36,802
906793,21854808,20985616,21897584,21143920,3800,3800,6066,21979,-3457,13931,2844,-4890,89,36,802
907802,21855384,20985852,21898452,21144788,3800,3800,5246,18751,-3680,12938,3841,-3638,114,56,803
908795,21855960,20986124,21899314,21145650,3800,3800,4458,16575,-3612,11032,4122,-1161,114,56,803
909797,21856580,20986436,21900176,21146512,3800,3800,3126,14784,-4035,9697,5858,-987,120,68,805
910798,21857316,20986724,21901038,21147374,3800,3800,1853,12203,-5003,7885,7363,-3167,120,68,805
911799,21857980,20987080,21901900,21148236,3800,3800,988,8924,-6100,6386,7721,-4908,127,77,806
912800,21858664,20987548,21902762,21149098,3800,3800,429,5359,-7206,5441,7269,-5149,127,77,806
913801,21859428,20987960,21903624,21149960,3800,3800,-302,2125,-8135,2766,7083,-3739,128,84,807
914802,21860228,20988464,21904486,21150822,3800,3800,-982,-1701,-8632,-4111,6048,-4399,128,84,807
915803,21861012,20989000,21905348,21151684,3800,3800,-1556,-6929,-8724,-8161,3351,-4326,160,93,808
916803,21861812,20989564,21906210,21152546,3800,3800,-2217,-10870,-8373,-10391,-221,1229,160,93,808
917805,21862828,20990240,21907072,21153408,3800,3800,-2991,-12532,-7779,-10361,-1088,4570,173,110,809
918806,21863724,20990804,21907934,21154270,3800,3800,-3430,-12852,-7348,-10261,-198,5423,173,110,809
919807,21864684,20991512,21908796,21155132,3800,3800,-3636,-11857,-7059,-10469,-453,8826,183,120,810
920808,21865748,20992164,21909658,21155994,3800,3800,-3917,-8762,-6458,-11864,-1007,13131,183,120,810
921809,21866676,20992968,21910520,21156856,3800,3800,-4270,-5330,-5485,-13198,-1072,12787,199,135,812
922810,21867624,20993756,21911382,21157718,3800,3800,-4569,-2171,-4449,-14199,-2033,12885,199,135,812
923811,21868692,20994716,21912244,21158580,3800,3800,-4615,540,-3239,-16283,-2283,12162,203,173,813
924811,21869672,20995668,21913106,21159442,3800,3800,-4495,3039,-2007,-16175,-2446,11402,203,173,813
925813,21870660,20996576,21913968,21160304,3800,3800,-4231,5341,-888,-15457,-2677,9857,216,183,814
926823,21871704,20997540,21914836,21161172,3800,3800,-3736,6850,285,-15148,-3254,7131,216,183,814
927814,21872596,20998556,21915698,21162034,3800,3800,-3048,7289,1386,-13282,-3035,3368,194,197,815
928816,21873588,20999624,21916560,21162896,3800,3800,-2292,6780,2468,-11499,-2607,1220,194,197,815
929816,21874532,21000636,21917422,21163758,3800,3800,-1502,6083,3581,-9756,-3400,274,207,189,814
930818,21875436,21001696,21918284,21164620,3800,3800,-744,4830,4741,-8432,-4548,-1821,207,189,814
931818,21876316,21002756,21919146,21165482,3800,3800,107,3322,6001,-7539,-5863,-2243,205,200,815
932820,21877320,21003836,21920008,21166344,3800,3800,935,1658,7212,-6094,-5543,-2803,205,200,815
933820,21878236,21004916,21920870,21167206,3800,3800,1743,-166,8245,-4818,-5456,-3367,212,214,816
934822,21879168,21006060,21921732,21168068,3800,3800,2497,-2164,9108,-3642,-5204,-3257,212,214,816
935823,21880196,21007140,21922594,21168930,3800,3800,3226,-3971,9748,-1948,-4586,-2668,217,199,816
936824,21881180,21008092,21923456,21169792,3800,3800,3745,-5446,10152,-730,-4993,-1447,217,199,816
937825,21882168,21009080,21924318,21170654,3800,3800,4307,-6517,10484,254,-5790,-1236,207,208,815
938825,21883180,21010136,21925180,21171516,3800,3800,4749,-7273,10720,956,-7163,16,207,208,815
939826,21884212,21011308,21926042,21172378,3800,3800,5102,-7538,10783,1347,-7733,921,202,206,816
940827,21885188,21012352,21926904,21173240,3800,3800,5415,-7909,10568,1961,-6367,102,202,206,816
941828,21886172,21013384,21927766,21174102,3800,3800,5714,-8231,10179,2204,-6960,1074,186,225,816
942830,21887260,21014520,21928628,21174964,3800,3800,5736,-7754,9830,2606,-7412,3598,186,225,816
943830,21888204,21015656,21929490,21175826,3800,3800,5528,-6456,9344,5829,-8171,3824,205,231,817
944832,21889200,21016724,21930352,21176688,3800,3800,4761,-4871,7180,17097,-14732,223,205,231,817
945839,21890356,21017900,21931220,21177556,3800,3800,4136,-3860,5566,8053,-5053,1032,211,216,817
946834,21891388,21018928,21932082,21178418,3800,3800,3854,-3534,5033,4367,-1597,1819,211,216,817
947834,21892492,21019868,21932944,21179280,3800,3800,3825,-3184,4888,3922,-1433,857,217,197,817
948836,21893632,21020868,21933806,21180142,3800,3800,3781,-3084,4544,3949,-453,62,218,202,817
949836,21894800,21021864,21934668,21181004,3800,3800,3561,-2945,3841,4840,-12,-594,218,202,817
950837,21895924,21022996,21935530,21181866,3800,3800,3179,-2991,3150,4919,380,-641,201,201,816
951838,21897128,21024000,21936392,21182728,3800,3800,2761,-3107,2634,5329,1045,-1118,201,201,816
952839,21898232,21025140,21937254,21183590,3800,3800,2248,-3391,2216,6129,696,-1567,220,214,816
953841,21899360,21026172,21938116,21184452,3800,3800,1844,-3735,1936,6533,-418,-2063,220,214,816
954841,21900532,21027332,21938978,21185314,3800,3800,1459,-4332,1837,6803,-1326,-2920,224,226,818
955842,21901600,21028468,21939840,21186176,3800,3800,1190,-5281,1809,6248,-1318,-3822,224,226,818
956843,21902644,21029700,21940702,21187038,3800,3800,895,-6399,1720,5881,-85,-4057,211,250,818
957844,21903808,21030732,21941564,21187900,3800,3800,651,-7514,1525,6074,455,-4949,211,250,818
958846,21904836,21031956,21942426,21188762,3800,3800,488,-8723,1347,5422,1477,-5475,227,244,818
959846,21905748,21033140,21943288,21189624,3800,3800,408,-9582,1218,4459,2139,-4672,227,244,818
960848,21906720,21034320,21944150,21190486,3800,3800,292,-9924,1217,3064,1857,-3385,217,260,818
961849,21907756,21035580,21945012,21191348,3800,3800,227,-9483,1414,1884,2033,-1787,217,260,818
962850,21908644,21036660,21945874,21192210,3800,3800,254,-8581,1579,1278,3103,-1360,208,243,818
963851,21909508,21037668,21946736,21193072,3800,3800,204,-7288,1589,12,3538,-240,208,243,818
964859,21910464,21038636,21947604,21193940,3800,3800,15,-5491,1661,-820,2788,1079,210,201,817
965853,21911272,21039592,21948466,21194802,3800,3800,-343,-3470,1756,-712,2665,1077,210,201,817
966854,21911980,21040504,21949328,21195664,3800,3800,-614,-1677,1790,-893,2229,343,189,181,815
967855,21912772,21041400,21950190,21196526,3800,3800,-779,-50,1870,-733,1275,687,189,181,815
968856,21913432,21042168,21951052,21197388,3800,3800,-802,1553,2093,-748,310,877,147,167,813
969857,21914080,21042924,21951914,21198250,3800,3800,-854,2994,2359,-663,24,413,147,167,813
970858,21914732,21043652,21952776,21199112,3800,3800,-937,4126,2494,41,120,-911,139,148,811
971859,21915288,21044276,21953638,21199974,3800,3800,-1156,4512,2305,669,1159,-2323,139,148,811
972859,21915852,21044892,21954500,21200836,3800,3800,-1497,4453,1731,1693,2811,-2187,121,117,808
973861,21916404,21045364,21955362,21201698,3800,3800,-2206,4811,917,2827,3257,849,121,117,808
974862,21916904,21045804,21956224,21202560,3800,3800,-2902,4812,60,3487,1477,-1908,105,95,807
975862,21917392,21046180,21957086,21203422,3800,3800,-3232,3859,-781,4033,727,-3799,105,95,807
976863,21917940,21046456,21957948,21204284,3800,3800,-3605,3134,-1499,4634,-1010,-151,108,64,806
977865,21918460,21046700,21958810,21205146,3800,3800,-4307,3121,-2186,5227,-1476,2054,108,64,806
978866,21918960,21046860,21959672,21206008,3800,3800,-5212,3519,-2887,5824,-2042,2979,98,44,805
979867,21919544,21046984,21960534,21206870,3800,3800,-6043,3441,-3675,6107,-1621,1523,98,44,805
980867,21920032,21047064,21961396,21207732,3800,3800,-6771,2872,-4626,6439,-760,1372,105,16,803
981869,21920604,21047072,21962258,21208594,3800,3800,-7546,2158,-5650,6600,50,1814,105,16,803
982870,21921116,21047084,21963120,21209456,3800,3800,-8357,1636,-6639,6489,627,2447,108,13,802
983877,21921772,21047104,21963988,21210324,3800,3800,-9080,1212,-7464,6364,136,2760,108,13,802
984871,21922384,21047096,21964850,21211186,3800,3800,-9699,920,-8064,6194,-401,3456,132,15,802
985873,21922968,21047120,21965712,21212048,3800,3800,-10232,745,-8491,6085,-281,4199,132,15,802
986874,21923692,21047136,21966574,21212910,3800,3800,-10633,676,-8861,6329,295,4515,123,13,803
987875,21924368,21047128,21967436,21213772,3800,3800,-10998,602,-9340,6231,1553,4853,123,13,803
988875,21925024,21047140,21968298,21214634,3800,3800,-7693,5933,-9131,2927,-4375,23259,142,6,804
989877,21925816,21047160,21969160,21215496,3800,3800,2633,28010,-6947,-2900,-14577,32767,142,6,804
990878,21926624,21047216,21970022,21216358,3800,3800,9415,32297,-5969,8314,-163,12174,138,18,804
991879,21927404,21047328,21970884,21217220,3800,3800,9938,32297,-6425,10688,4935,6724,138,18,804
992880,21928312,21047440,21971746,21218082,3800,3800,9307,24481,-7304,11099,3859,22217,158,39,805
993881,21929200,21047600,21972608,21218944,3800,3800,9639,13043,-7359,1874,768,16243,158,39,805
994882,21930068,21047820,21973470,21219806,3800,3800,9484,4108,-5898,-8695,1393,-72,149,43,805
995883,21931056,21048044,21974332,21220668,3800,3800,8378,-3238,-3625,-20417,3376,-6775,149,43,805
996883,21931928,21048308,21975194,21221530,3800,3800,6745,-8066,-1807,-18311,4438,-943,184,55,807
997885,21932848,21048624,21976056,21222392,3800,3800,4752,-9111,-1079,-9610,4122,4167,184,55,807
998886,21933852,21048976,21976918,21223254,3800,3800,3260,-8423,-996,-6944,2835,3010,169,83,809
999887,21934776,21049340,21977780,21224116,3800,3800,2370,-8232,-1146,-6376,2643,1166,169,83,809
1000887,21935708,21049712,21978642,21224978,3800,3800,1883,-9563,-1321,-6918,2324,-1067,175,83,809
1001889,21936688,21050156,21979504,21225840,3800,3800,1492,-10410,-1244,-8371,1423,1952,175,83,809
1002899,21937552,21050596,21980372,21226708,3800,3800,1055,-10329,-813,-10945,149,3551,176,93,810
1003891,21938416,21051076,21981234,21227570,3800,3800,610,-9549,-127,-12369,-1060,5022,176,93,810
1004891,21939260,21051608,21982096,21228432,3800,3800,50,-8039,812,-12790,-1787,6918,181,105,810
1005893,21940172,21052148,21982958,21229294,3800,3800,-441,-6107,1926,-13064,-2340,6959,181,105,810
1006894,21940956,21052648,21983820,21230156,3800,3800,-821,-4712,3078,-13577,-2647,5799,174,114,809
1007895,21941704,21053216,21984682,21231018,3800,3800,-909,-3751,4282,-13351,-2825,4836,174,114,809
1008895,21942536,21053764,21985544,21231880,3800,3800,-839,-3160,5458,-11829,-2945,3410,167,126,810
1009897,21943240,21054364,21986406,21232742,3800,3800,-626,-3123,6551,-10750,-2931,1335,167,126,810
1010898,21943968,21054988,21987268,21233604,3800,3800,-371,-3536,7570,-9400,-2410,669,146,116,809
1011899,21944652,21055644,21988130,21234466,3800,3800,-180,-4218,8422,-6777,-1445,-305,146,116,809
1012900,21945344,21056204,21988992,21235328,3800,3800,-17,-5257,9125,-4191,-1194,-2037,147,129,810
1013901,21946016,21056832,21989854,21236190,3800,3800,264,-6864,9699,-2950,-1417,-4123,147,129,810
1014902,21946780,21057476,21990716,21237052,3800,3800,635,-8933,10149,-1836,-1502,-4739,156,130,809
1015903,21947500,21058192,21991578,21237914,3800,3800,956,-10516,10656,-246,-2247,-2710,156,130,809
1016903,21948216,21058888,21992440,21238776,3800,3800,1166,-11383,11207,1046,-2109,-1706,147,135,809
1017904,21949048,21059624,21993302,21239638,3800,3800,1379,-12032,11450,1414,-748,-1973,147,135,809
1018905,21949820,21060368,21994164,21240500,3800,3800,1698,-12702,11398,1575,-644,-1921,154,152,810
1019906,21950592,21061180,21995026,21241362,3800,3800,2067,-12983,11238,2116,-1654,-661,154,152,810
1020907,21951492,21061940,21995888,21242224,3800,3800,2369,-12713,11047,2487,-2641,576,174,166,811
1021915,21952304,21062888,21996756,21243092,3800,3800,2581,-11931,10772,2344,-2962,1647,174,166,811
1022909,21953104,21063716,21997618,21243954,3800,3800,2770,-10862,10351,1963,-2918,1877,166,171,812
1023910,21954016,21064628,21998480,21244816,3800,3800,2915,-9549,9830,1864,-2639,2543,166,171,812
1024911,21954892,21065640,21999342,21245678,3800,3800,2926,-7850,9320,1934,-2647,3171,177,182,813
1025912,21955736,21066480,22000204,21246540,3800,3800,2865,-5932,8839,1748,-3166,3440,177,182,813
1026914,21956656,21067676,22001066,21247402,3800,3800,2787,-3870,8297,1438,-3531,3496,182,181,813
1027914,21957668,21068684,22001928,21248264,3800,3800,2714,-1862,7811,1526,-3984,3236,182,181,813
1028916,21958616,21069716,22002790,21249126,3800,3800,2611,-221,7397,2483,-4176,2100,187,198,814
1029917,21959600,21070792,22003652,21249988,3800,3800,2445,898,6972,4007,-4293,614,187,198,814
1030918,21960636,21071860,22004514,21250850,3800,3800,2259,1774,6591,5148,-4435,-230,186,196,815
1031919,21961668,21073008,22005376,21251712,3800,3800,2130,2260,6232,5558,-4601,-1440,186,196,815
1032920,21962704,21074160,22006238,21252574,3800,3800,2080,2250,5872,5712,-4773,-2287,202,211,816
1033920,21963824,21075156,22007100,21253436,3800,3800,2084,1833,5495,6641,-4697,-3222,202,211,816
1034922,21964868,21076104,22007962,21254298,3800,3800,2086,1385,5096,8402,-4533,-3728,210,206,817
1035923,21965836,21077084,22008824,21255160,3800,3800,2104,704,4726,9025,-4099,-4820,210,206,817
1036924,21966956,21077968,22009686,21256022,3800,3800,2122,-643,4270,8896,-3908,-6139,209,196,815
1037925,21967888,21078832,22010548,21256884,3800,3800,2123,-2164,3738,9152,-3867,-6279,209,196,815
1038926,21968840,21079636,22011410,21257746,3800,3800,2056,-3480,3258,9543,-3506,-5962,204,169,814
1039926,21969928,21080464,22012272,21258608,3800,3800,1930,-4393,2786,9430,-3170,-5374,204,169,814
1040934,21970756,21081236,22013140,21259476,3800,3800,1770,-5052,2268,8567,-2512,-4650,189,176,814
1041928,21971652,21082016,22014002,21260338,3800,3800,1600,-5152,1758,7761,-2379,-3183,189,176,814
1042930,21972624,21082720,22014864,21261200,3800,3800,1362,-4559,1221,7028,-1975,-1282,188,163,814
1043930,21973552,21083672,22015726,21262062,3800,3800,1159,-3446,735,5737,-1395,-622,188,163,814
1044931,21974456,21084456,22016588,21262924,3800,3800,980,-2324,260,4706,-359,-221,190,168,814
1045932,21975428,21085248,22017450,21263786,3800,3800,709,-1052,-410,3425,1486,481,190,168,814
1046934,21976328,21086044,22018312,21264648,3800,3800,163,697,-1233,2346,2591,2044,210,163,814
1047935,21977172,21086816,22019174,21265510,3800,3800,-352,2762,-1973,1567,2777,1958,210,163,814
1048936,21977976,21087752,22020036,21266372,3800,3800,-805,4602,-2676,1428,3709,1740,184,175,813
1049936,21978792,21088620,22020898,21267234,3800,3800,-1319,6556,-3312,2219,5112,1646,184,175,813
1050938,21979492,21089416,22021760,21268096,3800,3800,-1960,7946,-3888,2097,7112,-247,170,155,812
1051939,21980080,21090328,22022622,21268958,3800,3800,-2477,8215,-4496,1791,7667,-2732,170,155,812
1052939,21980708,21091216,22023484,21269820,3800,3800,-2819,7537,-5049,2561,6827,-4177,135,185,811
1053940,21981260,21092128,22024346,21270682,3800,3800,-2998,6495,-5467,3731,6097,-4916,135,185,811
1054942,21981764,21093124,22025208,21271544,3800,3800,-3100,5508,-5541,4380,4504,-4384,126,205,811
1055942,21982320,21093996,22026070,21272406,3800,3800,-3317,4678,-5421,3975,4241,-3271,126,205,811
1056944,21982800,21095124,22026932,21273268,3800,3800,-3784,4140,-5317,4271,4243,-1893,106,208,811
1057944,21983292,21096160,22027794,21274130,3800,3800,-4532,3829,-5268,5077,3790,-1222,106,208,811
1058946,21983820,21097224,22028656,21274992,3800,3800,-5457,3800,-5320,5403,3721,263,118,211,811
1059954,21984332,21098404,22029524,21275860,3800,3800,-6458,4083,-5307,4887,2453,2329,118,211,811
1060948,21984888,21099392,22030386,21276722,3800,3800,-7347,4596,-5089,4176,1164,2984,99,203,811
1061948,21985476,21100348,22031248,21277584,3800,3800,-7913,4954,-4772,3513,1046,1930,99,203,811
1062949,21986020,21101308,22032110,21278446,3800,3800,-8370,5223,-4577,2840,950,2616,129,204,812
1063951,21986652,21102240,22032972,21279308,3800,3800,-8816,5628,-4584,1972,1157,3527,129,204,812
1064951,21987348,21103184,22033834,21280170,3800,3800,-9323,6374,-4744,1439,1087,5040,144,197,811
1065952,21988016,21104076,22034696,21281032,3800,3800,-9734,7255,-5025,1379,922,4865,144,197,811
1066953,21988700,21104912,22035558,21281894,3800,3800,-9981,7656,-5395,1534,122,3744,134,203,811
1067954,21989464,21105740,22036420,21282756,3800,3800,-9977,7791,-5784,1454,-542,3494,134,203,811
1068955,21990220,21106564,22037282,21283618,3800,3800,-9893,7761,-6218,959,-400,3229,169,192,812
1069956,21990960,21107292,22038144,21284480,3800,3800,-9799,7896,-6571,301,-1157,4450,169,192,812
1070958,21991760,21108076,22039006,21285342,3800,3800,-9829,8641,-6728,-314,-2285,6741,158,165,811
1071958,21992696,21108784,22039868,21286204,3800,3800,-9799,9576,-6771,-1124,-2019,6646,158,165,811
1072959,21993596,21109420,22040730,21287066,3800,3800,-9513,10042,-6750,-1804,-1401,5076,158,139,810
1073960,21994484,21110024,22041592,21287928,3800,3800,-9011,10039,-6629,-2517,-1521,4571,158,139,810
1074961,21995524,21110552,22042454,21288790,3800,3800,-8512,10088,-6401,-3459,-1283,5325,177,117,811
1075962,21996500,21111064,22043316,21289652,3800,3800,-8167,10360,-6217,-4599,-633,5770,177,117,811
1076963,21997460,21111528,22044178,21290514,3800,3800,-6960,10705,-6068,-8030,-1930,11772,170,97,810
1077964,21998532,21111932,22045040,21291376,3800,3800,2942,10752,-4007,-27326,-17072,32767,170,97,810
1078974,21999456,21112284,22045908,21292244,3800,3800,14145,11738,-1562,-20398,-12036,32767,180,93,811
1079967,22000472,21112636,22046770,21293106,3800,3800,16787,11327,-588,-12149,-1180,5209,180,93,811
1080967,22001528,21112916,22047632,21293968,3800,3800,14888,6895,-67,-22089,-1582,-1659,183,71,809
1081969,22002460,21113188,22048494,21294830,3800,3800,12770,548,370,-18355,-2703,-1353,183,71,809
1082969,22003416,21113424,22049356,21295692,3800,3800,11538,-1944,822,-12641,-2250,5640,181,50,809
1083970,22004376,21113620,22050218,21296554,3800,3800,10630,-114,1482,-10557,-1427,9335,181,50,809
1084971,22005300,21113824,22051080,21297416,3800,3800,9572,1834,2107,-9870,-2580,6635,176,46,808
1085972,22006128,21114044,22051942,21298278,3800,3800,7608,3277,3154,-7939,-4585,9539,176,46,808
1086973,22007036,21114236,22052804,21299140,3800,3800,5211,4511,4747,-7437,-5825,7954,177,51,807
1087974,22007824,21114416,22053666,21300002,3800,3800,3409,4112,5839,-7298,-3537,1226,177,51,807
1088975,22008536,21114600,22054528,21300864,3800,3800,2457,1890,6175,-8590,-428,-1547,180,53,807
1089976,22009300,21114772,22055390,21301726,3800,3800,1766,-837,6426,-7787,-245,-2442,180,53,807
1090977,22009896,21114932,22056252,21302588,3800,3800,732,-3437,6894,-4765,-422,-2946,136,35,805
1091979,22010472,21115088,22057114,21303450,3800,3800,-515,-5884,7554,-2888,1165,-2881,136,35,805
1092980,22010996,21115296,22057976,21304312,3800,3800,-1556,-8698,8077,-1034,2198,-4244,116,33,803
1093981,22011512,21115472,22058838,21305174,3800,3800,-2316,-11671,8463,1509,1940,-4303,116,33,803
1094982,22011928,21115700,22059700,21306036,3800,3800,-3081,-14439,9027,2990,1024,-3014,98,33,802
1095983,22012372,21115888,22060562,21306898,3800,3800,-3890,-16897,9762,3584,280,-2345,98,33,802
1096984,22012812,21116096,22061424,21307760,3800,3800,-4517,-19440,10412,3816,-555,-2925,84,56,803
1097992,22013196,21116348,22062292,21308628,3800,3800,-5021,-21612,10903,4598,-900,-1500,84,56,803
1098986,22013640,21116600,22063154,21309490,3800,3800,-5495,-23314,11225,5665,-975,-678,74,46,803
1099987,22014136,21116864,22064016,21310352,3800,3800,-6125,-24442,11418,5411,-1294,1401,74,46,803
1100988,22014700,21117132,22064878,21311214,3800,3800,-6975,-24219,11454,4208,-697,6308,96,55,804
1101989,22015168,21117404,22065740,21312076,3800,3800,-7687,-22513,11240,3230,394,9770,96,55,804
1102990,22015760,21117696,22066602,21312938,3800,3800,-8006,-20826,10863,2296,377,7974,115,64,805
1103991,22016292,21117944,22067464,21313800,3800,3800,-7869,-19454,10551,1577,-247,7641,115,64,805
1104992,22016932,21118292,22068326,21314662,3800,3800,-7467,-18550,10255,1782,-540,6792,129,79,805
1105992,22017584,21118648,22069188,21315524,3800,3800,-7008,-17565,9753,1774,-607,6831,129,79,805
1106994,22018236,21118964,22070050,21316386,3800,3800,-6560,-16396,9016,680,-306,6665,128,85,806
1107994,22018812,21119372,22070912,21317248,3800,3800,-6104,-15159,8188,-59,-895,6599,128,85,806
1108996,22019564,21119836,22071774,21318110,3800,3800,-5625,-13946,7439,-136,-1305,6517,125,84,806
1109997,22020208,21120236,22072636,21318972,3800,3800,-5147,-12516,6752,193,-839,6919,125,84,806
1110998,22020876,21120712,22073498,21319834,3800,3800,-4636,-10958,6060,788,-249,6534,140,90,807
1111999,22021588,21121200,22074360,21320696,3800,3800,-3980,-9640,5361,1215,985,5808,140,90,807
1113000,22022444,21121656,22075222,21321558,3800,3800,-3314,-8234,4667,2154,2322,6389,148,106,808
1114001,22023288,21122192,22076084,21322420,3800,3800,-2661,-6733,4009,2852,2383,6165,148,106,808
1115002,22024200,21122736,22076946,21323282,3800,3800,-1922,-5433,3293,2975,3294,5284,145,115,807
1116003,22025180,21123248,22077808,21324144,3800,3800,-1145,-4368,2542,2690,2878,4893,145,115,807
1117010,22026148,21123908,22078676,21325012,3800,3800,-406,-3621,1911,2121,1351,3843,178,114,809
1118005,22027068,21124524,22079538,21325874,3800,3800,438,-3310,1410,1623,573,2254,178,114,809
1119006,22028132,21125264,22080400,21326736,3800,3800,1364,-3291,1034,1634,-161,1434,190,133,812
1120007,22029128,21126032,22081262,21327598,3800,3800,2262,-3282,830,2022,-865,1416,190,133,812
1121008,22030184,21126840,22082124,21328460,3800,3800,3012,-2974,910,2590,-1794,2292,183,147,812
1122009,22031252,21127596,22082986,21329322,3800,3800,3558,-2110,1277,3582,-2003,3666,183,147,812
1123010,22032284,21128488,22083848,21330184,3800,3800,3876,-1254,1606,4537,-1010,3297,196,159,813
1124011,22033232,21129288,22084710,21331046,3800,3800,4053,-446,1706,4998,-561,3003,196,159,813
1125012,22034296,21130264,22085572,21331908,3800,3800,4071,461,1521,4190,-236,3386,193,163,814
1126013,22035332,21131224,22086434,21332770,3800,3800,4002,1126,1072,3532,229,2470,193,163,814
1127014,22036180,21132048,22087296,21333632,3800,3800,3989,1513,728,3943,-630,1786,213,172,814
1128015,22037164,21133048,22088158,21334494,3800,3800,4055,2062,734,4364,-1498,2377,213,172,814
1129016,22038068,21134052,22089020,21335356,3800,3800,4014,2892,974,4428,-2323,3144,218,208,815
1130017,22038936,21135044,22089882,21336218,3800,3800,3912,3749,1225,4189,-2147,2773,218,208,815
1131018,22039860,21136104,22090744,21337080,3800,3800,3818,4557,1510,4579,-2098,3036,214,211,815
1132019,22040712,21137116,22091606,21337942,3800,3800,3790,5452,1761,4594,-1224,2645,214,211,815
1133020,22041576,21138164,22092468,21338804,3800,3800,3778,6201,1825,4164,-369,2431,205,209,814
1134021,22042392,21139040,22093330,21339666,3800,3800,3672,6995,1734,4125,-32,2780,205,209,814
1135022,22043276,21140060,22094192,21340528,3800,3800,3534,7809,1517,3888,440,2622,195,213,814
1136030,22044064,21141144,22095060,21341396,3800,3800,3294,8832,1277,3981,153,3061,195,213,814
1137024,22044848,21142176,22095922,21342258,3800,3800,3028,9622,1034,4273,276,2038,173,211,813
1138025,22045660,21143120,22096784,21343120,3800,3800,2774,10106,847,4915,73,1801,173,211,813
1139026,22046396,21144128,22097646,21343982,3800,3800,2693,10533,696,5391,-103,1235,167,206,812
1140026,22047116,21145128,22098508,21344844,3800,3800,2728,10596,489,5652,-107,-58,167,206,812
1141028,22047908,21146224,22099370,21345706,3800,3800,2837,10331,186,5928,91,-824,158,225,813
1142029,22048620,21147288,22100232,21346568,3800,3800,2862,9983,-219,6121,641,-747,158,225,813
1143030,22049348,21148268,22101094,21347430,3800,3800,2720,9822,-660,6448,1053,-363,157,209,813
1144031,22050148,21149320,22101956,21348292,3800,3800,2452,9699,-1129,6194,1548,-470,157,209,813
1145032,22050884,21150328,22102818,21349154,3800,3800,2129,9640,-1737,5469,2135,-8,144,206,813
1146033,22051644,21151288,22103680,21350016,3800,3800,1844,9720,-2502,4585,2413,241,144,206,813
1147034,22052504,21152352,22104542,21350878,3800,3800,1561,9852,-3334,3820,1315,434,172,199,813
1148035,22053292,21153356,22105404,21351740,3800,3800,1227,9945,-4223,2906,400,327,172,199,813
1149036,22054104,21154324,22106266,21352602,3800,3800,859,9883,-5087,2051,1471,-60,175,193,813
1150037,22054996,21155328,22107128,21353464,3800,3800,504,9621,-5944,1794,2254,-623,175,193,813
1151038,22055860,21156364,22107990,21354326,3800,3800,153,9407,-6617,1608,688,-191,169,208,813
1152039,22056720,21157524,22108852,21355188,3800,3800,-252,9548,-7007,1626,-1561,1132,169,208,813
1153039,22057632,21158572,22109714,21356050,3800,3800,-641,9774,-7297,1381,-2238,592,177,207,814
1154041,22058668,21159732,22110576,21356912,3800,3800,-891,9649,-7575,795,-1246,-249,177,207,814
1155051,22059624,21160848,22111444,21357780,3800,3800,-971,9197,-7823,525,-1202,-1097,201,240,815
1156042,22060660,21161880,22112306,21358642,3800,3800,-1015,8514,-7995,158,-1984,-1506,201,240,815
1157043,22061732,21163024,22113168,21359504,3800,3800,-1045,7937,-7933,-206,-3167,-962,194,243,816
1158045,22062812,21164352,22114030,21360366,3800,3800,-1101,7527,-7725,-446,-3523,-682,194,243,816
1159046,22063932,21165504,22114892,21361228,3800,3800,-1149,7112,-7484,-1078,-3527,-858,213,237,818
1160047,22065016,21166664,22115754,21362090,3800,3800,-1149,6881,-7229,-2380,-3273,-89,213,237,818
1161048,22066088,21167780,22116616,21362952,3800,3800,-1097,6872,-6961,-4018,-3285,362,203,237,817
1162049,22067148,21168808,22117478,21363814,3800,3800,-995,6955,-6613,-5609,-4096,955,203,237,817
1163050,22068240,21169880,22118340,21364676,3800,3800,-897,7430,-6121,-6692,-4362,2366,211,220,817
1164051,22069240,21170852,22119202,21365538,3800,3800,-845,8484,-5523,-7884,-3930,3508,211,220,817
1165052,22070244,21171804,22120064,21366400,3800,3800,-810,9502,-4812,-9540,-3977,3373,231,197,816
1166053,22071296,21172672,22120926,21367262,3800,3800,-739,10356,-4063,-10516,-4421,3433,231,197,816
1167054,22072224,21173540,22121788,21368124,3800,3800,-683,11050,-3257,-11130,-4207,3433,224,195,815
1168055,22073132,21174400,22122650,21368986,3800,3800,-632,11609,-2409,-11226,-3964,2958,224,195,815
1169056,22074108,21175224,22123512,21369848,3800,3800,-655,11867,-1526,-11404,-3868,2467,197,172,814
1170057,22075048,21175936,22124374,21370710,3800,3800,-660,11923,-537,-11625,-3729,2326,197,172,814
1171058,22075864,21176580,22125236,21371572,3800,3800,-730,11680,513,-11032,-3285,1750,200,136,812
1172059,22076712,21177172,22126098,21372434,3800,3800,-849,11022,1539,-9986,-2529,664,200,136,812
1173059,22077652,21177704,22126960,21373296,3800,3800,-1039,9616,2491,-8641,-1742,-1063,168,120,810
1174068,22078476,21178204,22127828,21374164,3800,3800,-1222,7484,3295,-6844,-936,-2892,168,120,810
1175062,22079248,21178596,22128690,21375026,3800,3800,-1602,4718,4143,-7830,205,-3002,159,87,809
1176063,22080096,21178916,22129552,21375888,3800,3800,-1880,353,5438,-14677,1210,-4774,159,87,809
1177064,22080776,21179184,22130414,21376750,3800,3800,-2160,-5322,6817,-13026,1331,-5080,155,70,806
1178065,22081504,21179424,22131276,21377612,3800,3800,-2648,-10024,7804,-7822,1200,-3046,155,70,806
1179066,22082256,21179620,22132138,21378474,3800,3800,-3544,-11606,8477,-2108,2562,3126,155,49,806
1180067,22082956,21179820,22133000,21379336,3800,3800,-5009,-10733,9024,-182,3428,6977,155,49,806
1181067,22083728,21179956,22133862,21380198,3800,3800,-5847,-11627,9300,215,3404,-312,146,45,805
1182069,22084472,21180072,22134724,21381060,3800,3800,-6367,-13512,9376,1353,4433,2070,146,45,805
1183070,22085208,21180204,22135586,21381922,3800,3800,-6920,-14654,9221,2521,5972,4950,154,38,803
1184071,22085956,21180292,22136448,21382784,3800,3800,-7510,-15806,8711,3136,6183,3311,154,38,803
1185072,22086688,21180396,22137310,21383646,3800,3800,-7816,-16878,8094,3588,6339,4615,147,34,805
1186073,22087420,21180492,22138172,21384508,3800,3800,-8262,-17220,7506,5583,6582,8095,147,34,805
1187074,22088088,21180596,22139034,21385370,3800,3800,-8962,-16997,6814,7267,6248,8825,148,35,804
1188075,22088844,21180708,22139896,21386232,3800,3800,-9559,-17083,6171,7363,5684,7760,148,35,804
1189076,22089508,21180844,22140758,21387094,3800,3800,-10174,-17038,5510,7889,5356,9771,134,32,804
1190077,22090268,21180952,22141620,21387956,3800,3800,-10946,-16466,4759,9102,3923,12176,134,32,804
1191078,22091048,21181088,22142482,21388818,3800,3800,-10785,-16106,3997,11220,1873,18742,145,23,804
1192079,22091824,21181240,22143344,21389680,3800,3800,-6928,-16124,2842,15680,-3934,32767,145,23,804
1193087,22092612,21181376,22144212,21390548,3800,3800,-3763,-13285,2139,11564,-3964,32767,136,30,803
1194081,22093496,21181524,22145074,21391410,3800,3800,-3661,-10835,1856,8400,1918,15652,136,30,803
1195081,22094432,21181700,22145936,21392272,3800,3800,-4977,-9843,1329,7658,4152,10760,167,48,805
1196082,22095304,21181912,22146798,21393134,3800,3800,-5999,-9101,508,7416,4510,10151,167,48,805
1197083,22096228,21182132,22147660,21393996,3800,3800,-6066,-9559,-273,6860,3464,4233,171,56,806
1198084,22097136,21182368,22148522,21394858,3800,3800,-5405,-10849,-896,5281,2192,1937,171,56,806
1199086,22097968,21182620,22149384,21395720,3800,3800,-4574,-12278,-1428,3531,2100,1698,160,62,807
1200087,22098748,21182868,22150246,21396582,3800,3800,-3626,-12460,-2355,1552,-266,6413,160,62,807
1201088,22099616,21183160,22151108,21397444,3800,3800,-3308,-11536,-2358,446,-1180,6747,170,68,807
1202088,22100380,21183436,22151970,21398306,3800,3800,-2256,-9521,-2139,-813,-1751,17387,170,68,807
1203090,22101160,21183784,22152832,21399168,3800,3800,-884,-7543,-2099,-1759,-46,12258,165,72,807
1204090,22101812,21184168,22153694,21400030,3800,3800,-75,-6883,-2283,-2057,1618,3782,165,72,807
1205092,22102488,21184496,22154556,21400892,3800,3800,444,-6995,-2452,-2603,741,2838,158,78,807
1206092,22103140,21184900,22155418,21401754,3800,3800,1079,-7178,-2391,-3030,-656,2490,158,78,807
1207094,22103844,21185368,22156280,21402616,3800,3800,1878,-6970,-2108,-3174,-1686,3110,143,86,807
1208095,22104452,21185792,22157142,21403478,3800,3800,2670,-6333,-1753,-3111,-2574,3852,143,86,807
1209096,22105028,21186236,22158004,21404340,3800,3800,3488,-5600,-1312,-3128,-3646,3937,152,106,808
1210097,22105692,21186756,22158866,21405202,3800,3800,4231,-4765,-721,-3138,-4759,4585,152,106,808
1211098,22106244,21187232,22159728,21406064,3800,3800,4679,-3512,-80,-3130,-6100,6216,141,108,807
1212105,22106868,21187776,22160596,21406932,3800,3800,5056,-1613,981,-2362,-8063,7424,141,108,807
1213099,22107428,21188336,22161458,21407794,3800,3800,5501,152,2051,-2399,-6918,6418,110,112,807
1214101,22108020,21188852,22162320,21408656,3800,3800,5988,1722,2785,-1827,-6034,6301,110,112,807
1215102,22108584,21189520,22163182,21409518,3800,3800,6331,3099,3240,-926,-5156,5779,132,115,807
1216103,22109168,21190124,22164044,21410380,3800,3800,6468,4281,3504,-61,-4254,5281,132,115,807
1217104,22109784,21190860,22164906,21411242,3800,3800,6218,5954,3618,656,-3385,7826,135,146,808
1218104,22110392,21191604,22165768,21412104,3800,3800,5369,8521,4035,1629,-5418,10257,135,146,808
1219106,22110964,21192444,22166630,21412966,3800,3800,4771,10425,4640,2421,-5147,5570,129,145,809
1220106,22111656,21193156,22167492,21413828,3800,3800,4681,11070,5089,3075,-3638,2984,129,145,809
1221107,22112248,21194056,22168354,21414690,3800,3800,4822,11035,5253,3669,-1989,2187,132,150,809
1222108,22112860,21194832,22169216,21415552,3800,3800,4858,10991,5236,4399,-1423,2368,132,150,809
1223110,22113568,21195780,22170078,21416414,3800,3800,4791,11063,5310,4879,-2049,1993,134,167,810
1224111,22114244,21196716,22170940,21417276,3800,3800,4649,10999,5443,5169,-2015,1579,134,167,810
1225112,22114932,21197508,22171802,21418138,3800,3800,4462,10795,5464,5649,-1564,1283,150,187,811
1226113,22115712,21198616,22172664,21419000,3800,3800,4254,10434,5339,5782,-1103,1093,150,187,811
1227114,22116436,21199592,22173526,21419862,3800,3800,3979,10153,5163,5785,-1464,1542,156,200,812
1228115,22117216,21200560,22174388,21420724,3800,3800,3625,10081,4965,5734,-1258,2034,156,200,812
1229116,22118064,21201660,22175250,21421586,3800,3800,3277,9966,4650,5282,-148,1574,174,201,813
1230117,22118972,21202768,22176112,21422448,3800,3800,3008,9746,4145,4735,593,1202,174,201,813
1231127,22119796,21203844,22176980,21423316,3800,3800,2828,9518,3521,4068,601,1431,182,222,814
1232119,22120712,21204812,22177842,21424178,3800,3800,2673,9486,2914,3136,222,2065,182,222,814
1233120,22121640,21205840,22178704,21425040,3800,3800,2451,9606,2279,2448,133,2207,194,216,814
1234121,22122604,21206884,22179566,21425902,3800,3800,2248,9652,1539,1853,233,1538,194,216,814
1235122,22123548,21207900,22180428,21426764,3800,3800,2075,9508,668,1463,600,1196,212,203,814
1236123,22124700,21208752,22181290,21427626,3800,3800,1965,9309,-291,1175,903,845,212,203,814
1237124,22125812,21209696,22182152,21428488,3800,3800,1877,9139,-1183,792,350,1081,209,202,813
1238125,22126844,21210632,22183014,21429350,3800,3800,1811,9223,-1957,280,-58,1475,209,202,813
1239126,22128092,21211576,22183876,21430212,3800,3800,1807,9324,-2644,-383,-59,1215,209,210,815
1240127,22129136,21212572,22184738,21431074,3800,3800,1874,9438,-3296,-1178,-134,1141,209,210,815
1241128,22130232,21213588,22185600,21431936,3800,3800,1947,9481,-3928,-2361,153,959,228,203,816
1242129,22131416,21214540,22186462,21432798,3800,3800,1977,9482,-4584,-3442,608,937,228,203,816
1243130,22132464,21215532,22187324,21433660,3800,3800,1958,9459,-5276,-3989,-170,952,234,201,816
1244131,22133540,21216476,22188186,21434522,3800,3800,1907,9449,-5870,-4124,-1421,798,234,201,816
1245131,22134624,21217456,22189048,21435384,3800,3800,1832,9346,-6259,-4131,-768,582,206,194,815
