"Data file recorded 2014/9/24  14:56:49"
"%  Right Stride Frequency         = 7.0"
"%  Left Stride Frequency         = 7.0"
"%  Phase (Fractional)         = 32768.0"
"%  Experiment.py "
"%  Motor Gains    = [1800, 200, 100, 0, 0, 1800, 200, 100, 0, 0]
"% Columns: "
"% time | Right Leg Pos | Left Leg Pos | Commanded Right Leg Pos | Commanded Left Leg Pos | DCR | DCL | GyroX | GryoY | GryoZ | AX | AY | AZ | RBEMF | LBEMF | VBatt "
10970,7260484,7932860,7220310,7973974,-3800,3800,-312,-2891,780,702,-223,4075,-3,-4,867
11971,7260480,7932884,7220778,7974442,-3800,3800,-309,-2890,778,674,-215,4047,-12,-7,867
12972,7260448,7932968,7221246,7974910,-3800,3800,-308,-2889,778,687,-216,4037,-12,-7,867
13973,7260288,7933084,7221714,7975378,-3800,3800,-307,-2894,783,695,-229,4023,-36,3,834
14974,7260056,7933256,7222182,7975846,-3800,3800,-311,-2859,773,662,-184,4079,-36,3,834
15975,7259796,7933468,7222650,7976314,-3800,3800,-331,-2858,745,652,141,4089,-61,17,835
16976,7259456,7933692,7223118,7976782,-3800,3800,-374,-2828,705,915,426,4039,-61,17,835
17977,7259044,7933932,7223586,7977250,-3800,3800,-440,-2880,653,1240,807,3791,-77,31,836
18978,7258596,7934152,7224054,7977718,-3800,3800,-505,-2998,570,1536,1507,3561,-77,31,836
19979,7258160,7934404,7224522,7978186,-3800,3800,-564,-3163,481,1857,1501,3422,-79,39,837
20980,7257564,7934648,7224990,7978654,-3800,3800,-622,-3297,421,2223,938,3552,-79,39,837
21981,7257060,7934884,7225458,7979122,-3800,3800,-681,-3315,393,2530,366,3788,-100,28,839
22982,7256376,7935104,7225926,7979590,-3800,3800,-726,-3322,371,2681,57,3666,-100,28,839
23983,7255688,7935324,7226394,7980058,-3800,3800,-751,-3337,312,2898,164,3634,-126,25,839
24984,7254932,7935512,7226862,7980526,-3800,3800,-783,-3391,220,3069,274,3670,-126,25,839
25985,7254196,7935736,7227330,7980994,-3800,3800,-838,-3336,106,3224,144,3846,-128,22,838
26986,7253308,7935904,7227798,7981462,-3800,3800,-912,-3231,-19,3285,-53,3810,-128,22,838
27987,7252472,7936048,7228266,7981930,-3800,3800,-1019,-3014,-120,3416,-260,4095,-150,20,840
28988,7251600,7936164,7228734,7982398,-3800,3800,-1172,-2651,-179,3560,-575,4395,-150,20,840
29976,7250716,7936284,7229202,7982866,-3563,3800,-1344,-2135,-235,3209,-483,4384,-165,6,840
30977,7249860,7936392,7229670,7983334,-3160,3800,-1632,-1488,-276,2762,-572,4036,-165,6,840
31978,7248968,7936480,7230138,7983802,-2341,3800,-1817,-1102,-149,3068,-564,4789,-163,12,837
32979,7248084,7936564,7230606,7984270,-1800,3800,-1946,-706,90,3069,-503,4217,-163,12,837
33980,7247308,7936648,7231074,7984738,-1932,3800,-1985,-533,322,2916,-280,3520,-173,11,841
34981,7246620,7936724,7231542,7985206,-1978,3800,-1995,-519,536,2514,-118,3561,-173,11,841
35982,7245964,7936804,7232010,7985674,-1686,3800,-2023,-456,796,2330,-220,4111,-124,2,843
36983,7245340,7936908,7232478,7986142,-1409,3800,-2105,-118,1108,2290,-551,4749,-124,2,843
37984,7244832,7937020,7232946,7986610,-1708,3800,-2168,292,1459,1880,-477,4689,-96,-1,843
38985,7244396,7937072,7233414,7987078,-1763,3800,-2272,590,1753,1387,-86,4680,-96,-1,843
39986,7243988,7937156,7233882,7987546,-1555,3800,-2374,791,1946,1061,-191,4451,-88,12,845
40987,7243696,7937256,7234350,7988014,-1948,3800,-2520,1133,2143,737,-740,5155,-88,12,845
41988,7243432,7937348,7234818,7988482,-1803,3800,-2697,1555,2407,695,-1427,5369,-68,14,844
42989,7243160,7937436,7235286,7988950,-1429,3800,-2877,1948,2678,910,-1586,5442,-68,14,844
43990,7242984,7937516,7235754,7989418,-1748,3800,-2995,2340,2883,733,-1235,5461,-40,1,842
44998,7242824,7937604,7236226,7989890,867,3800,-3083,2667,2967,579,-819,5522,-40,1,842
45992,7242696,7937672,7236694,7990358,928,3800,-2665,3600,3080,238,-1949,11179,-39,18,844
46993,7242664,7937756,7237162,7990826,546,3800,-714,7621,3533,-273,-5637,32767,-39,18,844
47994,7242668,7937812,7237630,7991294,524,3800,1026,10229,3809,731,-2144,12641,7,7,845
48995,7242672,7937892,7238098,7991762,726,3800,1393,9860,3795,949,-732,1973,7,7,845
49996,7242672,7937976,7238566,7992230,957,3800,1094,8033,3748,876,-1383,764,-1,19,847
50997,7242688,7938068,7239034,7992698,1055,3800,800,6326,3732,699,-1824,972,-1,19,847
51998,7242720,7938148,7239502,7993166,1145,3800,717,5244,3724,-16,-1415,1271,0,15,846
52999,7242728,7938220,7239970,7993634,1496,3800,729,4308,3667,-398,-986,1277,0,15,846
54000,7242760,7938324,7240438,7994102,1538,3800,750,3506,3483,-830,-326,1605,11,26,845
55001,7242792,7938412,7240906,7994570,1729,3800,756,2461,3189,-1527,769,1445,11,26,845
56002,7242812,7938488,7241374,7995038,2001,3800,697,1500,2738,-1730,1702,2105,12,11,843
57003,7242900,7938584,7241842,7995506,1743,3800,538,741,2233,-2192,1565,2602,12,11,843
58004,7243020,7938664,7242310,7995974,1695,3800,377,133,1764,-2780,1557,2928,34,17,842
59004,7243172,7938772,7242778,7996442,1634,3800,202,-390,1298,-2975,1739,3205,34,17,842
60006,7243324,7938860,7243246,7996910,1772,3800,-9,-941,818,-3363,2167,3355,39,18,842
61007,7243508,7938972,7243714,7997378,1697,3800,-254,-1339,341,-3532,2526,3694,39,18,842
62008,7243700,7939128,7244182,7997846,1768,3800,-444,-1892,-112,-3459,2634,3176,23,20,844
63009,7243928,7939228,7244650,7998314,1650,3800,-585,-2508,-461,-3275,2614,3569,23,20,844
64010,7244136,7939396,7245118,7998782,1889,3800,-673,-3004,-696,-3104,2632,3649,44,35,841
65011,7244448,7939560,7245586,7999250,1308,3800,-685,-3732,-873,-3068,2464,2688,44,35,841
66012,7244728,7939756,7246054,7999718,1590,3800,-615,-4580,-1014,-3119,2334,2669,49,28,844
67013,7245016,7939952,7246522,8000186,1619,3800,-477,-5503,-1091,-3126,2052,2477,49,28,844
68014,7245340,7940184,7246990,8000654,1459,3800,-303,-6455,-1088,-2930,1720,2473,65,46,846
69015,7245624,7940432,7247458,8001122,1789,3800,-82,-7253,-971,-2907,1429,2838,65,46,846
70016,7245996,7940684,7247926,8001590,1282,3800,193,-7971,-730,-2876,886,3071,62,50,844
71017,7246324,7940928,7248394,8002058,1619,3800,497,-8545,-419,-2666,335,3401,62,50,844
72018,7246716,7941212,7248862,8002526,1253,3800,802,-9032,-64,-2684,-115,3725,85,46,845
73019,7247112,7941540,7249330,8002994,1259,3800,1078,-9404,258,-2742,140,3969,85,46,845
74020,7247504,7941908,7249798,8003462,1319,3800,1308,-9758,522,-2781,298,4027,89,68,845
75021,7247928,7942236,7250266,8003930,1138,3800,1510,-10001,766,-2857,368,4360,89,68,845
76022,7248332,7942604,7250734,8004398,1292,3800,1674,-10173,995,-2858,506,4471,75,64,847
77023,7248788,7943032,7251202,8004866,972,3800,1804,-10238,1199,-2889,582,4550,75,64,847
78024,7249284,7943436,7251670,8005334,711,3800,1949,-10264,1374,-3112,864,4575,95,72,848
79025,7249688,7943920,7252138,8005802,1314,3800,2124,-10202,1515,-3052,1208,4728,95,72,848
80033,7250128,7944456,7252610,8006274,1104,3800,2324,-10162,1627,-2937,1386,4377,95,87,849
81027,7250552,7944936,7253078,8006742,1224,3800,2516,-10096,1745,-2775,1101,4548,95,87,849
82028,7250900,7945432,7253546,8007210,1752,3800,2735,-10048,1906,-2579,743,4137,84,103,847
83029,7251300,7945996,7254014,8007678,1457,3800,2951,-10138,2080,-2249,237,3632,84,103,847
84030,7251756,7946552,7254482,8008146,1113,3800,3156,-10182,2251,-1820,-208,3373,98,110,850
85031,7252180,7947232,7254950,8008614,1333,3800,3322,-10372,2416,-1673,-402,2835,98,110,850
86032,7252600,7947836,7255418,8009082,1380,3800,3466,-10590,2564,-1676,-533,2608,102,108,848
87033,7253004,7948552,7255886,8009550,1508,3800,3576,-10862,2717,-1475,-766,2261,102,108,848
88034,7253484,7949136,7256354,8010018,1029,3800,3649,-11058,2887,-1198,-1255,2283,86,113,850
89035,7253912,7949872,7256822,8010486,1371,3800,3629,-11065,3075,-1322,-1802,2596,86,113,850
90036,7254296,7950520,7257290,8010954,1684,3800,3598,-10953,3305,-1519,-2411,2556,95,143,850
91037,7254776,7951392,7257758,8011422,1079,3800,3534,-10644,3582,-1692,-2992,3015,95,143,850
92038,7255188,7952168,7258226,8011890,1530,3800,3458,-10256,3882,-1760,-3308,2898,100,150,851
93039,7255556,7953016,7258694,8012358,1850,3800,3372,-9937,4124,-1528,-3172,2455,100,150,851
94040,7255972,7953916,7259162,8012826,1572,3800,3269,-9710,4313,-1176,-3235,2176,86,166,852
95041,7256344,7954764,7259630,8013294,1891,3800,3196,-9606,4518,-669,-3302,1585,86,166,852
96042,7256700,7955788,7260098,8013762,2040,3800,3100,-9471,4756,-154,-3587,1519,90,157,850
97043,7257108,7956696,7260566,8014230,1742,3800,3017,-9434,5038,279,-3660,920,90,157,850
98044,7257468,7957592,7261034,8014698,2091,3800,2942,-9496,5333,856,-3645,573,80,164,851
99044,7257840,7958632,7261502,8015166,2058,3800,2908,-9682,5595,1152,-3599,55,80,164,851
100046,7258220,7959612,7261970,8015634,2047,3800,2867,-9905,5846,1418,-3812,96,80,201,851
101047,7258576,7960576,7262438,8016102,2248,3800,2828,-10048,6099,1656,-3933,137,80,201,851
102048,7258940,7961744,7262906,8016570,2243,3800,2794,-10113,6358,1961,-3969,418,79,201,850
103049,7259280,7962916,7263374,8017038,2451,3800,2771,-9941,6558,2384,-3719,780,79,201,850
104050,7259616,7963944,7263842,8017506,2535,3800,2777,-9821,6651,2659,-3262,459,92,204,849
105051,7259952,7964956,7264310,8017974,2594,3800,2836,-9659,6677,2905,-3475,756,92,204,849
106052,7260272,7965992,7264778,8018442,2760,3800,2909,-9276,6711,2873,-4207,1418,70,206,849
107053,7260616,7966964,7265246,8018910,2664,3800,2812,-8369,6358,5600,-6160,2720,70,206,849
108054,7260924,7968008,7265714,8019378,2960,3800,1623,-5724,3063,22986,-17768,2445,89,190,849
109055,7261248,7968892,7266182,8019846,2925,3800,454,-2955,422,11928,-12392,343,89,190,849
110056,7261612,7969812,7266650,8020314,2721,3800,346,-1871,24,3933,-4564,2433,78,187,847
111057,7261912,7970604,7267118,8020782,3196,3800,709,-1545,865,3737,-3884,1496,78,187,847
112058,7262236,7971436,7267586,8021250,3111,3800,938,-1573,1719,3514,-3530,1880,79,178,846
113059,7262636,7972268,7268054,8021718,2666,3800,1205,-1226,1991,3210,-2923,593,79,178,846
114060,7262992,7973040,7268522,8022186,2992,3800,1363,-1477,1969,2889,-1813,-409,72,166,844
115067,7263344,7973892,7268994,8022658,3070,3800,1605,-1410,1908,3549,-1124,350,72,166,844
116062,7263740,7974608,7269462,8023126,2828,3800,1659,-1603,1920,3484,-766,-129,74,166,847
117063,7264124,7975380,7269930,8023594,2941,3800,1817,-1508,1974,3091,-433,844,74,166,847
118064,7264496,7976192,7270398,8024062,3060,3800,1927,-1301,2021,3267,434,837,100,158,845
119065,7264892,7977008,7270866,8024530,2943,3800,2051,-1185,1991,3645,1554,782,100,158,845
120066,7265316,7977836,7271334,8024998,2788,3800,2033,-850,1786,3403,3101,1372,76,165,845
121067,7265712,7978580,7271802,8025466,2996,3800,1891,-647,1289,2852,4974,1105,76,165,845
122067,7266120,7979384,7272270,8025934,2948,3800,1713,-451,708,3067,5786,1147,78,158,845
123069,7266508,7980180,7272738,8026402,3109,3800,1535,-346,171,2998,6705,952,78,158,845
124070,7266888,7981068,7273206,8026870,3199,3800,1317,-217,-263,3068,6520,1390,83,141,845
125071,7267276,7981840,7273674,8027338,3186,3800,1055,-64,-569,3246,6260,1598,83,141,845
126072,7267624,7982640,7274142,8027806,3490,3800,832,-63,-783,3106,5691,1393,73,150,844
127073,7267984,7983552,7274610,8028274,3463,3800,544,45,-1067,3213,5268,2072,73,150,844
128074,7268324,7984392,7275078,8028742,3646,3800,252,133,-1384,3553,5971,1909,91,177,843
129088,7268648,7985104,7275546,8029210,3800,3800,19,315,-1533,3907,6024,3111,91,177,843
130089,7268892,7986112,7276014,8029678,3800,3800,-204,637,-1568,3540,5128,3349,62,200,843
131090,7269168,7987232,7276482,8030146,3800,3800,-376,806,-1572,3120,5051,2658,62,200,843
132091,7269512,7988224,7276950,8030614,3800,3800,-539,662,-1618,3288,5269,2172,73,193,841
133092,7269768,7989304,7277418,8031082,3800,3800,-817,510,-1629,3748,4305,3124,73,193,841
134093,7270048,7990356,7277886,8031550,3800,3800,-1320,829,-1446,3619,2740,5060,52,207,842
135094,7270280,7991372,7278354,8032018,3800,3800,-1906,1570,-1125,3009,1827,5683,52,207,842
136095,7270624,7992412,7278822,8032486,3800,3800,-2427,2270,-853,2695,1760,5490,78,206,840
137096,7270972,7993364,7279290,8032954,3800,3800,-2915,2776,-687,3042,1943,5093,78,206,840
138097,7271296,7994280,7279758,8033422,3800,3800,-3530,3168,-589,3443,1885,5452,88,202,842
139098,7271668,7995152,7280226,8033890,3800,3800,-4280,3808,-394,3404,753,6801,88,202,842
140099,7272076,7995948,7280694,8034358,3800,3800,-5172,4975,-146,2892,623,8439,81,176,841
141100,7272464,7996760,7281162,8034826,3800,3800,-6188,6304,-98,2500,1835,7983,81,176,841
142101,7272860,7997556,7281630,8035294,3800,3800,-7194,6947,-298,2610,2550,6115,98,167,842
143102,7273268,7998296,7282098,8035762,3800,3800,-8092,7014,-710,2485,2985,5058,98,167,842
144103,7273720,7998964,7282566,8036230,3800,3800,-8902,6759,-1260,1995,3566,4267,97,141,841
145091,7274224,7999592,7283034,8036698,3550,3800,-9657,6306,-1720,1560,2870,3972,97,141,841
146092,7274700,8000164,7283502,8037166,3724,3800,-10353,5969,-1975,1401,1767,4475,111,140,840
147093,7275176,8000736,7283970,8037634,3722,3800,-10936,5726,-2112,1138,1560,4263,111,140,840
148094,7275720,8001244,7284438,8038102,3265,3800,-11737,5976,-1983,1523,630,6766,111,120,839
149095,7276288,8001712,7284906,8038570,3073,3800,-12459,6230,-1909,1016,1928,5185,111,120,839
150105,7276824,8002144,7285378,8039042,3247,3800,-12793,5647,-2279,86,3803,3003,114,97,840
151097,7277432,8002544,7285846,8039510,2736,3800,-12733,4568,-2872,97,3815,2245,114,97,840
152098,7278124,8002916,7286314,8039978,2115,3800,-12531,3223,-3551,-208,2883,1749,123,79,842
153099,7278792,8003308,7286782,8040446,2179,3800,-12242,2060,-4188,-837,1726,2399,123,79,842
154100,7279400,8003656,7287250,8040914,2493,3800,-11976,1291,-4675,-1428,605,3689,137,70,844
155101,7280136,8003968,7287718,8041382,1577,3800,-11690,781,-4886,-1971,-477,4522,137,70,844
156102,7280800,8004288,7288186,8041850,1942,3800,-8689,3335,-4217,-6738,-7340,32767,132,77,845
157103,7281408,8004596,7288654,8042318,2232,3800,927,9049,-1894,-16733,-18328,32767,132,77,845
158104,7282076,8004928,7289122,8042786,1771,3800,8672,10928,-293,-6987,-5312,31434,111,59,845
159105,7282672,8005236,7289590,8043254,2166,3800,9797,8583,-184,-1112,3096,-27,111,59,845
160106,7283280,8005540,7290058,8043722,2030,3800,8112,4948,-867,174,3666,-2633,106,63,844
161107,7283860,8005840,7290526,8044190,2158,3800,6731,1817,-1513,414,2757,-2424,106,63,844
162108,7284408,8006140,7290994,8044658,2324,3800,6227,-330,-1499,-454,-223,-1663,115,53,844
163109,7284904,8006420,7291462,8045126,2637,3800,5528,-2102,-952,-681,-4284,-792,115,53,844
164110,7285436,8006748,7291930,8045594,2385,3800,4497,-3574,-175,-946,-4765,181,96,56,844
165111,7285892,8007088,7292398,8046062,2868,3800,3518,-5035,431,-981,-2899,60,96,56,844
166112,7286416,8007400,7292866,8046530,2419,3800,2960,-6838,658,-856,-2597,-1762,82,60,843
167113,7286888,8007712,7293334,8046998,2743,3800,2623,-9024,816,-1737,-2348,-1389,82,60,843
168114,7287296,8008016,7293802,8047466,3171,3800,2192,-10473,1133,-1845,-2109,966,92,69,840
169115,7287756,8008392,7294270,8047934,2851,3800,1576,-11322,1501,-1364,-1789,1906,92,69,840
170116,7288196,8008764,7294738,8048402,2989,3800,870,-11403,1943,-1895,-2153,4278,102,75,841
171117,7288636,8009100,7295206,8048870,3003,3800,143,-11101,2448,-2668,-2818,4715,102,75,841
172118,7289064,8009512,7295674,8049338,3096,3800,-475,-10709,2893,-2814,-3249,5216,84,81,842
173119,7289544,8009940,7296142,8049806,2768,3800,-889,-10098,3221,-3266,-2237,5651,84,81,842
174120,7289964,8010340,7296610,8050274,3165,3800,-1092,-9425,3374,-3566,-1427,5472,91,71,841
175121,7290328,8010732,7297078,8050742,3562,3800,-1317,-8473,3514,-3701,-2162,6978,91,71,841
176135,7290656,8011144,7297546,8051210,3800,3800,-1506,-7258,3871,-3960,-2862,7243,73,75,842
177123,7291136,8011612,7298014,8051678,2896,3800,-1558,-6186,4304,-3777,-2917,6250,73,75,842
178124,7291548,8012032,7298482,8052146,3347,3800,-1457,-5464,4714,-3606,-3167,5582,106,95,839
179125,7291956,8012512,7298950,8052614,3399,3800,-1223,-5026,5096,-3524,-2857,4838,106,95,839
180126,7292436,8013008,7299418,8053082,2946,3800,-900,-4832,5414,-2999,-2446,3838,101,93,841
181127,7292828,8013552,7299886,8053550,3530,3800,-496,-4958,5643,-2482,-1744,2625,101,93,841
182128,7293248,8014104,7300354,8054018,3377,3800,17,-5297,5859,-2154,-1455,2092,94,103,840
183129,7293712,8014588,7300822,8054486,3106,3800,595,-5721,6184,-1510,-1985,1935,94,103,840
184130,7294116,8015132,7301290,8054954,3510,3800,1206,-6139,6573,-1002,-2090,2010,105,102,840
185138,7294572,8015700,7301762,8055426,3194,3800,1833,-6425,6955,-709,-2181,2152,105,102,840
186132,7295008,8016316,7302230,8055894,3334,3800,2468,-6707,7259,-307,-2003,1759,89,123,843
187133,7295552,8016980,7302698,8056362,2627,3800,3074,-7011,7477,111,-1325,1681,89,123,843
188134,7296024,8017568,7303166,8056830,3077,3800,3607,-7234,7621,237,-961,2064,98,122,843
189135,7296472,8018316,7303634,8057298,3237,3800,4048,-7191,7705,485,-1049,2690,98,122,843
190136,7297000,8019020,7304102,8057766,2711,3800,4355,-6873,7700,578,-642,3410,104,137,844
191137,7297516,8019824,7304570,8058234,2767,3800,4529,-6292,7602,673,-335,4092,104,137,844
192138,7297992,8020628,7305038,8058702,3015,3800,4583,-5615,7361,1002,414,4034,114,154,843
193139,7298544,8021476,7305506,8059170,2504,3800,4618,-4998,6972,1059,990,3814,114,154,843
194140,7299036,8022332,7305974,8059638,2870,3800,4605,-4290,6506,1363,1366,4148,115,155,847
195141,7299580,8023188,7306442,8060106,2513,3800,4448,-3341,5926,1822,2311,5124,115,155,847
196142,7300144,8024132,7306910,8060574,2347,3800,4074,-2017,5242,2434,3330,6177,111,165,847
197143,7300664,8025116,7307378,8061042,2601,3800,3585,-572,4715,3393,2856,5895,111,165,847
198144,7301180,8026028,7307846,8061510,2606,3800,3122,441,4154,3767,3635,4318,125,173,849
199145,7301752,8027076,7308314,8061978,2211,3800,2741,1072,3534,4026,2545,3519,125,173,849
200146,7302304,8028144,7308782,8062446,2300,3800,2334,1587,2968,4417,1535,3445,126,193,849
201147,7302840,8029084,7309250,8062914,2372,3800,1988,1947,2472,4372,1289,2564,126,193,849
202148,7303472,8030100,7309718,8063382,1701,3800,1728,2080,2036,4161,355,1997,104,191,849
203149,7304080,8031216,7310186,8063850,1791,3800,1551,2034,1625,3858,-263,1243,104,191,849
204150,7304664,8032096,7310654,8064318,1891,3800,1422,1829,1216,3696,-605,639,135,182,850
205151,7305252,8033032,7311122,8064786,1814,3800,1354,1504,821,3542,-743,-32,135,182,850
206152,7305928,8033932,7311590,8065254,1174,3800,1348,995,440,3102,-807,-663,145,182,851
207153,7306500,8034812,7312058,8065722,1780,3800,1458,420,28,2593,-1086,-1006,145,182,851
208154,7307132,8035728,7312526,8066190,1334,3800,1585,-81,-360,2220,-1832,-685,121,187,851
209155,7307840,8036604,7312994,8066658,754,3800,1693,-242,-648,1890,-2370,135,121,187,851
210156,7308464,8037336,7313462,8067126,1212,3800,1707,-35,-889,1330,-2581,971,141,181,851
211157,7309108,8038212,7313930,8067594,1011,3800,1666,454,-1146,505,-2635,1563,141,181,851
212158,7309764,8039120,7314398,8068062,853,3800,1574,1109,-1424,-198,-2281,1890,130,191,853
213159,7310356,8039940,7314866,8068530,1199,3800,1471,1817,-1720,-665,-1458,1951,130,191,853
214160,7311004,8040876,7315334,8068998,771,3800,1322,2463,-2059,-906,43,1886,117,181,852
215161,7311668,8041740,7315802,8069466,586,3800,1149,3067,-2563,-1077,936,1471,117,181,852
216162,7312336,8042572,7316270,8069934,474,3800,863,3414,-3270,-1597,1243,644,142,174,852
217163,7312912,8043448,7316738,8070402,1003,3800,518,3523,-4078,-2025,1920,-93,142,174,852
218164,7313568,8044304,7317206,8070870,420,3800,191,3449,-4810,-2168,2508,-639,117,176,854
219165,7314188,8045168,7317674,8071338,579,3800,-119,3309,-5237,-1983,1780,-630,117,176,854
220173,7314732,8046164,7318146,8071810,1024,3800,-474,3119,-5277,-1853,664,-586,119,184,853
221167,7315356,8047032,7318614,8072278,455,3800,-850,2933,-5069,-2049,107,-754,119,184,853
222168,7315908,8047948,7319082,8072746,869,3800,-1155,2548,-4762,-2446,-172,-1306,128,191,854
223169,7316468,8048932,7319550,8073214,780,3800,-1401,2053,-4418,-2665,-912,-1117,128,191,854
224170,7317020,8049944,7320018,8073682,793,3800,-1588,1657,-4051,-2871,-1460,-747,123,186,853
225171,7317528,8051064,7320486,8074150,1051,3800,-1672,1130,-3627,-2756,-1493,-1396,123,186,853
226172,7317980,8052132,7320954,8074618,1408,3800,-1663,304,-3114,-2788,-1568,-1874,104,205,854
227173,7318472,8053032,7321422,8075086,1149,3800,-1664,-479,-2487,-2897,-1806,-1397,104,205,854
228174,7319028,8054172,7321890,8075554,710,3800,-1659,-1464,-1782,-2887,-2025,-2107,104,228,855
229175,7319540,8055372,7322358,8076022,967,3800,-1684,-2431,-1060,-2768,-2395,-1588,104,228,855
230176,7320036,8056532,7322826,8076490,1055,3800,-1714,-3231,-328,-2946,-2353,-1405,119,224,855
231177,7320536,8057772,7323294,8076958,1017,3800,-1786,-4092,366,-3124,-1895,-1072,119,224,855
232178,7320968,8058920,7323762,8077426,1458,3800,-1894,-4669,1033,-3372,-2112,23,116,236,856
233179,7321432,8060000,7324230,8077894,1260,3800,-2059,-5053,1698,-4155,-2300,661,116,236,856
234180,7321856,8061032,7324698,8078362,1530,3800,-2204,-5019,2345,-4934,-2879,2015,106,207,855
235181,7322240,8062052,7325166,8078830,1817,3800,-2390,-4670,3050,-6265,-3307,3393,106,207,855
236182,7322620,8063156,7325634,8079298,1882,3800,-2509,-4037,3828,-7093,-3422,4257,86,206,854
237183,7323024,8064184,7326102,8079766,1760,3800,-2626,-3535,4553,-7042,-2756,3866,86,206,854
238184,7323384,8065196,7326570,8080234,2084,3800,-2704,-3448,5175,-6516,-1707,2910,91,201,852
239185,7323720,8066248,7327038,8080702,2292,3800,-2768,-4004,5730,-5142,-1323,1601,91,201,852
240173,7324072,8067384,7327506,8081170,2244,3790,-2800,-5305,6263,-3300,-979,-95,88,199,852
241174,7324424,8068484,7327974,8081638,2296,3740,-2813,-7186,6845,-1539,-864,-1301,88,199,852
242175,7324728,8069652,7328442,8082106,2668,3009,-2918,-9262,7442,-349,-1146,-1411,69,221,850
243176,7325044,8070736,7328910,8082574,2660,3266,-2965,-11557,8049,883,-1198,-2145,69,221,850
244177,7325376,8071796,7329378,8083042,2621,3159,-2978,-13735,8720,2641,-2017,-1314,69,228,851
245178,7325676,8072772,7329846,8083510,2896,3462,-3003,-15679,9328,4332,-2344,-913,69,228,851
246192,7325972,8073620,7330314,8083978,2997,3800,-2904,-17621,9842,6058,-1861,-1238,78,189,848
247180,7326288,8074524,7330782,8084446,2939,3558,-2582,-19860,10192,7164,-1306,-1893,78,189,848
248194,7326584,8075348,7331250,8084914,3141,3800,-2245,-22126,10364,7536,-1312,-396,78,175,847
249195,7326920,8076060,7331718,8085382,2950,3800,-2027,-23686,10547,7972,-2215,2345,78,175,847
250196,7327288,8076760,7332186,8085850,2795,3800,-1941,-23891,10763,7943,-2944,4949,66,150,846
251197,7327612,8077372,7332654,8086318,3134,3800,-1833,-23738,10868,7458,-2529,4988,66,150,846
252198,7327936,8078028,7333122,8086786,3199,3800,-1692,-23275,10748,7215,-2168,7166,75,125,844
253199,7328328,8078616,7333590,8087254,2808,3800,-1732,-21829,10515,6727,-2277,10373,75,125,844
254200,7328684,8079180,7334058,8087722,3083,3800,-1834,-19830,10335,6052,-2108,11380,88,120,842
255207,7329040,8079704,7334530,8088194,3135,3800,-1896,-17619,10036,5415,-595,12099,88,120,842
256202,7329440,8080148,7334998,8088662,2891,3800,-1914,-15294,9515,4656,1599,13068,67,89,842
257203,7329856,8080636,7335466,8089130,2815,3800,-2059,-12527,8799,4270,3114,14842,67,89,842
258204,7330284,8081224,7335934,8089598,2758,3800,-1637,-9229,8085,4915,3783,18653,94,102,840
259205,7330680,8081680,7336402,8090066,2991,3800,845,-1373,7024,7634,7365,32767,94,102,840
260206,7331112,8082276,7336870,8090534,2783,3800,3385,4612,5928,4433,4931,21307,82,109,843
261207,7331576,8082820,7337338,8091002,2586,3800,3743,5762,5105,2808,3555,7845,82,109,843
262208,7331988,8083488,7337806,8091470,2936,3800,3272,5661,4587,3724,3298,8077,90,107,842
263209,7332496,8084144,7338274,8091938,2320,3800,2598,6056,4285,5376,3812,9241,90,107,842
264198,7332940,8084952,7338742,8092406,2732,3101,2456,6871,4076,5497,2557,7026,99,115,845
265199,7333380,8085644,7339210,8092874,2771,3729,2768,6869,3868,5160,1792,3930,99,115,845
266199,7333876,8086404,7339678,8093342,2409,3177,3076,6361,3387,4785,2898,3482,99,148,847
267200,7334348,8087164,7340146,8093810,2558,3050,3220,5524,2614,4106,4326,2761,99,148,847
268202,7334760,8087968,7340614,8094278,2959,2628,3304,4592,1902,4024,3710,1772,106,146,845
269202,7335268,8088708,7341082,8094746,2342,2911,3439,3451,1405,3605,1661,893,106,146,845
270204,7335776,8089604,7341550,8095214,2326,1749,3477,2378,1054,3120,1604,2050,102,152,849
271204,7336184,8090372,7342018,8095682,2978,2418,3370,1999,751,2617,2294,3541,102,152,849
272206,7336756,8091212,7342486,8096150,1909,1806,3106,1826,591,2710,1908,3827,106,150,851
273207,7337240,8092036,7342954,8096618,2453,1750,2727,2011,528,2340,1946,4726,106,150,851
274208,7337788,8092780,7343422,8097086,2019,2130,2346,2257,414,1412,1802,4408,101,149,851
275208,7338292,8093728,7343890,8097554,2280,644,2078,2201,236,711,974,3677,101,149,851
276209,7338848,8094400,7344358,8098022,1917,2280,1884,2070,69,-490,-94,4019,116,165,855
277210,7339400,8095164,7344826,8098490,1906,1576,1688,2278,63,-1163,-1407,4805,116,165,855
278211,7339928,8095820,7345294,8098958,2031,2169,1221,3121,293,-977,-2177,6474,120,149,857
279212,7340516,8096548,7345762,8099426,1604,1605,384,4319,644,-1136,-1501,6819,120,149,857
280213,7341036,8097096,7346230,8099894,2007,2696,1,4588,711,-1798,156,2304,121,129,856
281214,7341528,8097740,7346698,8100362,2172,2019,-147,4271,617,-1510,-106,2583,121,129,856
282215,7342108,8098304,7347166,8100830,1574,2478,-350,4295,784,-1036,-1333,3795,94,127,858
283216,7342640,8098816,7347634,8101298,1847,2783,-623,4492,1084,-827,-679,3267,94,127,858
284217,7343196,8099388,7348102,8101766,1659,2364,-770,4646,1267,-964,-142,2670,118,118,854
285218,7343820,8099848,7348570,8102234,1167,3067,-835,4640,1320,-1086,-203,2277,118,118,854
286219,7344368,8100404,7349038,8102702,1608,2428,-890,4500,1276,-1051,-60,1782,115,116,852
287220,7344968,8100884,7349506,8103170,1225,2899,-974,4250,1219,-1008,-114,1574,115,116,852
288221,7345476,8101340,7349974,8103638,1783,3054,-1057,3888,1110,-979,468,846,107,93,853
289222,7346060,8101788,7350442,8104106,1258,3114,-1101,3291,899,-592,582,122,107,93,853
290232,7346568,8102284,7350914,8104578,1718,2804,-1136,2562,634,-349,796,-133,115,101,853
291224,7347164,8102696,7351382,8105046,1113,3354,-1175,1751,349,-65,854,-424,115,101,853
292225,7347704,8103228,7351850,8105514,1432,2576,-1229,910,93,516,169,-568,105,105,852
293227,7348240,8103740,7352318,8105982,1428,2683,-1263,61,-125,852,40,-862,105,105,852
294227,7348712,8104200,7352786,8106450,1827,3011,-1355,-817,-357,1107,145,-788,111,115,851
295228,7349284,8104708,7353254,8106918,1157,2694,-1486,-1694,-636,941,868,-913,111,115,851
296229,7349740,8105148,7353722,8107386,1888,3132,-1694,-2622,-995,627,2053,-922,90,88,854
297231,7350160,8105616,7354190,8107854,2134,2957,-1896,-3396,-1426,195,2658,-864,90,88,854
298231,7350652,8106152,7354658,8108322,1675,2503,-2245,-4182,-1844,-242,1581,-194,93,102,854
299232,7351044,8106596,7355126,8108790,2334,3089,-2606,-4585,-2157,-347,-270,562,93,102,854
300233,7351384,8107124,7355594,8109258,2717,2538,-2997,-4842,-2333,-291,-1266,803,93,93,849
301234,7351784,8107680,7356062,8109726,2372,2325,-3293,-5152,-2382,-76,-1719,401,93,93,849
302235,7352136,8108220,7356530,8110194,2723,2393,-3555,-5814,-2300,122,-1897,-237,65,106,847
303236,7352488,8108820,7356998,8110662,2775,1961,-3739,-6564,-2066,452,-2234,-247,65,106,847
304237,7352836,8109268,7357466,8111130,2854,2920,-3917,-7358,-1711,811,-2568,-146,62,96,851
305238,7353176,8109792,7357934,8111598,2961,2420,-4071,-7982,-1275,923,-3015,235,62,96,851
306239,7353548,8110308,7358402,8112066,2805,2450,-4180,-8622,-763,965,-3617,230,84,101,850
307240,7353920,8110836,7358870,8112534,2848,2349,-4219,-9394,-203,1329,-3977,325,84,101,850
308241,7354244,8111392,7359338,8113002,3212,2135,-4212,-10069,367,1811,-4121,664,74,106,848
309243,7354588,8112080,7359806,8113470,3143,1214,-4211,-10739,930,2296,-4229,641,74,106,848
310243,7354972,8112544,7360274,8113938,2930,2616,-4194,-11480,1451,2500,-4240,615,63,103,849
311244,7355396,8113024,7360742,8114406,2701,2511,-4203,-12173,1945,2602,-4380,1146,63,103,849
312245,7355724,8113636,7361210,8114874,3363,1623,-4226,-12572,2461,2768,-4999,1948,66,105,850
313259,7355972,8114244,7361678,8115342,3800,1587,-4239,-12863,3015,3134,-5692,2337,66,105,850
314247,7356408,8114724,7362146,8115810,2801,2382,-4175,-13012,3605,3372,-6035,2667,74,112,849
315248,7356800,8115224,7362614,8116278,3110,2243,-4000,-12909,4183,3298,-6046,3689,74,112,849
316249,7357184,8115808,7363082,8116746,3198,1667,-3815,-12456,4676,3360,-6009,5118,92,130,847
317250,7357628,8116520,7363550,8117214,2835,759,-3602,-11686,5164,3618,-6144,6065,92,130,847
318251,7358064,8117128,7364018,8117682,2900,1349,-3327,-10465,5608,3578,-5662,7438,80,136,849
319252,7358428,8117808,7364486,8118150,3397,806,-1464,-7136,5784,6962,-4280,22716,80,136,849
320253,7358880,8118568,7364954,8118618,2856,177,4636,6238,4563,22045,2119,32767,88,142,854
321254,7359320,8119224,7365422,8119086,2944,745,9555,15461,3688,9803,-2454,24897,88,142,854
322255,7359736,8119856,7365890,8119554,3118,823,10166,16671,3841,4548,-2628,4083,95,132,852
323256,7360208,8120416,7366358,8120022,2767,1232,8894,13833,4298,4391,-1139,-172,95,132,852
324257,7360656,8121052,7366826,8120490,2927,684,8120,11292,4582,4776,-1458,-416,104,137,854
325265,7361144,8121676,7367298,8120962,2671,692,7894,10323,4887,4478,-1700,911,104,137,854
326259,7361624,8122224,7367766,8121430,2718,1131,7890,9807,5158,4186,-1172,328,115,130,854
327260,7362140,8122760,7368234,8121898,2473,1176,7712,9271,5182,3867,-510,470,115,130,854
328261,7362600,8123184,7368702,8122366,2827,1895,7459,8377,5050,2477,-178,-385,112,119,856
329262,7363092,8123676,7369170,8122834,2617,1459,7145,7312,4741,1723,-55,-253,112,119,856
330263,7363608,8124076,7369638,8123302,2447,2064,6600,6646,4295,1359,637,621,103,111,856
331264,7364096,8124472,7370106,8123770,2615,2121,5975,6044,3785,185,1584,135,103,111,856
332265,7364576,8124812,7370574,8124238,2661,2526,5148,5666,2807,-1296,3959,970,102,90,854
333266,7365084,8125148,7371042,8124706,2470,2609,4121,5431,1206,-3069,6514,1695,102,90,854
334267,7365560,8125440,7371510,8125174,2667,2962,3139,5057,-608,-4057,6933,946,109,61,850
335268,7366020,8125712,7371978,8125642,2772,3173,2254,4477,-2126,-4139,4746,-187,109,61,850
336269,7366528,8125972,7372446,8126110,2455,3339,1475,3861,-3157,-4601,3313,-300,108,69,850
337270,7366976,8126288,7372914,8126578,2840,3056,671,3542,-3800,-4590,2500,769,108,69,850
338271,7367448,8126572,7373382,8127046,2689,3337,-124,3162,-4321,-4218,2066,-60,98,59,845
339272,7367960,8126852,7373850,8127514,2422,3444,-747,2539,-4778,-4109,1969,-664,98,59,845
340273,7368408,8127128,7374318,8127982,2832,3555,-1270,1955,-5089,-4002,1145,210,93,58,846
341274,7368904,8127404,7374786,8128450,2520,3639,-1846,1462,-5247,-3983,329,684,93,58,846
342275,7369428,8127672,7375254,8128918,2322,3777,-2471,1229,-5145,-3792,-908,1567,104,56,845
343276,7369952,8127964,7375722,8129386,2298,3704,-3060,1321,-4729,-3210,-2307,2439,104,56,845
344290,7370432,8128240,7376190,8129854,2569,3800,-3670,1504,-4075,-2849,-2733,2989,99,54,842
345278,7370912,8128560,7376658,8130322,2565,3680,-4244,1750,-3317,-2716,-2637,3505,99,54,842
346279,7371456,8128884,7377126,8130790,2132,3718,-4753,1879,-2631,-2394,-1873,3222,116,62,843
347280,7371996,8129228,7377594,8131258,2127,3648,-5177,1714,-2113,-2308,-1400,2550,116,62,843
348281,7372496,8129584,7378062,8131726,2363,3623,-5459,1185,-1746,-2544,-1292,1383,115,74,843
349282,7373088,8129948,7378530,8132194,1735,3619,-5612,160,-1465,-2503,-1726,321,115,74,843
350283,7373604,8130312,7378998,8132662,2191,3665,-5619,-1113,-1237,-2364,-1882,-371,102,84,846
351284,7374160,8130672,7379466,8133130,1903,3738,-5586,-2524,-1071,-2362,-1890,-432,102,84,846
352285,7374712,8131052,7379934,8133598,1892,3651,-5486,-3970,-1019,-2528,-1959,-485,109,88,847
353286,7375260,8131488,7380402,8134066,1883,3316,-5324,-5470,-1099,-2743,-1685,-320,109,88,847
354287,7375784,8131932,7380870,8134534,2010,3277,-5099,-6787,-1281,-2536,-1322,328,120,93,845
355288,7376352,8132408,7381338,8135002,1692,3074,-4851,-7950,-1490,-2093,-1305,980,120,93,845
356289,7376916,8132860,7381806,8135470,1674,3231,-4582,-8779,-1628,-1902,-1673,2310,104,101,848
357290,7377500,8133340,7382274,8135938,1499,3052,-4295,-9340,-1673,-1719,-1963,2998,104,101,848
358291,7378100,8133820,7382742,8136406,1342,3047,-4009,-9639,-1609,-1355,-2376,3855,125,104,851
359292,7378704,8134344,7383210,8136874,1259,2748,-3689,-9820,-1446,-1411,-2704,4309,125,104,851
360300,7379308,8134800,7383682,8137346,1202,3180,-3295,-9991,-1260,-1693,-2886,4325,113,102,852
361294,7379876,8135272,7384150,8137814,1384,3080,-2854,-10320,-1107,-1857,-2693,4234,113,102,852
362295,7380496,8135788,7384618,8138282,993,2783,-2341,-10635,-955,-1885,-2451,4275,123,90,853
363296,7381036,8136248,7385086,8138750,1461,3138,-1838,-10815,-818,-1731,-1924,4695,123,90,853
364298,7381592,8136816,7385554,8139218,1324,2419,-1345,-11018,-700,-1656,-1491,4589,123,109,852
365298,7382164,8137272,7386022,8139686,1179,3125,-904,-11241,-555,-1440,-1478,4641,123,109,852
366299,7382668,8137700,7386490,8140154,1589,3318,-456,-11559,-377,-1330,-1375,4217,101,90,850
367300,7383192,8138184,7386958,8140622,1439,2962,-20,-12001,-180,-1256,-1322,4139,101,90,850
368301,7383708,8138624,7387426,8141090,1469,3249,427,-12379,25,-1412,-1594,4163,87,104,851
369302,7384176,8139044,7387894,8141558,1770,3396,842,-12711,254,-1581,-1627,4140,87,104,851
370303,7384652,8139572,7388362,8142026,1718,2695,1257,-12974,490,-1561,-1471,4197,95,93,852
371304,7385156,8140028,7388830,8142494,1527,3151,1614,-13248,762,-1689,-1461,4281,95,93,852
372305,7385632,8140528,7389298,8142962,1700,2862,1968,-13400,1123,-1858,-1400,4534,108,90,849
373306,7386088,8141016,7389766,8143430,1831,2929,2257,-13568,1502,-1881,-1129,4684,108,90,849
374307,7386556,8141468,7390234,8143898,1756,3161,2586,-13648,1879,-1698,-733,4571,99,84,851
375308,7387016,8141900,7390702,8144366,1810,3302,2823,-13704,2267,-1501,-436,4760,99,84,851
376309,7387428,8142456,7391170,8144834,2136,2490,3096,-13815,2653,-1620,-119,4304,89,98,851
377310,7387876,8142940,7391638,8145302,1920,2932,3308,-14101,3020,-1671,397,4234,89,98,851
378311,7388284,8143436,7392106,8145770,2197,2846,3539,-14202,3443,-1459,451,4540,103,97,849
379312,7388676,8143952,7392574,8146238,2331,2700,3797,-14302,3918,-1483,814,4134,103,97,849
380313,7389064,8144440,7393042,8146706,2393,2867,4035,-14443,4400,-1494,982,4348,82,99,851
381314,7389488,8145032,7393510,8147174,2187,2163,4235,-14612,4847,-1426,1465,4046,82,99,851
382315,7389900,8145492,7393978,8147642,2288,2992,4358,-14743,5256,-1110,1691,4009,79,95,851
383316,7390264,8145924,7394446,8148110,2634,3183,4429,-14868,5645,-642,1631,3984,79,95,851
384317,7390648,8146452,7394914,8148578,2547,2557,4472,-14941,6075,-101,1109,4394,75,87,852
385318,7391028,8146924,7395382,8149046,2612,2906,4454,-14867,6546,664,630,4705,75,87,852
386319,7391384,8147452,7395850,8149514,2811,2530,4362,-14638,7009,1559,258,4927,75,102,847
387320,7391752,8148052,7396318,8149982,2781,2023,4145,-14256,7363,2178,493,5441,75,102,847
388321,7392112,8148540,7396786,8150450,2880,2714,3813,-13659,7630,2904,652,6125,93,106,847
389323,7392484,8149132,7397254,8150918,2848,2009,2893,-12020,7796,4054,1109,10487,93,106,847
390323,7392868,8149700,7397722,8151386,2811,2116,1854,-10089,7795,4698,2205,9173,91,108,850
391324,7393208,8150284,7398190,8151854,3143,1965,1248,-8897,7728,5193,2376,7203,91,108,850
392325,7393532,8150908,7398658,8152322,3307,1647,981,-8103,7548,5498,2578,7160,71,108,850
393326,7393936,8151420,7399126,8152790,2836,2329,828,-7526,7310,5535,2056,6543,71,108,850
394327,7394300,8152028,7399594,8153258,3133,1667,775,-7014,6997,5743,1909,5526,69,113,850
395335,7394652,8152600,7400066,8153730,3262,1848,827,-6662,6614,6000,1655,4580,69,113,850
396330,7395040,8153172,7400534,8154198,3073,1802,1025,-6468,6229,5934,1576,4255,64,109,849
397331,7395412,8153804,7401002,8154666,3216,1355,1343,-6315,5852,5481,1376,4330,64,109,849
398332,7395792,8154404,7401470,8155134,3206,1498,1661,-5889,5479,5179,1112,4951,89,103,849
399332,7396176,8154992,7401938,8155602,3219,1521,1902,-5267,5118,5285,990,5347,89,103,849
400333,7396596,8155552,7402406,8156070,3016,1655,1915,-4184,4782,5673,897,7030,85,113,850
401334,7397040,8156120,7402874,8156538,2877,1561,1840,-2619,4560,5730,470,7982,85,113,850
402335,7397472,8156752,7403342,8157006,2969,1089,1806,-981,4387,5325,476,7690,81,109,851
403336,7398012,8157356,7403810,8157474,2263,1204,1926,487,4155,4818,482,7125,81,109,851
404338,7398496,8158040,7404278,8157942,2608,609,2168,1809,3866,4320,527,6740,103,133,852
405339,7398992,8158648,7404746,8158410,2522,1023,2488,3107,3580,4164,272,6316,103,133,852
406339,7399588,8159280,7405214,8158878,1842,801,2846,4247,3290,4025,260,5675,106,116,856
407341,7400084,8159796,7405682,8159346,2456,1505,3198,5323,3006,3872,208,5365,106,116,856
408342,7400588,8160324,7406150,8159814,2391,1403,3536,6377,2760,3806,-114,4964,110,111,856
409343,7401164,8160856,7406618,8160282,1894,1350,3877,7185,2537,3667,-338,4114,110,111,856
410343,7401636,8161312,7407086,8160750,2544,1831,4238,7839,2347,3446,-637,3522,97,104,854
411344,7402152,8161796,7407554,8161218,2248,1648,4575,8363,2150,3251,-703,2925,97,104,854
412345,7402740,8162224,7408022,8161686,1747,2015,4892,8627,1914,3028,-582,2243,118,98,856
413346,7403232,8162600,7408490,8162154,2337,2381,5161,8889,1652,2839,-503,2017,118,98,856
414347,7403796,8162980,7408958,8162622,1846,2394,5368,9144,1432,2793,-661,1562,117,80,855
415348,7404268,8163396,7409426,8163090,2420,2192,5504,9333,1253,2891,-563,1280,117,80,855
416349,7404888,8163764,7409894,8163558,1429,2536,5538,9451,1100,2943,-85,1064,116,83,852
417350,7405412,8164124,7410362,8164026,2006,2633,5433,9591,873,2900,463,674,116,83,852
418351,7405956,8164468,7410830,8164494,1848,2788,5224,9671,576,2768,956,473,105,81,852
419352,7406524,8164832,7411298,8164962,1655,2709,4943,9749,250,2421,1426,271,105,81,852
420354,7407036,8165216,7411766,8165430,1987,2621,4564,9782,-105,2172,1632,89,98,80,850
421355,7407552,8165580,7412234,8165898,1942,2791,4141,9671,-462,2061,1530,-504,98,80,850
422355,7408084,8165940,7412702,8166366,1815,2864,3661,9364,-876,2097,1869,-1113,107,86,851
423356,7408588,8166304,7413170,8166834,1974,2884,3149,8875,-1342,2137,2208,-1614,107,86,851
424357,7409108,8166660,7413638,8167302,1852,2984,2585,8220,-1808,2125,2020,-1944,110,82,851
425358,7409680,8167004,7414106,8167770,1483,3113,1983,7462,-2250,1988,1545,-2218,110,82,851
426359,7410236,8167420,7414574,8168238,1545,2687,1382,6575,-2716,1733,2011,-2769,92,73,850
427360,7410776,8167800,7415042,8168706,1614,2951,817,5393,-3353,1348,2969,-3727,92,73,850
428362,7411456,8168148,7415510,8169174,647,3203,272,4001,-4150,789,3168,-4319,111,74,851
429362,7411924,8168520,7415978,8169642,1972,3096,-261,2559,-4899,342,2577,-4376,111,74,851
430373,7412432,8168952,7416450,8170114,1707,2738,-760,1242,-5414,91,1764,-4163,99,81,851
431364,7412944,8169344,7416918,8170582,1664,3023,-1306,97,-5676,-121,968,-3629,99,81,851
432365,7413492,8169872,7417386,8171050,1405,2146,-1974,-729,-5825,-364,661,-2876,111,95,848
433366,7414016,8170304,7417854,8171518,1530,2762,-2678,-1697,-6054,-598,1362,-3846,111,95,848
434367,7414432,8170692,7418322,8171986,2229,3072,-3301,-3018,-6404,-844,1984,-4734,95,88,850
435368,7414908,8171128,7418790,8172454,1851,2786,-3893,-4504,-6747,-894,1331,-4915,95,88,850
436370,7415328,8171564,7419258,8172922,2224,2801,-4479,-5821,-7018,-645,249,-4730,92,86,853
437370,7415744,8172040,7419726,8173390,2271,2548,-5088,-7075,-7115,-36,-855,-4541,92,86,853
438371,7416184,8172560,7420194,8173858,2135,2250,-5663,-8024,-6936,427,-1986,-3780,67,90,851
439372,7416548,8173020,7420662,8174326,2656,2628,-6238,-8575,-6461,-247,-2631,-2628,67,90,851
440373,7416916,8173516,7421130,8174794,2676,2392,-6787,-9000,-5809,-1090,-2944,-2367,87,91,851
441375,7417340,8174008,7421598,8175262,2347,2407,-7306,-9357,-5064,-1216,-3308,-1909,86,88,849
442375,7417728,8174476,7422066,8175730,2607,2557,-7746,-9555,-4202,-1147,-3822,-1534,86,88,849
443376,7418072,8174956,7422534,8176198,2937,2476,-8106,-9757,-3286,-1365,-4211,-1606,86,89,850
444377,7418460,8175456,7423002,8176666,2698,2338,-8396,-10115,-2368,-1810,-4547,-1487,86,89,850
445378,7418820,8175948,7423470,8177134,2922,2378,-8607,-10632,-1467,-1752,-4733,-1441,72,96,847
446379,7419184,8176440,7423938,8177602,2944,2367,-8790,-11253,-671,-1100,-4932,-1509,72,96,847
447380,7419596,8176956,7424406,8178070,2669,2196,-9072,-11498,-14,-832,-4662,430,86,104,848
448381,7419956,8177596,7424874,8178538,3043,1346,-9435,-11485,536,-883,-4432,1179,86,104,848
449382,7420332,8178028,7425342,8179006,2984,2662,-9673,-11749,1061,-502,-4740,76,85,101,850
450383,7420768,8178456,7425810,8179474,2623,2705,-9718,-12234,1636,274,-4858,408,85,101,850
451384,7421168,8178980,7426278,8179942,2879,2080,-9757,-12297,2264,1118,-5155,2518,72,93,847
452386,7421460,8179584,7426746,8180410,3632,1520,-9876,-11866,2927,1620,-6110,4224,72,93,847
453387,7421816,8180084,7427214,8180878,3283,2156,-9956,-11270,3683,2119,-6671,4676,91,124,849
454387,7422284,8180496,7427682,8181346,2584,2732,-10140,-10244,4491,3088,-6591,6766,91,124,849
455388,7422680,8181088,7428150,8181814,3066,1553,-10351,-8809,5245,3842,-5902,8027,84,113,847
456389,7423068,8181680,7428618,8182282,3153,1498,-10432,-7495,5787,4034,-4814,8015,84,113,847
457390,7423540,8182372,7429086,8182750,2628,775,-7923,-3757,6120,9780,-3992,21268,95,120,851
458391,7423924,8182988,7429554,8183218,3216,1185,1795,16479,4333,32767,2786,32767,95,120,851
459392,7424316,8183724,7430022,8183686,3200,317,10122,29896,2999,17574,-3859,25838,88,139,855
460393,7424800,8184332,7430490,8184154,2619,1055,11587,29896,3057,7743,-2522,-1887,88,139,855
461394,7425212,8184960,7430958,8184622,3095,860,9917,25028,3624,7731,-1102,-3962,101,129,853
462395,7425612,8185556,7431426,8185090,3200,1004,8752,19529,4017,7463,-2035,-6614,101,129,853
463396,7426104,8186064,7431894,8185558,2616,1536,8484,16209,4402,6641,-2954,-5420,105,114,853
464397,7426544,8186616,7432362,8186026,2954,1224,8482,13948,4852,5727,-2556,-4426,105,114,853
465405,7427024,8187148,7432834,8186498,2702,1323,8271,11727,5174,5204,-2316,-4317,106,107,853
466399,7427452,8187628,7433302,8186966,3045,1643,7803,9261,5281,3715,-717,-4485,106,107,853
467400,7427940,8188060,7433770,8187434,2663,1957,7447,6475,4982,2015,1431,-5528,96,100,854
468401,7428384,8188420,7434238,8187902,2950,2455,6857,3962,4172,518,2436,-4130,96,100,854
469402,7428832,8188748,7434706,8188370,2935,2716,6022,2662,3268,-1627,1850,-25,90,73,852
470403,7429328,8189116,7435174,8188838,2624,2510,4974,2168,2424,-3397,1911,1376,90,73,852
471404,7429756,8189480,7435642,8189306,3067,2581,3949,2097,1413,-4698,3242,2112,93,69,847
472405,7430164,8189780,7436110,8189774,3219,3055,2872,2325,23,-6333,5647,3111,93,69,847
473406,7430656,8190072,7436578,8190242,2685,3182,1728,3333,-1725,-7927,6432,4783,82,73,847
474407,7431060,8190368,7437046,8190710,3264,3233,375,4258,-3526,-9217,5366,5231,82,73,847
475408,7431464,8190636,7437514,8191178,3293,3496,-1089,5392,-5098,-9704,3152,6438,75,52,844
476409,7431932,8190916,7437982,8191646,2895,3503,-2274,6233,-6210,-9687,1023,4035,75,52,844
477410,7432348,8191164,7438450,8192114,3244,3800,-2987,6206,-6975,-9459,204,1736,86,51,839
478424,7432736,8191400,7438918,8192582,3455,3800,-3428,5758,-7479,-9465,552,1331,86,51,839
479425,7433188,8191656,7439386,8193050,3063,3800,-3767,5070,-7688,-8969,-293,614,74,51,839
480426,7433612,8191920,7439854,8193518,3259,3800,-4033,4273,-7593,-7972,-1907,3,74,51,839
481427,7434060,8192188,7440322,8193986,3118,3800,-4183,3039,-7113,-7496,-3427,-1014,85,65,839
482428,7434552,8192464,7440790,8194454,2835,3800,-4230,1462,-6351,-6878,-4480,-1696,85,65,839
483429,7435036,8192728,7441258,8194922,2879,3800,-4183,-537,-5360,-5940,-4987,-2819,85,70,839
484430,7435500,8193020,7441726,8195390,3007,3800,-3983,-2750,-4218,-5168,-5059,-3326,85,70,839
485431,7435988,8193284,7442194,8195858,2849,3800,-3778,-5239,-3034,-4600,-4715,-4139,106,61,840
486432,7436520,8193564,7442662,8196326,2547,3800,-3586,-8028,-1871,-4146,-4340,-4447,106,61,840
487433,7437032,8193904,7443130,8196794,2654,3800,-3410,-10725,-736,-3734,-4061,-3927,96,64,841
488434,7437576,8194252,7443598,8197262,2422,3800,-3275,-13242,336,-3413,-3676,-3325,96,64,841
489435,7438124,8194604,7444066,8197730,2363,3800,-3208,-15488,1309,-3455,-3527,-2335,109,73,842
490436,7438664,8194964,7444534,8198198,2382,3800,-3215,-17399,2147,-3485,-3634,-924,109,73,842
491437,7439196,8195360,7445002,8198666,2405,3800,-3331,-18665,2741,-3180,-3013,1537,110,95,844
492425,7439792,8195788,7445470,8199134,1950,3735,-3677,-19072,3107,-2787,-2790,4646,110,95,844
493426,7440356,8196244,7445938,8199602,2109,3566,-3918,-19035,3284,-2831,-2568,5019,98,87,844
494440,7440912,8196664,7446406,8200070,2121,3800,-4027,-18949,3238,-2449,-1702,5785,98,87,844
495428,7441540,8197144,7446874,8200538,1602,3433,-3880,-18895,3050,-2055,-1461,5633,118,105,845
496429,7442108,8197652,7447342,8201006,1934,3241,-3813,-18381,2770,-1605,-1255,7969,118,105,845
497430,7442724,8198172,7447810,8201474,1570,3144,-3801,-17376,2462,-1213,-1906,9277,125,114,849
498431,7443392,8198700,7448278,8201942,1158,3068,-2928,-15243,2108,910,-2330,20625,125,114,849
499432,7444000,8199276,7448746,8202410,1472,2721,200,-9403,1531,5561,-2878,32767,114,113,850
500440,7444628,8199764,7449218,8202882,1280,3265,2949,-4790,951,2697,-1427,24858,114,113,850
501434,7445248,8200260,7449686,8203350,1264,3203,3473,-3662,604,1232,-182,8204,125,115,854
502435,7445904,8200776,7450154,8203818,957,3057,3015,-4221,399,2089,217,6307,125,115,854
503436,7446484,8201296,7450622,8204286,1384,3010,2735,-5125,234,3042,140,4694,130,104,851
504437,7447068,8201820,7451090,8204754,1309,2961,2911,-5909,121,3451,402,3667,130,104,851
505438,7447688,8202348,7451558,8205222,1017,2910,3281,-6917,16,3709,594,2422,106,103,852
506439,7448224,8202812,7452026,8205690,1513,3312,3661,-8270,-137,3999,502,878,106,103,852
507440,7448772,8203268,7452494,8206158,1404,3369,4000,-10000,-270,3565,332,206,115,100,853
508441,7449328,8203772,7452962,8206626,1316,3054,4267,-11682,-348,3258,-66,253,115,100,853
509442,7449848,8204224,7453430,8207094,1519,3386,4478,-13318,-419,2688,-269,-241,116,104,849
510443,7450324,8204716,7453898,8207562,1791,3126,4648,-14783,-414,1609,-716,290,116,104,849
511444,7450880,8205228,7454366,8208030,1253,2982,4736,-15857,-259,665,-1476,1477,105,92,849
512445,7451352,8205728,7454834,8208498,1777,3044,4717,-16365,80,-421,-2017,2972,105,92,849
513446,7451820,8206240,7455302,8208966,1803,2949,4629,-16281,521,-1813,-1977,4438,101,99,852
514447,7452312,8206760,7455770,8209434,1643,2878,4665,-15905,910,-2924,-1357,4356,101,99,852
515448,7452788,8207252,7456238,8209902,1740,3042,4747,-15525,1255,-3709,-877,4652,102,110,851
516449,7453204,8207764,7456706,8210370,2138,2899,4851,-14928,1660,-4189,-365,5143,102,110,851
517450,7453604,8208244,7457174,8210838,2269,3093,4867,-14089,2162,-4339,-47,5653,83,110,851
518452,7454016,8208760,7457642,8211306,2219,2848,4898,-13000,2762,-4584,94,5871,83,110,851
519452,7454440,8209276,7458110,8211774,2164,2827,4910,-11809,3456,-4790,114,6204,95,115,847
520454,7454824,8209784,7458578,8212242,2452,2861,4940,-10555,4189,-4993,252,6232,95,115,847
521454,7455256,8210392,7459046,8212710,2168,2174,4981,-9340,4911,-5157,472,5761,98,106,849
522455,7455616,8210940,7459514,8213178,2666,2515,5044,-8432,5576,-4978,728,4831,98,106,849
523456,7455960,8211392,7459982,8213646,2822,3122,5117,-7841,6189,-4484,1029,3876,91,110,852
524457,7456360,8211932,7460450,8214114,2503,2540,5129,-7417,6780,-3581,1182,3413,91,110,852
525458,7456712,8212448,7460918,8214582,2854,2670,5109,-7188,7370,-2332,1225,2550,75,113,846
526460,7457028,8212992,7461386,8215050,3147,2462,4999,-7187,7979,-823,749,2037,75,113,846
527460,7457384,8213608,7461854,8215518,2947,1948,4843,-7284,8596,388,378,1478,76,98,847
528461,7457704,8214132,7462322,8215986,3238,2498,4616,-7532,9104,1548,914,1079,76,98,847
529462,7458028,8214760,7462790,8216454,3277,1778,4268,-7751,9448,2916,1447,1461,74,114,849
530463,7458400,8215324,7463258,8216922,3020,2137,3806,-7887,9729,4232,1620,1806,74,114,849
531464,7458724,8215960,7463726,8217390,3385,1613,3316,-7850,10063,5147,1451,2100,75,107,847
532465,7459024,8216584,7464194,8217858,3608,1619,2839,-7721,10011,5414,3933,2313,75,107,847
533466,7459396,8217124,7464662,8218326,3202,2114,2559,-7733,9741,5327,3519,1553,83,112,848
534467,7459752,8217728,7465130,8218794,3352,1654,2530,-7992,9406,5250,3126,977,83,112,848
535475,7460108,8218272,7465602,8219266,3404,1997,2643,-8026,8959,5145,2937,1932,69,123,847
536469,7460468,8218856,7466070,8219734,3428,1696,2746,-7732,8452,5358,3139,2849,69,123,847
537470,7460892,8219476,7466538,8220202,3049,1405,2875,-7212,7954,5517,3074,2835,84,117,847
538471,7461316,8220152,7467006,8220670,3069,963,3007,-6459,7517,5279,2623,3473,84,117,847
539472,7461740,8220736,7467474,8221138,3089,1488,3006,-5381,6993,5058,3131,4676,91,121,851
540474,7462200,8221244,7467942,8221606,2869,1946,2911,-4120,6461,5386,2310,5029,91,121,851
541474,7462688,8221884,7468410,8222074,2686,1045,2776,-2728,5943,5218,1756,5232,86,112,850
542476,7463136,8222448,7468878,8222542,2946,1478,2665,-1309,5326,4668,1830,4938,86,112,850
543476,7463688,8223092,7469346,8223010,2260,900,2575,-83,4595,4479,1713,4693,103,117,854
544477,7464204,8223776,7469814,8223478,2465,556,2532,1142,3840,4335,1522,4515,103,117,854
545478,7464692,8224448,7470282,8223946,2632,541,2547,2388,3202,4389,821,4176,102,117,856
546479,7465296,8225052,7470750,8224414,1848,906,2627,3443,2716,4814,32,3631,102,117,856
547480,7465772,8225576,7471218,8224882,2646,1381,2768,4323,2305,4869,-417,3114,111,111,856
548481,7466300,8226132,7471686,8225350,2295,1142,2948,4961,1869,4808,-454,1765,111,111,856
549482,7466904,8226680,7472154,8225818,1762,1157,3141,5013,1310,4872,-496,147,117,106,854
550483,7467372,8227216,7472622,8226286,2613,1202,3285,4810,737,4980,-620,-124,117,106,854
551484,7467948,8227672,7473090,8226754,1891,1707,3362,4555,191,4774,-912,-586,120,100,858
552485,7468460,8228024,7473558,8227222,2273,2408,3391,4174,-329,4493,-1206,-1240,120,100,858
553486,7469088,8228380,7474026,8227690,1479,2431,3371,3817,-766,4187,-1217,-1121,112,72,854
554487,7469608,8228800,7474494,8228158,2132,2052,3241,3674,-1125,4135,-1185,-539,112,72,854
555488,7470148,8229200,7474962,8228626,1976,2207,3005,3673,-1430,3934,-896,-516,113,91,854
556489,7470760,8229560,7475430,8229094,1464,2505,2771,3776,-1734,3617,-205,-711,113,91,854
557490,7471288,8229924,7475898,8229562,1963,2525,2508,3882,-2037,3541,-61,-756,108,82,853
558491,7471832,8230256,7476366,8230030,1831,2785,2202,4061,-2278,3244,-198,-341,108,82,853
559492,7472420,8230572,7476834,8230498,1504,2952,1755,4443,-2505,2923,330,-100,95,59,851
560493,7472984,8230876,7477302,8230966,1613,3099,1186,4970,-2840,2374,1009,-64,95,59,851
561494,7473476,8231284,7477770,8231434,2053,2475,539,5481,-3292,1558,1855,-35,113,68,850
562495,7474028,8231656,7478238,8231902,1642,2743,-149,5899,-3863,999,2611,-322,113,68,850
563496,7474564,8232016,7478706,8232370,1713,2865,-815,6274,-4461,705,3082,-414,113,85,850
564497,7475100,8232364,7479174,8232838,1684,2993,-1517,6620,-4993,670,3159,-436,113,85,850
565498,7475632,8232744,7479642,8233306,1682,2831,-2196,6880,-5451,615,3011,-801,102,91,850
566499,7476272,8233180,7480110,8233774,931,2496,-2845,7035,-5764,814,2621,-734,102,91,850
567500,7476820,8233528,7480578,8234242,1472,3098,-3436,7106,-5894,1114,2150,-961,103,86,851
568501,7477380,8233860,7481046,8234710,1358,3258,-3999,6943,-5859,1397,1752,-1464,103,86,851
569502,7477920,8234272,7481514,8235178,1452,2784,-4508,6557,-5688,1533,1648,-1939,94,90,851
570512,7478528,8234700,7481986,8235650,967,2703,-4954,5893,-5513,1363,2298,-2500,94,90,851
571504,7479068,8235148,7482454,8236118,1361,2587,-5338,5002,-5508,895,3189,-3408,97,101,852
572505,7479628,8235584,7482922,8236586,1197,2676,-5671,3802,-5695,392,3661,-4140,97,101,852
573506,7480116,8236040,7483390,8237054,1638,2556,-5952,2382,-5979,4,3659,-4517,108,85,853
574507,7480644,8236504,7483858,8237522,1363,2509,-6234,1023,-6252,-348,3444,-4335,108,85,853
575508,7481172,8236948,7484326,8237990,1337,2644,-6575,-166,-6469,-546,2613,-3994,106,94,851
576509,7481616,8237432,7484794,8238458,1873,2387,-7022,-1227,-6690,-596,1171,-3454,106,94,851
577510,7482092,8237920,7485262,8238926,1671,2354,-7508,-2165,-6844,-306,-1,-3039,83,98,854
578511,7482508,8238500,7485730,8239394,2068,1729,-8004,-3006,-6875,215,-973,-2659,83,98,854
579512,7482924,8238960,7486198,8239862,2092,2484,-8491,-3768,-6804,504,-1392,-2496,78,111,854
580513,7483324,8239480,7486666,8240330,2222,2086,-8916,-4399,-6590,163,-1914,-2169,78,111,854
581514,7483736,8239976,7487134,8240798,2173,2224,-9287,-5050,-6221,-711,-2483,-1740,72,99,852
582515,7484080,8240360,7487602,8241266,2653,2961,-9639,-5579,-5749,-1050,-2944,-1109,72,99,852
583516,7484480,8240916,7488070,8241734,2333,1847,-9980,-6061,-5198,-836,-3245,-909,89,91,852
584517,7484836,8241388,7488538,8242202,2658,2370,-10294,-6474,-4547,-348,-4158,-747,89,91,852
585519,7485220,8241868,7489006,8242670,2521,2315,-10591,-7062,-3786,-349,-5264,-489,67,99,850
586519,7485588,8242356,7489474,8243138,2665,2257,-10782,-7630,-2957,-429,-6317,50,67,99,850
587520,7485992,8243008,7489942,8243606,2469,1151,-10834,-8335,-2134,-7,-6947,-505,69,109,849
588521,7486392,8243428,7490410,8244074,2525,2622,-10791,-9154,-1365,425,-6776,-525,69,109,849
589522,7486732,8243908,7490878,8244542,2957,2242,-10750,-9901,-626,393,-6845,338,76,98,853
590523,7487016,8244456,7491346,8245010,3389,1782,-10717,-10463,61,441,-6542,1131,76,98,853
591524,7487392,8245012,7491814,8245478,2855,1693,-10729,-10726,687,611,-6767,2450,72,107,849
592525,7487804,8245552,7492282,8245946,2655,1762,-10723,-10623,1305,810,-7566,3722,72,107,849
593526,7488200,8245912,7492750,8246414,2788,2934,-10634,-10349,1939,1000,-7946,4490,82,109,851
594527,7488596,8246508,7493218,8246882,2821,1403,-10426,-9875,2588,1065,-8157,5884,82,109,851
595528,7489016,8247116,7493686,8247350,2693,1267,-9332,-8190,3414,2701,-8981,11810,83,137,849
596529,7489412,8247764,7494154,8247818,2875,938,-1392,8093,3405,20889,-8346,32767,83,137,849
597530,7489848,8248372,7494622,8248286,2640,1127,9057,27494,2940,19325,-10671,32767,83,136,852
598531,7490256,8249004,7495090,8248754,2843,905,12604,29896,3211,7248,-5474,1253,83,136,852
599532,7490660,8249612,7495558,8249222,2896,993,11263,27565,3843,7216,-2951,-1238,102,125,854
600533,7491076,8250228,7496026,8249690,2845,877,9462,21782,4320,6855,-3010,-5834,102,125,854
601534,7491552,8250796,7496494,8250158,2467,1133,8761,17953,4697,6712,-3225,-4683,96,120,854
602535,7492004,8251288,7496962,8250626,2625,1598,8691,15569,5239,5818,-3396,-4773,96,120,854
603536,7492460,8251788,7497430,8251094,2607,1534,8509,13130,5690,5449,-3250,-5112,109,108,855
604537,7492956,8252260,7497898,8251562,2345,1707,8216,10419,5886,4043,-2343,-5272,109,108,855
605545,7493376,8252796,7498370,8252034,2844,1279,7686,7720,5922,2360,-1515,-3836,107,94,853
606539,7493820,8253196,7498838,8252502,2706,2159,7023,5581,5554,1221,-145,-2828,107,94,853
607540,7494308,8253600,7499306,8252970,2423,2162,6229,3678,4729,-922,1518,-2209,90,85,852
608541,7494760,8253924,7499774,8253438,2656,2724,5554,2310,3527,-3124,3257,-384,90,85,852
609542,7495204,8254240,7500242,8253906,2717,2841,4533,1767,2049,-4374,4907,2586,98,64,850
610543,7495660,8254572,7500710,8254374,2649,2800,3345,1720,468,-5566,6393,2895,98,64,850
611544,7496088,8254932,7501178,8254842,2842,2673,2181,1720,-1250,-6309,7583,3075,84,66,847
612545,7496488,8255200,7501646,8255310,3048,3336,1120,2080,-2961,-6919,7775,4106,84,66,847
613546,7496896,8255472,7502114,8255778,3026,3397,125,2404,-4504,-8137,7352,4106,91,70,846
614547,7497296,8255752,7502582,8256246,3106,3430,-747,2778,-5656,-8177,5384,4550,91,70,846
615548,7497684,8256016,7503050,8256714,3218,3619,-1435,3195,-6328,-7967,3579,4227,75,53,841
616562,7498068,8256264,7503518,8257182,3281,3800,-2076,3193,-6761,-7976,2127,3056,75,53,841
617563,7498492,8256512,7503986,8257650,3051,3800,-2638,2741,-7122,-7784,918,1796,84,61,840
618564,7498916,8256728,7504454,8258118,3071,3800,-3026,1797,-7335,-7542,-26,680,84,61,840
619565,7499316,8257008,7504922,8258586,3252,3800,-3251,602,-7294,-7093,-1531,60,88,65,837
620566,7499780,8257284,7505390,8259054,2855,3800,-3389,-946,-6946,-6652,-2678,-1064,88,65,837
621567,7500240,8257568,7505858,8259522,2884,3800,-3395,-2811,-6328,-6287,-3565,-1781,84,71,838
622568,7500664,8257868,7506326,8259990,3130,3800,-3325,-4962,-5481,-5719,-4306,-2616,84,71,838
623569,7501172,8258172,7506794,8260458,2588,3800,-3259,-7466,-4487,-5268,-4444,-3411,99,65,840
624570,7501640,8258492,7507262,8260926,2839,3800,-3209,-10051,-3426,-4777,-4519,-3255,99,65,840
625571,7502100,8258820,7507730,8261394,2894,3800,-3134,-12665,-2325,-4321,-4347,-3294,91,65,841
626572,7502640,8259168,7508198,8261862,2363,3800,-3105,-15116,-1238,-3864,-4017,-2544,91,65,841
627573,7503116,8259528,7508666,8262330,2760,3800,-3129,-17216,-233,-3545,-3627,-1607,90,75,841
628561,7503588,8259980,7509134,8262798,2786,3381,-3141,-18940,708,-3152,-3508,-554,90,75,841
629575,7504184,8260352,7509602,8263266,1955,3800,-3178,-20238,1551,-2955,-3401,754,116,76,841
630563,7504680,8260792,7510070,8263734,2569,3511,-3285,-21220,2234,-2750,-3055,1972,116,76,841
631564,7505236,8261228,7510538,8264202,2156,3551,-3560,-21657,2676,-2339,-2369,4224,100,86,844
632565,7505732,8261640,7511006,8264670,2520,3726,-3883,-21523,2918,-1857,-1810,5921,100,86,844
633566,7506336,8262092,7511474,8265138,1786,3484,-4106,-21175,2994,-1527,-1558,6111,119,85,845
634567,7506876,8262556,7511942,8265606,2156,3411,-4158,-20816,2938,-984,-1143,6397,119,85,845
635568,7507448,8263020,7512410,8266074,1911,3414,-3876,-19906,2776,31,-332,10477,113,94,847
636569,7508060,8263524,7512878,8266542,1599,3149,-1306,-13853,2222,5638,92,32767,113,94,847
637570,7508664,8264024,7513346,8267010,1589,3160,2313,-6311,1421,4750,340,32767,112,91,848
638571,7509284,8264524,7513814,8267478,1423,3147,3690,-4048,899,509,584,6674,112,91,848
639572,7509932,8265084,7514282,8267946,1170,2731,3341,-5045,557,1302,830,5235,112,111,851
640580,7510536,8265568,7514754,8268418,1388,3202,2777,-6494,232,2540,536,4293,112,111,851
641574,7511120,8266032,7515222,8268886,1463,3329,2625,-7379,8,3229,-96,3382,120,103,852
642575,7511756,8266532,7515690,8269354,1065,3091,2818,-8114,-145,3683,218,2421,120,103,852
643576,7512352,8267024,7516158,8269822,1259,3130,3009,-9006,-331,4257,817,1911,107,96,850
644577,7512928,8267560,7516626,8270290,1338,2826,3168,-10220,-501,4379,961,1066,107,96,850
645578,7513476,8268052,7517094,8270758,1478,3091,3323,-11738,-639,4242,430,156,118,87,851
646579,7514040,8268480,7517562,8271226,1337,3509,3454,-13268,-783,3861,417,292,118,87,851
647580,7514568,8268928,7518030,8271694,1536,3394,3543,-14462,-829,3146,-228,1149,103,83,851
648581,7515056,8269396,7518498,8272162,1778,3269,3571,-15261,-752,2576,-1272,1724,103,83,851
649583,7515612,8269824,7518966,8272630,1314,3538,3587,-15618,-574,1562,-1557,2825,112,89,849
650583,7516084,8270288,7519434,8273098,1839,3314,3572,-15526,-334,173,-1625,4180,112,89,849
651584,7516568,8270752,7519902,8273566,1758,3317,3542,-15064,-87,-892,-1844,4751,93,84,847
652586,7517080,8271184,7520370,8274034,1563,3533,3479,-14408,233,-1932,-1934,5612,93,84,847
653587,7517520,8271676,7520838,8274502,2027,3148,3449,-13337,648,-2548,-1841,6448,102,97,847
654588,7517980,8272140,7521306,8274970,1906,3325,3350,-12126,1146,-3005,-1656,6462,102,97,847
655588,7518456,8272580,7521774,8275438,1803,3488,3340,-10844,1699,-3801,-1375,6548,97,86,847
656589,7518864,8273040,7522242,8275906,2255,3367,3334,-9643,2302,-4194,-1082,6348,97,86,847
657590,7519268,8273548,7522710,8276374,2309,3050,3390,-8491,2916,-4426,-671,5901,90,110,847
658591,7519700,8273988,7523178,8276842,2150,3488,3459,-7378,3565,-4822,-366,5641,90,110,847
659592,7520068,8274488,7523646,8277310,2595,3100,3535,-6444,4189,-4649,-192,4944,94,91,847
660593,7520436,8274992,7524114,8277778,2640,3059,3642,-5756,4803,-4292,42,4173,94,91,847
661594,7520868,8275516,7524582,8278246,2256,2910,3735,-5231,5432,-3967,235,3978,90,106,846
662595,7521224,8276040,7525050,8278714,2781,2887,3871,-4992,5985,-3521,324,2618,90,106,846
663596,7521568,8276516,7525518,8279182,2911,3183,3991,-5070,6509,-2922,126,2032,89,105,847
664597,7521960,8276928,7525986,8279650,2645,3609,4049,-5108,7131,-1955,-631,2184,89,105,847
665599,7522292,8277472,7526454,8280118,3081,2750,3920,-5199,7834,-525,-1388,1934,83,91,844
666599,7522600,8277976,7526922,8280586,3302,2985,3770,-5480,8460,737,-901,1155,83,91,844
667600,7522928,8278548,7527390,8281054,3239,2515,3657,-5949,8940,1688,-425,396,80,102,845
668602,7523264,8279092,7527858,8281522,3248,2657,3562,-6587,9235,2595,261,70,80,102,845
669602,7523588,8279620,7528326,8281990,3388,2731,3417,-7281,9378,3165,777,434,81,100,845
670604,7523916,8280244,7528794,8282458,3424,2062,3223,-7750,9441,3657,1085,1116,81,100,845
671604,7524256,8280824,7529262,8282926,3406,2289,2950,-7729,9256,4364,2581,2336,80,114,844
672605,7524580,8281528,7529730,8283394,3571,1411,2633,-7418,8924,5103,3012,2767,80,114,844
673606,7524948,8282092,7530198,8283862,3341,2244,2360,-7023,8507,5490,3593,3060,81,116,845
674607,7525328,8282668,7530666,8284330,3305,2122,2104,-6528,7967,5258,3853,3666,81,116,845
675615,7525696,8283296,7531138,8284802,3427,1728,1939,-5784,7374,5023,3645,4038,70,114,845
676610,7526068,8283856,7531606,8285270,3445,2114,1893,-5094,6794,5034,3467,3617,70,114,845
677610,7526508,8284560,7532074,8285738,3033,1110,1903,-4434,6186,4757,3414,3726,95,115,847
678611,7526916,8285200,7532542,8286206,3261,1435,1924,-3565,5541,4299,3025,4298,95,115,847
679612,7527332,8285800,7533010,8286674,3236,1627,2031,-2677,4904,4114,2516,3654,85,118,850
680613,7527836,8286420,7533478,8287142,2671,1435,2220,-2153,4318,4229,1995,2532,85,118,850
681614,7528320,8287008,7533946,8287610,2790,1583,2468,-1659,3851,3987,979,2523,90,112,850
682615,7528776,8287652,7534414,8288078,2971,1156,2742,-1294,3490,3554,380,1864,90,112,850
683616,7529348,8288248,7534882,8288546,2201,1399,2883,-1092,2997,3242,543,1480,105,118,852
684618,7529808,8288972,7535350,8289014,2906,487,2866,-638,2510,3247,-31,2386,105,118,852
685618,7530384,8289628,7535818,8289482,2134,829,2765,158,2190,3414,-321,3048,114,116,854
686619,7530884,8290288,7536286,8289950,2596,720,2652,1183,1976,3601,-399,3559,114,116,854
687620,7531412,8290864,7536754,8290418,2396,1198,2600,2329,1725,3204,25,3604,101,119,856
688621,7532004,8291512,7537222,8290886,1943,668,2656,3322,1445,2833,-178,2658,101,119,856
689622,7532548,8292080,7537690,8291354,2210,1124,2795,3950,1137,2697,-400,1841,107,109,856
690623,7533136,8292596,7538158,8291822,1883,1427,2891,4424,879,2629,-857,1773,107,109,856
691624,7533656,8293140,7538626,8292290,2287,1219,2928,4934,668,2649,-1198,1445,118,92,858
692625,7534228,8293572,7539094,8292758,1917,1935,2878,5345,442,2555,-1256,1061,118,92,858
693626,7534860,8293944,7539562,8293226,1471,2352,2730,5747,220,2451,-1343,1291,117,85,856
694627,7535400,8294380,7540030,8293694,2015,1966,2490,6168,-16,2556,-1019,961,117,85,856
695628,7536004,8294824,7540498,8294162,1556,1927,2262,6368,-285,2581,-634,225,105,80,855
696629,7536580,8295192,7540966,8294630,1684,2446,2013,6451,-559,2658,-196,5,105,80,855
697630,7537172,8295580,7541434,8295098,1530,2355,1672,6614,-796,2941,-148,174,104,71,853
698631,7537724,8295936,7541902,8295566,1745,2604,1230,6925,-924,3127,-143,427,104,71,853
699632,7538328,8296284,7542370,8296034,1361,2707,667,7308,-1025,3271,228,701,119,82,851
700633,7538828,8296608,7542838,8296502,1998,2920,-132,8001,-1214,3477,1611,1913,119,82,851
701634,7539360,8296980,7543306,8296970,1770,2662,-845,8155,-1600,2720,2000,-712,118,80,851
702635,7539876,8297340,7543774,8297438,1849,2785,-1364,7755,-2186,2228,2561,-1825,118,80,851
703636,7540456,8297676,7544242,8297906,1401,2993,-1842,7040,-2831,1821,2899,-2033,112,66,847
704637,7541020,8298012,7544710,8298374,1460,3051,-2333,6510,-3429,1674,2742,-1443,112,66,847
705638,7541616,8298384,7545178,8298842,1204,2868,-2923,6249,-3905,1641,2737,-861,118,85,850
706639,7542152,8298804,7545646,8299310,1550,2589,-3561,6107,-4288,1666,2793,-554,118,85,850
707640,7542740,8299136,7546114,8299778,1173,3199,-4147,5797,-4603,1710,2514,-964,98,83,850
708641,7543252,8299472,7546582,8300246,1629,3233,-4630,5279,-4835,1667,1999,-1264,98,83,850
709642,7543916,8299868,7547050,8300714,594,2889,-5005,4726,-5016,1483,2153,-1363,106,87,852
710652,7544444,8300292,7547522,8301186,1420,2735,-5302,3992,-5240,1117,3029,-1882,106,87,852
711644,7545032,8300680,7547990,8301654,992,2996,-5540,3168,-5538,851,3605,-1998,103,81,849
712645,7545540,8301100,7548458,8302122,1476,2817,-5761,2360,-5878,523,3802,-1816,103,81,849
713646,7546080,8301556,7548926,8302590,1244,2597,-6175,1058,-6471,-237,3232,-1319,117,80,852
714648,7546580,8301964,7549394,8303058,1481,2924,-6342,445,-6782,-634,3260,-1159,117,80,852
715648,7547116,8302372,7549862,8303526,1226,2951,-6561,-51,-7187,-758,2435,-867,99,90,851
716650,7547616,8302792,7550330,8303994,1438,2897,-6838,-699,-7571,-620,781,-1427,99,90,851
717650,7548056,8303288,7550798,8304462,1825,2409,-7082,-1599,-7785,-362,-20,-1908,105,98,851
718652,7548524,8303792,7551266,8304930,1651,2345,-7292,-2558,-7749,-185,-554,-1945,105,98,851
719652,7549012,8304288,7551734,8305398,1518,2382,-7445,-3492,-7445,-242,-1150,-1905,98,93,851
720654,7549384,8304812,7552202,8305866,2286,2183,-7572,-4353,-6972,-749,-1408,-1503,98,93,851
721654,7549752,8305308,7552670,8306334,2356,2345,-7646,-5238,-6405,-1294,-1823,-1394,94,90,854
722655,7550160,8305784,7553138,8306802,2132,2467,-7765,-5929,-5766,-1288,-2447,-524,94,90,854
723656,7550528,8306252,7553606,8307270,2427,2518,-7872,-6531,-5010,-1121,-3252,-233,89,106,851
724657,7550860,8306760,7554074,8307738,2712,2250,-7970,-7107,-4120,-1152,-4101,157,89,106,851
725658,7551272,8307200,7554542,8308206,2238,2688,-8041,-7713,-3111,-1195,-4863,209,79,99,851
726659,7551660,8307688,7555010,8308674,2423,2379,-8060,-8558,-2015,-796,-5662,-175,79,99,851
727660,7552024,8308208,7555478,8309142,2619,2156,-7996,-9564,-906,-92,-6100,-472,69,101,849
728661,7552372,8308748,7555946,8309610,2773,1999,-7916,-10634,135,222,-5940,-304,69,101,849
729662,7552600,8309204,7556414,8310078,3629,2531,-7805,-11742,1061,237,-5979,-212,70,105,849
730663,7552948,8309668,7556882,8310546,2932,2482,-7729,-12740,1892,373,-6034,836,70,105,849
731664,7553340,8310248,7557350,8311014,2692,1708,-7730,-13200,2662,622,-6352,2680,65,95,849
732666,7553692,8310808,7557818,8311482,2994,1793,-7754,-13273,3411,903,-6753,3624,65,95,849
733666,7554040,8311304,7558286,8311950,3071,2180,-7751,-13102,4092,961,-6960,4976,83,106,848
734667,7554440,8311756,7558754,8312418,2777,2462,-7090,-10832,4947,3378,-8148,15977,83,106,848
735668,7554784,8312380,7559222,8312886,3183,1319,-868,6307,4643,25702,-6141,32767,94,130,849
736669,7555156,8312992,7559690,8313354,3051,1332,7312,25425,3749,23879,-7960,32767,94,130,849
737670,7555540,8313672,7560158,8313822,3014,813,10105,29414,4010,6309,-5604,967,102,134,849
738671,7555936,8314292,7560626,8314290,2972,1122,9188,24234,4626,5141,-2718,-4004,102,134,849
739672,7556324,8315004,7561094,8314758,3058,439,7961,17957,5011,5125,-2413,-6291,92,127,851
740673,7556724,8315664,7561562,8315226,3013,680,7337,14395,5339,5117,-2609,-3841,92,127,851
741674,7557184,8316316,7562030,8315694,2642,649,7198,12243,5820,4524,-2365,-4595,102,113,851
742675,7557600,8316868,7562498,8316162,2941,1236,7014,9845,6206,4099,-2320,-5197,102,113,851
743676,7558072,8317416,7562966,8316630,2590,1226,6816,7302,6386,2706,-1844,-4501,107,126,854
744677,7558536,8317944,7563434,8317098,2643,1325,6497,4825,6437,1426,-1639,-3054,107,126,854
745685,7558956,8318484,7563906,8317570,2942,1220,5960,3007,6184,291,-1436,-1674,102,118,853
746679,7559396,8318980,7564374,8318038,2830,1483,5449,1356,5574,-1699,-72,-1832,102,118,853
747680,7559880,8319412,7564842,8318506,2549,1898,5009,79,4620,-3072,922,-393,89,90,853
748682,7560340,8319760,7565310,8318974,2704,2475,4216,-301,3325,-4460,1617,3163,89,90,853
749682,7560760,8320148,7565778,8319442,2976,2260,3099,347,1995,-5571,2424,5909,94,70,852
750683,7561224,8320516,7566246,8319910,2703,2429,1968,1210,585,-6077,3663,4896,94,70,852
751684,7561660,8320844,7566714,8320378,2893,2741,928,2014,-967,-6910,4568,4946,90,62,847
752685,7562068,8321156,7567182,8320846,3096,2909,-37,2487,-2580,-7877,4877,4493,90,62,847
753686,7562460,8321420,7567650,8321314,3230,3299,-877,2754,-4092,-7977,4031,3971,87,60,847
754687,7562928,8321692,7568118,8321782,2756,3335,-1540,2925,-5242,-7864,2274,3444,87,60,847
755688,7563344,8321924,7568586,8322250,3105,3689,-2171,3171,-5939,-7257,-398,3650,76,55,844
756689,7563764,8322172,7569054,8322718,3102,3685,-2802,3135,-6281,-6730,-1187,2433,76,55,844
757703,7564232,8322388,7569522,8323186,2803,3800,-3254,2428,-6531,-6284,362,474,76,60,843
758704,7564652,8322640,7569990,8323654,3125,3800,-3536,1093,-6742,-5611,-56,-1019,76,60,843
759692,7565100,8322924,7570458,8324122,2960,3747,-3673,-744,-6780,-5156,-1097,-2187,90,58,839
760706,7565580,8323192,7570926,8324590,2756,3800,-3633,-2883,-6508,-4702,-2309,-2942,90,58,839
761707,7566044,8323472,7571394,8325058,2859,3800,-3481,-5202,-5945,-3969,-3181,-3611,90,71,838
762695,7566508,8323812,7571862,8325526,2861,3625,-3340,-7615,-5169,-3258,-3678,-3717,90,71,838
763709,7566992,8324112,7572330,8325994,2730,3800,-3245,-10019,-4210,-2746,-4062,-3647,83,63,840
764698,7567444,8324460,7572798,8326462,2938,3702,-3179,-12428,-3158,-2316,-4089,-3188,83,63,840
765698,7567908,8324816,7573266,8326930,2866,3702,-3102,-14581,-2102,-2108,-3810,-2397,92,74,841
766699,7568424,8325216,7573734,8327398,2521,3457,-3017,-16486,-1084,-2081,-3626,-1607,92,74,841
767700,7568936,8325632,7574202,8327866,2528,3380,-2903,-18168,-163,-1974,-3274,-872,100,87,841
768701,7569416,8326052,7574670,8328334,2723,3376,-2815,-19635,657,-1971,-3098,96,100,87,841
769702,7569916,8326488,7575138,8328802,2585,3291,-2808,-20765,1335,-1768,-2753,1595,96,95,844
770703,7570512,8326924,7575606,8329270,1930,3305,-2965,-21237,1805,-1491,-2131,3928,96,95,844
771704,7571048,8327308,7576074,8329738,2276,3668,-3274,-20977,2064,-1429,-1492,6321,101,93,845
772705,7571540,8327716,7576542,8330206,2542,3545,-3508,-20463,2155,-1440,-1132,6699,101,93,845
773706,7572164,8328216,7577010,8330674,1649,2957,-3540,-19779,2153,-1026,-193,7289,104,93,847
774707,7572700,8328684,7577478,8331142,2170,3157,-1984,-16258,1971,2383,272,31875,104,93,847
775708,7573276,8329172,7577946,8331610,1874,3024,1980,-7138,1428,6578,-145,32767,112,95,844
776709,7573924,8329628,7578414,8332078,1345,3229,4434,-1942,1143,629,-848,16018,112,95,844
777710,7574572,8330084,7578882,8332546,1267,3235,4627,-1355,1123,-207,81,6624,130,108,848
778711,7575160,8330584,7579350,8333014,1590,2946,3967,-2869,1018,641,1254,4627,130,108,848
779712,7575768,8331092,7579818,8333482,1404,2879,3647,-3939,704,1547,1876,4165,134,96,850
780721,7576336,8331496,7580290,8333954,1613,3560,3699,-4703,429,2108,1810,2738,134,96,850
781714,7576976,8331972,7580758,8334422,1088,3106,3976,-5630,215,2799,1865,1453,131,85,850
782716,7577640,8332432,7581226,8334890,852,3211,4146,-6916,75,3354,1727,904,131,85,850
783716,7578196,8332864,7581694,8335358,1490,3401,4263,-8423,63,3242,943,561,130,97,847
784718,7578712,8333368,7582162,8335826,1720,2937,4332,-9985,86,3184,566,264,130,97,847
785718,7579248,8333792,7582630,8336294,1565,3456,4385,-11441,87,3007,794,267,118,79,851
786732,7579832,8334164,7583098,8336762,1215,3800,4432,-12631,142,2296,283,641,118,79,851
787720,7580324,8334608,7583566,8337230,1779,3385,4424,-13613,289,1538,-603,1177,98,96,850
788721,7580816,8335020,7584034,8337698,1770,3610,4411,-14244,497,665,-1049,2120,98,96,850
789722,7581348,8335416,7584502,8338166,1493,3742,4347,-14331,729,-211,-1164,3519,107,82,847
790723,7581860,8335900,7584970,8338634,1598,3186,4249,-14085,963,-1140,-1216,4035,107,82,847
791724,7582328,8336380,7585438,8339102,1874,3206,4087,-13457,1267,-1880,-1526,5538,111,91,846
792725,7582832,8336812,7585906,8339570,1633,3523,3876,-12320,1676,-2667,-1176,6411,111,91,846
793726,7583272,8337288,7586374,8340038,2047,3244,3655,-11138,2143,-3406,-1004,6318,92,104,848
794727,7583712,8337752,7586842,8340506,2060,3322,3483,-9890,2676,-4018,-896,6509,92,104,848
795728,7584196,8338160,7587310,8340974,1778,3698,3359,-8713,3265,-4360,-471,6214,107,93,846
796730,7584636,8338620,7587778,8341442,2066,3378,3286,-7562,3863,-4425,110,5753,107,93,846
797730,7584996,8339100,7588246,8341910,2614,3247,3245,-6636,4433,-4513,631,5166,85,100,846
798732,7585392,8339520,7588714,8342378,2421,3644,3280,-5927,4997,-4394,787,4295,85,100,846
799732,7585784,8340008,7589182,8342846,2481,3212,3242,-5363,5602,-4133,623,4157,98,103,847
800733,7586200,8340492,7589650,8343314,2354,3230,3240,-4806,6234,-3781,638,3749,98,103,847
801734,7586596,8340968,7590118,8343782,2511,3277,3242,-4682,6809,-3222,782,2264,93,85,844
802735,7586936,8341492,7590586,8344250,2919,2953,3277,-4879,7305,-2470,758,1478,93,85,844
803736,7587284,8341960,7591054,8344718,2921,3304,3250,-5196,7826,-1536,246,1302,89,86,845
804750,7587640,8342344,7591522,8345186,2921,3800,3090,-5574,8406,-137,-554,1256,89,86,845
805738,7588020,8342856,7591990,8345654,2811,3047,2880,-5936,8877,972,322,883,93,104,845
806739,7588332,8343380,7592458,8346122,3306,2947,2589,-6274,9197,1826,937,1236,93,104,845
807740,7588664,8343896,7592926,8346590,3240,2977,2274,-6716,9409,2552,783,543,64,94,841
808741,7589016,8344452,7593394,8347058,3167,2689,2027,-7526,9424,2746,1240,-468,64,94,841
809742,7589376,8344960,7593862,8347526,3166,2972,1869,-8303,9211,3074,1788,190,66,117,843
810743,7589700,8345548,7594330,8347994,3455,2419,1580,-8542,8860,3666,1644,1829,66,117,843
811744,7590068,8346124,7594798,8348462,3225,2448,1186,-8340,8444,4055,2109,2445,84,102,845
812745,7590412,8346748,7595266,8348930,3431,2079,804,-7961,7875,4029,3175,3153,84,102,845
813746,7590764,8347372,7595734,8349398,3433,2012,510,-7439,7185,4456,3493,3387,87,123,844
814747,7591172,8347880,7596202,8349866,3110,2719,313,-6873,6477,4625,3413,3325,87,123,844
815755,7591560,8348520,7596674,8350338,3272,1820,278,-6539,5826,4346,2802,2357,88,116,846
816749,7591948,8349100,7597142,8350806,3308,2147,358,-6286,5199,3696,1989,2380,88,116,846
817750,7592392,8349696,7597610,8351274,2970,1991,475,-5763,4610,3288,1560,3211,100,126,845
818751,7592824,8350392,7598078,8351742,3061,1266,619,-5126,4087,3551,1265,2974,100,126,845
819752,7593256,8351004,7598546,8352210,3078,1728,780,-4493,3701,3902,682,2787,102,120,846
820753,7593728,8351636,7599014,8352678,2827,1531,960,-3741,3415,3473,526,2954,102,120,846
821754,7594236,8352220,7599482,8353146,2586,1780,1157,-3198,3109,2965,101,2401,113,125,851
822755,7594732,8352844,7599950,8353614,2650,1462,1282,-2592,2703,2756,193,2872,113,125,851
823756,7595236,8353500,7600418,8354082,2585,1179,1347,-1625,2352,2785,210,3656,90,130,852
824757,7595772,8354184,7600886,8354550,2356,909,1362,-552,2097,2947,55,3581,90,130,852
825758,7596316,8354832,7601354,8355018,2273,1056,1368,608,1878,2911,-215,3935,102,117,853
826759,7596760,8355512,7601822,8355486,2910,763,1418,1910,1701,2582,-460,4155,102,117,853
827760,7597368,8356180,7602290,8355954,1824,750,1493,2951,1515,2486,-859,3308,97,133,856
828761,7597900,8356768,7602758,8356422,2272,1197,1622,3779,1273,2312,-864,2779,97,133,856
829762,7598404,8357428,7603226,8356890,2433,662,1731,4420,1032,2291,-949,2285,116,112,852
830763,7599008,8357916,7603694,8357358,1749,1728,1814,4793,754,2573,-871,1255,116,112,852
831764,7599512,8358476,7604162,8357826,2359,1238,1817,4938,461,2622,-759,1088,116,100,856
832765,7600108,8358964,7604630,8358294,1729,1679,1789,5278,249,2716,-958,1388,116,100,856
833766,7600692,8359364,7605098,8358762,1754,2259,1681,5518,126,2986,-1316,912,116,95,856
834767,7601252,8359780,7605566,8359230,1864,2182,1555,5725,100,3167,-1166,860,116,95,856
835768,7601828,8360216,7606034,8359698,1717,2071,1385,5924,89,3306,-702,645,113,91,856
836769,7602448,8360572,7606502,8360166,1376,2620,1170,5948,16,3484,-443,-97,113,91,856
837770,7602968,8360968,7606970,8360634,1979,2402,904,5910,-79,3516,-99,96,108,81,853
838771,7603504,8361328,7607438,8361102,1850,2674,322,6367,-181,3762,407,2245,108,81,853
839772,7604044,8361680,7607906,8361570,1794,2774,-393,6925,-380,3436,753,1285,103,64,851
840773,7604608,8362044,7608374,8362038,1602,2745,-935,6859,-687,2927,1030,-651,103,64,851
841774,7605116,8362408,7608842,8362506,1936,2791,-1319,6422,-1101,2671,1749,-1026,115,75,850
842775,7605652,8362728,7609310,8362974,1732,3131,-1714,5778,-1652,2286,2535,-1448,115,75,850
843776,7606248,8363080,7609778,8363442,1301,2983,-2139,5257,-2232,2022,2439,-1088,112,80,851
844777,7606820,8363408,7610246,8363910,1406,3194,-2610,4892,-2745,1747,2154,-838,112,80,851
845778,7607356,8363788,7610714,8364378,1602,2908,-3119,4569,-3198,1674,1855,-603,109,80,849
846779,7608000,8364196,7611182,8364846,850,2759,-3568,4210,-3590,1536,1674,-645,109,80,849
847780,7608508,8364556,7611650,8365314,1683,3107,-3968,3851,-3936,1438,1351,-537,99,87,850
848781,7609112,8364884,7612118,8365782,1024,3368,-4329,3490,-4256,1243,1485,-427,99,87,850
849782,7609672,8365288,7612586,8366250,1259,2921,-4685,3098,-4596,998,2064,-331,109,76,853
850792,7610332,8365676,7613058,8366722,552,3058,-4985,2699,-5021,775,2612,-712,109,76,853
851784,7610788,8366160,7613526,8367190,1833,2452,-5218,2131,-5511,450,2678,-1130,103,93,849
852785,7611336,8366564,7613994,8367658,1224,2980,-5401,1526,-5969,94,2403,-898,103,93,849
853787,7611880,8366984,7614462,8368126,1215,2901,-5586,976,-6337,-274,2194,-654,97,93,853
854787,7612352,8367408,7614930,8368594,1664,2896,-5804,492,-6679,-569,2350,-627,97,93,853
855788,7612856,8367860,7615398,8369062,1449,2728,-6105,39,-7109,-625,2427,-720,95,94,851
856789,7613348,8368304,7615866,8369530,1514,2789,-6450,-684,-7533,-306,1292,-1556,95,94,851
857790,7613848,8368768,7616334,8369998,1450,2666,-6780,-1632,-7771,70,286,-1669,106,98,851
858791,7614292,8369280,7616802,8370466,1812,2347,-7048,-2593,-7746,139,-486,-1610,106,98,851
859792,7614724,8369776,7617270,8370934,1902,2434,-7249,-3400,-7516,68,-1050,-1440,95,101,851
860793,7615084,8370312,7617738,8371402,2401,2156,-7411,-4197,-7111,-500,-1705,-1254,95,101,851
861794,7615484,8370772,7618206,8371870,2181,2634,-7574,-5105,-6619,-909,-2029,-1205,82,99,852
862795,7615900,8371256,7618674,8372338,2105,2477,-7711,-5991,-6086,-794,-2485,-1078,82,99,852
863796,7616240,8371736,7619142,8372806,2636,2497,-7789,-6861,-5445,-626,-3229,-720,72,92,850
864797,7616592,8372252,7619610,8373274,2613,2251,-7847,-7557,-4652,-561,-4161,-107,72,92,850
865798,7617000,8372716,7620078,8373742,2289,2578,-7895,-8285,-3688,-608,-4762,65,82,109,851
866799,7617384,8373168,7620546,8374210,2477,2660,-7931,-9061,-2618,-72,-5368,346,82,109,851
867800,7617708,8373720,7621014,8374678,2915,1998,-7930,-9830,-1524,653,-5837,414,73,101,849
868801,7618016,8374296,7621482,8375146,3087,1801,-7901,-10590,-483,816,-5973,663,73,101,849
869802,7618272,8374704,7621950,8375614,3506,2877,-7837,-11420,443,713,-6403,904,69,106,849
870803,7618600,8375156,7622418,8376082,3117,2610,-7731,-12235,1289,792,-7209,1362,69,106,849
871804,7618948,8375764,7622886,8376550,3046,1574,-7614,-12704,2067,990,-7441,2658,64,88,847
872805,7619348,8376344,7623354,8377018,2752,1700,-7534,-12865,2732,1236,-6988,3810,64,88,847
873806,7619712,8376820,7623822,8377486,3024,2346,-7318,-11455,3459,2810,-7529,11944,98,114,845
874807,7620088,8377284,7624290,8377954,2989,2423,-1492,3108,3304,22190,-4498,32767,98,114,845
875808,7620476,8377932,7624758,8378422,2950,1194,7204,22369,2529,24288,-5517,32767,82,114,851
876809,7620824,8378512,7625226,8378890,3254,1570,10249,28411,3136,7274,-6519,6136,82,114,851
877810,7621208,8379216,7625694,8379358,3067,691,9049,24805,4206,5559,-2818,-1525,88,136,849
878811,7621608,8379892,7626162,8379826,2998,774,7545,18941,4682,5500,-761,-5811,88,136,849
879812,7622000,8380628,7626630,8380294,3082,282,6893,14977,4838,4974,-1614,-4385,102,128,849
880813,7622400,8381220,7627098,8380762,3062,1127,6881,12539,5173,4086,-1778,-4765,102,128,849
881814,7622848,8381848,7627566,8381230,2772,832,6757,10236,5592,4074,-1974,-4720,96,131,853
882815,7623292,8382392,7628034,8381698,2808,1324,6524,7724,5867,2618,-1573,-4790,96,131,853
883816,7623712,8382936,7628502,8382166,2980,1290,6138,5281,6019,1147,-1118,-3201,105,113,851
884817,7624184,8383492,7628970,8382634,2655,1176,5590,3567,5983,611,-1107,-1413,105,113,851
885825,7624624,8384064,7629442,8383106,2870,1033,4986,2278,5720,-1150,-701,-419,86,111,851
886819,7625052,8384600,7629910,8383574,2963,1227,4591,1287,5139,-2814,323,206,86,111,851
887820,7625548,8385004,7630378,8384042,2527,2080,4011,878,4147,-3964,1659,2531,106,107,854
888821,7625984,8385388,7630846,8384510,2917,2242,3168,1394,3060,-5140,2399,5601,106,107,854
889822,7626420,8385764,7631314,8384978,2932,2332,2324,2313,1982,-5772,2938,5311,97,89,851
890823,7626848,8386172,7631782,8385446,3001,2158,1583,3153,776,-6703,3713,4856,97,89,851
891824,7627336,8386472,7632250,8385914,2618,2907,884,3729,-614,-7908,5099,4581,103,82,849
892825,7627756,8386780,7632718,8386382,3064,2928,190,3963,-2208,-8262,5666,3578,103,82,849
893826,7628172,8387068,7633186,8386850,3113,3131,-380,4092,-3680,-8341,4447,3412,89,68,847
894827,7628644,8387312,7633654,8387318,2762,3504,-916,4313,-4679,-8040,1950,3568,89,68,847
895828,7629064,8387544,7634122,8387786,3109,3683,-1474,4358,-5313,-7407,-770,2610,85,46,843
896829,7629472,8387776,7634590,8388254,3212,3787,-2020,3959,-5704,-7022,-1551,1409,85,46,843
897830,7629964,8388036,7635058,8388722,2677,3704,-2458,3102,-5925,-6338,-1415,140,87,61,841
898831,7630388,8388316,7635526,8389190,3122,3662,-2773,1574,-6116,-5782,-778,-1683,87,61,841
899845,7630828,8388584,7635994,8389658,3036,3800,-2991,-245,-6179,-5468,-1178,-1885,78,62,837
900845,7631340,8388856,7636462,8390126,2567,3800,-3138,-2207,-5988,-4830,-2014,-2401,78,62,837
901834,7631784,8389164,7636930,8390594,3004,3731,-3296,-4235,-5507,-3923,-2846,-2500,93,73,840
902835,7632252,8389516,7637398,8391062,2855,3508,-3405,-6245,-4717,-3247,-3393,-2569,93,73,840
903849,7632776,8389820,7637866,8391530,2481,3800,-3482,-8416,-3753,-2640,-3729,-2717,98,77,840
904837,7633212,8390164,7638334,8391998,3046,3684,-3535,-10635,-2744,-2214,-3839,-2629,98,77,840
905838,7633708,8390520,7638802,8392466,2660,3660,-3583,-12830,-1734,-2060,-3566,-2430,103,72,841
906839,7634176,8390928,7639270,8392934,2836,3361,-3601,-14951,-799,-1846,-3244,-2084,103,72,841
907840,7634740,8391352,7639738,8393402,2195,3280,-3555,-16956,-11,-1897,-2941,-1587,107,95,841
908841,7635252,8391780,7640206,8393870,2502,3274,-3452,-18775,651,-1878,-2905,-719,107,95,841
909842,7635732,8392212,7640674,8394338,2697,3265,-3340,-20234,1213,-1478,-2929,409,107,97,844
910843,7636320,8392648,7641142,8394806,1971,3254,-3310,-21186,1653,-1354,-2682,2281,107,97,844
911844,7636852,8393076,7641610,8395274,2293,3322,-3312,-21708,1951,-1427,-2344,3698,101,94,846
912845,7637388,8393536,7642078,8395742,2240,3126,-3329,-21715,2099,-1250,-1899,5390,101,94,846
913846,7638000,8394020,7642546,8396210,1702,2970,-3372,-21256,2106,-1058,-1178,7014,123,88,847
914847,7638580,8394548,7643014,8396678,1853,2669,-3258,-20307,1985,-639,-596,8572,123,88,847
915848,7639148,8395040,7643482,8397146,1885,2884,-954,-15395,1619,3890,-510,32767,105,102,848
916849,7639796,8395516,7643950,8397614,1307,2980,3206,-6683,951,5593,-252,32767,105,102,848
917850,7640372,8396000,7644418,8398082,1711,2923,5241,-2638,486,88,396,11032,124,91,850
918851,7640960,8396524,7644886,8398550,1584,2650,5047,-2695,265,159,712,6596,124,91,850
919853,7641612,8396972,7645354,8399018,1103,3134,4401,-4100,69,1199,546,4621,130,94,852
920860,7642212,8397448,7645826,8399490,1373,2957,4147,-4962,-107,2065,368,4237,130,94,852
921854,7642828,8397932,7646294,8399958,1209,2901,4259,-5451,-191,2444,675,3336,112,91,852
922855,7643404,8398392,7646762,8400426,1412,3054,4471,-6244,-270,2997,824,1762,112,91,852
923856,7644012,8398860,7647230,8400894,1151,3005,4661,-7468,-319,3128,987,921,122,89,852
924857,7644532,8399336,7647698,8401362,1679,2952,4863,-8991,-287,2938,898,373,122,89,852
925858,7645064,8399708,7648166,8401830,1576,3644,4979,-10457,-216,2895,367,409,115,89,850
926859,7645628,8400128,7648634,8402298,1334,3366,5056,-11757,-80,2359,18,449,115,89,850
927860,7646128,8400564,7649102,8402766,1721,3280,5065,-12776,100,1653,-18,1207,99,81,850
928861,7646624,8400960,7649570,8403234,1734,3563,5016,-13405,290,745,-761,1988,99,81,850
929862,7647172,8401412,7650038,8403702,1375,3220,4930,-13664,558,-393,-1383,2932,112,78,847
930863,7647648,8401864,7650506,8404170,1821,3228,4833,-13592,893,-1255,-1506,3800,112,78,847
931864,7648156,8402268,7650974,8404638,1605,3556,4711,-13213,1236,-2002,-1444,4269,95,84,846
932865,7648608,8402744,7651442,8405106,1962,3102,4565,-12558,1613,-2827,-1290,5005,95,84,846
933866,7649072,8403180,7651910,8405574,1890,3368,4412,-11664,2091,-3570,-1296,5504,105,80,848
934867,7649512,8403592,7652378,8406042,2052,3542,4250,-10582,2621,-4179,-1121,5880,105,80,848
935868,7649968,8404008,7652846,8406510,1958,3541,4094,-9458,3196,-4777,-828,5721,97,86,848
936869,7650384,8404476,7653314,8406978,2231,3216,3981,-8394,3782,-4983,-534,5427,97,86,848
937870,7650768,8404908,7653782,8407446,2469,3458,3945,-7531,4317,-4928,133,4507,83,103,845
938871,7651164,8405384,7654250,8407914,2427,3179,3880,-6897,4853,-4806,305,4177,83,103,845
939872,7651532,8405864,7654718,8408382,2646,3150,3838,-6219,5424,-4586,270,4024,82,98,846
940873,7651944,8406328,7655186,8408850,2396,3252,3749,-5701,6020,-4042,420,3426,82,98,846
941874,7652296,8406868,7655654,8409318,2822,2746,3684,-5443,6574,-3339,512,2431,95,101,846
942875,7652696,8407356,7656122,8409786,2553,3062,3579,-5375,7147,-2565,120,1913,95,101,846
943877,7653052,8407804,7656590,8410254,2878,3322,3415,-5440,7799,-1520,-590,1743,78,90,846
944877,7653384,8408284,7657058,8410722,3088,3117,3174,-5644,8360,-293,98,1155,78,90,846
945878,7653732,8408748,7657526,8411190,3042,3220,2891,-5917,8797,864,531,952,72,104,846
946879,7654048,8409228,7657994,8411658,3310,3114,2592,-6249,9125,1876,987,566,72,104,846
947880,7654356,8409772,7658462,8412126,3431,2681,2273,-6856,9285,2537,1797,-109,82,102,843
948881,7654712,8410324,7658930,8412594,3180,2595,2012,-7565,9242,2957,2592,-117,82,102,843
949882,7655032,8410816,7659398,8413062,3471,2960,1723,-8056,8941,3626,3499,616,78,93,841
950883,7655348,8411420,7659866,8413530,3564,2201,1386,-8235,8489,4394,3906,1124,78,93,841
951884,7655696,8411924,7660334,8413998,3418,2810,1077,-8365,7978,4670,4210,1134,70,105,844
952885,7656052,8412580,7660802,8414466,3418,1778,807,-8347,7412,4607,4090,1922,70,105,844
953886,7656400,8413144,7661270,8414934,3522,2311,563,-8027,6815,4498,3439,2605,80,115,844
954887,7656800,8413672,7661738,8415402,3228,2510,399,-7516,6282,4460,2856,2873,80,115,844
955895,7657172,8414272,7662210,8415874,3446,2005,358,-7172,5814,4411,2628,2236,69,116,847
956889,7657556,8414852,7662678,8416342,3409,2080,392,-6695,5339,3788,2276,2810,69,116,847
957890,7657952,8415556,7663146,8416810,3367,1202,494,-5931,4833,3312,1879,3348,98,117,845
958891,7658420,8416160,7663614,8417278,2918,1767,685,-5310,4316,3539,1481,2482,98,117,845
959892,7658868,8416732,7664082,8417746,3053,1922,920,-4791,3883,3624,982,2239,96,109,846
960893,7659348,8417368,7664550,8418214,2849,1448,1138,-4088,3553,3161,551,2910,96,109,846
961894,7659816,8417948,7665018,8418682,2925,1749,1272,-3312,3265,2971,7,3031,107,119,849
962895,7660336,8418624,7665486,8419150,2578,1058,1305,-2367,2945,3035,19,3623,107,119,849
963896,7660800,8419264,7665954,8419618,2930,1207,1274,-1131,2637,2998,132,4154,105,121,851
964897,7661356,8419944,7666422,8420086,2318,864,1245,81,2302,3007,143,3727,105,121,851
965898,7661876,8420540,7666890,8420554,2521,1333,1274,1172,1928,2820,73,3506,111,131,854
966899,7662352,8421240,7667358,8421022,2793,581,1355,2317,1633,2704,-439,3595,111,131,854
967900,7662948,8421840,7667826,8421490,1988,1148,1402,3376,1423,2775,-1084,3395,118,138,856
968901,7663496,8422432,7668294,8421958,2254,1143,1458,4324,1205,2735,-1018,3134,118,138,856
969902,7663992,8423060,7668762,8422426,2568,848,1547,5063,953,2697,-926,2301,119,124,854
970903,7664612,8423588,7669230,8422894,1727,1447,1656,5478,644,2906,-989,1257,119,124,854
971904,7665132,8424108,7669698,8423362,2330,1474,1716,5610,326,2876,-1088,1003,104,101,854
972905,7665692,8424572,7670166,8423830,2041,1825,1700,5781,54,2987,-1222,924,104,101,854
973906,7666252,8424900,7670634,8424298,2001,2737,1608,5860,-148,3157,-1377,335,123,96,856
974907,7666860,8425380,7671102,8424766,1640,1781,1474,5873,-277,3291,-1229,357,123,96,856
975908,7667436,8425768,7671570,8425234,1793,2391,1265,5888,-384,3526,-736,373,106,81,854
976910,7667992,8426112,7672038,8425702,1881,2720,989,5942,-490,3784,-474,180,106,81,854
977910,7668552,8426508,7672506,8426170,1816,2427,641,6046,-589,4022,-40,517,128,66,855
978911,7669124,8426836,7672974,8426638,1695,2913,-151,6861,-687,4639,1146,3488,128,66,855
979912,7669656,8427184,7673442,8427106,1918,2841,-873,7074,-956,3495,1118,-553,112,61,850
980913,7670244,8427504,7673910,8427574,1517,3081,-1276,6697,-1365,2952,964,-1163,112,61,850
981914,7670760,8427828,7674378,8428042,1946,3120,-1661,6042,-1779,2692,1119,-1046,119,65,850
982915,7671312,8428156,7674846,8428510,1685,3156,-2069,5614,-2219,2370,1383,-658,119,65,850
983916,7671912,8428484,7675314,8428978,1328,3218,-2579,5319,-2670,1958,1500,-562,100,61,848
984917,7672492,8428788,7675782,8429446,1404,3440,-3084,5077,-3115,1550,1526,-585,100,61,848
985918,7673040,8429184,7676250,8429914,1569,2896,-3572,4816,-3538,1356,1584,-291,108,82,848
986919,7673660,8429560,7676718,8430382,1053,3062,-3977,4507,-3956,1217,1710,-495,108,82,848
987920,7674152,8429956,7677186,8430850,1843,2969,-4320,4123,-4376,1173,1633,-573,96,71,848
988922,7674740,8430288,7677654,8431318,1191,3429,-4662,3727,-4743,1113,1455,-404,96,71,848
989922,7675288,8430704,7678122,8431786,1407,2927,-5004,3431,-5052,1006,1525,-138,108,88,851
990932,7675892,8431084,7678594,8432258,999,3192,-5359,3054,-5405,660,2081,-447,108,88,851
991924,7676404,8431528,7679062,8432726,1556,2803,-5636,2554,-5825,272,2281,-874,119,99,849
992925,7676940,8431992,7679530,8433194,1376,2681,-5862,2063,-6253,11,2161,-562,119,99,849
993926,7677488,8432432,7679998,8433662,1267,2843,-6077,1650,-6623,-285,2139,-428,99,96,850
994927,7678012,8432820,7680466,8434130,1392,3203,-6337,1121,-6993,-476,2500,-770,99,96,850
995928,7678468,8433240,7680934,8434598,1823,3024,-6632,508,-7379,-515,1866,-1021,104,90,851
996929,7678956,8433720,7681402,8435066,1614,2645,-6933,-295,-7697,-186,308,-1452,104,90,851
997930,7679424,8434196,7681870,8435534,1740,2666,-7255,-1137,-7853,53,-379,-1320,100,103,850
998931,7679848,8434724,7682338,8436002,2035,2315,-7556,-1984,-7832,-63,-396,-1260,100,103,850
999932,7680232,8435244,7682806,8436470,2322,2342,-7832,-2793,-7645,-583,-334,-1098,81,106,852
1000933,7680628,8435764,7683274,8436938,2279,2320,-8071,-3573,-7260,-1050,-990,-988,81,106,852
1001934,7681016,8436264,7683742,8437406,2364,2431,-8245,-4411,-6729,-1178,-1528,-1001,74,95,852
1002935,7681424,8436776,7684210,8437874,2267,2337,-8380,-5316,-6098,-978,-2097,-730,74,95,852
1003936,7681792,8437224,7684678,8438342,2561,2746,-8472,-6226,-5380,-1172,-2439,-813,78,86,850
1004937,7682144,8437684,7685146,8438810,2713,2674,-8546,-7230,-4588,-1348,-3048,-496,78,86,850
1005938,7682556,8438188,7685614,8439278,2363,2385,-8592,-8243,-3723,-1025,-3743,-246,82,96,850
1006939,7682952,8438644,7686082,8439746,2495,2690,-8600,-9173,-2781,-549,-4159,171,82,96,850
1007940,7683264,8439172,7686550,8440214,3090,2213,-8586,-10005,-1812,-164,-4398,640,67,94,847
1008941,7683564,8439792,7687018,8440682,3238,1572,-8625,-10852,-840,65,-4846,1222,67,94,847
1009942,7683872,8440228,7687486,8441150,3260,2736,-8625,-11500,120,232,-5154,1927,80,105,848
1010943,7684236,8440672,7687954,8441618,2956,2697,-8590,-11992,1044,419,-5548,2619,80,105,848
1011944,7684608,8441300,7688422,8442086,2949,1477,-8513,-12308,1912,617,-5976,3464,69,88,848
1012945,7685024,8441896,7688890,8442554,2697,1621,-7982,-11844,2718,1681,-6662,8111,69,88,848
1013946,7685396,8442444,7689358,8443022,3016,1886,-2111,1556,2856,18091,-7675,32767,77,109,846
1014947,7685764,8442808,7689826,8443490,3086,3081,6827,21206,2595,20811,-9529,32767,77,109,846
1015948,7686148,8443416,7690294,8443958,3022,1495,10605,26952,2955,5413,-5536,3303,91,110,851
1016949,7686528,8444064,7690762,8444426,3087,1166,9722,22722,3855,4601,-4561,-2585,91,110,851
1017950,7686932,8444752,7691230,8444894,2966,819,8119,16622,4690,4869,-4638,-5746,82,125,844
1018951,7687340,8445412,7691698,8445362,2969,910,7273,12675,5202,4724,-3414,-4404,82,125,844
1019952,7687716,8446172,7692166,8445830,3210,156,7135,10295,5659,4244,-2804,-4510,94,128,851
1020953,7688140,8446736,7692634,8446298,2930,1339,6927,7982,6138,4323,-3529,-4387,94,128,851
1021954,7688596,8447396,7693102,8446766,2736,655,6627,5650,6621,3214,-3352,-4053,96,135,852
1022955,7689044,8447988,7693570,8447234,2795,1025,6194,3330,6991,1906,-2151,-2788,96,135,852
1023956,7689492,8448580,7694038,8447702,2805,971,5633,1500,6991,1131,-1416,-1620,86,124,852
1024957,7689912,8449188,7694506,8448170,3002,809,4990,-12,6658,-528,-628,-804,86,124,852
1025965,7690380,8449708,7694978,8448642,2705,1338,4402,-992,6084,-1786,210,696,86,117,853
1026959,7690860,8450228,7695446,8449110,2626,1314,3752,-1491,5314,-2722,388,2066,86,117,853
1027960,7691300,8450700,7695914,8449578,2889,1612,3081,-1739,4322,-4226,2530,2956,96,105,853
1028961,7691816,8451184,7696382,8450046,2393,1530,2340,-1406,3029,-4915,4458,4936,96,105,853
1029962,7692232,8451632,7696850,8450514,3042,1764,1522,-457,1660,-5073,4615,6339,105,108,853
1030963,7692688,8452032,7697318,8450982,2798,2094,821,755,486,-5670,3608,6628,105,108,853
1031964,7693160,8452416,7697786,8451450,2697,2230,267,1858,-545,-6207,2716,6354,93,94,853
1032965,7693584,8452780,7698254,8451918,3018,2401,-197,2687,-1611,-6657,3384,5692,93,94,853
1033966,7694040,8453076,7698722,8452386,2824,2901,-524,3262,-2801,-7014,4572,4507,75,79,849
1034967,7694512,8453332,7699190,8452854,2723,3244,-748,3283,-3978,-6855,4091,3007,75,79,849
1035968,7694924,8453644,7699658,8453322,3124,2963,-974,2996,-4902,-6509,2530,2481,102,60,847
1036969,7695388,8453940,7700126,8453790,2802,3139,-1264,2659,-5437,-5888,362,2362,102,60,847
1037970,7695888,8454228,7700594,8454258,2563,3268,-1701,2123,-5638,-5014,-1734,1509,90,71,842
1038971,7696336,8454496,7701062,8454726,2897,3481,-2161,1341,-5497,-4143,-3391,1006,90,71,842
1039972,7696816,8454808,7701530,8455194,2693,3274,-2475,286,-5083,-3394,-3876,122,86,55,843
1040973,7697328,8455072,7701998,8455662,2475,3664,-2631,-1123,-4504,-2672,-3811,-928,86,55,843
1041974,7697812,8455392,7702466,8456130,2644,3379,-2674,-2817,-3875,-2571,-2921,-1518,88,58,841
1042975,7698296,8455696,7702934,8456598,2638,3551,-2673,-4726,-3222,-2406,-2462,-2027,88,58,841
1043976,7698740,8455984,7703402,8457066,2899,3730,-2635,-6789,-2559,-2101,-2474,-2398,96,78,842
1044977,7699296,8456328,7703870,8457534,2162,3435,-2551,-8891,-1863,-1970,-2396,-2364,96,78,842
1045978,7699780,8456688,7704338,8458002,2606,3383,-2533,-10944,-1182,-1901,-2009,-2057,113,68,841
1046979,7700280,8457008,7704806,8458470,2491,3698,-2584,-12823,-602,-1740,-1481,-1302,113,68,841
1047980,7700820,8457424,7705274,8458938,2211,3121,-2670,-14492,-119,-1709,-1102,-728,114,72,845
1048981,7701356,8457816,7705742,8459406,2207,3305,-2744,-16022,262,-1565,-1026,-163,114,72,845
1049982,7701860,8458212,7706210,8459874,2392,3312,-2762,-17286,563,-1429,-1453,839,113,98,843
1050983,7702420,8458592,7706678,8460342,2003,3451,-2703,-18283,836,-1443,-1966,1804,113,98,843
1051984,7702928,8459048,7707146,8460810,2311,2981,-2559,-18867,1063,-1392,-2004,3010,100,96,846
1052985,7703464,8459520,7707614,8461278,2106,2880,-2583,-18867,1252,-1210,-1691,5342,100,96,846
1053986,7704084,8460032,7708082,8461746,1515,2611,-2706,-18075,1359,-1020,-1390,7730,114,92,846
1054987,7704648,8460496,7708550,8462214,1824,2912,-2819,-17104,1388,-1046,-1302,7607,114,92,846
1055988,7705224,8460952,7709018,8462682,1703,2969,-2769,-16222,1321,-938,-608,7731,117,103,849
1056989,7705840,8461432,7709486,8463150,1388,2813,-2700,-15450,1169,-593,-82,7875,117,103,849
1057990,7706436,8461908,7709954,8463618,1457,2835,-2616,-14573,961,-310,249,8122,108,94,850
1058991,7707020,8462404,7710422,8464086,1483,2699,-2496,-13756,763,-80,417,7823,108,94,850
1059992,7707592,8462856,7710890,8464554,1512,2981,-2285,-12887,557,467,592,8452,113,100,851
1061000,7708248,8463332,7711362,8465026,907,2829,-1101,-10592,303,2915,605,22392,113,100,851
1061994,7708820,8463768,7711830,8465494,1387,3094,643,-7788,-5,3585,929,22312,110,94,851
1062995,7709368,8464240,7712298,8465962,1502,2867,1653,-6941,-221,1939,1493,5479,110,94,851
1063996,7709948,8464736,7712766,8466430,1254,2705,1942,-7782,-325,2231,1460,3582,103,82,853
1064997,7710444,8465148,7713234,8466898,1767,3256,2145,-9035,-372,2715,1196,2668,103,82,853
1065998,7710988,8465564,7713702,8467366,1434,3253,2429,-10059,-312,3051,802,2692,114,93,851
1066999,7711508,8465992,7714170,8467834,1561,3196,2855,-10959,-195,2926,966,2051,114,93,851
1068000,7711988,8466392,7714638,8468302,1807,3402,3240,-11903,-71,2630,461,1979,108,88,848
1069001,7712472,8466820,7715106,8468770,1775,3244,3557,-12582,91,2026,-133,2538,108,88,848
1070002,7713012,8467316,7715574,8469238,1394,2807,3803,-13170,343,1557,-575,2775,110,90,848
1071003,7713488,8467740,7716042,8469706,1791,3277,3983,-13487,672,1217,-858,3713,110,90,848
1072004,7713980,8468196,7716510,8470174,1681,3083,4098,-13373,1031,392,-907,4669,102,101,847
1073005,7714440,8468664,7716978,8470642,1885,3009,4116,-12926,1438,-521,-1262,5721,102,101,847
1074006,7714896,8469104,7717446,8471110,1916,3196,4120,-12054,1848,-1480,-1260,6718,94,92,847
1075007,7715328,8469460,7717914,8471578,2082,3770,4059,-11074,2258,-2301,-1127,7181,94,92,847
1076008,7715744,8469988,7718382,8472046,2206,2670,4007,-9828,2703,-2634,-1222,7799,102,103,849
1077010,7716132,8470424,7718850,8472514,2416,3259,3934,-8516,3198,-2903,-1202,7932,102,103,849
1078010,7716540,8470888,7719318,8472982,2318,3087,3797,-7235,3710,-2986,-1298,7964,84,87,845
1079011,7716932,8471352,7719786,8473450,2452,3088,3654,-5913,4153,-2831,-690,7809,84,87,845
1080012,7717348,8471796,7720254,8473918,2326,3224,3442,-4787,4548,-2509,-99,7264,87,88,845
1081013,7717716,8472328,7720722,8474386,2669,2647,3245,-3941,4931,-1912,95,6369,87,88,845
1082014,7718056,8472812,7721190,8474854,2902,2940,3006,-3378,5330,-1196,299,5531,72,95,846
1083015,7718428,8473248,7721658,8475322,2745,3255,2800,-3038,5732,-370,819,4530,72,95,846
1084016,7718776,8473716,7722126,8475790,2948,3055,2632,-3155,6078,518,1052,2979,74,99,846
1085017,7719088,8474224,7722594,8476258,3242,2787,2553,-3645,6383,1377,891,1908,74,99,846
1086018,7719444,8474644,7723062,8476726,3017,3359,2498,-4203,6720,2089,371,1775,69,92,844
1087019,7719752,8475212,7723530,8477194,3388,2390,2403,-4816,7001,2712,204,1324,69,92,844
1088020,7720064,8475732,7723998,8477662,3432,2668,2346,-5497,7272,3284,-500,1091,82,99,844
1089021,7720428,8476208,7724466,8478130,3154,2940,2359,-6165,7475,3322,-479,982,82,99,844
1090022,7720732,8476792,7724934,8478598,3601,2214,2393,-6739,7546,3235,-957,1137,83,101,844
1091023,7721052,8477332,7725402,8479066,3567,2459,2494,-7211,7494,3505,-717,1204,83,101,844
1092024,7721432,8477924,7725870,8479534,3232,2079,2703,-7648,7283,3857,570,1403,65,100,843
1093025,7721788,8478492,7726338,8480002,3432,2185,2928,-7735,6887,3991,1502,2380,65,100,843
1094026,7722136,8478992,7726806,8480470,3536,2596,3117,-7293,6395,3896,1483,3720,77,100,843
1095027,7722508,8479592,7727274,8480938,3429,1914,3270,-6392,5894,3603,1417,4862,77,100,843
1096035,7722912,8480132,7727746,8481410,3260,2259,3354,-5163,5350,3273,1849,5885,71,103,845
1097029,7723284,8480704,7728214,8481878,3503,2013,3377,-3571,4781,3003,2019,6690,71,103,845
1098030,7723696,8481388,7728682,8482346,3278,1218,3414,-1870,4187,3004,2008,6493,91,120,847
1099031,7724168,8481960,7729150,8482814,2902,1874,3475,-393,3563,3079,2105,5723,91,120,847
1100032,7724596,8482604,7729618,8483282,3195,1346,3564,919,2998,2770,1718,5522,88,125,846
1101033,7725056,8483140,7730086,8483750,3000,1992,3611,2133,2509,2574,1153,5169,88,125,846
1102034,7725600,8483800,7730554,8484218,2443,1132,3611,3200,2082,2915,606,4532,105,126,850
1103035,7726060,8484456,7731022,8484686,2972,1075,3570,4136,1705,3180,515,3956,105,126,850
1104036,7726524,8485136,7731490,8485154,2950,831,3516,4921,1330,3324,720,3193,108,121,849
1105037,7727084,8485780,7731958,8485622,2310,979,3497,5378,1027,3493,422,2324,108,121,849
1106038,7727592,8486448,7732426,8486090,2619,741,3483,5820,815,3380,-147,2262,98,114,850
1107039,7728080,8487104,7732894,8486558,2736,734,3461,6216,736,3349,-682,1926,98,114,850
1108040,7728680,8487584,7733362,8487026,1979,1828,3409,6379,616,3193,-458,1030,101,114,856
1109041,7729172,8488236,7733830,8487494,2644,672,3407,6172,393,2768,-215,-301,101,114,856
1110042,7729712,8488744,7734298,8487962,2314,1555,3389,5741,126,2576,-152,-724,105,116,854
1111043,7730224,8489224,7734766,8488430,2470,1725,3327,5245,-117,2549,-448,-1132,105,116,854
1112044,7730832,8489756,7735234,8488898,1809,1370,3127,4758,-257,2368,-876,-927,120,100,854
1113045,7731400,8490136,7735702,8489366,2016,2359,2850,4572,-241,2267,-1212,-363,120,100,854
1114046,7731912,8490484,7736170,8489834,2348,2612,2487,4533,-241,2097,-993,-213,123,94,853
1115047,7732548,8490940,7736638,8490302,1500,1942,2105,4577,-313,1939,-633,-42,123,94,853
1116048,7733120,8491336,7737106,8490770,1855,2349,1668,4721,-458,1905,-209,82,124,84,851
1117049,7733704,8491696,7737574,8491238,1729,2621,1170,4855,-659,1834,-45,-71,124,84,851
1118050,7734324,8492048,7738042,8491706,1438,2722,596,4990,-889,1585,137,135,125,69,855
1119051,7734852,8492380,7738510,8492174,1988,2907,-30,5153,-1163,1203,528,161,125,69,855
1120052,7735372,8492732,7738978,8492642,2016,2833,-684,5327,-1517,739,760,70,108,63,850
1121053,7735956,8492996,7739446,8493110,1565,3473,-1332,5515,-1923,365,1223,101,108,63,850
1122054,7736468,8493280,7739914,8493578,1997,3428,-1963,5650,-2416,180,1834,-94,103,76,849
1123055,7737016,8493572,7740382,8494046,1738,3456,-2542,5697,-2993,12,2443,-529,103,76,849
1124056,7737616,8493864,7740850,8494514,1355,3533,-3078,5585,-3619,-196,3130,-760,100,61,847
1125057,7738220,8494192,7741318,8494982,1271,3370,-3601,5413,-4207,-184,2815,-581,100,61,847
1126058,7738744,8494484,7741786,8495450,1746,3672,-4105,5344,-4639,9,1907,-176,108,69,846
1127059,7739408,8494816,7742254,8495918,786,3482,-4622,5325,-4866,310,1062,189,108,69,846
1128060,7739984,8495204,7742722,8496386,1290,3167,-5136,5291,-4949,496,584,300,109,63,847
1129061,7740516,8495568,7743190,8496854,1537,3364,-5608,5095,-5029,337,911,-227,109,63,847
1130062,7741044,8495908,7743658,8497322,1536,3570,-5983,4643,-5207,-135,1410,-782,102,80,849
1131072,7741600,8496364,7744130,8497794,1324,2852,-6241,3847,-5495,-585,1857,-1549,102,80,849
1132064,7742172,8496824,7744598,8498262,1180,2830,-6358,2728,-5835,-685,2119,-2411,115,98,847
1133065,7742668,8497292,7745066,8498730,1642,2781,-6378,1375,-6110,-510,1511,-3050,115,98,847
1134066,7743220,8497696,7745534,8499198,1255,3210,-6369,-220,-6207,-246,48,-3443,97,94,852
1135067,7743672,8498160,7746002,8499666,1888,2836,-6345,-1761,-6112,67,-476,-3246,97,94,852
1136068,7744108,8498568,7746470,8500134,2002,3213,-6406,-3158,-5946,134,172,-2830,91,84,851
1137069,7744620,8499044,7746938,8500602,1509,2785,-6543,-4264,-5781,-54,-197,-1849,91,84,851
1138070,7745056,8499500,7747406,8501070,1998,2915,-6768,-5162,-5599,-617,-562,-998,78,99,849
1139071,7745456,8499976,7747874,8501538,2254,2787,-6988,-5915,-5368,-1122,-714,-601,78,99,849
1140072,7745920,8500488,7748342,8502006,1856,2544,-7290,-6624,-5130,-1223,-152,-175,93,91,851
1141073,7746304,8501016,7748810,8502474,2394,2417,-7522,-7199,-4890,-1184,187,-179,93,91,851
1142074,7746684,8501512,7749278,8502942,2457,2605,-7781,-7801,-4521,-1150,-787,119,96,99,849
1143075,7747068,8502092,7749746,8503410,2470,2032,-8024,-8345,-3981,-1246,-2086,828,96,99,849
1144076,7747424,8502520,7750214,8503878,2695,2999,-8222,-8922,-3342,-1396,-2429,962,80,96,850
1145077,7747780,8503036,7750682,8504346,2745,2428,-8359,-9421,-2691,-1132,-2834,1303,80,96,850
1146078,7748176,8503520,7751150,8504814,2526,2621,-8446,-9882,-2045,-839,-3247,1491,71,108,851
1147079,7748572,8503984,7751618,8505282,2559,2749,-8458,-10472,-1375,-638,-3501,1784,71,108,851
1148080,7748916,8504592,7752086,8505750,2939,1787,-8414,-10945,-708,-124,-3683,2378,75,100,847
1149081,7749176,8505252,7752554,8506218,3556,1378,-8349,-11481,-26,494,-4102,2061,75,100,847
1150082,7749532,8505688,7753022,8506686,3006,2792,-8210,-12134,685,956,-4336,2027,70,103,846
1151083,7749904,8506132,7753490,8507154,2948,2753,-8107,-12794,1393,1272,-4388,2767,70,103,846
1152084,7750268,8506716,7753958,8507622,3045,1828,-8057,-13224,2062,1709,-4702,3595,81,103,847
1153085,7750656,8507364,7754426,8508090,2931,1349,-7734,-13114,2698,2798,-5207,6621,81,103,847
1154086,7751024,8507936,7754894,8508558,3100,1778,-1737,-2174,2797,16153,-4557,32767,78,109,846
1155087,7751392,8508332,7755362,8509026,3145,2909,7469,16000,2307,18753,-6638,32767,78,109,846
1156088,7751784,8508892,7755830,8509494,3030,1844,10747,22622,2742,6624,-5136,8012,89,128,851
1157089,7752180,8509520,7756298,8509962,3037,1349,8531,20643,3880,7025,-2800,3753,89,128,851
1158090,7752540,8510236,7756766,8510430,3310,690,6023,15894,4707,6324,-3006,-4380,78,145,845
1159091,7752924,8510924,7757234,8510898,3198,768,5312,11060,4886,5425,-1807,-7718,78,145,845
1160092,7753332,8511640,7757702,8511366,3075,484,5558,7461,4912,5223,-1048,-5933,87,123,849
1161093,7753744,8512232,7758170,8511834,3076,1205,5632,4438,5149,5248,-2223,-5598,87,123,849
1162094,7754188,8512924,7758638,8512302,2887,481,5463,1870,5517,4508,-2745,-4454,108,123,851
1163095,7754620,8513528,7759106,8512770,2978,971,5100,-361,5839,3207,-2154,-2718,108,123,851
1164096,7755072,8514176,7759574,8513238,2861,617,4661,-1943,5972,2445,-2001,-395,100,123,851
1165097,7755488,8514820,7760042,8513706,3110,565,4033,-2851,5883,1292,-1360,1155,100,123,851
1166105,7755964,8515356,7760514,8514178,2734,1212,3488,-3561,5426,-420,96,1168,91,110,852
1167099,7756408,8515916,7760982,8514646,2946,1020,2977,-4281,4434,-2115,2258,1286,91,110,852
1168100,7756856,8516420,7761450,8515114,2930,1355,2352,-4535,3036,-3556,4049,3749,92,112,853
1169101,7757360,8516944,7761918,8515582,2566,1205,1716,-3867,1742,-3790,4336,5738,92,112,853
1170102,7757812,8517464,7762386,8516050,2899,1207,1158,-2870,746,-3883,3708,5735,88,110,851
1171103,7758260,8517924,7762854,8516518,2932,1585,715,-1563,-67,-4755,2878,6967,88,110,851
1172104,7758744,8518360,7763322,8516986,2701,1749,291,2,-718,-5375,410,7993,89,100,853
1173105,7759184,8518692,7763790,8517454,2990,2458,74,1419,-1284,-5715,-2791,6895,89,100,853
1174107,7759644,8519020,7764258,8517922,2869,2545,50,2411,-1967,-6530,-1164,5818,98,89,850
1175108,7760136,8519356,7764726,8518390,2660,2552,22,3067,-2878,-6904,2372,4820,98,89,850
1176109,7760560,8519692,7765194,8518858,3105,2610,-88,3241,-3867,-6681,3553,3127,90,82,847
1177110,7761060,8519964,7765662,8519326,2617,3096,-154,3070,-4754,-6309,3167,1778,90,82,847
1178111,7761544,8520256,7766130,8519794,2711,3048,-165,2551,-5305,-5550,962,989,104,57,847
1179111,7762036,8520536,7766598,8520262,2650,3206,-222,1944,-5470,-4672,-1842,952,104,57,847
1180112,7762504,8520808,7767066,8520730,2801,3342,-411,1276,-5254,-3864,-3534,739,105,55,845
1181114,7763036,8521088,7767534,8521198,2374,3375,-680,507,-4770,-3164,-4172,431,105,55,845
1182115,7763544,8521376,7768002,8521666,2508,3404,-979,-336,-4161,-2653,-3855,240,107,74,842
1183116,7764016,8521672,7768470,8522134,2732,3430,-1189,-1467,-3539,-2336,-2878,-591,107,74,842
1184116,7764532,8521968,7768938,8522602,2437,3505,-1327,-2976,-2988,-1997,-2090,-1417,101,75,845
1185117,7765044,8522292,7769406,8523070,2443,3393,-1371,-4704,-2488,-1780,-1598,-2090,101,75,845
1186118,7765568,8522616,7769874,8523538,2344,3457,-1394,-6691,-2035,-1568,-992,-2602,92,72,843
1187119,7766056,8523024,7770342,8524006,2561,2958,-1369,-8779,-1678,-1306,-618,-2863,92,72,843
1188120,7766632,8523404,7770810,8524474,1965,3172,-1370,-10887,-1326,-1145,-638,-2425,114,84,845
1189122,7767144,8523768,7771278,8524942,2346,3318,-1312,-12736,-973,-954,-762,-1843,114,84,845
1190123,7767704,8524108,7771746,8525410,2007,3525,-1328,-14347,-646,-924,-1466,-923,107,75,846
1191123,7768200,8524532,7772214,8525878,2394,3019,-1435,-15345,-348,-897,-2122,1671,107,75,846
1192124,7768764,8524960,7772682,8526346,1928,3012,-1814,-15475,-109,-797,-1919,4585,107,97,845
1193125,7769268,8525452,7773150,8526814,2288,2602,-2133,-15310,28,-722,-1372,4426,107,97,845
1194127,7769888,8525940,7773618,8527282,1498,2618,-2348,-15184,87,-656,-1105,4971,107,91,846
1195127,7770464,8526380,7774086,8527750,1725,2931,-2539,-14713,40,-435,-216,6880,107,91,846
1196128,7771060,8526828,7774554,8528218,1545,2889,-2837,-13877,-159,-220,626,7961,125,95,850
1197130,7771692,8527296,7775022,8528686,1249,2765,-3028,-13015,-344,-168,147,7336,125,95,850
1198131,7772268,8527780,7775490,8529154,1551,2658,-3100,-12215,-410,52,-228,7595,112,107,850
1199132,7772836,8528252,7775958,8529622,1558,2732,-3148,-11345,-392,374,-560,8245,112,107,850
1200132,7773432,8528720,7776426,8530090,1328,2757,-3125,-10525,-322,443,-774,7720,123,108,852
1201140,7774048,8529188,7776898,8530562,1140,2759,-2984,-10130,-252,664,-898,6317,123,108,852
1202134,7774628,8529628,7777366,8531030,1317,2947,-2771,-10053,-262,1111,-267,5645,108,97,851
1203135,7775184,8530072,7777834,8531498,1428,2932,-2526,-10212,-292,1493,414,5105,108,97,851
1204136,7775784,8530536,7778302,8531966,1096,2810,-2223,-10529,-265,1835,382,4532,120,92,852
1205137,7776268,8530932,7778770,8532434,1814,3267,-1862,-10820,-130,2207,156,4732,120,92,852
1206139,7776804,8531356,7779238,8532902,1460,3111,-920,-10343,33,2899,399,11768,93,97,851
1207140,7777292,8531784,7779706,8533370,1751,3103,380,-9449,129,3200,647,13335,93,97,851
1208141,7777816,8532156,7780174,8533838,1503,3497,1345,-9544,217,1955,651,3420,106,95,848
1209142,7778288,8532612,7780642,8534306,1826,2977,1792,-10404,391,1435,211,3114,106,95,848
1210143,7778836,8533056,7781110,8534774,1316,3062,2107,-11213,691,1211,-779,3416,88,92,849
1211144,7779296,8533456,7781578,8535242,1870,3368,2373,-11484,1144,720,-1505,4432,88,92,849
1212144,7779712,8533888,7782046,8535710,2168,3184,2584,-11372,1668,-13,-1429,5042,102,92,849
1213145,7780224,8534304,7782514,8536178,1550,3307,2803,-11101,2160,-657,-1248,5347,102,92,849
1214146,7780648,8534700,7782982,8536646,2119,3465,3030,-10794,2591,-1553,-840,5482,103,92,846
1215147,7781056,8535104,7783450,8537114,2247,3443,3291,-10461,2995,-2165,-724,5829,103,92,846
1216148,7781512,8535548,7783918,8537582,1952,3203,3487,-9909,3473,-2344,-945,6832,99,91,847
1217149,7781888,8535976,7784386,8538050,2493,3322,3623,-9067,4063,-2493,-1061,7462,99,91,847
1218150,7782248,8536440,7784854,8538518,2641,3099,3697,-8039,4685,-2510,-1355,7865,79,84,845
1219151,7782624,8536912,7785322,8538986,2582,3048,3679,-6938,5179,-2533,-471,8161,79,84,845
1220152,7783068,8537332,7785790,8539454,2168,3394,3631,-5920,5557,-1997,522,7836,96,82,844
1221153,7783424,8537884,7786258,8539922,2768,2532,3548,-5160,5899,-1098,816,6806,96,82,844
1222154,7783776,8538348,7786726,8540390,2844,3085,3431,-4646,6192,-408,1196,6218,74,88,846
1223155,7784172,8538780,7787194,8540858,2602,3301,3286,-4295,6415,207,1490,5620,74,88,846
1224156,7784500,8539208,7787662,8541326,3088,3344,3143,-4302,6547,1218,1679,4173,79,88,847
1225157,7784816,8539704,7788130,8541794,3231,2907,3057,-4569,6627,2106,1767,3621,79,88,847
1226158,7785172,8540180,7788598,8542262,3030,3028,2925,-4694,6744,2706,1072,4153,84,103,844
1227159,7785484,8540700,7789066,8542730,3375,2732,2717,-4747,6894,3433,474,3962,84,103,844
1228160,7785808,8541180,7789534,8543198,3364,2976,2541,-4922,6959,3953,855,3250,61,103,843
1229161,7786160,8541632,7790002,8543666,3241,3159,2490,-5381,6827,4113,1408,2405,61,103,843
1230162,7786480,8542212,7790470,8544134,3506,2310,2534,-5972,6580,4401,994,1907,60,99,843
1231164,7786788,8542752,7790938,8544602,3652,2528,2615,-6439,6338,4497,513,2317,60,99,843
1232164,7787172,8543352,7791406,8545070,3215,2096,2667,-6524,6153,4249,-182,3628,68,100,842
1233166,7787532,8543932,7791874,8545538,3414,2172,2691,-6225,5897,4214,-322,4227,68,100,842
1234166,7787876,8544440,7792342,8546006,3568,2605,2757,-5657,5553,3984,-391,4480,77,108,842
1235167,7788276,8544984,7792810,8546474,3249,2347,2943,-5145,5147,3472,-40,4188,77,108,842
1236175,7788680,8545564,7793282,8546946,3255,2075,3141,-4520,4622,2898,460,4896,89,112,844
1237169,7789060,8546172,7793750,8547414,3445,1838,3352,-3531,4081,2575,369,5594,89,112,844
1238170,7789448,8546828,7794218,8547882,3431,1456,3581,-2331,3680,2926,-71,5728,74,110,845
1239172,7789928,8547348,7794686,8548350,2851,2284,3864,-1301,3324,2865,397,4741,74,110,845
1240173,7790376,8547960,7795154,8548818,3061,1646,4135,-406,2906,1965,795,4709,96,111,847
1241174,7790800,8548600,7795622,8549286,3232,1395,4447,434,2463,1637,324,4086,96,111,847
1242174,7791332,8549160,7796090,8549754,2529,1855,4747,1162,2089,1892,-14,3631,101,113,849
1243175,7791832,8549912,7796558,8550222,2715,530,4989,2030,1805,1775,19,3791,101,113,849
1244176,7792280,8550508,7797026,8550690,3050,1448,5134,2726,1573,1645,-349,3020,106,119,849
1245178,7792884,8551164,7797494,8551158,2016,991,5173,3319,1374,1943,-649,2976,106,119,849
1246178,7793312,8551740,7797962,8551626,3135,1443,5073,4219,1209,1928,-667,3839,92,114,855
1247180,7793844,8552404,7798430,8552094,2458,807,4870,5204,1071,1943,-678,3555,92,114,855
1248180,7794400,8552964,7798898,8552562,2270,1417,4644,5890,885,1862,-496,2597,105,119,855
1249182,7794880,8553584,7799366,8553030,2741,975,4483,6266,686,1669,-294,1681,105,119,855
1250182,7795416,8554092,7799834,8553498,2362,1657,4403,6470,489,1947,-271,729,116,97,855
1251184,7796016,8554584,7800302,8553966,1904,1747,4264,6401,378,1985,-783,43,116,97,855
1252184,7796560,8555052,7800770,8554434,2222,1897,4076,6353,381,1784,-1033,259,109,110,853
1253186,7797104,8555536,7801238,8554902,2189,1790,3760,6355,427,1828,-1024,133,109,110,853
1254187,7797684,8555916,7801706,8555370,1916,2478,3406,6295,419,1940,-754,-544,128,86,854
1255188,7798248,8556344,7802174,8555838,1975,2195,2975,6133,310,1856,-225,-671,128,86,854
1256189,7798800,8556748,7802642,8556306,2013,2373,2484,6002,105,1947,161,-684,106,81,853
1257189,7799380,8557104,7803110,8556774,1790,2722,1587,6351,-131,2320,691,1627,106,81,853
1258190,7799960,8557464,7803578,8557242,1741,2745,721,6576,-456,1865,936,-535,105,87,851
1259191,7800536,8557816,7804046,8557710,1719,2846,35,6229,-893,1450,1005,-1491,105,87,851
1260192,7801028,8558204,7804514,8558178,2234,2656,-523,5788,-1329,1065,1093,-1262,116,75,850
1261193,7801644,8558516,7804982,8558646,1395,3200,-1157,5498,-1694,955,956,-567,116,75,850
1262194,7802192,8558808,7805450,8559114,1785,3402,-1812,5391,-2002,806,1108,-417,104,75,850
1263195,7802724,8559140,7805918,8559582,1858,3212,-2440,5275,-2357,576,1929,-591,104,75,850
1264196,7803356,8559436,7806386,8560050,1162,3512,-3029,5118,-2818,220,2384,-600,100,59,848
1265197,7803944,8559792,7806854,8560518,1384,3187,-3586,4834,-3305,-127,2360,-517,100,59,848
1266198,7804496,8560076,7807322,8560986,1573,3717,-4058,4589,-3762,-127,2301,-475,111,66,847
1267199,7805060,8560420,7807790,8561454,1456,3398,-4439,4226,-4139,-96,2075,-853,111,66,847
1268200,7805632,8560820,7808258,8561922,1362,3078,-4745,3746,-4477,-214,1963,-1105,114,67,849
1269201,7806192,8561184,7808726,8562390,1396,3348,-5018,3123,-4805,-367,2024,-1346,114,67,849
1270202,7806748,8561516,7809194,8562858,1383,3608,-5276,2451,-5137,-643,2169,-1297,107,85,847
1271212,7807324,8561984,7809666,8563330,1213,2761,-5547,1742,-5452,-689,1929,-1504,107,85,847
1272205,7807808,8562468,7810134,8563798,1782,2654,-5837,771,-5707,-450,832,-2231,98,97,848
1273205,7808328,8562864,7810602,8564266,1534,3236,-6075,-377,-5812,-149,-408,-2361,98,97,848
1274206,7808816,8563324,7811070,8564734,1726,2839,-6238,-1628,-5763,-12,-638,-2586,88,102,852
1275207,7809268,8563776,7811538,8565202,1958,2897,-6333,-2949,-5636,37,-267,-2846,88,102,852
1276208,7809740,8564188,7812006,8565670,1832,3172,-6452,-4183,-5473,-38,4,-2256,95,85,849
1277210,7810208,8564628,7812474,8566138,1857,3009,-6646,-5109,-5289,-325,240,-1322,95,85,849
1278210,7810644,8565096,7812942,8566606,2071,2834,-6908,-5829,-5045,-955,399,-509,99,89,849
1279211,7811076,8565560,7813410,8567074,2113,2862,-7180,-6316,-4724,-1445,79,248,99,89,849
1280212,7811532,8566060,7813878,8567542,1968,2623,-7518,-6517,-4385,-1209,125,1222,72,105,847
1281213,7811896,8566540,7814346,8568010,2590,2742,-7739,-6705,-4033,-954,-50,623,72,105,847
1282214,7812284,8567092,7814814,8568478,2475,2257,-7937,-7164,-3606,-958,-1330,687,78,93,847
1283215,7812684,8567612,7815282,8568946,2431,2434,-8135,-7710,-3101,-1151,-2036,878,78,93,847
1284216,7813028,8568036,7815750,8569414,2836,3053,-8320,-8322,-2552,-1126,-2122,744,65,91,847
1285217,7813400,8568564,7816218,8569882,2704,2377,-8464,-8887,-2004,-624,-2619,1233,65,91,847
1286218,7813852,8569060,7816686,8570350,2211,2565,-8547,-9442,-1440,-310,-2940,1365,66,99,849
1287219,7814220,8569592,7817154,8570818,2781,2312,-8563,-9952,-877,-162,-3230,1893,66,99,849
1288220,7814528,8570148,7817622,8571286,3226,2124,-8485,-10513,-323,317,-3658,1908,76,101,848
1289221,7814812,8570784,7818090,8571754,3458,1550,-8329,-11273,255,904,-4008,1505,76,101,848
1290222,7815184,8571224,7818558,8572222,2950,2787,-8137,-12042,872,1364,-4239,1999,81,112,847
1291223,7815524,8571660,7819026,8572690,3207,2827,-7981,-12666,1489,1714,-4469,2849,81,112,847
1292224,7815924,8572220,7819494,8573158,2863,2012,-7865,-13104,2094,2122,-4632,3448,94,97,846
1293225,7816284,8572888,7819962,8573626,3161,1249,-7498,-13212,2686,3014,-5109,5902,94,97,846
1294226,7816660,8573388,7820430,8574094,3102,2285,-1784,-3113,2883,14329,-6338,32767,73,116,844
1295227,7817012,8573820,7820898,8574562,3304,2726,7445,14522,2402,18644,-6604,32767,73,116,844
1296228,7817416,8574344,7821366,8575030,3008,2126,11723,20247,2362,5955,-3065,4769,93,125,850
1297229,7817784,8575004,7821834,8575498,3277,1193,10593,17189,2961,5854,-1853,872,93,125,850
1298230,7818132,8575736,7822302,8575966,3456,627,8541,12416,3586,6197,-1933,-3154,91,132,845
1299231,7818548,8576412,7822770,8576434,3055,885,7394,8803,4082,5823,-2433,-3625,91,132,845
1300232,7818960,8577140,7823238,8576902,3105,446,7179,6548,4493,5452,-1859,-3431,77,146,849
1301233,7819372,8577728,7823706,8577370,3131,1268,6989,4556,4860,5048,-2293,-2765,77,146,849
1302234,7819836,8578452,7824174,8577838,2808,306,6689,2852,5199,4581,-2583,-1643,90,126,851
1303235,7820296,8579048,7824642,8578306,2837,1048,6152,1383,5426,3263,-1192,-341,90,126,851
1304236,7820708,8579748,7825110,8578774,3163,296,5447,293,5218,1984,575,473,108,123,849
1305238,7821192,8580364,7825578,8579242,2707,756,4744,-907,4413,571,2408,-307,108,123,849
1306245,7821652,8580952,7826050,8579714,2863,880,4045,-2000,3176,-1023,3726,658,92,127,853
1307239,7822104,8581524,7826518,8580182,2921,935,3203,-2335,1858,-2146,3407,3126,92,127,853
1308240,7822592,8582032,7826986,8580650,2687,1316,2312,-2184,921,-2471,1843,3873,92,113,854
1309242,7823056,8582564,7827454,8581118,2840,1138,1563,-1635,451,-2500,1447,4750,92,113,854
1310242,7823516,8583104,7827922,8581586,2870,1056,919,-881,76,-2992,1623,5037,98,104,852
1311244,7824004,8583548,7828390,8582054,2687,1667,485,-128,-418,-3980,1415,4722,98,104,852
1312244,7824468,8583988,7828858,8582522,2840,1703,234,448,-860,-4459,-1297,4419,87,91,853
1313245,7824916,8584348,7829326,8582990,2949,2251,82,1014,-1160,-4565,-2570,4328,87,91,853
1314246,7825368,8584664,7829794,8583458,2932,2593,-77,1571,-1382,-5014,-1039,4256,97,73,850
