"Data file recorded 2014/9/24  14:38:47"
"%  Right Stride Frequency         = 2.0"
"%  Left Stride Frequency         = 2.0"
"%  Phase (Fractional)         = 32768.0"
"%  Experiment.py "
"%  Motor Gains    = [1800, 200, 100, 0, 0, 1800, 200, 100, 0, 0]
"% Columns: "
"% time | Right Leg Pos | Left Leg Pos | Commanded Right Leg Pos | Commanded Left Leg Pos | DCR | DCL | GyroX | GryoY | GryoZ | AX | AY | AZ | RBEMF | LBEMF | VBatt "
12187,1093820,1314996,1073340,1368252,-3800,3800,-325,-2879,773,475,-294,4053,0,-10,926
13181,1093820,1315020,1073471,1368383,-3800,3800,-322,-2878,773,468,-284,4044,-12,-4,926
14182,1093760,1315068,1073602,1368514,-3800,3800,-320,-2868,773,465,-298,4058,-12,-4,926
15183,1093636,1315164,1073733,1368645,-3800,3800,-325,-2879,774,488,-260,4099,-26,4,890
16184,1093380,1315244,1073864,1368776,-3800,3800,-343,-2861,769,505,-211,4096,-26,4,890
17185,1092964,1315348,1073995,1368907,-3800,3800,-370,-2870,764,662,-235,3952,-61,5,891
18186,1092580,1315484,1074126,1369038,-3800,3800,-405,-2947,746,714,102,3864,-61,5,891
19187,1092156,1315604,1074257,1369169,-3800,3800,-472,-3012,720,825,305,3823,-103,8,893
20175,1091596,1315776,1074388,1369300,-3275,3800,-547,-3043,705,852,420,3942,-103,8,893
21176,1090952,1315932,1074519,1369431,-2412,3800,-635,-2959,708,925,225,4143,-118,9,895
22177,1090352,1316096,1074650,1369562,-2370,3800,-731,-2931,739,1518,-158,4066,-118,9,895
23178,1089672,1316228,1074781,1369693,-1516,3800,-849,-2880,829,2207,-199,4275,-117,20,901
24180,1089008,1316408,1074912,1369824,-1269,3800,-981,-2703,932,2284,-62,4575,-117,20,901
25181,1088400,1316580,1075043,1369955,-1297,3800,-1054,-2558,999,2215,66,4292,-121,22,903
26182,1087812,1316744,1075174,1370086,-1109,3800,-1102,-2536,1076,2567,79,4308,-121,22,903
27182,1087256,1316892,1075305,1370217,-1009,3800,-1151,-2381,1191,2888,137,4624,-118,11,903
28184,1086776,1317032,1075436,1370348,-1218,3800,-1231,-2199,1282,2732,158,4749,-118,11,903
29184,1086356,1317172,1075567,1370479,-1354,3800,-1292,-1983,1287,2265,-13,4662,-75,12,905
30186,1085932,1317312,1075698,1370610,-1087,3800,-1324,-1852,1275,1805,-282,4776,-75,12,905
31186,1085612,1317456,1075829,1370741,-1541,3800,-1362,-1681,1255,1837,-55,4950,-78,18,903
32188,1085336,1317608,1075960,1370872,-1638,3800,-1416,-1429,1239,1848,-134,5009,-78,18,903
33189,1085084,1317772,1076091,1371003,-1622,3800,-1448,-1176,1265,1580,-638,4973,-58,17,903
34189,1084880,1317924,1076222,1371134,-1776,3800,-1461,-978,1337,1501,-1119,4903,-58,17,903
35190,1084696,1318068,1076353,1371265,-1765,3800,-1513,-745,1475,1710,-1600,5329,-26,16,902
36192,1084520,1318240,1076484,1371396,-1681,3800,-1579,-389,1654,1708,-1704,5530,-26,16,902
37192,1084368,1318416,1076615,1371527,-1709,3800,-1632,-109,1782,1328,-1406,5203,-21,15,901
38193,1084240,1318560,1076746,1371658,-1746,3800,-1598,-26,1843,974,-1090,4678,-21,15,901
39194,1084132,1318712,1076877,1371789,-1768,3800,-1554,30,1932,955,-956,4960,-25,16,902
40196,1084036,1318860,1077008,1371920,-1744,3800,-1505,222,2087,922,-929,5145,-25,16,902
41197,1083964,1319004,1077139,1372051,-1806,3800,-1433,305,2257,561,-947,4785,-5,15,901
42198,1083920,1319176,1077270,1372182,-1906,3800,-1302,237,2391,228,-1037,4596,-5,15,901
43198,1083860,1319328,1077401,1372313,-1723,3800,-1143,104,2455,14,-958,4649,2,15,901
44200,1083840,1319456,1077532,1372444,-1908,3800,-980,69,2462,-306,-822,4877,2,15,901
45200,1083832,1319624,1077663,1372575,-1922,3800,-815,58,2448,-688,-904,5041,7,14,901
46201,1083800,1319768,1077794,1372706,-1703,3800,-486,222,2413,-952,-871,6777,7,14,901
47202,1083772,1319932,1077925,1372837,-1659,3800,586,1961,2406,-1144,-1028,20946,-10,26,900
48204,1083736,1320068,1078056,1372968,-1537,3800,1723,3323,2361,-1001,-483,10823,-10,26,900
49204,1083692,1320204,1078187,1373099,-1411,3800,2115,2999,2252,-890,81,3193,-16,15,900
50205,1083644,1320364,1078318,1373230,-1308,3800,2072,1851,2161,-791,221,2868,-16,15,900
51206,1083608,1320524,1078449,1373361,-1311,3800,1972,750,2075,-734,578,2852,-19,18,902
52208,1083584,1320688,1078580,1373492,-1319,3800,1976,29,1932,-1101,1227,2881,-19,18,902
53208,1083556,1320868,1078711,1373623,-1225,3800,1998,-774,1700,-1458,1521,2601,3,20,903
54209,1083524,1321060,1078842,1373754,-1129,3800,1948,-1519,1434,-1573,1668,2951,3,20,903
55210,1083504,1321248,1078973,1373885,-1139,3800,1775,-2222,1207,-1846,1934,3248,-11,39,903
56212,1083508,1321464,1079104,1374016,-1234,3800,1493,-2855,1001,-2050,1965,3461,-11,39,903
57213,1083508,1321688,1079235,1374147,-1151,3800,1172,-3415,832,-2329,1727,3494,-6,42,903
58214,1083504,1321944,1079366,1374278,-1068,3800,874,-4022,738,-2481,1394,3541,-6,42,903
59214,1083488,1322252,1079497,1374409,-929,3800,608,-4499,691,-2324,1153,3906,5,54,904
60216,1083496,1322568,1079628,1374540,-1026,3800,382,-4986,689,-2251,1292,3941,5,54,904
61216,1083500,1322900,1079759,1374671,-946,3800,183,-5408,731,-2195,1654,3957,13,57,906
62218,1083496,1323216,1079890,1374802,-837,3800,25,-5959,793,-2075,1879,3721,13,57,906
63218,1083492,1323628,1080021,1374933,-779,3800,-84,-6526,871,-2022,1848,3772,6,73,906
64220,1083480,1324100,1080152,1375064,-667,3800,-135,-7000,1000,-1995,1366,3994,6,73,906
65221,1083492,1324548,1080283,1375195,-765,3800,-133,-7462,1193,-1896,594,4025,-6,78,907
66221,1083508,1325052,1080414,1375326,-740,3800,-116,-7713,1409,-1865,190,4692,-6,78,907
67222,1083500,1325556,1080545,1375457,-529,3800,-68,-7923,1608,-1758,797,4371,0,82,908
68223,1083488,1326004,1080676,1375588,-442,3800,-26,-8130,1782,-1416,1244,4668,0,82,908
69224,1083492,1326648,1080807,1375719,-487,3800,1,-8186,1987,-1080,1078,5180,0,104,908
70225,1083488,1327196,1080938,1375850,-378,3800,60,-8233,2238,-814,952,4835,0,104,908
71226,1083496,1327808,1081069,1375981,-400,3800,170,-8350,2470,-650,1332,4265,-5,113,909
72227,1083488,1328448,1081200,1376112,-239,3800,321,-8601,2668,-711,1522,4189,-5,113,909
73228,1083496,1329140,1081331,1376243,-285,3800,463,-8760,2879,-480,1400,4313,1,122,911
74229,1083476,1329828,1081462,1376374,-45,3800,613,-8885,3124,-293,879,4062,1,122,911
75230,1083480,1330600,1081593,1376505,-139,3800,776,-8905,3393,-333,552,4480,2,124,911
76231,1083480,1331284,1081724,1376636,-57,3800,964,-8788,3629,-163,432,4477,2,124,911
77232,1083460,1332132,1081855,1376767,134,3800,1178,-8675,3839,-190,-155,4485,17,136,912
78233,1083464,1332916,1081986,1376898,40,3800,1393,-8376,4020,-253,-684,4830,17,136,912
79234,1083468,1333828,1082117,1377029,95,3800,1599,-7986,4199,-335,-1562,4877,6,148,913
80235,1083452,1334852,1082248,1377160,284,3800,1787,-7473,4375,-314,-2152,5041,6,148,913
81236,1083440,1335764,1082379,1377291,322,3800,1971,-6898,4534,-293,-2617,5044,15,178,912
82237,1083444,1336792,1082510,1377422,278,3800,2142,-6326,4656,-181,-3067,4798,15,178,912
83238,1083432,1337832,1082641,1377553,441,3800,2291,-5757,4722,2,-3327,4585,8,197,913
84239,1083432,1338792,1082772,1377684,422,3800,2439,-5225,4750,279,-3135,4180,8,197,913
85240,1083432,1339848,1082903,1377815,480,3800,2619,-4825,4713,714,-2712,3579,12,191,913
86241,1083420,1341028,1083034,1377946,618,3800,2835,-4527,4624,1010,-2838,3008,12,191,913
87242,1083420,1342108,1083165,1378077,600,3800,3052,-4291,4531,1169,-3417,2789,5,205,913
88243,1083444,1343276,1083296,1378208,497,3800,3237,-4036,4428,1348,-3922,2541,5,205,913
89244,1083468,1344296,1083427,1378339,544,3800,3389,-3781,4315,1372,-4275,2372,21,201,914
90245,1083484,1345400,1083558,1378470,645,3800,3506,-3438,4187,1562,-4777,2361,21,201,914
91246,1083500,1346624,1083689,1378601,696,3800,3628,-3072,4040,1824,-5078,2024,21,199,913
92247,1083532,1347716,1083820,1378732,639,3800,3772,-2656,3858,1941,-5130,1994,21,199,913
93248,1083556,1348744,1083951,1378863,736,3800,3904,-2163,3669,1940,-5200,2088,15,194,911
94249,1083596,1349720,1084082,1378994,676,3800,4001,-1572,3456,1787,-5044,2260,15,194,911
95250,1083632,1350740,1084213,1379125,743,3800,4052,-928,3215,1719,-4884,2142,27,187,913
96251,1083676,1351716,1084344,1379256,731,3800,4131,-304,2992,1896,-4710,1628,27,187,913
97252,1083716,1352708,1084475,1379387,797,3800,4213,243,2831,2157,-4556,1379,16,182,913
98253,1083776,1353708,1084606,1379518,703,3800,4257,725,2647,2196,-4053,1080,16,182,913
99254,1083848,1354772,1084737,1379649,654,3800,4271,1079,2407,1954,-3453,506,15,190,913
100255,1083924,1355780,1084868,1379780,653,3800,4263,1268,2068,1787,-2533,-18,15,190,913
101256,1084008,1356796,1084999,1379911,624,3800,4241,1342,1635,1819,-1437,-334,33,192,914
102257,1084088,1357956,1085130,1380042,671,3800,4051,1508,1175,2015,-881,183,33,192,914
103258,1084164,1359008,1085261,1380173,722,3800,3723,1809,639,2048,-256,275,37,189,912
104259,1084244,1360028,1085392,1380304,719,3800,3372,1964,17,2017,392,-334,37,189,912
105260,1084372,1361004,1085523,1380435,420,3800,3005,1806,-645,2084,669,-1251,27,191,913
106249,1084500,1362032,1085654,1380566,422,3360,2578,1322,-1281,2040,812,-1828,27,191,913
107249,1084624,1362980,1085785,1380697,450,3505,2113,582,-1778,2227,457,-2343,21,190,914
108251,1084816,1364092,1085916,1380828,-1,2052,1634,-215,-2102,2607,3,-2255,21,190,914
109251,1084924,1365160,1086047,1380959,534,1918,1113,-969,-2311,2790,-315,-2239,37,186,915
110252,1085040,1366248,1086178,1381090,491,1376,628,-1768,-2474,3034,-506,-2416,37,186,915
111253,1085212,1367316,1086309,1381221,123,1092,280,-2742,-2532,2827,-661,-2773,47,215,921
112254,1085360,1368312,1086440,1381352,265,1165,8,-3716,-2505,2703,-678,-2471,47,215,921
113255,1085512,1369376,1086571,1381483,232,332,-318,-4401,-2385,2838,-560,-1479,47,214,923
114257,1085680,1370520,1086702,1381614,116,-610,-613,-4948,-2088,2835,-863,-1130,47,214,923
115257,1085860,1371432,1086833,1381745,19,499,-877,-5416,-1683,3106,-945,-766,56,197,924
116259,1086008,1372428,1086964,1381876,212,-405,-1140,-5710,-1237,3055,-606,46,56,197,924
117259,1086180,1373372,1087095,1382007,44,-435,-1422,-5697,-745,2838,-207,1267,38,191,925
118260,1086356,1374264,1087226,1382138,0,-443,-1670,-5611,-239,2669,79,1261,38,191,925
119261,1086520,1375192,1087357,1382269,60,-1016,-1894,-5448,205,2247,808,1773,38,163,924
120263,1086676,1375920,1087488,1382400,99,-28,-2147,-4979,596,1955,1303,2862,38,163,924
121263,1086824,1376628,1087619,1382531,142,-155,-2448,-4467,967,1798,1578,3023,27,147,921
122265,1086908,1377304,1087750,1382662,563,-194,-2741,-3822,1342,1680,2194,3509,27,147,921
123265,1087008,1377912,1087881,1382793,476,22,-3002,-3207,1723,1837,2765,3458,30,138,925
124266,1087160,1378456,1088012,1382924,143,242,-3249,-2606,2101,2229,3195,3681,30,138,925
125267,1087300,1379008,1088143,1383055,214,8,-3477,-1897,2464,2420,3830,4250,24,104,924
126268,1087404,1379416,1088274,1383186,451,787,-3702,-1045,2793,2434,3889,4800,24,104,924
127269,1087528,1379800,1088405,1383317,329,827,-3920,-226,3024,2246,3952,4711,28,77,925
128270,1087640,1380112,1088536,1383448,412,1198,-4098,516,3153,2057,3886,4613,28,77,925
129271,1087736,1380336,1088667,1383579,528,1708,-4261,1106,3161,2065,4117,4315,16,50,923
130273,1087880,1380556,1088798,1383710,223,1695,-4582,1964,2927,1880,4647,5831,16,50,923
131273,1087976,1380720,1088929,1383841,538,2030,-5154,3019,2427,1491,5442,6431,22,31,919
132274,1088036,1380876,1089060,1383972,795,2070,-5811,3721,1591,1318,6841,4575,22,31,919
133275,1088104,1381044,1089191,1384103,772,1979,-6432,3981,360,1035,7783,4038,26,31,918
134276,1088172,1381156,1089322,1384234,800,2338,-7088,4097,-865,826,4856,4075,26,31,918
135277,1088256,1381264,1089453,1384365,722,2374,-7667,3814,-1807,585,3170,2188,15,30,915
136285,1088320,1381380,1089724,1384636,937,2392,-8073,2797,-2781,-244,3291,246,15,30,915
137279,1088416,1381468,1089855,1384767,753,2587,-8361,1447,-3819,-829,2743,21,23,16,914
138280,1088488,1381580,1089986,1384898,929,2446,-8565,125,-4835,-1191,2637,204,23,16,914
139281,1088580,1381680,1090117,1385029,822,2535,-8663,-1176,-5575,-1265,1419,268,14,17,913
140282,1088684,1381808,1090248,1385160,759,2363,-8638,-2456,-5891,-1162,133,599,14,17,913
141283,1088764,1381928,1090379,1385291,931,2417,-8569,-3462,-5774,-930,-1132,2050,23,29,913
142284,1088840,1382084,1090510,1385422,980,2182,-8479,-4180,-5313,-875,-2040,2893,23,29,913
143285,1088972,1382192,1090641,1385553,631,2494,-7587,-4182,-4566,-1825,-3647,8770,7,17,914
144286,1089044,1382320,1090772,1385684,1032,2370,-2156,4932,-2525,-7774,-14009,32767,7,17,914
145287,1089132,1382476,1090903,1385815,951,2185,4510,14660,-543,-4807,-7610,32767,17,26,914
146288,1089244,1382572,1091034,1385946,810,2575,6994,14944,101,-549,1118,-2664,17,26,914
147289,1089364,1382724,1091165,1386077,765,2217,6722,9637,67,-252,1616,-5791,28,29,913
148290,1089448,1382876,1091296,1386208,1011,2209,6073,3823,64,477,1167,-6521,28,29,913
149291,1089540,1382996,1091427,1386339,979,2414,5750,451,526,485,386,-2551,11,24,914
150292,1089656,1383148,1091558,1386470,835,2205,5423,-1388,1391,813,-826,-678,11,24,914
151293,1089756,1383284,1091689,1386601,950,2304,4730,-2456,2261,1538,-1516,1542,32,28,913
152294,1089852,1383448,1091820,1386732,990,2115,3868,-3424,2965,609,-562,2219,32,28,913
153295,1089968,1383600,1091951,1386863,872,2181,3020,-4610,3289,40,637,2107,31,35,914
154296,1090068,1383728,1092082,1386994,987,2334,2233,-5974,3083,-282,1947,1450,31,35,914
155297,1090164,1383888,1092213,1387125,1027,2121,1409,-7248,2656,-1174,3160,2499,21,35,915
156298,1090252,1384000,1092344,1387256,1096,2430,422,-7684,2111,-1386,3407,5005,21,35,915
157299,1090344,1384120,1092475,1387387,1089,2385,-657,-7623,1554,-1743,2391,6238,26,33,914
158300,1090412,1384256,1092606,1387518,1267,2284,-1655,-7026,1256,-2317,551,8021,26,33,914
159301,1090504,1384360,1092737,1387649,1135,2497,-2515,-6191,1161,-1952,-64,8296,19,28,911
160302,1090596,1384460,1092868,1387780,1152,2535,-3237,-5478,1133,-2118,-360,8408,19,28,911
161303,1090696,1384564,1092999,1387911,1116,2523,-3786,-4669,1157,-2437,-277,8822,9,20,912
162304,1090800,1384656,1093130,1388042,1103,2616,-4138,-4082,1151,-2204,-97,7369,9,20,912
163305,1090896,1384756,1093261,1388173,1169,2580,-4343,-3869,1130,-2143,-348,6691,8,26,911
164306,1090988,1384840,1093392,1388304,1212,2702,-4469,-3730,1160,-2401,-417,6560,8,26,911
165307,1091084,1384908,1093523,1388435,1202,2829,-4594,-3772,1166,-2224,-676,5796,20,22,911
166308,1091180,1384996,1093654,1388566,1219,2724,-4686,-3986,1188,-2070,-1233,4991,20,22,911
167309,1091264,1385072,1093785,1388697,1314,2825,-4687,-4574,1279,-2143,-1561,3710,29,17,910
168310,1091368,1385136,1093916,1388828,1202,2930,-4589,-5516,1364,-1997,-2059,2755,29,17,910
169311,1091468,1385224,1094047,1388959,1241,2799,-4400,-6602,1439,-2155,-2246,2379,33,11,908
170312,1091580,1385308,1094178,1389090,1175,2846,-4112,-7694,1556,-2246,-2634,2346,33,11,908
171313,1091704,1385420,1094309,1389221,1103,2680,-3736,-8709,1690,-2074,-3042,2341,18,13,909
172315,1091812,1385520,1094440,1389352,1214,2768,-3266,-9685,1858,-2354,-3023,2519,18,13,909
173315,1091936,1385616,1094571,1389483,1117,2810,-2715,-10476,2033,-2443,-2990,2844,14,28,910
174316,1092036,1385748,1094702,1389614,1282,2585,-2135,-11211,2145,-2490,-2865,2958,14,28,910
175317,1092144,1385844,1094833,1389745,1242,2827,-1527,-11803,2243,-2937,-3023,3403,31,25,910
176318,1092244,1385972,1094964,1389876,1307,2628,-938,-12197,2349,-3224,-3263,3919,31,25,910
177319,1092352,1386128,1095095,1390007,1267,2443,-374,-12448,2437,-3427,-3232,4225,21,28,909
178320,1092456,1386244,1095226,1390138,1305,2701,159,-12502,2525,-3497,-2919,4895,21,28,909
179321,1092544,1386380,1095357,1390269,1424,2575,652,-12256,2605,-3226,-2647,5528,14,29,911
180322,1092664,1386500,1095488,1390400,1230,2679,1094,-11812,2697,-3055,-2247,6064,14,29,911
181323,1092800,1386632,1095619,1390531,1127,2605,1490,-11155,2743,-2841,-1330,6643,20,26,908
182324,1092896,1386740,1095750,1390662,1394,2766,1871,-10461,2807,-2596,-1569,6433,20,26,908
183325,1093008,1386880,1095881,1390793,1302,2563,2259,-9787,2899,-2523,-1685,6373,32,28,910
184326,1093128,1386988,1096012,1390924,1258,2773,2600,-9037,3024,-2373,-1882,6838,32,28,910
185327,1093248,1387112,1096143,1391055,1263,2677,2849,-8073,3246,-1850,-2539,7533,18,25,910
186328,1093360,1387236,1096274,1391186,1322,2681,3056,-7023,3546,-1357,-2513,7426,18,25,910
187329,1093476,1387372,1096405,1391317,1305,2605,3296,-6167,3786,-904,-1879,6414,25,18,910
188330,1093604,1387540,1096536,1391448,1231,2389,3542,-5655,3922,-245,-1532,5615,25,18,910
189331,1093712,1387692,1096667,1391579,1367,2481,3726,-5319,4011,510,-1124,5343,17,37,911
190332,1093828,1387848,1096798,1391710,1324,2446,3823,-5030,4097,1265,-813,5010,17,37,911
191333,1093952,1388016,1096929,1391841,1278,2354,3878,-4803,4144,1912,-424,4488,34,37,910
192335,1094068,1388172,1097060,1391972,1334,2419,3933,-4761,4123,2423,-2,3972,34,37,910
193336,1094188,1388312,1097191,1392103,1315,2516,3957,-4806,4010,2842,326,3665,15,36,911
194336,1094312,1388468,1097322,1392234,1294,2406,3914,-4847,3842,3235,383,3780,15,36,911
195338,1094436,1388592,1097453,1392365,1297,2610,3806,-4805,3663,3559,498,3977,14,24,911
196338,1094548,1388764,1097584,1392496,1382,2293,3657,-4689,3454,3666,471,3989,14,24,911
197340,1094668,1388936,1097715,1392627,1337,2276,3479,-4539,3194,3637,421,4043,35,41,910
198340,1094784,1389120,1097846,1392758,1369,2177,3291,-4317,2889,3538,378,4178,35,41,910
199341,1094896,1389276,1097977,1392889,1402,2342,3094,-4074,2570,3439,370,4164,28,24,912
200342,1095008,1389428,1098108,1393020,1412,2359,2899,-3792,2250,3246,368,4089,28,24,912
201343,1095116,1389564,1098239,1393151,1448,2458,2734,-3605,1930,2890,182,3959,27,26,911
202344,1095224,1389736,1098370,1393282,1458,2215,2617,-3423,1621,2535,-177,3622,27,26,911
203345,1095348,1389892,1098501,1393413,1362,2305,2539,-3261,1357,2179,-645,3580,25,39,908
204346,1095476,1390060,1098632,1393544,1338,2215,2492,-3086,1147,1921,-565,3316,25,39,908
205347,1095588,1390200,1098763,1393675,1448,2386,2453,-3020,955,1671,-393,3009,18,21,912
206348,1095704,1390348,1098894,1393806,1430,2329,2419,-2936,785,1396,-251,2802,18,21,912
207349,1095828,1390508,1099025,1393937,1383,2242,2397,-2931,652,1156,-98,2667,34,18,911
208350,1095932,1390652,1099156,1394068,1521,2337,2366,-2864,562,845,-136,2856,34,18,911
209351,1096052,1390804,1099287,1394199,1426,2278,2310,-2754,493,512,62,2776,31,35,911
210352,1096168,1390928,1099418,1394330,1459,2458,2236,-2596,441,325,279,2579,31,35,911
211353,1096292,1391072,1099549,1394461,1413,2327,2151,-2489,438,207,292,2494,33,18,911
212354,1096412,1391224,1099680,1394592,1443,2269,2043,-2344,482,-28,280,2576,33,18,911
213355,1096512,1391380,1099811,1394723,1582,2233,1926,-2189,558,-216,270,2392,29,34,911
214356,1096604,1391508,1099942,1394854,1650,2410,1782,-2047,657,-353,253,2339,29,34,911
215357,1096704,1391688,1100073,1394985,1614,2064,1603,-1855,789,-508,75,2541,33,31,911
216358,1096804,1391872,1100204,1395116,1629,2016,1395,-1694,956,-763,-67,2318,33,31,911
217359,1096908,1392064,1100335,1395247,1616,1940,1202,-1615,1135,-1002,-148,1902,22,30,911
218360,1097036,1392248,1100466,1395378,1468,1968,1049,-1679,1338,-1036,-35,1550,22,30,911
219361,1097156,1392408,1100597,1395509,1524,2105,904,-1790,1524,-1045,15,1507,15,25,913
220363,1097264,1392560,1100728,1395640,1609,2147,745,-1942,1689,-973,50,1400,15,25,913
221363,1097384,1392720,1100859,1395771,1540,2084,573,-2093,1833,-922,138,1415,31,26,912
222364,1097488,1392912,1100990,1395902,1652,1858,401,-2224,1992,-848,-121,1536,31,26,912
223365,1097584,1393096,1101121,1396033,1718,1885,225,-2276,2167,-729,-434,1612,34,25,912
224366,1097696,1393292,1101252,1396164,1627,1783,39,-2379,2335,-575,-600,1549,34,25,912
225367,1097816,1393464,1101383,1396295,1583,1916,-139,-2682,2475,-236,-435,998,18,31,912
226368,1097908,1393612,1101514,1396426,1775,2058,-320,-3072,2561,16,-326,899,18,31,912
227369,1098020,1393788,1101645,1396557,1660,1864,-513,-3503,2596,252,-366,1008,24,40,914
228370,1098140,1393920,1101776,1396688,1615,2139,-697,-3947,2599,488,-417,1086,24,40,914
229371,1098228,1394120,1101907,1396819,1835,1685,-861,-4291,2592,699,-306,1339,17,26,912
230372,1098312,1394288,1102038,1396950,1881,1868,-1014,-4504,2576,864,-148,1740,17,26,912
231373,1098416,1394492,1102169,1397081,1769,1612,-1167,-4639,2565,1082,-224,2072,28,40,911
232375,1098488,1394664,1102300,1397212,1996,1794,-1333,-4726,2534,1298,-82,2424,28,40,911
233375,1098576,1394840,1102431,1397343,1915,1750,-1534,-4790,2452,1432,258,2621,26,35,911
234376,1098672,1395000,1102562,1397474,1881,1838,-1754,-4832,2309,1555,453,2733,26,35,911
235377,1098756,1395188,1102693,1397605,1978,1639,-1948,-4821,2139,1730,440,2804,10,26,910
236379,1098844,1395360,1102824,1397736,1973,1721,-2105,-4806,1984,1920,435,2873,10,26,910
237379,1098952,1395504,1102955,1397867,1858,1891,-2212,-4834,1867,2249,574,2899,32,27,911
238380,1099044,1395700,1103086,1397998,1976,1537,-2309,-4937,1767,2541,898,2771,32,27,911
239381,1099132,1395912,1103217,1398129,2021,1402,-2368,-5075,1625,2688,1259,2675,29,48,911
240383,1099220,1396160,1103348,1398260,2041,1126,-2418,-5170,1457,2696,1104,2929,29,48,911
241383,1099336,1396340,1103479,1398391,1872,1530,-2454,-5178,1303,2645,1036,3141,22,49,913
242384,1099432,1396540,1103610,1398522,2014,1375,-2484,-5047,1186,2474,894,3517,22,49,913
243385,1099552,1396724,1103741,1398653,1869,1452,-2516,-4896,1113,2291,682,3669,13,33,914
244386,1099668,1396900,1103872,1398784,1902,1482,-2524,-4745,1040,2106,784,3698,13,33,914
245387,1099772,1397140,1104003,1398915,1990,1036,-2501,-4547,972,2006,693,3926,14,37,914
246388,1099892,1397392,1104134,1399046,1895,907,-2474,-4221,914,1780,372,4325,14,37,914
247389,1100016,1397624,1104265,1399177,1874,988,-2418,-3836,869,1551,220,4362,27,50,913
248390,1100124,1397836,1104396,1399308,1985,1078,-2290,-3514,847,1450,272,4063,27,50,913
249391,1100232,1398040,1104527,1399439,1996,1096,-2138,-3181,843,1326,285,4127,24,41,915
250392,1100360,1398224,1104658,1399570,1873,1198,-1978,-2902,862,1204,154,4061,24,41,915
251393,1100480,1398452,1104789,1399701,1928,881,-1789,-2695,900,1021,123,3886,17,39,915
252394,1100596,1398692,1104920,1399832,1961,758,-1577,-2498,932,753,7,3989,17,39,915
253395,1100756,1398924,1105051,1399963,1674,764,-1338,-2240,954,628,-32,3921,34,32,915
255397,1101056,1399296,1105313,1400225,1659,1066,-770,-1877,1026,521,-55,3722,21,44,916
256398,1101188,1399444,1105444,1400356,1835,1234,-469,-1640,1081,205,-259,3797,21,44,916
257399,1101336,1399616,1105575,1400487,1727,1066,-167,-1445,1144,120,-458,3724,19,40,915
258400,1101472,1399808,1105706,1400618,1801,914,136,-1274,1214,208,-531,3811,19,40,915
259401,1101612,1400004,1105837,1400749,1773,861,431,-1068,1291,252,-663,3919,32,34,914
260402,1101744,1400180,1105968,1400880,1824,966,696,-815,1373,272,-735,4088,32,34,914
261410,1101880,1400332,1106108,1401020,1802,1111,932,-531,1447,374,-681,4198,31,33,916
262404,1102052,1400496,1106239,1401151,1558,1021,1138,-159,1496,528,-590,4250,31,33,916
263405,1102220,1400636,1106370,1401282,1568,1168,1295,213,1508,571,-495,4321,40,33,916
264406,1102380,1400784,1106501,1401413,1606,1111,1402,547,1506,525,-487,4371,40,33,916
265407,1102524,1400916,1106632,1401544,1702,1210,1468,877,1498,498,-478,4350,23,34,917
266408,1102676,1401052,1106763,1401675,1644,1183,1501,1113,1481,699,-416,4061,23,34,917
267409,1102836,1401224,1106894,1401806,1581,940,1505,1284,1452,1034,-172,3746,20,26,916
268410,1102972,1401404,1107025,1401937,1730,869,1491,1331,1413,1246,-126,3319,20,26,916
269411,1103108,1401576,1107156,1402068,1728,901,1457,1242,1354,1386,-146,3071,36,30,915
270412,1103272,1401728,1107287,1402199,1540,1016,1390,1124,1287,1422,-249,3029,36,30,915
271413,1103420,1401900,1107418,1402330,1632,873,1299,964,1205,1451,-262,2798,30,25,917
272414,1103588,1402044,1107549,1402461,1492,1043,1185,748,1112,1499,-311,2780,30,25,917
273415,1103724,1402216,1107680,1402592,1691,851,1032,582,1030,1447,-564,2836,22,39,917
274416,1103848,1402356,1107811,1402723,1770,1047,851,389,952,1348,-673,2675,22,39,917
275417,1104000,1402492,1107942,1402854,1586,1070,661,136,851,1347,-482,2520,36,33,917
276418,1104124,1402644,1108073,1402985,1765,960,469,-132,727,1373,-268,2530,36,33,917
277419,1104260,1402832,1108204,1403116,1689,710,263,-399,607,1389,-138,2588,35,32,916
278420,1104400,1403000,1108335,1403247,1661,819,44,-671,493,1311,-13,2590,35,32,916
279421,1104528,1403188,1108466,1403378,1737,669,-162,-952,371,1168,222,2484,38,31,915
280422,1104664,1403308,1108597,1403509,1686,1099,-348,-1261,232,1132,535,2428,38,31,915
281423,1104796,1403460,1108728,1403640,1711,890,-524,-1581,96,1073,606,2448,31,35,917
282424,1104940,1403604,1108859,1403771,1632,934,-693,-1833,-41,885,640,2543,31,35,917
283425,1105056,1403736,1108990,1403902,1813,1008,-878,-2147,-192,503,510,2621,20,28,916
284426,1105180,1403868,1109121,1404033,1767,1008,-1065,-2474,-350,242,362,2769,20,28,916
285428,1105308,1403988,1109252,1404164,1745,1088,-1248,-2722,-502,-6,306,2937,27,26,917
286429,1105436,1404148,1109383,1404295,1747,825,-1436,-2905,-635,-322,178,3173,27,26,917
287429,1105544,1404320,1109514,1404426,1882,732,-1628,-3009,-732,-503,-68,3423,21,35,916
288430,1105676,1404452,1109645,1404557,1733,982,-1800,-3077,-763,-565,-500,3495,21,35,916
289431,1105788,1404612,1109776,1404688,1867,794,-1935,-3147,-720,-583,-836,3566,19,20,917
290432,1105896,1404760,1109907,1404819,1903,861,-2029,-3258,-634,-528,-842,3447,19,20,917
291433,1106036,1404876,1110038,1404950,1699,1068,-2092,-3460,-527,-506,-801,3375,38,32,915
292434,1106168,1405012,1110169,1405081,1750,941,-2176,-3637,-429,-521,-547,3534,38,32,915
293435,1106284,1405120,1110300,1405212,1857,1126,-2281,-3748,-384,-540,-189,3858,15,30,916
294436,1106384,1405244,1110431,1405343,1972,1029,-2444,-3822,-301,-348,-319,4018,15,30,916
295437,1106468,1405372,1110562,1405474,2094,1005,-2611,-3974,-203,-4,159,3791,12,29,916
296439,1106540,1405552,1110693,1405605,2195,659,-2743,-4252,-119,325,602,3613,12,29,916
297439,1106628,1405724,1110824,1405736,2114,691,-2858,-4548,-16,444,431,3761,23,21,915
298441,1106708,1405868,1110955,1405867,2188,860,-2974,-4817,120,579,493,3888,23,21,915
299441,1106768,1406032,1111086,1405998,2345,721,-3069,-5096,240,793,794,3925,24,22,915
300442,1106852,1406144,1111217,1406129,2217,1054,-3142,-5349,340,1030,753,4259,24,22,915
301443,1106924,1406276,1111348,1406260,2318,928,-3220,-5491,464,1294,388,4664,20,29,913
302445,1107004,1406412,1111479,1406391,2291,901,-3321,-5602,620,1599,103,4966,20,29,913
303445,1107096,1406508,1111610,1406522,2234,1167,-3427,-5651,770,1827,77,5205,22,16,911
304447,1107180,1406632,1111741,1406653,2306,995,-3539,-5616,923,1940,-462,5670,22,16,911
305447,1107288,1406760,1111872,1406784,2167,971,-3705,-5334,1116,1988,-1144,6718,31,32,914
306449,1107388,1406916,1112003,1406915,2232,785,-3903,-4875,1317,1988,-1182,7244,31,32,914
307449,1107492,1407080,1112134,1407046,2219,721,-4050,-4457,1472,2191,-885,6987,15,19,913
308451,1107608,1407212,1112265,1407177,2151,920,-4079,-4263,1522,2462,-260,6278,15,19,913
309451,1107692,1407360,1112396,1407308,2373,813,-4013,-4311,1437,2714,393,5954,22,28,914
310452,1107784,1407504,1112527,1407439,2341,832,-3912,-4435,1254,2943,660,5969,22,28,914
311453,1107872,1407588,1112658,1407570,2386,1228,-3804,-4511,1068,3143,535,6053,23,29,913
312455,1107956,1407712,1112789,1407701,2432,981,-3683,-4458,951,3365,239,6389,23,29,913
313455,1108040,1407824,1112920,1407832,2454,1064,-2593,-2701,712,6556,289,21832,10,14,913
314457,1108116,1407924,1113051,1407963,2529,1153,-600,673,216,8174,276,28904,10,14,913
315457,1108188,1408048,1113182,1408094,2581,1006,466,1523,-134,3790,307,5050,24,26,912
316458,1108276,1408184,1113313,1408225,2501,929,608,474,-331,3362,118,3510,24,26,912
317459,1108396,1408288,1113444,1408356,2307,1140,539,-1089,-468,3286,-593,2934,28,15,911
318461,1108496,1408396,1113575,1408487,2446,1125,577,-2097,-560,3029,-1138,3460,28,15,911
319461,1108600,1408500,1113706,1408618,2434,1162,696,-2749,-576,2653,-1629,3542,18,27,912
320463,1108724,1408584,1113837,1408749,2313,1308,747,-3117,-569,2442,-2051,4369,18,27,912
321464,1108836,1408668,1113968,1408880,2398,1329,722,-3385,-581,1938,-2118,4728,34,11,912
322465,1109000,1408784,1114099,1409011,2059,1135,720,-3707,-635,1538,-2124,4628,34,11,912
323465,1109124,1408852,1114230,1409142,2313,1463,692,-3893,-748,1369,-2125,5089,20,11,911
324466,1109248,1408932,1114361,1409273,2317,1410,653,-3873,-823,925,-2225,5607,20,11,911
325467,1109396,1409016,1114492,1409404,2161,1407,561,-3554,-822,727,-2333,6409,21,12,913
326469,1109532,1409092,1114623,1409535,2234,1481,463,-3173,-793,575,-2135,6401,21,12,913
327469,1109644,1409180,1114754,1409666,2393,1425,396,-2893,-755,447,-1669,6167,14,11,910
328471,1109808,1409272,1114885,1409797,2055,1417,372,-2628,-735,705,-1121,5803,14,11,910
329471,1109940,1409356,1115016,1409928,2255,1488,406,-2539,-697,807,-779,5162,18,18,912
330473,1110108,1409444,1115147,1410059,2015,1482,480,-2468,-600,546,-732,5307,18,18,912
331473,1110256,1409536,1115278,1410190,2133,1474,605,-2407,-476,298,-671,4856,26,14,913
332474,1110460,1409640,1115409,1410321,1752,1411,774,-2474,-352,115,-674,4623,26,14,913
333475,1110620,1409788,1115540,1410452,2016,1128,965,-2446,-226,-20,-543,4792,23,14,913
334476,1110788,1409896,1115671,1410583,1950,1389,1165,-2548,-91,-6,-587,4345,23,14,913
335477,1110948,1409996,1115802,1410714,1989,1453,1364,-2555,50,-132,-959,4583,26,25,913
336478,1111116,1410068,1115933,1410845,1923,1654,1555,-2500,219,-330,-1140,4541,26,25,913
337479,1111260,1410172,1116064,1410976,2069,1466,1746,-2423,362,-319,-1079,4291,40,11,914
338480,1111444,1410272,1116195,1411107,1796,1504,1916,-2382,470,-335,-969,4198,40,11,914
339481,1111624,1410368,1116326,1411238,1801,1545,2071,-2317,567,-367,-862,4312,43,10,912
340482,1111816,1410484,1116457,1411369,1700,1426,2196,-2224,657,-342,-904,4210,43,10,912
341483,1111988,1410568,1116588,1411500,1808,1648,2300,-2122,755,-360,-941,4158,44,16,914
342484,1112164,1410672,1116719,1411631,1763,1535,2379,-2040,858,-203,-1056,3992,44,16,914
343485,1112316,1410756,1116850,1411762,1905,1681,2442,-2004,925,3,-1015,3553,43,15,915
344486,1112496,1410820,1116981,1411893,1709,1835,2487,-2032,970,62,-973,3387,43,15,915
345487,1112660,1410936,1117112,1412024,1796,1517,2489,-2087,1012,181,-977,3262,32,26,913
346488,1112824,1411024,1117243,1412155,1782,1712,2453,-2227,1059,345,-769,3053,32,26,913
347489,1113028,1411140,1117374,1412286,1501,1543,2390,-2354,1110,502,-501,3017,25,29,912
348490,1113196,1411232,1117505,1412417,1711,1710,2331,-2543,1146,594,-341,2591,25,29,912
349491,1113356,1411348,1117636,1412548,1748,1567,2274,-2794,1158,725,-244,2326,37,17,913
350492,1113536,1411432,1117767,1412679,1603,1787,2215,-3062,1152,891,-158,2291,37,17,913
351493,1113716,1411520,1117898,1412810,1582,1782,2132,-3305,1148,1046,-207,2178,23,23,914
352495,1113912,1411612,1118029,1412941,1455,1775,2018,-3453,1145,1118,-368,2476,23,23,914
353496,1114072,1411700,1118160,1413072,1668,1818,1867,-3531,1135,1078,-370,2687,46,8,914
354496,1114296,1411784,1118291,1413203,1227,1864,1695,-3549,1094,1142,-260,2791,46,8,914
355497,1114468,1411872,1118422,1413334,1535,1859,1522,-3509,1025,1244,11,2717,27,12,914
356498,1114624,1411980,1118553,1413465,1625,1744,1383,-3539,937,1332,356,2306,27,12,914
357499,1114788,1412084,1118684,1413596,1562,1781,1264,-3614,831,1382,430,2389,32,11,914
358500,1114960,1412188,1118815,1413727,1494,1794,1145,-3653,746,1380,392,2442,32,11,914
359501,1115120,1412260,1118946,1413858,1557,2020,1011,-3579,675,1420,369,2594,43,29,913
360503,1115284,1412364,1119077,1413989,1518,1832,868,-3503,604,1420,388,2476,43,29,913
361503,1115440,1412464,1119208,1414120,1557,1870,743,-3530,527,1378,477,2162,31,15,914
362504,1115612,1412600,1119339,1414251,1440,1644,651,-3571,430,1362,611,1822,31,15,914
363505,1115780,1412708,1119470,1414382,1450,1829,574,-3639,317,1271,704,1758,40,16,914
364507,1115928,1412836,1119601,1414513,1569,1705,486,-3665,227,1260,610,2010,40,16,914
365507,1116064,1412948,1119732,1414644,1641,1815,375,-3646,164,1321,684,2059,40,17,915
366508,1116236,1413060,1119863,1414775,1399,1823,247,-3572,94,1388,816,2020,40,17,915
367509,1116368,1413156,1119994,1414906,1650,1939,113,-3496,-6,1346,1037,1921,20,15,914
368511,1116516,1413268,1120125,1415037,1542,1848,-16,-3480,-122,1325,1071,1717,20,15,914
369512,1116700,1413396,1120256,1415168,1295,1749,-131,-3494,-236,1275,1156,1619,31,17,913
370512,1116820,1413512,1120387,1415299,1701,1831,-240,-3522,-327,1302,1240,1571,31,17,913
371514,1116972,1413592,1120518,1415430,1492,2079,-340,-3512,-397,1388,1253,1600,32,29,913
372514,1117116,1413740,1120649,1415561,1537,1647,-448,-3509,-436,1398,1241,1577,32,29,913
373515,1117264,1413900,1120780,1415692,1506,1559,-558,-3489,-441,1417,1300,1674,20,24,913
374516,1117396,1414004,1120911,1415823,1605,1922,-666,-3446,-443,1499,1359,1577,20,24,913
375518,1117528,1414136,1121042,1415954,1606,1746,-773,-3388,-445,1604,1354,1491,28,25,914
376519,1117680,1414252,1121173,1416085,1473,1853,-896,-3368,-444,1771,1383,1427,28,25,914
377519,1117816,1414360,1121304,1416216,1570,1914,-1038,-3360,-461,2011,1508,1360,31,17,913
378520,1117956,1414484,1121435,1416347,1542,1817,-1187,-3362,-490,2193,1508,1393,31,17,913
379521,1118112,1414608,1121566,1416478,1432,1820,-1342,-3330,-479,2193,1052,1550,16,30,913
380522,1118240,1414712,1121697,1416609,1609,1958,-1512,-3181,-436,2012,614,1936,16,30,913
381523,1118384,1414840,1121828,1416740,1504,1809,-1688,-2920,-400,1800,639,2076,22,22,913
382524,1118556,1414952,1121959,1416871,1312,1919,-1854,-2628,-384,1828,730,2100,22,22,913
383525,1118696,1415068,1122090,1417002,1508,1900,-2016,-2316,-368,1911,732,2249,25,19,913
384527,1118860,1415200,1122221,1417133,1345,1800,-2196,-2005,-323,1909,539,2439,25,19,913
385527,1118992,1415308,1122352,1417264,1545,1961,-2375,-1687,-273,1862,362,2523,34,22,914
386537,1119144,1415424,1122492,1417404,1415,1922,-2552,-1353,-251,1776,462,2448,34,22,914
387529,1119256,1415536,1122623,1417535,1674,1955,-2736,-1050,-273,1779,504,2482,13,26,914
388530,1119404,1415636,1122754,1417666,1443,2045,-2925,-754,-295,1807,255,2454,13,26,914
389531,1119532,1415724,1122885,1417797,1569,2138,-3100,-543,-303,1853,-142,2303,15,13,912
390532,1119668,1415848,1123016,1417928,1518,1918,-3254,-390,-312,1943,-458,2120,15,13,912
391533,1119788,1415968,1123147,1418059,1624,1947,-3397,-348,-336,1916,-642,1906,35,21,911
392535,1119944,1416092,1123278,1418190,1388,1925,-3538,-312,-382,1908,-713,1919,35,21,911
393535,1120076,1416212,1123409,1418321,1538,1956,-3683,-297,-434,1927,-824,1975,13,16,913
394536,1120188,1416328,1123540,1418452,1672,1988,-3833,-240,-485,1906,-953,2091,13,16,913
395537,1120364,1416436,1123671,1418583,1253,2049,-3997,-121,-542,1741,-926,2292,18,31,913
396538,1120484,1416556,1123802,1418714,1609,1979,-4188,32,-615,1440,-671,2579,18,31,913
397539,1120624,1416660,1123933,1418845,1480,2091,-4390,229,-708,1138,-625,2865,38,14,912
398540,1120772,1416764,1124064,1418976,1423,2104,-4599,498,-805,949,-661,3186,38,14,912
399541,1120904,1416872,1124195,1419107,1524,2089,-4795,815,-902,809,-691,3334,23,30,912
400542,1121032,1416964,1124326,1419238,1550,2207,-4979,1078,-990,714,-707,3263,23,30,912
401543,1121188,1417068,1124457,1419369,1365,2144,-5128,1207,-1078,636,-679,2940,36,27,911
402544,1121360,1417180,1124588,1419500,1247,2102,-5239,1202,-1154,549,-777,2712,36,27,911
403545,1121480,1417312,1124719,1419631,1578,1978,-5307,1101,-1190,487,-1078,2560,21,30,911
404546,1121656,1417428,1124850,1419762,1209,2084,-5324,939,-1178,336,-1245,2559,21,30,911
405547,1121772,1417548,1124981,1419893,1591,2065,-5314,803,-1141,158,-1189,2577,32,16,913
406548,1121900,1417676,1125112,1420024,1518,2016,-5290,649,-1101,-79,-1086,2768,32,16,913
407549,1122052,1417784,1125243,1420155,1360,2152,-5260,545,-1072,-249,-927,2896,29,18,913
408551,1122196,1417896,1125374,1420286,1404,2136,-5217,459,-1025,-463,-1001,3219,29,18,913
409551,1122332,1418024,1125505,1420417,1453,2038,-5190,498,-948,-800,-1070,3779,16,18,912
410552,1122484,1418140,1125636,1420548,1344,2120,-5176,608,-865,-1200,-1037,4162,16,18,912
411553,1122640,1418280,1125767,1420679,1309,1966,-5161,858,-772,-1600,-1152,4553,18,26,912
412554,1122776,1418404,1125898,1420810,1432,2070,-5142,1102,-661,-2088,-1200,4856,18,26,912
413555,1122936,1418532,1126029,1420941,1270,2046,-5106,1311,-544,-2421,-1082,4786,40,28,911
414556,1123088,1418676,1126160,1421072,1312,1941,-5057,1479,-419,-2630,-1127,4967,40,28,911
415557,1123228,1418816,1126291,1421203,1383,1962,-4991,1567,-242,-2790,-1494,4945,25,27,912
416559,1123368,1418960,1126422,1421334,1380,1933,-4887,1540,-13,-2870,-1757,4843,25,27,912
417560,1123512,1419136,1126553,1421465,1349,1713,-4742,1399,252,-3018,-1869,4737,32,39,914
418561,1123652,1419292,1126684,1421596,1371,1828,-4582,1215,517,-3116,-1842,4837,32,39,914
419562,1123764,1419432,1126815,1421727,1555,1924,-3124,3095,1000,-3833,-4439,24018,28,39,914
420563,1123892,1419580,1126946,1421858,1457,1868,427,9635,2014,-5188,-8202,32767,28,39,914
421563,1124008,1419728,1127077,1421989,1539,1860,2817,12683,2613,-2335,-2379,10790,29,35,914
422564,1124116,1419896,1127208,1422120,1599,1719,3103,11261,2665,-1500,-297,644,29,35,914
423565,1124240,1420056,1127339,1422251,1503,1757,2597,7793,2537,-946,-216,-1496,11,24,912
424566,1124368,1420208,1127470,1422382,1481,1798,2280,5007,2459,-602,-297,-656,11,24,912
425567,1124460,1420356,1127601,1422513,1723,1816,2111,3056,2575,-669,-643,-48,29,27,913
426568,1124580,1420500,1127732,1422644,1554,1836,1867,1519,2775,-42,-1375,799,29,27,913
427569,1124712,1420656,1127863,1422775,1478,1750,1469,201,2958,-71,-1113,1464,19,30,914
428570,1124812,1420816,1127994,1422906,1693,1713,1085,-1329,3041,-623,-404,1131,19,30,914
429571,1124940,1420972,1128125,1423037,1520,1727,614,-2738,2888,-611,-443,2037,15,24,913
430572,1125060,1421116,1128256,1423168,1575,1797,150,-4200,2622,-1061,-289,1639,15,24,913
431573,1125172,1421268,1128387,1423299,1634,1738,-192,-5614,2294,-1296,-442,1788,14,24,914
432574,1125308,1421424,1128518,1423430,1482,1702,-487,-6839,1952,-1364,-1409,2576,14,24,914
433575,1125412,1421572,1128649,1423561,1695,1746,-718,-7834,1716,-1802,-2173,3638,12,23,912
434576,1125536,1421724,1128780,1423692,1574,1711,-947,-8197,1619,-1834,-2437,5547,12,23,912
435577,1125660,1421864,1128911,1423823,1577,1783,-1101,-8146,1640,-1867,-2327,7470,26,29,913
436578,1125796,1422012,1129042,1423954,1501,1726,-423,-6649,1822,-2434,-2561,19900,26,29,913
437579,1125916,1422180,1129173,1424085,1606,1585,1057,-3945,2049,-2746,-2120,25388,33,22,914
438580,1126028,1422328,1129304,1424216,1665,1703,1862,-2969,2068,-2202,-723,8047,33,22,914
439581,1126156,1422492,1129435,1424347,1567,1589,1815,-3353,1974,-1821,-440,5494,23,21,914
440582,1126272,1422664,1129566,1424478,1649,1521,1596,-4452,1928,-1445,-741,3662,23,21,914
441583,1126396,1422792,1129697,1424609,1603,1798,1511,-5321,2019,-959,-991,4154,18,18,913
442585,1126544,1422944,1129828,1424740,1447,1639,1509,-5882,2251,-873,-1073,4105,18,18,913
443585,1126664,1423088,1129959,1424871,1626,1683,1544,-6498,2464,-675,-1016,3616,25,35,914
444586,1126800,1423256,1130090,1425002,1525,1518,1590,-7119,2632,-697,-1007,3683,25,35,914
445587,1126932,1423420,1130221,1425133,1550,1528,1670,-7813,2811,-809,-1018,3547,29,39,914
446588,1127056,1423572,1130352,1425264,1604,1594,1730,-8350,3009,-513,-1031,3850,29,39,914
447589,1127196,1423708,1130483,1425395,1501,1693,1798,-8856,3228,-615,-829,3779,37,32,915
448590,1127344,1423860,1130614,1425526,1444,1584,1864,-9267,3445,-749,-750,4155,37,32,915
449592,1127492,1424020,1130745,1425657,1437,1521,1900,-9502,3627,-816,-746,4388,21,22,914
450592,1127604,1424168,1130876,1425788,1671,1589,1920,-9601,3810,-981,-640,4946,21,22,914
451593,1127736,1424308,1131007,1425919,1546,1635,1926,-9360,3980,-998,-622,5647,16,28,915
452594,1127852,1424440,1131138,1426050,1654,1685,1943,-9053,4077,-1133,-456,5712,16,28,915
453596,1127964,1424568,1131269,1426181,1687,1712,1974,-8607,4118,-1217,-468,5984,33,21,913
454596,1128104,1424720,1131400,1426312,1509,1553,2023,-8146,4136,-1111,-503,5955,33,21,913
455597,1128212,1424888,1131531,1426443,1720,1437,2089,-7692,4173,-889,-624,5939,35,22,912
456598,1128324,1425068,1131662,1426574,1703,1341,2170,-7178,4250,-813,-579,5971,35,22,912
457599,1128456,1425220,1131793,1426705,1579,1507,2268,-6701,4324,-633,-426,5505,33,40,914
458600,1128572,1425380,1131924,1426836,1687,1444,2390,-6381,4361,-306,-258,5026,33,40,914
459601,1128676,1425548,1132055,1426967,1773,1378,2546,-6173,4384,-203,-3,4494,27,36,914
460602,1128804,1425712,1132186,1427098,1626,1390,2718,-6082,4412,6,-131,4062,27,36,914
461603,1128944,1425872,1132317,1427229,1547,1402,2899,-6041,4434,204,-154,3800,12,29,914
462604,1129036,1426044,1132448,1427360,1865,1309,3106,-6050,4448,330,52,3398,12,29,914
463605,1129124,1426204,1132579,1427491,1910,1371,3323,-6093,4442,548,48,3114,25,36,915
464606,1129240,1426392,1132710,1427622,1741,1172,3520,-6100,4400,629,-37,3106,25,36,915
465608,1129336,1426576,1132841,1427753,1883,1174,3699,-6068,4337,636,-9,3232,12,29,914
466608,1129424,1426748,1132972,1427884,1953,1231,3842,-5886,4261,825,-61,3290,12,29,914
467609,1129548,1426952,1133103,1428015,1731,999,3946,-5690,4180,937,-14,3348,27,33,914
468610,1129628,1427164,1133234,1428146,2029,914,4016,-5381,4083,968,302,3662,27,33,914
469611,1129712,1427332,1133365,1428277,2026,1173,4033,-4994,3976,1045,66,3698,19,33,914
470612,1129828,1427456,1133496,1428408,1833,1451,3995,-4603,3867,1084,-288,3592,19,33,914
471613,1129924,1427532,1133627,1428539,1974,1775,3913,-4171,3775,1219,-359,3454,25,23,915
472614,1130020,1427656,1133758,1428670,1990,1478,3812,-3848,3710,1371,-53,2992,25,23,915
473615,1130108,1427744,1133889,1428801,2060,1722,3668,-3597,3617,1328,314,2995,35,28,914
474616,1130216,1427840,1134020,1428932,1945,1688,3504,-3400,3489,1341,70,2788,35,28,914
475617,1130352,1427940,1134151,1429063,1769,1677,3352,-3159,3303,1542,360,2798,20,13,913
476618,1130512,1428040,1134282,1429194,1607,1691,3212,-2844,3168,1858,404,2723,20,13,913
477619,1130616,1428148,1134413,1429325,1970,1651,3049,-2552,3070,1911,1231,2510,27,27,910
478620,1130740,1428300,1134544,1429456,1848,1368,2875,-2338,2936,1884,1741,2269,27,27,910
479621,1130848,1428464,1134675,1429587,1959,1278,2713,-2250,2763,1881,1447,1981,35,33,913
480622,1130956,1428632,1134806,1429718,1970,1237,2560,-2199,2595,1907,1132,1691,35,33,913
481623,1131068,1428812,1134937,1429849,1954,1140,2390,-2193,2432,1871,874,1490,16,35,914
482625,1131176,1428932,1135068,1429980,1990,1520,2196,-2262,2296,1805,517,1243,16,35,914
483625,1131272,1429152,1135199,1430111,2081,857,2003,-2262,2169,1701,628,1100,14,40,914
484626,1131380,1429380,1135330,1430242,2017,764,1813,-2329,2040,1581,454,1047,14,40,914
485627,1131464,1429592,1135461,1430373,2188,829,1613,-2333,1926,1544,-54,1350,30,38,913
486628,1131572,1429808,1135592,1430504,2049,766,1403,-2230,1862,1661,-301,1492,30,38,913
487629,1131680,1430028,1135723,1430635,2060,702,1155,-2038,1796,1536,-26,1744,18,43,915
488631,1131780,1430224,1135854,1430766,2125,824,873,-1822,1679,1220,370,1815,18,43,915
489631,1131876,1430500,1135985,1430897,2165,260,586,-1602,1493,1041,632,1757,19,38,915
490632,1131968,1430772,1136116,1431028,2208,223,300,-1409,1315,1043,320,1769,19,38,915
491633,1132060,1430968,1136247,1431159,2226,670,48,-1192,1181,1082,415,1786,25,47,915
492634,1132152,1431192,1136378,1431290,2245,455,-156,-972,1088,1160,483,1844,25,47,915
493635,1132236,1431368,1136509,1431421,2316,735,-347,-737,1014,1244,542,1884,9,53,916
494636,1132324,1431628,1136640,1431552,2310,153,-540,-511,933,1352,616,1775,9,53,916
495637,1132420,1431884,1136771,1431683,2277,123,-748,-322,823,1360,895,1646,14,35,915
496638,1132516,1432112,1136902,1431814,2293,256,-955,-202,658,1296,1182,1540,14,35,915
497639,1132620,1432304,1137033,1431945,2256,453,-1176,-98,477,1308,1305,1675,30,42,915
498641,1132732,1432480,1137164,1432076,2215,533,-1429,76,324,1381,1126,1884,30,42,915
499641,1132852,1432636,1137295,1432207,2171,647,-1709,204,175,1386,1143,1739,35,27,914
500642,1132988,1432824,1137426,1432338,2069,422,-2000,281,-6,1436,1428,1573,35,27,914
501643,1133104,1432980,1137557,1432469,2201,611,-2285,276,-193,1580,1793,1553,16,23,914
502644,1133236,1433144,1137688,1432600,2102,546,-2548,293,-380,1741,1978,1541,16,23,914
503645,1133364,1433292,1137819,1432731,2129,639,-2800,258,-556,1712,1775,1617,17,23,916
504647,1133484,1433448,1137950,1432862,2185,578,-3037,264,-729,1568,1546,1710,17,23,916
505647,1133632,1433572,1138081,1432993,2004,781,-3261,228,-881,1543,1357,1801,33,36,915
506649,1133772,1433716,1138212,1433124,2051,650,-3472,205,-1012,1605,1218,1877,33,36,915
507649,1133884,1433824,1138343,1433255,2234,884,-3673,199,-1111,1562,945,2191,29,22,915
508650,1134024,1433924,1138474,1433386,2056,948,-3849,341,-1180,1443,660,2591,29,22,915
509651,1134164,1434028,1138605,1433517,2053,935,-4003,552,-1237,1187,362,2905,21,15,915
510652,1134284,1434136,1138736,1433648,2184,920,-4141,780,-1313,936,192,3106,21,15,915
511660,1134424,1434276,1138876,1433788,2060,720,-4269,982,-1426,700,135,3122,35,27,913
512654,1134568,1434404,1139007,1433919,2030,796,-4386,1095,-1560,420,-38,3002,35,27,913
513655,1134688,1434532,1139138,1434050,2185,798,-4519,1239,-1707,83,-359,3313,38,28,914
514656,1134840,1434644,1139269,1434181,1977,906,-4693,1455,-1885,-324,-609,3699,38,28,914
515657,1134960,1434748,1139400,1434312,2183,968,-4897,1696,-2105,-514,-814,3780,36,30,915
516658,1135084,1434868,1139531,1434443,2162,873,-5094,1853,-2360,-631,-880,3533,36,30,915
517659,1135216,1435000,1139662,1434574,2112,797,-5270,1860,-2642,-798,-1008,3377,17,13,915
518660,1135328,1435096,1139793,1434705,2247,1037,-5416,1728,-2884,-886,-1345,3256,17,13,915
519661,1135444,1435208,1139924,1434836,2229,945,-5513,1523,-3050,-1076,-1736,3179,21,17,914
520662,1135572,1435316,1140055,1434967,2156,980,-5572,1307,-3135,-1277,-2240,3339,21,17,914
521663,1135700,1435416,1140186,1435098,2158,1044,-5582,1055,-3159,-1451,-2603,3258,20,22,912
522664,1135824,1435536,1140317,1435229,2187,924,-5563,708,-3159,-1631,-2620,3359,20,22,912
523665,1135948,1435660,1140448,1435360,2191,902,-5537,432,-3134,-1600,-2787,3771,33,21,913
524666,1136072,1435780,1140579,1435491,2195,931,-5494,125,-3086,-1745,-2984,3877,33,21,913
525667,1136196,1435936,1140710,1435622,2199,696,-5422,-176,-3035,-1915,-2763,4075,35,26,914
526668,1136336,1436064,1140841,1435753,2096,872,-5160,-332,-2951,-2108,-2772,5673,35,26,914
527669,1136488,1436204,1140972,1435884,2012,793,-2391,4212,-2358,-3864,-5806,32767,40,18,914
528670,1136632,1436356,1141103,1436015,2057,709,1733,10793,-1577,-3390,-4937,32767,40,18,914
529671,1136796,1436476,1141234,1436146,1919,913,3576,11979,-1389,-843,-513,1786,21,35,914
530672,1136960,1436620,1141365,1436277,1905,758,3318,9174,-1558,-440,138,-538,21,35,914
531673,1137116,1436740,1141496,1436408,1945,913,2732,5626,-1767,324,70,-1987,23,33,915
532674,1137256,1436860,1141627,1436539,2042,917,2360,3177,-1752,361,-520,-321,23,33,915
533675,1137412,1436992,1141758,1436670,1931,841,2205,1541,-1467,279,-1223,56,25,32,915
534676,1137552,1437132,1141889,1436801,2028,787,1904,110,-1195,562,-1242,705,25,32,915
535677,1137692,1437268,1142020,1436932,2025,810,1609,-1372,-1051,-45,-525,593,37,32,914
536678,1137844,1437420,1142151,1437063,1942,701,1309,-3078,-1050,-457,-14,602,37,32,914
537679,1137984,1437556,1142282,1437194,2014,798,1006,-4585,-1219,-555,44,1264,38,26,915
538680,1138128,1437708,1142413,1437325,1985,689,707,-5961,-1383,-1134,-28,1730,38,26,915
539681,1138296,1437832,1142544,1437456,1818,867,411,-6802,-1484,-1238,-840,3413,24,35,916
540682,1138456,1437948,1142675,1437587,1857,924,77,-7229,-1514,-1421,-1648,4470,24,35,916
541683,1138596,1438060,1142806,1437718,1979,957,-259,-7194,-1425,-1843,-2159,6267,26,25,915
542684,1138748,1438148,1142937,1437849,1895,1126,-540,-6765,-1311,-1916,-1885,6914,26,25,915
543685,1138944,1438252,1143068,1437980,1593,1038,-723,-6429,-1205,-1984,-1712,6722,40,31,915
544686,1139096,1438368,1143199,1438111,1859,970,-876,-5915,-1068,-2098,-1564,7741,40,31,915
545687,1139248,1438476,1143330,1438242,1850,1030,-1040,-5397,-950,-2097,-666,7463,38,28,913
546688,1139400,1438600,1143461,1438373,1842,933,-1156,-5042,-846,-1900,-124,6814,38,28,913
547690,1139572,1438700,1143592,1438504,1700,1096,-1198,-4809,-666,-1902,130,6331,38,15,915
548691,1139720,1438812,1143723,1438635,1843,1030,-1155,-4931,-408,-1671,-327,5314,38,15,915
549692,1139896,1438904,1143854,1438766,1649,1172,-1061,-5172,-121,-1383,-656,5058,42,14,915
550692,1140068,1439020,1143985,1438897,1657,1028,-931,-5469,181,-1136,-568,4802,42,14,915
551694,1140220,1439112,1144116,1439028,1774,1195,-790,-5796,449,-773,-361,4466,26,12,915
552695,1140376,1439212,1144247,1439159,1738,1158,-614,-6189,684,-658,-149,4112,26,12,915
553696,1140552,1439308,1144378,1439290,1594,1199,-382,-6669,915,-502,141,3762,27,12,916
554697,1140692,1439384,1144509,1439421,1816,1348,-133,-7177,1122,-247,255,3528,27,12,916
555697,1140860,1439448,1144640,1439552,1626,1452,126,-7756,1320,-139,339,3311,21,16,914
556698,1141012,1439524,1144771,1439683,1716,1401,388,-8311,1512,18,396,3450,21,16,914
557699,1141172,1439596,1144902,1439814,1655,1452,620,-8644,1614,165,890,4059,24,9,914
558700,1141352,1439684,1145033,1439945,1509,1372,776,-8700,1659,368,1035,4791,24,9,914
559701,1141516,1439764,1145164,1440076,1596,1445,901,-8498,1648,499,1098,5135,25,11,914
560702,1141688,1439848,1145295,1440207,1528,1440,1039,-8268,1537,500,1170,5119,25,11,914
561703,1141872,1439944,1145426,1440338,1430,1381,1154,-7914,1361,549,1097,5552,42,23,915
562704,1142020,1440024,1145557,1440469,1649,1503,1230,-7457,1185,615,996,5861,42,23,915
563705,1142188,1440104,1145688,1440600,1508,1525,1288,-6896,1060,689,745,5912,21,11,915
564707,1142348,1440172,1145819,1440731,1546,1628,1372,-6372,961,734,755,5726,21,11,915
565707,1142536,1440248,1145950,1440862,1347,1602,1498,-5919,849,829,753,5143,40,13,913
566708,1142704,1440328,1146081,1440993,1456,1600,1667,-5618,747,1057,640,4699,40,13,913
567709,1142880,1440384,1146212,1441124,1387,1783,1867,-5434,674,1152,539,4213,23,20,914
568711,1143056,1440444,1146343,1441255,1368,1789,2082,-5433,639,1246,282,3747,23,20,914
569711,1143228,1440516,1146474,1441386,1375,1741,2309,-5436,636,1418,25,3417,28,11,915
570712,1143404,1440596,1146605,1441517,1331,1713,2530,-5486,649,1440,-258,3209,28,11,915
571713,1143592,1440660,1146736,1441648,1231,1843,2715,-5470,674,1412,-606,3207,23,20,914
572714,1143744,1440732,1146867,1441779,1448,1819,2849,-5397,690,1345,-807,3193,23,20,914
573715,1143912,1440800,1146998,1441910,1333,1871,2947,-5268,685,1339,-940,3296,32,23,914
574716,1144076,1440852,1147129,1442041,1343,2007,2997,-5026,678,1347,-1103,3641,32,23,914
575717,1144244,1440900,1147260,1442172,1303,2068,2998,-4707,703,1321,-1246,3838,20,21,913
576719,1144380,1440980,1147391,1442303,1501,1891,2961,-4294,750,1371,-1090,3956,20,21,913
577719,1144548,1441048,1147522,1442434,1285,1994,2900,-3862,788,1417,-759,3763,38,23,912
578720,1144692,1441156,1147653,1442565,1430,1755,2802,-3414,801,1408,-528,3657,38,23,912
579721,1144824,1441240,1147784,1442696,1505,1925,2688,-3057,809,1475,-578,3428,32,20,913
580722,1144996,1441332,1147915,1442827,1238,1892,2579,-2783,817,1512,-772,3100,32,20,913
581723,1145140,1441424,1148046,1442958,1408,1910,2479,-2567,818,1539,-884,2832,39,11,913
582724,1145304,1441524,1148177,1443089,1269,1874,2371,-2447,798,1436,-706,2461,39,11,913
583725,1145488,1441624,1148308,1443220,1121,1888,2247,-2399,740,1351,-521,2162,21,28,914
584727,1145632,1441728,1148439,1443351,1366,1875,2110,-2357,665,1300,-351,1913,21,28,914
585727,1145748,1441832,1148570,1443482,1548,1888,1964,-2373,573,1278,-229,1700,31,12,914
586728,1145888,1441900,1148701,1443613,1395,2140,1794,-2456,473,1290,-150,1496,31,12,914
587729,1146064,1441996,1148832,1443744,1150,1981,1601,-2572,384,1264,-156,1411,21,23,913
588731,1146180,1442096,1148963,1443875,1532,1970,1376,-2696,312,1235,-271,1401,21,23,913
589731,1146320,1442200,1149094,1444006,1379,1957,1117,-2836,238,1128,-344,1260,36,27,911
590732,1146452,1442292,1149225,1444137,1429,2049,836,-2896,167,1027,-484,1336,36,27,911
591733,1146596,1442392,1149356,1444268,1348,2014,544,-2904,112,914,-633,1329,39,28,912
592735,1146716,1442464,1149487,1444399,1504,2215,256,-2998,80,815,-617,1260,39,28,912
593735,1146860,1442572,1149618,1444530,1350,2000,-10,-3132,59,767,-364,1154,20,10,912
594736,1146988,1442648,1149749,1444661,1451,2225,-248,-3306,37,743,-59,1086,20,10,912
595737,1147104,1442748,1149880,1444792,1533,2089,-472,-3435,5,706,103,1111,15,27,911
596739,1147232,1442848,1150011,1444923,1460,2102,-690,-3577,-15,648,158,1197,15,27,911
597739,1147360,1442912,1150142,1445054,1462,2358,-897,-3606,-19,625,111,1450,18,20,911
598740,1147508,1443004,1150273,1445185,1330,2200,-1092,-3629,-25,547,100,1542,18,20,911
599741,1147636,1443128,1150404,1445316,1457,2004,-1272,-3614,-42,488,-79,1627,23,22,911
600742,1147768,1443224,1150535,1445447,1431,2194,-1453,-3601,-52,414,-316,1837,23,22,911
601743,1147864,1443304,1150666,1445578,1673,2317,-1632,-3535,-48,363,-127,1999,22,22,912
602744,1148024,1443404,1150797,1445709,1260,2206,-1819,-3479,-36,381,-16,2232,22,22,912
603745,1148124,1443500,1150928,1445840,1650,2247,-2000,-3346,-15,382,-30,2263,18,15,911
604746,1148268,1443604,1151059,1445971,1369,2210,-2181,-3259,11,336,6,2211,18,15,911
605747,1148388,1443728,1151190,1446102,1525,2088,-2327,-3232,32,375,24,2135,23,26,912
606748,1148528,1443844,1151321,1446233,1396,2145,-2463,-3310,52,454,-13,2117,23,26,912
607749,1148660,1443960,1151452,1446364,1446,2152,-2588,-3370,76,506,-78,2172,24,25,911
608750,1148796,1444068,1151583,1446495,1419,2213,-2696,-3462,99,571,-65,2136,24,25,911
609751,1148940,1444152,1151714,1446626,1365,2384,-2784,-3556,121,602,28,2292,21,13,911
610752,1149100,1444272,1151845,1446757,1253,2165,-2864,-3623,142,655,129,2423,21,13,911
611753,1149260,1444368,1151976,1446888,1240,2330,-2942,-3686,157,719,202,2564,30,31,911
612754,1149440,1444492,1152107,1447019,1095,2158,-3015,-3730,170,716,224,2809,30,31,911
613755,1149608,1444588,1152238,1447150,1153,2349,-3089,-3747,182,726,239,3084,21,28,912
614756,1149768,1444688,1152369,1447281,1192,2338,-3159,-3695,189,720,207,3232,21,28,912
615757,1149952,1444816,1152500,1447412,1018,2165,-3219,-3683,200,683,157,3395,25,17,913
616759,1150136,1444948,1152631,1447543,996,2140,-3273,-3610,213,692,145,3524,25,17,913
617759,1150292,1445084,1152762,1447674,1160,2114,-3324,-3550,224,676,122,3720,35,30,911
618760,1150488,1445212,1152893,1447805,881,2165,-3366,-3454,237,604,52,3867,35,30,911
619761,1150664,1445340,1153024,1447936,988,2167,-3393,-3461,242,487,56,3799,25,20,913
620762,1150876,1445452,1153155,1448067,727,2276,-3413,-3420,251,464,-56,4020,25,20,913
621763,1151072,1445588,1153286,1448198,799,2124,-3434,-3368,265,363,-45,4183,42,26,913
622764,1151272,1445724,1153417,1448329,744,2122,-3439,-3350,279,337,6,4130,42,26,913
623765,1151448,1445844,1153548,1448460,875,2228,-3420,-3376,296,216,-26,4130,39,19,914
624766,1151664,1445972,1153679,1448591,588,2179,-3381,-3420,322,183,-148,4179,39,19,914
625767,1151848,1446104,1153810,1448722,765,2155,-3339,-3505,356,137,-207,4266,38,20,914
626768,1152020,1446240,1153941,1448853,823,2128,-3282,-3605,398,-17,-305,4221,38,20,914
627769,1152200,1446408,1154072,1448984,751,1913,-3215,-3712,455,-107,-422,4425,32,22,915
628770,1152400,1446560,1154203,1449115,597,2003,-3143,-3792,529,-125,-499,4591,32,22,915
629771,1152564,1446716,1154334,1449246,807,1968,-3056,-3874,625,-72,-597,4687,45,30,915
630772,1152720,1446880,1154465,1449377,846,1904,-2968,-3941,739,-131,-627,5001,45,30,915
631773,1152888,1447012,1154596,1449508,756,2104,-2868,-4012,838,-207,-512,4979,43,36,914
632775,1153052,1447148,1154727,1449639,767,2077,-2095,-3118,952,140,-701,13991,43,36,914
633775,1153168,1447316,1154858,1449770,1073,1862,-2,605,1139,392,-1204,32767,38,33,914
634776,1153312,1447464,1154989,1449901,893,1979,1446,2355,1241,-193,-439,8192,38,33,914
635777,1153420,1447604,1155120,1450032,1129,2026,1698,1696,1269,-138,11,2855,24,21,915
636785,1153540,1447724,1155260,1450172,1062,2160,1374,-99,1300,162,-315,1861,24,21,915
637779,1153660,1447852,1155391,1450303,1067,2113,1148,-1382,1371,341,-638,2395,15,24,915
638780,1153776,1448000,1155522,1450434,1100,1980,1026,-2272,1505,151,-433,2548,15,24,915
639781,1153888,1448108,1155653,1450565,1133,2241,917,-3057,1561,317,-230,2506,13,19,911
640782,1154016,1448220,1155784,1450696,1034,2225,727,-3830,1534,273,-168,2790,13,19,911
641783,1154156,1448324,1155915,1450827,956,2286,503,-4578,1504,23,-207,3019,34,21,914
642784,1154276,1448416,1156046,1450958,1086,2380,209,-5069,1471,192,-617,3861,34,21,914
643785,1154408,1448516,1156177,1451089,1011,2343,-109,-5352,1474,24,-753,4478,26,28,912
644786,1154520,1448620,1156308,1451220,1145,2331,-412,-5401,1496,-66,-687,5171,26,28,912
645787,1154620,1448736,1156439,1451351,1234,2263,-673,-5289,1466,-70,-796,5536,20,12,912
646788,1154740,1448844,1156570,1451482,1115,2324,-855,-5157,1413,-389,-917,5804,20,12,912
647789,1154860,1448972,1156701,1451613,1120,2200,-975,-4861,1379,-462,-1037,6240,20,24,911
648790,1154960,1449040,1156832,1451744,1258,2604,-1044,-4685,1355,-405,-971,5722,20,24,911
649791,1155088,1449124,1156963,1451875,1085,2524,-1073,-4571,1353,-383,-597,5771,12,24,912
650792,1155216,1449216,1157094,1452006,1087,2493,-1047,-4478,1357,-350,-136,5412,12,24,912
651793,1155316,1449324,1157225,1452137,1275,2404,-971,-4620,1353,-253,-85,5021,13,10,910
652794,1155416,1449424,1157356,1452268,1290,2467,-873,-4651,1374,-270,-199,5345,13,10,910
653795,1155556,1449500,1157487,1452399,1036,2642,-755,-4688,1423,-420,-345,5056,12,22,910
654796,1155672,1449580,1157618,1452530,1193,2640,-618,-4783,1453,-484,-429,5015,12,22,910
655797,1155776,1449664,1157749,1452661,1281,2637,-467,-4828,1471,-626,-429,5083,31,24,909
656798,1155888,1449768,1157880,1452792,1239,2523,-185,-4713,1488,-679,-596,5329,31,24,909
657799,1155980,1449836,1158011,1452923,1381,2777,-54,-4658,1489,-901,-562,5375,12,8,909
658800,1156076,1449912,1158142,1453054,1372,2751,73,-4525,1484,-905,-668,5506,12,8,909
659801,1156200,1449988,1158273,1453185,1200,2776,196,-4363,1469,-830,-666,5397,17,23,910
660802,1156304,1450080,1158404,1453316,1338,2695,315,-4232,1458,-839,-624,5492,17,23,910
661803,1156432,1450160,1158535,1453447,1190,2792,410,-4028,1461,-740,-781,5575,15,15,909
662804,1156552,1450248,1158666,1453578,1245,2762,490,-3877,1482,-646,-932,5278,15,15,909
663805,1156668,1450336,1158797,1453709,1277,2782,560,-3758,1527,-586,-938,5310,34,24,908
664806,1156784,1450404,1158928,1453840,1284,2934,621,-3695,1578,-462,-968,4986,34,24,908
665807,1156912,1450480,1159059,1453971,1211,2910,673,-3724,1637,-324,-1065,4866,25,22,907
666808,1157040,1450544,1159190,1454102,1212,3014,727,-3704,1701,-278,-1058,4950,25,22,907
667809,1157172,1450640,1159321,1454233,1188,2830,794,-3716,1726,-318,-971,4758,26,12,907
668810,1157272,1450724,1159452,1454364,1402,2927,875,-3670,1728,-367,-1060,4813,26,12,907
669811,1157416,1450816,1159583,1454495,1121,2895,970,-3703,1735,-476,-926,4767,34,20,907
670812,1157544,1450880,1159714,1454626,1223,3100,1056,-3689,1723,-448,-529,4805,34,20,907
671813,1157640,1451020,1159845,1454757,1438,2622,1118,-3654,1700,-472,-244,4860,34,24,907
672814,1157788,1451096,1159976,1454888,1107,3047,1153,-3601,1685,-537,-73,4855,34,24,907
673815,1157912,1451180,1160107,1455019,1260,3018,1166,-3551,1671,-545,-48,4886,15,24,907
674816,1158028,1451284,1160238,1455150,1317,2905,1164,-3496,1680,-567,-117,4858,15,24,907
675817,1158156,1451392,1160369,1455281,1244,2892,1164,-3461,1712,-593,-149,4876,16,27,906
676818,1158280,1451504,1160500,1455412,1272,2876,1165,-3436,1759,-506,-105,4622,16,27,906
677819,1158408,1451632,1160631,1455543,1249,2777,1174,-3518,1823,-465,-26,4503,35,13,907
678820,1158544,1451736,1160762,1455674,1197,2940,1194,-3580,1880,-454,201,4511,35,13,907
679821,1158656,1451848,1160893,1455805,1357,2899,1237,-3659,1922,-389,539,4238,23,16,908
680823,1158776,1451972,1161024,1455936,1311,2828,1306,-3791,1949,-368,738,4160,23,16,908
681823,1158928,1452104,1161155,1456067,1102,2778,1361,-3934,1947,-390,881,4152,19,30,908
682825,1159040,1452216,1161286,1456198,1362,2912,1380,-4050,1932,-265,708,4238,19,30,908
683825,1159168,1452320,1161417,1456329,1263,2975,1370,-4067,1943,-237,272,4391,24,17,907
684827,1159300,1452464,1161548,1456460,1238,2721,1339,-4079,1973,-327,-102,4502,24,17,907
685827,1159428,1452572,1161679,1456591,1265,2956,1289,-4029,1994,-353,-305,4602,25,24,907
686829,1159560,1452704,1161810,1456722,1239,2806,1230,-3955,2010,-421,-399,4605,25,24,907
687829,1159688,1452840,1161941,1456853,1267,2780,1167,-3848,2033,-436,-474,4542,17,29,909
688830,1159812,1453008,1162072,1456984,1295,2565,1102,-3823,2056,-421,-296,4444,17,29,909
689831,1159944,1453176,1162203,1457115,1245,2549,1062,-3833,2081,-433,-228,4178,21,40,909
690832,1160064,1453320,1162334,1457246,1325,2694,1043,-3933,2115,-335,-366,3936,21,40,909
691833,1160184,1453452,1162465,1457377,1331,2769,1040,-4132,2149,-232,-315,3612,36,20,909
692834,1160324,1453616,1162596,1457508,1202,2556,1037,-4372,2182,-212,-245,3485,36,20,909
693835,1160420,1453780,1162727,1457639,1493,2541,1041,-4607,2223,-63,-308,3251,20,19,909
694836,1160556,1453912,1162858,1457770,1241,2742,1051,-4896,2267,-14,-304,3210,20,19,909
695837,1160672,1454036,1162989,1457901,1373,2796,1049,-5139,2324,0,-370,3401,18,35,910
696838,1160772,1454176,1163120,1458032,1487,2693,1022,-5308,2372,76,-193,3526,18,35,910
697839,1160904,1454328,1163251,1458163,1287,2609,986,-5350,2411,91,-75,3731,13,31,906
698840,1161024,1454520,1163382,1458294,1368,2333,955,-5333,2426,85,109,3885,13,31,906
699841,1161136,1454688,1163513,1458425,1426,2468,917,-5282,2412,64,115,4048,14,23,907
700842,1161256,1454848,1163644,1458556,1382,2505,867,-5185,2413,67,-5,4236,14,23,907
701843,1161364,1455008,1163775,1458687,1467,2493,827,-5021,2420,61,38,4180,29,37,911
702844,1161488,1455156,1163906,1458818,1371,2562,808,-4932,2415,38,10,4026,29,37,911
703845,1161600,1455316,1164037,1458949,1454,2475,809,-4851,2410,73,-20,3959,21,32,909
704846,1161712,1455520,1164168,1459080,1463,2168,824,-4818,2426,261,-30,3755,21,32,909
705847,1161824,1455688,1164299,1459211,1472,2378,857,-4829,2449,437,41,3517,33,43,910
706848,1161952,1455852,1164430,1459342,1373,2389,891,-4878,2463,496,27,3495,33,43,910
707849,1162064,1456024,1164561,1459473,1483,2321,910,-4923,2465,537,-111,3495,29,36,911
708850,1162156,1456180,1164692,1459604,1625,2411,919,-4901,2470,534,-239,3600,29,36,911
709851,1162256,1456340,1164823,1459735,1590,2374,909,-4834,2472,544,-220,3738,25,28,910
710852,1162352,1456500,1164954,1459866,1630,2362,878,-4718,2470,563,-320,3727,25,28,910
711853,1162456,1456652,1165085,1459997,1593,2403,821,-4614,2476,654,-382,3776,13,35,909
712854,1162584,1456792,1165216,1460128,1444,2476,769,-4534,2475,794,-239,3581,13,35,909
713855,1162716,1456920,1165347,1460259,1420,2552,725,-4547,2460,986,-185,3335,29,39,910
714856,1162812,1457056,1165478,1460390,1660,2501,692,-4587,2440,1122,-141,3225,29,39,910
715857,1162912,1457252,1165609,1460521,1650,2097,659,-4665,2439,1183,-296,3180,20,33,909
716858,1163036,1457492,1165740,1460652,1503,1775,633,-4722,2442,1211,-321,3046,20,33,909
717859,1163128,1457672,1165871,1460783,1721,2130,632,-4806,2446,1230,-244,2940,20,48,909
718860,1163244,1457864,1166002,1460914,1578,2028,657,-4915,2448,1353,-59,2803,20,48,909
719861,1163356,1458020,1166133,1461045,1612,2243,689,-5053,2438,1479,-1,2837,20,32,911
720862,1163468,1458196,1166264,1461176,1620,2098,701,-5101,2426,1497,-103,3120,20,32,911
721863,1163572,1458380,1166395,1461307,1683,2026,687,-5023,2423,1412,-394,3454,26,29,910
722864,1163688,1458576,1166526,1461438,1615,1923,642,-4787,2400,1235,-571,3868,26,29,910
723865,1163792,1458752,1166657,1461569,1703,2028,580,-4436,2364,1152,-641,4059,27,25,911
724866,1163864,1458936,1166788,1461700,1929,1956,536,-4149,2335,1177,-444,3928,27,25,911
725867,1163956,1459100,1166919,1461831,1822,2067,508,-3897,2306,1225,-279,3903,16,23,911
726868,1164060,1459256,1167050,1461962,1759,2107,486,-3691,2276,1278,-246,3733,16,23,911
727869,1164132,1459436,1167181,1462093,1985,1935,484,-3555,2223,1320,-93,3352,19,24,911
728870,1164232,1459592,1167312,1462224,1825,2075,506,-3512,2152,1405,5,3104,19,24,911
729871,1164316,1459788,1167443,1462355,1946,1797,528,-3462,2090,1452,-32,3121,15,42,910
730872,1164416,1459976,1167574,1462486,1860,1823,539,-3426,2061,1517,-172,3069,15,42,910
731873,1164512,1460152,1167705,1462617,1902,1878,558,-3445,2059,1621,-101,2766,24,28,909
732874,1164600,1460364,1167836,1462748,1971,1618,590,-3515,2050,1621,117,2603,24,28,909
733875,1164692,1460528,1167967,1462879,1964,1904,609,-3581,2004,1471,170,2787,28,29,911
734876,1164780,1460708,1168098,1463010,2008,1783,603,-3510,1948,1409,142,3021,28,29,911
735877,1164888,1460856,1168229,1463141,1894,1976,572,-3320,1917,1465,312,3263,10,26,911
736878,1164992,1461008,1168360,1463272,1932,1941,522,-3072,1904,1423,498,3443,10,26,911
737879,1165100,1461176,1168491,1463403,1917,1826,482,-2836,1886,1260,559,3372,17,40,911
738880,1165208,1461420,1168622,1463534,1928,1302,451,-2621,1873,1189,492,3231,17,40,911
739881,1165308,1461648,1168753,1463665,1992,1360,417,-2459,1870,1210,362,3203,24,31,911
740882,1165404,1461836,1168884,1463796,2033,1585,385,-2286,1883,1161,308,3089,24,31,911
741883,1165520,1462008,1169015,1463927,1915,1667,381,-2138,1899,1097,418,2884,13,41,912
742884,1165628,1462184,1169146,1464058,1976,1623,409,-2055,1919,1124,459,2699,13,41,912
743885,1165724,1462360,1169277,1464189,2067,1603,442,-2017,1951,1153,481,2666,14,39,911
744887,1165840,1462572,1169408,1464320,1949,1343,474,-1981,1991,1199,472,2576,14,39,911
745887,1165956,1462784,1169539,1464451,1957,1308,499,-1950,2019,1154,420,2537,34,40,912
746888,1166060,1462984,1169670,1464582,2044,1353,506,-1888,2027,1014,355,2761,34,40,912
747889,1166196,1463176,1169801,1464713,1843,1376,500,-1791,2038,949,280,2794,26,44,913
748890,1166328,1463356,1169932,1464844,1868,1430,476,-1573,2061,842,177,2926,26,44,913
749891,1166452,1463540,1170063,1464975,1921,1382,421,-1358,2092,664,-33,3115,17,36,912
750892,1166600,1463688,1170194,1465106,1765,1600,369,-1130,2107,479,-30,3031,17,36,912
751893,1166724,1463876,1170325,1465237,1919,1326,327,-963,2097,387,36,2881,19,30,913
752894,1166856,1464088,1170456,1465368,1869,1140,280,-851,2083,488,67,2769,19,30,913
753895,1166968,1464268,1170587,1465499,2003,1318,228,-815,2081,664,170,2501,16,39,913
754896,1167084,1464484,1170718,1465630,1985,1056,193,-843,2080,726,417,2172,16,39,913
755897,1167216,1464660,1170849,1465761,1886,1286,176,-978,2065,794,596,2000,15,28,914
756898,1167316,1464824,1170980,1465892,2100,1348,142,-1126,2041,808,500,2063,15,28,914
757899,1167460,1464976,1171111,1466023,1820,1414,78,-1228,2011,782,260,2118,24,39,914
758900,1167596,1465132,1171242,1466154,1869,1378,-14,-1358,1982,704,116,2158,24,39,914
759901,1167736,1465332,1171373,1466285,1840,1072,-138,-1382,1961,559,-55,2483,40,42,913
760903,1167884,1465556,1171504,1466416,1783,881,-295,-1283,1930,375,-222,2769,40,42,913
761910,1168016,1465736,1171644,1466556,1888,1140,-453,-1175,1874,363,-167,2647,19,44,913
762904,1168144,1465900,1171775,1466687,1914,1225,-594,-1248,1808,622,-6,2313,19,44,913
763905,1168288,1466072,1171906,1466818,1809,1157,-737,-1378,1740,866,105,2244,38,33,915
764906,1168412,1466236,1172037,1466949,1939,1193,-889,-1489,1659,955,240,2213,38,33,915
765907,1168540,1466412,1172168,1467080,1915,1098,-1017,-1674,1563,1001,487,1936,36,35,913
766908,1168672,1466560,1172299,1467211,1890,1266,-1120,-1956,1438,1045,581,1819,36,35,913
767909,1168824,1466736,1172430,1467342,1757,1071,-1232,-2171,1309,1147,203,2017,35,30,914
768910,1168968,1466932,1172561,1467473,1802,918,-1366,-2311,1201,1190,-214,2299,35,30,914
769911,1169124,1467116,1172692,1467604,1716,970,-1494,-2369,1118,1061,-567,2570,38,26,913
770912,1169276,1467288,1172823,1467735,1733,1027,-1586,-2396,1046,896,-602,2641,38,26,913
771913,1169412,1467492,1172954,1467866,1832,795,-1638,-2494,962,944,-343,2694,36,29,915
772914,1169556,1467668,1173085,1467997,1776,950,-1677,-2542,869,1191,-87,2830,36,29,915
773915,1169688,1467812,1173216,1468128,1852,1144,-1701,-2580,774,1403,89,2784,20,42,915
774916,1169836,1467968,1173347,1468259,1745,1058,-1705,-2624,665,1395,207,2848,20,42,915
775917,1169968,1468124,1173478,1468390,1845,1047,-1698,-2642,550,1362,197,3094,39,31,915
776919,1170132,1468348,1173609,1468521,1631,582,-1717,-2560,432,1419,175,3505,39,31,915
777919,1170276,1468536,1173740,1468652,1752,781,-1761,-2406,329,1414,128,3741,20,43,915
778920,1170404,1468728,1173871,1468783,1853,730,-1811,-2193,255,1344,-7,3868,20,43,915
779921,1170560,1468892,1174002,1468914,1668,890,-1861,-1959,165,1287,-11,3982,39,28,917
780922,1170684,1469084,1174133,1469045,1872,688,-1910,-1798,36,1237,105,3936,39,28,917
781923,1170844,1469212,1174264,1469176,1634,1090,-1928,-1672,-129,1306,165,3769,36,26,916
782924,1170996,1469384,1174395,1469307,1676,797,-1920,-1645,-285,1378,43,3616,36,26,916
783925,1171124,1469508,1174526,1469438,1829,1100,-1915,-1657,-404,1449,10,3709,17,30,915
784926,1171256,1469692,1174657,1469569,1803,701,-1918,-1644,-473,1668,148,3828,17,30,915
785927,1171408,1469900,1174788,1469700,1670,518,-1905,-1676,-515,1733,250,3606,36,37,915
786928,1171540,1470052,1174919,1469831,1794,858,-1854,-1789,-576,1571,244,3373,36,37,915
787929,1171688,1470240,1175050,1469962,1688,608,-1785,-1965,-640,1495,73,3314,24,31,915
788930,1171844,1470392,1175181,1470093,1628,824,-1736,-2105,-663,1529,-189,3545,24,31,915
789931,1171960,1470524,1175312,1470224,1885,949,-1715,-2205,-649,1361,-516,3730,19,25,915
790932,1172072,1470652,1175443,1470355,1919,975,-1695,-2252,-626,1145,-725,3999,19,25,915
791933,1172204,1470780,1175574,1470486,1794,976,-1682,-2206,-605,1022,-791,4379,11,35,916
792934,1172312,1470900,1175705,1470617,1955,1031,-1686,-2008,-574,979,-899,4796,11,35,916
793935,1172424,1471096,1175836,1470748,1939,528,-1737,-1664,-544,851,-1087,5229,19,25,914
794936,1172540,1471276,1175967,1470879,1922,606,-1804,-1340,-534,715,-979,5269,19,25,914
795937,1172656,1471408,1176098,1471010,1928,906,-1868,-1096,-556,708,-837,5167,13,36,914
796938,1172772,1471556,1176229,1471141,1936,797,-1933,-911,-593,755,-925,5115,13,36,914
797939,1172888,1471680,1176360,1471272,1943,950,-1989,-817,-634,670,-919,4939,29,18,915
798940,1173024,1471812,1176491,1471403,1816,900,-2043,-773,-686,586,-885,4887,29,18,915
799941,1173152,1471932,1176622,1471534,1868,980,-2097,-808,-729,604,-864,4623,16,28,915
800942,1173272,1472048,1176753,1471665,1924,1011,-2143,-972,-757,781,-770,4424,16,28,915
801943,1173364,1472160,1176884,1471796,2116,1045,-2161,-1286,-786,969,-593,4079,26,17,915
802944,1173448,1472296,1177015,1471927,2188,892,-2199,-1634,-791,967,-847,4256,26,17,915
803945,1173544,1472432,1177146,1472058,2129,890,-2285,-1971,-770,1018,-761,4299,28,29,914
804946,1173632,1472572,1177277,1472189,2198,861,-2359,-2388,-737,1190,-507,4035,28,29,914
805947,1173720,1472720,1177408,1472320,2218,804,-2422,-2819,-684,1386,-203,4131,9,32,913
806948,1173804,1472844,1177539,1472451,2265,957,-2486,-3237,-617,1573,-7,4264,9,32,913
807949,1173916,1472980,1177670,1472582,2098,880,-2544,-3652,-537,1703,34,4360,24,31,912
808950,1174032,1473100,1177801,1472713,2081,984,-2577,-4051,-446,1722,1,4561,24,31,912
809952,1174132,1473220,1177932,1472844,2195,989,-2586,-4349,-334,1607,-168,4935,25,15,912
810953,1174248,1473320,1178063,1472975,2102,1127,-2600,-4538,-205,1345,-505,5516,25,15,912
811954,1174348,1473424,1178194,1473106,2217,1114,-2626,-4580,-56,1225,-666,6045,32,24,914
812955,1174456,1473508,1178325,1473237,2178,1259,-2658,-4520,90,1371,-412,6340,32,24,914
813956,1174576,1473652,1178456,1473368,2109,879,-2677,-4422,194,1605,22,6485,29,27,913
814957,1174684,1473776,1178587,1473499,2194,1007,-2686,-4310,288,1834,223,6731,29,27,913
815958,1174776,1473900,1178718,1473630,2312,1010,-2695,-4197,385,2010,244,6872,14,14,911
816959,1174876,1473996,1178849,1473761,2276,1200,-2338,-3636,470,2611,219,10767,14,14,911
817960,1174968,1474112,1178980,1473892,2345,1082,-1030,-978,440,4614,-163,28666,27,11,913
818961,1175064,1474204,1179111,1474023,2335,1249,63,563,412,2842,165,9965,27,11,913
819962,1175136,1474284,1179242,1474154,2512,1346,303,186,447,2511,559,4623,18,15,911
820963,1175272,1474384,1179373,1474285,2111,1235,122,-1027,565,2759,152,3862,18,15,911
821964,1175396,1474460,1179504,1474416,2190,1409,-18,-2024,730,2812,-309,4162,16,10,911
822965,1175532,1474536,1179635,1474547,2114,1433,-17,-2714,886,2291,-193,3893,16,10,911
823966,1175672,1474608,1179766,1474678,2085,1484,63,-3401,971,1894,-306,3884,34,7,912
824967,1175828,1474676,1179897,1474809,1975,1537,112,-3824,999,1616,-673,4643,34,7,912
825968,1176040,1474772,1180028,1474940,1590,1377,99,-4119,1034,1225,-1058,5290,44,9,911
826969,1176196,1474872,1180159,1475071,1930,1366,28,-4064,1043,1053,-1395,6252,44,9,911
827970,1176364,1474932,1180290,1475202,1839,1647,-100,-3829,1031,821,-1551,6696,36,11,911
828971,1176520,1475036,1180421,1475333,1904,1384,-199,-3534,977,670,-1253,6807,36,11,911
829972,1176700,1475156,1180552,1475464,1733,1289,-280,-3217,894,690,-1191,6784,33,22,912
830973,1176840,1475288,1180683,1475595,1980,1213,-315,-2996,823,732,-981,6311,33,22,912
831974,1177032,1475396,1180814,1475726,1629,1374,-317,-2788,789,826,-811,6225,22,28,912
832975,1177224,1475512,1180945,1475857,1603,1330,-268,-2662,778,757,-813,5707,22,28,912
833976,1177408,1475596,1181076,1475988,1630,1551,-145,-2717,780,505,-798,5304,44,10,913
834977,1177576,1475704,1181207,1476119,1714,1411,38,-2854,807,402,-741,5039,44,10,913
835978,1177768,1475792,1181338,1476250,1538,1556,276,-3104,856,434,-843,4567,31,26,915
836979,1177916,1475868,1181469,1476381,1807,1655,535,-3215,903,271,-1125,4743,31,26,915
837980,1178092,1475972,1181600,1476512,1613,1492,816,-3326,939,9,-1310,4588,44,24,914
838981,1178264,1476068,1181731,1476643,1620,1557,1091,-3383,956,-32,-1303,4819,44,24,914
839982,1178468,1476160,1181862,1476774,1389,1599,1346,-3257,984,-87,-1294,5267,33,11,912
840983,1178664,1476244,1181993,1476905,1410,1670,1580,-3051,1029,-180,-1311,5264,33,11,912
841984,1178848,1476324,1182124,1477036,1463,1717,1797,-2839,1044,-371,-1223,5255,46,10,913
842985,1179044,1476412,1182255,1477167,1361,1686,1981,-2626,1024,-492,-915,5105,46,10,913
843986,1179200,1476512,1182386,1477298,1600,1625,2126,-2304,989,-350,-731,5147,33,14,914
844987,1179396,1476636,1182517,1477429,1322,1479,2238,-1986,980,-219,-773,5075,33,14,914
845988,1179576,1476736,1182648,1477560,1402,1643,2332,-1722,997,-267,-757,4878,47,22,915
846989,1179772,1476820,1182779,1477691,1273,1763,2407,-1506,993,-270,-587,4646,47,22,915
847990,1179936,1476912,1182910,1477822,1459,1730,2475,-1391,959,-276,-500,4129,24,10,915
848991,1180124,1477000,1183041,1477953,1284,1774,2546,-1447,911,-328,-474,3600,24,10,915
849992,1180252,1477072,1183172,1478084,1662,1900,2620,-1610,862,-312,-381,3029,33,7,914
850993,1180412,1477168,1183303,1478215,1449,1767,2675,-1862,837,-146,-359,2689,33,7,914
851994,1180568,1477248,1183434,1478346,1464,1889,2691,-2083,847,6,-396,2746,19,18,913
852995,1180724,1477316,1183565,1478477,1453,1992,2686,-2372,872,78,-360,2334,19,18,913
853996,1180852,1477396,1183696,1478608,1630,1939,2671,-2705,894,179,-370,2168,24,6,912
854997,1181000,1477504,1183827,1478739,1499,1774,2658,-3104,916,227,-402,1883,24,6,912
855998,1181180,1477604,1183958,1478870,1277,1839,2642,-3464,932,310,-379,1698,21,11,912
856999,1181320,1477668,1184089,1479001,1524,2093,2602,-3761,952,362,-381,1631,21,11,912
858000,1181492,1477780,1184220,1479132,1306,1802,2514,-4017,973,381,-307,1872,21,26,911
859001,1181624,1477916,1184351,1479263,1557,1649,2370,-4175,957,477,-168,2208,21,26,911
860002,1181752,1478044,1184482,1479394,1583,1702,2217,-4256,906,447,30,2214,34,26,911
861003,1181928,1478184,1184613,1479525,1264,1623,2060,-4271,839,353,121,2225,34,26,911
862004,1182040,1478312,1184744,1479656,1673,1699,1900,-4287,766,348,203,2200,32,30,913
863005,1182192,1478444,1184875,1479787,1415,1674,1724,-4307,682,351,282,2224,32,30,913
864006,1182312,1478592,1185006,1479918,1619,1567,1551,-4308,593,418,276,1983,34,17,914
865007,1182472,1478704,1185137,1480049,1358,1801,1378,-4345,509,534,281,1822,34,17,914
866008,1182592,1478844,1185268,1480180,1612,1622,1203,-4403,442,733,276,1902,19,23,914
867009,1182732,1478976,1185399,1480311,1485,1671,1029,-4474,380,910,314,1681,19,23,914
868010,1182900,1479096,1185530,1480442,1293,1752,864,-4614,301,1119,404,1420,22,15,914
869011,1183036,1479184,1185661,1480573,1492,1971,709,-4768,214,1266,543,1261,22,15,914
870012,1183188,1479332,1185792,1480704,1383,1588,542,-4953,156,1471,608,1192,20,32,914
871013,1183360,1479472,1185923,1480835,1241,1634,365,-5086,128,1686,642,1147,20,32,914
872014,1183500,1479616,1186054,1480966,1437,1605,197,-5277,107,1786,671,1027,19,26,912
873015,1183632,1479728,1186185,1481097,1487,1813,40,-5459,85,1897,678,1045,19,26,912
874016,1183756,1479852,1186316,1481228,1541,1741,-117,-5620,79,1979,546,1110,17,13,914
875017,1183864,1479984,1186447,1481359,1652,1692,-277,-5669,97,2124,416,1267,17,13,914
876018,1184004,1480088,1186578,1481490,1448,1879,-444,-5622,125,2321,359,1389,20,15,912
877019,1184152,1480236,1186709,1481621,1391,1596,-605,-5553,152,2414,300,1454,20,15,912
878020,1184304,1480360,1186840,1481752,1357,1749,-759,-5483,174,2454,305,1626,25,22,913
879021,1184444,1480492,1186971,1481883,1429,1700,-913,-5305,212,2383,338,1821,25,22,913
880022,1184568,1480596,1187102,1482014,1532,1887,-1067,-5053,266,2255,454,2019,28,25,914
881023,1184708,1480716,1187233,1482145,1429,1791,-1217,-4723,302,2157,602,2283,28,25,914
882024,1184844,1480868,1187364,1482276,1452,1582,-1367,-4298,319,2128,753,2391,34,19,914
883025,1184988,1480972,1187495,1482407,1397,1895,-1513,-3859,336,2202,818,2502,34,19,914
884026,1185128,1481076,1187626,1482538,1418,1907,-1660,-3405,347,2253,882,2673,33,25,913
885027,1185236,1481176,1187757,1482669,1629,1946,-1808,-2944,334,2219,973,2699,33,25,913
886028,1185360,1481284,1187888,1482800,1532,1906,-1955,-2430,281,2247,1052,2740,25,28,911
887038,1185504,1481400,1188028,1482940,1407,1867,-2089,-1996,205,2400,1074,2557,25,28,911
888030,1185608,1481520,1188159,1483071,1669,1847,-2206,-1636,117,2616,927,2364,14,12,911
889031,1185724,1481628,1188290,1483202,1600,1932,-2340,-1352,32,2745,624,2131,14,12,911
890032,1185852,1481756,1188421,1483333,1527,1810,-2461,-1189,-49,2767,333,1831,14,28,913
891033,1185968,1481876,1188552,1483464,1609,1864,-2574,-1089,-130,2756,57,1789,14,28,913
892034,1186084,1481980,1188683,1483595,1617,1976,-2701,-974,-203,2635,-212,1912,31,33,912
893035,1186232,1482120,1188814,1483726,1409,1748,-2863,-789,-279,2474,-473,2190,31,33,912
894036,1186356,1482232,1188945,1483857,1563,1932,-3047,-472,-354,2286,-670,2494,13,19,912
895037,1186476,1482352,1189076,1483988,1593,1886,-3226,-181,-428,2099,-654,2458,13,19,912
896038,1186624,1482444,1189207,1484119,1412,2079,-3399,101,-510,2005,-696,2636,19,16,913
897039,1186736,1482564,1189338,1484250,1645,1909,-3563,368,-579,2027,-783,2676,19,16,913
898040,1186888,1482660,1189469,1484381,1387,2075,-3707,527,-648,2081,-633,2467,32,29,911
899041,1187032,1482804,1189600,1484512,1431,1769,-3813,619,-726,2146,-496,2294,32,29,911
900042,1187184,1482916,1189731,1484643,1373,1978,-3908,660,-802,2086,-412,2250,27,30,912
901043,1187320,1483016,1189862,1484774,1471,2067,-3999,739,-886,1997,-290,2250,27,30,912
902044,1187468,1483136,1189993,1484905,1389,1947,-4085,797,-975,1828,-200,2362,35,17,913
903045,1187620,1483252,1190124,1485036,1355,1979,-4163,880,-1066,1641,-104,2564,35,17,913
904046,1187748,1483364,1190255,1485167,1507,2013,-4249,990,-1155,1460,-156,2888,31,16,911
905047,1187880,1483484,1190386,1485298,1482,1968,-4347,1226,-1224,1147,-256,3290,31,16,911
906048,1188020,1483612,1190517,1485429,1429,1920,-4445,1525,-1280,915,-433,3503,17,35,913
907049,1188164,1483736,1190648,1485560,1398,1948,-4534,1796,-1335,740,-524,3462,17,35,913
908050,1188296,1483872,1190779,1485691,1474,1871,-4615,2083,-1386,592,-668,3668,19,33,911
909051,1188460,1483972,1190910,1485822,1259,2110,-4712,2368,-1417,387,-860,3730,19,33,911
910052,1188592,1484108,1191041,1485953,1460,1883,-4807,2610,-1421,-51,-943,3794,17,21,913
911053,1188732,1484236,1191172,1486084,1406,1936,-4878,2802,-1391,-424,-1014,3762,17,21,913
912053,1188856,1484360,1191303,1486215,1510,1964,-4914,2873,-1340,-629,-871,3499,35,31,912
913055,1188972,1484516,1191434,1486346,1566,1753,-4927,2848,-1259,-827,-791,3478,35,31,912
914056,1189104,1484652,1191565,1486477,1467,1877,-4922,2807,-1157,-1048,-690,3355,21,27,913
915057,1189216,1484792,1191696,1486608,1600,1848,-4886,2634,-1033,-1429,-518,3203,21,27,913
916058,1189328,1484920,1191827,1486739,1609,1924,-4826,2433,-880,-1721,-487,3482,32,32,913
917059,1189456,1485052,1191958,1486870,1511,1899,-4760,2286,-672,-1890,-802,3791,32,32,913
918060,1189584,1485192,1192089,1487001,1512,1845,-4689,2184,-415,-2121,-974,3979,31,25,911
919061,1189700,1485320,1192220,1487132,1595,1922,-4601,2066,-138,-2455,-1041,4133,31,25,911
920062,1189828,1485464,1192351,1487263,1521,1817,-4499,1909,116,-2815,-1023,4172,19,17,911
921063,1189948,1485596,1192482,1487394,1577,1892,-4392,1745,338,-3069,-1118,4332,19,17,911
922064,1190076,1485708,1192613,1487525,1528,2025,-4266,1516,548,-3274,-1388,4336,32,16,912
923065,1190208,1485836,1192744,1487656,1504,1927,-4108,1275,769,-3360,-2083,4574,32,16,912
924066,1190316,1485960,1192875,1487787,1664,1955,-3842,1120,1007,-3531,-2514,5565,26,17,912
925067,1190432,1486092,1193006,1487918,1622,1905,-1760,4310,1689,-5388,-6242,32767,26,17,912
926068,1190556,1486248,1193137,1488049,1575,1745,1578,10020,2664,-5351,-6218,32767,22,35,912
927069,1190688,1486356,1193268,1488180,1525,2055,3183,11512,3047,-2460,-488,4463,22,35,912
928070,1190800,1486480,1193399,1488311,1659,1958,3057,9315,2920,-1970,924,217,20,24,912
929071,1190920,1486608,1193530,1488442,1614,1935,2523,6026,2663,-1373,632,-1193,20,24,912
930072,1191040,1486736,1193661,1488573,1619,1937,2196,3629,2555,-1175,298,-131,12,21,911
931073,1191184,1486880,1193792,1488704,1465,1831,2022,1841,2675,-968,-483,222,12,21,911
932074,1191328,1487024,1193923,1488835,1459,1826,1763,308,2866,-264,-838,846,15,18,912
933075,1191440,1487192,1194054,1488966,1668,1660,1411,-1137,3016,-399,-577,1276,15,18,912
934076,1191576,1487316,1194185,1489097,1516,1938,1038,-2686,3043,-533,-461,1189,19,26,913
935077,1191692,1487488,1194316,1489228,1649,1621,658,-4239,2901,-455,-810,1390,19,26,913
936078,1191816,1487636,1194447,1489359,1602,1764,374,-5789,2761,-821,-1217,1492,28,24,913
937079,1191956,1487800,1194578,1489490,1499,1649,126,-7071,2603,-874,-1833,2451,28,24,913
938080,1192056,1487980,1194709,1489621,1762,1529,-105,-8155,2410,-1137,-2159,2852,19,35,913
939081,1192188,1488140,1194840,1489752,1563,1641,-321,-8954,2277,-1518,-2288,4118,19,35,913
940081,1192344,1488288,1194971,1489883,1402,1708,-544,-9204,2205,-1518,-1991,5806,15,23,912
941083,1192460,1488440,1195102,1490014,1660,1675,-663,-8976,2205,-1797,-1740,8132,15,23,912
942084,1192600,1488576,1195233,1490145,1506,1773,124,-7231,2377,-2379,-2588,21014,19,29,913
943085,1192744,1488756,1195364,1490276,1476,1476,1417,-4785,2569,-2375,-1999,21182,19,29,913
944086,1192876,1488908,1195495,1490407,1550,1643,1982,-3976,2611,-2077,-965,7138,23,27,913
945087,1193012,1489040,1195626,1490538,1524,1768,1862,-4327,2606,-1913,-800,5603,23,27,913
946088,1193140,1489192,1195757,1490669,1576,1634,1618,-5057,2618,-1487,-815,4855,35,23,915
947089,1193256,1489336,1195888,1490800,1658,1678,1462,-5376,2726,-1220,-726,5316,35,23,915
948090,1193380,1489484,1196019,1490931,1611,1646,1407,-5622,2923,-1038,-535,4732,25,18,913
949091,1193500,1489632,1196150,1491062,1642,1639,1370,-6003,3106,-638,-591,4186,25,18,913
950092,1193632,1489772,1196281,1491193,1567,1685,1343,-6542,3287,-664,-538,3866,35,18,913
951093,1193752,1489900,1196412,1491324,1647,1762,1371,-7140,3472,-673,-726,3541,35,18,913
952094,1193860,1490040,1196543,1491455,1733,1683,1412,-7713,3609,-543,-767,3574,33,35,912
953095,1193996,1490164,1196674,1491586,1556,1786,1475,-8266,3751,-763,-755,3463,33,35,912
954096,1194092,1490340,1196805,1491717,1822,1442,1505,-8626,3908,-739,-863,4145,33,38,913
955097,1194208,1490496,1196936,1491848,1704,1557,1503,-8771,4055,-688,-1005,4543,33,38,913
956098,1194352,1490656,1197067,1491979,1524,1519,1482,-8744,4184,-802,-730,5052,23,41,912
957099,1194460,1490840,1197198,1492110,1760,1346,1499,-8567,4251,-846,-521,5033,23,41,912
958100,1194580,1490996,1197329,1492241,1690,1510,1559,-8449,4251,-922,-375,4837,18,40,913
959101,1194676,1491180,1197460,1492372,1856,1312,1612,-8195,4233,-1029,-338,5378,18,40,913
960102,1194772,1491340,1197591,1492503,1871,1450,1659,-7824,4208,-1033,-486,5366,24,25,914
961103,1194868,1491516,1197722,1492634,1888,1330,1731,-7531,4193,-964,-610,5189,24,25,914
962104,1194972,1491688,1197853,1492765,1850,1337,1843,-7205,4199,-898,-640,5070,18,37,912
963105,1195072,1491868,1197984,1492896,1889,1265,1987,-6979,4192,-745,-396,4660,18,37,912
964106,1195160,1492044,1198115,1493027,1984,1271,2140,-6730,4149,-604,-97,4625,19,39,912
965107,1195248,1492260,1198246,1493158,2003,984,2300,-6514,4118,-513,102,4317,19,39,912
966108,1195348,1492444,1198377,1493289,1943,1161,2466,-6326,4100,-282,164,4197,15,27,913
967109,1195456,1492656,1198508,1493420,1903,950,2633,-6081,4077,-89,271,4282,15,27,913
968110,1195548,1492820,1198639,1493551,2021,1236,2812,-5890,4059,74,308,4024,17,32,914
969111,1195640,1492932,1198770,1493682,2038,1569,2990,-5684,4015,335,255,3709,17,32,914
970112,1195740,1493032,1198901,1493813,2003,1659,3157,-5551,3962,487,162,3525,33,20,915
971113,1195844,1493112,1199032,1493944,1990,1806,3301,-5352,3908,640,136,3698,33,20,915
972114,1195996,1493184,1199163,1494075,1681,1882,3387,-5010,3852,882,18,4007,16,23,911
973115,1196116,1493252,1199294,1494206,1887,1935,3418,-4632,3800,1136,9,4035,16,23,911
974116,1196228,1493336,1199425,1494337,1945,1855,3397,-4222,3727,1389,157,4122,36,24,909
975117,1196348,1493416,1199556,1494468,1901,1903,3351,-3838,3618,1580,295,3800,36,24,909
976118,1196452,1493524,1199687,1494599,2014,1739,3296,-3504,3479,1745,249,3691,21,24,910
977119,1196564,1493632,1199818,1494730,1972,1749,3252,-3195,3334,1871,200,3491,21,24,910
978120,1196676,1493760,1199949,1494861,1982,1625,3215,-2987,3222,2059,10,3050,32,16,909
979121,1196776,1493896,1200080,1494992,2071,1573,3158,-2902,3139,2145,84,2683,32,16,909
980122,1196856,1494068,1200211,1495123,2219,1330,3076,-2991,3035,2054,464,2011,19,20,911
981123,1196964,1494248,1200342,1495254,2055,1260,2958,-3205,2869,1960,597,1703,19,20,911
982124,1197044,1494420,1200473,1495385,2252,1292,2786,-3387,2661,1744,655,1828,24,34,911
983125,1197120,1494548,1200604,1495516,2303,1568,2547,-3337,2431,1503,800,2400,29,46,911
984126,1197236,1494768,1200735,1495647,2060,954,2265,-3149,2168,1387,967,2781,29,46,911
985127,1197320,1494960,1200866,1495778,2281,1102,1971,-2891,1888,1223,967,2891,12,47,909
986128,1197416,1495172,1200997,1495909,2222,942,1681,-2553,1630,1181,819,2967,12,47,909
987129,1197508,1495396,1201128,1496040,2265,827,1394,-2202,1416,1162,634,2954,31,37,912
988130,1197580,1495616,1201259,1496171,2416,812,1129,-1837,1257,1074,604,2974,31,37,912
989131,1197664,1495848,1201390,1496302,2363,693,889,-1525,1140,1105,640,2725,12,40,913
990132,1197736,1496072,1201521,1496433,2465,702,674,-1292,1044,1123,672,2441,12,40,913
991133,1197828,1496344,1201652,1496564,2358,340,478,-1163,955,1101,693,2115,19,47,913
992134,1197912,1496560,1201783,1496695,2429,653,299,-1204,836,1003,821,1684,19,47,913
993135,1198000,1496824,1201914,1496826,2424,294,144,-1265,738,1088,639,1781,13,55,914
994136,1198116,1497048,1202045,1496957,2256,504,8,-1233,683,1219,716,1864,13,55,914
995137,1198240,1497300,1202176,1497088,2210,275,-113,-1255,645,1332,813,1599,17,53,913
996138,1198340,1497512,1202307,1497219,2374,490,-240,-1319,585,1355,834,1500,17,53,913
997139,1198472,1497744,1202438,1497350,2174,320,-377,-1384,530,1417,474,1619,20,46,915
998140,1198600,1497960,1202569,1497481,2202,383,-533,-1306,483,1508,302,1898,20,46,915
999141,1198716,1498128,1202700,1497612,2284,667,-715,-1216,366,1479,984,2036,19,45,915
1000142,1198856,1498284,1202831,1497743,2130,731,-940,-1000,148,1556,1417,2403,19,45,915
1001143,1198972,1498448,1202962,1497874,2288,666,-1204,-709,-56,1582,1469,2584,39,25,914
1002144,1199104,1498632,1203093,1498005,2188,518,-1463,-439,-305,1376,2180,2394,39,25,914
1003145,1199240,1498820,1203224,1498136,2162,467,-1724,-283,-614,1137,2012,2198,37,41,913
1004145,1199376,1499012,1203355,1498267,2160,415,-1990,-139,-943,880,1531,2292,37,41,913
1005147,1199508,1499168,1203486,1498398,2186,629,-2254,-25,-1185,922,806,2458,31,39,914
1006147,1199660,1499320,1203617,1498529,2052,645,-2538,177,-1319,1085,628,2674,31,39,914
1007149,1199808,1499468,1203748,1498660,2071,662,-2789,362,-1383,1308,518,2501,25,31,913
1008150,1199936,1499584,1203879,1498791,2197,869,-2987,454,-1431,1416,590,2359,25,31,913
1009151,1200064,1499736,1204010,1498922,2200,635,-3121,453,-1509,1400,697,2136,23,29,915
1010152,1200208,1499888,1204141,1499053,2095,625,-3219,408,-1585,1439,296,2279,23,29,915
1011153,1200356,1500040,1204272,1499184,2063,615,-3316,422,-1625,1430,-321,2533,27,18,914
1012161,1200496,1500164,1204412,1499324,2113,797,-3426,472,-1661,1278,-290,2689,27,18,914
1013155,1200644,1500268,1204543,1499455,2057,934,-3549,540,-1771,1034,318,2704,38,16,915
1014156,1200776,1500396,1204674,1499586,2157,786,-3664,477,-1932,771,382,2574,38,16,915
1015157,1200884,1500524,1204805,1499717,2319,787,-3783,468,-2106,574,331,2768,20,22,914
1016158,1201036,1500640,1204936,1499848,2034,867,-3901,503,-2269,344,89,3048,20,22,914
1017159,1201176,1500748,1205067,1499979,2106,928,-4036,550,-2400,123,-320,3249,22,21,912
1018160,1201300,1500852,1205198,1500110,2210,964,-4178,597,-2518,-133,-674,3307,22,21,912
1019161,1201456,1500960,1205329,1500241,2001,950,-4307,669,-2620,-434,-1183,3485,35,31,913
1020162,1201588,1501060,1205460,1500372,2150,1013,-4409,776,-2688,-711,-1867,3790,35,31,913
1021163,1201696,1501172,1205591,1500503,2311,947,-4488,910,-2729,-1010,-2370,3897,16,21,914
1022164,1201840,1501288,1205722,1500634,2081,928,-4548,1017,-2735,-1228,-2559,3889,16,21,914
1023165,1201976,1501428,1205853,1500765,2130,773,-4586,998,-2707,-1379,-2670,3792,20,33,912
1024166,1202108,1501556,1205984,1500896,2155,849,-4587,883,-2660,-1522,-2553,3675,20,33,912
1025167,1202256,1501672,1206115,1501027,2048,931,-4572,711,-2590,-1748,-2336,3729,24,28,914
1026168,1202400,1501820,1206246,1501158,2069,724,-4560,476,-2495,-1948,-2261,3699,24,28,914
1027169,1202544,1501928,1206377,1501289,2063,984,-4533,214,-2367,-2028,-2358,3740,31,20,913
1028170,1202700,1502052,1206508,1501420,1978,887,-4474,-109,-2222,-2109,-2293,3644,31,20,913
1029171,1202840,1502188,1206639,1501551,2075,810,-4384,-490,-2065,-2116,-2286,3737,28,18,912
1030172,1202980,1502296,1206770,1501682,2072,995,-4267,-914,-1882,-2193,-2400,3877,28,18,912
1031173,1203120,1502428,1206901,1501813,2068,843,-3399,-395,-1591,-2173,-2967,13048,34,28,914
1032174,1203260,1502556,1207032,1501944,2065,870,-348,4985,-949,-2842,-4787,32767,34,28,914
1033175,1203396,1502708,1207163,1502075,2089,710,2305,8411,-457,-1785,-2380,15771,37,32,914
1034176,1203520,1502856,1207294,1502206,2168,728,2891,7630,-375,-1084,-341,969,37,32,914
1035177,1203676,1503004,1207425,1502337,1957,720,2486,4670,-475,-713,-70,-944,28,37,914
1036178,1203816,1503156,1207556,1502468,2054,686,2129,2016,-513,-106,-709,-323,28,37,914
1037179,1203964,1503328,1207687,1502599,1998,543,2007,376,-329,-262,-1017,754,21,36,915
1038180,1204116,1503464,1207818,1502730,1963,766,1852,-890,-84,-13,-1122,1187,21,36,915
1039181,1204272,1503600,1207949,1502861,1928,763,1619,-2022,53,81,-974,1335,21,33,914
1040182,1204424,1503696,1208080,1502992,1945,1028,1405,-3463,145,-302,-548,868,21,33,914
1041183,1204572,1503812,1208211,1503123,1963,910,1213,-4783,120,-210,-236,1637,38,30,915
1042184,1204724,1503924,1208342,1503254,1929,943,978,-6024,-15,-450,381,1791,38,30,915
1043185,1204852,1504048,1208473,1503385,2082,871,778,-6966,-156,-783,732,2715,29,23,914
1044186,1205020,1504180,1208604,1503516,1817,821,496,-7523,-285,-681,184,3953,29,23,914
1045187,1205152,1504292,1208735,1503647,2041,954,189,-7741,-336,-836,-567,5105,19,32,914
1046188,1205320,1504396,1208866,1503778,1801,1015,-84,-7447,-319,-796,-962,6592,19,32,914
1047188,1205500,1504484,1208997,1503909,1705,1134,-276,-6992,-299,-567,-1508,6632,28,11,914
1048190,1205656,1504576,1209128,1504040,1844,1126,-421,-6515,-291,-630,-1310,6994,28,11,914
1049191,1205808,1504648,1209259,1504171,1861,1277,-528,-6003,-298,-583,-729,7029,24,11,914
1050192,1205992,1504724,1209390,1504302,1639,1276,-591,-5716,-311,-277,-464,6391,24,11,914
1051193,1206156,1504796,1209521,1504433,1749,1327,-620,-5396,-275,-124,-173,6622,33,8,913
1052194,1206304,1504856,1209652,1504564,1843,1433,-600,-5189,-196,-20,263,5989,33,8,913
1053195,1206464,1504892,1209783,1504695,1755,1625,-546,-5220,-132,267,429,5194,36,4,913
1054196,1206624,1504956,1209914,1504826,1743,1479,-427,-5338,-39,323,458,4803,36,4,913
1055197,1206796,1505036,1210045,1504957,1651,1402,-253,-5613,90,432,584,4172,21,21,912
1056198,1206952,1505088,1210176,1505088,1740,1612,-62,-5931,216,606,367,4077,21,21,912
1057199,1207140,1505160,1210307,1505219,1516,1512,135,-6315,373,520,243,3788,39,11,914
1058200,1207304,1505216,1210438,1505350,1653,1645,348,-6682,518,623,281,3656,39,11,914
1059201,1207480,1505288,1210569,1505481,1558,1571,551,-6961,608,562,461,3622,29,22,914
1060202,1207636,1505356,1210700,1505612,1673,1624,738,-7116,653,337,649,4144,29,22,914
1061203,1207816,1505440,1210831,1505743,1501,1545,887,-7054,693,365,603,4537,42,24,911
1062204,1207976,1505520,1210962,1505874,1615,1592,1019,-6961,685,302,944,4589,42,24,911
1063205,1208152,1505600,1211093,1506005,1495,1614,1126,-6725,647,110,867,5034,24,9,914
1064206,1208328,1505688,1211224,1506136,1476,1583,1221,-6407,585,96,394,5188,24,9,914
1065207,1208480,1505776,1211355,1506267,1618,1602,1303,-5989,526,-10,-5,5230,22,9,913
1066208,1208648,1505852,1211486,1506398,1502,1701,1391,-5510,493,-32,-118,5276,22,9,913
1067209,1208808,1505940,1211617,1506529,1540,1645,1500,-5127,481,77,-135,4741,20,12,913
1068209,1208928,1506020,1211748,1506660,1795,1718,1633,-4892,483,174,-160,4431,20,12,913
1069211,1209120,1506108,1211879,1506791,1319,1688,1788,-4766,508,242,-102,4016,18,16,913
1070211,1209252,1506180,1212010,1506922,1694,1814,1960,-4752,539,447,-72,3523,18,16,913
1071212,1209404,1506260,1212141,1507053,1560,1786,2137,-4775,582,588,-42,3304,18,20,913
1072214,1209532,1506328,1212272,1507184,1712,1889,2295,-4781,646,724,-234,3231,18,20,913
1073215,1209708,1506416,1212403,1507315,1393,1783,2416,-4748,719,867,-522,3203,39,21,911
1074216,1209856,1506504,1212534,1507446,1560,1801,2491,-4694,782,962,-592,3247,39,21,911
1075217,1209984,1506584,1212665,1507577,1688,1875,2520,-4546,830,1047,-612,3480,18,26,912
1076218,1210152,1506688,1212796,1507708,1421,1737,2490,-4306,866,1102,-683,3686,18,26,912
1077219,1210284,1506760,1212927,1507839,1647,1963,2431,-3996,896,1149,-714,3800,41,26,912
1078220,1210440,1506844,1213058,1507970,1486,1908,2359,-3656,910,1200,-641,3694,41,26,912
1079221,1210608,1506948,1213189,1508101,1396,1795,2269,-3341,888,1292,-533,3546,33,28,911
1080222,1210772,1507036,1213320,1508232,1406,1915,2159,-3038,852,1252,-511,3458,33,28,911
1081223,1210944,1507112,1213451,1508363,1339,2014,2038,-2792,805,1250,-546,3312,40,11,913
1082224,1211108,1507208,1213582,1508494,1375,1905,1914,-2607,746,1283,-543,3069,40,11,913
1083225,1211260,1507312,1213713,1508625,1441,1867,1786,-2496,674,1266,-471,2766,36,13,911
1084226,1211400,1507396,1213844,1508756,1513,2013,1646,-2454,594,1331,-493,2444,36,13,911
1085227,1211576,1507480,1213975,1508887,1269,2034,1499,-2457,527,1413,-473,2184,38,15,913
1086228,1211716,1507568,1214106,1509018,1490,2028,1347,-2520,474,1422,-450,2095,38,15,913
1087229,1211864,1507680,1214237,1509149,1433,1886,1190,-2649,426,1395,-364,1818,41,13,912
1088230,1212008,1507772,1214368,1509280,1453,2029,1017,-2834,373,1302,-293,1712,41,13,912
1089231,1212168,1507852,1214499,1509411,1341,2127,829,-2962,316,1203,-229,1657,36,21,913
1090232,1212316,1507960,1214630,1509542,1408,1962,630,-3087,259,1076,-261,1684,36,21,913
1091233,1212460,1508044,1214761,1509673,1428,2132,415,-3181,205,956,-268,1684,39,22,911
1092234,1212604,1508128,1214892,1509804,1423,2154,195,-3290,153,822,-184,1688,39,22,911
1093235,1212748,1508224,1215023,1509935,1417,2094,-21,-3351,97,728,-68,1683,33,14,910
1094236,1212896,1508312,1215154,1510066,1386,2163,-223,-3465,58,594,-1,1666,33,14,910
1095237,1213048,1508380,1215285,1510197,1352,2317,-426,-3540,40,491,26,1752,18,20,910
1096238,1213204,1508472,1215416,1510328,1317,2184,-627,-3626,39,417,51,1800,18,20,910
1097239,1213340,1508580,1215547,1510459,1439,2094,-812,-3645,50,337,76,1839,17,29,910
1098240,1213492,1508680,1215678,1510590,1330,2159,-985,-3679,81,165,-58,1947,17,29,910
1099241,1213620,1508740,1215809,1510721,1482,2440,-1149,-3667,125,61,-154,2080,27,25,911
1100242,1213752,1508832,1215940,1510852,1457,2258,-1303,-3657,176,-19,-180,2154,27,25,911
1101243,1213900,1508916,1216071,1510983,1351,2329,-1432,-3678,227,-115,-178,2156,32,28,910
1102244,1214036,1508984,1216202,1511114,1423,2457,-1552,-3656,276,-196,-227,2282,32,28,910
1103245,1214160,1509092,1216333,1511245,1502,2218,-1663,-3599,329,-252,-229,2351,24,22,910
1104245,1214320,1509208,1216464,1511376,1265,2174,-1767,-3566,390,-206,-204,2437,24,22,910
1105247,1214464,1509304,1216595,1511507,1359,2316,-1857,-3548,446,-148,-132,2438,28,16,909
1106248,1214612,1509396,1216726,1511638,1328,2358,-1936,-3564,486,-105,-36,2407,28,16,909
1107249,1214776,1509504,1216857,1511769,1213,2268,-2017,-3619,517,-44,67,2469,29,16,910
1108250,1214948,1509596,1216988,1511900,1146,2386,-2081,-3657,547,13,181,2437,29,16,910
1109251,1215116,1509704,1217119,1512031,1155,2296,-2165,-3714,576,114,173,2637,28,17,911
1110252,1215272,1509800,1217250,1512162,1219,2387,-2237,-3731,593,165,258,2695,28,17,911
1111253,1215420,1509928,1217381,1512293,1262,2189,-2305,-3829,586,205,329,2714,21,28,911
1112254,1215600,1510016,1217512,1512424,1041,2459,-2399,-3890,578,377,155,2872,21,28,911
1113255,1215768,1510148,1217643,1512555,1099,2183,-2503,-3967,570,477,31,3011,31,17,911
1114256,1215936,1510276,1217774,1512686,1084,2211,-2605,-3965,555,490,-60,3227,31,17,911
1115257,1216140,1510404,1217905,1512817,827,2212,-2694,-4026,533,540,8,3214,45,35,911
1116258,1216332,1510548,1218036,1512948,875,2106,-2784,-4065,503,610,47,3436,45,35,911
1117259,1216532,1510684,1218167,1513079,796,2155,-2873,-4059,486,634,79,3605,34,31,912
1118260,1216692,1510820,1218298,1513210,1033,2153,-2947,-4074,471,639,204,3590,34,31,912
1119261,1216880,1510948,1218429,1513341,833,2205,-2999,-4118,450,619,317,3672,46,33,913
1120262,1217072,1511096,1218560,1513472,782,2073,-3023,-4182,434,665,338,3773,46,33,913
1121263,1217232,1511244,1218691,1513603,970,2066,-3033,-4235,424,714,339,3845,43,36,913
1122264,1217424,1511356,1218822,1513734,743,2300,-3024,-4297,422,581,227,3930,43,36,913
1123265,1217612,1511500,1218953,1513865,744,2095,-3000,-4325,442,574,-31,4094,43,24,913
1124266,1217780,1511608,1219084,1513996,853,2330,-2961,-4348,487,657,-597,4272,43,24,913
1125267,1217944,1511772,1219215,1514127,863,1966,-2906,-4322,564,643,-1006,4515,33,27,914
1126268,1218128,1511920,1219346,1514258,715,2059,-2839,-4266,643,539,-797,4644,33,27,914
1127269,1218288,1512064,1219477,1514389,852,2078,-2763,-4224,698,498,-695,4730,41,35,913
1128270,1218444,1512208,1219608,1514520,867,2074,-2683,-4171,767,533,-800,4990,41,35,913
1129271,1218604,1512336,1219739,1514651,829,2175,-2597,-4059,859,519,-640,5083,42,31,913
1130272,1218748,1512480,1219870,1514782,924,2070,-2514,-3972,933,382,-370,5139,42,31,913
1131273,1218868,1512608,1220001,1514913,1078,2171,-2437,-3857,991,218,-294,5358,37,22,913
1132274,1219004,1512764,1220132,1515044,977,1986,-2347,-3767,1058,213,-357,5392,37,22,913
1133275,1219116,1512912,1220263,1515175,1136,2029,-2253,-3663,1125,253,-435,5533,25,36,913
1134276,1219252,1513032,1220394,1515306,983,2209,-1951,-3338,1211,378,-650,7735,25,36,913
1135276,1219348,1513164,1220525,1515437,1249,2134,-646,-865,1316,1371,-978,26895,14,26,913
1136277,1219476,1513280,1220656,1515568,1050,2241,755,1168,1392,658,-772,13293,14,26,913
1137285,1219628,1513384,1220796,1515708,896,2333,1164,985,1420,490,-56,3392,35,30,911
1138280,1219748,1513512,1220927,1515839,1101,2184,1040,-264,1434,641,-344,2706,35,30,911
1139281,1219864,1513612,1221058,1515970,1132,2374,812,-1505,1466,784,-803,2767,15,21,911
1140282,1219972,1513704,1221189,1516101,1192,2441,726,-2199,1525,598,-730,3218,15,21,911
1141283,1220084,1513804,1221320,1516232,1177,2405,670,-2881,1528,586,-404,2891,12,28,911
1142284,1220216,1513912,1221451,1516363,1051,2366,581,-3450,1434,530,-195,3327,12,28,911
1143285,1220324,1514008,1221582,1516494,1211,2456,437,-3951,1343,187,-31,3811,31,15,910
1144286,1220432,1514108,1221713,1516625,1221,2446,248,-4255,1253,223,73,4429,31,15,910
1145287,1220532,1514196,1221844,1516756,1286,2540,16,-4334,1162,138,66,5079,32,24,910
1146288,1220628,1514276,1221975,1516887,1326,2613,-219,-4226,1084,-221,-24,5627,32,24,910
1147289,1220744,1514372,1222106,1517018,1208,2528,-439,-3989,1007,-309,-292,5956,13,12,909
1148290,1220872,1514480,1222237,1517149,1134,2464,-604,-3741,953,-487,-591,6009,13,12,909
1149291,1220996,1514564,1222368,1517280,1163,2635,-706,-3455,963,-644,-1045,6178,35,10,908
1150292,1221104,1514652,1222499,1517411,1274,2630,-741,-3247,995,-651,-1216,5710,35,10,908
1151293,1221228,1514744,1222630,1517542,1177,2622,-715,-3264,1040,-767,-1271,5257,32,11,909
1152294,1221328,1514832,1222761,1517673,1340,2667,-637,-3345,1102,-850,-1163,5043,32,11,909
1153295,1221412,1514916,1222892,1517804,1462,2714,-499,-3566,1174,-806,-1235,4517,30,18,909
1154296,1221504,1514996,1223023,1517935,1429,2761,-331,-3793,1253,-906,-1152,4614,30,18,909
1155297,1221632,1515080,1223154,1518066,1205,2758,-152,-3965,1328,-1080,-776,4674,28,11,907
1156298,1221748,1515152,1223285,1518197,1287,2859,12,-4141,1364,-1096,-352,4590,28,11,907
1157299,1221848,1515244,1223416,1518328,1402,2752,158,-4242,1365,-1116,41,4885,20,8,907
1158300,1221964,1515332,1223547,1518459,1308,2796,289,-4243,1352,-1184,237,5078,20,8,907
1159301,1222096,1515404,1223678,1518590,1208,2923,392,-4179,1334,-1228,177,5204,26,15,906
1160302,1222192,1515476,1223809,1518721,1449,2950,464,-4091,1336,-1306,3,5401,26,15,906
1161303,1222304,1515560,1223940,1518852,1357,2895,508,-3910,1375,-1293,-327,5499,23,9,906
1162304,1222416,1515648,1224071,1518983,1366,2890,547,-3781,1428,-1194,-737,5261,23,9,906
1163305,1222536,1515764,1224202,1519114,1322,2722,598,-3691,1506,-1149,-979,5172,24,28,906
1164306,1222692,1515852,1224333,1519245,1086,2917,657,-3695,1605,-1028,-1090,4988,24,28,906
1165307,1222796,1515932,1224464,1519376,1423,2990,713,-3717,1702,-889,-1113,4791,32,7,907
1166308,1222928,1516008,1224595,1519507,1248,3039,782,-3786,1804,-945,-1003,4770,32,7,907
1167309,1223060,1516096,1224726,1519638,1248,2984,865,-3848,1895,-1045,-930,4686,27,24,906
1168309,1223176,1516180,1224857,1519769,1354,3031,953,-3900,1969,-1002,-954,4724,27,24,906
1169311,1223288,1516276,1224988,1519900,1388,2971,1032,-3897,2043,-926,-770,4823,21,16,906
1170312,1223436,1516352,1225119,1520031,1156,3121,1095,-3927,2118,-804,-635,4816,21,16,906
1171313,1223544,1516440,1225250,1520162,1416,3066,1142,-3964,2179,-720,-353,4664,27,17,905
1172314,1223648,1516552,1225381,1520293,1453,2925,1176,-4047,2234,-616,-158,4736,27,17,905
1173315,1223792,1516636,1225512,1520424,1198,3121,1196,-4065,2295,-382,-133,4853,14,25,905
1174316,1223936,1516716,1225643,1520555,1193,3170,1207,-4091,2338,-224,0,4728,14,25,905
1175317,1224076,1516844,1225774,1520686,1214,2872,1222,-4088,2364,-204,-14,4744,21,13,906
1176318,1224200,1516948,1225905,1520817,1318,3034,1236,-4081,2362,-239,-24,4797,21,13,906
1177319,1224324,1517048,1226036,1520948,1321,3073,1250,-4063,2341,-259,-159,4896,34,26,907
1178320,1224460,1517188,1226167,1521079,1244,2820,1260,-3996,2319,-305,-341,4932,34,26,907
1179321,1224588,1517304,1226298,1521210,1296,2978,1258,-3973,2298,-246,-469,4905,15,27,904
1180322,1224740,1517412,1226429,1521341,1137,3038,1254,-3947,2270,-126,-325,4718,15,27,904
1181323,1224864,1517532,1226560,1521472,1315,2969,1254,-3986,2223,-63,81,4538,36,15,905
1182323,1224980,1517636,1226691,1521603,1372,3082,1251,-4007,2158,-10,426,4492,36,15,905
1183325,1225128,1517740,1226822,1521734,1165,3095,1227,-4074,2103,50,547,4487,18,15,905
1184325,1225260,1517856,1226953,1521865,1264,3026,1185,-4122,2106,111,560,4402,18,15,905
1185327,1225380,1517980,1227084,1521996,1345,2980,1136,-4251,2132,92,757,4210,36,29,906
1186328,1225508,1518104,1227215,1522127,1297,2984,1086,-4399,2147,29,952,4034,36,29,906
1187329,1225640,1518236,1227346,1522258,1271,2935,1035,-4613,2166,36,802,3928,31,25,906
1188330,1225776,1518368,1227477,1522389,1245,2935,989,-4728,2193,-11,411,3992,31,25,906
1189331,1225896,1518496,1227608,1522520,1350,2962,929,-4816,2229,-140,27,4229,14,35,906
1190332,1226004,1518656,1227739,1522651,1435,2750,875,-4859,2250,-153,-7,4202,14,35,906
1191333,1226120,1518808,1227870,1522782,1393,2792,831,-4934,2240,-120,-37,4083,35,23,906
1192334,1226236,1518992,1228001,1522913,1399,2570,790,-4995,2224,-58,49,4108,35,23,906
1193335,1226348,1519132,1228132,1523044,1432,2841,751,-5011,2227,12,85,4084,20,22,906
1194336,1226480,1519252,1228263,1523175,1308,2971,704,-5027,2275,-70,-127,4154,20,22,906
1195337,1226588,1519412,1228394,1523306,1468,2710,673,-5066,2330,-127,-22,3984,13,35,907
1196338,1226716,1519548,1228525,1523437,1344,2858,676,-5142,2369,-63,27,3763,13,35,907
1197339,1226820,1519716,1228656,1523568,1507,2642,695,-5255,2404,26,19,3845,27,39,907
1198340,1226936,1519872,1228787,1523699,1439,2707,725,-5360,2450,84,3,3836,27,39,907
1199341,1227052,1520040,1228918,1523830,1446,2617,753,-5368,2493,28,-145,3919,14,28,907
1200342,1227160,1520204,1229049,1523961,1507,2628,783,-5336,2516,-21,-140,4003,14,28,907
1201343,1227292,1520376,1229180,1524092,1356,2561,815,-5296,2528,21,-70,4023,27,22,908
1202343,1227400,1520536,1229311,1524223,1516,2624,848,-5228,2531,181,-87,4008,27,22,908
1203345,1227516,1520712,1229442,1524354,1474,2505,875,-5179,2511,254,35,3987,13,27,907
1204346,1227624,1520864,1229573,1524485,1534,2646,893,-5121,2482,323,-37,3934,13,27,907
1205347,1227728,1521016,1229704,1524616,1572,2638,898,-5034,2462,381,-226,3982,23,37,907
1206348,1227824,1521192,1229835,1524747,1637,2469,897,-4899,2485,476,-439,4084,23,37,907
1207349,1227916,1521360,1229966,1524878,1679,2502,899,-4771,2514,583,-381,3861,12,22,907
1208350,1228036,1521532,1230097,1525009,1510,2460,906,-4767,2514,754,-214,3563,12,22,907
1209351,1228168,1521700,1230228,1525140,1435,2470,920,-4798,2506,904,-138,3493,32,33,908
1210352,1228268,1521856,1230359,1525271,1648,2534,934,-4822,2513,969,-185,3444,32,33,908
1211353,1228384,1522032,1230490,1525402,1556,2390,946,-4778,2536,936,-414,3479,35,24,909
1212354,1228500,1522204,1230621,1525533,1563,2398,939,-4739,2571,819,-711,3669,35,24,909
1213355,1228600,1522360,1230752,1525664,1677,2487,922,-4589,2616,735,-926,3798,33,43,908
1214356,1228696,1522544,1230883,1525795,1718,2290,894,-4460,2646,658,-1077,3730,33,43,908
1215357,1228816,1522736,1231014,1525926,1572,2213,873,-4329,2664,684,-1076,3602,30,49,907
1216358,1228916,1522960,1231145,1526057,1712,1973,868,-4296,2663,805,-895,3363,30,49,907
1217359,1229024,1523164,1231276,1526188,1672,2067,879,-4278,2641,991,-641,3196,25,35,909
1218360,1229148,1523356,1231407,1526319,1576,2116,904,-4304,2613,1182,-204,3009,25,35,909
1219361,1229256,1523528,1231538,1526450,1686,2224,930,-4358,2589,1226,166,3046,23,33,910
1220362,1229348,1523692,1231669,1526581,1804,2259,948,-4313,2556,1114,273,3246,23,33,910
1221363,1229448,1523884,1231800,1526712,1768,2058,954,-4206,2522,934,233,3336,23,40,909
1222364,1229532,1524096,1231931,1526843,1889,1898,961,-4107,2491,862,30,3280,23,40,909
1223365,1229612,1524280,1232062,1526974,1937,2050,962,-3980,2461,933,-115,3414,28,44,909
1224366,1229700,1524464,1232193,1527105,1906,2027,963,-3787,2440,1052,-70,3351,28,44,909
1225367,1229788,1524664,1232324,1527236,1926,1898,966,-3651,2439,1147,-101,3312,12,41,909
1226368,1229876,1524840,1232455,1527367,1945,2028,967,-3537,2444,1155,6,3242,12,41,909
1227369,1229988,1524984,1232586,1527498,1804,2223,977,-3444,2436,1144,254,3049,20,35,908
1228370,1230080,1525176,1232717,1527629,1946,1896,978,-3371,2417,1141,317,3045,20,35,908
1229371,1230172,1525376,1232848,1527760,1964,1817,970,-3252,2414,1199,322,3037,29,36,910
1230372,1230268,1525580,1232979,1527891,1955,1760,954,-3133,2423,1268,325,2970,29,36,910
1231373,1230352,1525760,1233110,1528022,2052,1890,932,-3023,2422,1245,324,2935,15,41,909
1232374,1230468,1525952,1233241,1528153,1858,1788,909,-2940,2416,1163,272,2905,15,41,909
1233375,1230580,1526100,1233372,1528284,1892,2056,877,-2796,2405,987,123,3029,11,25,910
1234376,1230672,1526272,1233503,1528415,2035,1888,826,-2626,2389,819,-6,3090,11,25,910
1235376,1230784,1526424,1233634,1528546,1919,2004,775,-2454,2367,731,105,2970,31,35,909
1236378,1230876,1526584,1233765,1528677,2062,1942,728,-2314,2339,723,222,2883,31,35,909
1237379,1230984,1526780,1233896,1528808,1972,1689,674,-2171,2316,709,45,2899,12,46,907
1238380,1231088,1526996,1234027,1528939,2010,1527,621,-2084,2308,698,-21,2711,12,46,907
1239381,1231184,1527208,1234158,1529070,2075,1517,574,-2049,2302,724,71,2439,35,42,908
1240382,1231292,1527392,1234289,1529201,2012,1668,526,-2109,2300,815,200,2231,35,42,908
1241383,1231404,1527596,1234420,1529332,1995,1512,469,-2228,2316,873,272,2121,34,38,911
1242384,1231504,1527760,1234551,1529463,2085,1748,412,-2335,2332,893,422,1975,34,38,911
1243385,1231616,1527916,1234682,1529594,2018,1787,351,-2396,2338,870,548,2050,28,45,910
1244386,1231740,1528156,1234813,1529725,1947,1215,286,-2474,2337,981,676,2149,28,45,910
1245387,1231864,1528368,1234944,1529856,1951,1354,208,-2495,2334,1012,666,2282,18,45,909
1246388,1232012,1528560,1235075,1529987,1794,1453,105,-2444,2322,877,494,2598,18,45,909
1247389,1232144,1528768,1235206,1530118,1894,1320,-15,-2275,2308,646,386,2905,38,27,912
1248390,1232260,1528952,1235337,1530249,2001,1446,-111,-2091,2282,521,419,2803,38,27,912
1249391,1232404,1529124,1235468,1530380,1821,1503,-200,-1925,2243,511,247,2825,37,33,911
1250392,1232524,1529300,1235599,1530511,1977,1459,-289,-1796,2207,659,7,2727,37,33,911
1251393,1232636,1529524,1235730,1530642,2035,1118,-354,-1762,2172,842,98,2352,17,32,912
1252394,1232764,1529780,1235861,1530773,1937,864,-408,-1822,2119,834,82,2263,17,32,912
1253395,1232884,1529996,1235992,1530904,1992,1077,-461,-1936,2054,858,353,2140,18,32,911
1254396,1233020,1530180,1236123,1531035,1891,1253,-516,-2051,1979,994,581,2095,18,32,911
1255397,1233172,1530352,1236254,1531166,1783,1310,-568,-2193,1910,1092,525,2049,30,27,914
1256398,1233328,1530508,1236385,1531297,1747,1399,-622,-2264,1839,1119,178,2158,30,27,914
1257399,1233468,1530652,1236516,1531428,1844,1470,-678,-2282,1751,983,-82,2341,20,36,913
1258400,1233600,1530876,1236647,1531559,1894,929,-729,-2304,1647,837,-111,2363,20,36,913
1259401,1233736,1531076,1236778,1531690,1867,1048,-775,-2345,1551,928,-406,2481,32,32,913
1260402,1233864,1531248,1236909,1531821,1919,1205,-833,-2373,1449,1115,-314,2658,32,32,913
1261403,1233984,1531440,1237040,1531952,1974,1054,-897,-2370,1344,1220,-268,2799,38,35,913
1262411,1234132,1531604,1237180,1532092,1797,1218,-949,-2310,1250,1255,-262,2823,38,35,913
1263405,1234260,1531772,1237311,1532223,1923,1177,-988,-2260,1156,1269,-122,2942,16,35,913
1264406,1234400,1531956,1237442,1532354,1845,1053,-1044,-2182,1044,1408,-97,3103,16,35,913
1265407,1234576,1532112,1237573,1532485,1601,1217,-1112,-2100,936,1616,-92,3098,18,39,913
1266408,1234708,1532276,1237704,1532616,1876,1153,-1194,-1967,842,1593,-219,3435,18,39,913
1267409,1234848,1532472,1237835,1532747,1822,924,-1288,-1767,762,1442,-287,3572,23,42,914
1268410,1234992,1532668,1237966,1532878,1792,897,-1359,-1652,678,1441,-53,3285,23,42,914
1269411,1235124,1532872,1238097,1533009,1868,815,-1412,-1580,599,1657,124,3175,38,31,914
1270412,1235260,1533048,1238228,1533140,1841,970,-1458,-1589,547,1856,144,3000,38,31,914
1271413,1235420,1533220,1238359,1533271,1679,977,-1487,-1624,508,1843,8,2959,19,27,913
1272414,1235560,1533368,1238490,1533402,1800,1119,-1500,-1689,463,1646,-182,3021,19,27,913
1273415,1235720,1533520,1238621,1533533,1663,1085,-1491,-1754,397,1628,-137,3094,34,31,914
1274416,1235876,1533668,1238752,1533664,1677,1103,-1475,-1729,327,1682,-113,3269,34,31,914
1275417,1236008,1533896,1238883,1533795,1828,560,-1472,-1641,266,1604,-187,3470,19,38,914
1276418,1236152,1534088,1239014,1533926,1748,758,-1493,-1453,198,1445,-370,3810,19,38,914
1277419,1236284,1534272,1239145,1534057,1823,785,-1523,-1257,76,1232,-228,3898,24,27,915
1278420,1236428,1534440,1239276,1534188,1743,869,-1529,-1174,-83,1171,-131,3732,24,27,915
1279421,1236560,1534612,1239407,1534319,1818,825,-1508,-1181,-230,1268,-43,3581,27,30,915
1280421,1236712,1534760,1239538,1534450,1684,967,-1486,-1180,-339,1289,26,3730,27,30,915
1281423,1236852,1534924,1239669,1534581,1755,853,-1493,-1087,-395,1337,-11,4054,21,36,914
1282424,1236984,1535048,1239800,1534712,1806,1106,-1500,-1025,-427,1390,223,3784,21,36,914
1283425,1237140,1535228,1239931,1534843,1645,734,-1477,-1068,-468,1402,372,3641,24,27,914
1284426,1237312,1535424,1240062,1534974,1528,606,-1461,-1105,-517,1412,230,3886,24,27,914
1285427,1237472,1535588,1240193,1535105,1590,791,-1489,-1052,-554,1432,102,4281,34,39,914
1286428,1237592,1535768,1240324,1535236,1846,670,-1550,-894,-558,1395,-4,4554,34,39,914
1287429,1237740,1535924,1240455,1535367,1664,809,-1619,-750,-554,1386,87,4422,21,39,917
1288430,1237852,1536068,1240586,1535498,1898,878,-1681,-677,-562,1444,94,4454,21,39,917
1289431,1237976,1536200,1240717,1535629,1826,953,-1733,-603,-564,1419,-6,4266,14,34,915
1290432,1238136,1536328,1240848,1535760,1589,979,-1780,-640,-553,1265,-200,4102,14,34,915
1291433,1238252,1536488,1240979,1535891,1871,765,-1830,-726,-511,1065,-575,4228,21,34,914
1292433,1238364,1536676,1241110,1536022,1905,565,-1874,-845,-433,909,-792,4083,21,34,914
1293435,1238492,1536828,1241241,1536153,1807,781,-1893,-1024,-337,759,-991,3921,15,21,914
1294436,1238648,1536992,1241372,1536284,1622,691,-1908,-1224,-241,481,-1359,4049,15,21,914
1295437,1238788,1537140,1241503,1536415,1719,784,-1928,-1362,-164,282,-1478,4256,27,22,915
1296437,1238904,1537264,1241634,1536546,1875,937,-1947,-1512,-97,363,-1330,4202,27,22,915
1297439,1239000,1537420,1241765,1536677,2017,726,-1964,-1704,-31,505,-1153,4296,30,32,916
1298440,1239108,1537532,1241896,1536808,1952,1009,-1992,-1901,17,551,-907,4512,30,32,916
1299441,1239188,1537640,1242027,1536939,2150,1043,-2037,-2069,39,554,-730,4612,7,20,914
1300442,1239284,1537768,1242158,1537070,2065,920,-2135,-2128,59,572,-948,4983,7,20,914
1301443,1239368,1537912,1242289,1537201,2162,814,-2236,-2222,87,810,-622,4850,28,34,913
1302444,1239476,1538068,1242420,1537332,2022,728,-2308,-2384,111,1065,-233,4716,28,34,913
1303445,1239584,1538204,1242551,1537463,2033,851,-2398,-2641,136,1142,-6,4635,15,28,912
1304446,1239704,1538320,1242682,1537594,1963,982,-2487,-2958,177,1203,72,4699,15,28,912
1305447,1239816,1538444,1242813,1537725,2023,936,-2576,-3198,238,1350,44,4979,20,22,913
1306448,1239916,1538568,1242944,1537856,2112,938,-2649,-3372,300,1381,30,5090,20,22,913
1307449,1240060,1538664,1243075,1537987,1831,1128,-2696,-3549,361,1501,32,5126,35,29,914
1308450,1240160,1538760,1243206,1538118,2121,1143,-2724,-3812,412,1730,170,5022,35,29,914
1309451,1240280,1538856,1243337,1538249,2001,1159,-2733,-4090,446,1927,257,5078,11,13,913
1310452,1240360,1538940,1243468,1538380,2274,1254,-2735,-4381,479,2067,171,5159,11,13,913
1311453,1240460,1539028,1243599,1538511,2163,1248,-2726,-4666,501,2130,78,5305,6,28,911
1312453,1240536,1539136,1243730,1538642,2338,1133,-2728,-4816,519,2160,-195,5803,6,28,911
1313454,1240652,1539268,1243861,1538773,2096,983,-2736,-4822,529,2212,-232,5980,7,10,910
1314456,1240752,1539360,1243992,1538904,2209,1249,-2730,-4823,529,2399,-125,6070,7,10,910
1315456,1240868,1539460,1244123,1539035,2117,1213,-2724,-4765,509,2503,-40,6330,20,11,910
1316457,1241016,1539548,1244254,1539166,1909,1307,-2714,-4744,469,2559,-32,6507,20,11,910
1317458,1241164,1539648,1244385,1539297,1903,1245,-2690,-4625,414,2526,-136,6660,32,8,911
1318460,1241316,1539740,1244516,1539428,1870,1312,-2637,-4474,353,2365,-272,6801,32,8,911
1319461,1241500,1539832,1244647,1539559,1646,1330,-2273,-3850,320,2488,-1025,10616,38,23,913
1320462,1241660,1539924,1244778,1539690,1785,1347,-1346,-2153,315,2995,-1923,19293,38,23,913
1321463,1241824,1540012,1244909,1539821,1746,1391,-671,-1398,262,2497,-435,7441,20,8,913
1322464,1241964,1540088,1245040,1539952,1892,1490,-455,-1682,217,2470,-234,5158,20,8,913
1323465,1242112,1540180,1245171,1540083,1836,1407,-440,-2495,202,2621,-200,4555,27,24,913
1324465,1242272,1540276,1245302,1540214,1748,1397,-367,-3077,220,2575,-511,4897,27,24,913
1325467,1242424,1540344,1245433,1540345,1790,1600,-232,-3419,243,2299,-481,4755,40,26,910
1326468,1242608,1540432,1245564,1540476,1567,1494,-66,-3719,221,2198,-508,4662,40,26,910
1327469,1242780,1540504,1245695,1540607,1625,1620,88,-3925,190,1895,-691,5099,29,11,911
1328469,1242972,1540612,1245826,1540738,1474,1405,240,-4071,194,1426,-1082,5359,29,11,911
1329471,1243128,1540712,1245957,1540869,1688,1468,373,-4024,208,1152,-1499,5874,22,13,913
1330472,1243296,1540832,1246088,1541000,1597,1348,507,-3900,224,810,-1632,6023,22,13,913
1331473,1243452,1540960,1246219,1541131,1661,1300,640,-3551,242,500,-1820,6491,36,12,914
1332474,1243616,1541044,1246350,1541262,1598,1595,772,-3121,250,334,-1837,6564,36,12,914
1333475,1243756,1541152,1246481,1541393,1744,1455,931,-2726,285,250,-1698,6456,21,20,914
1334476,1243960,1541236,1246612,1541524,1313,1626,1107,-2299,344,282,-1456,6379,21,20,914
1335477,1244128,1541332,1246743,1541655,1522,1566,1304,-2031,410,135,-1278,5797,29,13,913
1336478,1244292,1541408,1246874,1541786,1533,1716,1523,-1834,479,-89,-1202,5603,29,13,913
1337479,1244456,1541500,1247005,1541917,1519,1633,1952,-1497,689,-100,-1333,5121,33,8,913
1338480,1244624,1541572,1247136,1542048,1478,1784,2141,-1278,826,-173,-1393,5157,33,8,913
1339481,1244780,1541672,1247267,1542179,1542,1623,2303,-1118,934,-407,-1411,4797,26,25,912
1340482,1244968,1541760,1247398,1542310,1318,1717,2442,-1036,991,-429,-1216,4671,26,25,912
1341483,1245120,1541864,1247529,1542441,1534,1629,2566,-899,1049,-376,-1147,4650,22,12,913
1342484,1245312,1541968,1247660,1542572,1258,1641,2648,-746,1130,-346,-1113,4578,22,12,913
1343485,1245484,1542052,1247791,1542703,1365,1787,2712,-609,1207,-414,-1037,4123,28,24,914
1344486,1245632,1542156,1247922,1542834,1508,1673,2767,-655,1247,-443,-889,3588,28,24,914
1345487,1245748,1542264,1248053,1542965,1715,1659,2803,-740,1238,-361,-845,3419,37,12,914
1346488,1245912,1542392,1248184,1543096,1401,1535,2803,-879,1241,-225,-1009,3156,37,12,914
1347489,1246036,1542476,1248315,1543227,1655,1831,2762,-1089,1268,-135,-993,2913,29,25,911
1348490,1246176,1542560,1248446,1543358,1551,1852,2709,-1417,1254,-116,-630,2411,29,25,911
1349491,1246312,1542644,1248577,1543489,1575,1873,2650,-1753,1193,14,-438,2104,37,7,913
1350492,1246456,1542724,1248708,1543620,1519,1920,2587,-2132,1127,108,-427,1840,37,7,913
1351493,1246596,1542808,1248839,1543751,1540,1916,2516,-2609,1095,141,-433,1649,30,22,912
1352494,1246744,1542912,1248970,1543882,1484,1803,2449,-3059,1087,160,-422,1721,30,22,912
1353495,1246888,1543004,1249101,1544013,1503,1895,2374,-3445,1078,211,-274,1745,28,25,911
1354496,1247056,1543080,1249232,1544144,1338,2020,2275,-3736,1068,356,-147,1899,28,25,911
1355497,1247200,1543188,1249363,1544275,1482,1830,2155,-3943,1030,408,54,2043,21,18,912
