"Data file recorded 2014/9/24  13:43:40"
"%  Right Stride Frequency         = 2.0"
"%  Left Stride Frequency         = 2.0"
"%  Phase (Fractional)         = 32768.0"
"%  Experiment.py "
"%  Motor Gains    = [1800, 200, 100, 0, 0, 1800, 200, 100, 0, 0]
"% Columns: "
"% time | Right Leg Pos | Left Leg Pos | Commanded Right Leg Pos | Commanded Left Leg Pos | DCR | DCL | GyroX | GryoY | GryoZ | AX | AY | AZ | RBEMF | LBEMF | VBatt "
10500,16830992,18360192,16792901,18398533,-3800,3800,-369,-561,354,671,-292,4067,2,8,831
11502,16830980,18360164,16793032,18398664,-3800,3800,-371,-564,357,655,-296,4061,2,8,831
12502,16830964,18360212,16793163,18398795,-3800,3800,-371,-566,357,644,-293,4064,-6,-4,831
13503,16830876,18360324,16793294,18398926,-3800,3800,-369,-582,359,675,-298,4072,-6,-4,831
14504,16830652,18360460,16793425,18399057,-3800,3800,-369,-586,356,634,-242,4028,-24,8,798
15505,16830312,18360552,16793556,18399188,-3800,3800,-372,-546,337,553,71,4080,-24,8,798
16507,16830008,18360656,16793687,18399319,-3800,3800,-392,-474,334,683,101,4255,-57,24,799
17507,16829644,18360808,16793818,18399450,-3800,3800,-433,-437,321,886,229,4081,-57,24,799
18509,16829204,18360944,16793949,18399581,-3800,3800,-484,-375,296,1042,111,4250,-64,12,799
19509,16828748,18361092,16794080,18399712,-3800,3800,-562,-248,285,1063,-36,4285,-64,12,799
20510,16828272,18361196,16794211,18399843,-3800,3800,-621,-253,286,1608,284,3919,-77,19,800
21511,16827796,18361284,16794342,18399974,-3800,3800,-666,-190,325,2009,441,4073,-77,19,800
22513,16827224,18361384,16794473,18400105,-3800,3800,-705,-143,353,2028,825,3909,-92,9,801
23514,16826692,18361440,16794604,18400236,-3800,3800,-764,-104,365,2452,820,3897,-92,9,801
24515,16826096,18361500,16794735,18400367,-3800,3800,-811,-209,398,3350,1486,3437,-121,-9,799
25516,16825416,18361544,16794866,18400498,-3800,3800,-827,-307,455,3991,1819,3527,-121,-9,799
26517,16824756,18361552,16794997,18400629,-3800,3800,-859,-344,476,4445,1798,3563,-114,-13,800
27518,16824080,18361572,16795128,18400760,-3800,3800,-953,-309,434,4678,1399,3660,-114,-13,800
28519,16823260,18361584,16795259,18400891,-3800,3800,-1082,-92,327,4715,988,3904,-154,2,801
29519,16822476,18361628,16795390,18401022,-3800,3800,-1260,237,201,4333,3,4308,-154,2,801
30521,16821668,18361660,16795521,18401153,-3800,3800,-1443,670,95,4064,-878,4284,-147,-10,802
31522,16820804,18361684,16795652,18401284,-3800,3800,-1628,1147,5,3468,-1702,4441,-147,-10,802
32523,16819976,18361708,16795783,18401415,-3800,3800,-1836,1771,-83,2693,-2582,4874,-151,-14,802
33524,16819132,18361740,16795914,18401546,-3800,3800,-2045,2558,-145,1645,-3179,5126,-151,-14,802
34525,16818224,18361788,16796045,18401677,-3800,3800,-2234,3190,-157,713,-3206,4691,-149,-14,802
35525,16817368,18361820,16796176,18401808,-3800,3800,-2444,3862,-121,574,-3236,5130,-149,-14,802
36514,16816508,18361884,16796307,18401939,-3522,3800,-2651,4502,-41,481,-2744,4555,-146,-12,802
37515,16815716,18361920,16796438,18402070,-3545,3800,-2753,4709,16,322,-2546,3192,-146,-12,802
38516,16814848,18361980,16796569,18402201,-2635,3800,-2741,4586,77,299,-3056,2647,-157,4,802
39517,16814036,18362036,16796700,18402332,-2575,3800,-2631,4253,229,262,-3209,2305,-157,4,802
40518,16813272,18362108,16796831,18402463,-2485,3800,-2462,3947,413,276,-3102,2068,-153,5,803
41519,16812516,18362208,16796962,18402594,-2148,3800,-2202,3444,607,-100,-3024,1479,-153,5,803
42520,16811884,18362284,16797093,18402725,-2590,3800,-1854,2798,810,-462,-2906,1468,-141,6,803
43521,16811240,18362388,16797224,18402856,-2178,3800,-1495,2193,1001,-630,-2624,1662,-141,6,803
44522,16810688,18362500,16797355,18402987,-2455,3800,-1099,1512,1189,-872,-2357,1502,-123,6,807
45523,16810232,18362612,16797486,18403118,-2800,3800,-677,1035,1398,-1228,-2964,2442,-123,6,807
46523,16809812,18362716,16797617,18403249,-2785,3800,-206,705,1598,-1757,-3262,2762,-81,7,806
47525,16809460,18362852,16797748,18403380,-3000,3800,270,470,1807,-1433,-3368,3198,-81,7,806
48526,16809160,18362996,16797879,18403511,-3138,3800,698,497,2111,-978,-4101,4018,-67,18,803
49527,16808856,18363108,16798010,18403642,-2924,3800,1076,664,2550,-993,-4502,4368,-67,18,803
50528,16808612,18363228,16798141,18403773,-3136,3800,1352,905,2992,-1084,-4393,4846,-50,10,802
51529,16808416,18363288,16798272,18403904,-3294,3800,1748,1414,3426,-751,-4198,6833,-50,10,802
52530,16808176,18363356,16798403,18404035,-2858,3800,2749,3337,3797,1604,-3968,18870,-37,12,802
53531,16808024,18363416,16798534,18404166,-3286,3800,3744,5122,4173,1426,-3201,10835,-37,12,802
54531,16807852,18363480,16798665,18404297,-3030,3800,4002,5568,4688,1079,-2763,4636,-33,-3,800
55533,16807696,18363508,16798796,18404428,-3006,3800,3818,5535,5230,1912,-2608,4689,-33,-3,800
56534,16807584,18363520,16798927,18404559,-3175,3800,3541,5448,5714,2539,-2601,4337,-37,-3,799
57535,16807492,18363484,16799058,18404690,-3204,3800,3307,5664,6121,2497,-2488,4745,-37,-3,799
58536,16807388,18363508,16799189,18404821,-3028,3800,2981,5864,6370,2381,-1955,4463,-23,-3,798
59537,16807296,18363516,16799320,18404952,-3006,3800,2407,6178,6458,2418,-1456,5023,-23,-3,798
60538,16807252,18363528,16799451,18405083,-3231,3800,1603,6585,6409,2110,-792,5185,-5,-8,798
61539,16807168,18363548,16799582,18405214,-2887,3800,858,6672,6132,1719,31,4017,-5,-8,798
62540,16807076,18363548,16799713,18405345,-2741,3800,174,6291,5641,1570,745,3337,-16,-10,799
63541,16806984,18363536,16799844,18405476,-2644,3800,-554,5599,4926,1199,1882,2375,-16,-10,799
64542,16806848,18363544,16799975,18405607,-2253,3800,-1333,4717,4038,754,1950,1898,-21,-5,799
65543,16806636,18363568,16800106,18405738,-1629,3800,-2150,3960,3150,235,1606,2502,-21,-5,799
66544,16806364,18363604,16800237,18405869,-1078,3800,-2929,3280,2357,-603,813,2334,-30,-9,801
67545,16806152,18363628,16800368,18406000,-1303,3800,-3539,2437,1537,-1245,1337,1496,-30,-9,801
68546,16805956,18363680,16800499,18406131,-1261,3800,-3975,1293,570,-2153,2179,863,-37,4,805
69546,16805736,18363736,16800630,18406262,-957,3800,-4261,61,-423,-2860,2179,981,-37,4,805
70547,16805532,18363792,16800761,18406393,-911,3800,-4346,-1033,-1236,-3360,1649,1873,-41,1,807
71549,16805308,18363876,16800892,18406524,-631,3800,-3002,-2232,-1514,-5900,-390,12780,-41,1,807
72550,16805088,18363924,16801023,18406655,-503,3800,-482,-3241,-1337,-6477,-1203,17970,-49,13,809
73551,16804908,18363984,16801154,18406786,-617,3800,749,-4327,-1234,-3559,50,2828,-49,13,809
74552,16804756,18364024,16801285,18406917,-668,3800,742,-5404,-1269,-3398,-54,1669,-36,17,810
75553,16804624,18364108,16801416,18407048,-678,3800,448,-6214,-1309,-3317,-182,2121,-36,17,810
76554,16804496,18364192,16801547,18407179,-590,3800,447,-7031,-1180,-3412,-221,1979,-18,18,810
77555,16804416,18364308,16801678,18407310,-798,3800,638,-7604,-953,-3403,47,2762,-18,18,810
78556,16804344,18364428,16801809,18407441,-760,3800,893,-8098,-749,-3530,762,2599,-21,7,810
79557,16804276,18364588,16801940,18407572,-697,3800,1090,-8469,-560,-3297,1103,3188,-21,7,810
80558,16804236,18364792,16802071,18407703,-798,3800,1223,-8673,-307,-2964,393,3033,-14,25,809
81559,16804200,18365016,16802202,18407834,-750,3800,1376,-8989,78,-2864,-1238,2879,-14,25,809
82560,16804160,18365240,16802333,18407965,-650,3800,1554,-9008,495,-2774,-1788,3760,-10,35,811
83561,16804140,18365452,16802464,18408096,-709,3800,1714,-8953,918,-2489,-1626,3450,-10,35,811
84562,16804112,18365712,16802595,18408227,-589,3800,1805,-8680,1345,-1752,-968,4109,2,45,811
85563,16804100,18366012,16802726,18408358,-626,3800,1846,-8354,1763,-1192,75,3875,2,45,811
86564,16804080,18366296,16802857,18408489,-511,3800,1865,-8117,2197,-762,729,3772,1,51,811
87566,16804080,18366564,16802988,18408620,-578,3800,1883,-7627,2720,-122,732,4613,1,51,811
88567,16804084,18366852,16803119,18408751,-548,3800,1953,-7048,3331,274,747,4508,2,49,811
89568,16804068,18367156,16803250,18408882,-358,3800,2082,-6421,3927,695,676,4565,2,49,811
90568,16804040,18367472,16803381,18409013,-214,3800,2246,-5778,4427,1154,804,4385,5,60,811
91569,16804048,18367772,16803512,18409144,-385,3800,2426,-5188,4820,1718,865,4210,5,60,811
92570,16804044,18368064,16803643,18409275,-251,3800,2602,-4602,5090,2148,924,4059,16,64,813
93571,16804040,18368376,16803774,18409406,-191,3800,2777,-4115,5228,2353,1026,3692,16,64,813
94572,16804024,18368640,16803905,18409537,-52,3800,2955,-3564,5243,2651,1338,4054,12,51,813
95573,16804040,18368884,16804036,18409668,-201,3800,3128,-2923,5138,2703,1839,3903,12,51,813
96575,16804040,18369116,16804167,18409799,-44,3800,3293,-2331,4940,2772,2048,3704,-4,43,813
97575,16804036,18369344,16804298,18409930,41,3800,3412,-1677,4681,2945,2338,3808,-4,43,813
98576,16804032,18369556,16804429,18410061,100,3800,3468,-1085,4364,3036,2705,3605,-6,39,813
99577,16804028,18369800,16804560,18410192,159,3800,3436,-520,3946,3077,3098,3365,-6,39,813
100578,16804024,18370040,16804691,18410323,219,3800,3316,-58,3426,2923,3599,3002,-2,36,812
101579,16804020,18370228,16804822,18410454,278,3800,3106,318,2784,2710,4338,2706,-2,36,812
102580,16804012,18370460,16804953,18410585,365,3800,2783,573,2033,2624,4700,2230,-5,38,812
103581,16804020,18370644,16805084,18410716,319,3800,2379,733,1250,2635,4976,1930,-5,38,812
104582,16804016,18370876,16805215,18410847,453,3800,1863,909,457,2705,5376,2076,2,43,812
105583,16804012,18371136,16805346,18410978,513,3800,1236,1099,-237,2698,4932,1891,2,43,812
106584,16804032,18371392,16805477,18411109,412,3800,629,1107,-815,2594,4799,1094,-1,44,812
107585,16804036,18371660,16805608,18411240,568,3800,89,801,-1360,2298,4773,59,-1,44,812
108586,16804028,18371972,16805739,18411371,704,3800,-406,287,-1801,2125,4287,-221,17,58,812
109587,16804032,18372260,16805870,18411502,685,3800,-886,-90,-2044,2013,3295,251,17,58,812
110588,16804048,18372640,16806001,18411633,662,3800,-1372,-299,-2086,1694,2226,629,16,68,812
111589,16804048,18373012,16806132,18411764,819,3800,-1833,-352,-1954,1489,1446,1029,16,68,812
112590,16804040,18373372,16806263,18411895,930,3800,-2219,-350,-1726,1201,957,1122,13,71,811
113591,16804048,18373848,16806394,18412026,885,3800,-2506,-347,-1440,973,641,1282,13,71,811
114592,16804044,18374328,16806525,18412157,1020,3800,-2738,-275,-1069,864,133,1722,7,88,811
115593,16804036,18374792,16806656,18412288,1107,3800,-2956,-46,-646,680,162,2229,7,88,811
116594,16804060,18375280,16806787,18412419,954,3800,-3113,306,-236,459,115,2378,8,92,812
117595,16804076,18375912,16806918,18412550,1055,3800,-3184,586,134,156,-29,2185,8,92,812
118596,16804076,18376432,16807049,18412681,1213,3800,-3202,821,437,19,41,2352,18,115,813
119597,16804100,18377172,16807180,18412812,1111,3800,-3249,1149,670,12,89,2992,18,115,813
120598,16804132,18377832,16807311,18412943,1106,3800,-3325,1633,869,149,169,3285,4,113,813
121599,16804140,18378536,16807442,18413074,1310,3800,-3357,2071,981,154,633,3070,4,113,813
122600,16804152,18379224,16807573,18413205,1338,3800,-3266,2386,983,71,778,2705,9,123,814
123601,16804176,18379940,16807704,18413336,1310,3800,-3074,2487,910,187,672,2318,9,123,814
124602,16804208,18380676,16807835,18413467,1304,3800,-2857,2618,890,602,83,2737,3,125,812
125603,16804224,18381380,16807966,18413598,1456,3800,-2694,3024,965,1137,-252,3834,3,125,812
126604,16804268,18382092,16808097,18413729,1319,3800,-2631,3659,1040,1568,-211,4333,8,127,813
127605,16804308,18382840,16808228,18413860,1385,3800,-2571,4254,988,1917,309,3938,8,127,813
128606,16804348,18383528,16808359,18413991,1426,3800,-2402,4642,784,2073,707,3375,21,126,813
129607,16804400,18384244,16808490,18414122,1387,3800,-2132,4876,492,2418,976,3255,21,126,813
130608,16804464,18384996,16808621,18414253,1342,3800,-1858,5160,208,2661,278,3610,24,130,813
131609,16804528,18385736,16808752,18414384,1372,3800,-1606,5509,-17,2854,-630,3779,24,130,813
132610,16804584,18386336,16808883,18414515,1456,3800,-1381,5904,-278,3022,-700,3785,27,130,813
133611,16804632,18387024,16809014,18414646,1543,3800,-1145,6173,-609,3188,-586,3333,27,130,813
134619,16804684,18387596,16809154,18414786,2239,3800,-888,6276,-990,3298,-581,2909,28,120,813
135613,16804756,18388332,16809285,18414917,2141,3800,-651,6309,-1376,3349,-669,2817,28,120,813
136614,16804868,18388920,16809416,18415048,1899,3800,-432,6318,-1743,3192,-713,2772,25,110,811
137615,16804984,18389464,16809547,18415179,1882,3800,-258,6336,-2117,2756,-599,2793,25,110,811
138616,16805108,18390020,16809678,18415310,1836,3800,-146,6278,-2530,2117,-851,2573,17,109,809
139617,16805264,18390544,16809809,18415441,1626,3800,-101,6211,-3006,1678,-899,2489,17,109,809
140618,16805412,18391060,16809940,18415572,1669,3800,-114,6151,-3476,1193,-902,2640,41,123,809
141619,16805576,18391660,16810071,18415703,1556,3800,-305,6054,-4210,221,-488,2467,41,123,809
142620,16805760,18392100,16810202,18415834,1409,3800,-470,5702,-4457,158,-349,1700,29,89,811
143621,16805920,18392588,16810333,18415965,1546,3800,-583,5133,-4644,191,104,1069,29,89,811
144622,16806080,18393036,16810464,18416096,1534,3800,-679,4412,-4741,7,283,716,51,92,811
145623,16806260,18393544,16810595,18416227,1389,3800,-789,3664,-4693,-112,3,795,51,92,811
146624,16806428,18394036,16810726,18416358,1448,3800,-883,2941,-4468,-283,-44,709,47,91,810
147625,16806572,18394492,16810857,18416489,1594,3800,-971,2180,-4130,-377,96,730,47,91,810
148626,16806764,18394916,16810988,18416620,1268,3800,-1081,1484,-3761,-635,338,845,44,104,811
149627,16806908,18395380,16811119,18416751,1562,3800,-1195,620,-3368,-1210,592,710,44,104,811
150628,16807072,18395760,16811250,18416882,1424,3800,-1315,-154,-2963,-1422,761,1152,27,94,810
151629,16807232,18396196,16811381,18417013,1437,3800,-1470,-851,-2495,-1574,718,1450,27,94,810
152630,16807392,18396628,16811512,18417144,1425,3800,-1652,-1400,-1878,-1711,287,2176,33,85,810
153631,16807548,18397016,16811643,18417275,1440,3800,-1866,-1768,-1138,-1881,489,2710,33,85,810
154632,16807700,18397412,16811774,18417406,1456,3800,-2110,-2159,-328,-2212,665,2823,45,86,810
155633,16807860,18397788,16811905,18417537,1394,3800,-2381,-2413,489,-2368,861,3746,45,86,810
156634,16808004,18398160,16812036,18417668,1489,3800,-2801,-2308,1321,-2326,1071,5395,44,79,810
157635,16808160,18398532,16812167,18417799,1404,3800,-1913,-941,2258,-2323,1383,24672,44,79,810
158636,16808328,18398944,16812298,18417930,1313,3800,4600,2923,3004,1559,321,32767,35,86,810
159637,16808496,18399344,16812429,18418061,1298,3800,9195,8993,3631,3615,-2421,32767,35,86,810
160638,16808664,18399728,16812560,18418192,1283,3800,7835,12556,4101,-793,2030,12527,39,79,811
161639,16808852,18400172,16812691,18418323,1134,3800,5084,12206,4114,-1496,2698,1757,39,79,811
162640,16809016,18400680,16812822,18418454,1269,3800,4108,8797,4015,-1677,2348,-4803,43,87,811
163641,16809196,18401204,16812953,18418585,1149,3800,4350,4634,4022,-1248,1517,-5660,43,87,811
164642,16809380,18401596,16813084,18418716,1101,3800,4595,1344,4101,-790,1107,-5016,47,88,812
165643,16809580,18402020,16813215,18418847,972,3800,4376,-1509,4350,-235,700,-4490,47,88,812
166644,16809748,18402532,16813346,18418978,1156,3800,3680,-3281,4833,1109,-859,-949,29,79,811
167645,16809932,18403116,16813477,18419109,1033,3800,2687,-4389,5492,1210,-976,416,29,79,811
168646,16810080,18403812,16813608,18419240,1252,3800,1780,-5643,6056,804,-65,-183,33,112,812
169647,16810244,18404500,16813739,18419371,1137,3800,1208,-7214,6253,333,254,-1374,33,112,812
170648,16810416,18405080,16813870,18419502,1070,3800,931,-9253,6129,-526,370,-2083,52,121,814
171649,16810548,18405692,16814001,18419633,1321,3800,647,-10769,5805,-1152,-400,-183,52,121,814
172637,16810684,18406476,16814132,18419764,1294,2837,214,-11646,5519,-1921,-1802,1223,30,143,814
173638,16810856,18407320,16814263,18419895,1052,2151,-377,-11550,5459,-2418,-3463,4510,30,143,814
174639,16810976,18408124,16814394,18420026,1383,2108,-1224,-10152,5539,-3095,-4472,8073,39,155,814
175640,16811104,18408948,16814525,18420157,1334,1680,-2117,-8280,5499,-4055,-4147,8908,39,155,814
176641,16811252,18409624,16814656,18420288,1202,2368,-2667,-6664,5231,-4530,-3566,7606,23,162,821
177642,16811380,18410304,16814787,18420419,1330,2104,-2934,-5476,4761,-5051,-3035,7132,23,162,821
178643,16811524,18410972,16814918,18420550,1224,1945,-3159,-4384,4132,-5270,-2600,7265,41,131,820
179644,16811644,18411660,16815049,18420681,1380,1577,-3306,-3319,3470,-5212,-1932,6470,41,131,820
180645,16811760,18412200,16815180,18420812,1411,2323,-3326,-2460,2936,-4762,-1080,5852,41,122,819
181646,16811892,18412688,16815311,18420943,1312,2493,-3426,-1734,2572,-3944,-751,5726,41,122,819
182647,16812008,18413160,16815442,18421074,1420,2445,-3540,-1228,2382,-3479,-916,4624,44,90,821
183648,16812160,18413556,16815573,18421205,1185,2805,-3518,-1044,2336,-2969,-1776,3466,44,90,821
184649,16812272,18413964,16815704,18421336,1445,2610,-3385,-1245,2434,-2147,-2616,2410,41,82,818
185650,16812428,18414404,16815835,18421467,1160,2275,-3191,-1675,2664,-1163,-2951,1863,41,82,818
186651,16812596,18414780,16815966,18421598,1068,2569,-2990,-2168,2922,-342,-2803,1355,24,73,817
187652,16812740,18415120,16816097,18421729,1214,2704,-2784,-2872,3166,421,-2459,714,24,73,817
188653,16812856,18415472,16816228,18421860,1396,2533,-2573,-3598,3402,1199,-2081,704,27,73,819
189654,16813024,18415808,16816359,18421991,1055,2544,-2343,-4448,3620,1840,-1488,73,27,73,819
190655,16813160,18416144,16816490,18422122,1254,2455,-2089,-5359,3816,2282,-597,-68,42,60,816
191656,16813308,18416420,16816621,18422253,1172,2767,-1850,-6027,3989,2508,22,675,42,60,816
192657,16813452,18416672,16816752,18422384,1192,2866,-1709,-6354,4126,2289,-197,1686,34,56,817
193658,16813596,18416868,16816883,18422515,1187,3188,-1619,-6379,4136,2176,435,2440,34,56,817
194659,16813744,18417084,16817014,18422646,1155,3027,-1534,-6100,3990,1727,1076,3354,40,54,816
195660,16813920,18417264,16817145,18422777,961,3231,-1493,-5476,3702,1285,1382,4581,40,54,816
196661,16814056,18417452,16817276,18422908,1210,3157,-1440,-4632,3365,877,1047,5020,37,34,813
197662,16814204,18417664,16817407,18423039,1127,2973,-1387,-3737,2951,394,437,5227,37,34,813
198663,16814372,18417860,16817538,18423170,987,3045,-1361,-2771,2483,418,-1120,5550,38,47,814
199664,16814516,18418040,16817669,18423301,1132,3124,-1344,-1741,2010,471,-1936,5784,38,47,814
200665,16814668,18418224,16817800,18423432,1073,3077,-1285,-781,1565,266,-2302,5474,24,29,814
201666,16814820,18418432,16817931,18423563,1065,2894,-1175,1,1095,88,-2272,4895,24,29,814
202667,16814988,18418636,16818062,18423694,948,2888,-1032,539,570,81,-2091,4355,39,36,813
203668,16815128,18418844,16818193,18423825,1120,2830,-859,876,44,309,-2195,3631,39,36,813
204669,16815276,18419076,16818324,18423956,1063,2637,-624,841,-434,530,-2337,2571,26,36,816
205670,16815412,18419304,16818455,18424087,1137,2620,-323,573,-852,758,-2317,1908,26,36,816
206671,16815560,18419520,16818586,18424218,1055,2659,-5,198,-1167,1013,-2581,1799,19,36,815
207672,16815692,18419724,16818717,18424349,1155,2703,304,-227,-1372,1127,-2848,1636,19,36,815
208673,16815864,18419948,16818848,18424480,888,2537,589,-685,-1504,1108,-3095,1316,40,37,817
209674,16816000,18420184,16818979,18424611,1111,2417,839,-1303,-1606,1091,-3342,1001,40,37,817
210675,16816124,18420388,16819110,18424742,1190,2586,1041,-1951,-1694,1097,-3371,1028,38,54,816
211676,16816260,18420620,16819241,18424873,1113,2367,1193,-2566,-1734,989,-3519,1098,38,54,816
212677,16816336,18420880,16819372,18425004,1513,2137,1277,-3109,-1688,949,-3475,1316,17,61,817
213678,16816424,18421096,16819503,18425135,1458,2375,1311,-3515,-1562,904,-3084,1687,17,61,817
214679,16816516,18421352,16819634,18425266,1450,2071,1322,-3775,-1402,822,-2386,2085,26,45,818
215680,16816596,18421560,16819765,18425397,1548,2338,1320,-3892,-1245,688,-1761,2337,26,45,818
216681,16816648,18421772,16819896,18425528,1758,2278,1261,-3879,-1108,445,-1401,3014,17,49,817
217682,16816752,18421940,16820027,18425659,1446,2538,1156,-3676,-948,380,-1264,3399,17,49,817
218684,16816840,18422144,16820158,18425790,1566,2281,1024,-3365,-751,337,-1115,3731,24,42,816
219684,16816912,18422348,16820289,18425921,1692,2250,894,-3005,-534,118,-895,3897,24,42,816
220685,16817044,18422480,16820420,18426052,1317,2700,751,-2577,-329,-117,-502,4336,11,33,815
221686,16817152,18422628,16820551,18426183,1478,2593,593,-2090,-150,-155,52,4233,11,33,815
222687,16817248,18422764,16820682,18426314,1569,2667,402,-1596,4,-208,520,4398,16,42,815
223689,16817372,18422924,16820813,18426445,1398,2505,151,-1031,114,-328,1051,4803,16,42,815
224689,16817504,18423068,16820944,18426576,1348,2599,-148,-383,161,-437,1642,4972,32,34,814
225690,16817596,18423216,16821075,18426707,1615,2568,-451,189,175,-515,1937,4662,32,34,814
226691,16817704,18423352,16821206,18426838,1526,2641,-751,597,161,-634,2135,4292,31,35,815
227692,16817872,18423460,16821337,18426969,1136,2827,-1056,821,107,-829,2436,3678,31,35,815
228693,16817960,18423596,16821468,18427100,1655,2650,-1395,802,-54,-1255,2952,3005,27,31,814
229694,16818064,18423704,16821599,18427231,1568,2836,-1728,520,-347,-1506,3128,2397,27,31,814
230695,16818220,18423824,16821730,18427362,1233,2766,-2013,127,-650,-1480,2681,2179,15,34,815
231696,16818340,18423928,16821861,18427493,1463,2879,-2317,-196,-795,-1422,1697,2660,15,34,815
232697,16818436,18424068,16821992,18427624,1629,2651,-2704,-355,-776,-1376,1278,3276,36,33,813
233698,16818576,18424184,16822123,18427755,1351,2808,-3146,-424,-713,-1399,1453,3550,36,33,813
234699,16818704,18424320,16822254,18427886,1428,2682,-3571,-608,-692,-1533,1458,3074,26,24,813
235700,16818816,18424432,16822385,18428017,1537,2841,-3897,-1004,-688,-1766,1160,2610,26,24,813
236701,16818944,18424548,16822516,18428148,1439,2823,-4107,-1561,-651,-2026,703,2468,13,30,814
237702,16819064,18424656,16822647,18428279,1494,2884,-4215,-2159,-560,-2090,271,2592,13,30,814
238703,16819176,18424768,16822778,18428410,1553,2868,-4258,-2637,-415,-2159,123,3015,33,30,813
239704,16819316,18424876,16822909,18428541,1375,2903,-3699,-2287,-121,-1973,-662,10263,33,30,813
240705,16819452,18424976,16823040,18428672,1398,2968,-1031,2392,444,-1807,-1585,32767,31,14,813
241706,16819596,18425088,16823171,18428803,1344,2902,1518,5986,996,-1913,-826,19210,31,14,813
242707,16819724,18425184,16823302,18428934,1446,3018,2058,5598,1304,-1499,747,719,39,15,813
243708,16819848,18425300,16823433,18429065,1474,2900,1574,2987,1415,-1336,841,-1309,39,15,813
244709,16819992,18425380,16823564,18429196,1344,3148,1095,371,1474,-1063,530,-1256,36,16,812
245710,16820092,18425476,16823695,18429327,1634,3065,881,-1218,1662,-1151,184,-29,36,16,812
246711,16820264,18425544,16823826,18429458,1166,3268,695,-2353,1903,-874,-47,521,18,14,811
247712,16820384,18425628,16823957,18429589,1497,3189,428,-3090,2077,-749,55,1741,18,14,811
248713,16820500,18425720,16824088,18429720,1529,3157,141,-3792,2221,-1169,306,2025,17,7,811
249714,16820668,18425804,16824219,18429851,1188,3229,-87,-4411,2271,-1060,346,2410,17,7,811
250715,16820780,18425908,16824350,18429982,1547,3116,-271,-4873,2250,-1113,328,3195,29,10,811
251716,16820904,18426012,16824481,18430113,1476,3129,-431,-5007,2251,-1325,-103,4180,29,10,811
252717,16821052,18426108,16824612,18430244,1319,3195,-609,-4898,2246,-1229,-732,4856,35,16,811
253718,16821164,18426236,16824743,18430375,1553,2997,-801,-4597,2306,-1333,-994,5631,35,16,811
254719,16821288,18426344,16824874,18430506,1482,3134,-1030,-3915,2423,-1072,-756,6959,16,23,812
255720,16821428,18426432,16825005,18430637,1379,3277,-1272,-3123,2494,-802,-449,6827,16,23,812
256721,16821552,18426508,16825136,18430768,1483,3378,-1438,-2471,2535,-699,-124,6660,32,27,811
257722,16821692,18426588,16825267,18430899,1380,3376,-1502,-1835,2549,-488,179,6520,32,27,811
258723,16821804,18426644,16825398,18431030,1564,3560,-1481,-1498,2533,-294,280,5723,15,12,811
259731,16821964,18426744,16825538,18431170,1255,3304,-1382,-1238,2500,-235,387,5488,15,12,811
260725,16822084,18426836,16825669,18431301,1511,3372,-1200,-1198,2472,-155,320,4577,36,11,810
261726,16822200,18426928,16825800,18431432,1544,3389,-992,-1266,2481,156,-25,4435,36,11,810
262727,16822356,18426980,16825931,18431563,1283,3675,-805,-1238,2554,397,-60,4784,17,21,811
263728,16822488,18427032,16826062,18431694,1433,3710,-596,-1307,2627,573,24,4070,17,21,811
264729,16822632,18427076,16826193,18431825,1353,3799,-350,-1540,2629,745,-7,3709,39,19,809
265730,16822792,18427132,16826324,18431956,1241,3758,-64,-1861,2597,574,-179,3575,39,19,809
266731,16822920,18427212,16826455,18432087,1443,3632,215,-2117,2579,496,-773,3652,40,17,807
267733,16823052,18427280,16826586,18432218,1419,3736,478,-2343,2591,381,-1200,3716,40,17,807
268746,16823188,18427324,16826717,18432349,1391,3800,741,-2529,2621,104,-1184,3757,33,13,806
269747,16823324,18427372,16826848,18432480,1390,3800,994,-2703,2623,22,-1338,3715,33,13,806
270748,16823452,18427440,16826979,18432611,1442,3800,1220,-2882,2609,-132,-1310,3739,21,9,807
271736,16823576,18427520,16827110,18432742,1471,3789,1397,-2931,2592,-197,-1109,4227,21,9,807
272737,16823708,18427616,16827241,18432873,1421,3706,1498,-2820,2570,-109,-920,4339,39,21,807
273738,16823844,18427716,16827372,18433004,1395,3695,1541,-2682,2537,-172,-747,4426,39,21,807
274752,16823960,18427796,16827503,18433135,1526,3800,1534,-2478,2511,-214,-663,4572,35,14,805
275740,16824116,18427904,16827634,18433266,1266,3680,1516,-2336,2482,-258,-773,4378,35,14,805
276741,16824232,18428044,16827765,18433397,1524,3477,1486,-2219,2470,-340,-552,4432,17,18,808
277742,16824380,18428168,16827896,18433528,1317,3581,1450,-2082,2492,-173,-865,4333,17,18,808
278743,16824492,18428344,16828027,18433659,1551,3237,1407,-2024,2576,131,-1004,3878,20,34,808
279744,16824612,18428460,16828158,18433790,1507,3620,1364,-2086,2673,378,-300,3379,20,34,808
280745,16824716,18428588,16828289,18433921,1619,3547,1326,-2328,2756,661,-14,2850,27,22,809
281746,16824836,18428712,16828420,18434052,1525,3576,1305,-2683,2840,912,-61,2660,27,22,809
282747,16824952,18428848,16828551,18434183,1557,3500,1285,-2951,2925,1094,172,2908,33,20,809
283748,16825096,18429016,16828682,18434314,1376,3285,1253,-3108,2992,1260,383,3126,33,20,809
284749,16825200,18429152,16828813,18434445,1639,3484,1221,-3185,3024,1237,-24,3296,18,19,808
285750,16825300,18429300,16828944,18434576,1679,3402,1200,-3257,3027,1082,-282,3285,18,19,808
286751,16825400,18429484,16829075,18434707,1693,3155,1172,-3280,2997,922,-389,3357,33,36,811
287752,16825500,18429672,16829206,18434838,1707,3106,1108,-3256,2941,757,-677,3665,33,36,811
288753,16825624,18429896,16829337,18434969,1561,2841,1016,-3156,2878,769,-831,3799,32,29,809
289754,16825760,18430112,16829468,18435100,1485,2854,921,-3044,2804,1015,-691,3729,32,29,809
290755,16825856,18430292,16829599,18435231,1750,3059,843,-2942,2710,1191,-590,3679,24,41,810
291756,16825952,18430488,16829730,18435362,1767,2931,779,-2798,2592,1199,-480,3625,24,41,810
292757,16826080,18430696,16829861,18435493,1569,2824,720,-2702,2468,1228,-359,3632,26,47,813
293758,16826152,18430876,16829992,18435624,1945,2977,663,-2554,2365,1335,-305,3764,26,47,813
294759,16826260,18431120,16830123,18435755,1731,2528,628,-2408,2303,1503,-76,3603,13,45,812
295760,16826364,18431380,16830254,18435886,1769,2373,630,-2289,2235,1648,316,3456,13,45,812
296761,16826468,18431648,16830385,18436017,1782,2263,623,-2152,2142,1705,408,3625,30,44,811
297762,16826568,18431884,16830516,18436148,1820,2418,597,-1986,2050,1633,362,3592,30,44,811
298763,16826684,18432112,16830647,18436279,1728,2427,554,-1799,1956,1516,385,3553,17,50,815
299764,16826788,18432400,16830778,18436410,1816,1984,500,-1634,1853,1543,601,3388,17,50,815
300765,16826880,18432720,16830909,18436541,1909,1701,421,-1466,1765,1515,417,3548,33,52,813
301766,16826968,18432992,16831040,18436672,1953,1940,327,-1242,1711,1510,244,3640,33,52,813
302767,16827068,18433272,16831171,18436803,1893,1825,231,-980,1670,1469,-39,3747,32,54,816
303768,16827140,18433532,16831302,18436934,2095,1894,144,-678,1595,1325,-177,3699,32,54,816
304769,16827228,18433832,16831433,18437065,2014,1570,67,-392,1515,1229,-477,3602,12,52,816
305770,16827304,18434116,16831564,18437196,2115,1604,-5,-130,1477,1288,-567,3604,12,52,816
306771,16827384,18434400,16831695,18437327,2112,1537,-69,76,1473,1473,-308,3323,10,57,815
307772,16827456,18434660,16831826,18437458,2189,1631,-123,190,1478,1616,-105,2996,10,57,815
308773,16827556,18434876,16831957,18437589,2029,1869,-143,130,1438,1733,517,2348,30,46,816
309774,16827648,18435124,16832088,18437720,2097,1618,-137,-41,1357,1760,876,2070,30,46,816
310775,16827736,18435388,16832219,18437851,2142,1460,-147,-160,1288,1759,699,2245,19,58,816
311776,16827832,18435664,16832350,18437982,2108,1322,-177,-202,1253,1695,506,2507,19,58,816
312777,16827932,18435908,16832481,18438113,2097,1472,-204,-180,1255,1693,318,2555,11,40,816
313778,16828040,18436108,16832612,18438244,2058,1718,-209,-140,1275,1744,182,2656,11,40,816
314779,16828148,18436304,16832743,18438375,2069,1715,-232,17,1284,1726,98,3107,30,41,818
315780,16828236,18436552,16832874,18438506,2214,1338,-284,254,1270,1710,104,3358,30,41,818
316781,16828332,18436804,16833005,18438637,2180,1261,-318,480,1207,1676,277,3123,19,55,817
317782,16828424,18437012,16833136,18438768,2223,1502,-312,647,1113,1692,587,2977,19,55,817
318783,16828524,18437200,16833267,18438899,2188,1603,-294,786,1044,1746,691,2937,34,42,817
319784,16828632,18437396,16833398,18439030,2149,1525,-296,872,1018,1846,518,2999,34,42,817
320785,16828732,18437588,16833529,18439161,2214,1523,-310,995,1003,1882,460,3013,26,32,817
321786,16828848,18437820,16833660,18439292,2120,1228,-312,1110,949,1820,442,2929,26,32,817
322787,16828960,18438080,16833791,18439423,2154,998,-324,1240,849,1767,341,2977,32,48,815
323788,16829060,18438304,16833922,18439554,2244,1182,-357,1370,731,1656,152,3198,32,48,815
324789,16829188,18438528,16834053,18439685,2071,1141,-412,1575,635,1542,-241,3338,15,53,818
325790,16829316,18438740,16834184,18439816,2074,1180,-480,1851,563,1426,-504,3466,15,53,818
326791,16829452,18438936,16834315,18439947,2023,1253,-540,2030,495,1359,-498,3254,40,47,817
327792,16829612,18439200,16834446,18440078,1861,769,-586,2115,419,1292,-491,3020,40,47,817
328793,16829752,18439452,16834577,18440209,1983,791,-633,2132,354,1311,-523,2927,39,41,818
329794,16829876,18439696,16834708,18440340,2087,792,-672,2184,317,1252,-598,2889,39,41,818
330795,16830040,18439912,16834839,18440471,1823,929,-680,2163,297,1215,-488,2706,22,47,820
331796,16830148,18440120,16834970,18440602,2185,945,-654,2051,279,1207,-293,2607,22,47,820
332797,16830288,18440328,16835101,18440733,1982,911,-615,1939,261,1324,-9,2532,40,37,819
333799,16830436,18440520,16835232,18440864,1925,986,-584,1819,243,1391,242,2428,33,33,818
334799,16830588,18440728,16835363,18440995,1891,852,-572,1732,223,1308,482,2648,33,33,818
335800,16830736,18440948,16835494,18441126,1909,738,-581,1760,192,1148,671,2948,39,36,820
336801,16830900,18441156,16835625,18441257,1796,779,-616,1853,166,933,470,3236,39,36,820
337802,16831056,18441348,16835756,18441388,1836,852,-659,1973,157,815,151,3345,28,35,821
338803,16831176,18441572,16835887,18441519,2067,611,-713,2152,152,657,-186,3501,28,35,821
339804,16831316,18441740,16836018,18441650,1939,945,-792,2352,132,525,-447,3675,25,49,821
340805,16831468,18441896,16836149,18441781,1856,1009,-881,2569,96,367,-560,3687,25,49,821
341806,16831612,18442108,16836280,18441912,1901,623,-952,2751,58,375,-498,3494,35,32,820
342807,16831760,18442316,16836411,18442043,1869,615,-1009,2874,36,408,-480,3452,35,32,820
343808,16831920,18442520,16836542,18442174,1783,607,-1045,2871,27,368,-441,3204,33,46,820
344809,16832052,18442720,16836673,18442305,1957,601,-1060,2836,30,314,-502,3045,33,46,820
345810,16832200,18442888,16836804,18442436,1851,785,-1052,2733,26,183,-469,2836,25,45,822
346811,16832348,18443060,16836935,18442567,1844,742,-1030,2576,17,130,-667,2903,25,45,822
347812,16832492,18443216,16837066,18442698,1865,831,-1008,2491,15,138,-711,3048,27,44,821
348813,16832624,18443344,16837197,18442829,1940,1007,-1001,2480,33,39,-908,3253,27,44,821
349815,16832752,18443504,16837328,18442960,1967,794,-1027,2497,63,-4,-1129,3384,17,23,821
350815,16832900,18443676,16837459,18443091,1836,701,-1064,2440,88,48,-1050,3120,17,23,821
351817,16833020,18443828,16837590,18443222,2016,817,-1110,2344,94,106,-883,3145,19,33,820
352818,16833160,18443956,16837721,18443353,1888,969,-1162,2254,99,82,-804,3164,19,33,820
353818,16833316,18444064,16837852,18443484,1778,1104,-1204,2160,100,-40,-415,3147,18,15,819
354819,16833420,18444188,16837983,18443615,2116,1006,-1226,2032,82,-4,-89,3075,18,15,819
355820,16833552,18444280,16838114,18443746,1941,1223,-1234,1812,52,15,-28,2890,21,16,819
356821,16833676,18444376,16838245,18443877,1995,1213,-1230,1520,29,63,-120,2797,21,16,819
357822,16833776,18444456,16838376,18444008,2160,1336,-1214,1174,13,14,-424,2687,20,24,819
358823,16833900,18444528,16838507,18444139,2014,1412,-1187,829,-9,-111,-654,2695,20,24,819
359824,16834008,18444608,16838638,18444270,2124,1384,-1179,524,-44,-219,-844,3018,31,28,818
360825,16834104,18444740,16838769,18444401,2216,1059,-1225,339,-108,-257,-684,3359,31,28,818
361826,16834200,18444844,16838900,18444532,2232,1245,-1315,267,-169,-326,-751,3788,11,13,817
362827,16834324,18444960,16839031,18444663,2061,1177,-1416,327,-211,-342,-610,4212,11,13,817
363828,16834424,18445044,16839162,18444794,2226,1398,-1485,405,-220,-270,-598,4441,29,21,817
364829,16834512,18445120,16839293,18444925,2321,1472,-1521,509,-199,-189,-534,4599,29,21,817
365830,16834636,18445240,16839424,18445056,2100,1202,-1548,652,-150,-89,-494,4719,14,27,816
366831,16834736,18445352,16839555,18445187,2264,1260,-1593,734,-106,-66,-454,4628,14,27,816
367832,16834860,18445444,16839686,18445318,2118,1402,-1653,680,-98,-116,-389,4371,28,21,818
368833,16834964,18445540,16839817,18445449,2256,1393,-1709,518,-126,-149,-447,4131,28,21,818
369834,16835028,18445608,16839948,18445580,2537,1595,-1753,276,-165,-148,-644,4047,22,26,817
370835,16835104,18445672,16840079,18445711,2486,1650,-1792,-39,-181,-184,-807,4041,22,26,817
371836,16835184,18445804,16840210,18445842,2484,1224,-1831,-346,-170,-86,-769,4091,11,19,814
372837,16835264,18445864,16840341,18445973,2508,1705,-1873,-631,-132,94,-917,4191,11,19,814
373838,16835336,18445964,16840472,18446104,2585,1469,-1898,-922,-60,267,-1256,4299,4,11,815
374839,16835416,18446044,16840603,18446235,2558,1616,-1894,-1201,35,436,-1539,4430,4,11,815
375840,16835480,18446124,16840734,18446366,2688,1639,-1872,-1471,139,602,-1526,4497,22,19,813
376841,16835568,18446248,16840865,18446497,2558,1367,-1641,-1606,235,1105,-1379,6113,22,19,813
377842,16835656,18446376,16840996,18446628,2578,1343,-29,1119,88,4850,-523,32295,25,17,812
378843,16835744,18446480,16841127,18446759,2598,1505,1825,3711,-139,3133,-658,17556,25,17,812
379844,16835828,18446620,16841258,18446890,2645,1276,2270,3643,-191,928,-611,3029,16,23,814
380845,16835924,18446700,16841389,18447021,2586,1674,1970,2097,-128,1111,-462,2075,16,23,814
381846,16836032,18446784,16841520,18447152,2522,1669,1525,460,-39,1542,-748,2206,31,27,814
382847,16836144,18446892,16841651,18447283,2507,1529,1295,-478,69,1714,-563,2841,31,27,814
383848,16836268,18447012,16841782,18447414,2437,1459,1098,-1292,174,1947,-407,2695,13,16,814
384856,16836396,18447132,16841922,18447554,2418,1468,871,-1856,219,2100,-297,3360,13,16,814
385850,16836504,18447244,16842053,18447685,2554,1526,611,-2419,192,1953,248,3442,9,21,815
386851,16836596,18447316,16842184,18447816,2672,1802,332,-3029,83,2004,-50,3539,9,21,815
387852,16836712,18447448,16842315,18447947,2530,1427,79,-3504,-28,1858,-213,3943,20,30,813
388853,16836828,18447592,16842446,18448078,2537,1346,-165,-3779,-108,1803,-361,4607,20,30,813
389854,16836948,18447740,16842577,18448209,2518,1315,-429,-3851,-180,1862,-694,5085,35,25,815
390855,16837064,18447884,16842708,18448340,2551,1334,-665,-3842,-226,1523,-1045,5343,35,25,815
391856,16837200,18448032,16842839,18448471,2425,1301,-841,-3701,-272,1302,-1167,5553,37,33,815
392857,16837324,18448164,16842970,18448602,2504,1401,-938,-3629,-366,1338,-944,5405,37,33,815
393858,16837460,18448276,16843101,18448733,2427,1534,-967,-3525,-453,1360,-833,5779,20,15,816
394859,16837612,18448396,16843232,18448864,2319,1489,-987,-3296,-530,1513,-557,5955,20,15,816
395860,16837752,18448524,16843363,18448995,2391,1440,-975,-3101,-626,1626,-199,5814,36,29,815
396861,16837896,18448656,16843494,18449126,2362,1415,-927,-2836,-758,1625,242,6144,36,29,815
397862,16838040,18448768,16843625,18449257,2357,1548,-828,-2603,-918,1644,449,5814,32,31,814
398863,16838156,18448832,16843756,18449388,2540,1878,-690,-2403,-1095,1575,405,5623,32,31,814
399864,16838296,18448948,16843887,18449519,2387,1559,-533,-2232,-1256,1495,448,5549,17,20,814
400865,16838440,18449108,16844018,18449650,2358,1273,-344,-2174,-1407,1478,484,4988,17,20,814
401866,16838588,18449260,16844149,18449781,2326,1313,-136,-2129,-1524,1428,191,5037,36,31,815
402867,16838740,18449364,16844280,18449912,2293,1625,80,-2067,-1577,1209,-38,4944,36,31,815
403868,16838872,18449472,16844411,18450043,2419,1610,314,-2057,-1605,1093,-368,4775,30,30,817
404869,16839032,18449580,16844542,18450174,2232,1621,542,-1944,-1617,922,-793,4819,30,30,817
405870,16839192,18449684,16844673,18450305,2220,1657,776,-1884,-1612,790,-832,4596,22,13,815
406871,16839344,18449804,16844804,18450436,2262,1562,1013,-1841,-1616,878,-741,4641,22,13,815
407872,16839504,18449908,16844935,18450567,2200,1674,1235,-1783,-1616,779,-603,4761,40,19,816
408873,16839644,18450036,16845066,18450698,2322,1525,1405,-1518,-1580,757,-811,5230,40,19,816
409874,16839832,18450124,16845197,18450829,1998,1795,1509,-1129,-1537,797,-1030,5357,31,32,815
410875,16840064,18450196,16845328,18450960,1680,1921,1588,-765,-1507,787,-924,5113,31,32,815
411876,16840260,18450328,16845459,18451091,1877,1546,1667,-443,-1491,966,-820,4945,47,24,816
412877,16840512,18450476,16845590,18451222,1475,1438,1731,-234,-1481,1167,-553,4595,47,24,816
413878,16840696,18450612,16845721,18451353,1878,1511,1771,-53,-1433,1300,-318,4475,32,29,818
414879,16840912,18450796,16845852,18451484,1641,1188,1801,81,-1370,1329,-87,4150,32,29,818
415880,16841128,18450920,16845983,18451615,1605,1566,1838,101,-1345,1310,95,3700,34,32,818
416881,16841292,18451028,16846114,18451746,1917,1677,1797,213,-1369,1434,432,4258,34,32,818
417882,16841460,18451132,16846245,18451877,1876,1714,1700,443,-1380,1678,526,4112,37,30,819
418883,16841668,18451228,16846376,18452008,1593,1779,1614,472,-1346,1700,38,3239,37,30,819
419884,16841840,18451328,16846507,18452139,1801,1768,1604,222,-1325,1452,-321,2505,42,17,815
420885,16841996,18451436,16846638,18452270,1890,1728,1623,-152,-1333,1331,-584,2361,42,17,815
421886,16842160,18451516,16846769,18452401,1827,1925,1625,-434,-1350,1279,-615,2507,43,18,817
422887,16842312,18451608,16846900,18452532,1894,1868,1581,-573,-1360,1223,-473,2794,43,18,817
423888,16842460,18451712,16847031,18452663,1912,1805,1499,-565,-1368,1255,-518,3003,37,26,817
424889,16842604,18451812,16847162,18452794,1933,1844,1411,-581,-1388,1075,-519,2840,37,26,817
425890,16842744,18451952,16847293,18452925,1955,1590,1339,-680,-1440,917,-491,2626,24,15,816
426891,16842912,18452068,16847424,18453056,1764,1747,1268,-795,-1512,866,-445,2610,24,15,816
427892,16843048,18452160,16847555,18453187,1963,1914,1190,-878,-1565,897,-466,2693,40,17,817
428893,16843192,18452260,16847686,18453318,1907,1878,1094,-842,-1593,929,-506,2932,40,17,817
429894,16843324,18452368,16847817,18453449,1983,1839,1005,-774,-1625,832,-449,2716,23,27,816
430895,16843420,18452456,16847948,18453580,2224,1982,942,-770,-1663,815,-450,2523,23,27,816
431896,16843552,18452580,16848079,18453711,2000,1761,882,-791,-1682,844,-392,2600,24,28,815
432897,16843708,18452656,16848210,18453842,1840,2085,816,-819,-1681,860,-356,2469,24,28,815
433898,16843856,18452768,16848341,18453973,1883,1869,746,-853,-1677,813,-278,2365,40,27,816
434899,16843980,18452848,16848472,18454104,2038,2091,684,-935,-1692,733,-99,2159,40,27,816
435900,16844144,18452968,16848603,18454235,1773,1846,613,-988,-1721,719,-138,2262,18,32,816
436901,16844288,18453108,16848734,18454366,1893,1717,523,-967,-1747,648,-151,2361,18,32,816
437902,16844440,18453228,16848865,18454497,1835,1848,423,-951,-1773,615,-178,2337,41,20,816
438903,16844592,18453328,16848996,18454628,1827,1987,324,-945,-1804,616,-180,2279,41,20,816
439904,16844724,18453456,16849127,18454759,1952,1813,225,-962,-1841,577,-182,2253,37,32,817
440905,16844896,18453572,16849258,18454890,1685,1895,122,-958,-1879,521,-219,2300,37,32,817
441906,16845044,18453708,16849389,18455021,1828,1769,18,-983,-1910,514,-178,2170,40,33,815
442907,16845216,18453828,16849520,18455152,1661,1873,-84,-987,-1932,600,-205,2203,40,33,815
443908,16845352,18453944,16849651,18455283,1885,1905,-198,-969,-1940,653,-146,2261,40,27,816
444909,16845492,18454056,16849782,18455414,1857,1938,-321,-1009,-1945,717,-186,2166,40,27,816
445910,16845648,18454176,16849913,18455545,1747,1894,-476,-1057,-1944,810,-41,2298,24,32,816
446911,16845784,18454308,16850044,18455676,1871,1819,-669,-1078,-1938,935,276,2366,24,32,816
447912,16845932,18454440,16850175,18455807,1788,1818,-912,-1024,-1906,1145,288,2645,30,33,817
448913,16846092,18454584,16850306,18455938,1701,1738,-1242,-771,-1837,1288,451,3305,30,33,817
449914,16846272,18454712,16850437,18456069,1556,1840,-1516,-659,-1773,1211,723,2461,41,19,817
450915,16846412,18454824,16850568,18456200,1803,1948,-1707,-708,-1750,1271,1032,2361,41,19,817
451916,16846552,18454936,16850699,18456331,1800,1957,-1887,-802,-1726,1319,1204,2527,26,19,818
452917,16846740,18455048,16850830,18456462,1475,1965,-2073,-819,-1696,1274,1284,2703,26,19,818
453918,16846864,18455196,16850961,18456593,1879,1733,-2268,-781,-1671,1130,1368,2839,20,19,815
454919,16847032,18455328,16851092,18456724,1589,1833,-2515,-568,-1665,1051,1596,3586,20,19,815
455920,16847188,18455452,16851223,18456855,1654,1886,-2769,-258,-1719,965,1736,3610,20,22,817
456921,16847360,18455564,16851354,18456986,1536,1969,-2965,-89,-1786,879,1459,3247,20,22,817
457922,16847496,18455672,16851485,18457117,1759,2006,-3135,-14,-1790,768,847,3365,20,29,817
458923,16847636,18455836,16851616,18457248,1732,1641,-3300,87,-1749,519,359,3533,20,29,817
459924,16847788,18455984,16851747,18457379,1648,1734,-3424,197,-1708,295,-43,3519,29,27,816
460925,16847916,18456132,16851878,18457510,1801,1727,-3484,269,-1678,165,-223,3412,29,27,816
461926,16848088,18456272,16852009,18457641,1508,1773,-3497,307,-1653,62,-24,3377,33,37,818
462927,16848244,18456420,16852140,18457772,1598,1716,-3498,336,-1625,49,34,3490,33,37,818
463928,16848384,18456556,16852271,18457903,1695,1788,-3490,352,-1596,-113,-43,3557,39,34,817
464929,16848536,18456712,16852402,18458034,1610,1653,-3475,354,-1572,-347,-195,3655,39,34,817
465930,16848692,18456848,16852533,18458165,1575,1776,-3448,395,-1549,-460,-554,3737,18,26,816
466931,16848840,18456976,16852664,18458296,1619,1828,-3406,429,-1512,-599,-764,3817,18,26,816
467932,16848956,18457096,16852795,18458427,1827,1882,-3341,470,-1468,-810,-612,3921,37,39,818
468933,16849112,18457232,16852926,18458558,1566,1781,-3276,484,-1438,-981,-378,3975,37,39,818
469934,16849272,18457388,16853057,18458689,1529,1645,-3233,513,-1401,-1029,-290,4154,22,38,817
470935,16849396,18457592,16853188,18458820,1758,1313,-3208,499,-1347,-1006,-251,4095,22,38,817
471936,16849560,18457728,16853319,18458951,1494,1736,-3162,395,-1283,-1061,-159,3958,30,29,819
472937,16849684,18457892,16853450,18459082,1747,1547,-3092,266,-1220,-1141,-150,4050,30,29,819
473938,16849816,18458040,16853581,18459213,1698,1640,-3017,144,-1147,-1138,-211,4048,30,38,818
474939,16849968,18458172,16853712,18459344,1565,1740,-2941,28,-1064,-1028,-145,4128,30,38,818
475940,16850116,18458348,16853843,18459475,1582,1445,-2862,-80,-976,-944,-64,4317,20,40,817
476941,16850240,18458552,16853974,18459606,1736,1238,-2784,-183,-887,-853,-60,4462,20,40,817
477942,16850368,18458708,16854105,18459737,1714,1528,-2712,-214,-802,-830,7,4783,22,29,818
478943,16850512,18458880,16854236,18459868,1609,1410,-2638,-206,-717,-892,31,4963,22,29,818
479944,16850676,18459020,16854367,18459999,1470,1606,-2267,130,-601,-1007,-273,8112,13,36,818
480946,16850808,18459176,16854498,18460130,1670,1495,-884,2702,-329,-1508,-916,27373,13,36,818
481946,16850936,18459328,16854629,18460261,1697,1511,456,4394,-136,-1430,-490,10465,25,37,819
482947,16851068,18459464,16854760,18460392,1672,1609,812,4097,-69,-992,0,3301,25,37,819
483948,16851196,18459620,16854891,18460523,1699,1473,645,2905,-17,-532,300,2854,19,37,819
484949,16851348,18459736,16855022,18460654,1541,1730,436,1872,49,64,520,3064,19,37,819
485950,16851476,18459864,16855153,18460785,1693,1656,332,1188,101,131,831,2673,32,33,818
486951,16851612,18459984,16855284,18460916,1641,1711,249,311,100,260,563,1809,32,33,818
487952,16851764,18460088,16855415,18461047,1533,1823,134,-561,40,329,403,2146,26,15,817
488953,16851896,18460188,16855546,18461178,1659,1863,-26,-1380,-4,205,604,2493,26,15,817
489954,16852024,18460268,16855677,18461309,1685,2010,-216,-1963,-29,395,464,3176,16,25,817
490955,16852188,18460352,16855808,18461440,1446,2006,-440,-2319,-35,189,574,3666,16,25,817
491956,16852332,18460428,16855939,18461571,1567,2080,-642,-2511,-34,-191,714,4182,20,10,816
492957,16852452,18460520,16856070,18461702,1721,1997,-840,-2511,-83,-318,747,4561,20,10,816
493958,16852604,18460588,16856201,18461833,1513,2176,-953,-2504,-156,-578,818,4575,32,11,817
494959,16852728,18460648,16856332,18461964,1692,2257,-991,-2375,-202,-584,464,5067,32,11,817
495960,16852840,18460696,16856463,18462095,1776,2368,-974,-2190,-230,-509,-3,4993,36,13,816
496961,16853000,18460744,16856594,18462226,1464,2405,-923,-2039,-233,-506,-81,5057,36,13,816
497962,16853136,18460816,16856725,18462357,1613,2282,-860,-1792,-223,-389,-82,5126,16,8,813
498963,16853268,18460868,16856856,18462488,1637,2441,-777,-1623,-205,-343,168,4718,16,8,813
499964,16853408,18460960,16856987,18462619,1584,2209,-690,-1430,-170,-392,409,4899,17,11,814
500965,16853560,18461016,16857118,18462750,1501,2468,-609,-1281,-137,-584,668,4469,17,11,814
501966,16853708,18461096,16857249,18462881,1520,2340,-536,-1220,-89,-825,578,4247,29,18,815
502967,16853816,18461172,16857380,18463012,1780,2389,-473,-1141,-3,-1022,534,4244,29,18,815
503968,16853972,18461260,16857511,18463143,1470,2334,-451,-1111,89,-1163,726,3910,14,23,815
504969,16854092,18461332,16857642,18463274,1701,2460,-504,-1045,192,-1246,621,4117,14,23,815
505970,16854184,18461412,16857773,18463405,1893,2432,-614,-969,314,-1510,314,3908,35,20,815
506971,16854344,18461464,16857904,18463536,1456,2643,-743,-984,451,-1743,-279,3745,35,20,815
507972,16854472,18461564,16858035,18463667,1658,2357,-866,-974,605,-1933,-694,3690,34,11,813
508973,16854568,18461632,16858166,18463798,1874,2584,-1005,-1022,783,-2031,-1059,3483,34,11,813
509983,16854732,18461724,16858306,18463938,1439,2456,-1190,-1059,960,-2108,-1142,3492,14,21,813
510975,16854856,18461816,16858437,18464069,1693,2474,-1372,-1121,1120,-2359,-566,3352,14,21,813
511976,16854992,18461908,16858568,18464200,1616,2492,-1537,-1145,1218,-2388,-51,3417,21,24,814
512977,16855120,18461996,16858699,18464331,1668,2536,-1681,-1181,1271,-2226,299,3275,21,24,814
513978,16855280,18462104,16858830,18464462,1457,2422,-1823,-1288,1332,-2016,58,3067,19,24,813
514979,16855432,18462188,16858961,18464593,1497,2592,-1994,-1482,1448,-1672,-1090,2841,19,24,813
515980,16855588,18462288,16859092,18464724,1462,2507,-2154,-1800,1639,-1442,-1514,2342,34,16,815
516981,16855732,18462352,16859223,18464855,1533,2761,-2311,-2159,1855,-1234,-1025,2419,34,16,815
517982,16855908,18462448,16859354,18464986,1313,2577,-2457,-2486,2025,-1028,-264,2392,42,18,814
518983,16856056,18462536,16859485,18465117,1481,2647,-2583,-2782,2143,-704,-660,2675,42,18,814
519984,16856192,18462652,16859616,18465248,1555,2478,-2673,-2908,2250,-365,-1564,3232,18,26,813
520985,16856332,18462752,16859747,18465379,1526,2593,-2712,-2896,2353,-120,-2112,3624,18,26,813
521986,16856464,18462824,16859878,18465510,1577,2794,-2713,-2793,2451,251,-2544,4015,24,12,814
522987,16856580,18462936,16860009,18465641,1684,2553,-2705,-2636,2516,535,-2709,4293,24,12,814
523988,16856720,18463068,16860140,18465772,1530,2428,-2681,-2390,2540,859,-2661,4702,24,23,813
524989,16856824,18463180,16860271,18465903,1768,2562,-2667,-1995,2535,1179,-2589,5139,24,23,813
525990,16856936,18463296,16860402,18466034,1728,2544,-2358,-1202,2491,2177,-2716,8520,14,27,814
526991,16857068,18463404,16860533,18466165,1602,2605,-751,2420,2120,7113,-2417,32767,14,27,814
527992,16857196,18463504,16860664,18466296,1630,2669,835,5204,1731,4177,-2596,13872,31,18,813
528993,16857276,18463620,16860795,18466427,1953,2576,1058,5329,1557,2189,-2341,2925,31,18,813
529994,16857440,18463752,16860926,18466558,1413,2477,667,4079,1516,2411,-2372,1548,15,33,813
530995,16857576,18463868,16861057,18466689,1587,2583,284,2741,1525,2722,-2833,1304,15,33,813
531996,16857660,18463976,16861188,18466820,1934,2644,94,2014,1553,2551,-2781,1856,32,34,813
532997,16857784,18464096,16861319,18466951,1687,2574,-7,1371,1533,2421,-2178,1462,32,34,813
533998,16857900,18464220,16861450,18467082,1745,2553,-67,724,1405,2270,-1274,1547,27,19,813
534999,16858000,18464368,16861581,18467213,1859,2396,-75,113,1241,1686,-1419,1997,27,19,813
536000,16858096,18464548,16861712,18467344,1900,2175,-60,-384,1062,1451,-2780,2445,15,36,813
537001,16858212,18464708,16861843,18467475,1782,2287,-40,-732,869,1188,-2780,2739,15,36,813
538002,16858300,18464852,16861974,18467606,1977,2383,18,-925,649,451,-1752,3363,15,36,814
539003,16858408,18465008,16862105,18467737,1862,2297,54,-869,399,-2,-2148,4057,15,36,814
540004,16858512,18465176,16862236,18467868,1900,2207,78,-711,165,-472,-2300,4471,25,30,813
541005,16858624,18465368,16862367,18467999,1859,2030,131,-360,-29,-838,-1996,5081,25,30,813
542006,16858708,18465572,16862498,18468130,2055,1924,218,46,-207,-951,-1962,4967,31,46,813
543007,16858804,18465780,16862629,18468261,1996,1865,323,426,-341,-1274,-2019,5133,31,46,813
544008,16858936,18465988,16862760,18468392,1772,1832,446,890,-404,-1496,-1928,5299,19,34,815
545009,16859080,18466192,16862891,18468523,1692,1825,583,1201,-419,-1429,-1824,4800,19,34,815
546010,16859196,18466456,16863022,18468654,1874,1392,737,1436,-399,-1411,-1574,4591,37,33,816
547011,16859312,18466652,16863153,18468785,1881,1789,901,1555,-349,-1368,-1264,4185,37,33,816
548012,16859448,18466776,16863284,18468916,1755,2243,1051,1421,-289,-1191,-1063,3467,20,42,818
549013,16859548,18466872,16863415,18469047,1995,2433,1181,1160,-193,-1168,-915,3072,20,42,818
550014,16859652,18467004,16863546,18469178,1982,2208,1307,783,-59,-1113,-768,2531,31,29,815
551015,16859760,18467128,16863677,18469309,1968,2262,1426,274,86,-919,-652,2191,31,29,815
552016,16859860,18467316,16863808,18469440,2032,1837,1547,-304,267,-689,-350,2115,20,28,813
553017,16859944,18467504,16863939,18469571,2154,1813,1642,-773,498,-389,-258,2525,20,28,813
554018,16860040,18467712,16864070,18469702,2094,1654,1691,-1044,715,-168,33,2840,20,34,814
555019,16860120,18467920,16864201,18469833,2218,1620,1728,-1268,881,-245,311,2910,20,34,814
556020,16860208,18468184,16864332,18469964,2188,1213,1752,-1465,963,-136,548,3029,29,48,815
557021,16860316,18468336,16864463,18470095,2074,1903,1753,-1618,1014,7,319,3265,29,48,815
558022,16860388,18468604,16864594,18470226,2325,1118,1701,-1600,1095,162,211,3781,17,40,816
559023,16860472,18468864,16864725,18470357,2271,1113,1602,-1501,1171,319,423,3997,17,40,816
560024,16860560,18469088,16864856,18470488,2266,1297,1482,-1374,1216,511,423,4186,25,54,816
561025,16860636,18469280,16864987,18470619,2367,1470,1337,-1090,1218,886,437,4415,25,54,816
562026,16860700,18469460,16865118,18470750,2472,1524,1170,-795,1187,1139,390,4368,17,33,816
563027,16860780,18469676,16865249,18470881,2394,1262,969,-504,1123,1374,490,4454,17,33,816
564028,16860836,18469896,16865380,18471012,2578,1198,741,-283,1032,1688,718,4214,21,53,814
565029,16860900,18470136,16865511,18471143,2559,1025,512,-117,914,2079,1264,3996,21,53,814
566030,16860964,18470352,16865642,18471274,2589,1138,299,-28,775,2375,1512,3835,12,40,815
567031,16861040,18470560,16865773,18471405,2539,1155,109,2,608,2546,1857,3508,12,40,815
568032,16861104,18470752,16865904,18471536,2645,1228,-87,-16,426,2759,1985,3452,8,49,814
569033,16861200,18470996,16866035,18471667,2461,853,-301,-48,233,2964,2240,3423,8,49,814
570034,16861296,18471224,16866166,18471798,2478,911,-529,-35,29,3229,2658,3440,16,44,815
571035,16861380,18471464,16866297,18471929,2574,788,-772,32,-166,3388,2663,3554,16,44,815
572036,16861468,18471660,16866428,18472060,2569,1034,-993,61,-331,3405,2026,3353,32,39,817
573037,16861584,18471872,16866559,18472191,2402,899,-1145,-6,-499,3334,1597,2973,32,39,817
574038,16861664,18472084,16866690,18472322,2649,863,-1243,-137,-690,3011,1361,2975,33,47,815
575039,16861752,18472316,16866821,18472453,2619,694,-1322,-201,-847,2738,906,3157,33,47,815
576040,16861868,18472572,16866952,18472584,2452,489,-1373,-210,-937,2451,568,3232,32,42,815
577041,16861964,18472828,16867083,18472715,2593,434,-1367,-197,-980,2117,222,3174,32,42,815
578042,16862056,18473040,16867214,18472846,2636,673,-1313,-187,-1020,1709,-120,3215,35,46,817
579043,16862164,18473236,16867345,18472977,2547,745,-1252,-105,-1067,1270,-286,3443,35,46,817
580044,16862268,18473424,16867476,18473108,2585,770,-1211,98,-1072,964,-548,4010,15,36,817
581045,16862384,18473624,16867607,18473239,2518,664,-1208,483,-1035,782,-594,4434,15,36,817
582046,16862500,18473808,16867738,18473370,2525,741,-1226,989,-977,511,-523,4567,27,31,816
583047,16862608,18474000,16867869,18473501,2586,664,-1220,1511,-950,201,24,4560,27,31,816
584048,16862736,18474184,16868000,18473632,2464,691,-1211,1949,-988,-80,699,4488,21,44,816
585049,16862864,18474376,16868131,18473763,2466,614,-1212,2424,-1031,-330,696,4547,21,44,816
586050,16862972,18474532,16868262,18473894,2602,828,-1227,2925,-1011,-595,239,4529,36,43,815
587051,16863076,18474704,16868393,18474025,2640,710,-1251,3357,-950,-870,-251,4329,36,43,815
588052,16863188,18474824,16868524,18474156,2599,1040,-1267,3715,-859,-1063,-602,4142,22,35,816
589053,16863300,18474964,16868655,18474287,2609,910,-1293,3976,-751,-1088,-769,3967,22,35,816
590054,16863380,18475100,16868786,18474418,2832,933,-1352,4154,-673,-974,-657,3694,25,28,816
591055,16863488,18475256,16868917,18474549,2668,797,-1419,4234,-617,-835,-595,3404,25,28,816
592056,16863576,18475392,16869048,18474680,2813,920,-1461,4239,-555,-782,-959,3182,29,19,815
593057,16863680,18475524,16869179,18474811,2726,944,-1458,4188,-465,-692,-1567,3007,29,19,815
594058,16863780,18475648,16869310,18474942,2767,997,-1405,4080,-349,-792,-1875,2834,9,34,815
595059,16863880,18475772,16869441,18475073,2781,1000,-1338,3917,-218,-878,-2025,2787,9,34,815
596060,16863960,18475908,16869572,18475204,2930,922,-1287,3698,-114,-909,-1806,2682,16,19,814
597061,16864044,18476040,16869703,18475335,2926,947,-1279,3447,-84,-1093,-864,2651,16,19,814
598062,16864164,18476148,16869834,18475466,2707,1107,-1321,3164,-122,-1232,-520,2721,28,17,814
599063,16864264,18476256,16869965,18475597,2847,1117,-1392,2865,-199,-1203,-564,2785,28,17,814
600064,16864344,18476344,16870096,18475728,2995,1261,-1489,2598,-261,-1054,-708,2924,32,21,813
601065,16864436,18476440,16870227,18475859,2938,1226,-1602,2344,-292,-991,-1091,2898,32,21,813
602066,16864516,18476556,16870358,18475990,3037,1108,-1685,2004,-263,-935,-1989,2878,10,12,812
603067,16864568,18476640,16870489,18476121,3248,1328,-1732,1670,-178,-845,-2285,3117,10,12,812
604068,16864636,18476704,16870620,18476252,3176,1482,-1787,1350,-115,-691,-1544,3201,15,23,812
605069,16864716,18476780,16870751,18476383,3126,1431,-1877,1026,-152,-568,-131,3085,15,23,812
606070,16864784,18476860,16870882,18476514,3229,1428,-2006,589,-251,-549,596,3101,12,8,810
607071,16864868,18476952,16871013,18476645,3151,1371,-2045,219,-318,-294,303,4267,12,8,810
608072,16864964,18477044,16871144,18476776,3092,1388,-886,1842,-340,1590,-241,23429,22,23,810
609073,16865052,18477104,16871275,18476907,3162,1619,1139,4721,-391,2125,-546,26143,22,23,810
610074,16865152,18477152,16871406,18477038,3102,1730,2072,5140,-418,445,38,3475,30,22,810
611075,16865256,18477180,16871537,18477169,3091,1901,1900,3717,-406,486,274,1176,30,22,810
612076,16865348,18477296,16871668,18477300,3184,1357,1447,1859,-368,1002,257,733,20,23,810
613078,16865444,18477356,16871799,18477431,3175,1738,1113,653,-273,1181,282,1625,20,23,810
614078,16865548,18477416,16871930,18477562,3138,1770,866,-139,-141,1095,237,1986,19,18,808
615079,16865608,18477436,16872061,18477693,3445,2068,628,-835,-74,1101,83,1955,19,18,808
616080,16865680,18477476,16872192,18477824,3398,1983,393,-1587,-58,730,93,2120,22,18,808
617081,16865776,18477556,16872323,18477955,3265,1756,155,-2304,-80,487,165,2538,22,18,808
618082,16865832,18477656,16872454,18478086,3549,1644,-116,-2830,-140,454,140,3158,11,10,805
619083,16865900,18477732,16872585,18478217,3502,1819,-373,-3127,-182,172,144,3845,11,10,805
620085,16866008,18477788,16872716,18478348,3264,1977,-605,-3117,-238,176,58,4572,25,15,807
621085,16866136,18477820,16872847,18478479,3142,2171,-809,-2987,-318,153,-222,4877,25,15,807
622086,16866228,18477892,16872978,18478610,3385,1947,-958,-2858,-393,86,-178,5080,19,18,807
623087,16866360,18477984,16873109,18478741,3135,1839,-1038,-2757,-449,286,-21,4960,19,18,807
624088,16866496,18478080,16873240,18478872,3110,1830,-1068,-2846,-468,461,-106,4665,37,22,808
625090,16866616,18478144,16873371,18479003,3216,2059,-973,-2738,-431,350,-480,6293,37,22,808
626090,16866776,18478168,16873502,18479134,2954,2356,-439,-1806,-321,207,-1337,12853,19,22,809
627091,16866944,18478228,16873633,18479265,2890,2162,185,-908,-218,167,-954,9323,19,22,809
628092,16867076,18478292,16873764,18479396,3116,2168,426,-765,-170,179,-201,4476,36,10,808
629093,16867244,18478396,16873895,18479527,2875,1930,414,-1209,-145,309,-56,3604,36,10,808
630094,16867380,18478448,16874026,18479658,3074,2289,388,-1691,-119,276,-109,3355,26,23,808
631095,16867532,18478484,16874157,18479789,2967,2431,424,-2122,-69,0,-153,3313,26,23,808
632096,16867680,18478516,16874288,18479920,2985,2500,504,-2399,-25,31,-310,3465,21,5,810
633097,16867816,18478560,16874419,18480051,3059,2464,592,-2558,9,-77,-536,3678,21,5,810
634098,16867916,18478648,16874550,18480182,3299,2208,679,-2691,49,-395,-569,3746,15,12,807
635106,16867996,18478704,16874690,18480322,3452,2445,730,-2824,41,-522,-468,3858,15,12,807
636100,16868136,18478776,16874821,18480453,3074,2371,746,-2859,-20,-490,-320,4001,34,16,807
637101,16868256,18478804,16874952,18480584,3205,2692,747,-2867,-52,-320,-663,4043,34,16,807
638102,16868360,18478808,16875083,18480715,3319,2898,726,-2817,-45,-203,-918,4179,24,7,805
639103,16868500,18478904,16875214,18480846,3091,2339,672,-2701,-11,-199,-936,4483,24,7,805
640104,16868600,18478992,16875345,18480977,3356,2408,600,-2435,12,-143,-792,4734,34,30,803
641105,16868708,18479116,16875476,18481108,3317,2186,535,-2200,-3,-18,-664,4476,34,30,803
642106,16868828,18479176,16875607,18481239,3249,2618,497,-2013,-12,93,-416,4428,13,27,806
643107,16868936,18479200,16875738,18481370,3335,2890,474,-1864,7,343,-74,4327,13,27,806
644108,16869012,18479240,16875869,18481501,3560,2831,457,-1735,38,630,125,4129,31,21,806
645109,16869152,18479360,16876000,18481632,3158,2336,453,-1637,70,790,295,3865,31,21,806
646110,16869248,18479440,16876131,18481763,3449,2609,487,-1671,76,846,444,3411,28,13,803
647111,16869344,18479556,16876262,18481894,3466,2391,540,-1751,52,966,434,3321,28,13,803
648112,16869504,18479624,16876393,18482025,3055,2719,591,-1754,36,976,258,3530,37,15,807
649113,16869612,18479620,16876524,18482156,3391,3229,642,-1713,36,988,64,3547,37,15,807
650114,16869720,18479664,16876655,18482287,3402,2967,693,-1611,15,989,-70,3705,23,25,805
651115,16869844,18479796,16876786,18482418,3306,2418,732,-1376,-9,934,-259,4045,23,25,805
652116,16870000,18479880,16876917,18482549,3097,2738,732,-1063,-45,891,-271,4225,37,17,800
653117,16870100,18479976,16877048,18482680,3462,2680,694,-679,-106,803,-237,4312,37,17,800
654118,16870224,18480052,16877179,18482811,3316,2829,653,-285,-164,702,-319,4380,30,22,805
655119,16870376,18480064,16877310,18482942,3134,3282,629,67,-241,631,-202,4100,30,22,805
656120,16870520,18480124,16877441,18483073,3179,3013,607,361,-327,523,-42,3971,33,28,803
657121,16870624,18480240,16877572,18483204,3442,2671,570,595,-415,397,186,3746,33,28,803
658122,16870800,18480320,16877703,18483335,2974,2919,511,768,-498,385,170,3555,41,27,802
659123,16870928,18480408,16877834,18483466,3276,2888,448,960,-567,275,103,3420,41,27,802
660124,16871028,18480452,16877965,18483597,3466,3203,380,1036,-637,177,388,3098,42,14,803
661125,16871208,18480512,16878096,18483728,2946,3134,290,1019,-708,209,341,2848,42,14,803
662126,16871340,18480596,16878227,18483859,3247,3005,189,962,-747,90,318,2727,38,26,802
663127,16871456,18480684,16878358,18483990,3355,3000,82,868,-758,-23,179,2571,38,26,802
664128,16871612,18480796,16878489,18484121,3096,2859,-21,739,-754,-211,-49,2418,39,27,803
665129,16871752,18480848,16878620,18484252,3193,3269,-116,608,-719,-403,-379,2410,39,27,803
666130,16871860,18480908,16878751,18484383,3404,3251,-210,534,-672,-546,-635,2488,35,12,802
667131,16871972,18480924,16878882,18484514,3389,3577,-305,439,-625,-764,-756,2526,35,12,802
668132,16872152,18480988,16879013,18484645,2944,3308,-404,382,-592,-916,-826,2688,41,12,801
669133,16872256,18481076,16879144,18484776,3431,3177,-512,334,-569,-1004,-840,2668,41,12,801
670134,16872340,18481168,16879275,18484907,3578,3170,-625,291,-555,-1159,-693,2709,27,11,798
671135,16872516,18481260,16879406,18485038,2985,3188,-743,262,-549,-1282,-571,2744,27,11,798
672136,16872624,18481288,16879537,18485169,3421,3634,-859,192,-542,-1371,-428,2617,28,22,800
673150,16872704,18481284,16879668,18485300,3620,3800,-972,95,-539,-1358,-210,2737,28,22,800
674138,16872876,18481372,16879799,18485431,3029,3338,-1082,20,-534,-1338,-59,2685,36,17,801
675139,16872976,18481504,16879930,18485562,3493,3064,-1174,-139,-537,-1300,-35,2595,36,17,801
676140,16873080,18481616,16880061,18485693,3481,3198,-1258,-324,-533,-1226,-186,2599,39,15,792
677141,16873212,18481700,16880192,18485824,3308,3394,-1342,-531,-511,-1101,-415,2586,39,15,792
678142,16873384,18481760,16880323,18485955,3041,3576,-1419,-734,-481,-952,-549,2598,28,15,801
679143,16873520,18481820,16880454,18486086,3265,3608,-1476,-969,-446,-847,-686,2649,28,15,801
680144,16873656,18481928,16880585,18486217,3264,3319,-1522,-1168,-417,-740,-586,2846,27,18,800
681145,16873844,18482076,16880716,18486348,2915,3063,-1575,-1353,-398,-650,-347,2943,27,18,800
682146,16873972,18482232,16880847,18486479,3293,3003,-1637,-1507,-391,-497,-329,3110,29,35,799
683147,16874108,18482368,16880978,18486610,3243,3126,-1698,-1604,-384,-383,-407,3263,29,35,799
684148,16874288,18482468,16881109,18486741,2947,3365,-1745,-1677,-378,-225,-344,3376,24,23,805
685149,16874424,18482548,16881240,18486872,3221,3514,-1784,-1757,-392,14,-377,3482,24,23,805
686150,16874552,18482688,16881371,18487003,3274,3136,-1807,-1859,-412,267,-543,3608,31,31,801
687151,16874700,18482820,16881502,18487134,3143,3186,-1819,-1920,-430,510,-757,3790,31,31,801
688152,16874840,18482992,16881633,18487265,3190,2918,-1806,-2015,-454,706,-794,3757,29,38,800
689153,16874944,18483136,16881764,18487396,3428,3089,-1770,-2102,-487,921,-794,3923,29,38,800
690154,16875080,18483248,16881895,18487527,3227,3298,-1720,-2130,-527,1139,-745,4311,25,32,803
691155,16875244,18483332,16882026,18487658,3039,3495,-877,-750,-601,2744,-790,16785,25,32,803
692156,16875352,18483512,16882157,18487789,3400,2874,651,1773,-788,3308,105,22517,23,44,801
693157,16875452,18483660,16882288,18487920,3466,3067,1430,2360,-952,1453,820,3382,23,44,801
694158,16875604,18483836,16882419,18488051,3132,2873,1316,1418,-984,1425,703,2207,28,42,801
695159,16875700,18483976,16882550,18488182,3499,3095,994,134,-958,1518,390,1628,28,42,801
696160,16875788,18484100,16882681,18488313,3570,3199,752,-794,-966,1403,402,1947,36,43,798
697161,16875928,18484228,16882812,18488444,3242,3176,617,-1458,-1002,1051,105,1876,36,43,798
698162,16876056,18484412,16882943,18488575,3319,2804,457,-2048,-1074,990,-349,2220,39,44,800
699163,16876172,18484588,16883074,18488706,3402,2834,233,-2462,-1146,626,-402,2863,39,44,800
700164,16876280,18484748,16883205,18488837,3464,2922,-51,-2764,-1160,241,-462,3451,33,29,802
701165,16876428,18484932,16883336,18488968,3207,2750,-389,-2870,-1121,214,-593,3908,33,29,802
702166,16876540,18485068,16883467,18489099,3442,3049,-683,-2965,-1049,-30,-496,3872,33,43,802
703167,16876636,18485184,16883598,18489230,3559,3181,-914,-3045,-966,-129,-434,4104,33,43,802
704168,16876804,18485320,16883729,18489361,3094,3054,-1088,-3112,-883,-174,-377,4224,34,36,804
705169,16876920,18485468,16883860,18489492,3426,2973,-1143,-3061,-750,-308,-249,5350,34,36,804
706170,16877008,18485644,16883991,18489623,3622,2779,-740,-2204,-514,-551,-128,12467,17,41,800
707171,16877144,18485828,16884122,18489754,3321,2706,-164,-1422,-302,-453,635,9309,17,41,800
708172,16877312,18485984,16884253,18489885,3106,2871,24,-1427,-137,-54,1059,3752,26,31,801
709173,16877428,18486132,16884384,18490016,3439,2914,-86,-1984,31,79,1280,3122,26,31,801
710174,16877568,18486316,16884515,18490147,3286,2667,-220,-2612,193,230,1363,2958,22,47,804
711175,16877724,18486512,16884646,18490278,3176,2563,-282,-2984,345,107,1500,3231,22,47,804
712176,16877872,18486720,16884777,18490409,3221,2456,-282,-3283,460,-42,1460,3220,42,36,802
713177,16877996,18486936,16884908,18490540,3375,2369,-283,-3475,541,-100,1064,3783,42,36,802
714179,16878136,18487144,16885039,18490671,3272,2386,-312,-3476,618,-371,651,4370,19,34,805
715179,16878288,18487292,16885170,18490802,3190,2754,-382,-3351,654,-525,545,4587,19,34,805
716180,16878396,18487452,16885301,18490933,3476,2667,-480,-3154,656,-509,424,4638,20,48,806
717181,16878540,18487628,16885432,18491064,3246,2548,-563,-3023,660,-500,431,4621,20,48,806
718182,16878724,18487840,16885563,18491195,2975,2288,-632,-2824,656,-358,195,4750,23,52,803
719183,16878868,18488056,16885694,18491326,3220,2227,-679,-2691,633,-388,95,4509,23,52,803
720184,16879040,18488260,16885825,18491457,3028,2269,-692,-2645,607,-401,192,4321,47,40,804
721185,16879256,18488432,16885956,18491588,2717,2452,-667,-2689,578,-171,385,3985,47,40,804
722186,16879456,18488596,16886087,18491719,2789,2489,-617,-2758,557,-95,651,3847,30,32,807
723187,16879612,18488796,16886218,18491850,3054,2234,-558,-2846,537,-91,901,3907,30,32,807
724188,16879836,18489028,16886349,18491981,2589,1990,-497,-2995,510,-27,1106,3650,51,37,809
725189,16880060,18489200,16886480,18492112,2549,2347,-425,-3142,481,32,1353,3656,51,37,809
726190,16880236,18489380,16886611,18492243,2831,2277,-355,-3271,445,55,1417,3638,29,37,806
727191,16880440,18489536,16886742,18492374,2625,2416,-296,-3382,394,-40,1207,3798,29,37,806
728192,16880620,18489728,16886873,18492505,2754,2165,-254,-3401,344,-125,1042,4162,35,46,810
729193,16880792,18489892,16887004,18492636,2787,2326,-227,-3342,291,-99,926,4268,35,46,810
730194,16880972,18490116,16887135,18492767,2718,1910,-217,-3201,226,-222,643,4561,47,38,809
731195,16881176,18490280,16887266,18492898,2537,2272,-214,-2931,190,-361,373,4816,47,38,809
732196,16881356,18490440,16887397,18493029,2666,2284,-210,-2711,161,-450,488,4724,32,27,809
733197,16881528,18490580,16887528,18493160,2699,2406,-215,-2446,137,-373,392,4858,32,27,809
734198,16881724,18490752,16887659,18493291,2522,2188,-208,-2233,120,-404,627,4637,26,27,811
735199,16881864,18490932,16887790,18493422,2869,2118,-194,-2117,123,-358,622,4475,26,27,811
736200,16882004,18491096,16887921,18493553,2866,2203,-170,-2046,138,-395,864,4422,25,40,809
737201,16882176,18491260,16888052,18493684,2650,2189,-143,-1971,151,-414,1202,4243,25,40,809
738202,16882368,18491396,16888183,18493815,2499,2363,-131,-1933,154,-366,1355,4155,42,26,809
739203,16882516,18491516,16888314,18493946,2767,2467,-134,-1896,146,-360,1433,4089,42,26,809
740204,16882720,18491652,16888445,18494077,2386,2366,-138,-1878,131,-325,1271,4035,40,27,809
741205,16882916,18491820,16888576,18494208,2409,2150,-127,-1934,119,-150,800,3725,40,27,809
742206,16883100,18491960,16888707,18494339,2462,2322,-127,-1979,124,-25,262,3858,47,23,808
743207,16883268,18492080,16888838,18494470,2546,2452,-144,-1967,142,95,117,3914,47,23,808
744208,16883496,18492192,16888969,18494601,2130,2511,-143,-2046,133,234,229,3605,46,37,811
745209,16883668,18492292,16889100,18494732,2463,2600,-132,-2100,119,422,305,3773,46,37,811
746210,16883880,18492432,16889231,18494863,2178,2347,-130,-2064,106,483,646,4060,42,36,810
747211,16884096,18492564,16889362,18494994,2117,2396,-139,-1993,90,518,793,4107,42,36,810
748212,16884292,18492688,16889493,18495125,2214,2450,-142,-1925,65,506,1001,4120,47,28,809
749213,16884480,18492780,16889624,18495256,2240,2668,-139,-1849,65,639,868,4084,47,28,809
750214,16884712,18492876,16889755,18495387,1922,2658,-121,-1807,84,704,940,3944,41,14,812
751215,16884904,18492976,16889886,18495518,2146,2648,-83,-1806,95,631,959,3825,41,14,812
752216,16885084,18493084,16890017,18495649,2200,2608,-40,-1787,121,584,749,3872,39,16,809
753217,16885312,18493172,16890148,18495780,1859,2753,2,-1762,173,555,465,3929,39,16,809
754218,16885504,18493284,16890279,18495911,2058,2611,49,-1668,232,348,151,4038,51,15,810
755219,16885692,18493392,16890410,18496042,2059,2647,103,-1570,302,199,-161,3994,51,15,810
756220,16885932,18493508,16890541,18496173,1687,2604,173,-1498,379,241,-330,3857,33,30,811
757221,16886168,18493612,16890672,18496304,1667,2692,233,-1390,456,109,-559,4045,33,30,811
758222,16886360,18493748,16890803,18496435,1916,2489,266,-1222,520,-166,-873,4190,35,25,811
759223,16886544,18493880,16890934,18496566,1943,2515,287,-1019,562,-521,-1149,4256,35,25,811
760231,16886772,18494024,16891074,18496706,1630,2438,324,-809,623,-792,-1446,4357,50,38,812
761225,16886976,18494160,16891205,18496837,1749,2487,373,-602,715,-965,-1545,4331,50,38,812
762226,16887184,18494328,16891336,18496968,1691,2271,424,-437,827,-1050,-1466,4153,39,36,811
763227,16887404,18494452,16891467,18497099,1578,2550,478,-376,946,-1120,-1230,3812,39,36,811
764228,16887628,18494580,16891598,18497230,1512,2526,517,-369,1074,-1223,-1146,3639,51,21,812
765229,16887816,18494696,16891729,18497361,1713,2609,538,-439,1224,-1350,-1193,3404,51,21,812
766230,16888024,18494816,16891860,18497492,1555,2588,551,-573,1388,-1384,-971,3168,52,20,814
767231,16888240,18494972,16891991,18497623,1469,2353,556,-795,1554,-1334,-875,2977,52,20,814
768232,16888432,18495140,16892122,18497754,1592,2262,552,-1059,1726,-1253,-972,2836,40,26,813
769233,16888620,18495260,16892253,18497885,1593,2568,549,-1334,1891,-1157,-933,2815,40,26,813
770234,16888824,18495392,16892384,18498016,1462,2493,531,-1558,2045,-1158,-957,2931,34,34,815
771235,16889016,18495524,16892515,18498147,1510,2493,497,-1761,2185,-1141,-1065,3136,34,34,815
772236,16889180,18495660,16892646,18498278,1672,2466,442,-1932,2309,-1052,-1098,3219,27,35,813
773237,16889364,18495820,16892777,18498409,1524,2304,372,-2080,2406,-943,-1097,3244,27,35,813
774238,16889524,18495972,16892908,18498540,1662,2345,289,-2223,2490,-826,-1151,3378,23,31,813
775239,16889700,18496092,16893039,18498671,1543,2551,195,-2339,2579,-657,-1225,3537,23,31,813
776240,16889868,18496224,16893170,18498802,1578,2475,99,-2411,2650,-499,-1185,3693,21,38,815
777241,16890016,18496352,16893301,18498933,1695,2503,11,-2425,2703,-241,-1089,3827,21,38,815
778242,16890148,18496484,16893432,18499064,1796,2477,-84,-2447,2740,118,-1021,3949,28,40,814
779243,16890308,18496672,16893563,18499195,1609,2103,-186,-2488,2759,461,-865,3854,28,40,814
780244,16890456,18496852,16893694,18499326,1676,2132,-292,-2563,2766,746,-843,3842,41,41,813
781245,16890600,18497032,16893825,18499457,1697,2111,-383,-2683,2747,1013,-656,3705,41,41,813
782246,16890720,18497212,16893956,18499588,1852,2090,-469,-2835,2722,1324,-741,3793,32,34,815
783247,16890824,18497360,16894087,18499719,1964,2283,-549,-2932,2701,1674,-728,3813,32,34,815
784248,16890924,18497508,16894218,18499850,2004,2276,-624,-3085,2671,1882,-775,3748,29,27,814
785249,16891032,18497684,16894349,18499981,1964,2082,-704,-3228,2630,1966,-886,3852,29,27,814
786250,16891168,18497848,16894480,18500112,1788,2142,-799,-3336,2588,2047,-1076,4056,38,27,812
787251,16891292,18498044,16894611,18500243,1867,1915,-912,-3346,2555,2271,-1205,4377,38,27,812
788252,16891404,18498200,16894742,18500374,1950,2154,-1029,-3298,2531,2558,-989,4428,15,42,814
789253,16891480,18498380,16894873,18500505,2201,1982,-1114,-3308,2501,2840,-624,4196,15,42,814
790254,16891568,18498564,16895004,18500636,2144,1935,-1197,-3238,2487,2779,-1053,4703,16,29,815
791255,16891648,18498704,16895135,18500767,2218,2206,-1322,-3019,2548,2553,-1683,5288,16,29,815
792256,16891700,18498856,16895266,18500898,2429,2123,-1449,-2771,2683,2421,-1906,5120,28,27,813
793257,16891756,18499032,16895397,18501029,2437,1953,-1539,-2584,2859,2266,-1992,5012,28,27,813
794258,16891820,18499220,16895528,18501160,2417,1853,-1598,-2422,3030,2294,-1823,4972,6,30,812
795259,16891888,18499424,16895659,18501291,2421,1722,-1630,-2277,3175,2385,-1764,4925,6,30,812
796260,16891952,18499592,16895790,18501422,2476,1931,-1648,-2079,3307,2206,-2011,5058,24,41,811
797261,16891996,18499784,16895921,18501553,2639,1754,-1658,-1859,3428,2013,-2168,5215,24,41,811
798262,16892052,18499928,16896052,18501684,2598,2049,-1627,-1678,3509,1976,-2063,5052,8,40,813
799263,16892136,18500088,16896183,18501815,2445,1936,-1540,-1583,3564,2087,-1985,4732,8,40,813
800264,16892220,18500228,16896314,18501946,2467,2057,-1386,-1562,3592,2264,-1962,4483,15,36,812
801265,16892280,18500396,16896445,18502077,2648,1867,-1185,-1597,3579,2266,-1797,4391,15,36,812
802266,16892356,18500560,16896576,18502208,2573,1878,-978,-1579,3553,2067,-1958,4625,8,39,812
803267,16892428,18500756,16896707,18502339,2625,1649,-780,-1451,3535,1882,-2393,4930,8,39,812
804268,16892472,18500948,16896838,18502470,2839,1648,-578,-1285,3504,1737,-2428,4990,26,40,811
805269,16892564,18501144,16896969,18502601,2557,1595,-388,-1074,3406,1558,-2014,5096,26,40,811
806270,16892624,18501312,16897100,18502732,2788,1754,-209,-851,3215,1260,-1936,5187,22,25,811
807271,16892684,18501464,16897231,18502863,2821,1845,201,-223,2802,1382,-2005,5623,22,25,811
808272,16892756,18501608,16897362,18502994,2773,1890,419,198,2629,1654,-1936,5712,10,39,812
809273,16892824,18501768,16897493,18503125,2826,1777,631,620,2436,1838,-1504,5672,10,39,812
810274,16892892,18501940,16897624,18503256,2855,1684,839,994,2208,1858,-1160,5429,10,26,810
811275,16892936,18502144,16897755,18503387,3044,1453,1004,1304,1981,1804,-862,5303,10,26,810
812276,16893012,18502344,16897886,18503518,2869,1447,1105,1640,1770,1777,-424,5384,24,45,811
813277,16893100,18502516,16898017,18503649,2814,1604,1177,2019,1632,1691,-464,5334,24,45,811
814278,16893168,18502692,16898148,18503780,2968,1560,1230,2371,1524,1670,-297,5237,9,31,811
815279,16893272,18502872,16898279,18503911,2756,1513,1255,2678,1406,1581,-18,5121,9,31,811
816280,16893396,18503032,16898410,18504042,2634,1626,1270,2983,1288,1265,105,4865,23,44,811
817281,16893492,18503208,16898541,18504173,2825,1507,1319,3060,1161,1059,-23,4090,23,44,811
818282,16893612,18503404,16898672,18504304,2681,1353,1374,3105,1046,797,-560,4176,22,29,811
819283,16893736,18503600,16898803,18504435,2660,1324,1421,3108,975,439,-713,3781,22,29,811
820284,16893860,18503784,16898934,18504566,2664,1376,1465,2984,958,384,-949,3237,17,44,812
821285,16893988,18503972,16899065,18504697,2642,1326,1481,2871,972,250,-1054,3443,17,44,812
822286,16894152,18504132,16899196,18504828,2403,1489,1454,2900,1012,-17,-890,3598,37,26,813
823287,16894312,18504320,16899327,18504959,2416,1289,1429,2805,981,-2,-127,2806,37,26,813
824288,16894496,18504488,16899458,18505090,2244,1398,1463,2514,864,64,639,2187,40,43,814
825289,16894684,18504696,16899589,18505221,2195,1114,1545,2147,715,171,1111,2002,40,43,814
826290,16894872,18504944,16899720,18505352,2171,813,1638,1802,581,222,1163,1783,43,40,815
827291,16895072,18505156,16899851,18505483,2067,1002,1734,1534,528,-269,711,2245,43,40,815
828292,16895304,18505396,16899982,18505614,1823,779,1838,1376,522,-851,225,2391,51,48,816
829293,16895492,18505600,16900113,18505745,2074,972,1957,1308,518,-1128,-369,2400,51,48,816
830294,16895668,18505812,16900244,18505876,2130,887,2099,1183,512,-1097,-210,2285,34,46,817
831295,16895840,18506000,16900375,18506007,2138,1012,2229,1071,504,-814,-339,2340,34,46,817
832296,16896020,18506200,16900506,18506138,2067,906,2326,1063,506,-657,-557,2562,28,33,818
833297,16896212,18506432,16900637,18506269,1966,662,2410,1197,542,-749,-823,2856,28,33,818
834298,16896400,18506652,16900768,18506400,1967,698,2491,1415,613,-906,-1046,3032,51,47,818
835299,16896612,18506836,16900899,18506531,1782,899,2558,1738,710,-1161,-891,3302,51,47,818
836300,16896792,18507000,16901030,18506662,1962,1010,2605,2124,805,-1255,-543,3403,31,32,820
837301,16896960,18507164,16901161,18506793,2022,995,2634,2392,874,-1008,-369,2895,31,32,820
838302,16897164,18507308,16901292,18506924,1765,1115,2651,2533,907,-702,-166,2530,37,30,819
839303,16897320,18507500,16901423,18507055,2055,788,2649,2630,916,-565,-189,2426,37,30,819
840304,16897492,18507680,16901554,18507186,1938,841,2589,2720,890,-538,-12,2361,41,28,817
841305,16897676,18507880,16901685,18507317,1840,686,2470,2841,838,-677,405,2398,41,28,817
842306,16897824,18508040,16901816,18507448,2058,923,2311,3014,756,-810,696,2478,41,41,819
843307,16897964,18508216,16901947,18507579,2105,804,2120,3179,647,-780,886,2384,41,41,819
844308,16898136,18508380,16902078,18507710,1888,863,1884,3320,508,-679,1105,2269,44,26,820
845309,16898280,18508560,16902209,18507841,2058,742,1602,3424,334,-544,1083,1984,44,26,820
846310,16898432,18508704,16902340,18507972,1999,961,1282,3393,146,-466,917,1651,42,42,819
847311,16898608,18508856,16902471,18508103,1830,902,948,3233,-39,-391,888,1374,42,42,819
848312,16898780,18509028,16902602,18508234,1838,759,598,2980,-216,-346,436,987,35,37,819
849313,16898940,18509220,16902733,18508365,1901,607,250,2617,-360,-338,-102,720,35,37,819
850314,16899112,18509384,16902864,18508496,1808,767,-98,2225,-483,-343,-49,575,44,25,819
851315,16899264,18509536,16902995,18508627,1925,832,-455,1758,-605,-207,500,285,44,25,819
852316,16899424,18509656,16903126,18508758,1863,1037,-822,1222,-690,45,673,233,39,19,819
853317,16899552,18509788,16903257,18508889,2066,961,-1178,702,-740,151,686,220,39,19,819
854318,16899684,18509900,16903388,18509020,2040,1095,-1482,108,-751,171,195,-35,18,14,818
855319,16899832,18509988,16903519,18509151,1934,1264,-1747,-499,-721,83,-578,162,18,14,818
856320,16899964,18510076,16903650,18509282,2034,1282,-1978,-1059,-672,-27,-910,280,17,14,818
857321,16900120,18510176,16903781,18509413,1873,1220,-2192,-1572,-646,-258,-851,454,17,14,818
858322,16900272,18510284,16903912,18509544,1890,1180,-2392,-1915,-637,-592,-1121,1044,37,24,818
859323,16900416,18510392,16904043,18509675,1935,1190,-2583,-2114,-634,-784,-1455,1615,37,24,818
860324,16900576,18510492,16904174,18509806,1823,1254,-2749,-2188,-634,-883,-1467,1950,35,19,818
861325,16900692,18510604,16904305,18509937,2105,1187,-2890,-2214,-632,-977,-1307,2296,35,19,818
862326,16900780,18510704,16904436,18510068,2300,1276,-3007,-2202,-639,-1021,-1133,2474,23,12,817
863327,16900868,18510816,16904567,18510199,2319,1209,-3102,-2123,-636,-1023,-1054,2763,23,12,817
864328,16900964,18510928,16904698,18510330,2285,1217,-3185,-1967,-589,-1007,-1032,3030,7,29,817
865329,16901032,18511020,16904829,18510461,2489,1359,-3249,-1854,-518,-1026,-753,3034,7,29,817
866330,16901128,18511088,16904960,18510592,2330,1537,-3286,-1774,-460,-902,-235,2973,27,28,815
867331,16901208,18511216,16905091,18510723,2453,1163,-3308,-1794,-408,-752,73,2935,27,28,815
868332,16901276,18511304,16905222,18510854,2557,1432,-3331,-1901,-345,-588,-67,2884,20,11,814
869333,16901352,18511408,16905353,18510985,2532,1344,-3353,-2014,-256,-488,-455,3077,20,11,814
870334,16901460,18511472,16905484,18511116,2343,1623,-3373,-2098,-155,-505,-448,3162,25,27,815
871335,16901560,18511556,16905615,18511247,2406,1519,-3398,-2201,-48,-428,-589,3300,25,27,815
872336,16901692,18511684,16905746,18511378,2207,1245,-3423,-2300,70,-265,-604,3517,28,14,813
873337,16901832,18511800,16905877,18511509,2154,1327,-3433,-2458,190,45,-505,3549,28,14,813
874338,16901940,18511940,16906008,18511640,2365,1173,-3424,-2600,303,386,-552,3807,31,23,813
875339,16902048,18512040,16906139,18511771,2375,1436,-3416,-2698,409,691,-641,4143,31,23,813
876340,16902168,18512152,16906270,18511902,2306,1369,-3421,-2782,494,991,-702,4411,11,16,816
877341,16902268,18512276,16906401,18512033,2446,1297,-3449,-2773,559,1365,-724,4704,11,16,816
878342,16902380,18512392,16906532,18512164,2380,1353,-3484,-2784,595,1752,-457,4776,16,26,815
879343,16902528,18512496,16906663,18512295,2149,1440,-3507,-2884,605,2227,-336,4717,16,26,815
880344,16902640,18512612,16906794,18512426,2382,1372,-3525,-3016,595,2494,-342,4985,21,24,814
881345,16902756,18512728,16906925,18512557,2365,1378,-3492,-3145,560,3020,-41,6077,21,24,814
882346,16902916,18512796,16907056,18512688,2078,1706,-3145,-2770,457,4700,332,10410,35,30,816
883347,16903040,18512916,16907187,18512819,2307,1386,-614,2431,-27,11417,-564,32767,35,30,816
884348,16903212,18513052,16907318,18512950,1990,1284,2142,6968,-641,7015,-4,25165,32,27,814
885356,16903352,18513172,16907458,18513090,2190,1392,2931,7163,-957,3173,979,2787,32,27,814
886350,16903464,18513336,16907589,18513221,2374,1103,2575,4915,-1030,3604,-35,1365,35,19,815
887351,16903584,18513452,16907720,18513352,2330,1410,2047,2716,-1039,3580,-1481,1148,35,19,815
888352,16903684,18513576,16907851,18513483,2470,1363,1778,1558,-987,3332,-1827,2113,10,24,816
889353,16903808,18513692,16907982,18513614,2323,1419,1575,662,-918,3327,-1691,1670,10,24,816
890355,16903940,18513836,16908113,18513745,2273,1239,1323,-239,-913,3496,-1344,2093,21,30,814
891355,16904060,18513960,16908244,18513876,2354,1367,1095,-1168,-963,2947,-631,2235,21,30,814
892356,16904220,18514092,16908375,18514007,2092,1316,872,-2132,-1089,2601,-583,2268,39,32,815
893357,16904340,18514192,16908506,18514138,2348,1530,689,-2912,-1287,2003,-689,2813,39,32,815
894358,16904492,18514256,16908637,18514269,2139,1784,452,-3318,-1434,1341,-826,4166,24,31,814
895359,16904652,18514364,16908768,18514400,2077,1519,170,-3272,-1546,1550,-884,5219,24,31,814
896360,16904772,18514496,16908899,18514531,2333,1369,-155,-2941,-1622,1638,-896,5916,28,18,814
897361,16904916,18514644,16909030,18514662,2178,1261,-446,-2372,-1669,1275,-600,6526,28,18,814
898362,16905044,18514784,16909161,18514793,2281,1307,-673,-1897,-1763,965,-490,6285,35,30,815
899363,16905164,18514916,16909292,18514924,2336,1357,-801,-1539,-1885,739,-248,6178,35,30,815
900364,16905312,18515036,16909423,18515055,2154,1437,-853,-1114,-1940,723,34,6182,27,30,816
901365,16905440,18515156,16909554,18515186,2281,1442,-853,-881,-1936,793,13,5551,27,30,816
902366,16905584,18515292,16909685,18515317,2177,1339,-794,-717,-1900,592,273,5470,19,18,815
903367,16905712,18515408,16909816,18515448,2279,1471,-690,-548,-1845,501,430,5387,19,18,815
904368,16905852,18515528,16909947,18515579,2200,1451,-547,-503,-1811,594,477,4717,21,19,815
905369,16906012,18515608,16910078,18515710,2063,1723,-374,-564,-1777,525,512,4727,21,19,815
906370,16906100,18515676,16910209,18515841,2533,1826,-192,-633,-1739,478,586,4487,26,23,814
907371,16906216,18515776,16910340,18515972,2366,1640,-24,-746,-1710,584,480,4332,26,23,814
908372,16906364,18515888,16910471,18516103,2158,1573,131,-776,-1624,501,157,4568,23,14,815
909373,16906476,18516008,16910602,18516234,2393,1528,298,-834,-1506,460,166,4295,23,14,815
910374,16906592,18516124,16910733,18516365,2375,1559,484,-1004,-1403,665,313,4069,27,30,814
911375,16906736,18516212,16910864,18516496,2196,1753,673,-1198,-1295,818,328,4200,27,30,814
912376,16906840,18516316,16910995,18516627,2458,1665,859,-1334,-1183,969,217,4036,16,12,814
913377,16906988,18516424,16911126,18516758,2176,1650,1027,-1454,-1087,1055,118,4155,16,12,814
914378,16907132,18516540,16911257,18516889,2196,1607,1158,-1449,-1000,994,-117,4518,17,13,814
915379,16907284,18516644,16911388,18517020,2138,1694,1247,-1385,-949,1121,-302,4510,17,13,814
916380,16907416,18516728,16911519,18517151,2264,1840,1300,-1293,-954,1289,-353,4488,25,17,814
917381,16907520,18516828,16911650,18517282,2450,1754,1345,-1236,-982,1405,-366,4445,25,17,814
918382,16907664,18516928,16911781,18517413,2196,1768,1385,-1236,-1026,1630,-462,4248,36,16,813
919383,16907780,18517048,16911912,18517544,2378,1647,1418,-1200,-1075,1807,-524,4218,36,16,813
920384,16907880,18517128,16912043,18517675,2493,1920,1441,-1204,-1136,1849,-394,3941,36,14,813
921385,16908040,18517216,16912174,18517806,2106,1889,1454,-1316,-1207,1902,-581,3644,36,14,813
922386,16908168,18517332,16912305,18517937,2308,1720,1462,-1475,-1316,1925,-375,3510,16,17,814
923387,16908312,18517448,16912436,18518068,2203,1727,1460,-1572,-1442,1988,-309,3602,16,17,814
924388,16908464,18517588,16912567,18518199,2145,1573,1421,-1605,-1554,2023,-424,3762,39,33,814
925389,16908580,18517708,16912698,18518330,2377,1703,1356,-1599,-1641,1913,-424,3826,39,33,814
926390,16908704,18517832,16912829,18518461,2331,1682,1283,-1539,-1701,1968,-579,3794,27,28,814
927391,16908848,18517964,16912960,18518592,2201,1631,1182,-1475,-1753,2106,-307,3632,27,28,814
928392,16908992,18518036,16913091,18518723,2196,2032,1008,-1391,-1781,2161,-342,3890,21,28,812
929393,16909172,18518128,16913222,18518854,1950,1925,826,-1357,-1784,2051,-247,3483,21,28,812
930394,16909380,18518212,16913353,18518985,1742,1995,658,-1453,-1779,1983,-104,3218,24,29,814
931395,16909544,18518328,16913484,18519116,2003,1802,535,-1608,-1755,2022,327,2804,24,29,814
932396,16909772,18518420,16913615,18519247,1561,1969,447,-1805,-1722,2159,842,2671,29,15,815
933397,16909980,18518544,16913746,18519378,1653,1773,332,-1935,-1702,2150,1163,3009,29,15,815
934398,16910176,18518652,16913877,18519509,1701,1883,206,-1979,-1712,1851,1398,3057,35,17,815
935399,16910356,18518764,16914008,18519640,1779,1866,94,-1962,-1732,1575,1444,3191,35,17,815
936400,16910524,18518884,16914139,18519771,1839,1821,-1,-1925,-1743,1244,1296,3319,42,25,817
937401,16910716,18519004,16914270,18519902,1663,1826,-83,-1819,-1750,885,1120,3452,42,25,817
938402,16910880,18519116,16914401,18520033,1824,1884,-161,-1655,-1772,650,1137,3501,42,32,815
939403,16911060,18519232,16914532,18520164,1703,1867,-278,-1382,-1794,486,1010,3817,42,32,815
940404,16911240,18519348,16914663,18520295,1683,1874,-420,-1016,-1795,119,807,3885,32,26,816
941405,16911448,18519464,16914794,18520426,1474,1880,-511,-715,-1772,-174,769,3514,32,26,816
942406,16911620,18519584,16914925,18520557,1682,1860,-535,-561,-1737,-263,832,3195,42,19,816
943407,16911808,18519716,16915056,18520688,1558,1785,-533,-455,-1674,-252,629,3154,42,19,816
944408,16911992,18519844,16915187,18520819,1560,1811,-546,-292,-1557,-230,-255,3203,27,32,816
945409,16912172,18519920,16915318,18520950,1564,2161,-608,-67,-1390,-364,-1002,3316,27,32,816
946410,16912364,18520072,16915449,18521081,1462,1677,-711,205,-1218,-578,-1141,3328,34,19,817
947411,16912660,18520192,16915580,18521212,741,1882,-785,398,-1067,-623,-903,3021,34,19,817
948412,16912872,18520324,16915711,18521343,1231,1806,-842,558,-916,-604,-497,3107,39,25,816
949413,16913064,18520456,16915842,18521474,1329,1806,-915,674,-750,-584,-20,3097,39,25,816
950414,16913308,18520584,16915973,18521605,956,1833,-987,774,-588,-349,430,2848,34,29,817
951415,16913564,18520736,16916104,18521736,826,1674,-1044,793,-458,-46,800,2488,34,29,817
952416,16913812,18520848,16916235,18521867,825,1932,-1106,758,-357,103,735,2387,54,26,818
953417,16914008,18520976,16916366,18521998,1122,1834,-1152,645,-272,-9,321,2075,54,26,818
954418,16914228,18521144,16916497,18522129,934,1567,-1202,511,-196,-154,-260,2271,45,23,819
955419,16914408,18521280,16916628,18522260,1162,1766,-1302,525,-116,-243,-283,2806,45,23,819
956420,16914584,18521428,16916759,18522391,1167,1684,-1463,662,-35,-215,-131,3069,26,40,819
957421,16914792,18521568,16916890,18522522,934,1730,-1636,918,12,-375,-135,3297,26,40,819
958422,16914956,18521720,16917021,18522653,1195,1646,-1786,1136,6,-695,-23,3171,34,38,819
959423,16915112,18521852,16917152,18522784,1235,1770,-1916,1319,-45,-920,68,3182,34,38,819
960424,16915304,18522024,16917283,18522915,983,1502,-2049,1529,-93,-1018,4,3271,22,33,818
961425,16915468,18522160,16917414,18523046,1144,1726,-2181,1663,-119,-1069,90,3113,22,33,818
962426,16915620,18522296,16917545,18523177,1210,1724,-2292,1670,-159,-953,294,2743,39,33,817
963427,16915828,18522412,16917676,18523308,827,1855,-2359,1502,-214,-819,444,2204,39,33,817
964428,16915968,18522536,16917807,18523439,1248,1808,-2425,1317,-219,-764,252,2376,24,32,819
965429,16916120,18522648,16917938,18523570,1164,1892,-2519,1209,-126,-940,97,2612,24,32,819
966430,16916288,18522752,16918069,18523701,1048,1954,-2614,1135,20,-1222,243,2727,39,35,819
967431,16916456,18522920,16918200,18523832,1033,1538,-2684,1082,153,-1418,505,2773,39,35,819
968432,16916628,18523076,16918331,18523963,990,1602,-2736,921,243,-1565,785,2548,39,26,818
969433,16916772,18523220,16918462,18524094,1159,1672,-2789,718,292,-1768,782,2588,39,26,818
970434,16916896,18523388,16918593,18524225,1287,1505,-2863,576,324,-1996,548,2654,24,34,820
971435,16917028,18523552,16918724,18524356,1238,1516,-2967,397,370,-1909,119,2559,24,34,820
972436,16917152,18523700,16918855,18524487,1291,1608,-3108,233,434,-1723,-178,2784,30,39,818
973437,16917280,18523860,16918986,18524618,1267,1522,-3265,114,506,-1803,-133,2873,30,39,818
974438,16917352,18524000,16919117,18524749,1644,1643,-3422,-25,566,-1771,31,2997,16,33,819
975439,16917428,18524140,16919248,18524880,1643,1639,-3555,-195,615,-1628,274,2891,16,33,819
976440,16917528,18524312,16919379,18525011,1507,1421,-3661,-424,648,-1427,577,2704,27,29,819
977441,16917564,18524464,16919510,18525142,1950,1536,-3738,-680,666,-1261,471,2641,27,29,819
978442,16917632,18524600,16919641,18525273,1777,1634,-3786,-1008,685,-1182,26,2536,27,37,817
979443,16917724,18524736,16919772,18525404,1646,1632,-3788,-1342,713,-739,-737,2494,27,37,817
980444,16917832,18524896,16919903,18525535,1556,1470,-3756,-1727,751,-277,-1244,2471,27,22,816
981445,16917964,18525012,16920034,18525666,1405,1752,-3728,-2039,786,55,-1420,2950,27,22,816
982446,16918108,18525168,16920165,18525797,1325,1491,-3701,-2183,804,117,-1468,3423,14,33,816
983447,16918252,18525268,16920296,18525928,1320,1855,-3664,-2154,842,27,-1707,3907,14,33,816
984448,16918404,18525388,16920427,18526059,1262,1734,-3607,-1936,916,-89,-1831,4422,16,18,817
985449,16918564,18525492,16920558,18526190,1199,1846,-3517,-1721,984,-193,-1625,4552,16,18,817
986450,16918712,18525584,16920689,18526321,1266,1938,-3385,-1493,1007,-306,-1388,4630,29,20,818
987451,16918856,18525672,16920820,18526452,1287,1982,-3246,-1338,1017,-438,-1409,4603,29,20,818
988452,16918976,18525796,16920951,18526583,1441,1761,-3147,-1216,1048,-424,-1640,4625,28,19,818
989453,16919140,18525900,16921082,18526714,1152,1898,-3078,-1059,1114,-349,-1881,4812,28,19,818
990454,16919244,18525988,16921213,18526845,1540,2017,-3021,-931,1205,-258,-2014,4767,34,27,817
991455,16919360,18526076,16921344,18526976,1471,2036,-2965,-807,1280,-66,-2049,4928,34,27,817
992456,16919480,18526132,16921475,18527107,1452,2269,-2859,-662,1348,129,-2194,5449,33,6,817
993457,16919612,18526184,16921606,18527238,1377,2329,-1218,2271,1434,2430,-3864,30633,33,6,817
994458,16919704,18526248,16921737,18527369,1644,2284,1262,6634,1482,2614,-3648,32161,13,8,815
995459,16919872,18526320,16921868,18527500,1154,2260,2373,7694,1441,1011,-850,3019,13,8,815
996460,16920012,18526400,16921999,18527631,1325,2232,2200,6204,1366,1190,-618,1275,26,7,814
997461,16920128,18526484,16922130,18527762,1481,2228,1888,4153,1290,1544,-1257,172,26,7,814
998462,16920288,18526528,16922261,18527893,1195,2516,1706,2806,1271,1562,-1243,1178,21,7,815
999463,16920408,18526592,16922392,18528024,1449,2422,1647,1876,1280,1408,-973,905,21,7,815
1000464,16920540,18526672,16922523,18528155,1375,2344,1435,1082,1204,1585,-892,1557,18,18,815
1001465,16920680,18526724,16922654,18528286,1321,2554,1111,481,1058,897,-466,2106,18,18,815
1002466,16920828,18526776,16922785,18528417,1264,2590,841,-279,808,103,-212,1659,22,21,814
1003467,16920936,18526844,16922916,18528548,1525,2517,586,-1018,446,-328,-398,1991,22,21,814
1004468,16921068,18526888,16923047,18528679,1374,2706,325,-1742,129,-990,-835,2162,39,14,813
1005469,16921208,18526924,16923178,18528810,1320,2798,9,-2112,-108,-1256,-1614,3143,39,14,813
1006470,16921348,18526976,16923309,18528941,1317,2733,-312,-2331,-278,-1748,-2206,3386,18,17,812
1007471,16921488,18527044,16923440,18529072,1313,2661,-587,-2352,-375,-2214,-2432,4440,18,17,812
1008472,16921620,18527096,16923571,18529203,1364,2796,-810,-2161,-444,-2265,-2079,4833,34,8,813
1009473,16921748,18527156,16923702,18529334,1390,2778,-974,-1998,-483,-2450,-1819,4727,34,8,813
1010483,16921864,18527192,16923842,18529474,1476,2973,-1070,-1685,-492,-2589,-1699,5339,26,18,813
1011475,16921988,18527264,16923973,18529605,1430,2775,-821,-1165,-448,-2711,-1894,8170,26,18,813
1012476,16922108,18527348,16924104,18529736,1460,2721,220,759,-204,-3275,-2550,20737,18,5,811
1013477,16922188,18527416,16924235,18529867,1732,2850,1075,2020,31,-2246,-1497,8441,18,5,811
1014478,16922304,18527524,16924366,18529998,1515,2610,1210,1685,201,-1466,-1288,2702,13,8,812
1015479,16922416,18527604,16924497,18530129,1548,2808,1050,584,413,-927,-1305,1895,13,8,812
1016480,16922496,18527684,16924628,18530260,1771,2831,964,-558,684,-375,-829,1385,13,8,810
1017481,16922600,18527768,16924759,18530391,1633,2827,967,-1483,970,50,-293,1429,13,8,810
1018482,16922700,18527868,16924890,18530522,1672,2741,984,-2392,1249,442,-1,1247,12,18,811
1019483,16922756,18527944,16925021,18530653,1981,2916,983,-3258,1488,747,254,1491,12,18,811
1020484,16922852,18528028,16925152,18530784,1746,2887,932,-3944,1676,944,505,2147,7,12,811
1021485,16922976,18528124,16925283,18530915,1575,2828,874,-4452,1794,1075,500,2605,7,12,811
1022486,16923056,18528204,16925414,18531046,1873,2950,838,-4759,1856,1125,292,3248,11,17,809
1023487,16923112,18528268,16925545,18531177,2057,3081,813,-4832,1871,1215,12,4091,11,17,809
1024488,16923200,18528360,16925676,18531308,1876,2923,753,-4619,1841,1392,-300,5048,23,6,810
1025489,16923260,18528452,16925807,18531439,2083,2941,734,-4056,1780,1708,-156,6671,23,6,810
1026490,16923332,18528528,16925938,18531570,2034,3066,940,-2798,1611,2694,668,11715,24,26,807
1027491,16923408,18528612,16926069,18531701,2034,3037,1090,-1687,1417,2275,785,7832,24,26,807
1028492,16923484,18528684,16926200,18531832,2058,3139,993,-1095,1277,2149,939,5751,27,18,807
1029493,16923540,18528796,16926331,18531963,2217,2897,801,-846,1164,2401,1239,5310,27,18,807
1030494,16923612,18528880,16926462,18532094,2143,3094,647,-698,1047,2651,1495,4930,6,26,808
1031495,16923712,18528984,16926593,18532225,1983,2982,570,-607,927,2739,1762,4526,6,26,808
1032496,16923752,18529052,16926724,18532356,2398,3234,536,-561,806,2919,1778,4208,22,9,808
1033497,16923828,18529152,16926855,18532487,2198,3049,540,-588,721,3034,1331,3955,22,9,808
1034498,16923920,18529252,16926986,18532618,2115,3063,578,-676,662,2909,1022,3661,18,31,808
1035499,16923968,18529360,16927117,18532749,2427,3024,621,-814,603,2753,789,3406,18,31,808
1036500,16924072,18529472,16927248,18532880,2089,3008,647,-983,527,2603,604,3222,11,31,807
1037501,16924156,18529584,16927379,18533011,2236,3017,650,-1170,446,2420,344,3305,11,31,807
1038502,16924224,18529688,16927510,18533142,2365,3079,636,-1310,375,2151,46,3304,33,18,806
1039503,16924292,18529808,16927641,18533273,2392,2985,622,-1399,313,1738,-37,3333,33,18,806
1040504,16924400,18529948,16927772,18533404,2153,2856,606,-1421,261,1340,-108,3456,33,33,807
1041505,16924504,18530084,16927903,18533535,2191,2880,580,-1382,228,1064,-115,3554,33,33,807
1042506,16924644,18530252,16928034,18533666,1962,2665,538,-1236,224,721,-20,3835,22,36,807
1043507,16924736,18530388,16928165,18533797,2280,2863,490,-990,244,397,117,4052,22,36,807
1044508,16924860,18530520,16928296,18533928,2084,2888,460,-767,281,184,76,4052,29,21,808
1045509,16924960,18530680,16928427,18534059,2248,2701,447,-458,331,-24,140,4105,29,21,808
1046510,16925064,18530828,16928558,18534190,2236,2769,444,-138,388,-204,108,4023,19,40,808
1047511,16925176,18531004,16928689,18534321,2195,2575,459,119,443,-365,73,3825,19,40,808
1048512,16925264,18531192,16928820,18534452,2364,2475,497,342,502,-513,-60,3748,25,37,808
1049513,16925352,18531380,16928951,18534583,2384,2451,554,585,568,-662,-295,3664,25,37,808
1050514,16925440,18531540,16929082,18534714,2404,2614,625,805,636,-737,-407,3583,13,44,810
1051515,16925528,18531716,16929213,18534845,2423,2495,699,993,703,-831,-41,3397,13,44,810
1052516,16925608,18531916,16929344,18534976,2496,2315,741,1131,756,-860,95,3152,11,29,810
1053517,16925688,18532124,16929475,18535107,2520,2231,730,1247,809,-828,-108,2937,11,29,810
1054518,16925756,18532216,16929606,18535238,2622,2975,683,1266,878,-808,-468,2762,17,24,809
1055519,16925832,18532272,16929737,18535369,2598,3233,613,1282,961,-665,-887,2675,17,24,809
1056520,16925912,18532360,16929868,18535500,2596,3052,541,1264,1049,-493,-1131,2614,15,30,810
1057521,16925992,18532432,16929999,18535631,2619,3179,465,1321,1128,-355,-1085,2772,15,30,810
1058522,16926028,18532536,16930130,18535762,2936,2991,392,1405,1179,-160,-783,2751,11,19,804
1059523,16926112,18532704,16930261,18535893,2658,2576,305,1475,1187,-31,-91,2698,11,19,804
1060524,16926188,18532876,16930392,18536024,2733,2534,174,1539,1171,125,204,2836,14,27,802
1061525,16926204,18533060,16930523,18536155,3159,2436,23,1594,1125,222,278,2722,14,27,802
1062526,16926260,18533236,16930654,18536286,2943,2467,-125,1643,1047,347,220,2709,19,29,807
1063527,16926304,18533456,16930785,18536417,3057,2153,-256,1680,954,463,-33,2695,19,29,807
1064528,16926348,18533740,16930916,18536548,3096,1686,-381,1695,838,668,-379,2811,24,52,805
1065529,16926408,18533952,16931047,18536679,3028,2102,-507,1755,677,826,-8,2864,24,52,805
1066530,16926468,18534240,16931178,18536810,3060,1558,-632,1794,460,1008,909,2687,6,61,808
1067531,16926540,18534520,16931309,18536941,3012,1543,-780,1717,195,1164,1357,2557,6,61,808
1068532,16926604,18534784,16931440,18537072,3093,1585,-978,1638,-71,1268,917,2635,26,49,807
1069533,16926680,18534996,16931571,18537203,3043,1874,-1188,1484,-291,1377,559,2474,26,49,807
1070534,16926784,18535248,16931702,18537334,2881,1572,-1369,1289,-476,1399,394,2320,20,45,810
1071535,16926908,18535500,16931833,18537465,2760,1519,-1535,1039,-646,1326,213,2322,20,45,810
1072536,16927004,18535752,16931964,18537596,2951,1467,-1712,869,-810,1330,10,2535,21,44,808
1073537,16927124,18536020,16932095,18537727,2806,1307,-1911,811,-943,1396,-169,2940,21,44,808
1074538,16927244,18536252,16932226,18537858,2812,1487,-2104,808,-1033,1404,-42,3159,17,56,812
1075539,16927340,18536556,16932357,18537989,2978,962,-2281,813,-1102,1401,151,3247,17,56,812
1076540,16927480,18536844,16932488,18538120,2700,993,-2448,826,-1165,1435,425,3237,31,56,813
1077541,16927592,18537124,16932619,18538251,2885,978,-2594,798,-1210,1415,694,3315,31,56,813
1078542,16927708,18537384,16932750,18538382,2867,1046,-2726,746,-1252,1373,972,3377,28,51,813
1079543,16927836,18537612,16932881,18538513,2795,1203,-2845,723,-1308,1268,1237,3455,28,51,813
1080544,16927968,18537884,16933012,18538644,2770,867,-2953,697,-1369,1146,1032,3535,39,58,813
1081545,16928076,18538204,16933143,18538775,2931,484,-3039,703,-1445,1052,919,3774,39,58,813
1082546,16928200,18538508,16933274,18538906,2835,508,-3107,766,-1513,920,832,4096,31,47,812
1083547,16928344,18538748,16933405,18539037,2706,861,-3171,918,-1537,816,142,4407,31,47,812
1084548,16928464,18538928,16933536,18539168,2861,1214,-3231,1154,-1509,696,-636,4678,23,56,815
1085549,16928588,18539168,16933667,18539299,2840,791,-3251,1364,-1441,485,-743,4740,23,56,815
1086550,16928732,18539448,16933798,18539430,2711,476,-2361,3035,-1228,-283,-1269,18313,36,40,815
1087551,16928844,18539668,16933929,18539561,2920,811,-539,6640,-868,-1088,-1110,29392,36,40,815
1088552,16928972,18539900,16934060,18539692,2822,692,441,7916,-777,102,536,4531,37,55,814
1089553,16929084,18540116,16934191,18539823,2932,755,392,7119,-851,173,663,2132,37,55,814
1090554,16929192,18540328,16934322,18539954,2968,744,60,5603,-960,298,660,1226,34,53,814
1091555,16929292,18540524,16934453,18540085,3033,816,-188,4556,-1064,269,830,1737,34,53,814
1092556,16929392,18540728,16934584,18540216,3047,734,-324,3825,-1102,95,525,1604,19,36,813
1093557,16929472,18540956,16934715,18540347,3196,541,-469,3128,-1122,271,-276,1657,19,36,813
1094558,16929568,18541124,16934846,18540478,3112,900,-669,2557,-1166,-48,-290,2333,12,47,812
1095559,16929672,18541312,16934977,18540609,3075,749,-881,1926,-1276,-600,587,2093,12,47,812
1096560,16929792,18541484,16935108,18540740,2981,831,-1135,1300,-1486,-685,660,2228,12,44,812
1097561,16929896,18541636,16935239,18540871,3093,946,-1348,777,-1666,-1084,344,2556,12,44,812
1098562,16930012,18541784,16935370,18541002,3026,964,-1517,427,-1748,-1267,-483,3203,16,32,813
1099563,16930108,18541932,16935501,18541133,3167,956,-1625,194,-1739,-1316,-1856,3330,16,32,813
1100564,16930204,18542056,16935632,18541264,3184,1109,-1656,42,-1681,-1743,-2167,3881,25,23,812
1101565,16930284,18542168,16935763,18541395,3307,1193,-1639,70,-1678,-1916,-1677,4325,25,23,812
1102566,16930396,18542284,16935894,18541526,3117,1173,-1591,4,-1734,-2166,-684,4158,30,32,811
1103567,16930544,18542400,16936025,18541657,2885,1180,-1560,87,-1774,-2342,35,5089,30,32,811
1104568,16930668,18542508,16936156,18541788,3039,1240,-1394,496,-1746,-2434,-66,7588,30,14,809
1105569,16930812,18542588,16936287,18541919,2910,1438,-793,1531,-1616,-2994,-628,13707,30,14,809
1106570,16930956,18542672,16936418,18542050,2905,1433,-242,2165,-1533,-2631,-409,7390,39,26,812
1107571,16931064,18542736,16936549,18542181,3141,1588,-132,1795,-1485,-2045,-751,3494,39,26,812
1108572,16931204,18542860,16936680,18542312,2938,1216,-233,1123,-1378,-1505,-803,3420,33,15,812
1109573,16931324,18542916,16936811,18542443,3069,1674,-316,561,-1194,-1139,-307,3314,33,15,812
1110574,16931416,18542976,16936942,18542574,3262,1679,-313,49,-990,-768,121,2985,14,24,809
1111575,16931536,18543008,16937073,18542705,3093,1897,-280,-542,-813,-496,283,2735,14,24,809
1112576,16931644,18543064,16937204,18542836,3179,1780,-263,-1165,-688,-494,1073,2496,16,20,809
1113577,16931716,18543148,16937335,18542967,3431,1626,-276,-1840,-599,-494,1295,2573,16,20,809
1114578,16931792,18543252,16937466,18543098,3432,1513,-299,-2435,-502,-365,916,3069,21,10,807
1115579,16931888,18543328,16937597,18543229,3323,1712,-286,-2824,-350,-57,271,4071,21,10,807
1116580,16931972,18543368,16937728,18543360,3420,1977,-119,-2739,-171,526,-327,6711,11,27,806
1117581,16932040,18543424,16937859,18543491,3549,1910,209,-2212,-31,872,-377,8782,11,27,806
1118582,16932124,18543488,16937990,18543622,3470,1889,392,-1882,84,465,-384,5625,5,19,807
1119582,16932196,18543608,16938121,18543753,3572,1544,339,-1846,188,477,-288,4932,5,19,807
1120584,16932288,18543676,16938252,18543884,3465,1897,209,-1881,255,532,320,4795,15,19,805
1121585,16932384,18543736,16938383,18544015,3457,1978,97,-1770,263,448,935,4905,15,19,805
1122586,16932468,18543772,16938514,18544146,3553,2170,-9,-1641,242,417,1070,4829,27,8,806
1123587,16932572,18543840,16938645,18544277,3442,1998,-105,-1534,239,607,701,4802,27,8,806
1124588,16932688,18543904,16938776,18544408,3375,2053,-169,-1394,258,822,174,4688,13,25,806
1125589,16932792,18544024,16938907,18544539,3463,1708,-188,-1364,266,839,-72,4263,13,25,806
1126590,16932892,18544076,16939038,18544670,3502,2168,-178,-1429,261,917,-234,4113,18,7,804
1127590,16933016,18544100,16939169,18544801,3356,2390,-159,-1500,263,1000,-398,4031,18,7,804
1128592,16933140,18544136,16939300,18544932,3361,2356,-129,-1583,258,983,-163,3867,34,15,807
1129593,16933232,18544188,16939431,18545063,3580,2291,-93,-1707,180,668,702,3723,34,15,807
1130594,16933324,18544284,16939562,18545194,3598,2031,-80,-1832,37,438,1082,3743,33,17,804
1131595,16933420,18544340,16939693,18545325,3589,2314,-93,-1884,-61,538,151,3944,33,17,804
1132609,16933468,18544392,16939824,18545456,3800,2375,-81,-1903,-98,543,-412,3951,28,17,803
1133597,16933588,18544376,16939955,18545587,3482,2865,-24,-1961,-141,289,-440,3509,28,17,803
1134598,16933676,18544440,16940086,18545718,3703,2394,66,-2126,-217,89,-648,3354,28,22,802
1135618,16933740,18544492,16940226,18545858,3800,2508,153,-2247,-285,13,-891,3656,28,22,802
1136601,16933844,18544624,16940357,18545989,3651,2008,217,-2240,-312,-82,-1016,3867,34,14,800
1137602,16933964,18544684,16940488,18546120,3556,2490,278,-2160,-325,-190,-742,3819,34,14,800
1138602,16934060,18544724,16940619,18546251,3724,2655,329,-2109,-345,-342,220,3810,13,8,799
1139603,16934160,18544728,16940750,18546382,3713,2935,329,-2055,-368,-388,930,3743,13,8,799
1140604,16934272,18544832,16940881,18546513,3648,2323,297,-2011,-345,-304,423,3655,33,10,802
1141605,16934368,18544924,16941012,18546644,3764,2415,289,-1981,-236,-321,-570,3622,33,10,802
1142619,16934424,18545036,16941143,18546775,3800,2299,320,-1943,-85,-333,-895,3601,11,28,799
1143607,16934552,18545100,16941274,18546906,3602,2629,365,-1857,45,-257,-815,3614,11,28,799
1144608,16934652,18545148,16941405,18547037,3791,2766,399,-1741,145,-211,-628,3778,19,11,801
1145622,16934724,18545156,16941536,18547168,3800,3070,419,-1580,209,-99,-218,3860,19,11,801
1146610,16934868,18545228,16941667,18547299,3539,2697,434,-1359,246,5,157,3986,31,25,801
1147624,16934968,18545356,16941798,18547430,3800,2348,434,-1136,259,124,301,3904,31,25,801
1148625,16935060,18545460,16941929,18547561,3800,2511,415,-954,257,280,36,3739,20,25,796
1149613,16935212,18545552,16942060,18547692,3515,2603,393,-826,257,419,-478,3577,20,25,796
1150614,16935332,18545584,16942191,18547823,3721,3021,371,-746,251,521,-574,3361,15,19,801
1151615,16935456,18545604,16942322,18547954,3700,3146,333,-703,226,660,-579,3300,15,19,801
1152616,16935604,18545696,16942453,18548085,3544,2713,276,-643,180,832,-525,3341,17,28,802
1153618,16935840,18545776,16942584,18548216,2949,2812,212,-623,134,1064,-372,3185,17,28,802
1154618,16936036,18545892,16942715,18548347,3172,2593,141,-675,95,1344,-402,2928,29,16,799
1155619,16936228,18545968,16942846,18548478,3171,2869,82,-765,34,1578,-614,2926,29,16,799
1156620,16936488,18546000,16942977,18548609,2691,3187,25,-799,-29,1499,-1097,3126,37,14,805
1157621,16936716,18546076,16943108,18548740,2849,2937,-55,-747,-88,1422,-1616,3304,37,14,805
1158622,16936904,18546172,16943239,18548871,3075,2828,-162,-640,-138,1424,-1871,3460,41,29,803
1159623,16937140,18546272,16943370,18549002,2730,2817,-268,-518,-177,1464,-1836,3522,41,29,803
1160624,16937352,18546384,16943501,18549133,2846,2751,-379,-367,-229,1439,-1693,3550,42,22,804
1161625,16937536,18546424,16943632,18549264,2999,3242,-474,-261,-293,1346,-1468,3527,42,22,804
1162626,16937780,18546476,16943763,18549395,2576,3201,-556,-210,-360,1319,-963,3412,40,21,806
1163627,16937960,18546520,16943894,18549526,2955,3290,-615,-196,-435,1390,-782,3227,40,21,806
1164628,16938124,18546616,16944025,18549657,3042,2981,-633,-299,-525,1359,-848,2960,51,18,802
1165629,16938356,18546708,16944156,18549788,2573,3024,-628,-476,-623,1339,-1007,2947,51,18,802
1166630,16938544,18546796,16944287,18549919,2824,3068,-617,-638,-714,1346,-1051,2898,31,21,802
1167631,16938704,18546848,16944418,18550050,2988,3329,-630,-765,-788,1329,-806,2993,31,21,802
1168632,16938888,18546868,16944549,18550181,2815,3578,-673,-844,-864,1208,-486,3136,48,26,804
1169633,16939108,18546944,16944680,18550312,2553,3253,-726,-918,-927,1054,-354,3112,48,26,804
1170634,16939288,18547040,16944811,18550443,2783,3144,-801,-942,-990,879,-75,3462,54,29,801
1171635,16939452,18547152,16944942,18550574,2869,3053,-914,-831,-1058,694,-16,3822,54,29,801
1172636,16939688,18547252,16945073,18550705,2374,3142,-1046,-693,-1107,602,-164,3908,50,13,803
1173637,16939872,18547316,16945204,18550836,2677,3397,-1165,-578,-1151,484,86,4029,50,13,803
1174638,16940040,18547368,16945335,18550967,2761,3508,-1258,-465,-1174,387,84,4139,41,24,804
1175639,16940236,18547440,16945466,18551098,2559,3409,-1340,-308,-1178,368,75,4131,41,24,804
1176640,16940404,18547544,16945597,18551229,2719,3222,-1390,-227,-1163,222,79,3914,48,25,803
1177641,16940548,18547672,16945728,18551360,2864,3074,-1399,-260,-1140,28,47,3711,48,25,803
1178642,16940724,18547796,16945859,18551491,2645,3102,-1378,-313,-1123,-89,-220,3672,34,23,803
1179643,16940896,18547908,16945990,18551622,2653,3187,-1338,-401,-1087,-260,-636,3643,34,23,803
1180644,16941036,18547940,16946121,18551753,2850,3731,-1299,-509,-1035,-460,-919,3790,30,18,803
1181645,16941180,18548060,16946252,18551884,2820,3186,-1125,-388,-971,-737,-1007,5488,30,18,803
1182646,16941352,18548176,16946383,18552015,2628,3219,-306,1118,-739,-1691,-1827,17853,27,23,803
1183647,16941480,18548308,16946514,18552146,2906,3119,593,2338,-572,-1095,-741,9312,27,23,803
1184648,16941600,18548456,16946645,18552277,2962,3013,852,2162,-571,-451,-127,2626,32,38,803
1185649,16941788,18548552,16946776,18552408,2512,3353,711,1276,-619,-305,-221,2298,32,38,803
1186650,16941920,18548640,16946907,18552539,2862,3423,512,411,-658,-196,-404,2323,39,34,803
1187651,16942028,18548788,16947038,18552670,3023,3041,392,-136,-688,-425,-317,2513,39,34,803
1188652,16942184,18548912,16947169,18552801,2713,3196,311,-630,-759,-476,-173,2368,20,38,802
1189653,16942324,18549080,16947300,18552932,2810,2904,197,-1120,-884,-397,-89,2631,20,38,802
1190654,16942416,18549244,16947431,18553063,3128,2916,41,-1569,-991,-471,45,2924,37,23,803
1191655,16942560,18549372,16947562,18553194,2799,3143,-161,-1892,-1064,-357,-155,3279,37,23,803
1192656,16942700,18549476,16947693,18553325,2821,3306,-370,-2177,-1108,-353,-291,3331,37,29,803
1193657,16942828,18549616,16947824,18553456,2898,3077,-546,-2440,-1138,-448,-217,3562,37,29,803
1194658,16942960,18549804,16947955,18553587,2874,2753,-690,-2635,-1163,-484,-354,3755,40,28,804
1195659,16943124,18550004,16948086,18553718,2660,2649,-720,-2769,-1141,-513,-548,4859,40,28,804
1196660,16943268,18550172,16948217,18553849,2780,2832,-331,-2070,-1001,-725,-796,12015,30,46,804
1197661,16943420,18550352,16948348,18553980,2722,2737,157,-1410,-854,-645,-460,8552,30,46,804
1198662,16943608,18550500,16948479,18554111,2473,2930,260,-1515,-761,-378,-40,3642,25,40,807
1199663,16943760,18550640,16948610,18554242,2690,2977,73,-2001,-669,-183,160,3442,25,40,807
1200664,16943908,18550820,16948741,18554373,2708,2706,-142,-2539,-547,31,230,3168,30,43,806
1201666,16944068,18550976,16948872,18554504,2622,2846,-286,-2907,-418,32,497,3303,30,43,806
1202666,16944256,18551152,16949003,18554635,2423,2702,-350,-3252,-327,-7,912,3004,40,40,804
1203668,16944432,18551332,16949134,18554766,2478,2656,-400,-3610,-274,43,867,3265,40,40,804
1204668,16944612,18551504,16949265,18554897,2432,2689,-448,-3911,-205,-50,653,3487,48,49,806
1205669,16944820,18551704,16949396,18555028,2224,2484,-498,-4118,-126,-59,253,3758,48,49,806
1206670,16945020,18551884,16949527,18555159,2245,2588,-559,-4177,-52,-77,-172,4145,30,48,808
1207671,16945200,18552060,16949658,18555290,2350,2594,-603,-4181,10,-249,-37,4343,30,48,808
1208672,16945416,18552316,16949789,18555421,2088,2039,-648,-4085,38,-220,224,4591,39,46,811
1209673,16945624,18552520,16949920,18555552,2105,2333,-705,-3967,52,-240,616,4644,39,46,811
1210674,16945820,18552720,16950051,18555683,2152,2329,-773,-3808,75,-336,925,4850,37,47,810
1211675,16946004,18552916,16950182,18555814,2205,2325,-835,-3633,106,-307,1011,4737,37,47,810
1212676,16946200,18553120,16950313,18555945,2102,2244,-860,-3596,146,-340,967,4429,29,36,812
1213677,16946356,18553320,16950444,18556076,2342,2239,-853,-3599,211,-259,798,4319,29,36,812
1214678,16946540,18553536,16950575,18556207,2145,2102,-816,-3691,289,-187,745,3969,48,36,809
1215679,16946720,18553744,16950706,18556338,2148,2118,-761,-3807,382,-147,628,3899,48,36,809
1216680,16946900,18553932,16950837,18556469,2128,2219,-687,-3936,483,-92,605,3861,35,39,811
1217681,16947056,18554120,16950968,18556600,2268,2194,-613,-3985,586,-22,471,4012,35,39,811
1218682,16947208,18554316,16951099,18556731,2284,2117,-548,-3979,680,30,470,4306,36,49,813
1219683,16947356,18554528,16951230,18556862,2302,1981,-493,-3882,759,41,511,4496,36,49,813
1220684,16947492,18554708,16951361,18556993,2376,2161,-451,-3723,813,-63,539,4743,22,33,811
1221685,16947612,18554884,16951492,18557124,2482,2166,-420,-3459,838,-73,600,4876,22,33,811
1222686,16947772,18555048,16951623,18557255,2220,2226,-399,-3181,833,-100,573,4945,38,31,812
1223687,16947896,18555224,16951754,18557386,2448,2133,-385,-2884,815,-51,376,4949,38,31,812
1224688,16948024,18555404,16951885,18557517,2425,2086,-366,-2644,793,24,181,4744,32,43,809
1225689,16948200,18555608,16952016,18557648,2106,1905,-343,-2442,780,149,-94,4676,32,43,809
1226690,16948352,18555772,16952147,18557779,2248,2140,-322,-2290,800,393,-175,4554,40,38,810
1227691,16948500,18555928,16952278,18557910,2266,2179,-293,-2220,842,535,-27,4237,40,38,810
1228692,16948688,18556064,16952409,18558041,1992,2303,-237,-2192,864,623,293,4000,28,24,813
1229693,16948852,18556184,16952540,18558172,2128,2408,-157,-2199,841,615,483,3904,28,24,813
1230694,16949008,18556344,16952671,18558303,2167,2146,-75,-2234,786,661,681,3933,37,37,811
1231695,16949176,18556516,16952802,18558434,2077,2053,-17,-2200,729,731,745,4144,37,37,811
1232696,16949368,18556660,16952933,18558565,1901,2223,20,-2110,674,688,719,4250,26,28,811
1233697,16949516,18556800,16953064,18558696,2169,2245,43,-1959,607,675,292,4430,26,28,811
1234698,16949700,18556896,16953195,18558827,1921,2535,75,-1764,532,643,208,4430,43,36,811
1235699,16949876,18557040,16953326,18558958,1953,2229,99,-1546,446,559,189,4547,43,36,811
1236700,16950028,18557176,16953457,18559089,2093,2278,112,-1317,362,407,279,4492,25,22,811
1237701,16950172,18557328,16953588,18559220,2139,2169,115,-1138,283,301,292,4370,25,22,811
1238702,16950368,18557456,16953719,18559351,1786,2320,125,-988,223,184,307,4212,21,22,812
1239703,16950536,18557556,16953850,18559482,1945,2510,158,-910,200,98,120,4057,21,22,812
1240704,16950704,18557660,16953981,18559613,1930,2497,181,-821,201,56,347,4020,42,19,812
1241705,16950896,18557756,16954112,18559744,1754,2563,202,-819,194,-80,567,3654,42,19,812
1242706,16951072,18557852,16954243,18559875,1834,2579,233,-873,181,-183,533,3406,41,25,811
1243707,16951216,18557976,16954374,18560006,2029,2407,273,-939,193,-262,410,3431,41,25,811
1244708,16951448,18558092,16954505,18560137,1435,2464,299,-1011,251,-360,186,3458,34,30,812
1245709,16951620,18558204,16954636,18560268,1793,2498,309,-1047,324,-518,7,3544,34,30,812
1246710,16951784,18558312,16954767,18560399,1829,2534,319,-1080,388,-645,-179,3401,48,25,810
1247711,16951964,18558408,16954898,18560530,1708,2624,322,-1130,447,-729,-517,3398,48,25,810
1248712,16952164,18558492,16955029,18560661,1554,2720,307,-1150,531,-671,-642,3447,37,26,811
1249713,16952348,18558576,16955160,18560792,1630,2741,278,-1166,635,-630,-603,3381,37,26,811
1250714,16952504,18558668,16955291,18560923,1795,2708,247,-1201,732,-808,-623,3354,27,26,811
1251715,16952728,18558776,16955422,18561054,1329,2620,211,-1236,806,-1059,-775,3520,27,26,811
1252716,16952900,18558868,16955553,18561185,1637,2737,160,-1217,863,-1249,-762,3639,41,16,811
1253717,16953072,18558964,16955684,18561316,1619,2727,115,-1175,922,-1393,-838,3695,41,16,811
1254718,16953292,18559044,16955815,18561447,1281,2851,76,-1138,983,-1447,-805,3696,31,24,813
1255719,16953468,18559152,16955946,18561578,1536,2686,42,-1092,1066,-1484,-887,3732,31,24,813
1256720,16953632,18559284,16956077,18561709,1598,2536,21,-1050,1164,-1357,-859,3598,32,23,811
1257721,16953836,18559408,16956208,18561840,1316,2589,3,-1082,1262,-1134,-846,3391,32,23,811
1258722,16954012,18559528,16956339,18561971,1472,2620,-20,-1195,1364,-1005,-890,3364,29,22,811
1259723,16954196,18559620,16956470,18562102,1399,2812,-45,-1308,1472,-901,-943,3286,29,22,811
1260731,16954372,18559748,16956610,18562242,1434,2593,-62,-1432,1588,-839,-1093,3196,26,16,812
1261725,16954560,18559848,16956741,18562373,1334,2782,-65,-1570,1695,-825,-1187,3306,26,16,812
1262726,16954712,18559960,16956872,18562504,1550,2716,-66,-1707,1797,-770,-1348,3400,29,24,812
1263727,16954868,18560084,16957003,18562635,1515,2645,-72,-1825,1886,-613,-1320,3419,29,24,812
1264728,16955048,18560172,16957134,18562766,1343,2889,-74,-1985,1968,-410,-1199,3321,40,30,812
1265729,16955220,18560272,16957265,18562897,1376,2828,-86,-2150,2032,-152,-1118,3429,40,30,812
1266730,16955376,18560368,16957396,18563028,1465,2869,-113,-2283,2089,112,-1035,3583,41,24,812
1267731,16955528,18560520,16957527,18563159,1481,2510,-161,-2352,2149,277,-1005,3720,41,24,812
1268732,16955656,18560628,16957658,18563290,1633,2796,-212,-2421,2207,400,-1034,3845,44,30,810
1269733,16955788,18560732,16957789,18563421,1608,2833,-278,-2450,2260,516,-1161,4092,44,30,810
1270734,16955932,18560844,16957920,18563552,1528,2793,-365,-2393,2315,630,-1197,4325,20,26,812
1271735,16956060,18560964,16958051,18563683,1629,2747,-464,-2341,2368,832,-1119,4348,20,26,812
1272736,16956184,18561076,16958182,18563814,1658,2807,-568,-2322,2413,1051,-1149,4381,17,27,811
1273737,16956296,18561208,16958313,18563945,1742,2681,-652,-2298,2428,1302,-1046,4305,17,27,811
1274738,16956388,18561344,16958444,18564076,1884,2655,-702,-2341,2421,1505,-976,4158,30,17,811
1275739,16956488,18561460,16958575,18564207,1848,2787,-739,-2414,2404,1660,-936,4236,30,17,811
1276740,16956592,18561580,16958706,18564338,1836,2768,-768,-2502,2362,1768,-927,4157,30,18,811
1277741,16956720,18561692,16958837,18564469,1687,2826,-806,-2585,2290,1900,-914,4209,30,18,811
1278742,16956844,18561836,16958968,18564600,1716,2621,-849,-2616,2211,2011,-980,4354,26,24,810
1279743,16956936,18561960,16959099,18564731,1933,2749,-887,-2618,2134,1991,-1174,4491,26,24,810
1280744,16957060,18562112,16959230,18564862,1736,2566,-928,-2585,2049,1835,-1450,4624,17,24,809
1281745,16957168,18562304,16959361,18564993,1847,2289,-967,-2517,1959,1546,-1723,4698,17,24,809
1282746,16957252,18562476,16959492,18565124,2018,2397,-995,-2444,1885,1341,-2068,4803,13,39,810
1283747,16957352,18562648,16959623,18565255,1932,2379,-1001,-2386,1832,1321,-2330,4786,13,39,810
1284748,16957448,18562820,16959754,18565386,1973,2362,-967,-2392,1790,1440,-2219,4569,13,41,812
1285749,16957516,18562988,16959885,18565517,2177,2371,-906,-2429,1729,1480,-2141,4492,13,41,812
1286750,16957608,18563136,16960016,18565648,2044,2489,-824,-2457,1644,1396,-2155,4416,29,37,812
1287751,16957708,18563332,16960147,18565779,2008,2161,-724,-2484,1561,1279,-2146,4495,29,37,812
1288752,16957796,18563528,16960278,18565910,2102,2133,-615,-2427,1511,1147,-2210,4841,15,33,811
1289753,16957880,18563716,16960409,18566041,2148,2158,-508,-2301,1490,990,-2310,5097,15,33,811
1290754,16957952,18563924,16960540,18566172,2250,2000,-406,-2099,1493,812,-2467,5280,19,33,812
1291755,16958024,18564112,16960671,18566303,2276,2100,-276,-1914,1511,635,-2327,5116,19,33,812
1292756,16958128,18564300,16960802,18566434,2089,2076,-98,-1785,1528,577,-2030,5018,29,41,810
1293757,16958184,18564476,16960933,18566565,2422,2132,76,-1622,1548,556,-1805,5277,29,41,810
1294758,16958260,18564684,16961064,18566696,2322,1898,224,-1409,1574,546,-1639,5476,16,47,811
1295759,16958332,18564884,16961195,18566827,2374,1918,353,-1171,1565,534,-1382,5470,16,47,811
1296760,16958412,18565100,16961326,18566958,2346,1781,470,-907,1523,428,-1384,5577,16,48,811
1297761,16958476,18565300,16961457,18567089,2477,1851,588,-607,1503,502,-1714,5597,16,48,811
1298762,16958524,18565468,16961588,18567220,2613,2035,714,-365,1524,782,-1805,5248,7,29,811
