"Data file recorded 2014/9/24  14:36:40"
"%  Right Stride Frequency         = 2.0"
"%  Left Stride Frequency         = 2.0"
"%  Phase (Fractional)         = 32768.0"
"%  Experiment.py "
"%  Motor Gains    = [1800, 200, 100, 0, 0, 1800, 200, 100, 0, 0]
"% Columns: "
"% time | Right Leg Pos | Left Leg Pos | Commanded Right Leg Pos | Commanded Left Leg Pos | DCR | DCL | GyroX | GryoY | GryoZ | AX | AY | AZ | RBEMF | LBEMF | VBatt "
10921,318844,455392,321592,485432,2100,3800,-101,-2953,748,427,-279,4405,-8,-3,935
11915,318856,455408,321723,485563,2002,3800,-83,-2958,751,418,-289,4418,4,-4,934
12916,318872,455416,321854,485694,2029,3800,-67,-2973,755,426,-303,4376,4,-4,934
13917,318956,455624,321985,485825,1625,3800,-53,-2983,757,445,-284,4359,6,41,908
14918,319064,455888,322116,485956,1486,3800,-38,-2945,765,461,-407,4377,6,41,908
15919,319188,456248,322247,486087,1389,3800,-34,-2987,780,506,-686,4280,23,53,909
16920,319316,456608,322378,486218,1366,3800,-51,-3027,795,463,-845,4182,23,53,909
17921,319464,457024,322509,486349,1234,3800,-94,-3018,811,332,-740,4381,22,76,913
18922,319596,457448,322640,486480,1334,3800,-153,-2962,814,194,-541,4563,22,76,913
19923,319720,457880,322771,486611,1388,3800,-223,-2901,811,-179,-479,4650,41,95,914
20924,319832,458352,322902,486742,1472,3800,-298,-2729,805,-532,-673,4804,41,95,914
21925,319940,458872,323033,486873,1508,3800,-370,-2613,814,-659,-798,4711,20,93,913
22926,320020,459344,323164,487004,1705,3800,-424,-2604,843,-572,-819,4359,20,93,913
23927,320116,459828,323295,487135,1622,3800,-453,-2728,856,-443,-618,4010,15,103,914
24928,320216,460304,323426,487266,1611,3800,-481,-2923,836,-498,-462,3832,15,103,914
25929,320296,460788,323557,487397,1759,3800,-517,-3150,814,-621,-485,3891,32,113,911
26930,320384,461332,323688,487528,1728,3800,-596,-3268,812,-635,-468,4207,32,113,911
27931,320496,461816,323819,487659,1587,3800,-717,-3310,810,-551,-127,4305,33,110,913
28932,320608,462336,323950,487790,1596,3800,-854,-3390,772,-430,190,4159,33,110,913
29933,320716,462840,324081,487921,1632,3800,-980,-3620,691,-254,344,3777,35,109,912
30934,320852,463316,324212,488052,1455,3800,-1081,-4042,581,-91,639,3323,35,109,912
31935,321004,463796,324343,488183,1347,3800,-1169,-4560,456,73,846,3124,40,103,913
32936,321132,464336,324474,488314,1499,3800,-1255,-5116,339,187,902,3021,40,103,913
33937,321228,464848,324605,488445,1715,3800,-1336,-5768,256,274,561,2872,35,106,914
34938,321272,465348,324736,488576,2079,3800,-1371,-6436,210,449,-9,2798,35,106,914
35939,321308,465828,324867,488707,2172,3800,-1355,-7267,171,866,152,2415,23,100,911
36940,321332,466336,324998,488838,2294,3800,-1326,-8126,137,1395,374,2672,23,100,911
37941,321392,466848,325129,488969,2101,3800,-1342,-8793,154,1651,124,3356,3,92,910
38942,321420,467340,325260,489100,2347,3800,-1401,-9334,240,1700,-226,3793,3,92,910
39943,321452,467816,325391,489231,2366,3800,-1460,-9747,347,1907,-158,4112,18,97,909
40944,321488,468276,325522,489362,2383,3800,-1534,-10098,468,2417,-52,4629,18,97,909
41945,321516,468744,325653,489493,2480,3800,-1669,-10260,627,2889,-331,5320,19,99,909
42946,321568,469260,325784,489624,2365,3800,-1834,-10333,784,2933,-292,5579,19,99,909
43947,321608,469684,325915,489755,2480,3800,-1973,-10401,907,2778,-315,5757,21,91,908
44948,321644,470112,326046,489886,2548,3800,-2108,-10396,979,2914,-290,6026,21,91,908
45949,321708,470564,326177,490017,2403,3800,-2141,-10497,978,3336,805,5252,19,95,908
46950,321752,470996,326308,490148,2568,3800,-2001,-10796,886,3559,1718,4897,19,95,908
47951,321800,471416,326439,490279,2580,3800,-1938,-10663,919,3958,1313,6980,23,93,906
48952,321848,471932,326570,490410,2618,3800,-2015,-10197,1098,3951,1738,7570,23,93,906
49953,321900,472368,326701,490541,2628,3800,-2063,-9690,1218,3533,2407,7320,18,92,907
50954,321976,472888,326832,490672,2503,3800,-1977,-9360,1201,3245,2631,6939,18,92,907
51955,322092,473392,326963,490803,2260,3800,-1787,-9121,1179,3348,2401,7066,30,96,907
52956,322216,473864,327094,490934,2214,3800,-1585,-8692,1325,3234,1498,7902,30,96,907
53957,322336,474380,327225,491065,2245,3800,-805,-7074,1594,3147,567,16924,40,87,908
54958,322504,474932,327356,491196,1930,3800,1129,-2891,1900,3162,-611,32767,40,87,908
55959,322640,475444,327487,491327,2129,3800,2608,-892,2075,1927,1205,9076,27,98,910
56960,322756,476036,327618,491458,2261,3800,3103,-1188,2197,1904,1401,5373,27,98,910
57961,322876,476560,327749,491589,2242,3800,3183,-2346,2409,2190,864,4494,36,110,910
58949,323004,477180,327880,491720,2194,3546,3360,-2840,2735,1932,-13,5676,36,110,910
59950,323100,477816,328011,491851,2411,3226,3589,-2585,3074,1056,-1168,6482,38,99,909
60951,323240,478384,328142,491982,2133,3462,3811,-2174,3319,638,-1671,6492,38,99,909
61952,323380,479004,328273,492113,2130,2925,3909,-1365,3534,478,-2543,7966,40,114,912
62953,323524,479612,328404,492244,2100,2793,3887,-435,3748,11,-3007,7888,40,114,912
63954,323704,480296,328535,492375,1854,2078,3754,683,3921,-92,-3454,8485,40,132,913
64955,323956,480988,328666,492506,1352,1783,3571,1950,4042,-204,-3560,8494,40,132,913
65956,324148,481712,328797,492637,1701,1325,3396,3031,4134,-326,-3193,7654,52,132,918
66957,324328,482360,328928,492768,1755,1574,3272,4051,4227,-257,-3064,7196,52,132,918
67958,324520,483044,329059,492899,1654,1108,3271,4556,4314,-266,-2486,5415,31,132,924
68959,324716,483656,329190,493030,1602,1349,3432,4637,4361,383,-1786,4089,31,132,924
69960,324880,484388,329321,493161,1788,337,3697,4514,4367,830,-1484,3019,46,114,923
70961,325092,485012,329452,493292,1454,796,4027,4150,4372,685,-1460,2179,46,114,923
71962,325320,485624,329583,493423,1312,662,4362,3789,4332,425,-1538,1878,33,123,925
72963,325520,486196,329714,493554,1457,720,4691,3229,4227,58,-1359,907,33,123,925
73964,325744,486756,329845,493685,1267,607,5001,2830,4122,97,-1453,1391,38,101,927
74965,325956,487324,329976,493816,1307,366,5273,2612,4061,260,-1911,1582,38,101,927
75966,326164,487884,330107,493947,1299,229,5436,2673,4030,532,-1777,2255,42,102,928
76967,326428,488432,330238,494078,892,123,5508,3070,3977,598,-1286,2711,42,102,928
77968,326680,488956,330369,494209,914,101,5544,3385,3828,381,-736,2123,62,92,929
78969,326916,489400,330500,494340,969,464,5539,3712,3587,410,-468,2102,62,92,929
79970,327160,489864,330631,494471,870,194,5423,3959,3282,526,-209,1975,59,95,929
80971,327392,490432,330762,494602,900,-647,5176,4127,2942,888,-437,1466,59,95,929
81972,327572,490848,330893,494733,1205,178,4877,4173,2598,1046,-676,794,55,92,929
82974,327828,491324,331024,494864,676,-348,4557,4114,2268,1223,-363,652,55,92,929
83974,328060,491724,331155,494995,782,10,4227,4074,1934,1427,30,635,55,90,929
84975,328220,492020,331286,495126,1220,587,3994,3919,1626,1300,-537,-90,55,90,929
85977,328436,492412,331417,495257,833,-126,3854,3666,1368,1087,-1671,-337,33,66,931
86977,328620,492748,331548,495388,1010,135,3815,3386,1197,1081,-2119,-651,33,66,931
87978,328844,493008,331679,495519,719,553,3831,2958,1116,1059,-2141,-1268,49,48,929
88979,329032,493256,331810,495650,920,577,3823,2586,1084,1201,-1664,-1277,49,48,929
89980,329268,493468,331941,495781,575,767,3750,2360,1109,1260,-1247,-889,28,39,931
90981,329448,493688,332072,495912,904,678,3599,2424,1198,1219,-811,-194,28,39,931
91982,329648,493876,332203,496043,749,854,3448,2587,1266,690,-296,-570,35,26,929
92983,329808,494000,332334,496174,987,1257,3329,2655,1251,270,-106,-1175,35,26,929
93984,329992,494140,332465,496305,813,1154,3238,2553,1186,-125,-342,-1603,44,26,930
94985,330136,494228,332596,496436,1059,1498,3155,2367,1108,-594,-232,-1884,44,26,930
95986,330320,494324,332727,496567,785,1463,3038,2250,1027,-743,-297,-1751,20,16,927
96987,330448,494412,332858,496698,1138,1533,2844,2314,1008,-577,-513,-1469,20,16,927
97988,330628,494516,332989,496829,791,1445,2568,2488,1022,-491,-196,-1473,39,26,926
98990,330772,494592,333120,496960,1011,1645,2290,2599,1010,-725,3,-1760,39,26,926
99990,330912,494684,333251,497091,1032,1562,2070,2564,956,-930,188,-2139,37,21,924
100991,331044,494760,333382,497222,1083,1687,1892,2408,869,-1018,453,-2738,37,21,924
101993,331172,494844,333513,497353,1109,1658,1720,2079,756,-1099,683,-3280,15,23,924
102994,331300,494944,333644,497484,1112,1573,1489,1563,619,-1020,815,-3632,15,23,924
103994,331384,495032,333775,497615,1407,1667,1151,986,444,-754,898,-3595,27,13,923
104995,331464,495168,333906,497746,1455,1365,739,378,245,-410,576,-3762,27,13,923
105996,331536,495296,334037,497877,1532,1417,296,-449,84,136,-832,-4352,16,31,925
106998,331648,495416,334168,498008,1290,1473,-194,-1555,-16,675,-1635,-4899,16,31,925
107999,331768,495544,334299,498139,1246,1424,-679,-2997,-93,1125,-1428,-5688,32,14,925
108999,331920,495656,334430,498270,1037,1533,-1154,-4598,-163,1382,-1377,-5859,32,14,925
110000,332040,495756,334561,498401,1242,1622,-1661,-6102,-179,1415,-1451,-5323,26,15,925
111001,332172,495876,334692,498532,1167,1503,-2198,-7413,-114,1415,-1602,-4643,26,15,925
112002,332276,495980,334823,498663,1355,1615,-2761,-8393,0,1357,-1627,-3951,19,29,925
113003,332380,496108,334954,498794,1367,1467,-3338,-9160,163,1214,-1897,-3181,19,29,925
114004,332492,496252,335085,498925,1326,1361,-3937,-9726,352,1134,-1953,-2439,6,26,924
115005,332568,496372,335216,499056,1575,1517,-4537,-10235,509,1014,-1816,-2238,6,26,924
116006,332664,496476,335347,499187,1467,1629,-5142,-10624,655,935,-2257,-1498,7,19,924
117007,332768,496620,335478,499318,1428,1374,-5754,-10862,812,710,-2606,-677,7,19,924
118008,332864,496700,335609,499449,1495,1797,-6368,-10884,972,461,-2786,-66,15,25,923
119009,332948,496792,335740,499580,1590,1740,-6988,-10739,1118,448,-2939,774,15,25,923
120010,333052,496880,335871,499711,1478,1784,-8085,-9651,1377,487,-4419,4576,12,10,924
121011,333156,496968,336002,499842,1490,1803,-9468,-8172,1756,9,-5903,4640,12,10,924
122012,333256,497044,336133,499973,1530,1903,-10602,-7062,1993,-17,-4359,3529,8,13,922
123013,333352,497104,336264,500104,1570,2035,-11336,-6692,1990,203,-3200,2366,8,13,922
124014,333472,497184,336395,500235,1426,1932,-11784,-6888,1831,560,-2781,1480,9,9,921
125015,333564,497312,336526,500366,1619,1635,-11910,-7673,1614,887,-2176,-99,9,9,921
126016,333664,497416,336657,500497,1583,1797,-11776,-8699,1423,1204,-2303,-225,18,20,920
127017,333792,497536,336788,500628,1410,1702,-11629,-9540,1357,1844,-3063,1105,18,20,920
128018,333904,497652,336919,500759,1518,1735,-11558,-10103,1409,2402,-3301,2111,34,18,923
129019,334036,497792,337050,500890,1394,1581,-11610,-10152,1602,2997,-3874,4191,34,18,923
130020,334168,497904,337181,501021,1394,1765,-11725,-9878,1769,3334,-3032,5143,14,27,923
131021,334292,498044,337312,501152,1448,1587,-11957,-9330,1706,3422,-1532,6514,14,27,923
132022,334412,498152,337443,501283,1478,1797,-11849,-9278,1440,2955,-1410,4081,16,17,924
133023,334568,498260,337574,501414,1242,1809,-11482,-9600,1071,2934,-785,4686,16,17,924
134024,334728,498380,337705,501545,1206,1738,-11265,-9272,735,3501,-223,8032,18,29,924
135032,334824,498508,337976,501816,1683,1752,-7542,-2792,754,7803,-1961,29517,18,29,924
136026,334992,498624,338107,501947,1217,1835,1893,16809,673,12402,-1550,32767,33,32,923
137027,335096,498732,338238,502078,1630,1895,7311,24570,412,6920,939,3648,33,32,923
138028,335228,498868,338369,502209,1455,1719,7768,21535,116,6550,2842,-434,28,29,922
139029,335392,499012,338500,502340,1241,1663,6369,14593,-242,6897,1935,-4917,28,29,922
140030,335528,499144,338631,502471,1414,1739,5321,10119,-223,7194,-473,-2737,25,33,921
141031,335668,499292,338762,502602,1386,1632,4674,7915,309,6385,-885,-641,25,33,921
142032,335828,499428,338893,502733,1248,1705,4136,5916,529,5918,1033,-2870,33,30,924
143033,335960,499548,339024,502864,1424,1811,3549,3412,278,5337,2000,-2375,33,30,924
144034,336100,499688,339155,502995,1371,1683,2922,753,-28,3805,2242,-2018,36,21,924
145035,336236,499816,339286,503126,1394,1759,2257,-1568,-362,2984,1512,-1279,36,21,924
146036,336404,499928,339417,503257,1179,1868,1651,-3462,-677,1918,1148,41,27,20,922
147037,336560,500068,339548,503388,1243,1689,1034,-4729,-878,740,910,1536,27,20,922
148038,336736,500180,339679,503519,1099,1874,560,-5628,-1054,355,494,1964,20,33,922
149039,336872,500300,339810,503650,1347,1830,94,-6184,-1145,-1016,667,3399,20,33,922
150041,337004,500444,339941,503781,1372,1674,-257,-6310,-1143,-2583,878,4604,27,33,924
151041,337148,500600,340072,503912,1292,1589,-430,-6031,-1174,-3313,488,5277,27,33,924
152042,337264,500776,340203,504043,1474,1445,-322,-5536,-1188,-4238,-68,5548,33,31,923
153043,337392,500916,340334,504174,1401,1666,-90,-5026,-1181,-4794,-128,6041,33,31,923
154044,337488,501060,340465,504305,1617,1637,-25,-4139,-1179,-4898,-322,7414,14,36,924
155045,337620,501196,340596,504436,1392,1685,-73,-2725,-1042,-5276,-752,8597,14,36,924
156046,337720,501320,340727,504567,1606,1763,-98,-1204,-794,-5174,-1038,8584,13,19,923
157047,337860,501464,340858,504698,1353,1634,-72,275,-500,-4963,-1078,8689,13,19,923
158048,337988,501584,340989,504829,1430,1789,7,1676,-123,-4823,-1221,8710,20,23,922
159049,338096,501744,341120,504960,1565,1527,122,2845,266,-4429,-1238,7552,20,23,922
160050,338208,501872,341251,505091,1550,1729,278,3503,628,-4136,-999,6150,33,20,924
161051,338316,501988,341382,505222,1585,1811,440,3904,1003,-3716,-774,5407,33,20,924
162052,338408,502124,341513,505353,1703,1684,586,3840,1396,-3159,-639,3878,27,33,923
163053,338548,502268,341644,505484,1399,1629,745,3291,1798,-2597,-467,2427,27,33,923
164054,338664,502408,341775,505615,1557,1651,882,2403,2197,-1934,188,1472,28,32,922
165055,338760,502532,341906,505746,1698,1755,940,1210,2471,-1524,1542,560,28,32,922
166056,338884,502636,342037,505877,1526,1892,944,-189,2592,-1389,2219,187,32,28,923
167057,339012,502784,342168,506008,1503,1610,913,-1586,2657,-1057,2175,196,32,28,923
168058,339112,502916,342299,506139,1692,1710,821,-2888,2714,-642,2391,537,21,33,921
169059,339228,503040,342430,506270,1600,1764,687,-4041,2826,-409,1980,922,21,33,921
170060,339328,503164,342561,506401,1714,1768,514,-4971,2968,-462,1197,1643,12,34,922
171061,339444,503304,342692,506532,1621,1664,328,-5726,3099,-523,724,1966,12,34,922
172062,339532,503420,342823,506663,1816,1822,161,-6476,3146,-664,602,2062,30,23,922
173063,339656,503548,342954,506794,1595,1749,9,-7160,3079,-872,581,2344,30,23,922
174064,339752,503684,343085,506925,1785,1697,-130,-7812,2928,-1195,626,2520,29,27,922
175065,339840,503812,343216,507056,1855,1749,-219,-8274,2722,-1415,776,3027,29,27,922
176066,339956,503920,343347,507187,1687,1884,-253,-8470,2498,-1506,937,3714,9,15,922
177067,340048,504036,343478,507318,1855,1842,-300,-8403,2291,-1725,657,4442,9,15,922
178068,340160,504148,343609,507449,1739,1876,-397,-8172,2135,-1859,238,5017,9,32,921
179069,340260,504264,343740,507580,1828,1858,-532,-7908,2047,-1802,-182,5132,9,32,921
180070,340384,504396,343871,507711,1682,1758,-659,-7616,1997,-1669,-338,5251,13,35,919
181071,340468,504528,344002,507842,1954,1759,-737,-7335,1960,-1563,-332,5081,13,35,919
182072,340568,504676,344133,507973,1867,1651,-750,-7194,1940,-1413,-522,4725,15,35,920
183073,340704,504840,344264,508104,1641,1538,-754,-7175,1935,-1147,-239,4267,15,35,920
184074,340820,504980,344395,508235,1774,1684,-752,-7345,1895,-837,226,3709,20,33,920
185075,340944,505136,344526,508366,1727,1574,-748,-7692,1829,-491,292,3310,20,33,920
186076,341068,505280,344657,508497,1731,1644,-734,-8072,1768,-139,595,3293,12,30,922
187077,341164,505436,344788,508628,1922,1558,-747,-8414,1709,473,955,3360,12,30,922
188078,341264,505576,344919,508759,1911,1655,-985,-8401,1650,1124,1026,4695,31,26,922
189079,341368,505772,345050,508890,1899,1277,-1254,-8284,1658,1454,716,4390,31,26,922
190080,341476,505944,345181,509021,1885,1410,-1350,-8466,1711,1548,743,3519,11,30,921
191081,341584,506112,345312,509152,1896,1419,-1366,-8671,1770,1743,853,4310,11,30,921
192082,341704,506252,345443,509283,1826,1590,-1410,-8754,1848,1781,460,4545,29,25,922
193083,341812,506408,345574,509414,1912,1480,-1510,-8685,1956,1685,304,4693,29,25,922
194084,341912,506548,345705,509545,1976,1577,-1624,-8678,2054,1493,592,4395,17,32,922
195085,342032,506688,345836,509676,1856,1574,-1630,-8636,2119,1375,788,4607,17,32,922
196086,342144,506824,345967,509807,1916,1597,-1593,-8470,2203,1424,735,5227,13,20,921
197088,342248,506972,346098,509938,1978,1515,-1535,-8180,2356,1430,508,5563,13,20,921
198088,342376,507096,346229,510069,1831,1669,-1459,-7783,2548,1448,560,5790,15,36,921
199089,342504,507248,346360,510200,1832,1485,-1370,-7214,2735,1367,841,6472,15,36,921
200090,342604,507396,346491,510331,2022,1503,-1225,-6499,2849,1119,1146,6714,24,31,921
201091,342708,507560,346622,510462,2010,1389,-1020,-5756,2875,909,952,6756,24,31,921
202092,342824,507716,346753,510593,1942,1429,-789,-5044,2869,733,947,6863,31,24,921
203093,342932,507848,346884,510724,2002,1578,-480,-3272,2749,283,1981,7448,31,24,921
204094,343048,507984,347015,510855,1960,1552,-420,-2291,2654,284,1871,7332,14,20,921
205095,343168,508116,347146,510986,1941,1578,-357,-1471,2558,198,1538,6847,14,20,921
206096,343284,508280,347277,511117,1973,1363,-256,-816,2486,217,203,6332,16,37,921
207097,343404,508416,347408,511248,1953,1537,-117,-329,2445,285,-466,5667,16,37,921
208098,343504,508592,347539,511379,2093,1267,3,-120,2431,364,-448,4780,32,26,921
209099,343608,508740,347670,511510,2081,1436,125,-193,2453,534,-639,4130,32,26,921
210100,343700,508936,347801,511641,2174,1107,271,-389,2486,633,-643,3657,28,29,921
211101,343860,509096,347932,511772,1736,1320,443,-683,2531,787,-722,3383,28,29,921
212102,344020,509308,348063,511903,1724,960,622,-964,2580,859,-603,3218,23,37,920
213103,344168,509532,348194,512034,1793,845,772,-1233,2625,846,-444,3337,23,37,920
214104,344324,509712,348325,512165,1733,1098,866,-1443,2691,1058,-869,3617,26,40,921
215105,344460,509836,348456,512296,1856,1453,905,-1570,2770,1193,-666,3822,26,40,921
216106,344572,509908,348587,512427,2015,1803,883,-1691,2778,1267,258,3879,39,28,925
217107,344728,509968,348718,512558,1730,1911,810,-1789,2705,1231,1226,4033,39,28,925
218108,344856,510032,348849,512689,1907,1915,699,-1673,2595,1136,1366,4563,18,9,922
219109,344980,510084,348980,512820,1936,2026,591,-1452,2481,1043,1409,4710,18,9,922
220110,345112,510180,349111,512951,1886,1766,512,-1274,2365,1023,1429,4554,18,23,920
221111,345216,510236,349242,513082,2074,2050,477,-1123,2253,796,545,4554,18,23,920
222112,345348,510308,349373,513213,1899,1976,501,-1037,2191,848,-535,4425,35,14,919
223113,345480,510412,349504,513344,1900,1789,548,-890,2196,935,-1008,4508,35,14,919
224114,345596,510520,349635,513475,2006,1774,582,-709,2218,937,-838,4485,35,12,917
225115,345724,510632,349766,513606,1934,1758,588,-547,2198,951,-374,4200,35,12,917
226116,345856,510732,349897,513737,1909,1847,614,-581,2144,1023,-453,3791,18,30,920
227117,345976,510896,350028,513868,1990,1434,692,-721,2096,1097,-481,3630,18,30,920
228118,346084,511056,350159,513999,2075,1447,754,-865,2041,934,226,3568,26,19,920
229119,346220,511236,350290,514130,1899,1300,718,-978,1924,666,962,3656,26,19,920
230121,346356,511388,350421,514261,1898,1467,684,-937,1873,774,736,3943,25,43,921
231121,346488,511544,350552,514392,1923,1431,664,-843,1836,664,800,3871,25,43,921
232122,346648,511756,350683,514523,1737,1046,628,-747,1802,637,113,4143,21,37,923
233123,346788,511980,350814,514654,1858,931,540,-608,1700,430,161,4112,21,37,923
234125,346940,512236,350945,514785,1775,677,403,-537,1534,330,345,3956,42,48,922
235125,347084,512456,351076,514916,1820,863,240,-443,1341,279,173,4045,42,48,922
236126,347232,512688,351207,515047,1788,744,84,-395,1151,252,6,3764,32,46,923
237127,347384,512964,351338,515178,1754,405,-73,-444,967,316,-13,3640,32,46,923
238129,347548,513220,351469,515309,1666,477,-229,-489,797,465,220,3583,32,55,924
239130,347716,513544,351600,515440,1625,-33,-365,-551,695,703,-354,3488,32,55,924
240130,347904,513836,351731,515571,1476,96,-462,-676,654,823,-461,3278,35,49,926
241132,348056,514136,351862,515702,1692,-27,-522,-850,657,873,-566,3094,35,49,926
242132,348244,514372,351993,515833,1443,327,-569,-1068,671,960,-911,3072,50,59,928
243133,348436,514540,352124,515964,1392,735,-582,-1270,678,1165,-1796,3067,50,59,928
244134,348588,514732,352255,516095,1633,559,-555,-1429,658,1154,-2109,3280,48,39,928
245135,348788,514952,352386,516226,1304,345,-524,-1493,596,1141,-2107,3500,48,39,928
246136,348952,515164,352517,516357,1515,360,-519,-1558,490,1122,-2027,3560,28,35,926
247137,349116,515368,352648,516488,1502,378,-566,-1512,361,1006,-1710,3866,28,35,926
248138,349280,515552,352779,516619,1487,480,-669,-1463,197,810,-705,3874,31,33,928
249139,349456,515716,352910,516750,1393,591,-840,-1383,-1,654,-75,3948,31,33,928
250140,349612,515904,353041,516881,1508,416,-1079,-1221,-207,540,76,4180,36,37,928
251141,349764,516060,353172,517012,1524,605,-1326,-946,-425,420,-41,4294,36,37,928
252142,349908,516192,353303,517143,1569,754,-1540,-659,-599,297,-1102,4546,21,32,927
253143,350052,516344,353434,517274,1564,620,-1694,-376,-729,32,-1730,4437,21,32,927
254144,350212,516504,353565,517405,1452,558,-1751,-172,-839,-195,-2181,4225,39,32,927
255145,350360,516632,353696,517536,1521,760,-1759,-1,-938,-407,-2277,4142,39,32,927
256146,350512,516724,353827,517667,1486,1002,-1746,112,-1000,-557,-2613,4110,27,31,925
257147,350668,516860,353958,517798,1451,725,-1715,307,-989,-596,-3132,4229,27,31,925
258148,350812,516992,354089,517929,1522,749,-1675,584,-931,-611,-3336,4460,20,31,926
259149,350924,517132,354220,518060,1730,696,-1630,831,-882,-699,-3332,4245,20,31,926
260157,351068,517260,354360,518200,1529,777,-1602,903,-862,-770,-3553,3771,38,27,927
261151,351164,517384,354491,518331,1846,805,-1564,846,-850,-926,-3548,3316,38,27,927
262152,351272,517504,354622,518462,1781,834,-1520,630,-859,-1103,-2802,2987,19,16,925
263154,351380,517604,354753,518593,1792,973,-1477,375,-887,-1156,-2308,2889,19,16,925
264155,351480,517712,354884,518724,1855,933,-1442,131,-876,-1176,-2925,2995,28,23,924
265155,351576,517800,355015,518855,1897,1078,-1375,-96,-832,-1178,-3381,3049,28,23,924
266156,351672,517896,355146,518986,1913,1044,-1258,-413,-800,-1247,-3327,2768,23,11,924
267157,351776,517992,355277,519117,1875,1059,-1106,-774,-791,-1346,-3275,2794,23,11,924
268158,351880,518072,355408,519248,1888,1181,-962,-1096,-785,-1353,-3188,2943,11,20,922
269159,351988,518172,355539,519379,1874,1070,-837,-1411,-777,-1375,-2696,2975,11,20,922
270160,352116,518288,355670,519510,1750,978,-726,-1716,-765,-1460,-1896,3089,14,14,923
271161,352216,518428,355801,519641,1940,824,-609,-2031,-765,-1516,-1231,3134,14,14,923
272162,352316,518584,355932,519772,1955,713,-495,-2334,-752,-1548,-1080,3354,13,17,923
273163,352452,518700,356063,519903,1727,969,-394,-2526,-711,-1549,-1130,3571,13,17,923
274164,352568,518824,356194,520034,1860,923,-309,-2733,-661,-1526,-1073,3571,13,24,924
275165,352680,518924,356325,520165,1894,1087,-228,-2914,-608,-1443,-1137,3740,13,24,924
276166,352796,519056,356456,520296,1877,886,-138,-3097,-541,-1285,-1846,3751,14,27,925
277167,352884,519180,356587,520427,2071,939,-5,-3325,-454,-1046,-2300,3730,14,27,925
278168,352980,519272,356718,520558,2037,1158,169,-3597,-364,-876,-2104,3716,26,20,922
279169,353112,519384,356849,520689,1813,1041,353,-3895,-272,-642,-1729,3597,26,20,922
280170,353240,519480,356980,520820,1839,1156,504,-4200,-183,-355,-1031,3579,15,28,921
281171,353364,519568,357111,520951,1868,1225,609,-4520,-94,-220,-248,3553,15,28,921
282172,353496,519668,357242,521082,1819,1165,693,-4902,-1,1,220,3374,22,12,924
283173,353624,519776,357373,521213,1845,1125,779,-5278,92,210,430,3383,22,12,924
284174,353764,519880,357504,521344,1767,1162,869,-5610,203,382,355,3667,25,12,923
285175,353896,519972,357635,521475,1818,1254,943,-5828,324,491,273,3941,25,12,923
286176,354012,520052,357766,521606,1925,1352,981,-5930,429,550,279,4308,23,16,922
287177,354132,520128,357897,521737,1905,1402,975,-5869,527,643,91,4684,23,16,922
288178,354264,520220,358028,521868,1831,1319,944,-5759,609,802,-185,4706,30,18,923
289179,354412,520292,358159,521999,1724,1471,895,-5644,619,875,445,4792,30,18,923
290180,354536,520356,358290,522130,1877,1550,768,-5394,517,1098,1391,5525,21,6,920
291181,354684,520432,358421,522261,1721,1499,567,-4934,444,1616,1467,5984,21,6,920
292182,354820,520488,358552,522392,1795,1658,348,-4362,389,1723,1430,6096,18,21,922
293183,354936,520540,358683,522523,1927,1718,155,-3833,336,1717,1030,6060,18,21,922
294184,355076,520616,358814,522654,1773,1592,-32,-3345,252,1802,830,5934,35,11,922
295185,355236,520692,358945,522785,1636,1617,-185,-3057,184,1921,558,5197,35,11,922
296186,355380,520768,359076,522916,1732,1641,-269,-3002,148,2049,465,4576,36,21,920
297187,355516,520840,359207,523047,1780,1692,-314,-3104,116,2187,311,4189,36,21,920
298188,355664,520912,359338,523178,1698,1719,-330,-3313,67,2077,309,3653,16,20,922
299189,355820,520996,359469,523309,1638,1665,-282,-3585,-13,1955,365,3333,16,20,922
300190,355956,521096,359600,523440,1762,1580,-165,-3981,-99,1802,271,2949,26,11,919
301191,356116,521168,359731,523571,1599,1781,-39,-4332,-163,1669,143,3369,26,11,919
302192,356280,521240,359862,523702,1561,1807,61,-4506,-208,1446,285,3713,21,15,921
303193,356432,521320,359993,523833,1627,1780,161,-4601,-275,1141,425,3795,21,15,921
304194,356600,521404,360124,523964,1511,1777,266,-4554,-368,878,261,4279,23,10,922
305195,356768,521464,360255,524095,1496,1958,365,-4360,-457,617,-69,4680,23,10,922
306196,356928,521540,360386,524226,1534,1883,432,-3964,-519,424,-451,5226,34,17,922
307197,357104,521596,360517,524357,1414,2041,465,-3469,-551,154,-501,5390,34,17,922
308198,357244,521668,360648,524488,1636,1968,464,-3018,-545,46,-633,5443,32,16,921
309199,357392,521732,360779,524619,1580,2047,435,-2529,-505,-40,-557,5469,32,16,921
310200,357568,521788,360910,524750,1385,2131,403,-2148,-434,-184,-369,5038,30,22,921
311201,357736,521852,361041,524881,1420,2111,410,-1884,-347,-132,-286,4647,30,22,921
312202,357900,521928,361172,525012,1430,2061,439,-1751,-238,9,-219,4299,23,13,919
313203,358060,522012,361303,525143,1444,2031,473,-1657,-109,15,-147,4105,23,13,919
314204,358212,522080,361434,525274,1485,2160,486,-1679,0,-25,-189,3784,41,18,920
315205,358352,522160,361565,525405,1556,2109,488,-1811,77,-125,-342,3464,41,18,920
316206,358528,522244,361696,525536,1313,2104,475,-1932,150,-114,-702,3459,31,8,921
317207,358688,522348,361827,525667,1401,1992,457,-2062,241,-61,-986,3374,31,8,921
318208,358848,522420,361958,525798,1388,2219,425,-2238,335,-117,-848,3313,43,9,920
319209,359048,522496,362089,525929,1109,2218,361,-2362,415,-217,-700,3492,43,9,920
320210,359220,522584,362220,526060,1266,2163,274,-2461,459,-340,-554,3406,27,13,921
321211,359372,522648,362351,526191,1383,2343,184,-2608,478,-329,-528,3316,27,13,921
322212,359524,522740,362482,526322,1373,2186,103,-2800,493,-300,-463,3198,43,24,919
323213,359708,522816,362613,526453,1151,2311,22,-3008,523,-277,-476,3285,43,24,919
324214,359852,522884,362744,526584,1396,2389,-72,-3157,553,-340,-490,3334,41,24,917
325215,360004,522952,362875,526715,1337,2417,-163,-3342,566,-322,-575,3238,41,24,917
326216,360172,523032,363006,526846,1222,2366,-261,-3487,566,-232,-664,3360,27,10,920
327217,360328,523108,363137,526977,1286,2416,-354,-3625,556,-180,-661,3421,27,10,920
328219,360480,523200,363268,527108,1303,2333,-436,-3767,543,-120,-627,3429,21,15,918
329219,360632,523276,363399,527239,1293,2458,-499,-3908,534,-54,-697,3556,21,15,918
330220,360780,523356,363530,527370,1312,2456,-545,-3979,533,-23,-651,3587,31,10,919
331221,360924,523436,363661,527501,1331,2480,-571,-4064,504,5,-332,3690,31,10,919
332222,361076,523528,363792,527632,1273,2422,-577,-4117,456,6,-178,3681,21,25,919
333223,361228,523660,363923,527763,1264,2173,-580,-4161,415,38,-105,3952,21,25,919
334224,361360,523772,364054,527894,1389,2307,-585,-4120,373,122,-61,4124,30,25,918
335225,361508,523876,364185,528025,1282,2370,-586,-4142,332,126,104,3965,30,25,918
336226,361668,524000,364316,528156,1195,2249,-587,-4119,293,181,247,3913,27,33,921
337227,361828,524128,364447,528287,1182,2225,-595,-4161,266,258,325,3891,27,33,921
338228,361992,524236,364578,528418,1144,2361,-611,-4179,249,275,361,3972,19,29,920
339229,362124,524360,364709,528549,1343,2265,-626,-4230,237,244,239,3974,19,29,920
340230,362284,524472,364840,528680,1157,2350,-627,-4319,238,246,-256,3813,28,16,921
341231,362432,524584,364971,528811,1224,2359,-622,-4371,269,293,-991,3996,28,16,921
342232,362588,524696,365102,528942,1164,2367,-599,-4387,320,194,-1383,3970,43,21,920
343233,362748,524836,365233,529073,1127,2189,-570,-4464,363,130,-1458,3916,43,21,920
344234,362944,524928,365364,529204,874,2508,-539,-4518,401,172,-1316,3892,44,18,919
345235,363132,525052,365495,529335,899,2312,-504,-4584,435,218,-803,3967,44,18,919
346236,363268,525156,365626,529466,1223,2450,-474,-4606,438,170,16,4132,34,17,920
347237,363452,525288,365757,529597,899,2274,-443,-4579,425,112,430,4100,34,17,920
348238,363616,525408,365888,529728,1011,2355,-416,-4595,408,166,663,4038,26,26,921
349239,363812,525512,366019,529859,782,2468,-390,-4660,387,195,834,4045,26,26,921
350240,363972,525660,366150,529990,995,2186,-364,-4736,364,108,829,3893,37,30,920
351241,364184,525760,366281,530121,635,2501,-337,-4828,355,109,682,3823,37,30,920
352242,364364,525880,366412,530252,814,2382,-333,-4936,381,215,409,3861,42,19,920
353243,364556,525984,366543,530383,713,2494,-352,-5012,443,214,8,4006,42,19,920
354244,364752,526112,366674,530514,659,2346,-374,-5038,498,160,-178,4013,44,35,921
355245,364952,526244,366805,530645,604,2322,-384,-5106,539,85,-92,4038,44,35,921
356246,365144,526380,366936,530776,628,2295,-407,-5090,585,160,-151,4326,45,21,920
357247,365320,526512,367067,530907,708,2321,-432,-5010,642,208,-189,4430,45,21,920
358248,365512,526636,367198,531038,581,2375,-459,-4952,707,92,-170,4418,30,18,922
359249,365692,526772,367329,531169,636,2298,-482,-4850,776,54,-178,4468,30,18,922
360250,365876,526920,367460,531300,588,2216,-500,-4819,853,230,-438,4393,47,28,922
361251,366052,527028,367591,531431,618,2477,-500,-4743,937,301,-494,4395,47,28,922
362252,366224,527156,367722,531562,626,2355,-484,-4790,1001,347,-214,4016,45,21,922
363253,366420,527272,367853,531693,447,2437,-471,-4819,1052,505,-125,4106,45,21,922
364254,366580,527452,367984,531824,659,2017,-479,-4819,1117,617,-257,4378,44,35,921
365255,366748,527608,368115,531955,593,2156,-485,-4774,1157,682,-13,4337,44,35,921
366256,366908,527728,368246,532086,631,2387,-488,-4753,1184,735,-42,4454,25,25,922
367257,367012,527872,368377,532217,993,2232,-485,-4655,1215,665,172,4554,25,25,922
368258,367128,528004,368508,532348,925,2307,-500,-4547,1237,822,78,4667,21,35,922
369259,367264,528132,368639,532479,799,2335,-515,-4399,1258,864,55,4689,21,35,922
370260,367380,528280,368770,532610,930,2203,-536,-4289,1294,839,-209,4732,33,21,922
371261,367488,528408,368901,532741,990,2330,-575,-4156,1343,1006,-749,4785,33,21,922
372262,367628,528532,369032,532872,786,2359,-609,-4042,1389,1063,-710,4685,33,36,922
373263,367748,528672,369163,533003,917,2256,-634,-3899,1438,1166,-761,4691,33,36,922
374264,367880,528812,369294,533134,842,2253,-653,-3803,1473,1230,-744,4621,25,28,921
375265,368016,528972,369425,533265,815,2116,-669,-3710,1491,1160,-568,4753,25,28,921
376266,368128,529108,369556,533396,973,2265,-664,-3648,1460,1126,-108,4593,32,21,921
377267,368244,529252,369687,533527,956,2209,-637,-3596,1413,1122,134,4507,32,21,921
378268,368364,529384,369818,533658,935,2285,-612,-3506,1367,1005,344,4698,15,25,922
379269,368496,529532,369949,533789,860,2178,-588,-3431,1314,920,382,4614,15,25,922
380270,368600,529640,370080,533920,1047,2439,-570,-3355,1255,840,437,4617,32,19,922
381271,368732,529776,370211,534051,872,2263,-557,-3272,1213,737,487,4642,32,19,922
382272,368848,529920,370342,534182,979,2207,-562,-3207,1178,628,403,4596,26,24,922
383273,368940,530028,370473,534313,1146,2444,-600,-3147,1155,442,161,4628,26,24,922
384274,369076,530148,370604,534444,870,2374,-658,-3091,1159,267,-36,4611,30,16,921
385284,369176,530268,370744,534584,1113,2384,-721,-3090,1178,237,-131,4403,30,16,921
386276,369280,530408,370875,534715,1099,2256,-771,-3079,1202,123,-226,4403,27,16,920
387277,369372,530520,371006,534846,1192,2441,-800,-3089,1232,-15,-335,4352,27,16,920
388278,369476,530632,371137,534977,1129,2449,-810,-3165,1263,-69,-465,4253,30,15,918
389279,369564,530732,371268,535108,1248,2539,-806,-3278,1309,-162,-550,4329,30,15,918
390280,369656,530844,371399,535239,1240,2473,-799,-3311,1354,-322,-588,4397,10,21,918
391281,369776,530940,371530,535370,1071,2589,-788,-3373,1379,-435,-490,4295,10,21,918
392282,369860,531048,371661,535501,1317,2525,-759,-3445,1387,-550,-381,4345,15,18,918
393283,369960,531176,371792,535632,1231,2403,-734,-3455,1401,-616,-372,4621,15,18,918
394284,370076,531272,371923,535763,1138,2618,-726,-3414,1405,-685,-375,4620,17,29,919
395285,370160,531408,372054,535894,1359,2367,-725,-3386,1407,-730,-321,4631,17,29,919
396286,370244,531536,372185,536025,1380,2419,-734,-3332,1424,-709,-489,4683,12,33,919
397287,370360,531660,372316,536156,1187,2448,-748,-3329,1471,-638,-720,4656,12,33,919
398288,370468,531780,372447,536287,1247,2479,-745,-3316,1547,-665,-1042,4675,21,30,919
399289,370584,531912,372578,536418,1205,2405,-716,-3370,1634,-751,-1322,4518,21,30,919
400290,370720,532032,372709,536549,1078,2486,-666,-3425,1708,-695,-1416,4345,23,22,918
401291,370832,532148,372840,536680,1236,2517,-593,-3546,1790,-636,-1535,4320,23,22,918
402292,370932,532284,372971,536811,1326,2391,-490,-3670,1875,-589,-1515,4325,31,23,920
403293,371060,532408,373102,536942,1152,2470,-357,-3813,1940,-486,-1149,4311,31,23,920
404294,371168,532520,373233,537073,1288,2554,-206,-3927,1982,-401,-1013,4427,33,32,919
405295,371280,532616,373364,537204,1271,2671,-62,-3976,2012,-395,-995,4754,33,32,919
406296,371396,532756,373495,537335,1253,2393,62,-3877,2028,-494,-717,5046,32,33,919
407297,371524,532896,373626,537466,1180,2390,161,-3744,2044,-575,-719,5172,32,33,919
408298,371640,533028,373757,537597,1262,2439,223,-3588,2065,-514,-844,5385,14,29,918
409299,371760,533144,373888,537728,1243,2547,268,-3443,2101,-506,-664,5339,14,29,918
410300,371912,533268,374019,537859,1033,2501,306,-3336,2138,-575,-571,5166,25,32,919
411301,372040,533388,374150,537990,1185,2532,343,-3279,2186,-620,-773,5091,25,32,919
412302,372164,533512,374281,538121,1214,2511,382,-3293,2259,-666,-1008,4984,34,17,917
413303,372288,533616,374412,538252,1217,2649,440,-3314,2342,-729,-1116,4886,34,17,917
414304,372428,533732,374543,538383,1114,2581,526,-3390,2410,-768,-847,4698,20,25,919
415305,372564,533840,374674,538514,1137,2643,630,-3548,2458,-642,-561,4623,20,25,919
416306,372696,533944,374805,538645,1161,2679,741,-3722,2482,-372,-209,4597,36,14,918
417307,372828,534056,374936,538776,1162,2639,859,-3876,2477,-246,149,4429,36,14,918
418308,372956,534160,375067,538907,1188,2702,972,-4068,2429,-248,470,4340,23,28,918
419309,373080,534276,375198,539038,1217,2634,1040,-4224,2363,-114,556,4630,23,28,918
420310,373208,534364,375329,539169,1194,2829,1060,-4265,2306,57,618,4887,34,10,918
421311,373332,534456,375460,539300,1222,2822,1046,-4250,2264,111,434,5043,34,10,918
422312,373480,534548,375591,539431,1065,2840,1018,-4185,2224,-31,162,5223,35,10,916
423313,373604,534648,375722,539562,1218,2805,988,-4076,2204,-70,-133,5312,35,10,916
424314,373724,534752,375853,539693,1249,2793,966,-3996,2220,-60,-343,5317,26,18,917
425315,373864,534856,375984,539824,1120,2806,943,-3887,2248,-157,-420,5318,26,18,917
426316,373992,534960,376115,539955,1196,2819,951,-3820,2274,-182,-434,5030,27,22,917
427317,374108,535060,376246,540086,1279,2858,988,-3864,2295,-161,-431,4803,27,22,917
428318,374244,535180,376377,540217,1152,2739,1039,-3935,2327,-193,-461,4834,32,19,917
429319,374368,535304,376508,540348,1231,2718,1092,-4021,2371,-204,-330,4703,32,19,917
430320,374488,535424,376639,540479,1261,2748,1159,-4109,2411,-253,-63,4552,28,21,917
431321,374612,535564,376770,540610,1239,2620,1221,-4217,2438,-313,300,4507,28,21,917
432322,374748,535704,376901,540741,1163,2617,1268,-4285,2441,-246,609,4552,21,28,917
433323,374864,535852,377032,540872,1294,2561,1296,-4358,2429,-81,850,4497,21,28,917
434324,374964,535968,377163,541003,1409,2768,1322,-4393,2417,-33,927,4622,16,20,917
435325,375088,536104,377294,541134,1262,2642,1328,-4363,2390,-216,849,4808,16,20,917
436326,375224,536212,377425,541265,1185,2828,1339,-4294,2349,-345,871,4787,35,30,918
437327,375348,536304,377556,541396,1264,2946,1348,-4176,2323,-323,871,4864,35,30,918
438328,375472,536452,377687,541527,1267,2590,1353,-4057,2320,-263,841,4853,16,14,917
439329,375600,536548,377818,541658,1244,2931,1357,-3968,2324,-202,684,4696,16,14,917
440330,375700,536672,377949,541789,1433,2760,1387,-3922,2322,-156,500,4450,14,17,916
441331,375812,536824,378080,541920,1367,2577,1432,-3971,2320,-102,338,4235,14,17,916
442332,375924,536984,378211,542051,1376,2515,1473,-4038,2318,-87,447,4064,14,23,916
443333,376024,537132,378342,542182,1464,2584,1498,-4116,2308,-137,361,4008,14,23,916
444334,376148,537288,378473,542313,1318,2524,1514,-4175,2310,-98,-4,3944,19,37,917
445335,376252,537432,378604,542444,1455,2594,1536,-4204,2328,-14,-214,3875,19,37,917
446336,376360,537572,378735,542575,1441,2616,1533,-4249,2340,39,-402,4004,30,35,917
447337,376472,537684,378866,542706,1425,2800,1490,-4267,2340,145,-473,3996,30,35,917
448338,376580,537828,378997,542837,1461,2596,1411,-4224,2337,176,-503,4104,27,19,917
449339,376672,537960,379128,542968,1578,2671,1319,-4188,2339,307,-280,3936,27,19,917
450340,376784,538108,379259,543099,1462,2565,1241,-4197,2321,331,38,3751,35,25,916
451341,376892,538248,379390,543230,1497,2612,1164,-4280,2302,371,26,3589,35,25,916
452342,376996,538396,379521,543361,1535,2555,1085,-4414,2277,484,3,3432,34,24,916
453343,377100,538536,379652,543492,1547,2602,1010,-4525,2269,618,-81,3427,34,24,916
454344,377220,538660,379783,543623,1453,2707,943,-4602,2264,667,-34,3459,14,30,916
455345,377316,538780,379914,543754,1618,2736,879,-4649,2262,654,-215,3564,14,30,916
456346,377404,538928,380045,543885,1687,2555,819,-4652,2248,600,-222,3546,15,33,915
457347,377496,539092,380176,544016,1680,2441,758,-4724,2223,698,-240,3352,15,33,915
458348,377576,539236,380307,544147,1778,2562,685,-4807,2195,758,-320,3338,22,18,916
459349,377648,539376,380438,544278,1855,2584,583,-4827,2176,718,-441,3421,22,18,916
460350,377720,539508,380569,544409,1882,2634,488,-4872,2151,706,-493,3303,13,28,917
461351,377816,539688,380700,544540,1747,2314,416,-4968,2101,825,-446,3225,13,28,917
462352,377900,539892,380831,544671,1844,2133,370,-5042,2043,964,-267,3110,31,43,916
463353,378008,540116,380962,544802,1704,1968,322,-5085,2015,1090,-331,3144,31,43,916
464354,378096,540272,381093,544933,1849,2383,280,-5142,2024,1237,-225,3089,20,34,918
465355,378184,540432,381224,545064,1867,2346,259,-5267,2013,1211,9,2928,20,34,918
466356,378264,540572,381355,545195,1941,2468,240,-5341,1970,1185,-78,3054,16,40,918
467357,378368,540764,381486,545326,1804,2116,215,-5313,1935,1227,-239,3247,16,40,918
468358,378484,540968,381617,545457,1735,2010,174,-5203,1925,1161,-386,3489,10,29,917
469359,378572,541148,381748,545588,1930,2140,117,-5039,1917,980,-586,3754,10,29,917
470360,378668,541336,381879,545719,1896,2066,75,-4859,1925,920,-642,3649,31,29,918
471361,378772,541512,382010,545850,1858,2122,70,-4712,1951,1035,-564,3435,31,29,918
472362,378868,541680,382141,545981,1925,2157,79,-4604,1978,1114,-483,3491,33,26,918
473363,378960,541840,382272,546112,1967,2195,97,-4483,1996,1165,-400,3294,33,26,918
474364,379072,542024,382403,546243,1851,2022,133,-4439,2009,1144,-380,3185,12,26,918
475365,379200,542216,382534,546374,1753,1946,180,-4389,2027,1186,-387,3235,12,26,918
476366,379276,542416,382665,546505,2103,1866,222,-4316,2056,1318,-333,3308,35,45,916
477367,379376,542568,382796,546636,1967,2158,263,-4175,2093,1448,-203,3246,35,45,916
478368,379488,542732,382927,546767,1901,2069,300,-4054,2121,1474,-6,3225,12,22,919
479369,379588,542904,383058,546898,1990,2002,346,-3944,2115,1501,344,3204,12,22,919
480370,379696,543044,383189,547029,1952,2199,399,-3833,2082,1628,480,3155,34,32,917
481371,379840,543212,383320,547160,1721,2008,455,-3658,2075,1696,498,3242,34,32,917
482372,379964,543364,383451,547291,1850,2100,495,-3451,2097,1452,420,3585,34,39,918
483373,380112,543520,383582,547422,1693,2064,516,-3125,2098,1152,326,3790,34,39,918
484374,380236,543696,383713,547553,1846,1920,546,-2777,2055,986,467,3627,25,27,919
485375,380352,543928,383844,547684,1904,1527,597,-2501,2014,1047,507,3398,25,27,919
486376,380500,544144,383975,547815,1698,1590,647,-2291,2013,1179,434,3347,25,44,919
487377,380616,544332,384106,547946,1904,1741,693,-2126,2035,1160,481,3079,25,44,919
488378,380768,544536,384237,548077,1671,1610,757,-2049,2040,1049,455,2685,18,43,920
489379,380884,544708,384368,548208,1904,1793,833,-2103,2035,1136,276,2423,18,43,920
490380,381028,544896,384499,548339,1723,1668,892,-2161,2045,1230,131,2438,20,37,920
491381,381176,545132,384630,548470,1691,1322,924,-2146,2076,1231,70,2453,20,37,920
492383,381336,545332,384761,548601,1605,1517,916,-2040,2087,980,-104,2776,22,50,920
493383,381484,545556,384892,548732,1672,1327,871,-1806,2073,694,-305,3181,22,50,920
494384,381632,545740,385023,548863,1666,1555,817,-1564,2049,727,-282,3084,23,36,923
495385,381792,545964,385154,548994,1579,1264,772,-1339,2013,775,-273,2916,23,36,923
496386,381928,546120,385285,549125,1727,1679,712,-1209,1980,873,-412,2912,38,40,922
497387,382084,546284,385416,549256,1592,1615,659,-1120,1952,944,-466,2639,38,40,922
498388,382224,546496,385547,549387,1688,1280,615,-1112,1924,974,-426,2436,24,46,923
499389,382360,546716,385678,549518,1712,1192,554,-1097,1886,982,-254,2477,24,46,923
500390,382520,546944,385809,549649,1550,1099,464,-1094,1833,942,-18,2375,41,39,922
501391,382664,547140,385940,549780,1644,1272,368,-1085,1791,944,72,2260,41,39,922
502393,382824,547316,386071,549911,1532,1377,266,-1126,1756,838,162,2317,35,31,923
503393,382952,547476,386202,550042,1735,1465,169,-1236,1715,824,357,2108,35,31,923
504394,383112,547640,386333,550173,1522,1426,72,-1368,1656,918,468,1963,24,36,923
505395,383228,547852,386464,550304,1805,1091,-42,-1435,1608,1026,487,2096,24,36,923
506396,383372,548076,386595,550435,1624,975,-173,-1495,1579,974,539,2303,29,35,922
507397,383504,548272,386726,550566,1699,1122,-308,-1536,1549,919,686,2357,29,35,922
508399,383632,548448,386857,550697,1727,1228,-440,-1539,1534,1006,677,2376,17,28,923
509400,383780,548624,386988,550828,1594,1208,-583,-1526,1533,1006,599,2641,17,28,923
510407,383900,548812,387128,550968,1779,1113,-747,-1420,1543,844,222,2928,32,32,922
511401,384020,548964,387259,551099,1784,1329,-913,-1256,1564,777,-143,2941,32,32,922
512402,384152,549140,387390,551230,1709,1160,-1058,-1161,1587,912,-68,2892,34,26,923
513403,384268,549316,387521,551361,1817,1140,-1176,-1182,1614,1207,86,2783,34,26,923
514404,384388,549508,387652,551492,1797,1013,-1274,-1207,1636,1302,315,2721,29,44,922
515405,384524,549700,387783,551623,1696,988,-1345,-1296,1649,1377,528,2567,29,44,922
516406,384652,549892,387914,551754,1748,961,-1398,-1397,1654,1560,786,2503,15,40,923
517407,384768,550080,388045,551885,1830,961,-1457,-1492,1662,1696,778,2654,15,40,923
518408,384888,550248,388176,552016,1810,1070,-1519,-1571,1651,1688,631,2883,18,39,924
519409,385020,550400,388307,552147,1735,1161,-1572,-1571,1608,1602,494,3092,18,39,924
520410,385148,550532,388438,552278,1762,1286,-1627,-1499,1556,1444,322,3506,19,28,923
521411,385288,550704,388569,552409,1684,1019,-1701,-1291,1503,1273,176,3933,19,28,923
522412,385412,550920,388700,552540,1787,706,-1787,-1033,1401,1047,201,3990,28,36,922
523413,385512,551132,388831,552671,1952,696,-1850,-828,1246,966,138,3942,28,36,922
524414,385596,551304,388962,552802,2074,929,-1878,-718,1085,1053,84,3813,26,25,924
525415,385696,551476,389093,552933,1987,911,-1889,-680,950,1132,165,3723,26,25,924
526416,385788,551636,389224,553064,2055,973,-1910,-665,846,1265,332,3748,10,37,923
527417,385900,551816,389355,553195,1940,828,-1934,-749,763,1475,590,3523,10,37,923
528418,385992,551980,389486,553326,2082,913,-1957,-894,686,1669,887,3399,20,28,923
529419,386092,552156,389617,553457,2047,818,-2001,-966,632,1718,858,3586,20,28,923
530420,386196,552376,389748,553588,2034,504,-2073,-1052,611,1696,786,3685,28,39,923
531421,386308,552552,389879,553719,1993,760,-2162,-1129,606,1624,639,3747,28,39,923
532422,386424,552752,390010,553850,1975,580,-2240,-1173,614,1416,410,3918,12,35,922
533423,386552,552916,390141,553981,1903,791,-2314,-1125,633,1263,149,4372,12,35,922
534424,386716,553096,390272,554112,1663,669,-2429,-983,680,1017,-360,4743,30,31,923
535425,386844,553236,390403,554243,1891,915,-2542,-822,749,947,-501,4695,30,31,923
536426,386956,553376,390534,554374,2000,912,-2609,-774,810,985,-407,4302,15,41,924
537427,387068,553572,390665,554505,2008,534,-2647,-888,846,810,-399,4153,15,41,924
538428,387168,553772,390796,554636,2098,478,-2695,-965,865,608,-617,4461,17,38,923
539429,387276,553960,390927,554767,2059,528,-2763,-996,890,556,-746,4449,27,30,924
540430,387380,554128,391058,554898,2096,637,-2819,-1122,916,622,-497,4165,27,30,924
541431,387504,554272,391189,555029,1975,781,-2856,-1281,930,487,-434,4030,14,26,922
542432,387608,554420,391320,555160,2113,750,-2907,-1499,947,117,-924,4207,14,26,922
543433,387744,554532,391451,555291,1911,983,-2978,-1629,973,-150,-1109,4385,36,22,921
544434,387868,554648,391582,555422,1990,965,-3060,-1778,995,-236,-1144,4405,36,22,921
545435,387996,554808,391713,555553,1967,677,-3142,-1927,991,-291,-1121,4588,20,22,923
546436,388156,554928,391844,555684,1755,932,-3229,-2046,961,-195,-1005,4708,20,22,923
547437,388268,555072,391975,555815,2064,776,-3315,-2172,901,-56,-662,4699,29,30,923
548438,388356,555184,392106,555946,2233,984,-3400,-2285,834,73,-627,4789,29,30,923
549439,388460,555308,392237,556077,2146,913,-3463,-2495,771,144,-673,4596,10,13,923
550440,388560,555436,392368,556208,2185,890,-3499,-2786,719,206,-838,4438,10,13,923
551441,388668,555524,392499,556339,2146,1159,-3516,-3121,680,314,-1080,4293,30,24,920
552442,388780,555612,392630,556470,2130,1178,-3501,-3568,656,584,-1069,4178,30,24,920
553443,388900,555696,392761,556601,2086,1223,-3469,-3942,647,798,-1093,4393,26,24,920
554444,389028,555776,392892,556732,2038,1271,-3423,-4307,650,862,-974,4457,26,24,920
555445,389156,555864,393023,556863,2040,1240,-3361,-4648,640,1030,-836,4530,18,21,921
556446,389288,555940,393154,556994,2015,1340,-3290,-4991,607,1128,-714,4706,18,21,921
557447,389444,556040,393285,557125,1855,1203,-3237,-5267,565,1103,-783,5161,20,22,921
558448,389580,556156,393416,557256,1978,1110,-3203,-5404,523,1089,-734,5547,20,22,921
559449,389684,556256,393547,557387,2191,1224,-3150,-5517,484,1220,-524,5641,31,18,922
560450,389808,556372,393678,557518,2070,1131,-3082,-5541,449,1511,-495,5890,31,18,922
561451,389896,556456,393809,557649,2314,1352,-3005,-5570,380,1730,-417,5937,25,10,920
562452,390008,556572,393940,557780,2173,1158,-2925,-5558,297,1830,-515,6143,25,10,920
563453,390100,556656,394071,557911,2317,1379,-2839,-5534,224,1996,-492,6230,23,14,918
564454,390184,556752,394202,558042,2388,1319,-2733,-5489,170,2152,-400,6209,23,14,918
565455,390292,556848,394333,558173,2248,1336,-2608,-5411,123,2218,-419,6262,27,11,917
566456,390396,556972,394464,558304,2286,1164,-2466,-5348,69,2326,-479,6139,27,11,917
567457,390540,557056,394595,558435,2031,1435,-2317,-5313,15,2408,-707,6137,18,20,919
568458,390688,557152,394726,558566,2000,1375,-2166,-5256,-29,2296,-975,6196,18,20,919
569459,390796,557252,394857,558697,2261,1365,-1982,-5227,-62,2038,-1251,6245,16,14,920
570460,390932,557348,394988,558828,2084,1405,-1777,-5125,-82,1901,-1368,6292,16,14,920
571461,391024,557436,395119,558959,2377,1474,-1583,-4993,-111,2019,-1278,6392,11,19,920
572462,391140,557532,395250,559090,2235,1440,-1394,-4804,-167,2329,-1113,6324,11,19,920
573463,391256,557636,395381,559221,2242,1402,-1185,-4697,-244,2457,-1142,5982,32,30,918
574464,391372,557756,395512,559352,2249,1307,-956,-4637,-323,2300,-1546,5861,32,30,918
575465,391524,557876,395643,559483,2016,1312,-734,-4589,-367,2103,-2104,5969,15,26,918
576466,391636,557972,395774,559614,2275,1478,-531,-4425,-377,1967,-2436,5994,15,26,918
577467,391776,558060,395905,559745,2097,1547,-328,-4311,-385,1883,-2536,5812,21,17,921
578468,391932,558168,396036,559876,1987,1432,-101,-4161,-405,1893,-2560,5612,21,17,921
579469,392092,558264,396167,560007,1949,1523,154,-4069,-418,1852,-2562,5505,31,23,919
580470,392224,558344,396298,560138,2125,1646,417,-3968,-418,1664,-2681,5532,31,23,919
581471,392356,558424,396429,560269,2125,1668,675,-3913,-410,1480,-2785,5532,27,12,920
582472,392472,558504,396560,560400,2233,1692,904,-3757,-386,1455,-2787,5727,27,12,920
583473,392604,558596,396691,560531,2134,1634,1088,-3467,-329,1475,-2844,5900,13,17,919
584474,392708,558688,396822,560662,2320,1651,1264,-3153,-257,1472,-2629,5676,13,17,919
585475,392856,558764,396953,560793,2039,1776,1471,-2977,-191,1507,-2180,5240,20,25,918
586476,392988,558840,397084,560924,2140,1800,1687,-2874,-108,1487,-1963,5087,20,25,918
587477,393140,558944,397215,561055,2006,1638,1857,-2731,15,1434,-2231,5325,28,21,918
588478,393316,559044,397346,561186,1836,1677,1989,-2494,168,1307,-2241,5231,28,21,918
589479,393472,559140,397477,561317,1952,1717,2128,-2290,341,1237,-2175,4937,44,11,920
590480,393672,559244,397608,561448,1647,1680,2265,-2090,523,1133,-2187,5003,44,11,920
591481,393820,559340,397739,561579,1966,1745,2405,-1853,691,988,-2009,4916,37,24,920
592482,393980,559420,397870,561710,1878,1869,2534,-1613,853,997,-1825,4845,37,24,920
593483,394148,559500,398001,561841,1813,1891,2643,-1368,1015,998,-1665,4925,22,13,919
594484,394316,559592,398132,561972,1797,1834,2748,-1086,1183,976,-1527,4878,22,13,919
595485,394488,559688,398263,562103,1755,1825,2854,-800,1337,936,-1456,4662,41,13,919
596486,394680,559764,398394,562234,1604,1974,2969,-586,1476,787,-1401,4497,41,13,919
597487,394844,559856,398525,562365,1765,1892,3074,-321,1610,699,-1490,4529,27,25,919
598489,395020,559924,398656,562496,1671,2070,3145,18,1744,639,-1732,4601,27,25,919
599489,395184,560044,398787,562627,1732,1751,3156,311,1846,584,-1796,4465,23,26,920
600490,395352,560148,398918,562758,1692,1862,3132,476,1860,721,-1506,3818,23,26,920
601491,395520,560236,399049,562889,1676,1982,3104,524,1823,934,-1164,3346,45,27,920
602492,395732,560348,399180,563020,1366,1841,3077,500,1803,1105,-1010,3061,45,27,920
603493,395912,560456,399311,563151,1545,1877,3055,361,1803,1097,-925,2597,28,21,920
604494,396084,560600,399442,563282,1578,1646,3033,176,1821,986,-931,2401,28,21,920
605495,396280,560768,399573,563413,1400,1481,2996,19,1853,807,-1121,2462,29,20,921
606496,396476,560900,399704,563544,1372,1705,2934,-168,1875,733,-1027,2308,29,20,921
607497,396648,561020,399835,563675,1505,1786,2878,-449,1857,712,-888,1861,31,18,922
608498,396848,561144,399966,563806,1300,1764,2810,-795,1786,739,-745,1510,31,18,922
609499,397048,561276,400097,563937,1270,1715,2721,-1125,1670,779,-475,1414,46,31,921
610500,397256,561400,400228,564068,1187,1768,2581,-1468,1530,825,-358,1545,46,31,921
611501,397440,561532,400359,564199,1314,1719,2411,-1782,1386,848,-280,1456,37,29,922
612502,397688,561644,400490,564330,864,1852,2223,-2088,1235,831,-227,1454,37,29,922
613503,397888,561780,400621,564461,1134,1701,2028,-2371,1082,692,-80,1491,32,33,923
614504,398072,561936,400752,564592,1211,1565,1828,-2634,939,596,-29,1547,32,33,923
615505,398292,562080,400883,564723,947,1635,1629,-2853,809,559,-27,1651,39,24,923
616506,398464,562228,401014,564854,1230,1603,1435,-3011,696,615,-41,1759,39,24,923
617507,398648,562332,401145,564985,1132,1890,1246,-3123,614,642,-80,1834,23,16,924
618508,398832,562480,401276,565116,1110,1608,1079,-3324,575,649,-212,1650,23,16,924
619509,398984,562572,401407,565247,1300,1976,922,-3522,571,783,-67,1723,37,15,921
620510,399140,562692,401538,565378,1265,1806,770,-3709,575,928,167,1663,37,15,921
621511,399292,562848,401669,565509,1281,1571,604,-3907,563,1022,405,1610,29,19,920
622512,399444,562976,401800,565640,1272,1748,444,-4085,539,1164,585,1500,29,19,920
623513,399596,563084,401931,565771,1264,1883,278,-4287,535,1494,766,1551,38,23,922
624514,399748,563224,402062,565902,1254,1680,105,-4455,558,1841,958,1610,38,23,922
625515,399884,563360,402193,566033,1353,1703,-86,-4624,591,1876,1105,1609,18,18,922
626516,400036,563500,402324,566164,1244,1675,-284,-4755,611,1730,1167,1772,18,18,922
627517,400204,563620,402455,566295,1129,1805,-489,-4825,622,1630,1388,2006,34,15,922
628518,400316,563740,402586,566426,1487,1811,-702,-4740,637,1572,1430,2360,34,15,922
629519,400444,563852,402717,566557,1388,1869,-927,-4487,680,1451,1355,2743,32,14,922
630520,400568,563976,402848,566688,1417,1798,-1140,-4203,746,1410,1359,2830,32,14,922
631521,400672,564104,402979,566819,1554,1775,-1335,-3974,817,1436,1466,2791,28,33,920
632522,400792,564224,403110,566950,1460,1830,-1501,-3767,866,1455,1440,2657,28,33,920
633523,400924,564348,403241,567081,1385,1809,-1645,-3546,891,1481,1270,2586,29,32,921
634524,401048,564464,403372,567212,1439,1866,-1765,-3310,912,1522,981,2631,29,32,921
635532,401180,564584,403512,567352,1392,1850,-1850,-3072,950,1664,399,2638,23,17,921
636526,401300,564688,403643,567483,1473,1963,-1907,-2829,978,1713,92,2626,23,17,921
637527,401428,564828,403774,567614,1424,1734,-1956,-2636,968,1611,129,2613,15,20,921
638528,401552,564948,403905,567745,1453,1865,-2011,-2403,910,1465,370,2725,15,20,921
639530,401680,565068,404036,567876,1430,1869,-2096,-2099,819,1432,571,3004,35,28,922
640530,401804,565188,404167,568007,1458,1875,-2194,-1764,738,1497,659,2949,35,28,922
641531,401956,565320,404298,568138,1275,1800,-2327,-1501,654,1595,685,2714,38,29,920
642532,402076,565452,404429,568269,1480,1800,-2468,-1348,550,1639,586,2513,38,29,920
643533,402220,565592,404560,568400,1325,1746,-2637,-1254,449,1584,349,2648,18,25,922
644534,402364,565720,404691,568531,1319,1824,-2828,-1092,359,1391,158,2783,18,25,922
645535,402484,565860,404822,568662,1475,1746,-3030,-870,294,1030,-191,2958,18,36,922
646536,402588,565988,404953,568793,1587,1822,-3211,-700,253,867,-525,2866,18,36,922
647537,402716,566136,405084,568924,1438,1691,-3376,-581,224,873,-513,2904,28,38,921
648538,402824,566296,405215,569055,1574,1603,-3524,-469,200,785,-505,2897,28,38,921
649539,402944,566436,405346,569186,1504,1725,-3646,-405,186,544,-461,2864,13,22,921
650540,403048,566568,405477,569317,1617,1775,-3747,-403,192,347,-460,2945,13,22,921
651541,403148,566700,405608,569448,1656,1775,-3817,-445,219,331,-380,2954,24,22,921
652542,403264,566848,405739,569579,1563,1668,-3854,-438,265,318,-290,2920,24,22,921
653543,403396,566988,405870,569710,1463,1715,-3854,-533,317,146,-320,2833,12,23,920
654544,403492,567124,406001,569841,1704,1737,-3840,-676,383,-56,-387,3055,12,23,920
655545,403628,567296,406132,569972,1452,1495,-3812,-788,456,-104,-404,3294,23,38,921
656546,403732,567416,406263,570103,1665,1825,-3779,-742,540,-111,-423,3684,23,38,921
657547,403836,567572,406394,570234,1677,1590,-3738,-675,641,-258,-405,3962,31,31,923
658548,403940,567704,406525,570365,1689,1740,-3685,-609,736,-429,-311,4096,31,31,923
659549,404072,567864,406656,570496,1514,1553,-3619,-506,835,-494,-192,4394,13,24,921
660550,404184,568024,406787,570627,1648,1540,-3541,-371,931,-618,-13,4585,13,24,921
661551,404304,568144,406918,570758,1603,1796,-3463,-269,1001,-814,105,4752,13,35,922
662552,404420,568284,407049,570889,1636,1667,-3392,-183,1056,-945,241,4788,13,35,922
663553,404524,568416,407180,571020,1723,1718,-3338,-159,1101,-979,268,4917,17,26,919
664554,404624,568544,407311,571151,1762,1744,-3302,-138,1144,-1037,86,4984,17,26,919
665555,404772,568684,407442,571282,1455,1666,-3268,-149,1191,-1160,-209,4916,15,22,920
666556,404872,568824,407573,571413,1769,1662,-3212,-183,1245,-1223,-571,5214,15,22,920
667557,404972,568980,407704,571544,1783,1552,-1668,2268,1558,-2085,-2786,28282,26,22,921
668558,405088,569112,407835,571675,1691,1702,1225,7620,2150,-2650,-3332,32767,26,22,921
669559,405196,569252,407966,571806,1751,1649,2765,9389,2315,-713,864,5251,10,37,921
670560,405312,569404,408097,571937,1708,1565,2647,7731,2127,-440,1731,1067,10,37,921
671561,405424,569564,408228,572068,1742,1503,2164,4921,1857,139,1447,-557,24,26,920
672562,405544,569712,408359,572199,1698,1570,1826,2767,1690,293,1253,258,24,26,920
673563,405660,569848,408490,572330,1729,1644,1653,1164,1678,236,1126,357,14,27,921
674564,405792,570012,408621,572461,1630,1455,1413,-337,1707,610,658,590,14,27,921
675565,405928,570172,408752,572592,1603,1468,1076,-1655,1769,377,324,1332,16,22,920
676566,406032,570332,408883,572723,1815,1455,733,-2978,1834,-14,131,1602,16,22,920
677567,406176,570456,409014,572854,1560,1684,434,-4119,1794,-192,-730,2113,21,28,922
678568,406288,570604,409145,572985,1769,1527,257,-5210,1715,-802,-1289,2288,21,28,922
679569,406428,570744,409276,573116,1591,1573,91,-5972,1614,-1062,-1409,3373,33,33,921
680570,406564,570872,409407,573247,1614,1650,-100,-6468,1479,-1439,-1481,4098,33,33,921
681571,406700,571024,409538,573378,1613,1491,-270,-6807,1417,-1920,-1987,4925,33,22,922
682572,406800,571160,409669,573509,1851,1590,9,-6184,1521,-2370,-3180,11586,33,22,922
683573,406940,571324,409800,573640,1598,1400,1120,-3441,1873,-3599,-3896,26682,17,37,922
684574,407040,571472,409931,573771,1862,1494,1854,-1595,2099,-2888,-1385,10688,17,37,922
685575,407136,571604,410062,573902,1903,1593,1771,-1468,2149,-2486,-1211,5250,30,31,921
686576,407284,571764,410193,574033,1571,1407,1398,-2248,2165,-2265,-1597,4575,30,31,921
687577,407384,571892,410324,574164,1885,1608,1103,-2719,2255,-2003,-1191,5085,25,26,920
688578,407492,572040,410455,574295,1846,1475,918,-2979,2427,-1788,-495,4586,25,26,920
689579,407624,572160,410586,574426,1696,1656,769,-3264,2640,-1320,-536,4275,14,23,921
690580,407728,572300,410717,574557,1884,1527,658,-3645,2888,-1155,-670,3948,14,23,921
691581,407844,572436,410848,574688,1816,1551,614,-4235,3113,-1098,-625,3486,28,35,920
692582,407996,572556,410979,574819,1582,1656,629,-4886,3271,-1010,-397,3233,28,35,920
693583,408108,572696,411110,574950,1841,1528,701,-5645,3414,-1121,-415,2828,12,25,921
694584,408212,572840,411241,575081,1904,1497,804,-6314,3558,-948,-935,3095,12,25,921
695585,408312,573004,411372,575212,1942,1358,917,-6885,3691,-833,-1202,3100,30,24,920
696586,408420,573140,411503,575343,1903,1532,1015,-7252,3821,-822,-1294,3905,30,24,920
697587,408528,573320,411634,575474,1914,1235,1055,-7240,3922,-645,-1433,4919,32,35,919
698588,408640,573484,411765,575605,1898,1322,1085,-7033,3976,-684,-1391,5216,32,35,919
699589,408748,573628,411896,575736,1934,1441,1111,-6724,3986,-810,-1163,5641,30,32,921
700590,408868,573792,412027,575867,1864,1301,1139,-6387,3939,-834,-852,5638,30,32,921
701591,408980,573928,412158,575998,1923,1475,1151,-5996,3868,-732,-622,5854,35,35,921
702592,409084,574096,412289,576129,1986,1259,1159,-5540,3812,-656,-454,5673,35,35,921
703593,409176,574304,412420,576260,2078,976,1174,-5247,3759,-475,-292,5162,28,28,921
704594,409276,574468,412551,576391,2043,1237,1235,-5059,3682,-277,222,4777,28,28,921
705595,409420,574652,412682,576522,1762,1088,1355,-5089,3604,-269,796,4069,22,35,921
706596,409580,574828,412813,576653,1650,1120,1478,-5153,3538,-14,661,3943,22,35,921
707597,409704,575012,412944,576784,1879,1046,1579,-5230,3522,230,494,3815,25,31,922
708598,409844,575224,413075,576915,1775,836,1680,-5321,3508,388,1021,3669,25,31,922
709599,409964,575380,413206,577046,1906,1176,1782,-5359,3480,694,948,3470,38,28,923
710600,410080,575480,413337,577177,1939,1539,1912,-5496,3451,808,799,3266,38,28,923
711601,410212,575580,413468,577308,1838,1553,2020,-5550,3418,901,411,3592,19,17,922
712602,410320,575672,413599,577439,1999,1621,2115,-5560,3381,898,333,3496,19,17,922
713603,410420,575788,413730,577570,2063,1478,2183,-5478,3335,834,445,3797,30,29,920
714604,410532,575868,413861,577701,1997,1725,2247,-5295,3297,878,173,3813,30,29,920
715605,410624,575980,413992,577832,2141,1534,2315,-5066,3282,916,-399,4020,27,18,919
716606,410700,576104,414123,577963,2265,1462,2359,-4699,3257,959,-454,4222,27,18,919
717607,410808,576220,414254,578094,2076,1519,2393,-4345,3163,992,-203,4176,11,17,917
718608,410920,576364,414385,578225,2060,1339,2410,-3975,3039,1072,-24,4407,11,17,917
719609,411004,576560,414516,578356,2256,986,2421,-3554,2935,1187,241,4433,30,21,918
720610,411100,576740,414647,578487,2197,1064,2412,-3077,2836,1335,619,4455,30,21,918
721611,411208,576888,414778,578618,2133,1258,2375,-2508,2720,1445,909,4528,18,43,920
722612,411288,577032,414909,578749,2331,1277,2313,-2044,2618,1577,826,4314,18,43,920
723613,411368,577236,415040,578880,2354,870,2215,-1573,2544,1690,508,4205,14,43,920
724614,411472,577476,415171,579011,2217,598,2090,-1198,2464,1616,282,3858,14,43,920
725615,411560,577688,415302,579142,2336,737,1946,-970,2345,1534,273,3162,27,53,920
726616,411664,577888,415433,579273,2249,782,1794,-918,2190,1460,273,2646,27,53,920
727617,411788,578092,415564,579404,2128,726,1627,-959,2007,1282,741,2364,15,50,921
728618,411900,578296,415695,579535,2212,694,1428,-977,1863,1266,-111,2531,15,50,921
729619,412004,578516,415826,579666,2274,555,1227,-846,1811,1280,-674,2907,27,36,921
730620,412144,578780,415957,579797,2046,221,1023,-642,1797,1155,-430,3088,27,36,921
731621,412264,579008,416088,579928,2177,404,814,-481,1701,984,570,2613,32,36,922
732622,412380,579224,416219,580059,2209,442,634,-524,1519,954,856,2081,32,36,922
733623,412524,579432,416350,580190,2029,459,479,-560,1349,1105,724,2126,30,49,923
734624,412632,579612,416481,580321,2265,612,333,-627,1236,1204,557,2200,30,49,923
735625,412772,579884,416612,580452,2062,-25,212,-667,1145,1187,535,2107,19,45,923
736626,412912,580116,416743,580583,2058,181,121,-767,1035,1124,495,1900,19,45,923
737627,413044,580296,416874,580714,2109,484,37,-869,904,1160,321,1968,40,46,923
738628,413168,580488,417005,580845,2163,382,-72,-881,771,1154,135,2341,40,46,923
739629,413316,580656,417136,580976,2006,516,-202,-762,617,1000,518,2565,38,32,922
740630,413456,580816,417267,581107,2052,553,-371,-564,430,883,675,2787,38,32,922
741631,413576,580996,417398,581238,2183,408,-584,-275,217,702,690,3041,29,29,922
742632,413720,581160,417529,581369,2028,493,-831,8,-32,550,815,3096,29,29,922
743633,413840,581296,417660,581500,2183,666,-1084,266,-275,523,649,3062,37,23,923
744634,413980,581464,417791,581631,2055,450,-1329,460,-472,532,565,2915,37,23,923
745635,414124,581592,417922,581762,2026,701,-1566,598,-618,705,592,2661,21,32,922
746636,414260,581736,418053,581893,2074,595,-1773,613,-745,881,797,2205,21,32,922
747637,414368,581868,418184,582024,2259,670,-1951,483,-885,911,785,1968,36,32,923
748638,414492,581980,418315,582155,2164,803,-2115,315,-1044,812,513,1914,36,32,923
749639,414628,582084,418446,582286,2087,865,-2261,55,-1180,779,-63,1815,19,30,922
750640,414744,582176,418577,582417,2220,957,-2379,-149,-1261,798,-1088,2050,19,30,922
751641,414876,582300,418708,582548,2119,760,-2474,-332,-1319,629,-1541,2041,16,22,921
752642,415008,582416,418839,582679,2120,817,-2568,-452,-1393,467,-1509,2310,16,22,921
753643,415112,582540,418970,582810,2308,770,-2692,-546,-1491,311,-848,2580,25,15,921
754644,415224,582628,419101,582941,2266,1014,-2847,-570,-1619,206,-25,2853,25,15,921
755645,415364,582724,419232,583072,2088,979,-3014,-548,-1768,132,142,3003,21,17,921
756646,415476,582808,419363,583203,2273,1075,-3178,-588,-1902,-76,-67,2921,21,17,921
757647,415616,582920,419494,583334,2095,908,-3345,-661,-2015,-197,-516,3014,19,13,921
758648,415756,583032,419625,583465,2091,917,-3507,-660,-2101,-395,-1193,3189,19,13,921
759649,415912,583128,419756,583596,1981,1032,-3643,-672,-2147,-596,-2119,3422,28,27,921
760657,416044,583212,419896,583736,2135,1132,-3736,-636,-2175,-769,-2643,3627,28,27,921
761651,416176,583324,420027,583867,2136,966,-3796,-609,-2189,-997,-2866,3798,38,29,920
762652,416324,583412,420158,583998,2028,1135,-3845,-567,-2189,-1105,-2825,3935,38,29,920
763653,416432,583536,420289,584129,2289,913,-3886,-553,-2180,-1257,-2198,3952,32,18,920
764654,416588,583652,420420,584260,1979,970,-3913,-593,-2158,-1447,-1700,3884,32,18,920
765655,416704,583760,420551,584391,2237,1030,-3925,-682,-2114,-1493,-1620,3986,32,33,921
766656,416820,583892,420682,584522,2244,879,-3916,-839,-2056,-1548,-1574,3941,32,33,921
767657,416960,584028,420813,584653,2091,852,-3891,-1015,-1991,-1621,-1744,4003,34,25,920
768658,417088,584164,420944,584784,2168,850,-3859,-1256,-1913,-1600,-2299,3878,34,25,920
769659,417228,584292,421075,584915,2089,901,-3812,-1578,-1815,-1464,-2550,3870,17,19,921
770660,417376,584404,421206,585046,2033,1011,-3729,-1884,-1692,-1292,-2463,4001,17,19,921
771661,417520,584528,421337,585177,2053,939,-3596,-2242,-1564,-1237,-1990,3937,32,18,921
772662,417660,584660,421468,585308,2075,888,-2462,-1165,-1427,-276,-1352,17641,32,18,921
773663,417808,584788,421599,585439,2017,915,431,3694,-1255,895,-1162,32767,26,19,921
774665,417972,584916,421730,585570,1904,916,2386,5773,-1077,-324,-877,8309,26,19,921
775665,418124,585052,421861,585701,1971,864,2713,4650,-945,-375,-49,1219,40,36,921
776666,418264,585184,421992,585832,2043,888,2312,1994,-861,36,1,-83,40,36,921
777667,418404,585336,422123,585963,2039,754,2079,42,-780,374,48,691,18,25,922
778668,418556,585468,422254,586094,1956,880,1969,-1299,-605,152,-246,1296,18,25,922
779669,418692,585644,422385,586225,2054,585,1882,-2318,-441,293,-584,1666,18,37,922
780670,418852,585768,422516,586356,1892,913,1691,-3263,-337,186,-410,2092,18,37,922
781671,419008,585900,422647,586487,1907,862,1504,-4320,-278,-82,-263,1952,22,35,922
782672,419164,586020,422778,586618,1897,942,1245,-5163,-319,94,-476,2912,22,35,922
783673,419356,586116,422909,586749,1645,1108,974,-5750,-397,-204,-417,3471,21,18,922
784674,419500,586212,423040,586880,1940,1123,662,-6016,-497,-265,-20,4648,21,18,922
785675,419656,586312,423171,587011,1855,1112,321,-5881,-618,-182,-429,5631,21,22,922
786676,419824,586424,423302,587142,1764,1046,36,-5566,-689,-476,-473,6180,21,22,922
787677,419980,586528,423433,587273,1829,1108,-183,-5002,-728,-396,-509,6919,41,26,921
788678,420120,586640,423564,587404,1926,1066,-332,-4609,-735,-255,-441,6257,41,26,921
789679,420300,586712,423695,587535,1654,1342,-429,-4230,-684,-264,-267,6360,38,26,922
790680,420448,586808,423826,587666,1848,1208,-462,-3965,-602,-115,-344,5649,38,26,922
791681,420616,586880,423957,587797,1708,1383,-405,-4051,-519,29,-270,4789,22,19,921
792682,420816,586956,424088,587928,1477,1383,-284,-4169,-430,52,-113,4727,22,19,921
793683,420988,587020,424219,588059,1635,1488,-142,-4427,-330,126,-68,4126,23,21,921
794684,421148,587080,424350,588190,1699,1544,1,-4692,-214,239,-78,4207,23,21,921
795685,421324,587156,424481,588321,1579,1468,142,-4890,-87,211,158,4112,41,11,921
796686,421496,587240,424612,588452,1587,1439,316,-5163,27,250,106,3677,41,11,921
797687,421676,587288,424743,588583,1515,1701,497,-5401,134,171,18,3733,30,18,920
798688,421864,587352,424874,588714,1441,1631,707,-5713,235,-33,19,3563,30,18,920
799689,422044,587408,425005,588845,1471,1714,902,-5932,308,-98,140,3716,33,16,921
800690,422208,587472,425136,588976,1556,1693,1074,-6072,344,-409,281,3960,33,16,921
801691,422380,587544,425267,589107,1489,1670,1205,-6000,344,-662,65,4508,25,18,922
802692,422544,587604,425398,589238,1525,1777,1312,-5759,371,-574,-776,4754,25,18,922
803693,422700,587712,425529,589369,1565,1487,1423,-5489,417,-632,-856,4647,23,9,921
804694,422872,587796,425660,589500,1447,1657,1524,-5213,451,-633,-882,4703,23,9,921
805695,423036,587868,425791,589631,1483,1759,1603,-4956,473,-529,-947,4535,21,18,921
806696,423184,587968,425922,589762,1576,1598,1658,-4729,529,-377,-998,4516,21,18,921
807697,423336,588044,426053,589893,1542,1772,1710,-4484,624,-223,-893,4180,19,12,921
808698,423504,588132,426184,590024,1426,1717,1759,-4377,711,-56,-202,3778,19,12,921
809699,423660,588224,426315,590155,1491,1709,1785,-4281,778,100,357,3731,40,24,921
810700,423796,588300,426446,590286,1614,1834,1793,-4280,853,375,-106,3408,40,24,921
811701,423944,588372,426577,590417,1533,1885,1794,-4318,929,630,-431,3152,32,8,921
812702,424116,588464,426708,590548,1365,1777,1801,-4420,978,733,-284,2872,32,8,921
813703,424264,588508,426839,590679,1508,2117,1787,-4505,1000,893,-323,2862,38,8,920
814704,424436,588588,426970,590810,1340,1914,1738,-4532,1019,1045,-372,2928,38,8,920
815705,424600,588656,427101,590941,1377,2018,1682,-4534,1029,1102,-335,2921,27,8,920
816706,424740,588720,427232,591072,1523,2072,1622,-4500,1019,1162,-279,3057,27,8,920
817707,424904,588804,427363,591203,1359,1968,1551,-4439,997,1202,-105,3146,34,24,920
818708,425044,588880,427494,591334,1505,2043,1467,-4264,967,1271,-38,3294,34,24,920
819709,425176,588936,427625,591465,1556,2201,1380,-4119,922,1415,-227,3222,30,9,918
820710,425348,589004,427756,591596,1288,2155,1311,-3952,865,1357,-276,3135,30,9,918
821711,425488,589092,427887,591727,1485,2048,1239,-3804,789,1272,-369,3154,23,9,919
822712,425616,589196,428018,591858,1561,1961,1156,-3653,695,1223,-527,3080,23,9,919
823713,425776,589280,428149,591989,1349,2107,1054,-3534,601,1185,-604,3030,21,25,920
824714,425912,589356,428280,592120,1497,2182,931,-3332,516,1191,-524,2981,21,25,920
825715,426056,589444,428411,592251,1441,2126,787,-3227,445,1189,-312,2816,27,11,919
826716,426184,589520,428542,592382,1544,2226,630,-3160,383,1199,107,2673,27,11,919
827717,426332,589616,428673,592513,1411,2117,462,-3153,330,1204,313,2402,29,17,920
828718,426456,589696,428804,592644,1565,2240,297,-3186,286,1108,356,2120,29,17,920
829719,426616,589808,428935,592775,1328,2049,132,-3303,242,1009,154,2092,25,20,917
830720,426748,589884,429066,592906,1503,2299,-28,-3407,203,875,-87,2022,25,20,917
831721,426868,589976,429197,593037,1583,2217,-184,-3498,173,805,-196,2087,34,10,917
832722,427008,590052,429328,593168,1455,2341,-492,-3660,135,557,-112,2046,34,10,917
833723,427140,590164,429459,593299,1505,2125,-648,-3702,131,474,-84,2186,21,13,918
834724,427268,590252,429590,593430,1531,2294,-802,-3767,141,340,-141,2210,21,13,918
835725,427380,590344,429721,593561,1640,2287,-955,-3741,155,284,-345,2330,27,15,918
836726,427532,590440,429852,593692,1381,2279,-1112,-3748,166,208,-252,2338,27,15,918
837727,427664,590544,429983,593823,1507,2240,-1260,-3747,179,174,-80,2401,35,12,918
838728,427812,590636,430114,593954,1399,2334,-1405,-3719,202,221,-49,2559,35,12,918
839729,427936,590740,430245,594085,1553,2271,-1530,-3660,251,212,-36,2606,38,15,918
840730,428072,590824,430376,594216,1476,2417,-1640,-3629,303,156,87,2601,38,15,918
841731,428232,590928,430507,594347,1314,2305,-1738,-3645,344,179,-49,2574,42,13,918
842732,428416,591004,430638,594478,1141,2504,-1827,-3677,394,261,-398,2613,42,13,918
843733,428580,591096,430769,594609,1251,2422,-1905,-3696,443,336,-416,2647,23,27,918
844734,428732,591216,430900,594740,1318,2253,-1965,-3725,490,333,-519,2704,23,27,918
845735,428888,591316,431031,594871,1282,2392,-2011,-3787,529,430,-750,2847,38,26,919
846736,429048,591396,431162,595002,1246,2540,-2046,-3857,545,520,-703,2837,38,26,919
847737,429216,591480,431293,595133,1179,2537,-2095,-3910,541,573,-576,3019,21,26,919
848738,429384,591564,431424,595264,1163,2558,-2125,-3886,519,601,-473,3135,21,26,919
849739,429548,591664,431555,595395,1174,2472,-2142,-3927,481,711,-351,3185,30,30,918
850740,429732,591780,431686,595526,1026,2380,-2186,-3887,454,907,-461,3548,30,30,918
851741,429932,591884,431817,595657,897,2468,-2247,-3818,433,947,-242,3621,46,17,916
852742,430088,591992,431948,595788,1161,2453,-2303,-3770,398,1008,-154,3633,46,17,916
853743,430248,592088,432079,595919,1123,2544,-2336,-3791,357,1042,-160,3622,36,17,919
854744,430432,592180,432210,596050,951,2587,-2352,-3800,332,1067,-161,3753,36,17,919
855745,430640,592280,432341,596181,767,2552,-2368,-3795,325,1076,-191,3864,44,27,919
856746,430772,592368,432472,596312,1242,2646,-2369,-3796,331,1022,-398,3888,44,27,919
857747,430968,592472,432603,596443,814,2559,-2368,-3768,345,1069,-500,4008,42,27,918
858748,431120,592576,432734,596574,1080,2571,-2351,-3755,346,1037,-187,4047,42,27,918
859749,431292,592656,432865,596705,937,2745,-2330,-3746,342,971,-238,4314,22,15,917
860750,431468,592796,432996,596836,893,2366,-2307,-3663,345,891,-341,4470,22,15,917
861751,431620,592920,433127,596967,1034,2470,-2276,-3603,360,850,-247,4478,21,28,917
862752,431780,593032,433258,597098,971,2554,-2254,-3531,380,796,-132,4613,21,28,917
863753,431924,593140,433389,597229,1065,2590,-2211,-3491,402,666,-89,4537,29,17,919
864754,432088,593272,433520,597360,927,2440,-2175,-3448,420,591,-142,4691,29,17,919
865755,432220,593392,433651,597491,1126,2521,-2144,-3375,447,496,-232,4846,30,29,919
866756,432352,593528,433782,597622,1126,2420,-2121,-3331,483,438,-265,4820,30,29,919
867757,432452,593632,433913,597753,1341,2632,-2105,-3287,525,457,-320,4927,18,25,920
868758,432564,593752,434044,597884,1274,2538,-2063,-3228,585,404,-346,4968,18,25,920
869759,432660,593844,434175,598015,1389,2730,-2031,-3207,645,416,-350,5000,31,26,919
870760,432772,593952,434306,598146,1298,2642,-1995,-3191,701,450,-378,5047,31,26,919
871761,432896,594052,434437,598277,1227,2706,-1954,-3192,771,444,-431,5075,18,29,918
872762,433000,594200,434568,598408,1364,2400,-1912,-3169,834,434,-378,5267,18,29,918
873763,433152,594336,434699,598539,1054,2474,-1856,-3159,886,406,-395,5233,15,35,915
874764,433264,594440,434830,598670,1314,2685,-1700,-3055,931,499,-497,6274,15,35,915
875765,433384,594584,434961,598801,1269,2431,-726,-1296,1036,839,-1109,21079,20,33,918
876766,433544,594720,435092,598932,1006,2479,558,595,1139,410,-880,15632,20,33,918
877767,433660,594848,435223,599063,1287,2532,1071,722,1148,545,-162,3918,16,33,916
878768,433772,594960,435354,599194,1322,2641,988,-264,1151,609,-499,3381,16,33,916
879769,433916,595088,435485,599325,1116,2542,787,-1321,1176,632,-834,3305,35,33,919
880770,434020,595204,435616,599456,1378,2625,679,-1986,1191,381,-684,3638,35,33,919
881771,434136,595304,435747,599587,1310,2740,622,-2533,1164,272,-461,3447,27,16,917
882772,434276,595428,435878,599718,1157,2594,504,-2946,1091,347,-309,4055,27,16,917
883773,434380,595544,436009,599849,1393,2651,336,-3262,1017,111,18,4381,30,16,915
884774,434484,595652,436140,599980,1406,2711,132,-3503,948,21,139,4787,30,16,915
885784,434612,595740,436280,600120,1262,2860,-79,-3637,873,-104,286,4977,13,13,916
886776,434720,595836,436411,600251,1397,2827,-278,-3726,801,-349,437,5185,13,13,916
887777,434812,595948,436542,600382,1514,2736,-454,-3688,728,-465,264,5474,12,15,916
888778,434932,596064,436673,600513,1345,2719,-591,-3770,690,-586,87,5240,12,15,916
889779,435036,596144,436804,600644,1456,2967,-661,-3849,709,-658,-60,5305,11,27,915
890780,435120,596248,436935,600775,1602,2829,-670,-3932,759,-687,-267,5010,11,27,915
891781,435232,596348,437066,600906,1436,2869,-645,-4119,841,-837,-461,4838,30,27,916
892782,435364,596424,437197,601037,1311,3044,-604,-4340,966,-853,-689,4994,30,27,916
893783,435476,596536,437328,601168,1445,2828,-542,-4534,1119,-822,-861,4885,28,23,914
894784,435596,596660,437459,601299,1400,2757,-476,-4672,1281,-833,-930,5056,28,23,914
895785,435740,596752,437590,601430,1244,2975,-413,-4743,1438,-880,-967,5161,34,24,914
896786,435844,596868,437721,601561,1507,2833,-354,-4791,1582,-932,-1000,5275,34,24,914
897787,435952,596996,437852,601692,1492,2760,-304,-4758,1715,-1037,-1048,5611,30,20,916
898788,436116,597112,437983,601823,1128,2843,-246,-4696,1837,-1046,-968,5595,30,20,916
899789,436264,597240,438114,601954,1221,2769,-179,-4633,1936,-989,-841,5692,26,32,915
900790,436388,597380,438245,602085,1375,2691,-107,-4525,2024,-1020,-887,5676,26,32,915
901791,436532,597512,438376,602216,1244,2742,-24,-4445,2100,-995,-835,5571,17,26,916
902792,436664,597644,438507,602347,1319,2742,79,-4355,2161,-1024,-733,5548,17,26,916
903793,436800,597760,438638,602478,1292,2850,193,-4315,2236,-1111,-809,5569,21,20,916
904794,436932,597904,438769,602609,1317,2670,311,-4262,2307,-1147,-723,5575,21,20,916
905795,437072,598024,438900,602740,1264,2826,438,-4271,2364,-1059,-471,5345,35,35,915
906796,437184,598160,439031,602871,1447,2725,563,-4289,2424,-923,-405,5342,35,35,915
907797,437336,598308,439162,603002,1188,2643,680,-4351,2474,-796,-295,5207,18,35,915
908798,437480,598420,439293,603133,1233,2878,797,-4441,2506,-719,-153,5100,18,35,915
909799,437624,598560,439424,603264,1228,2699,913,-4502,2546,-613,-161,5223,19,32,916
910800,437768,598704,439555,603395,1222,2669,1019,-4546,2592,-505,-149,5205,19,32,916
911801,437896,598836,439686,603526,1324,2745,1113,-4606,2637,-438,-202,5250,38,24,915
912802,438044,598968,439817,603657,1192,2745,1193,-4571,2690,-392,-368,5405,38,24,915
913803,438200,599072,439948,603788,1131,2933,1267,-4519,2734,-429,-369,5393,24,25,917
914804,438344,599212,440079,603919,1201,2705,1336,-4481,2768,-375,-373,5355,24,25,917
915805,438460,599328,440210,604050,1383,2863,1401,-4469,2797,-269,-347,5358,24,31,917
916806,438600,599476,440341,604181,1229,2656,1454,-4410,2839,-235,-367,5475,24,31,917
917807,438744,599592,440472,604312,1199,2864,1496,-4324,2863,-182,-335,5489,20,16,916
918808,438876,599724,440603,604443,1273,2763,1539,-4304,2860,-141,-272,5305,20,16,916
919809,439008,599816,440734,604574,1273,3031,1578,-4302,2839,-24,-187,5217,30,13,915
920810,439164,599936,440865,604705,1113,2862,1617,-4309,2809,107,98,5056,30,13,915
921811,439292,600056,440996,604836,1289,2868,1648,-4361,2795,119,317,4957,26,18,916
922812,439420,600144,441127,604967,1291,3088,1670,-4411,2775,91,337,4902,26,18,916
923813,439544,600252,441258,605098,1320,2974,1695,-4495,2751,184,296,4807,26,11,915
924814,439668,600376,441389,605229,1323,2878,1728,-4576,2726,209,362,4791,26,11,915
925815,439788,600476,441520,605360,1353,3043,1765,-4669,2688,175,351,4611,22,28,914
926816,439928,600592,441651,605491,1225,2950,1802,-4731,2653,144,153,4572,22,28,914
927817,440068,600704,441782,605622,1221,2985,1811,-4735,2631,80,-10,4687,16,18,914
928818,440184,600836,441913,605753,1377,2860,1794,-4751,2613,39,-108,4662,16,18,914
929819,440308,600968,442044,605884,1331,2861,1784,-4758,2598,112,-18,4548,19,18,913
930820,440436,601108,442175,606015,1308,2808,1804,-4836,2601,191,222,4363,19,18,913
931821,440540,601260,442306,606146,1470,2724,1831,-4820,2588,139,512,4508,34,21,915
932822,440660,601408,442437,606277,1375,2742,1833,-4758,2556,57,631,4565,34,21,915
933823,440784,601560,442568,606408,1353,2709,1812,-4683,2536,-98,544,4453,21,28,916
934824,440908,601676,442699,606539,1357,2942,1795,-4635,2535,-232,319,4372,21,28,916
935825,441044,601800,442830,606670,1280,2896,1808,-4640,2537,-327,377,4121,16,30,916
936826,441164,601936,442961,606801,1385,2819,1834,-4657,2549,-318,440,4002,16,30,916
937827,441264,602064,443092,606932,1524,2872,1867,-4695,2584,-239,450,3750,19,17,915
938828,441364,602208,443223,607063,1538,2767,1909,-4784,2633,-221,481,3690,19,17,915
939829,441472,602348,443354,607194,1499,2789,1961,-4818,2676,-301,531,3517,23,25,914
940830,441584,602512,443485,607325,1482,2626,2028,-4886,2687,-369,553,3401,23,25,914
941831,441708,602664,443616,607456,1411,2692,2082,-4919,2688,-391,324,3555,36,33,915
942832,441820,602864,443747,607587,1494,2363,2117,-4886,2708,-300,244,3573,36,33,915
943833,441924,603040,443878,607718,1557,2494,2150,-4827,2751,-235,283,3501,18,23,916
944834,442040,603188,444009,607849,1489,2662,2151,-4687,2808,-354,-94,3840,18,23,916
945835,442156,603324,444140,607980,1495,2736,2126,-4461,2881,-417,-248,3908,30,23,917
946836,442256,603500,444271,608111,1610,2467,2094,-4292,2935,-373,-120,3649,30,23,917
947837,442372,603664,444402,608242,1517,2528,2063,-4186,2990,-235,68,3341,18,25,916
948838,442464,603872,444533,608373,1684,2220,2012,-4136,3020,-57,17,3226,18,25,916
949839,442568,604024,444664,608504,1622,2562,1949,-4124,3052,113,-1,3038,14,27,916
950840,442676,604188,444795,608635,1607,2474,1872,-4099,3105,163,-210,3119,14,27,916
951841,442792,604340,444926,608766,1564,2541,1771,-3957,3169,96,-413,3249,12,35,916
952842,442888,604492,445057,608897,1705,2531,1662,-3838,3222,86,-538,3102,12,35,916
953843,442972,604668,445188,609028,1800,2363,1564,-3788,3253,242,-344,2854,11,25,917
954844,443068,604820,445319,609159,1742,2504,1473,-3848,3249,412,-190,2641,11,25,917
955845,443144,604968,445450,609290,1891,2523,1373,-3895,3247,559,-214,2448,27,34,915
956846,443220,605104,445581,609421,1916,2597,1276,-4026,3242,668,-54,2188,27,34,915
957847,443308,605316,445712,609552,1860,2086,1188,-4200,3218,830,91,1986,19,40,916
958848,443400,605536,445843,609683,1853,1998,1098,-4369,3165,941,126,2017,19,40,916
959849,443488,605744,445974,609814,1897,2040,999,-4481,3118,992,108,2150,18,33,914
960850,443576,605928,446105,609945,1917,2168,899,-4537,3085,1071,99,2233,18,33,914
961851,443672,606060,446236,610076,1882,2493,796,-4553,3040,1030,83,2341,14,30,917
962852,443760,606248,446367,610207,1952,2118,698,-4521,2960,1094,247,2266,14,30,917
963853,443852,606468,446498,610338,1944,1880,605,-4531,2864,1235,253,2264,9,43,917
964854,443948,606680,446629,610469,1936,1896,500,-4493,2813,1270,172,2533,9,43,917
965855,444048,606884,446760,610600,1924,1915,397,-4382,2801,1248,281,2607,11,46,916
966856,444164,607068,446891,610731,1832,2016,319,-4204,2769,1107,320,2529,11,46,916
967857,444256,607264,447022,610862,1999,1914,255,-4049,2729,923,264,2650,33,41,918
968858,444380,607432,447153,610993,1803,2073,204,-3904,2691,1070,309,2543,33,41,918
969859,444496,607612,447284,611124,1860,1977,166,-3768,2674,1188,307,2516,14,35,918
970860,444588,607820,447415,611255,2028,1769,138,-3629,2686,1180,292,2573,14,35,918
971861,444700,608028,447546,611386,1911,1736,123,-3518,2692,1061,243,2495,26,35,917
972862,444828,608212,447677,611517,1814,1863,110,-3396,2672,997,205,2463,26,35,917
973863,444932,608376,447808,611648,1975,1974,87,-3249,2649,1073,174,2511,17,26,917
974864,445044,608544,447939,611779,1935,1934,52,-3106,2653,1151,65,2508,17,26,917
975865,445172,608716,448070,611910,1836,1891,17,-2962,2662,1169,164,2428,31,35,919
976866,445284,608860,448201,612041,1945,2061,-4,-2849,2654,1164,291,2372,31,35,919
977867,445416,609012,448332,612172,1821,2002,-22,-2771,2621,1122,369,2382,17,39,918
978868,445564,609156,448463,612303,1713,2047,-51,-2641,2599,964,247,2665,17,39,918
979869,445708,609376,448594,612434,1734,1534,-86,-2430,2590,752,218,2735,19,47,917
980870,445844,609592,448725,612565,1782,1522,-122,-2243,2568,659,164,2576,19,47,917
981871,445984,609816,448856,612696,1754,1432,-156,-2111,2545,780,83,2413,19,38,918
982872,446112,609992,448987,612827,1830,1712,-192,-2056,2536,850,-40,2312,19,38,918
983873,446232,610160,449118,612958,1886,1747,-225,-2075,2540,730,-374,2269,23,29,919
984874,446364,610332,449249,613089,1810,1704,-250,-2093,2546,713,-472,2114,23,29,919
985875,446496,610504,449380,613220,1811,1687,-275,-2149,2547,874,-265,2044,20,30,919
986876,446644,610740,449511,613351,1703,1241,-323,-2205,2523,958,37,2181,20,30,919
987877,446808,610952,449642,613482,1590,1356,-401,-2180,2486,889,116,2347,33,45,920
988878,446980,611156,449773,613613,1523,1374,-491,-2065,2454,718,-9,2606,33,45,920
989879,447116,611344,449904,613744,1746,1450,-577,-1959,2440,641,-54,2739,42,35,922
990880,447252,611504,450035,613875,1744,1612,-654,-1843,2424,716,11,2702,42,35,922
991881,447400,611660,450166,614006,1662,1627,-734,-1776,2390,918,147,2717,34,35,923
992882,447536,611852,450297,614137,1736,1376,-812,-1740,2350,1053,176,2719,34,35,923
993883,447672,612072,450428,614268,1734,1163,-891,-1667,2306,1078,60,2799,19,30,919
994884,447816,612268,450559,614399,1679,1284,-971,-1566,2269,1041,149,2848,19,30,919
995885,447968,612468,450690,614530,1620,1229,-1056,-1498,2227,1017,211,2989,19,44,921
996886,448104,612664,450821,614661,1718,1226,-1137,-1434,2196,1094,144,3019,19,44,921
997887,448280,612848,450952,614792,1449,1278,-1219,-1349,2166,1053,97,3115,41,27,922
998888,448404,613004,451083,614923,1778,1443,-1289,-1316,2141,1040,-56,2978,41,27,922
999889,448552,613168,451214,615054,1620,1378,-1331,-1362,2107,1106,87,2733,27,40,921
1000890,448712,613380,451345,615185,1534,1043,-1351,-1429,2067,1235,363,2718,27,40,921
1001891,448844,613596,451476,615316,1708,981,-1370,-1505,2035,1267,524,2833,40,38,921
1002892,448980,613812,451607,615447,1682,944,-1397,-1545,2006,1163,428,3160,40,38,921
1003893,449104,613996,451738,615578,1760,1121,-1430,-1491,1991,1103,383,3420,21,43,923
1004894,449256,614164,451869,615709,1577,1205,-1481,-1358,1969,1012,418,3777,21,43,923
1005895,449364,614340,452000,615840,1862,1136,-1542,-1199,1920,929,537,3893,29,26,922
1006896,449484,614512,452131,615971,1793,1143,-1593,-1011,1871,911,560,3929,29,26,922
1007897,449620,614668,452262,616102,1691,1232,-1644,-834,1831,882,339,4027,14,37,923
1008898,449724,614896,452393,616233,1903,740,-1691,-773,1810,908,103,3956,14,37,923
1009899,449844,615100,452524,616364,1808,858,-1739,-734,1793,932,-15,3947,16,40,922
1010907,449976,615284,452664,616504,1738,964,-1786,-661,1780,941,131,3983,16,40,922
1011901,450108,615468,452795,616635,1737,940,-1825,-634,1800,1063,123,3960,17,26,922
1012902,450224,615628,452926,616766,1845,1079,-1839,-626,1818,1046,124,3901,17,26,922
1013903,450372,615808,453057,616897,1637,932,-1821,-721,1802,1043,216,3678,38,26,923
1014904,450484,615956,453188,617028,1872,1125,-1791,-856,1759,1127,238,3739,38,26,923
1015905,450628,616092,453319,617159,1666,1197,-1756,-1000,1736,1151,216,3856,23,28,922
1016907,450776,616264,453450,617290,1635,955,-1710,-1084,1737,1111,177,4059,23,28,922
1017907,450928,616460,453581,617421,1600,777,-1657,-1134,1710,1027,306,4127,38,31,921
1018909,451056,616648,453712,617552,1753,802,-1608,-1165,1659,945,334,4323,38,31,921
1019909,451168,616852,453843,617683,1861,670,-1585,-1115,1610,982,255,4707,31,30,923
1020910,451284,617024,453974,617814,1844,852,-1587,-1041,1569,958,172,4908,31,30,923
1021912,451396,617172,454105,617945,1877,994,-1604,-867,1544,879,40,5159,20,40,923
1022912,451512,617352,454236,618076,1860,774,-1618,-726,1507,833,144,5107,20,40,923
1023913,451632,617484,454367,618207,1839,1073,-1623,-682,1457,976,257,4934,26,25,923
1024914,451724,617648,454498,618338,2033,859,-1619,-660,1407,1240,491,4768,26,25,923
1025915,451828,617832,454629,618469,1970,710,-1624,-715,1376,1282,342,4645,27,37,923
1026916,451952,617992,454760,618600,1848,848,-1667,-789,1366,1141,-47,4878,27,37,923
1027917,452072,618156,454891,618731,1879,808,-1719,-839,1375,1006,-147,4833,34,38,921
1028918,452228,618328,455022,618862,1643,740,-1748,-968,1382,978,-32,4493,34,38,921
1029919,452356,618472,455153,618993,1821,909,-1762,-1171,1373,899,-169,4442,38,27,923
1030920,452468,618644,455284,619124,1929,716,-1794,-1346,1354,861,-398,4679,38,27,923
1031921,452596,618772,455415,619255,1831,994,-1851,-1418,1336,855,-566,4831,16,35,923
1032923,452716,618916,455546,619386,1886,888,-1909,-1561,1306,717,-510,4696,16,35,923
1033923,452812,619096,455677,619517,2053,642,-1956,-1764,1252,551,-524,4677,18,39,923
1034924,452916,619288,455808,619648,2014,540,-2010,-1967,1196,580,-659,4691,18,39,923
1035925,453048,619464,455939,619779,1840,620,-2097,-2121,1145,539,-775,4759,31,37,922
1036926,453148,619620,456070,619910,2054,734,-2178,-2291,1090,404,-862,4742,31,37,922
1037927,453252,619760,456201,620041,2041,830,-2262,-2546,1026,370,-941,4673,33,28,922
1038928,453376,619908,456332,620172,1921,773,-2340,-2731,969,399,-964,4869,33,28,922
1039929,453496,620028,456463,620303,1950,952,-2417,-2897,914,415,-891,4954,14,36,921
1040930,453632,620144,456594,620434,1849,984,-2490,-3093,854,501,-759,4883,14,36,921
1041931,453768,620296,456725,620565,1847,750,-2541,-3295,791,572,-659,4851,17,31,922
1042932,453876,620432,456856,620696,2033,848,-2585,-3514,747,555,-900,4871,17,31,922
1043933,453980,620592,456987,620827,2070,685,-2609,-3746,715,587,-889,4666,32,35,922
1044934,454096,620716,457118,620958,2003,913,-2609,-4084,705,607,-983,4578,32,35,922
1045935,454204,620832,457249,621089,2064,969,-2605,-4444,703,679,-1050,4680,31,20,922
1046936,454328,620988,457380,621220,1967,708,-2602,-4752,704,974,-1083,4583,31,20,922
1047937,454468,621092,457511,621351,1864,1045,-2584,-5101,712,1164,-1030,4470,34,14,921
1048938,454580,621192,457642,621482,2047,1085,-2570,-5460,727,1191,-1174,4687,34,14,921
1049939,454700,621308,457773,621613,2003,992,-2566,-5671,743,1187,-1289,4986,30,22,922
1050940,454840,621412,457904,621744,1874,1078,-2553,-5817,750,1291,-1110,5029,30,22,922
1051941,454996,621516,458035,621875,1764,1090,-2533,-5941,743,1433,-1057,5161,28,22,921
1052942,455120,621644,458166,622006,1968,942,-2501,-6101,724,1567,-979,5263,28,22,921
1053943,455248,621768,458297,622137,1944,970,-2441,-6200,704,1741,-967,5323,15,17,921
1054944,455356,621888,458428,622268,2081,999,-2350,-6274,684,1815,-900,5335,15,17,921
1055945,455456,622016,458559,622399,2144,951,-2214,-6338,651,1804,-904,5321,30,13,922
1056946,455564,622112,458690,622530,2105,1166,-2092,-6337,612,1921,-1055,5572,30,13,922
1057947,455680,622228,458821,622661,2063,1048,-1984,-6282,562,2155,-992,5662,31,25,921
1058948,455784,622324,458952,622792,2150,1188,-1872,-6188,511,2258,-967,5778,31,25,921
1059949,455888,622432,459083,622923,2163,1123,-1749,-6044,442,2294,-844,5787,28,11,918
1060950,456040,622528,459214,623054,1853,1214,-1607,-5970,360,2407,-773,5653,28,11,918
1061951,456168,622612,459345,623185,2006,1309,-1453,-5830,279,2495,-797,5652,20,23,919
1062952,456292,622696,459476,623316,2035,1331,-1306,-5692,198,2510,-932,5659,20,23,919
1063953,456448,622796,459607,623447,1824,1245,-1158,-5531,124,2508,-1223,5599,20,22,922
1064954,456564,622888,459738,623578,2081,1312,-994,-5424,61,2525,-1352,5458,20,22,922
1065955,456660,622952,459869,623709,2222,1516,-823,-5285,9,2590,-1540,5453,20,24,919
1066956,456792,623036,460000,623840,1997,1412,-662,-5124,-53,2614,-1688,5405,20,24,919
1067957,456904,623112,460131,623971,2132,1486,-498,-4967,-119,2592,-1780,5129,19,19,920
1068958,457012,623244,460262,624102,2167,1136,-317,-4878,-186,2702,-1785,4934,19,19,920
1069959,457152,623356,460393,624233,1964,1270,-134,-4768,-252,2723,-1918,4910,13,28,920
1070960,457268,623480,460524,624364,2120,1198,32,-4637,-300,2458,-2227,5099,13,28,920
1071961,457396,623580,460655,624495,2048,1362,176,-4398,-341,2186,-2467,5137,26,26,919
1072962,457552,623664,460786,624626,1863,1482,311,-4157,-380,2124,-2580,5090,26,26,919
1073963,457692,623760,460917,624757,1959,1423,446,-3879,-393,2185,-2726,5072,24,23,920
1074964,457832,623872,461048,624888,1956,1331,594,-3621,-394,2166,-2727,4791,24,23,920
1075965,457976,623936,461179,625019,1926,1661,756,-3450,-408,2071,-2572,4614,15,20,920
1076966,458112,624024,461310,625150,1974,1530,921,-3286,-427,1968,-2585,4728,15,20,920
1077967,458224,624120,461441,625281,2133,1496,1074,-3032,-439,1969,-2631,4747,28,23,920
1078968,458348,624208,461572,625412,2061,1565,1219,-2722,-416,1931,-2602,4680,28,23,920
1079969,458500,624288,461703,625543,1878,1638,1347,-2453,-369,1940,-2352,4608,20,24,919
1080970,458624,624376,461834,625674,2057,1607,1473,-2221,-325,1913,-2092,4403,20,24,919
1081971,458772,624476,461965,625805,1900,1546,1597,-1984,-277,1794,-2000,4265,35,26,918
1082973,458924,624560,462096,625936,1866,1666,1724,-1759,-204,1669,-2079,4166,35,26,918
1083973,459056,624672,462227,626067,1991,1501,1828,-1548,-98,1539,-2167,4280,23,18,918
1084974,459212,624772,462358,626198,1831,1589,1904,-1316,37,1430,-2076,4258,23,18,918
1085976,459344,624864,462489,626329,1982,1656,1950,-1002,159,1397,-2032,4271,37,24,919
1086976,459488,624928,462620,626460,1901,1861,1989,-682,265,1304,-1991,4107,37,24,919
1087978,459652,624996,462751,626591,1762,1864,2026,-437,365,1309,-1852,3901,39,12,920
1088978,459816,625092,462882,626722,1748,1705,2064,-321,466,1512,-1663,3494,39,12,920
1089979,459964,625180,463013,626853,1841,1774,2091,-273,586,1605,-1644,3393,21,11,918
1090980,460132,625276,463144,626984,1701,1740,2106,-186,699,1519,-1678,3246,21,11,918
1091981,460320,625344,463275,627115,1551,1943,2115,-129,782,1448,-1628,2920,24,8,919
1092982,460512,625428,463406,627246,1500,1863,2113,-128,849,1580,-1499,2978,24,8,919
1093983,460680,625508,463537,627377,1634,1912,2095,-48,935,1661,-1502,3049,33,25,919
1094984,460864,625612,463668,627508,1512,1774,2078,18,1006,1480,-1285,2893,33,25,919
1095985,461056,625704,463799,627639,1435,1866,2080,59,1059,1219,-1007,2917,44,26,920
1096986,461204,625796,463930,627770,1703,1884,2077,176,1133,1061,-1058,3130,44,26,920
1097987,461384,625888,464061,627901,1482,1901,2030,454,1256,1050,-1474,3469,38,30,920
1098988,461536,625988,464192,628032,1649,1865,1976,722,1368,856,-1300,3167,38,30,920
1099989,461720,626112,464323,628163,1425,1719,1946,819,1396,651,-1002,2657,43,20,919
1100990,461916,626244,464454,628294,1323,1668,1923,682,1338,670,-815,2036,43,20,919
1101991,462100,626352,464585,628425,1375,1829,1875,457,1258,828,-595,1941,24,19,920
1102992,462272,626448,464716,628556,1433,1920,1778,279,1204,930,-495,2002,24,19,920
1103993,462492,626580,464847,628687,1093,1694,1667,44,1146,689,-476,1677,26,20,920
1104994,462704,626700,464978,628818,1109,1775,1549,-141,1077,499,-463,1711,26,20,920
1105995,462888,626784,465109,628949,1261,2021,1442,-366,1022,546,-426,1642,50,30,920
1106996,463100,626916,465240,629080,1051,1721,1335,-646,986,491,-372,1630,50,30,920
1107997,463288,627036,465371,629211,1176,1801,1236,-872,971,308,-428,1668,47,14,922
1108998,463508,627136,465502,629342,937,1940,1135,-1132,967,240,-435,1663,47,14,922
1109999,463712,627252,465633,629473,1006,1848,1028,-1372,983,369,-409,1831,42,19,922
1111000,463892,627392,465764,629604,1134,1694,916,-1563,1017,431,-191,1885,42,19,922
1112001,464060,627536,465895,629735,1193,1664,812,-1723,1040,365,-26,1850,30,16,921
1113002,464236,627656,466026,629866,1124,1819,700,-1956,1042,306,139,1842,30,16,921
1114003,464384,627780,466157,629997,1292,1797,568,-2161,1026,396,417,1977,20,14,922
1115004,464536,627900,466288,630128,1258,1828,411,-2316,992,615,705,1944,20,14,922
1116005,464688,628004,466419,630259,1249,1939,254,-2541,950,765,884,1796,29,23,921
1117006,464824,628136,466550,630390,1347,1765,95,-2836,904,1081,1042,1705,29,23,921
1118007,464980,628244,466681,630521,1211,1925,-82,-3145,853,1440,1271,1693,38,20,921
1119008,465152,628368,466812,630652,1094,1829,-282,-3404,798,1538,1400,1901,38,20,921
1120009,465308,628472,466943,630783,1183,1966,-488,-3561,746,1429,1411,2137,38,29,921
1121010,465448,628584,467074,630914,1279,1925,-674,-3671,700,1244,1419,2404,38,29,921
1122011,465600,628700,467205,631045,1196,1907,-856,-3590,669,1061,1384,2953,23,25,922
1123012,465772,628860,467336,631176,1053,1619,-1033,-3415,642,878,1322,3198,23,25,922
1124013,465912,628984,467467,631307,1249,1848,-1202,-3166,609,756,1275,3394,18,33,921
1125014,466048,629100,467598,631438,1273,1905,-1355,-2947,575,744,1354,3385,18,33,921
1126015,466172,629216,467729,631569,1351,1913,-1494,-2797,529,968,1474,3218,23,31,922
1127016,466300,629324,467860,631700,1327,1973,-1618,-2721,469,1247,1482,2949,23,31,922
1128017,466436,629496,467991,631831,1276,1556,-1719,-2715,407,1426,1225,2727,22,14,920
1129018,466572,629592,468122,631962,1274,2046,-1820,-2800,355,1681,711,2584,22,14,920
1130019,466708,629724,468253,632093,1271,1822,-1927,-2885,289,1885,662,2541,16,20,920
1131020,466816,629856,468384,632224,1457,1821,-2058,-2926,216,1918,698,2744,16,20,920
1132021,466944,629968,468515,632355,1334,1954,-2188,-2889,160,1832,497,2881,18,20,920
1133022,467080,630088,468646,632486,1282,1910,-2366,-2855,108,1637,708,3130,18,20,920
1134023,467188,630224,468777,632617,1467,1808,-2578,-2740,54,1544,770,3473,32,33,921
1135024,467312,630360,468908,632748,1371,1807,-2803,-2546,4,1556,697,3535,32,33,921
1136032,467464,630476,469048,632888,1191,1942,-3018,-2280,-51,1493,778,3700,34,17,921
1137026,467580,630576,469179,633019,1422,2057,-3204,-1960,-108,1255,673,4014,34,17,921
1138027,467720,630700,469310,633150,1269,1910,-3338,-1587,-156,875,239,4281,13,15,920
1139028,467828,630828,469441,633281,1479,1887,-3420,-1280,-177,599,-278,4263,13,15,920
1140029,467932,630944,469572,633412,1516,1969,-3459,-975,-168,545,-561,4287,12,15,919
1141030,468048,631064,469703,633543,1448,1950,-3453,-722,-119,554,-779,4019,12,15,919
1142031,468152,631192,469834,633674,1536,1901,-3390,-625,-55,438,-700,3755,8,32,920
1143032,468224,631304,469965,633805,1762,2011,-3292,-645,5,202,-446,3521,8,32,920
1144033,468348,631436,470096,633936,1440,1885,-3184,-689,81,51,-367,3588,28,27,920
1145034,468444,631568,470227,634067,1631,1885,-3109,-708,171,12,-205,3742,28,27,920
1146035,468524,631708,470358,634198,1753,1832,-3074,-758,269,-110,-11,3748,16,24,918
1147036,468608,631852,470489,634329,1749,1801,-3067,-820,358,-307,10,3805,16,24,918
1148037,468724,631972,470620,634460,1557,1957,-3082,-873,431,-457,-156,4002,7,27,917
1149038,468804,632128,470751,634591,1804,1721,-3116,-859,509,-589,-387,4295,7,27,917
1150039,468928,632260,470882,634722,1533,1871,-3158,-742,600,-717,-487,4652,27,35,918
1151040,469040,632388,471013,634853,1617,1898,-3184,-655,696,-828,-416,4710,27,35,918
1152041,469148,632556,471144,634984,1652,1632,-3173,-625,790,-867,-285,4615,21,26,919
1153042,469256,632684,471275,635115,1663,1884,-3120,-677,878,-936,-87,4458,21,26,919
1154043,469376,632820,471406,635246,1593,1833,-3043,-806,949,-1033,93,4465,13,37,919
1155044,469476,632956,471537,635377,1731,1830,-2970,-951,1003,-1120,78,4647,13,37,919
1156045,469576,633136,471668,635508,1746,1535,-2912,-1025,1059,-1167,22,4932,12,35,919
1157046,469700,633272,471799,635639,1599,1808,-2859,-1047,1136,-1213,-47,5142,12,35,919
1158047,469800,633404,471930,635770,1764,1832,-2699,-1016,1247,-1203,-274,5956,14,34,919
1159048,469928,633556,472061,635901,1590,1699,-1123,1654,1590,-1436,-2205,30453,14,34,919
1160049,470040,633692,472192,636032,1698,1797,1199,5622,2047,-1415,-2228,30215,15,25,919
1161050,470160,633848,472323,636163,1654,1662,2204,6452,2188,-607,805,3633,15,25,919
1162051,470280,633972,472454,636294,1659,1865,2027,4803,2106,-422,1089,1602,30,26,920
1163052,470408,634120,472585,636425,1611,1708,1690,2552,1984,-26,742,605,30,26,920
1164053,470504,634248,472716,636556,1827,1835,1486,926,1975,17,434,1529,18,29,920
1165054,470616,634364,472847,636687,1735,1917,1386,-263,2079,-19,119,1514,18,29,920
1166055,470752,634516,472978,636818,1584,1683,1177,-1205,2174,89,-240,2415,15,29,920
1167056,470852,634652,473109,636949,1822,1781,915,-1949,2249,-362,-257,2994,15,29,920
1168057,470964,634792,473240,637080,1757,1753,610,-2687,2268,-612,-160,3263,23,30,918
1169058,471100,634940,473371,637211,1604,1695,291,-3278,2188,-780,-135,3765,23,30,918
1170059,471212,635080,473502,637342,1764,1743,10,-3854,2098,-1322,-196,3927,14,32,918
1171060,471352,635228,473633,637473,1585,1685,-239,-4246,1987,-1493,-709,4453,14,32,918
1172061,471496,635348,473764,637604,1554,1866,-470,-4552,1816,-1878,-197,4631,35,22,920
1173062,471608,635516,473895,637735,1764,1550,-647,-4688,1659,-2085,-506,5198,35,22,920
1174063,471740,635640,474026,637866,1638,1828,-798,-4615,1582,-1859,-2485,5736,33,30,920
1175064,471868,635788,474157,637997,1665,1671,-881,-4515,1597,-2001,-2811,5751,33,30,920
1176065,472020,635940,474288,638128,1506,1637,-903,-4367,1645,-2208,-1866,6022,25,30,920
1177066,472168,636088,474419,638259,1525,1656,-896,-4300,1693,-2139,-1641,5654,25,30,920
1178067,472268,636220,474550,638390,1838,1755,-850,-4295,1772,-2115,-1678,5702,35,35,920
1179068,472400,636380,474681,638521,1639,1568,-762,-4191,1882,-2108,-1490,5668,35,35,920
1180069,472528,636524,474812,638652,1665,1663,-615,-4295,2009,-1864,-1210,5125,34,38,921
1181070,472652,636644,474943,638783,1693,1817,-395,-4394,2186,-1555,-1055,5542,34,38,921
1182071,472784,636812,475074,638914,1644,1502,-26,-4315,2392,-1133,-734,7458,19,40,920
1183072,472904,636992,475205,639045,1724,1406,360,-4276,2569,-916,-348,6417,19,40,920
1184073,473012,637100,475336,639176,1810,1867,586,-4573,2743,-1096,-422,4290,34,32,919
1185074,473160,637264,475467,639307,1552,1502,696,-5143,2939,-1048,-557,3693,34,32,919
1186075,473284,637412,475598,639438,1706,1595,769,-5694,3149,-954,-507,3818,28,19,921
1187076,473392,637564,475729,639569,1817,1562,856,-6191,3376,-1040,-585,3856,28,19,921
1188077,473540,637736,475860,639700,1559,1419,962,-6544,3600,-854,-973,4198,26,31,921
1189078,473652,637892,475991,639831,1793,1508,1054,-6701,3792,-695,-945,4655,26,31,921
1190079,473760,638048,476122,639962,1828,1498,1122,-6745,3938,-764,-661,5003,32,35,919
1191080,473868,638200,476253,640093,1840,1513,1162,-6612,3994,-811,-373,5561,32,35,919
1192081,473972,638364,476384,640224,1876,1425,1172,-6246,4010,-887,-483,6037,25,26,919
1193082,474080,638540,476515,640355,1863,1330,1153,-5757,4037,-763,-691,6472,25,26,919
1194083,474192,638720,476646,640486,1846,1284,1135,-5266,4058,-547,-702,6324,33,38,919
1195084,474292,638896,476777,640617,1936,1290,1145,-4852,4079,-385,-817,6160,33,38,919
1196085,474384,639080,476908,640748,2003,1217,1194,-4487,4074,-168,-527,5798,21,32,921
1197086,474516,639244,477039,640879,1753,1327,1265,-4297,4042,81,-483,5305,21,32,921
1198087,474616,639392,477170,641010,1967,1421,1375,-4224,4030,376,-586,4849,34,26,920
1199088,474712,639568,477301,641141,2008,1226,1553,-4331,4040,719,-636,4023,34,26,920
1200089,474800,639748,477432,641272,2077,1179,1789,-4649,4044,954,-556,3512,23,35,921
1201090,474932,639940,477563,641403,1803,1077,2027,-4937,4033,1085,-427,3699,23,35,921
1202091,475088,640096,477694,641534,1642,1292,2239,-5120,4017,1219,-275,3784,21,36,921
1203092,475220,640284,477825,641665,1792,1067,2414,-5156,3963,1358,-55,4120,21,36,921
1204093,475344,640480,477956,641796,1845,989,2557,-5116,3860,1359,341,4347,38,41,920
1205094,475460,640700,478087,641927,1903,801,2652,-4922,3713,1299,696,4596,38,41,920
1206095,475568,640860,478218,642058,1963,1163,2715,-4610,3564,1401,254,4792,35,24,922
1207096,475700,640976,478349,642189,1814,1445,2777,-4283,3437,1466,-93,4836,35,24,922
1208097,475788,641072,478480,642320,2108,1585,2845,-3925,3306,1362,-192,4850,15,26,923
1209098,475892,641140,478611,642451,2020,1788,2903,-3572,3140,1226,-78,4810,15,26,923
1210099,476004,641252,478742,642582,1979,1522,2936,-3147,2985,1164,-277,4948,30,26,920
1211100,476100,641340,478873,642713,2095,1691,2941,-2756,2882,1157,-13,4548,30,26,920
1212101,476184,641440,479004,642844,2191,1629,2940,-2516,2778,1106,524,4044,10,27,918
1213102,476280,641560,479135,642975,2132,1509,2967,-2397,2691,1168,-421,3558,10,27,918
1214103,476388,641680,479266,643106,2067,1515,3052,-2502,2613,1102,-668,2833,21,16,917
1215104,476468,641824,479397,643237,2266,1359,3148,-2692,2498,914,-226,2699,21,16,917
1216105,476576,641988,479528,643368,2101,1220,3216,-2830,2368,816,3,2698,30,30,917
1217106,476660,642156,479659,643499,2272,1180,3229,-2819,2239,667,61,2861,30,30,917
1218107,476736,642348,479790,643630,2347,1003,3206,-2789,2098,424,415,2947,22,30,918
1219108,476800,642476,479921,643761,2452,1404,3154,-2666,1938,282,682,2962,22,30,918
1220109,476900,642676,480052,643892,2242,924,3065,-2531,1794,213,753,3117,27,49,919
1221110,476984,642928,480183,644023,2362,547,2925,-2309,1697,118,544,3323,27,49,919
1222111,477084,643140,480314,644154,2277,761,2734,-2002,1638,28,334,3361,29,38,917
1223112,477172,643368,480445,644285,2371,618,2535,-1655,1594,-80,169,3304,29,38,917
1224113,477284,643584,480576,644416,2230,656,2341,-1348,1551,-117,-101,3345,25,54,921
1225114,477416,643796,480707,644547,2106,646,2145,-987,1496,-107,-123,3232,25,54,921
1226115,477532,644076,480838,644678,2212,155,1922,-716,1440,40,-177,3065,34,51,920
1227116,477652,644344,480969,644809,2193,171,1703,-447,1399,355,61,2932,34,51,920
1228117,477784,644644,481100,644940,2119,-103,1510,-361,1404,636,116,2360,35,50,922
1229118,477916,644964,481231,645071,2118,-311,1352,-434,1390,829,373,1860,35,50,922
1230119,478048,645220,481362,645202,2119,34,1218,-636,1348,1007,428,1533,40,55,922
1231120,478160,645436,481493,645333,2252,246,1076,-902,1278,1186,453,1407,40,55,922
1232121,478320,645644,481624,645464,1940,262,916,-1114,1196,1375,643,1485,38,40,923
1233122,478460,645760,481755,645595,2062,844,717,-1248,1107,1532,1029,1807,38,40,923
1234123,478596,645844,481886,645726,2085,1065,500,-1286,1011,1686,1354,2035,21,43,922
1235124,478728,646068,482017,645857,2111,149,264,-1256,873,1814,1845,2304,21,43,922
1236125,478860,646232,482148,645988,2111,509,20,-1166,660,1916,2306,2345,37,47,921
1237126,478984,646440,482279,646119,2164,199,-256,-1069,390,2011,2566,2499,37,47,921
1238127,479128,646644,482410,646250,2035,192,-557,-972,94,1997,2639,2474,21,44,921
1239128,479268,646832,482541,646381,2056,267,-866,-865,-190,2087,2649,2568,21,44,921
1240129,479388,647004,482672,646512,2187,349,-1171,-677,-427,2093,2417,2800,22,29,923
1241130,479548,647160,482803,646643,1925,438,-1483,-479,-635,1982,2086,3001,22,29,923
1242131,479672,647300,482934,646774,2153,534,-1776,-232,-830,1877,1808,2901,39,21,923
1243132,479792,647404,483065,646905,2184,771,-2042,-72,-1019,1803,1578,2834,39,21,923
1244133,479944,647504,483196,647036,1976,810,-2288,96,-1199,1838,1476,2923,32,20,923
1245134,480064,647608,483327,647167,2180,797,-2504,196,-1363,1855,1411,2779,32,20,923
1246135,480196,647692,483458,647298,2106,942,-2702,283,-1514,1838,1352,2773,26,19,921
1247136,480324,647804,483589,647429,2132,776,-2902,363,-1671,1697,1180,2799,26,19,921
1248137,480456,647924,483720,647560,2108,731,-3093,405,-1834,1418,794,2628,16,28,920
1249138,480572,648020,483851,647691,2215,895,-3278,447,-2000,1165,315,2649,16,28,920
1250139,480692,648124,483982,647822,2195,857,-3448,466,-2147,927,-213,2657,34,14,921
1251140,480812,648236,484113,647953,2201,815,-3608,492,-2242,713,-770,2878,34,14,921
1252141,480932,648320,484244,648084,2207,1011,-3754,563,-2300,342,-1153,2983,20,14,920
1253142,481076,648412,484375,648215,2051,978,-3887,570,-2362,-60,-1270,2934,20,14,920
1254143,481204,648512,484506,648346,2154,942,-4021,605,-2450,-426,-1171,3001,30,12,921
1255144,481352,648608,484637,648477,2021,982,-4157,597,-2532,-791,-1415,3056,30,12,921
1256145,481512,648700,484768,648608,1934,1024,-4280,618,-2600,-1116,-1685,3197,37,13,921
1257146,481640,648796,484899,648739,2137,1014,-4382,623,-2668,-1491,-1651,3260,37,13,921
1258147,481780,648896,485030,648870,2058,1003,-4481,548,-2716,-1776,-2014,3329,30,25,921
1259148,481912,649008,485161,649001,2108,936,-4561,524,-2726,-1991,-2450,3508,30,25,921
1260149,482044,649092,485292,649132,2109,1132,-4595,422,-2691,-2336,-2536,3297,33,25,919
1261157,482172,649192,485432,649272,2139,1050,-4606,267,-2629,-2545,-2478,3367,33,25,919
1262151,482288,649316,485563,649403,2222,903,-4604,89,-2518,-2599,-2705,3537,35,22,921
1263152,482432,649448,485694,649534,2041,852,-4571,-89,-2374,-2767,-3079,3634,35,22,921
1264153,482548,649592,485825,649665,2224,772,-4496,-326,-2261,-2917,-2515,3523,32,24,921
1265154,482652,649732,485956,649796,2311,793,-4393,-680,-2170,-3082,-2238,3337,32,24,921
1266155,482812,649848,486087,649927,1949,949,-4274,-1045,-2030,-3014,-2623,3691,18,28,921
1267156,482956,649960,486218,650058,2044,983,-4150,-1371,-1836,-2984,-2668,3846,18,28,921
1268157,483096,650064,486349,650189,2066,1044,-4018,-1665,-1614,-2985,-2889,4025,26,24,920
1269158,483240,650192,486480,650320,2035,896,-3150,-1042,-1341,-2227,-3473,12885,26,24,920
1270159,483384,650308,486611,650451,2031,977,-154,4077,-1118,664,-2943,32767,24,18,920
1271160,483544,650440,486742,650582,1918,877,2465,7486,-1009,-649,-1497,16323,24,18,920
1272161,483700,650572,486873,650713,1933,876,3082,6801,-924,-1507,-640,1341,22,20,921
1273162,483836,650708,487004,650844,2057,849,2695,4099,-818,-982,-575,-196,22,20,921
1274163,483960,650848,487135,650975,2135,820,2334,1730,-648,-359,-1114,316,22,21,922
1275164,484108,651036,487266,651106,1978,495,2218,177,-338,-343,-1376,847,22,21,922
1276165,484260,651184,487397,651237,1944,738,2114,-1104,-26,57,-1245,1123,36,35,922
1277166,484384,651332,487528,651368,2123,730,1955,-2286,160,37,-922,1267,36,35,922
1278167,484540,651452,487659,651499,1913,910,1780,-3738,258,-337,-615,883,38,24,923
1279168,484684,651580,487790,651630,1982,861,1586,-5054,209,-245,-424,1475,38,24,923
1280169,484840,651700,487921,651761,1897,916,1338,-6181,75,-354,-25,2172,37,33,920
1281170,484996,651812,488052,651892,1886,975,1078,-6934,-51,-387,90,3225,37,33,920
1282171,485152,651908,488183,652023,1876,1090,744,-7336,-201,-354,166,4187,27,33,920
1283172,485288,652016,488314,652154,2000,1025,397,-7451,-324,-514,119,5339,27,33,920
1284173,485448,652108,488445,652285,1838,1142,66,-7114,-423,-504,337,6502,38,25,922
1285174,485616,652204,488576,652416,1772,1134,-185,-6684,-563,-350,365,6385,38,25,922
1286175,485776,652308,488707,652547,1810,1096,-388,-6211,-718,-449,130,6845,43,27,921
1287177,485936,652408,488838,652678,1798,1134,-536,-5704,-837,-326,-63,6759,43,27,921
1288177,486092,652484,488969,652809,1812,1308,-632,-5403,-893,57,-347,6063,25,13,922
1289178,486260,652548,489100,652940,1722,1413,-668,-5209,-856,197,-512,5857,25,13,922
1290179,486432,652616,489231,653071,1679,1415,-638,-5249,-777,191,-503,4873,30,17,922
1291180,486620,652688,489362,653202,1554,1416,-552,-5505,-710,281,-464,4272,30,17,922
1292181,486776,652752,489493,653333,1743,1496,-414,-5821,-622,307,-367,3969,38,13,919
1293182,486964,652808,489624,653464,1519,1579,-237,-6221,-507,499,-360,3513,38,13,919
1294183,487144,652884,489755,653595,1549,1478,-45,-6638,-376,615,-370,3542,43,18,922
1295184,487324,652928,489886,653726,1527,1716,164,-7052,-224,520,-125,3350,43,18,922
1296185,487500,652980,490017,653857,1533,1701,384,-7425,-89,594,123,3350,25,13,921
1297186,487680,653056,490148,653988,1487,1576,587,-7691,21,459,311,3471,25,13,921
1298187,487864,653132,490279,654119,1439,1600,796,-7901,122,139,271,3591,25,22,921
1299188,488008,653188,490410,654250,1684,1758,996,-8022,211,0,-171,3755,25,22,921
1300189,488184,653268,490541,654381,1464,1631,1184,-7987,264,-324,-514,4336,23,23,921
1301190,488348,653348,490672,654512,1526,1653,1303,-7600,305,-479,-812,5178,23,23,921
1302191,488496,653440,490803,654643,1618,1596,1367,-7092,381,-324,-1024,5153,34,20,919
1303192,488648,653532,490934,654774,1585,1613,1468,-6590,447,-340,-672,5070,34,20,919
1304193,488792,653612,491065,654905,1629,1711,1591,-6097,487,-321,-371,5045,30,25,920
1305194,488948,653708,491196,655036,1544,1626,1685,-5534,502,-245,-258,5152,30,25,920
1306195,489092,653792,491327,655167,1614,1723,1716,-4907,569,-177,-255,5362,31,8,920
1307196,489228,653860,491458,655298,1661,1850,1734,-4356,670,-10,-97,4884,31,8,920
1308197,489368,653948,491589,655429,1634,1744,1785,-4021,761,307,-263,4092,38,21,921
1309198,489516,654016,491720,655560,1576,1897,1883,-3865,841,433,-438,3435,38,21,921
1310199,489664,654092,491851,655691,1570,1872,1978,-3873,910,522,-601,2802,22,20,919
1311201,489816,654156,491982,655822,1535,1977,2047,-4004,981,712,-755,2355,22,20,919
1312201,490000,654228,492113,655953,1312,1953,2096,-4167,1082,952,-917,2311,37,13,918
1313202,490160,654304,492244,656084,1450,1953,2116,-4289,1215,1168,-1134,2382,37,13,918
1314203,490328,654372,492375,656215,1384,2030,2106,-4349,1332,1294,-1036,2438,25,22,918
1315204,490468,654436,492506,656346,1556,2085,2075,-4373,1394,1382,-594,2504,25,22,918
1316205,490620,654508,492637,656477,1472,2062,2018,-4311,1383,1477,17,2535,30,8,919
1317206,490780,654572,492768,656608,1409,2141,1933,-4192,1333,1581,108,2761,30,8,919
1318207,490912,654660,492899,656739,1585,2010,1805,-3973,1290,1669,-323,3108,23,23,918
1319208,491072,654740,493030,656870,1397,2084,1658,-3718,1255,1736,-772,3165,23,23,918
1320209,491224,654848,493161,657001,1439,1919,1516,-3437,1196,1751,-870,3142,39,10,919
1321210,491376,654936,493292,657132,1429,2064,1369,-3175,1108,1810,-885,3092,39,10,919
1322211,491532,655016,493423,657263,1394,2136,1210,-2931,1023,1894,-931,3001,26,20,919
1323212,491672,655108,493554,657394,1491,2079,1052,-2698,945,1924,-748,2895,26,20,919
1324213,491804,655196,493685,657525,1540,2123,907,-2526,849,1963,-251,2684,40,12,918
1325214,491964,655280,493816,657656,1352,2169,769,-2475,727,1964,393,2402,40,12,918
1326215,492104,655368,493947,657787,1474,2164,625,-2476,596,1990,701,2255,25,11,918
1327216,492224,655448,494078,657918,1604,2236,481,-2507,472,1919,768,2073,25,11,918
1328217,492380,655524,494209,658049,1368,2286,333,-2557,334,1771,651,1987,25,9,918
1329218,492516,655608,494340,658180,1492,2257,172,-2598,187,1584,515,1962,25,9,918
1330219,492644,655696,494471,658311,1543,2252,-16,-2670,48,1426,332,2000,32,18,917
1331220,492780,655800,494602,658442,1491,2164,-230,-2725,-66,1288,56,2029,32,18,917
1332221,492880,655900,494733,658573,1731,2203,-464,-2790,-144,1109,-183,1981,25,15,917
1333222,493020,655988,494864,658704,1477,2297,-710,-2822,-197,953,-347,2078,25,15,917
1334223,493164,656072,494995,658835,1447,2344,-966,-2875,-249,747,-392,2073,18,10,918
1335224,493304,656164,495126,658966,1468,2311,-1200,-2911,-294,559,-298,1976,18,10,918
1336225,493444,656244,495257,659097,1464,2409,-1415,-2982,-333,481,-210,1961,29,26,916
1337226,493580,656332,495388,659228,1488,2378,-1604,-3115,-334,375,-264,1849,29,26,916
1338227,493732,656424,495519,659359,1379,2371,-1766,-3287,-299,306,-251,1859,39,10,917
1339228,493876,656508,495650,659490,1423,2442,-1889,-3429,-247,251,-162,1859,39,10,917
1340229,494084,656600,495781,659621,990,2410,-1981,-3632,-172,213,-187,1838,42,11,917
1341230,494240,656680,495912,659752,1304,2509,-2053,-3763,-80,193,-266,2044,42,11,917
1342231,494380,656776,496043,659883,1400,2424,-2130,-3904,24,86,-359,2189,41,11,917
1343232,494540,656844,496174,660014,1264,2628,-2196,-3949,129,27,-419,2454,41,11,917
1344234,494704,656940,496305,660145,1224,2468,-2235,-3953,222,33,-525,2738,41,19,917
1345234,494884,657016,496436,660276,1103,2618,-2259,-3859,310,14,-514,3133,41,19,917
1346235,495036,657108,496567,660407,1268,2536,-2303,-3693,384,1,-390,3450,42,28,916
1347236,495252,657204,496698,660538,832,2527,-2346,-3504,438,10,-206,3506,42,28,916
1348237,495436,657300,496829,660669,1009,2543,-2385,-3299,479,105,-135,3738,37,13,916
1349238,495624,657392,496960,660800,959,2586,-2424,-3134,502,140,-69,3704,37,13,916
1350239,495804,657504,497091,660931,988,2470,-2449,-3031,494,196,31,3568,30,13,919
1351240,495996,657616,497222,661062,886,2479,-2457,-3031,475,293,-51,3405,30,13,919
1352241,496184,657700,497353,661193,886,2675,-2455,-3104,471,488,-453,3378,41,26,916
1353242,496364,657784,497484,661324,915,2696,-2456,-3178,487,541,-891,3422,41,26,916
1354243,496544,657892,497615,661455,893,2557,-2438,-3333,495,493,-916,3231,30,12,919
1355244,496716,657976,497746,661586,926,2729,-2409,-3513,500,585,-879,3305,30,12,919
1356245,496892,658056,497877,661717,881,2776,-2386,-3625,510,681,-781,3607,33,27,917
1357246,497060,658160,498008,661848,915,2639,-2382,-3690,516,704,-725,3822,33,27,917
1358247,497224,658260,498139,661979,926,2679,-2383,-3741,505,638,-410,3943,41,19,916
1359248,497396,658352,498270,662110,858,2746,-2368,-3825,468,691,130,3914,41,19,916
1360249,497532,658472,498401,662241,1081,2577,-2359,-3856,431,854,233,4180,19,23,917
1361250,497692,658576,498532,662372,919,2690,-2348,-3845,429,866,160,4409,19,23,917
1362251,497832,658708,498663,662503,1040,2514,-2349,-3797,454,829,64,4634,25,21,918
1363252,497936,658828,498794,662634,1277,2595,-2353,-3689,497,751,-49,4821,25,21,918
1364253,498064,658920,498925,662765,1128,2788,-2352,-3593,531,664,-12,4860,26,28,918
1365254,498196,659032,499056,662896,1102,2673,-2343,-3465,558,658,-94,5039,26,28,918
1366255,498296,659152,499187,663027,1317,2627,-2324,-3390,614,625,-301,5075,30,15,917
1367256,498412,659272,499318,663158,1224,2633,-2287,-3315,702,720,-431,5204,30,15,917
1368257,498524,659368,499449,663289,1257,2800,-2250,-3200,795,789,-592,5185,13,14,915
1369258,498656,659476,499580,663420,1132,2736,-2180,-3162,845,709,-380,5056,13,14,915
1370259,498764,659576,499711,663551,1292,2799,-2099,-3205,855,652,-219,5080,27,28,915
1371260,498896,659668,499842,663682,1141,2867,-1991,-3259,860,642,-158,5244,27,28,915
1372261,499008,659808,499973,663813,1276,2565,-1879,-3167,871,693,-102,5661,17,34,916
1373262,499108,659920,500104,663944,1364,2749,-1100,-1944,933,763,-318,15957,17,34,916
1374263,499212,660056,500235,664075,1351,2597,298,386,1039,404,-446,21929,12,33,915
1375264,499328,660176,500366,664206,1283,2702,1076,1026,1012,596,288,4748,12,33,915
1376265,499452,660280,500497,664337,1236,2815,1083,239,955,664,160,3561,11,31,915
1377266,499568,660392,500628,664468,1293,2775,862,-848,919,757,-365,3349,11,31,915
1378267,499684,660508,500759,664599,1300,2756,682,-1537,883,562,-261,3718,34,29,915
1379268,499804,660616,500890,664730,1280,2817,588,-2039,835,336,-147,3612,34,29,915
1380269,499916,660704,501021,664861,1338,2962,445,-2440,755,466,-245,3973,14,29,914
1381270,500052,660796,501152,664992,1186,2955,239,-2677,709,228,-295,4515,14,29,914
1382271,500176,660916,501283,665123,1265,2786,-1,-2868,715,0,-348,4809,33,25,915
1383272,500288,661012,501414,665254,1348,2952,-258,-3029,723,23,-430,4881,33,25,915
1384273,500416,661144,501545,665385,1250,2727,-480,-3172,725,-281,-384,4953,25,25,914
1385274,500528,661240,501676,665516,1358,2969,-662,-3223,731,-482,-381,5131,25,25,914
1386284,500612,661352,501816,665656,1558,2882,-788,-3431,727,-590,-346,4734,19,23,914
1387276,500736,661448,501947,665787,1312,2998,-845,-3628,751,-742,-338,4971,19,23,914
1388277,500832,661544,502078,665918,1502,3015,-850,-3766,802,-833,-417,4952,17,12,914
1389278,500956,661644,502209,666049,1330,3003,-818,-4015,853,-899,-381,4674,17,12,914
1390279,501080,661744,502340,666180,1333,3018,-773,-4203,926,-1037,-299,5059,18,26,912
1391280,501184,661868,502471,666311,1471,2872,-718,-4343,1010,-1071,-179,5003,18,26,912
1392281,501276,661968,502602,666442,1563,3037,-661,-4484,1077,-1040,-128,5100,30,12,913
1393282,501392,662064,502733,666573,1420,3078,-599,-4511,1151,-1186,-148,5356,30,12,913
1394283,501484,662172,502864,666704,1587,3014,-537,-4584,1233,-1215,-200,5432,28,15,914
1395284,501608,662276,502995,666835,1391,3051,-486,-4563,1317,-1183,-362,5617,28,15,914
1396285,501764,662392,503126,666966,1180,2984,-427,-4490,1422,-1262,-543,5755,29,14,913
1397286,501884,662496,503257,667097,1410,3071,-355,-4356,1519,-1288,-774,5916,29,14,913
1398287,501980,662588,503388,667228,1575,3165,-273,-4253,1609,-1379,-980,5929,17,13,913
1399288,502124,662656,503519,667359,1271,3343,-172,-4130,1712,-1321,-968,5811,17,13,913
1400289,502244,662788,503650,667490,1425,2944,-57,-4110,1805,-1174,-842,5675,26,26,913
1401290,502356,662900,503781,667621,1484,3078,59,-4145,1904,-1210,-897,5503,26,26,913
1402291,502488,662996,503912,667752,1358,3195,177,-4186,2000,-1327,-802,5444,26,17,911
1403292,502616,663084,504043,667883,1386,3264,292,-4205,2073,-1334,-645,5323,26,17,911
1404293,502736,663196,504174,668014,1440,3123,404,-4301,2148,-1293,-409,5290,35,18,912
1405294,502872,663296,504305,668145,1338,3212,502,-4323,2228,-1225,-211,5358,35,18,912
1406295,503008,663416,504436,668276,1337,3093,584,-4424,2303,-1161,-132,5239,35,28,911
1407296,503140,663540,504567,668407,1362,3072,671,-4509,2379,-1075,-227,5220,35,28,911
1408297,503280,663640,504698,668538,1308,3237,764,-4632,2458,-999,-482,5282,24,16,912
1409298,503420,663760,504829,668669,1304,3118,870,-4668,2533,-1008,-684,5342,24,16,912
1410299,503564,663900,504960,668800,1274,2990,979,-4716,2606,-989,-730,5460,18,17,913
1411300,503720,664024,505091,668931,1188,3094,1083,-4686,2679,-917,-769,5580,18,17,913
1412301,503868,664156,505222,669062,1231,3044,1180,-4659,2738,-723,-633,5582,19,15,912
1413302,503996,664280,505353,669193,1357,3099,1284,-4611,2791,-450,-363,5526,19,15,912
1414303,504112,664404,505484,669324,1439,3103,1384,-4633,2847,-222,-201,5459,36,27,912
1415304,504272,664524,505615,669455,1152,3133,1469,-4663,2888,-36,-144,5454,36,27,912
1416305,504412,664652,505746,669586,1273,3086,1540,-4649,2907,78,39,5415,19,18,913
1417306,504552,664780,505877,669717,1269,3088,1592,-4625,2905,136,125,5419,19,18,913
1418307,504708,664904,506008,669848,1159,3117,1622,-4560,2880,122,385,5530,18,33,913
1419308,504836,665020,506139,669979,1335,3174,1644,-4494,2850,103,563,5504,18,33,913
