"Data file recorded 2014/9/24  18:3:8"
"%  Right Stride Frequency         = 3.0"
"%  Left Stride Frequency         = 3.0"
"%  Phase (Fractional)         = 32768.0"
"%  Experiment.py "
"%  Motor Gains    = [1800, 200, 100, 0, 0, 1800, 200, 100, 0, 0]
"% Columns: "
"% time | Right Leg Pos | Left Leg Pos | Commanded Right Leg Pos | Commanded Left Leg Pos | DCR | DCL | GyroX | GryoY | GryoZ | AX | AY | AZ | RBEMF | LBEMF | VBatt "
12125,4171228,4330456,4152530,4381906,-3800,3800,-137,-707,308,707,-483,4019,-12,6,913
13119,4171216,4330464,4152727,4382103,-3800,3800,-136,-707,308,689,-455,4003,-6,-6,913
14120,4171220,4330480,4152924,4382300,-3800,3800,-137,-713,314,686,-493,3998,-6,-6,913
15121,4171092,4330584,4153121,4382497,-3800,3800,-121,-719,323,528,-361,4114,-21,-3,868
16122,4170836,4330644,4153318,4382694,-3800,3800,-86,-770,360,264,-343,4306,-21,-3,868
17123,4170532,4330748,4153515,4382891,-3800,3800,-47,-853,405,595,-1025,4469,-64,2,869
18111,4170168,4330876,4153712,4383088,-3747,3800,-24,-836,431,1247,-696,4857,-64,2,869
19112,4169696,4331024,4153909,4383285,-2781,3800,-23,-707,389,2197,-289,5219,-72,7,870
20113,4169200,4331196,4154106,4383482,-2330,3800,-118,-559,401,1531,-283,4493,-72,7,870
21114,4168720,4331356,4154303,4383679,-2135,3800,-271,-406,481,1699,-623,4135,-82,28,876
22115,4168172,4331564,4154500,4383876,-1386,3800,-324,-130,560,2194,-159,6018,-82,28,876
23116,4167720,4331732,4154697,4384073,-1703,3800,-247,173,586,2813,-543,6072,-89,34,881
24117,4167308,4331920,4154894,4384270,-1688,3800,-268,250,646,2518,-516,4403,-89,34,881
25118,4166860,4332104,4155091,4384467,-1181,3800,-364,145,805,2160,-725,4007,-80,21,883
26119,4166504,4332300,4155288,4384664,-1516,3800,-426,70,1059,1546,-1878,5001,-80,21,883
27120,4166160,4332500,4155485,4384861,-1356,3800,-398,-161,1263,1641,-914,4328,-52,31,883
28121,4165888,4332704,4155682,4385058,-1602,3800,-364,-255,1310,2556,-423,5608,-52,31,883
29122,4165628,4332892,4155879,4385255,-1478,3800,-366,-11,1370,1891,-1404,6515,-41,29,884
30123,4165408,4333068,4156076,4385452,-1546,3800,-425,301,1552,1044,-1851,5267,-41,29,884
31124,4165236,4333240,4156273,4385649,-1685,3800,-423,513,1731,1685,-1100,5801,-29,35,883
32125,4165076,4333420,4156470,4385846,-1605,3800,-313,674,1892,1877,-2330,6556,-29,35,883
33126,4164948,4333608,4156667,4386043,-1665,3800,-228,918,2130,1479,-2018,6459,-18,19,882
34127,4164824,4333768,4156864,4386240,-1550,3800,-243,1124,2428,1444,-2417,5438,-18,19,882
35128,4164724,4333924,4157061,4386437,-1571,3800,-236,1252,2687,807,-2652,5862,-30,17,882
36129,4164636,4334076,4157258,4386634,-1522,3800,-130,1302,2893,513,-2180,6171,-30,17,882
37130,4164596,4334216,4157455,4386831,-1720,3800,44,1117,3011,1304,-2505,5321,-6,18,881
38131,4164532,4334372,4157652,4387028,-1456,3800,274,793,2989,2264,-1461,5613,-6,18,881
39132,4164484,4334492,4157849,4387225,-1449,3800,533,396,2950,1399,-1504,5398,-18,16,881
40133,4164464,4334636,4158046,4387422,-1531,3800,724,-112,2885,1110,-1108,4101,-18,16,881
41134,4164440,4334736,4158243,4387619,-1410,3800,882,-487,2802,546,-288,4627,-3,14,882
42135,4164412,4334852,4158440,4387816,-1287,3800,1065,-759,2671,-291,-408,4682,-3,14,882
43136,4164392,4334948,4158637,4388013,-1243,3800,1198,-986,2437,-670,440,3809,-6,10,882
44137,4164388,4335056,4158834,4388210,-1255,3800,1306,-1194,2205,-1498,453,4148,-6,10,882
45138,4164384,4335164,4159031,4388407,-1168,3800,1412,-1340,1974,-1544,109,4179,-4,10,883
46139,4164372,4335276,4159228,4388604,-1027,3800,1469,-1549,1704,-944,1023,3551,-4,10,883
47140,4164360,4335376,4159425,4388801,-936,3800,1454,-1721,1501,-1052,480,3496,-7,4,882
48141,4164368,4335472,4159622,4388998,-979,3800,1365,-1802,1358,-874,993,3749,-7,4,882
49142,4164344,4335576,4159819,4389195,-683,3800,1154,-1859,1227,-53,1588,3120,-1,7,883
50143,4164372,4335720,4160016,4389392,-935,3800,880,-1803,1140,229,1886,3968,-1,7,883
51144,4164372,4335836,4160213,4389589,-674,3800,623,-1770,1074,282,1665,3855,12,20,884
52145,4164360,4335964,4160410,4389786,-508,3800,403,-1911,993,0,2040,3039,12,20,884
53146,4164360,4336100,4160607,4389983,-497,3800,231,-2207,876,-505,2296,2955,12,27,885
54147,4164372,4336228,4160804,4390180,-491,3800,78,-2564,716,-289,2324,2538,12,27,885
55148,4164352,4336372,4161001,4390377,-197,3800,-45,-2699,593,-468,1458,3454,9,25,886
56149,4164368,4336532,4161198,4390574,-343,3800,-144,-2590,495,-761,1631,3972,9,25,886
57150,4164356,4336692,4161395,4390771,-77,3800,-250,-2512,414,-951,1403,3046,14,29,884
58151,4164360,4336868,4161592,4390968,-93,3800,-332,-2466,349,-518,2010,3035,14,29,884
59152,4164352,4337048,4161789,4391165,72,3800,-363,-2500,357,-596,1461,3058,-7,41,884
60153,4164364,4337240,4161986,4391362,27,3800,-400,-2524,394,-45,1353,2397,-7,41,884
61154,4164368,4337456,4162183,4391559,162,3800,-473,-2525,387,668,2432,2319,-7,25,888
62155,4164376,4337652,4162380,4391756,219,3800,-616,-2458,363,681,1359,1695,-7,25,888
63156,4164376,4337852,4162577,4391953,356,3800,-756,-2370,343,875,2313,2090,-5,47,889
64157,4164392,4338100,4162774,4392150,335,3800,-832,-2253,400,-12,404,2269,-5,47,889
65157,4164416,4338360,4162971,4392347,360,3800,-864,-2205,416,-245,2029,2205,15,43,888
66158,4164420,4338656,4163168,4392544,570,3800,-865,-2094,376,-558,2016,3024,15,43,888
67159,4164452,4338908,4163365,4392741,468,3800,-809,-1908,412,-1195,823,3630,12,49,888
68160,4164508,4339216,4163562,4392938,380,3800,-754,-1710,437,-724,1958,3470,12,49,888
69161,4164552,4339532,4163759,4393135,521,3800,-716,-1490,411,24,1959,3932,12,63,889
70162,4164628,4339852,4163956,4393332,374,3800,-743,-1525,384,578,828,2513,12,63,889
71163,4164696,4340184,4164153,4393529,481,3800,-905,-2068,442,40,-50,-385,7,53,888
72164,4164776,4340536,4164350,4393726,457,3800,-991,-2617,537,312,-95,1615,7,53,888
73165,4164880,4340864,4164547,4393923,348,3800,-875,-2699,575,1043,526,3604,28,74,890
74166,4164984,4341300,4164744,4394120,389,3800,-683,-2527,576,887,2329,3500,28,74,890
75168,4165080,4341700,4164941,4394317,483,3800,-506,-2371,598,982,2879,3553,31,71,890
76169,4165192,4342184,4165138,4394514,421,3800,-394,-2346,730,568,1403,3044,31,71,890
77169,4165304,4342736,4165335,4394711,458,3800,-402,-2611,908,121,-804,951,38,91,891
78170,4165420,4343280,4165532,4394908,469,3800,-472,-2849,1049,-312,-4028,1395,38,91,891
79171,4165540,4343896,4165729,4395105,478,3800,-427,-2636,1101,686,478,3840,21,108,890
80172,4165696,4344512,4165926,4395302,271,3800,-332,-2159,1092,1226,906,3639,21,108,890
81173,4165840,4345132,4166123,4395499,369,3800,-209,-1621,1098,1086,1639,4054,44,123,891
82174,4166016,4345808,4166320,4395696,178,3800,-35,-1333,1123,1306,276,3446,44,123,891
83175,4166184,4346596,4166517,4395893,241,3800,106,-1385,1096,1164,1467,2062,29,138,893
84177,4166332,4347304,4166714,4396090,387,3800,27,-1957,1162,163,164,-1490,29,138,893
85178,4166488,4348132,4166911,4396287,355,3800,-66,-2416,1236,826,-2479,753,32,155,894
86178,4166648,4348928,4167108,4396484,347,3800,43,-2206,1196,1765,-34,3938,32,155,894
87180,4166820,4349844,4167305,4396681,283,3800,201,-1646,1159,989,449,3192,44,167,895
88180,4166964,4350804,4167502,4396878,481,3800,328,-1127,1179,1156,1066,3187,44,167,895
89181,4167136,4351740,4167699,4397075,318,3800,414,-934,1218,1209,1896,2217,31,165,896
90182,4167296,4352768,4167896,4397272,409,3800,318,-1417,1208,1258,807,-1988,31,165,896
91184,4167444,4353768,4168093,4397469,506,3800,163,-1983,1223,1032,-2707,-352,52,171,896
92185,4167644,4354692,4168290,4397666,179,3800,96,-1994,1164,1739,-5290,1784,52,171,896
93186,4167780,4355796,4168487,4397863,606,3800,-213,-1777,1044,1979,-7338,-1408,49,180,896
94194,4167916,4356952,4168914,4398290,734,3800,-794,-1385,840,2498,-5944,-2041,49,180,896
95188,4168068,4358056,4169111,4398487,654,3800,-1044,-624,823,510,-997,3390,52,185,899
96189,4168224,4359068,4169308,4398684,648,3800,-1002,229,892,1639,-1967,3767,52,185,899
97190,4168400,4360160,4169505,4398881,532,3800,-1268,276,726,4523,-6663,-3365,51,187,897
98191,4168580,4361328,4169702,4399078,515,3800,-1776,364,478,3262,-10899,-946,51,187,897
99191,4168748,4362528,4169899,4399275,602,3800,-1843,1363,93,3719,1514,6273,53,200,898
100193,4168920,4363564,4170096,4399472,588,3800,-2032,1739,-211,2927,1114,-3134,53,200,898
101194,4169076,4364580,4170293,4399669,707,3800,-2497,1448,-141,2056,-8139,-4327,45,197,898
102195,4169256,4365600,4170490,4399866,565,3800,-2587,1991,-252,4393,-8333,5355,45,197,898
103196,4169408,4366648,4170687,4400063,760,3800,-2226,2999,-424,813,-725,5226,31,188,895
104197,4169564,4367564,4170884,4400260,753,3800,-2119,2705,-361,-2271,-1315,-3817,31,188,895
105198,4169700,4368712,4171081,4400457,905,3800,-1889,2048,-228,-1111,-2109,2082,43,189,895
106198,4169812,4369752,4171278,4400654,1093,3800,-1258,1635,-219,-914,-3334,4988,43,189,895
107200,4169908,4370788,4171475,4400851,1237,3800,-689,863,-377,-1524,-1142,250,35,199,897
108201,4170024,4371888,4171672,4401048,1148,3800,-425,222,-591,-2950,2146,2745,35,199,897
109202,4170204,4372952,4171869,4401245,756,3800,-287,167,-847,-5136,597,6211,49,202,896
110203,4170380,4374020,4172066,4401442,790,3800,-113,194,-1199,-5542,-1217,7098,49,202,896
111203,4170560,4375024,4172263,4401639,773,3800,110,-178,-1612,-4888,-1723,6312,38,192,895
112205,4170720,4376048,4172460,4401836,915,3800,275,-554,-2026,-2563,-2801,7699,38,192,895
113205,4170892,4376996,4172657,4402033,851,3800,416,-635,-2422,429,-471,7178,42,195,897
114206,4171064,4377916,4172854,4402230,862,3800,542,-1140,-2744,2369,-584,4337,42,195,897
115207,4171292,4378984,4173051,4402427,499,3800,958,-1662,-2880,4766,-3051,6491,34,176,893
116209,4171428,4380112,4173248,4402624,1101,3800,1358,-1218,-2679,3881,971,9700,34,176,893
117210,4171576,4381188,4173445,4402821,1048,3800,1588,207,-2121,1560,183,9036,40,184,896
118210,4171756,4382336,4173642,4403018,856,3800,1675,1180,-1914,7211,-2956,6228,40,184,896
119211,4171912,4383364,4173839,4403215,1024,3800,1704,1687,-2119,9592,-109,5870,52,223,895
120200,4172092,4384472,4174036,4403412,882,3592,1833,2462,-1738,3825,-2455,9227,52,223,895
121201,4172260,4385756,4174233,4403609,971,2017,2208,2311,-943,5379,-6303,4482,44,248,898
122202,4172428,4387024,4174430,4403806,983,1650,2564,1646,-417,7264,-958,4052,44,248,898
123202,4172596,4388172,4174627,4404003,997,1985,2834,1556,128,4139,2088,7076,54,241,899
124204,4172752,4389260,4174824,4404200,1090,1972,3114,2339,927,3188,529,10150,54,241,899
125205,4172908,4390252,4175021,4404397,1108,2226,3546,3357,1717,3240,252,10832,37,208,904
126206,4173100,4391188,4175218,4404594,886,2253,3618,3606,2152,4105,471,5149,37,208,904
127207,4173260,4392108,4175415,4404791,1103,2038,2893,2573,2204,5527,331,-4139,36,187,901
128208,4173408,4392792,4175612,4404988,1200,3301,2070,1749,2226,4568,333,2661,36,187,901
129209,4173560,4393484,4175809,4405185,1195,3037,1607,1863,2288,3038,-2914,7072,38,153,902
130210,4173736,4394088,4176006,4405382,1054,3410,1368,2623,2395,-628,-2231,9118,38,153,902
131211,4173888,4394624,4176203,4405579,1225,3688,995,2858,2719,-3234,-2211,7517,32,116,894
132212,4174032,4395136,4176400,4405776,1298,3701,473,1958,3003,-4833,-3408,6076,32,116,894
133225,4174188,4395532,4176597,4405973,1242,3800,220,989,2966,-4867,-3871,12223,30,87,892
134226,4174352,4395884,4176794,4406170,1207,3800,174,267,2556,-4035,-2359,12030,30,87,892
135227,4174484,4396200,4176991,4406367,1436,3800,-179,-127,1833,-1945,138,11091,25,72,887
136229,4174640,4396488,4177188,4406564,1304,3800,-705,-533,1072,-1735,3028,11444,25,72,887
137229,4174756,4396748,4177385,4406761,1591,3800,-1339,-1475,265,-2236,2293,7859,31,63,885
138230,4174908,4397004,4177582,4406958,1386,3800,-1782,-2072,-393,-2693,2785,11483,31,63,885
139231,4175028,4397212,4177779,4407155,1620,3800,-2156,-2319,-733,-3293,2714,7988,36,46,884
140233,4175128,4397400,4177976,4407352,1788,3800,-2157,-3146,-688,-2557,3435,6547,36,46,884
141234,4175240,4397556,4178173,4407549,1751,3800,-1669,-4843,-481,467,1913,7653,16,24,883
142235,4175360,4397696,4178370,4407746,1735,3800,-1132,-6734,-230,811,-1679,5661,16,24,883
143235,4175464,4397856,4178567,4407943,1877,3800,-882,-7231,135,466,-2604,9718,19,21,881
144237,4175612,4397992,4178764,4408140,1624,3800,-970,-6354,420,1940,-85,9092,19,21,881
145237,4175752,4398128,4178961,4408337,1700,3800,-1304,-5445,336,4550,1905,5887,19,34,881
146238,4175880,4398268,4179158,4408534,1806,3800,-1512,-4786,224,3055,1025,7234,19,34,881
147239,4176008,4398396,4179355,4408731,1836,3800,-1485,-4311,295,1661,271,7620,31,19,878
148241,4176144,4398532,4179552,4408928,1814,3800,-1346,-4169,501,1193,-421,5547,31,19,878
149242,4176264,4398708,4179749,4409125,1949,3800,-1203,-4235,714,2067,66,4749,26,27,880
150243,4176364,4398868,4179946,4409322,2117,3800,-1054,-4158,884,2347,76,5752,26,27,880
151243,4176484,4399044,4180143,4409519,2026,3800,-876,-4022,972,2272,-457,5018,32,29,881
152245,4176632,4399228,4180340,4409716,1874,3800,-697,-3967,1025,1674,748,4597,32,29,881
153246,4176732,4399456,4180537,4409913,2217,3800,-521,-3926,1055,1487,57,4020,19,33,879
154246,4176848,4399692,4180734,4410110,2153,3800,-305,-3839,1158,688,1102,4650,19,33,879
155247,4176996,4399940,4180931,4410307,1976,3800,-41,-3685,1343,1062,1862,4705,33,55,881
156248,4177124,4400192,4181128,4410504,2132,3800,195,-3694,1576,1135,1294,3916,33,55,881
157250,4177304,4400448,4181325,4410701,1815,3800,423,-3789,1759,857,1694,3916,42,49,880
158251,4177468,4400724,4181522,4410898,1930,3800,606,-4039,1947,-246,2212,3112,42,49,880
159251,4177624,4401008,4181719,4411095,1999,3800,680,-4049,2348,-2288,-2912,3595,32,58,879
160253,4177764,4401308,4181916,4411292,2125,3800,688,-3803,2709,-1108,-6982,3587,32,58,879
161253,4177956,4401600,4182113,4411489,1802,3800,641,-3832,2598,3168,1525,2539,46,48,879
162254,4178124,4401848,4182310,4411686,1966,3800,468,-4131,2126,5065,1398,-18,46,48,879
163255,4178320,4402112,4182507,4411883,1792,3800,434,-3961,2255,-2408,194,5652,40,45,879
164257,4178520,4402420,4182704,4412080,1767,3800,405,-3602,2623,-1045,-37,2904,40,45,879
165258,4178684,4402748,4182901,4412277,2008,3800,179,-3607,2767,676,-686,567,29,68,882
166258,4178844,4403044,4183098,4412474,2049,3800,-12,-3268,2826,-752,147,4366,29,68,882
167259,4179028,4403332,4183295,4412671,1906,3800,-252,-2697,2865,-1475,1170,3695,48,49,882
168260,4179184,4403628,4183492,4412868,2100,3800,-652,-2312,2866,-2121,86,1415,48,49,882
169261,4179328,4403932,4183689,4413065,2199,3800,-1092,-1726,2817,-1589,-683,4111,30,57,880
170262,4179488,4404240,4183886,4413262,2116,3800,-1357,-788,2731,-2180,-22,5605,30,57,880
171263,4179684,4404568,4184083,4413459,1892,3800,-1530,-225,2678,-2618,798,2881,33,54,878
172264,4179840,4404904,4184280,4413656,2161,3800,-1681,-319,2602,-1669,514,759,33,54,878
173266,4179992,4405240,4184477,4413853,2206,3800,-1611,-458,2527,-763,194,3460,32,62,881
174267,4180152,4405580,4184674,4414050,2174,3800,-1291,-432,2533,-985,-638,3634,32,62,881
175255,4180308,4405928,4184871,4414247,2218,3787,-900,-688,2608,-898,-1501,1681,50,57,881
176269,4180452,4406256,4185068,4414444,2317,3800,-650,-1151,2663,113,-1053,734,50,57,881
177263,4180648,4406692,4185298,4414674,2008,3093,-547,-1537,2773,-421,96,1222,34,85,881
178258,4180808,4407092,4185495,4414871,2249,3230,-463,-1695,2893,-267,337,2131,34,85,881
179258,4181000,4407500,4185692,4415068,2052,3089,-325,-1740,3004,-720,582,2545,49,82,881
180260,4181204,4407980,4185889,4415265,1975,2516,-239,-1815,3158,-740,-658,1392,49,82,881
181261,4181408,4408440,4186086,4415462,1973,2526,-199,-1857,3240,296,-1299,2320,42,79,884
182262,4181596,4408980,4186283,4415659,2078,1878,-58,-1452,3303,-967,-532,4851,42,79,884
183263,4181796,4409496,4186480,4415856,2003,1888,-41,-1376,3288,-273,-801,612,34,99,892
184264,4181992,4409952,4186677,4416053,2029,2151,-104,-1398,3190,1023,-1146,1800,34,99,892
185265,4182200,4410376,4186874,4416250,1951,2252,-92,-1113,3118,114,270,3877,57,98,895
186266,4182440,4410916,4187071,4416447,1733,1378,-216,-1312,3124,-663,-221,-1474,57,98,895
187267,4182648,4411412,4187268,4416644,1929,1523,-293,-1575,3142,109,-607,603,42,87,894
188268,4182872,4411880,4187465,4416841,1817,1580,-143,-1293,3235,-1015,-361,4563,42,87,894
189269,4183096,4412368,4187662,4417038,1806,1328,-50,-1115,3275,143,-368,354,59,98,899
190270,4183312,4412784,4187859,4417235,1849,1682,-36,-1257,3196,1352,-165,631,59,98,899
191271,4183552,4413276,4188056,4417432,1681,1078,120,-1013,3119,410,573,4297,51,87,897
192272,4183756,4413784,4188253,4417629,1904,842,241,-1038,3116,-279,534,9,51,87,897
193273,4184016,4414232,4188450,4417826,1527,1108,256,-1281,3088,667,292,-297,47,81,897
194274,4184244,4414716,4188647,4418023,1714,757,363,-1153,3011,848,497,3187,47,81,897
195275,4184452,4415180,4188844,4418220,1835,765,462,-957,2903,1193,256,1211,62,93,901
196276,4184700,4415592,4189041,4418417,1563,997,478,-851,2765,1495,762,649,62,93,901
197277,4184940,4415996,4189238,4418614,1595,956,499,-692,2701,525,873,2145,39,83,902
198278,4185152,4416476,4189435,4418811,1765,358,463,-563,2708,728,185,485,39,83,902
199279,4185392,4416916,4189632,4419008,1572,501,397,-395,2701,1299,-202,1087,37,72,902
200280,4185628,4417260,4189829,4419205,1581,1037,383,136,2589,1055,555,3531,37,72,902
201280,4185840,4417728,4190026,4419402,1724,143,342,808,2512,604,1165,2687,40,71,903
202281,4186084,4418156,4190223,4419599,1504,292,167,1164,2406,1869,1694,604,40,71,903
203282,4186328,4418480,4190420,4419796,1485,887,12,1479,2283,1362,1600,2140,62,70,900
204284,4186592,4418876,4190617,4419993,1331,349,-87,1718,2319,371,-1410,1176,62,70,900
205284,4186836,4419252,4190814,4420190,1436,396,-171,1594,2410,1178,-7244,-1314,60,66,905
206286,4187088,4419608,4191011,4420387,1362,451,6,1824,2328,2052,-40,4297,60,66,905
207287,4187308,4419916,4191208,4420584,1553,702,150,2161,2266,1049,918,1472,60,64,906
208288,4187540,4420156,4191405,4420781,1464,1108,30,2067,2292,1602,-575,-1662,60,64,906
209289,4187780,4420520,4191602,4420978,1395,261,36,1984,2340,1164,58,1587,46,50,905
210290,4188024,4420848,4191799,4421175,1350,428,271,2090,2429,21,-61,2150,46,50,905
211290,4188232,4421108,4191996,4421372,1572,826,481,2062,2476,1647,-1025,-285,53,48,902
212292,4188464,4421296,4192193,4421569,1407,1279,562,2211,2563,898,49,1664,53,48,902
213293,4188692,4421544,4192390,4421766,1419,882,521,2461,2639,520,-848,840,51,46,904
214294,4188892,4421796,4192587,4421963,1593,833,484,2849,2727,-397,-404,1897,51,46,904
215295,4189144,4422060,4192784,4422160,1245,728,567,3179,2699,-1289,-1002,2306,39,37,900
216296,4189400,4422260,4192981,4422357,1194,1127,654,3158,2471,-1345,-386,1237,39,37,900
217297,4189648,4422452,4193178,4422554,1223,1179,687,2842,2284,-1806,-1104,1879,44,34,902
218298,4189880,4422644,4193375,4422751,1308,1182,850,2525,2159,-1781,-2408,4363,44,34,902
219298,4190104,4422848,4193572,4422948,1347,1103,1104,1927,2014,-2655,-2344,3333,43,31,903
220300,4190316,4423068,4193769,4423145,1416,993,1223,1233,1769,-2380,-2348,2993,43,31,903
221300,4190524,4423328,4193966,4423342,1437,716,1178,1110,1360,-951,-1121,5046,54,35,902
222302,4190780,4423560,4194163,4423539,1111,875,928,1181,914,-2411,-599,3661,54,35,902
223303,4190996,4423764,4194360,4423736,1354,1047,569,1445,532,-3455,-582,4630,38,31,903
224304,4191220,4423952,4194557,4423933,1293,1151,283,1643,192,-2654,502,6162,38,31,903
225305,4191452,4424116,4194754,4424130,1228,1316,263,1040,-237,-1656,-681,4717,34,41,903
226306,4191668,4424296,4194951,4424327,1320,1223,401,-17,-647,-1778,-3932,5997,34,41,903
227307,4191904,4424516,4195148,4424524,1179,963,506,-632,-1062,-1239,-696,6801,53,29,902
228308,4192120,4424720,4195345,4424721,1296,1060,357,-1194,-1543,-536,1530,4794,53,29,902
229309,4192336,4424896,4195542,4424918,1288,1244,203,-1522,-1946,-84,-781,7050,52,42,902
230310,4192560,4425084,4195739,4425115,1227,1173,-8,-1685,-2271,1050,-2008,6964,52,42,902
231311,4192760,4425248,4195936,4425312,1376,1338,-326,-1515,-2463,582,-916,6122,41,37,903
232312,4192972,4425420,4196133,4425509,1296,1299,-566,-1290,-2590,787,-382,6951,41,37,903
233313,4193208,4425564,4196330,4425706,1128,1497,-630,-1414,-2597,696,-1861,5425,52,26,903
234314,4193432,4425684,4196527,4425903,1193,1681,-626,-1857,-2549,1715,-2351,5437,52,26,903
235315,4193644,4425880,4196724,4426100,1261,1206,-628,-2256,-2476,1932,-1903,5641,38,22,901
236316,4193800,4426048,4196921,4426297,1630,1394,-612,-2751,-2375,1450,-2257,4759,38,22,901
237317,4194020,4426196,4197118,4426494,1221,1540,-589,-3345,-2329,2221,-1478,4628,42,35,899
238318,4194232,4426348,4197315,4426691,1264,1535,-563,-3873,-2300,2307,-1027,4400,42,35,899
239319,4194424,4426468,4197512,4426888,1393,1769,-569,-4312,-2191,1475,-1355,4432,51,15,899
240320,4194632,4426576,4197709,4427085,1288,1883,-607,-4355,-2002,1072,-1844,5047,51,15,899
241321,4194784,4426680,4197906,4427282,1658,1949,-728,-3915,-1827,1239,-1654,5868,23,24,900
242322,4194912,4426828,4198103,4427479,1840,1697,-995,-3531,-1850,3194,548,3585,23,24,900
243323,4195044,4426948,4198300,4427676,1843,1905,-1329,-3176,-1920,4397,-239,4683,20,18,898
244324,4195156,4427052,4198497,4427873,2007,2046,-1599,-2531,-1954,4850,-562,6887,20,18,898
245325,4195304,4427156,4198694,4428070,1803,2087,-1674,-1640,-1997,6055,-1119,7994,30,31,896
246326,4195456,4427320,4198891,4428267,1799,1727,-1438,-955,-2082,6814,-1441,8604,30,31,896
247327,4195600,4427492,4199088,4428464,1873,1688,-1008,-873,-2174,5923,-2079,6117,27,20,892
248328,4195776,4427640,4199285,4428661,1683,1860,-623,-1159,-2100,3892,-1501,4813,27,20,892
249329,4195964,4427764,4199482,4428858,1612,2042,-407,-1398,-1754,2044,1138,5053,39,16,895
250330,4196132,4427876,4199679,4429055,1751,2155,-350,-1132,-1193,2468,271,6659,39,16,895
251331,4196276,4427968,4199876,4429252,1925,2326,-360,-511,-644,4557,-3510,6875,30,12,897
252332,4196428,4428076,4200073,4429449,1895,2265,-317,112,-410,5751,-772,7048,30,12,897
253333,4196592,4428184,4200270,4429646,1836,2305,-222,241,-280,4545,8,4843,26,12,894
254334,4196740,4428280,4200467,4429843,1957,2424,-136,93,7,3625,-2536,4016,26,12,894
255335,4196880,4428392,4200664,4430040,2033,2362,51,238,352,4135,-1152,6428,29,31,892
256336,4197048,4428528,4200861,4430237,1872,2240,305,562,714,3570,-2293,6195,29,31,892
257337,4197220,4428640,4201058,4430434,1859,2427,504,1075,1027,3309,-1738,6784,23,15,889
258338,4197384,4428764,4201255,4430631,1924,2384,640,1472,1348,2324,-1244,5995,23,15,889
259339,4197564,4428892,4201452,4430828,1832,2390,759,1633,1705,1418,-683,5644,25,13,891
260349,4197736,4428976,4201682,4431058,1909,2729,909,1475,1996,1957,-577,4735,25,13,891
261341,4197928,4429080,4201879,4431255,1787,2645,998,1083,2109,3026,-873,3568,46,27,891
262342,4198120,4429196,4202076,4431452,1789,2607,1060,708,2197,1899,-1071,4075,46,27,891
263343,4198304,4429312,4202273,4431649,1846,2643,1145,537,2274,1922,-935,5671,40,19,889
264344,4198504,4429432,4202470,4431846,1745,2652,1120,263,2272,1631,-1222,3739,40,19,889
265345,4198752,4429564,4202667,4432043,1424,2606,1065,4,2307,431,-1716,5108,33,18,889
266346,4198976,4429692,4202864,4432240,1562,2662,1062,-166,2396,2,-490,5423,33,18,889
267347,4199168,4429780,4203061,4432437,1765,2960,1121,-582,2385,438,-1389,3930,29,22,890
268348,4199404,4429920,4203258,4432634,1474,2661,1176,-1128,2252,474,-1453,4934,29,22,890
269349,4199624,4430060,4203455,4432831,1565,2686,1110,-1643,1962,1084,-933,4050,37,37,889
270350,4199860,4430216,4203652,4433028,1448,2605,928,-1944,1600,507,-115,4489,37,37,889
271351,4200104,4430364,4203849,4433225,1378,2677,704,-1851,1335,-560,-147,4375,35,19,891
272352,4200332,4430520,4204046,4433422,1466,2646,448,-1481,1151,-476,-263,3991,35,19,891
273353,4200576,4430676,4204243,4433619,1345,2664,231,-1029,1011,-60,-303,4567,51,29,892
274354,4200812,4430844,4204440,4433816,1379,2603,-5,-864,812,1077,604,2238,51,29,892
275355,4201044,4431028,4204637,4434013,1389,2508,-316,-881,565,2358,443,1460,49,43,892
276356,4201292,4431248,4204834,4434210,1267,2274,-636,-809,444,2400,814,1997,49,43,892
277357,4201572,4431452,4205031,4434407,1032,2371,-903,-661,430,2659,-363,1660,43,49,893
278358,4201804,4431684,4205228,4434604,1317,2182,-968,-468,484,2119,-1704,3117,43,49,893
279359,4202044,4431920,4205425,4434801,1248,2141,-841,-287,661,269,-858,3824,42,47,895
280360,4202300,4432148,4205622,4434998,1123,2177,-761,-679,947,-1375,-374,678,42,47,895
281361,4202528,4432388,4205819,4435195,1286,2084,-697,-1478,1251,-1027,-651,1323,32,44,895
282362,4202736,4432592,4206016,4435392,1406,2306,-573,-2224,1270,1803,-273,2543,32,44,895
283363,4202924,4432816,4206213,4435589,1536,2170,-470,-2779,978,2440,25,2691,36,44,897
284364,4203160,4433068,4206410,4435786,1220,1971,-479,-3016,614,1364,98,2689,36,44,897
285365,4203364,4433304,4206607,4435983,1417,2055,-568,-2854,276,1331,240,3669,31,39,895
286366,4203560,4433540,4206804,4436180,1468,2038,-689,-2433,121,337,151,3801,31,39,895
287367,4203768,4433816,4207001,4436377,1388,1754,-817,-2039,173,17,-425,3278,27,56,898
288368,4203940,4434064,4207198,4436574,1625,1907,-951,-1767,152,1763,417,2464,27,56,898
289369,4204092,4434308,4207395,4436771,1771,1912,-968,-1503,150,1211,-399,3331,42,46,897
290370,4204260,4434544,4207592,4436968,1684,1945,-855,-1215,186,1834,-385,4110,42,46,897
291371,4204396,4434772,4207789,4437165,1912,1982,-732,-1139,183,2941,74,2431,18,39,895
292372,4204548,4435024,4207986,4437362,1832,1808,-650,-1353,247,2097,1257,1688,18,39,895
293373,4204692,4435232,4208183,4437559,1906,2079,-562,-1471,318,1946,-282,3032,36,39,896
294374,4204876,4435452,4208380,4437756,1662,1994,-443,-1235,283,1931,-511,4865,36,39,896
295375,4205008,4435700,4208577,4437953,2017,1797,-320,-791,221,310,145,5134,35,42,896
296376,4205176,4435940,4208774,4438150,1805,1829,-256,-518,84,458,598,3583,35,42,896
297377,4205352,4436164,4208971,4438347,1765,1917,-253,-540,-32,548,463,2955,33,40,896
298378,4205512,4436428,4209168,4438544,1882,1638,-279,-703,-3,513,-472,3817,33,40,896
299379,4205652,4436672,4209365,4438741,2032,1743,-268,-885,173,671,-825,4255,43,43,896
300380,4205812,4436904,4209562,4438938,1924,1803,-220,-934,385,1467,-1113,4362,43,43,896
301381,4205984,4437128,4209759,4439135,1861,1841,-158,-909,514,2440,-1358,4024,23,33,894
302382,4206128,4437368,4209956,4439332,2060,1723,-124,-725,641,2269,-732,4515,23,33,894
303383,4206308,4437572,4210153,4439529,1843,1946,-99,-435,828,2213,-1350,4448,31,31,894
304384,4206448,4437764,4210350,4439726,2119,2023,-42,-133,942,2951,-1002,4525,31,31,894
305385,4206608,4437960,4210547,4439923,2012,1998,74,190,1037,2063,-934,5205,39,33,895
306386,4206768,4438156,4210744,4440120,2028,2000,230,518,1208,1169,-1396,4964,39,33,895
307387,4206952,4438356,4210941,4440317,1884,1973,325,847,1364,1454,-1168,3946,23,31,892
308388,4207092,4438520,4211138,4440514,2186,2214,383,1093,1514,806,-201,3934,23,31,892
309389,4207276,4438732,4211335,4440711,1917,1907,455,1292,1701,356,-1059,4024,27,40,893
310390,4207448,4438920,4211532,4440908,2003,2061,543,1478,1871,17,-737,4173,27,40,893
311391,4207624,4439076,4211729,4441105,1988,2280,549,1627,1916,346,-712,3785,32,40,891
312392,4207784,4439256,4211926,4441302,2106,2138,462,1725,1812,862,207,3445,32,40,891
313393,4207980,4439448,4212123,4441499,1882,2065,349,1814,1737,480,-58,3589,39,45,892
314394,4208144,4439684,4212320,4441696,2098,1774,321,1958,1827,-113,-1281,4219,39,45,892
315395,4208320,4439904,4212517,4441893,2032,1864,409,2112,1964,113,-1053,4398,48,35,892
316396,4208508,4440128,4212714,4442090,1962,1828,450,2248,2107,-49,-172,3685,48,35,892
317397,4208692,4440372,4212911,4442287,1994,1682,399,2249,2279,-219,-726,2856,26,46,894
318398,4208852,4440572,4213108,4442484,2161,1956,386,2245,2440,-409,-599,3495,26,46,894
319399,4209100,4440832,4213305,4442681,1589,1554,451,2347,2483,-25,386,4671,50,42,895
320400,4209288,4441124,4213502,4442878,1968,1312,533,2520,2500,-253,-567,4714,50,42,895
321401,4209468,4441404,4213699,4443075,2027,1351,586,2663,2487,-75,-478,4058,35,46,893
322402,4209652,4441720,4213896,4443272,2009,1075,608,2727,2427,-241,747,3768,35,46,893
323403,4209816,4441988,4214093,4443469,2149,1343,597,2721,2413,-759,-303,3798,47,51,896
324404,4209980,4442176,4214290,4443666,2165,1847,617,2664,2470,-1039,-1078,3745,47,51,896
325405,4210140,4442360,4214487,4443863,2206,1879,647,2520,2506,-590,301,3743,28,41,897
326406,4210272,4442532,4214684,4444060,2410,1965,610,2080,2589,-1749,-1229,1652,28,41,897
327407,4210436,4442736,4214881,4444257,2226,1762,652,1707,2639,-912,1080,3984,29,44,894
328408,4210660,4442928,4215078,4444454,1840,1839,779,1600,2644,-1091,1775,4710,29,44,894
329409,4210852,4443172,4215275,4444651,2043,1494,905,1378,2720,-2494,414,3420,40,49,891
330410,4211024,4443432,4215472,4444848,2180,1367,1077,1107,2755,-1825,511,4920,40,49,891
331411,4211200,4443612,4215669,4445045,2165,1874,1243,858,2718,-1734,1102,4740,32,56,896
332412,4211400,4443872,4215866,4445242,2014,1348,1242,642,2681,-1655,1638,3880,32,56,896
333413,4211584,4444160,4216063,4445439,2121,1133,1113,461,2649,-873,-211,3624,53,60,896
334414,4211732,4444412,4216260,4445636,2368,1333,1026,441,2583,-780,-830,4985,53,60,896
335414,4211912,4444632,4216457,4445833,2177,1523,989,472,2552,-2021,-600,4469,47,44,896
336416,4212076,4444880,4216654,4446030,2292,1326,862,280,2448,-1623,213,3362,47,44,896
337417,4212232,4445140,4216851,4446227,2361,1224,679,215,2253,-1056,349,4841,28,42,895
338418,4212380,4445392,4217048,4446424,2434,1250,515,246,2047,-1358,76,5036,28,42,895
339419,4212520,4445624,4217245,4446621,2509,1360,323,116,1747,-568,465,3967,34,39,895
340420,4212652,4445848,4217442,4446818,2588,1398,224,5,1437,-665,182,5850,34,39,895
341421,4212808,4446088,4217639,4447015,2457,1279,157,77,1171,-164,716,6246,28,57,895
342422,4212960,4446400,4217836,4447212,2503,779,-26,245,1044,395,504,5403,28,57,895
343430,4213124,4446668,4218066,4447442,2458,1038,-261,473,1021,1104,361,6054,39,59,893
344423,4213296,4446936,4218263,4447639,2420,1006,-395,781,1003,1343,110,6621,39,59,893
345425,4213452,4447172,4218460,4447836,2539,1189,-490,896,967,739,511,5017,27,43,895
346426,4213608,4447400,4218657,4448033,2558,1226,-556,907,980,234,755,5719,27,43,895
347427,4213784,4447640,4218854,4448230,2444,1132,-540,820,1023,43,573,5308,27,37,895
348428,4213936,4447864,4219051,4448427,2614,1220,-477,480,1042,-327,-650,4492,27,37,895
349429,4214108,4448060,4219248,4448624,2501,1396,-330,16,946,-352,-1199,4818,46,31,894
350430,4214252,4448256,4219445,4448821,2701,1397,-169,-482,779,-1328,-1371,5032,46,31,894
351431,4214448,4448416,4219642,4449018,2377,1638,-51,-828,555,-1557,-1157,5623,46,37,893
352432,4214600,4448584,4219839,4449215,2673,1601,-36,-975,204,-874,-516,5771,46,37,893
353433,4214760,4448756,4220036,4449412,2640,1587,-146,-843,-292,-410,664,6152,48,44,892
354434,4214924,4448948,4220233,4449609,2631,1464,-340,-666,-748,-722,-69,5587,48,44,892
355435,4215084,4449160,4220430,4449806,2673,1332,-488,-488,-1020,-701,-160,6174,36,32,890
356436,4215240,4449380,4220627,4450003,2717,1272,-567,-435,-1168,5,-696,5445,36,32,890
357437,4215424,4449616,4220824,4450200,2549,1155,-673,-456,-1260,611,-584,4858,27,51,891
358438,4215564,4449864,4221021,4450397,2850,1059,-845,-327,-1322,1004,132,4704,27,51,891
359439,4215700,4450064,4221218,4450594,2902,1357,-978,-51,-1242,331,-1055,5306,23,45,892
360440,4215864,4450272,4221415,4450791,2743,1303,-974,280,-1139,883,-1540,5169,23,45,892
361441,4216020,4450504,4221612,4450988,2812,1137,-852,350,-1164,1322,-1235,4728,21,53,893
362442,4216164,4450744,4221809,4451185,2911,1068,-626,290,-1222,807,-1758,5676,21,53,893
363443,4216328,4450972,4222006,4451382,2802,1130,-362,203,-1340,1550,-1553,5758,22,37,892
364444,4216480,4451180,4222203,4451579,2897,1250,-192,81,-1463,917,-1206,4751,22,37,892
365445,4216636,4451356,4222400,4451776,2892,1459,-81,-27,-1492,-531,-787,5063,31,38,892
366446,4216832,4451512,4222597,4451973,2643,1602,-28,-122,-1551,123,-591,4957,31,38,892
367447,4217008,4451636,4222794,4452170,2779,1834,-61,-150,-1688,613,295,4466,42,29,890
368448,4217200,4451756,4222991,4452367,2682,1893,-177,-113,-1764,-347,-334,4483,42,29,890
369449,4217384,4451880,4223188,4452564,2739,1901,-279,20,-1902,328,-612,5281,48,30,890
370450,4217584,4452008,4223385,4452761,2639,1906,-308,40,-1976,-224,-506,4940,48,30,890
371451,4217760,4452140,4223582,4452958,2799,1910,-350,-214,-1970,-894,-969,3301,43,15,889
372452,4217940,4452256,4223779,4453155,2782,2046,-351,-413,-2073,728,-949,5085,43,15,889
373453,4218132,4452380,4223976,4453352,2711,2028,-333,-388,-2170,746,-1511,5385,41,20,890
374454,4218308,4452496,4224173,4453549,2821,2113,-329,-442,-2264,1141,-1308,4222,41,20,890
375455,4218504,4452628,4224370,4453746,2697,2043,-295,-515,-2342,1658,-607,4883,40,32,888
376456,4218732,4452724,4224567,4453943,2486,2312,-326,-606,-2356,1395,152,3649,40,32,888
377457,4218916,4452844,4224764,4454140,2767,2196,-443,-589,-2281,1036,484,3488,46,20,887
378458,4219160,4452940,4224961,4454337,2373,2390,-608,-350,-2179,1009,423,3860,46,20,887
379459,4219404,4453064,4225158,4454534,2353,2248,-785,17,-2097,1269,-69,3587,54,18,886
380460,4219636,4453224,4225355,4454731,2414,2040,-883,383,-2060,1396,747,4130,54,18,886
381461,4219852,4453360,4225552,4454928,2506,2217,-943,505,-2085,1429,-296,2721,36,25,889
382462,4220100,4453496,4225749,4455125,2285,2243,-894,463,-2028,503,-951,3906,36,25,889
383462,4220360,4453620,4225946,4455322,2183,2351,-747,421,-1923,270,-609,4082,36,21,891
384464,4220604,4453740,4226143,4455519,2264,2410,-659,133,-2002,1657,228,1869,36,21,891
385464,4220868,4453876,4226340,4455716,2110,2337,-616,-69,-2078,651,476,3324,63,23,889
386466,4221136,4454012,4226537,4455913,2055,2365,-587,-216,-1988,-766,-638,2854,63,23,889
387467,4221396,4454124,4226734,4456110,2078,2552,-598,-297,-1834,-731,-446,2450,45,35,889
388468,4221644,4454224,4226931,4456307,2132,2670,-611,-286,-1766,31,-605,2901,45,35,889
389469,4221956,4454372,4227128,4456504,1682,2392,-610,-214,-1776,605,-1374,3151,52,30,890
390470,4222236,4454484,4227325,4456701,1847,2655,-582,-124,-1799,514,-1339,3021,52,30,890
391471,4222508,4454608,4227522,4456898,1865,2613,-534,-164,-1790,-10,-699,3169,59,18,887
392472,4222816,4454736,4227719,4457095,1592,2618,-491,-361,-1730,-581,-887,1976,59,18,887
393473,4223108,4454856,4227916,4457292,1651,2703,-469,-654,-1713,136,-793,2366,57,17,890
394474,4223396,4454972,4228113,4457489,1637,2764,-386,-913,-1701,-3,-606,2864,57,17,890
395475,4223688,4455100,4228310,4457686,1572,2719,-332,-1267,-1612,-863,-291,1584,64,32,891
396476,4223980,4455224,4228507,4457883,1531,2777,-329,-1604,-1525,-288,-836,1710,64,32,891
397477,4224284,4455328,4228704,4458080,1410,2943,-330,-1699,-1457,-198,-1675,2939,69,28,890
398478,4224604,4455452,4228901,4458277,1257,2851,-341,-1661,-1431,89,-1270,2563,69,28,890
399479,4224880,4455572,4229098,4458474,1497,2911,-419,-1632,-1432,297,-1271,2228,64,19,890
400480,4225168,4455692,4229295,4458671,1383,2945,-466,-1502,-1442,51,-1150,3065,64,19,890
401480,4225476,4455848,4229492,4458868,1210,2739,-466,-1574,-1403,-302,-1515,2406,73,34,889
402482,4225748,4456012,4229689,4459065,1403,2703,-431,-1833,-1353,215,-1130,2134,73,34,889
403483,4226028,4456152,4229886,4459262,1318,2879,-365,-2081,-1336,835,-661,2541,50,41,890
404484,4226332,4456320,4230083,4459459,1121,2717,-343,-2331,-1278,237,-596,1719,50,41,890
405485,4226620,4456484,4230280,4459656,1182,2757,-331,-2475,-1183,-190,-485,2193,56,32,892
406486,4226900,4456640,4230477,4459853,1196,2826,-309,-2465,-1134,-145,-658,2810,56,32,892
407487,4227172,4456820,4230674,4460050,1213,2684,-328,-2411,-1145,114,-821,2022,46,27,893
408488,4227436,4456968,4230871,4460247,1235,2906,-332,-2439,-1191,309,-634,2392,46,27,893
409489,4227720,4457144,4231068,4460444,1073,2741,-245,-2485,-1244,340,-1117,2560,43,35,892
410490,4227980,4457292,4231265,4460641,1195,2938,-143,-2709,-1242,265,-1063,1860,43,35,892
411491,4228264,4457444,4231462,4460838,1008,2934,-8,-2915,-1187,532,-1085,1948,42,32,889
412492,4228496,4457616,4231659,4461035,1318,2820,64,-3109,-1136,840,-624,2076,42,32,889
413493,4228736,4457816,4231856,4461232,1250,2645,125,-3194,-1017,89,-779,1526,57,31,889
414494,4228980,4457988,4232053,4461429,1205,2832,144,-3236,-901,460,-887,2270,57,31,889
415495,4229196,4458144,4232250,4461626,1372,2950,200,-3117,-785,403,-991,2717,61,38,892
416496,4229436,4458312,4232447,4461823,1204,2888,229,-3118,-702,639,-599,1908,61,38,892
417497,4229716,4458492,4232644,4462020,918,2822,275,-3196,-657,711,-741,2412,49,43,892
418498,4229960,4458712,4232841,4462217,1123,2562,388,-3299,-653,883,-665,3088,49,43,892
419499,4230176,4458884,4233038,4462414,1290,2874,465,-3455,-618,451,-78,2313,38,29,891
420500,4230428,4459036,4233235,4462611,1041,3020,480,-3740,-547,364,-278,1844,38,29,891
421501,4230652,4459200,4233432,4462808,1205,2959,496,-3934,-534,1089,-133,3481,47,41,894
422502,4230896,4459348,4233629,4463005,1060,3082,462,-3991,-511,803,-170,2761,47,41,894
423503,4231152,4459520,4233826,4463202,960,2944,392,-3939,-447,1037,-50,3085,53,38,890
424504,4231392,4459724,4234023,4463399,1041,2740,321,-3804,-397,1495,-474,3592,53,38,890
425505,4231620,4459880,4234220,4463596,1103,3060,245,-3747,-337,1219,-7,3117,60,28,891
426512,4231872,4460076,4234450,4463826,943,2825,184,-3710,-205,740,-311,3492,60,28,891
427507,4232112,4460244,4234647,4464023,1001,3014,194,-3748,-58,888,-382,4016,58,29,893
428508,4232320,4460440,4234844,4464220,1196,2840,239,-3642,-25,2085,125,4801,58,29,893
429509,4232552,4460612,4235041,4464417,1031,3002,191,-3557,-56,2374,-529,3542,38,31,892
430510,4232792,4460760,4235238,4464614,962,3174,84,-3331,65,984,402,4596,38,31,892
431511,4233008,4460956,4235435,4464811,1105,2875,-14,-3043,156,2086,477,4495,33,42,890
432512,4233204,4461144,4235632,4465008,1230,2930,-71,-2717,176,2316,160,5068,33,42,890
433512,4233412,4461296,4235829,4465205,1152,3175,-137,-2573,206,2326,467,4260,51,46,887
434514,4233584,4461484,4236026,4465402,1388,2955,-180,-2515,277,2430,547,4748,51,46,887
435515,4233748,4461688,4236223,4465599,1452,2852,-153,-2471,362,2411,-187,5395,41,38,890
436516,4233948,4461860,4236420,4465796,1227,3064,-82,-2535,406,2512,-318,4991,41,38,890
437517,4234116,4462048,4236617,4465993,1440,2969,-40,-2644,448,2456,-798,4930,26,42,889
438518,4234284,4462228,4236814,4466190,1453,3028,-12,-2498,442,3203,-681,6208,26,42,889
439519,4234484,4462388,4237011,4466387,1252,3169,-39,-2198,422,3048,-570,5826,32,41,890
440520,4234656,4462592,4237208,4466584,1439,2892,-149,-1965,488,2150,78,4895,32,41,890
441521,4234820,4462732,4237405,4466781,1503,3318,-259,-1748,632,2075,-405,5868,27,40,889
442522,4235000,4462900,4237602,4466978,1412,3157,-271,-1478,697,2748,-532,6221,27,40,889
443523,4235160,4463044,4237799,4467175,1553,3330,-228,-1369,746,2172,-247,5571,24,38,890
444524,4235312,4463196,4237996,4467372,1624,3301,-171,-1383,768,2585,-387,5595,24,38,890
445525,4235492,4463340,4238193,4467569,1456,3375,-72,-1417,779,1964,-405,6208,38,37,887
446526,4235632,4463504,4238390,4467766,1733,3265,24,-1438,794,1692,-433,5678,38,37,887
447527,4235784,4463660,4238587,4467963,1677,3334,70,-1451,824,1602,-245,5681,24,26,885
448528,4235936,4463804,4238784,4468160,1698,3433,82,-1384,841,1460,-214,5883,24,26,885
449529,4236104,4463940,4238981,4468357,1611,3511,72,-1309,884,754,-386,5752,38,31,885
450529,4236240,4464096,4239178,4468554,1839,3405,68,-1304,913,879,-65,5585,38,31,885
451531,4236392,4464248,4239375,4468751,1759,3450,74,-1284,931,718,-572,6099,21,33,884
452532,4236580,4464404,4239572,4468948,1538,3444,72,-1318,943,598,-298,5633,21,33,884
453533,4236736,4464532,4239769,4469145,1757,3651,69,-1373,918,988,-660,6031,28,37,884
454534,4236904,4464684,4239966,4469342,1695,3521,102,-1423,830,1436,-728,6157,28,37,884
455535,4237072,4464840,4240163,4469539,1709,3514,147,-1534,821,396,-665,5825,44,24,883
456536,4237244,4465016,4240360,4469736,1695,3400,196,-1684,846,483,-502,5743,44,24,883
457537,4237420,4465184,4240557,4469933,1680,3463,225,-1783,848,634,-312,5755,47,22,882
458538,4237620,4465364,4240754,4470130,1530,3397,217,-1862,883,64,-41,5434,47,22,882
459539,4237812,4465536,4240951,4470327,1582,3459,178,-2005,918,356,-721,4877,37,30,884
460540,4237976,4465696,4241148,4470524,1772,3551,195,-2000,918,870,-424,6585,37,30,884
461541,4238168,4465852,4241345,4470721,1600,3595,176,-1973,905,701,-903,4800,35,23,886
462542,4238376,4466028,4241542,4470918,1496,3480,124,-1958,930,401,220,5433,35,23,886
463543,4238560,4466192,4241739,4471115,1653,3571,122,-1936,950,912,-608,5464,34,30,883
464544,4238780,4466348,4241936,4471312,1417,3640,141,-1953,1036,116,-551,5228,34,30,883
465545,4238968,4466516,4242133,4471509,1622,3579,181,-1982,1128,7,-250,5181,49,34,885
466546,4239172,4466676,4242330,4471706,1519,3646,180,-2076,1158,327,118,4642,49,34,885
467546,4239376,4466840,4242527,4471903,1517,3636,146,-2154,1155,463,0,4473,32,35,882
468548,4239592,4467004,4242724,4472100,1435,3652,141,-2134,1180,442,-236,4864,32,35,882
469549,4239780,4467184,4242921,4472297,1614,3560,134,-2134,1221,371,146,4236,33,24,883
470562,4239968,4467328,4243118,4472494,1619,3800,136,-2245,1268,165,-1,3697,33,24,883
471551,4240204,4467500,4243315,4472691,1302,3646,212,-2196,1311,322,101,5450,43,29,883
472552,4240408,4467680,4243512,4472888,1500,3604,279,-2061,1386,45,-822,4274,43,29,883
473553,4240600,4467928,4243709,4473085,1578,3158,295,-1926,1432,204,238,4183,50,37,879
474553,4240796,4468116,4243906,4473282,1553,3538,270,-1822,1454,51,28,3817,50,37,879
475554,4240980,4468316,4244103,4473479,1635,3462,292,-1646,1468,104,477,4911,49,37,884
476556,4241176,4468508,4244300,4473676,1560,3516,256,-1534,1500,69,225,3602,49,37,884
477557,4241348,4468692,4244497,4473873,1722,3572,137,-1541,1574,-369,753,2958,27,46,883
478558,4241524,4468884,4244694,4474070,1708,3526,55,-1396,1770,-1269,-4,4515,27,46,883
479558,4241688,4469116,4244891,4474267,1797,3261,-13,-1222,2045,-1888,-410,4076,48,47,883
480560,4241884,4469316,4245088,4474464,1599,3461,-68,-1224,2298,-1838,-808,2669,48,47,883
481560,4242056,4469532,4245285,4474661,1759,3353,-65,-1260,2307,691,219,4048,49,43,883
482562,4242224,4469724,4245482,4474858,1798,3507,-36,-1173,1726,6261,2192,4443,49,43,883
483562,4242368,4469928,4245679,4475055,1973,3430,-33,-1007,1385,1937,-555,4336,33,30,884
484564,4242532,4470136,4245876,4475252,1862,3401,-158,-959,1554,-661,264,2768,33,30,884
485565,4242668,4470332,4246073,4475449,2065,3477,-263,-975,1785,350,816,2570,39,41,883
486566,4242836,4470540,4246270,4475646,1879,3398,-271,-917,1963,26,83,4036,39,41,883
487567,4243004,4470744,4246467,4475843,1891,3421,-231,-744,2055,579,-367,3838,31,46,884
488568,4243192,4470956,4246664,4476040,1771,3366,-244,-659,2075,975,-387,3121,31,46,884
489569,4243340,4471156,4246861,4476237,2044,3440,-299,-650,2123,164,-290,3015,37,46,882
490570,4243516,4471384,4247058,4476434,1878,3253,-336,-657,2188,176,-132,3321,37,46,882
491571,4243680,4471584,4247255,4476631,1969,3427,-334,-604,2287,110,-487,3712,34,44,884
492572,4243848,4471780,4247452,4476828,1957,3454,-313,-558,2331,486,-220,3362,34,44,884
493573,4244024,4472076,4247649,4477025,1917,2786,-298,-617,2328,466,-154,2857,32,62,885
494574,4244192,4472376,4247846,4477222,1980,2717,-304,-719,2313,372,-1014,2881,32,62,885
495575,4244324,4472672,4248043,4477419,2235,2700,-279,-684,2335,280,153,4001,45,64,884
496576,4244468,4472944,4248240,4477616,2183,2818,-273,-547,2425,-205,167,3496,45,64,884
497577,4244620,4473272,4248437,4477813,2154,2411,-396,-620,2403,1379,-251,1729,29,63,889
498578,4244760,4473604,4248634,4478010,2255,2327,-523,-571,2314,1237,-403,3371,29,63,889
499579,4244912,4473912,4248831,4478207,2201,2429,-560,-345,2400,-772,-785,4133,24,56,886
500580,4245064,4474232,4249028,4478404,2220,2301,-542,-255,2528,-76,-694,2954,24,56,886
501581,4245220,4474636,4249225,4478601,2215,1686,-522,-354,2532,924,-994,2637,34,74,889
502582,4245372,4474996,4249422,4478798,2260,1890,-491,-364,2493,1015,-569,3885,34,74,889
503583,4245500,4475316,4249619,4478995,2442,2086,-471,-369,2541,-269,-573,2966,39,51,891
504584,4245668,4475604,4249816,4479192,2204,2247,-477,-413,2680,-894,-68,2580,39,51,891
505585,4245832,4475896,4250013,4479389,2245,2182,-537,-635,2794,-10,-549,1548,44,55,892
506586,4245972,4476288,4250210,4479586,2421,1471,-618,-762,2746,1529,-396,2400,44,55,892
507587,4246132,4476608,4250407,4479783,2313,1868,-635,-729,2690,758,-850,3101,31,58,891
508588,4246288,4476900,4250604,4479980,2357,2002,-547,-658,2732,-263,-202,3185,31,58,891
509596,4246476,4477188,4250834,4480210,2176,2002,-458,-811,2807,205,308,2000,28,66,893
510590,4246672,4477532,4251031,4480407,2127,1588,-419,-969,2838,1033,-420,2271,28,66,893
511590,4246856,4477868,4251228,4480604,2209,1577,-340,-925,2919,-72,-1156,3604,53,70,890
512592,4247088,4478196,4251425,4480801,1894,1570,-236,-850,3052,-1037,-461,2653,53,70,890
513593,4247264,4478496,4251622,4480998,2255,1700,-231,-983,3141,-634,226,1040,40,55,894
514594,4247476,4478836,4251819,4481195,2024,1388,-284,-1128,3135,639,-179,2054,40,55,894
515594,4247700,4479188,4252016,4481392,1937,1245,-251,-936,3039,1511,-634,4025,40,67,897
516596,4247908,4479492,4252213,4481589,2033,1499,-157,-673,2892,1322,-741,3048,40,67,897
517597,4248124,4479788,4252410,4481786,1976,1506,-116,-615,2818,589,-351,1874,43,48,897
518598,4248352,4480128,4252607,4481983,1888,1169,-146,-598,2864,293,-142,2008,43,48,897
519599,4248556,4480460,4252804,4482180,2036,1159,-150,-298,2883,1345,-386,3492,35,54,896
520600,4248768,4480768,4253001,4482377,1980,1261,-109,83,2850,1195,-499,3157,35,54,896
521601,4248988,4481080,4253198,4482574,1921,1186,-56,325,2884,-245,-300,2512,38,72,897
522602,4249228,4481368,4253395,4482771,1778,1296,-18,466,2975,-362,834,2504,38,72,897
523603,4249444,4481756,4253592,4482968,1920,587,-4,506,2877,2241,815,1602,41,68,896
524604,4249684,4482096,4253789,4483165,1752,824,58,639,2822,389,-105,2817,41,68,896
525605,4249884,4482416,4253986,4483362,2001,896,105,794,2840,-63,-342,1630,39,68,899
526606,4250100,4482704,4254183,4483559,1894,1056,161,992,2760,1135,-518,2329,39,68,899
527607,4250340,4483040,4254380,4483756,1726,695,278,1369,2633,727,-535,3879,34,67,900
528608,4250564,4483400,4254577,4483953,1815,474,326,1594,2545,364,-533,1693,34,67,900
529609,4250768,4483708,4254774,4484150,1938,750,244,1579,2481,244,-455,502,49,60,899
530610,4251000,4483984,4254971,4484347,1748,915,220,1623,2463,-377,-215,1878,49,60,899
531611,4251240,4484236,4255168,4484544,1680,1041,286,1853,2397,296,124,2659,43,64,902
532612,4251468,4484572,4255365,4484741,1742,455,354,2101,2232,563,285,1940,43,64,902
533613,4251672,4484872,4255562,4484938,1890,635,316,2328,2090,-194,-39,1789,42,62,900
534614,4251948,4485140,4255759,4485135,1405,803,169,2535,1976,-89,-3806,1124,42,62,900
535615,4252184,4485368,4255956,4485332,1639,1040,184,2913,1742,740,-2031,4171,51,44,902
536616,4252424,4485552,4256153,4485529,1596,1320,213,2699,1554,-1212,-651,-58,51,44,902
537617,4252660,4485824,4256350,4485726,1604,737,287,2240,1459,-1343,-65,2196,43,42,903
538618,4252888,4486072,4256547,4485923,1641,865,525,2054,1299,173,38,5236,43,42,903
539619,4253068,4486288,4256744,4486120,1950,1057,680,1533,1066,-426,10,1542,30,47,900
540620,4253292,4486524,4256941,4486317,1664,915,810,1041,936,-1593,-467,4048,30,47,900
541621,4253532,4486692,4257138,4486514,1545,1352,859,751,798,-570,-874,4296,31,42,901
542622,4253708,4486836,4257335,4486711,1955,1526,827,772,697,-445,-1635,5291,31,42,901
543623,4253936,4487032,4257532,4486908,1618,1201,750,798,626,-661,-1067,5267,41,27,899
544624,4254140,4487244,4257729,4487105,1765,1094,541,661,394,489,-1422,4333,41,27,899
545625,4254324,4487440,4257926,4487302,1896,1195,202,663,98,757,-2187,4587,48,37,895
546626,4254548,4487644,4258123,4487499,1636,1142,-328,756,-123,-1004,-398,4289,48,37,895
547626,4254808,4487816,4258320,4487696,1383,1353,-216,189,-265,7,-1868,6440,49,37,899
548628,4255024,4488004,4258517,4487893,1651,1257,2,-648,-446,-23,-2474,5668,49,37,899
549629,4255260,4488152,4258714,4488090,1509,1528,110,-1684,-591,29,-2710,4474,45,26,900
550630,4255508,4488372,4258911,4488287,1412,1068,28,-2196,-730,372,-2913,6135,45,26,900
551631,4255716,4488600,4259108,4488484,1658,1005,-316,-1792,-993,1111,376,5719,54,38,900
552632,4255924,4488816,4259305,4488681,1654,1071,-801,-1073,-1192,-91,965,5451,54,38,900
553633,4256192,4489024,4259502,4488878,1248,1116,-1068,-759,-1316,416,-1647,5692,40,41,902
554634,4256420,4489224,4259699,4489075,1485,1165,-982,-986,-1468,1327,-2751,6174,40,41,902
555635,4256656,4489388,4259896,4489272,1418,1405,-759,-1842,-1555,307,-1509,4545,47,29,899
556636,4256908,4489552,4260093,4489469,1295,1419,-526,-3002,-1628,1037,-951,4177,47,29,899
557637,4257140,4489720,4260290,4489666,1406,1407,-393,-4038,-1733,1896,-1432,4343,39,31,901
558638,4257380,4489952,4260487,4489863,1337,991,-394,-4496,-1814,1354,-817,4932,39,31,901
559639,4257640,4490208,4260684,4490060,1185,815,-555,-4549,-1885,1154,-868,4804,37,43,901
560640,4257860,4490432,4260881,4490257,1425,1004,-773,-4218,-2008,1779,-1229,5444,37,43,901
561640,4258044,4490636,4261078,4490454,1657,1126,-935,-3926,-2147,1800,-795,4837,38,39,902
562642,4258292,4490844,4261275,4490651,1235,1096,-1063,-3756,-2268,2071,-528,4299,38,39,902
563642,4258532,4491012,4261472,4490848,1266,1358,-1143,-3629,-2316,1698,760,4185,37,34,902
564644,4258752,4491208,4261669,4491045,1382,1184,-1288,-3673,-2387,2866,-179,2596,37,34,902
565645,4258944,4491432,4261866,4491242,1560,997,-1229,-3394,-2444,2949,-1270,6513,42,43,901
566646,4259092,4491636,4262063,4491439,1857,1119,-1040,-3035,-2604,4336,-2551,5513,42,43,901
567647,4259216,4491828,4262260,4491636,2039,1195,-1042,-2943,-2914,6596,-2805,2405,21,24,900
568648,4259336,4491976,4262457,4491833,2099,1492,-1141,-2757,-3099,6639,-480,4813,21,24,900
569649,4259452,4492120,4262654,4492030,2161,1540,-1160,-2041,-3070,6666,-1677,7306,33,31,898
570650,4259612,4492272,4262851,4492227,1902,1510,-1039,-1225,-2940,5964,605,7098,33,31,898
571651,4259776,4492392,4263048,4492424,1892,1744,-930,-1131,-2672,2783,-395,2783,25,28,895
572652,4259972,4492532,4263245,4492621,1693,1644,-895,-1466,-2288,1351,-1553,2532,25,28,895
573653,4260148,4492672,4263442,4492818,1828,1669,-752,-1428,-2032,3809,-2467,5170,39,19,897
574654,4260352,4492828,4263639,4493015,1651,1587,-471,-703,-1941,6195,-2525,7603,39,19,897
575655,4260584,4492964,4263836,4493212,1461,1738,-295,90,-1937,6631,44,5699,49,31,897
576656,4260744,4493096,4264033,4493409,1928,1793,-308,365,-1776,4763,1465,2972,49,31,897
577657,4260924,4493240,4264230,4493606,1811,1741,-338,369,-1273,2767,-3194,4412,28,17,897
578658,4261092,4493376,4264427,4493803,1899,1818,-249,696,-807,3534,-4559,6932,28,17,897
579658,4261256,4493492,4264624,4494000,1940,1979,-203,1220,-496,3531,-2645,4959,21,24,895
580660,4261428,4493596,4264821,4494197,1901,2095,-191,1204,-133,2203,-1887,3038,21,24,895
581661,4261632,4493708,4265018,4494394,1698,2082,32,1028,266,2528,-3158,5564,23,14,895
582662,4261816,4493820,4265215,4494591,1830,2119,379,980,587,2925,-1901,5745,23,14,895
583663,4262024,4493952,4265412,4494788,1675,2023,553,908,796,2463,-2398,3152,28,19,893
584664,4262252,4494096,4265609,4494985,1538,1971,519,1006,901,2239,-2382,4470,28,19,893
585665,4262468,4494204,4265806,4495182,1605,2236,430,1217,885,2328,-1438,4221,51,17,893
586666,4262656,4494320,4266003,4495379,1784,2222,337,1392,834,1390,-1750,4360,51,17,893
587667,4262904,4494408,4266200,4495576,1388,2445,235,1222,806,757,-1797,2847,53,11,895
588668,4263124,4494532,4266397,4495773,1554,2252,234,1006,819,556,-2238,5250,53,11,895
589669,4263328,4494652,4266594,4495970,1651,2311,303,734,874,-161,-2193,4654,40,28,892
590670,4263556,4494776,4266791,4496167,1488,2319,190,394,931,-584,-1240,2719,40,28,892
591671,4263800,4494900,4266988,4496364,1367,2351,-23,403,945,-538,-48,4404,50,17,894
592681,4263968,4495024,4267218,4496594,1871,2397,-177,517,802,626,97,4424,50,17,894
593673,4264180,4495140,4267415,4496791,1590,2483,-238,320,475,2150,-439,3082,29,18,894
594674,4264440,4495284,4267612,4496988,1262,2332,-197,-2,73,3071,-77,3877,29,18,894
595675,4264648,4495484,4267809,4497185,1584,1981,-194,-285,-259,2565,677,3229,52,25,891
596676,4264872,4495656,4268006,4497382,1473,2167,-248,-583,-403,1159,56,2346,52,25,891
597677,4265092,4495824,4268203,4497579,1488,2206,-294,-690,-382,463,-42,3341,45,31,895
598678,4265324,4495976,4268400,4497776,1398,2326,-331,-512,-262,256,-681,3294,45,31,895
599679,4265536,4496144,4268597,4497973,1517,2238,-341,-305,-197,1071,-667,3495,33,28,894
600679,4265780,4496316,4268794,4498170,1297,2225,-323,-213,-228,1614,-893,3375,33,28,894
601681,4266020,4496500,4268991,4498367,1303,2156,-305,-422,-239,1038,-280,2697,39,26,894
602681,4266252,4496660,4269188,4498564,1339,2322,-352,-793,-157,213,-223,1470,39,26,894
603682,4266520,4496836,4269385,4498761,1084,2232,-458,-1087,-115,829,-704,2451,38,31,895
604684,4266760,4497040,4269582,4498958,1240,2054,-550,-1138,-73,71,-1293,2916,38,31,895
605685,4266984,4497236,4269779,4499155,1329,2106,-713,-1103,-131,1075,126,2093,42,30,895
606685,4267240,4497440,4269976,4499352,1103,2053,-766,-944,-177,828,-645,3828,42,30,895
607687,4267472,4497632,4270173,4499549,1238,2130,-629,-767,-234,1468,-1369,5061,53,32,897
608688,4267656,4497832,4270370,4499746,1544,2080,-447,-1024,-275,1463,-212,2235,53,32,897
609689,4267872,4498004,4270567,4499943,1337,2266,-309,-1398,-203,1169,-845,3303,50,30,896
610690,4268076,4498164,4270764,4500140,1409,2357,-235,-1707,-46,1173,-903,2722,50,30,896
611690,4268280,4498400,4270961,4500337,1407,1866,-314,-1886,154,957,-244,1838,32,42,894
612692,4268484,4498608,4271158,4500534,1404,2036,-517,-1747,335,778,-472,2186,32,42,894
613693,4268744,4498828,4271355,4500731,1027,1951,-701,-1238,445,955,381,3655,38,42,893
614693,4268984,4499032,4271552,4500928,1133,2049,-817,-643,582,368,-446,4154,38,42,893
615695,4269160,4499252,4271749,4501125,1543,1939,-800,-279,646,1210,-579,3680,51,43,896
616696,4269356,4499476,4271946,4501322,1419,1903,-620,-157,609,2360,-525,5045,51,43,896
617697,4269532,4499696,4272143,4501519,1554,1918,-393,-610,637,1184,-1144,2070,40,52,898
618698,4269684,4499916,4272340,4501716,1724,1908,-132,-1227,688,913,-573,3438,40,52,898
619699,4269860,4500168,4272537,4501913,1584,1684,155,-1644,780,157,-450,3819,21,38,896
620700,4270024,4500364,4272734,4502110,1673,2035,328,-1644,829,438,802,4422,21,38,896
621701,4270176,4500576,4272931,4502307,1769,1928,302,-1355,823,755,-443,4033,30,38,894
622702,4270372,4500792,4273128,4502504,1495,1896,142,-865,788,767,-714,4441,30,38,894
623703,4270524,4500984,4273325,4502701,1790,2048,-27,-329,850,-329,-697,3750,37,39,895
624704,4270684,4501208,4273522,4502898,1757,1836,-52,212,838,308,-245,5506,37,39,895
625705,4270836,4501408,4273719,4503095,1827,1986,69,522,694,386,-431,4792,22,40,897
626706,4270992,4501632,4273916,4503292,1820,1824,179,339,560,-45,-683,3427,22,40,897
627707,4271148,4501836,4274113,4503489,1839,1946,241,-66,591,-47,-676,4035,22,37,896
628708,4271312,4502032,4274310,4503686,1805,1997,356,-312,825,42,-1560,5022,22,37,896
629709,4271492,4502248,4274507,4503883,1712,1864,528,-442,1149,177,-1925,4794,41,47,895
630710,4271644,4502460,4274704,4504080,1908,1882,668,-549,1444,1021,-1913,3824,41,47,895
631711,4271796,4502648,4274901,4504277,1928,2036,747,-425,1711,1243,-1177,4838,21,28,893
632712,4271964,4502836,4275098,4504474,1842,2041,763,30,1913,1239,-1113,5399,21,28,893
633713,4272132,4503020,4275295,4504671,1854,2072,682,447,2037,757,-445,4839,40,40,893
634714,4272288,4503208,4275492,4504868,1949,2051,617,709,2146,760,-1444,4977,40,40,893
635715,4272476,4503348,4275689,4505065,1753,2377,675,780,2274,447,-1380,4918,43,28,893
636716,4272632,4503540,4275886,4505262,1971,2054,793,596,2437,-244,-908,3512,43,28,893
637717,4272820,4503704,4276083,4505459,1776,2244,951,424,2577,22,-1277,4226,44,41,893
638718,4273008,4503848,4276280,4505656,1781,2393,1084,404,2740,-448,-630,4855,44,41,893
639719,4273192,4504048,4276477,4505853,1812,2042,1078,468,2862,-43,-601,4034,47,23,893
640720,4273360,4504232,4276674,4506050,1926,2147,980,635,2883,196,-443,4859,47,23,893
641721,4273544,4504396,4276871,4506247,1832,2288,900,826,2935,-607,-396,4848,42,26,891
642722,4273720,4504576,4277068,4506444,1892,2195,879,803,3059,-72,-1202,3930,42,26,891
643723,4273876,4504728,4277265,4506641,2036,2390,927,743,3203,-23,-906,4858,45,41,891
644724,4274060,4504944,4277462,4506838,1867,1983,973,555,3339,-785,-553,3670,45,41,891
645724,4274244,4505156,4277659,4507035,1873,2001,997,402,3391,-685,-5,4672,36,42,893
646725,4274416,4505388,4277856,4507232,1960,1862,1012,367,3349,-770,-479,4804,36,42,893
647726,4274620,4505632,4278053,4507429,1757,1766,953,436,3292,-950,-600,4654,42,38,894
648728,4274804,4505876,4278250,4507626,1889,1746,925,589,3237,-776,-770,5058,42,38,894
649729,4274964,4506084,4278447,4507823,2056,1967,925,672,3131,-247,-723,4674,35,57,894
650730,4275116,4506368,4278644,4508020,2126,1453,955,792,3020,-445,792,5126,35,57,894
651731,4275264,4506656,4278841,4508217,2173,1388,956,734,3028,-1054,-951,3976,29,51,895
652732,4275412,4506944,4279038,4508414,2196,1348,1000,569,3067,-862,-21,4062,29,51,895
653733,4275548,4507284,4279235,4508611,2298,962,1090,387,3090,-1046,22,4224,31,49,894
654734,4275700,4507556,4279432,4508808,2219,1354,1204,125,3152,-1442,-1137,4166,31,49,894
655734,4275824,4507776,4279629,4509005,2427,1669,1271,-28,3140,-463,87,4326,25,46,894
656736,4275976,4507932,4279826,4509202,2271,2087,1260,-190,3087,-858,-550,3756,25,46,894
657737,4276172,4508104,4280023,4509399,1998,1999,1291,-242,2976,-715,730,5411,48,34,895
658738,4276352,4508264,4280220,4509596,2106,2090,1307,-235,2833,-538,1777,4929,48,34,895
659738,4276520,4508444,4280417,4509793,2195,1972,1166,-343,2664,-1001,1687,3455,41,25,891
660740,4276680,4508656,4280614,4509990,2261,1766,1047,-205,2486,-1009,948,6190,41,25,891
661741,4276852,4508912,4280811,4510187,2198,1466,1014,-3,2360,-1001,-181,5948,39,36,892
662742,4277012,4509104,4281008,4510384,2291,1868,1002,10,2272,-808,493,4582,39,36,892
663743,4277168,4509356,4281205,4510581,2335,1469,1005,-90,2249,-527,514,5112,47,48,893
664744,4277304,4509640,4281402,4510778,2486,1231,1095,-265,2252,161,-154,4909,47,48,893
665745,4277448,4509944,4281599,4510975,2461,1060,1221,-471,2223,815,-135,4606,32,65,891
666746,4277616,4510212,4281796,4511172,2324,1253,1269,-814,2226,364,274,3175,32,65,891
667746,4277756,4510452,4281993,4511369,2525,1409,1232,-1017,2258,-46,877,3687,44,55,894
668748,4277884,4510720,4282190,4511566,2632,1203,1121,-876,2267,-31,300,4098,44,55,894
669749,4278016,4510972,4282387,4511763,2635,1279,891,-594,2148,-131,-830,3500,28,40,895
670750,4278132,4511192,4282584,4511960,2772,1470,602,-160,1870,140,-374,4763,28,40,895
671750,4278268,4511404,4282781,4512157,2675,1513,360,391,1533,112,-292,5894,38,54,892
672752,4278416,4511668,4282978,4512354,2622,1159,151,740,1196,-32,561,4785,38,54,892
673753,4278564,4511960,4283175,4512551,2645,942,-4,894,898,353,913,5285,42,47,891
674754,4278712,4512216,4283372,4512748,2667,1141,-78,907,704,782,-252,5563,42,47,891
675761,4278852,4512496,4283602,4512978,2758,969,-135,809,628,741,-226,4711,43,55,892
676756,4279016,4512756,4283799,4513175,2622,1067,-223,644,616,555,352,4056,43,55,892
677757,4279168,4513040,4283996,4513372,2718,878,-302,641,622,568,791,4733,28,45,891
678757,4279340,4513332,4284193,4513569,2605,787,-349,719,574,1020,753,4182,28,45,891
679758,4279512,4513608,4284390,4513766,2617,852,-358,767,455,1283,67,3719,28,58,894
680760,4279680,4513848,4284587,4513963,2656,1058,-326,871,333,1348,-116,4127,28,58,894
681761,4279840,4514084,4284784,4514160,2723,1066,-337,929,187,1560,557,3318,49,48,895
682762,4280040,4514276,4284981,4514357,2473,1343,-412,1119,18,1286,1109,3836,49,48,895
683763,4280232,4514492,4285178,4514554,2526,1185,-595,1341,-213,1398,1156,3217,48,35,893
684764,4280396,4514724,4285375,4514751,2717,1070,-855,1556,-451,632,383,3312,48,35,893
685765,4280604,4514944,4285572,4514948,2438,1135,-1030,1774,-636,-93,-145,4549,48,49,894
686766,4280780,4515136,4285769,4515145,2648,1312,-1069,1830,-731,-857,-290,4794,48,49,894
687767,4280964,4515332,4285966,4515342,2605,1288,-1022,1603,-797,-637,-427,4011,33,34,892
688768,4281144,4515560,4286163,4515539,2638,1074,-922,1335,-843,-447,-1363,4998,33,34,892
689768,4281316,4515764,4286360,4515736,2700,1221,-826,1237,-920,-324,-1489,5105,46,47,892
690770,4281492,4515968,4286557,4515933,2685,1217,-867,1570,-1080,197,207,5420,46,47,892
691770,4281684,4516208,4286754,4516130,2589,973,-1019,2074,-1360,1533,1467,4749,36,37,894
692772,4281840,4516440,4286951,4516327,2833,1008,-1118,2321,-1668,2234,-520,4508,36,37,894
693773,4282012,4516636,4287148,4516524,2745,1233,-1080,2118,-1885,1550,-1492,4045,27,35,893
694774,4282208,4516860,4287345,4516721,2596,1046,-991,1522,-1904,142,-444,2888,27,35,893
695774,4282424,4516996,4287542,4516918,2464,1623,-861,1010,-1743,-707,-655,4391,33,35,893
696775,4282624,4517160,4287739,4517115,2562,1463,-766,595,-1696,-126,-964,4228,33,35,893
697777,4282808,4517284,4287936,4517312,2669,1745,-725,384,-1740,-448,-1460,4875,34,29,893
698778,4283020,4517412,4288133,4517509,2488,1750,-680,398,-1818,-110,-1905,6180,34,29,893
699779,4283200,4517532,4288330,4517706,2697,1834,-693,410,-1831,-814,-1795,4778,36,17,891
700780,4283388,4517652,4288527,4517903,2652,1868,-754,276,-1946,308,-809,4751,36,17,891
701781,4283604,4517740,4288724,4518100,2470,2116,-779,205,-2040,-403,-1684,6076,43,19,891
702782,4283788,4517828,4288921,4518297,2676,2165,-793,104,-2089,-225,-1258,5034,43,19,891
703782,4283988,4517952,4289118,4518494,2576,1972,-740,-126,-2107,18,-1695,5064,48,13,889
704784,4284212,4518044,4289315,4518691,2415,2218,-631,-442,-2087,-385,-1032,4731,48,13,889
705785,4284400,4518140,4289512,4518888,2645,2237,-563,-752,-2017,-216,-1249,3974,32,28,888
706786,4284620,4518228,4289709,4519085,2436,2335,-493,-828,-1981,323,-1440,5148,32,28,888
707786,4284844,4518296,4289906,4519282,2400,2517,-417,-823,-1956,-54,-706,4334,47,11,889
708788,4285056,4518372,4290103,4519479,2469,2520,-385,-833,-1930,-160,-1037,3755,47,11,889
709789,4285272,4518480,4290300,4519676,2437,2360,-400,-761,-1935,218,-1034,4235,47,27,886
710790,4285480,4518588,4290497,4519873,2483,2399,-407,-667,-1908,-160,-1683,3677,47,27,886
711791,4285716,4518700,4290694,4520070,2292,2412,-353,-670,-1909,457,-1102,3835,56,19,887
712791,4285948,4518812,4290891,4520267,2303,2449,-279,-758,-1946,755,-933,3125,56,19,887
713793,4286180,4518924,4291088,4520464,2288,2487,-178,-896,-1938,285,-886,3413,57,17,887
714794,4286416,4519028,4291285,4520661,2247,2578,-106,-1034,-1865,-25,-591,2814,57,17,887
715795,4286664,4519148,4291482,4520858,2151,2512,-101,-1229,-1791,-47,-735,1969,56,23,888
716796,4286888,4519252,4291679,4521055,2290,2653,-90,-1269,-1744,193,-1050,3054,56,23,888
717797,4287136,4519388,4291876,4521252,2119,2481,-55,-1143,-1756,965,-967,3212,39,16,888
718798,4287404,4519512,4292073,4521449,1963,2588,-26,-1070,-1738,534,-596,2429,39,16,888
719799,4287660,4519604,4292270,4521646,2012,2835,13,-1030,-1714,947,-166,2654,59,17,885
720800,4287940,4519720,4292467,4521843,1827,2720,45,-975,-1678,948,-485,2479,59,17,885
721801,4288176,4519860,4292664,4522040,2086,2596,42,-1004,-1608,953,-230,1929,43,22,887
722802,4288456,4519992,4292861,4522237,1775,2675,23,-989,-1529,998,-175,2553,43,22,887
723802,4288760,4520108,4293058,4522434,1579,2811,-16,-950,-1473,546,-41,2319,48,24,889
724804,4289024,4520236,4293255,4522631,1801,2767,-37,-870,-1489,769,-728,2325,48,24,889
725805,4289300,4520348,4293452,4522828,1691,2904,-46,-937,-1526,526,-513,2489,65,23,889
726806,4289620,4520476,4293649,4523025,1363,2836,-33,-1058,-1541,629,-548,2167,65,23,889
727807,4289892,4520620,4293846,4523222,1631,2759,-22,-1196,-1503,806,-548,2230,65,34,888
728807,4290172,4520740,4294043,4523419,1546,2944,-27,-1354,-1451,962,-714,2257,65,34,888
729809,4290456,4520844,4294240,4523616,1483,3085,4,-1416,-1377,526,-111,2555,63,34,890
730810,4290764,4520952,4294437,4523813,1285,3100,-54,-1558,-1253,46,-816,1424,63,34,890
731811,4291052,4521084,4294634,4524010,1371,2978,-121,-1496,-1206,1177,-669,2981,70,35,887
732812,4291316,4521192,4294831,4524207,1492,3168,-134,-1381,-1184,861,-606,2796,70,35,887
733813,4291600,4521360,4295028,4524404,1329,2806,-187,-1384,-1172,383,-475,1734,57,35,888
734813,4291868,4521504,4295225,4524601,1399,2980,-185,-1441,-1172,403,-511,2569,57,35,888
735814,4292132,4521656,4295422,4524798,1395,2950,-157,-1591,-1165,99,-238,2480,61,24,888
736815,4292420,4521808,4295619,4524995,1205,2971,-137,-1793,-1185,307,-606,2115,61,24,888
737816,4292684,4521960,4295816,4525192,1327,2992,-105,-1982,-1202,-107,-335,2883,68,32,889
738818,4292924,4522112,4296013,4525389,1458,3012,-117,-2163,-1211,-11,-423,2146,68,32,889
739818,4293216,4522264,4296210,4525586,1092,3032,-138,-2320,-1178,-120,-815,2823,44,41,890
740820,4293460,4522428,4296407,4525783,1373,2972,-171,-2392,-1137,302,-862,2840,44,41,890
741820,4293700,4522568,4296604,4525980,1379,3148,-192,-2471,-1091,537,-1222,2668,59,29,887
742821,4293976,4522736,4296801,4526177,1120,2987,-213,-2528,-1059,777,-1321,3295,59,29,887
743822,4294192,4522888,4296998,4526374,1487,3106,-174,-2549,-1022,777,-1487,3504,50,31,888
744823,4294428,4523072,4297195,4526571,1345,2913,-168,-2759,-950,402,-740,2403,50,31,888
745824,4294676,4523212,4297392,4526768,1248,3214,-147,-3013,-845,278,-927,2780,38,29,890
746826,4294888,4523384,4297589,4526965,1467,3025,-97,-3209,-759,448,-648,3106,38,29,890
747827,4295164,4523540,4297786,4527162,1033,3144,-51,-3289,-692,853,-252,3309,47,28,890
748828,4295416,4523672,4297983,4527359,1160,3324,-31,-3312,-655,1277,-320,3043,47,28,890
749829,4295636,4523864,4298180,4527556,1349,2952,-12,-3278,-592,595,-593,3753,38,35,889
750830,4295884,4524040,4298377,4527753,1153,3061,-7,-3289,-499,198,-1048,2984,38,35,889
751831,4296104,4524216,4298574,4527950,1318,3071,48,-3352,-450,589,-432,4006,43,36,888
752832,4296396,4524384,4298771,4528147,827,3135,112,-3534,-432,718,-246,2965,43,36,888
753833,4296648,4524536,4298968,4528344,1053,3255,172,-3810,-411,806,-289,3566,54,25,888
754834,4296892,4524684,4299165,4528541,1083,3302,246,-4018,-420,1129,-393,3861,54,25,888
755835,4297148,4524852,4299362,4528738,982,3191,215,-4189,-396,540,-178,2982,50,40,890
756836,4297388,4525036,4299559,4528935,1064,3098,112,-4224,-300,365,-630,3573,50,40,890
757837,4297628,4525216,4299756,4529132,1046,3130,28,-3954,-197,690,135,5173,37,37,888
758845,4297880,4525388,4299986,4529362,961,3207,-48,-3537,-216,2044,-371,4809,37,37,888
759839,4298104,4525560,4300183,4529559,1125,3219,-131,-3276,-185,1208,170,4374,59,25,890
760840,4298340,4525736,4300380,4529756,1033,3204,-178,-3140,-44,1136,8,4581,59,25,890
761841,4298580,4525924,4300577,4529953,989,3133,-133,-3039,39,2056,-518,5109,49,36,890
762842,4298808,4526076,4300774,4530150,1051,3379,-42,-3048,91,2077,-418,4735,49,36,890
763843,4298992,4526240,4300971,4530347,1332,3319,14,-3110,121,2749,-156,4389,36,40,887
764844,4299188,4526412,4301168,4530544,1259,3281,32,-3096,150,2686,-396,4857,36,40,887
765845,4299380,4526580,4301365,4530741,1286,3319,23,-3033,255,1663,-477,4553,28,29,886
766846,4299552,4526804,4301562,4530938,1422,2958,24,-2926,390,1682,-49,4896,28,29,886
767847,4299756,4526980,4301759,4531135,1220,3268,19,-2611,454,2699,-294,5754,30,31,887
768848,4299932,4527168,4301956,4531332,1404,3198,29,-2365,456,2859,-801,5112,30,31,887
769849,4300104,4527344,4302153,4531529,1440,3284,37,-2065,486,2600,30,6077,36,31,889
770850,4300296,4527532,4302350,4531726,1318,3213,41,-1938,554,2254,-628,4813,36,31,889
771851,4300472,4527724,4302547,4531923,1427,3191,31,-1869,654,2059,-432,5576,44,43,887
772852,4300640,4527916,4302744,4532120,1491,3194,80,-1764,733,2092,-289,6069,44,43,887
773853,4300824,4528100,4302941,4532317,1397,3251,128,-1716,768,2146,-97,5317,43,36,887
774854,4301004,4528268,4303138,4532514,1429,3364,108,-1720,795,1772,-12,5300,43,36,887
775855,4301152,4528424,4303335,4532711,1652,3457,107,-1635,831,1448,301,6200,25,40,885
776856,4301320,4528576,4303532,4532908,1540,3503,31,-1522,862,1296,-250,5135,25,40,885
777857,4301500,4528744,4303729,4533105,1473,3417,-33,-1385,872,1389,-27,5748,42,34,885
778857,4301644,4528884,4303926,4533302,1721,3618,-64,-1245,861,1384,-733,6036,42,34,885
779859,4301792,4529060,4304123,4533499,1719,3403,-35,-1141,844,1375,-590,5952,23,30,884
780860,4301992,4529224,4304320,4533696,1393,3494,58,-1183,848,1122,-776,6069,23,30,884
781861,4302168,4529384,4304517,4533893,1552,3535,121,-1325,880,686,-41,5387,34,40,882
782862,4302332,4529540,4304714,4534090,1642,3579,159,-1584,986,75,-449,5075,34,40,882
783863,4302504,4529716,4304911,4534287,1603,3464,204,-1665,1023,760,-489,6128,25,30,884
784864,4302680,4529864,4305108,4534484,1588,3662,251,-1801,1083,-148,-444,5015,25,30,884
785865,4302848,4530016,4305305,4534681,1651,3658,255,-1891,1091,619,-624,5542,42,41,881
786866,4303048,4530152,4305502,4534878,1451,3785,246,-1886,1058,423,-223,5865,42,41,881
787867,4303232,4530304,4305699,4535075,1557,3706,214,-1851,1077,-557,-1118,5753,28,28,881
788868,4303396,4530480,4305896,4535272,1697,3566,208,-1847,1080,-285,103,5642,28,28,881
789869,4303580,4530656,4306093,4535469,1578,3576,214,-1885,985,484,-321,5700,46,40,881
790870,4303748,4530812,4306290,4535666,1692,3720,250,-1911,929,-283,384,6076,46,40,881
791871,4303932,4530984,4306487,4535863,1597,3632,254,-2123,912,-139,297,4276,48,36,882
792872,4304120,4531148,4306684,4536060,1577,3697,217,-2252,895,358,598,5360,48,36,882
793873,4304308,4531344,4306881,4536257,1581,3499,147,-2246,900,326,-37,4973,27,35,880
794874,4304488,4531496,4307078,4536454,1640,3794,48,-2127,970,-128,-260,5141,31,42,882
795875,4304688,4531660,4307275,4536651,1513,3735,42,-1962,1039,59,-720,5383,31,42,882
796876,4304884,4531844,4307472,4536848,1540,3617,106,-1979,1064,86,-231,4722,35,40,879
797877,4305076,4532032,4307669,4537045,1567,3596,220,-2103,1051,584,310,4742,35,40,879
798891,4305260,4532188,4307866,4537242,1624,3800,273,-2333,1085,201,516,3714,49,36,882
799879,4305488,4532364,4308063,4537439,1335,3701,250,-2412,1137,355,160,3866,49,36,882
800880,4305688,4532544,4308260,4537636,1510,3684,252,-2215,1184,-69,-147,5022,41,36,881
801881,4305872,4532716,4308457,4537833,1615,3746,225,-1867,1243,-217,-400,4942,41,36,881
802882,4306088,4532904,4308654,4538030,1408,3651,133,-1724,1330,-345,-114,3491,47,29,882
803883,4306264,4533092,4308851,4538227,1667,3656,138,-1465,1468,-640,81,5819,47,29,882
804884,4306436,4533308,4309048,4538424,1703,3474,143,-1435,1550,-84,152,3537,47,46,881
805885,4306632,4533496,4309245,4538621,1555,3654,115,-1628,1548,633,296,3072,47,46,881
806886,4306824,4533688,4309442,4538818,1582,3632,136,-1748,1456,1273,1010,4594,47,48,882
807887,4306996,4533896,4309639,4539015,1719,3528,160,-1761,1383,935,-62,4187,47,48,882
808888,4307184,4534100,4309836,4539212,1623,3551,176,-1715,1430,-224,12,4273,48,35,882
809889,4307356,4534288,4310033,4539409,1735,3656,191,-1585,1521,-106,-674,4912,48,35,882
810890,4307516,4534512,4310230,4539606,1826,3420,196,-1444,1516,633,251,4077,39,34,883
811891,4307672,4534728,4310427,4539803,1870,3463,94,-1491,1480,708,626,2771,39,34,883
812892,4307832,4534932,4310624,4540000,1862,3536,-32,-1487,1497,290,605,3523,41,46,883
813893,4307964,4535144,4310821,4540197,2066,3480,-112,-1308,1592,-606,707,4261,41,46,883
814894,4308112,4535336,4311018,4540394,1989,3607,-207,-1133,1685,-451,313,3347,28,39,881
815895,4308268,4535540,4311215,4540591,1957,3530,-253,-938,1745,-309,-271,4219,28,39,881
816896,4308448,4535764,4311412,4540788,1815,3394,-246,-832,1740,330,-391,4156,40,38,881
817897,4308600,4535964,4311609,4540985,2010,3544,-229,-830,1713,531,-779,3602,40,38,881
818898,4308776,4536164,4311806,4541182,1870,3544,-233,-971,1706,489,-346,3194,28,30,882
819899,4308932,4536372,4312003,4541379,2013,3490,-283,-1082,1745,193,248,3075,28,30,882
820900,4309088,4536588,4312200,4541576,2032,3432,-393,-1200,1816,154,347,2424,42,46,879
821901,4309256,4536840,4312397,4541773,1971,3184,-490,-1154,1894,231,296,3676,42,46,879
822902,4309428,4537028,4312594,4541970,1957,3589,-503,-986,1973,51,-338,3869,34,51,880
823903,4309580,4537232,4312791,4542167,2103,3487,-508,-926,2013,520,-1132,3305,34,51,880
824904,4309744,4537476,4312988,4542364,2042,3218,-510,-950,2073,50,-1429,3008,44,54,879
825905,4309880,4537776,4313185,4542561,2245,2823,-490,-977,2127,-44,-952,3805,44,54,879
826906,4310020,4538076,4313382,4542758,2246,2779,-429,-929,2143,-253,695,4305,24,65,884
827907,4310168,4538340,4313579,4542955,2217,2976,-449,-1014,2157,10,16,2638,24,65,884
828908,4310304,4538644,4313776,4543152,2320,2680,-570,-1261,2071,1674,-338,1780,23,62,885
829909,4310444,4538976,4313973,4543349,2321,2445,-645,-1341,2014,1089,-504,3509,23,62,885
830910,4310584,4539300,4314170,4543546,2346,2440,-561,-1220,2163,-886,-1172,4292,43,67,885
831911,4310752,4539596,4314367,4543743,2185,2573,-409,-1010,2291,275,-1288,4255,43,67,885
832912,4310900,4539972,4314564,4543940,2333,1995,-368,-940,2264,1414,-761,2702,35,71,887
833913,4311040,4540328,4314761,4544137,2408,2051,-422,-991,2270,631,-867,2703,35,71,887
834914,4311188,4540676,4314958,4544334,2380,2035,-435,-969,2378,-265,-1102,3514,38,55,890
835914,4311352,4540980,4315155,4544531,2296,2264,-381,-948,2485,79,-362,2812,38,55,890
836916,4311488,4541264,4315352,4544728,2499,2352,-404,-1124,2520,449,-587,1663,34,55,890
837917,4311660,4541628,4315549,4544925,2285,1778,-425,-1248,2521,902,-773,2661,34,55,890
838918,4311800,4541988,4315746,4545122,2511,1733,-350,-1230,2551,743,-867,3446,41,63,888
839919,4311964,4542304,4315943,4545319,2376,1956,-210,-1228,2614,274,-418,2843,41,63,888
840920,4312168,4542588,4316140,4545516,2123,2118,-98,-1303,2686,268,-233,2453,38,70,890
841928,4312364,4542944,4316370,4545746,2189,1614,-74,-1456,2783,3,-608,1782,38,70,890
842922,4312556,4543300,4316567,4545943,2217,1544,-37,-1455,2883,-89,-733,2965,35,58,891
843923,4312752,4543656,4316764,4546140,2194,1475,2,-1350,2933,-565,106,2607,35,58,891
844924,4312956,4543944,4316961,4546337,2142,1860,-13,-1401,2977,-308,-245,1565,36,74,894
845925,4313132,4544312,4317158,4546534,2326,1286,-13,-1342,2902,1835,-254,2693,36,74,894
846926,4313356,4544680,4317355,4546731,2015,1211,41,-1152,2712,2558,-621,3185,36,68,893
847927,4313588,4545000,4317552,4546928,1950,1458,117,-848,2644,562,-649,3198,36,68,893
848928,4313800,4545284,4317749,4547125,2070,1645,191,-627,2781,-577,-407,2658,46,59,896
849929,4314020,4545676,4317946,4547322,2010,884,228,-397,2867,1157,-613,2739,46,59,896
850930,4314240,4546024,4318143,4547519,2001,1093,245,-84,2853,1287,-692,3198,42,59,894
851931,4314448,4546344,4318340,4547716,2072,1214,297,206,2827,307,201,3112,42,59,894
852932,4314676,4546664,4318537,4547913,1934,1160,330,388,2856,-273,1305,1944,57,58,897
853933,4314920,4546968,4318734,4548110,1814,1213,280,271,2791,1903,743,224,57,58,897
854934,4315136,4547356,4318931,4548307,1981,605,322,390,2760,1162,-255,2908,51,68,898
855935,4315368,4547692,4319128,4548504,1867,869,455,699,2809,200,-685,2919,51,68,898
856936,4315604,4548020,4319325,4548701,1825,862,562,922,2801,886,-841,1712,42,63,899
857937,4315820,4548316,4319522,4548898,1942,1018,668,1130,2737,863,-434,2576,42,63,899
858938,4316060,4548688,4319719,4549095,1774,466,710,1300,2667,619,220,1807,36,71,899
859939,4316296,4549016,4319916,4549292,1783,684,638,1403,2611,536,266,744,36,71,899
860940,4316524,4549352,4320113,4549489,1820,573,584,1542,2578,49,208,1589,56,54,901
861941,4316748,4549624,4320310,4549686,1834,940,647,1871,2517,378,466,2598,56,54,901
862942,4317020,4549932,4320507,4549883,1502,666,688,2304,2439,123,802,2663,61,53,900
863943,4317240,4550264,4320704,4550080,1817,457,510,2787,2466,707,-383,1915,61,53,900
864944,4317512,4550604,4320901,4550277,1460,344,216,3351,2502,1379,-515,2597,62,54,902
865945,4317768,4550920,4321098,4550474,1535,442,97,3819,2437,696,-1646,2499,62,54,902
866946,4318012,4551204,4321295,4550671,1589,603,242,3894,2198,485,-3357,1642,49,54,903
867946,4318240,4551368,4321492,4550868,1677,1368,522,3790,1792,809,675,3015,49,54,903
868948,4318492,4551660,4321689,4551065,1502,526,541,3403,1551,-79,-103,-237,46,45,902
869949,4318684,4551920,4321886,4551262,1881,698,445,3159,1512,-67,-643,3192,46,45,902
870950,4318920,4552144,4322083,4551459,1589,911,479,2926,1447,-73,-1205,2724,54,54,902
871951,4319156,4552368,4322280,4551656,1572,900,587,2439,1300,-1138,-1485,2656,54,54,902
872952,4319392,4552572,4322477,4551853,1556,1021,799,2167,1241,-1579,-1717,5207,37,52,900
873953,4319588,4552788,4322674,4552050,1807,937,877,2183,1184,-432,116,5282,37,52,900
874953,4319788,4553008,4322871,4552247,1781,902,670,2119,1085,-232,279,2614,51,32,899
875954,4320012,4553224,4323068,4552444,1620,919,376,2158,961,-259,-582,5099,51,32,899
876956,4320228,4553452,4323265,4552641,1662,830,135,2263,793,-664,-1156,4763,56,42,899
877957,4320492,4553624,4323462,4552838,1334,1191,-53,2155,640,-1069,-1992,4746,56,42,899
878958,4320756,4553832,4323659,4553035,1304,960,-158,2079,536,-837,-3359,5803,53,44,901
879959,4320984,4554048,4323856,4553232,1517,902,-264,1847,385,64,-710,4906,53,44,901
880960,4321228,4554292,4324053,4553429,1396,706,-287,1038,285,-950,-567,3924,51,49,902
881961,4321456,4554548,4324250,4553626,1483,605,-111,-46,196,-886,-1171,5685,51,49,902
882962,4321724,4554748,4324447,4553823,1203,954,153,-1194,85,-768,-2095,5448,61,34,903
883963,4321968,4554928,4324644,4554020,1332,1086,181,-2207,-36,-558,-3186,4508,61,34,903
884964,4322236,4555092,4324841,4554217,1152,1200,-64,-2395,-162,-374,-2474,6272,50,45,901
885965,4322460,4555292,4325038,4554414,1415,974,-571,-1713,-296,-776,512,6067,50,45,901
886966,4322664,4555544,4325235,4554611,1538,624,-1153,-1158,-487,-592,231,4588,42,49,901
887967,4322916,4555776,4325432,4554808,1214,734,-1420,-1129,-729,-40,-1871,6389,42,49,901
888968,4323172,4556000,4325629,4555005,1164,772,-1379,-1822,-951,195,-1230,5257,40,46,902
889969,4323376,4556192,4325826,4555202,1486,974,-1194,-3165,-1066,118,-913,4018,40,46,902
890970,4323588,4556364,4326023,4555399,1430,1109,-923,-4514,-1135,1683,-1718,5774,35,29,903
891971,4323804,4556548,4326220,4555596,1397,1040,-753,-5427,-1254,2052,-1369,5355,35,29,903
892972,4324036,4556756,4326417,4555793,1282,885,-841,-5661,-1400,1574,-586,4562,37,31,901
893973,4324288,4556996,4326614,4555990,1134,666,-1132,-5299,-1532,1471,-472,5349,37,31,901
894974,4324540,4557212,4326811,4556187,1109,808,-1481,-4588,-1651,1565,-685,4992,40,29,901
895975,4324756,4557412,4327008,4556384,1327,906,-1745,-4037,-1738,1740,-1457,4177,40,29,901
896976,4324932,4557572,4327205,4556581,1586,1172,-1795,-3584,-1843,2503,-1138,5488,34,34,903
897977,4325156,4557720,4327402,4556778,1276,1269,-1726,-3463,-1966,2756,-644,3964,34,34,903
898978,4325380,4557848,4327599,4556975,1264,1424,-1643,-3576,-2089,3003,298,3157,48,33,900
899979,4325576,4557976,4327796,4557172,1439,1454,-1559,-3647,-2151,2886,403,3549,48,33,900
900980,4325780,4558112,4327993,4557369,1387,1431,-1528,-3476,-2108,2284,-792,3628,27,20,900
901981,4325908,4558288,4328190,4557566,1892,1189,-1496,-3255,-2051,2596,-83,3343,27,20,900
902982,4326008,4558468,4328387,4557763,2111,1172,-1533,-3353,-2180,5039,1372,1644,22,31,899
903983,4326120,4558632,4328584,4557960,2073,1286,-1596,-3332,-2356,5545,-2198,3109,22,31,899
904984,4326216,4558808,4328781,4558157,2219,1220,-1481,-2834,-2508,6588,-590,6589,21,29,896
905985,4326332,4558944,4328978,4558354,2129,1497,-1249,-2215,-2658,7096,-43,5456,21,29,896
906986,4326484,4559052,4329175,4558551,1925,1711,-1102,-2105,-2563,5542,-1342,3593,14,19,893
907987,4326624,4559164,4329372,4558748,2025,1724,-1012,-1986,-2173,5271,-2782,5030,14,19,893
908988,4326780,4559284,4329569,4558945,1944,1708,-744,-1460,-1744,5313,-252,7998,26,15,894
909989,4326972,4559400,4329766,4559142,1721,1768,-307,-1062,-1338,3570,1538,5829,26,15,894
910990,4327168,4559544,4329963,4559339,1698,1615,-15,-1207,-812,1577,-3595,1809,28,14,893
911991,4327328,4559648,4330160,4559536,1939,1906,259,-1193,-411,4378,-1913,4720,28,14,893
912992,4327496,4559780,4330357,4559733,1903,1760,508,-630,-218,7305,503,6405,39,22,896
913993,4327712,4559888,4330554,4559930,1594,1949,384,-118,-54,6487,-1477,3014,39,22,896
914994,4327924,4559984,4330751,4560127,1614,2068,49,243,262,3475,-2367,3597,27,26,894
915995,4328096,4560112,4330948,4560324,1875,1899,-107,826,548,2697,-3555,5646,27,26,894
916996,4328328,4560236,4331145,4560521,1485,1956,46,1737,833,1846,-2965,7908,34,13,893
917997,4328528,4560340,4331342,4560718,1684,2123,187,2394,1118,1983,-2769,5073,34,13,893
918998,4328744,4560440,4331539,4560915,1577,2190,216,2519,1367,2028,-2654,3965,34,30,894
919999,4328980,4560560,4331736,4561112,1436,2099,293,2271,1552,2002,-2333,4550,34,30,894
921000,4329176,4560684,4331933,4561309,1686,2106,329,1587,1596,2290,-2506,1943,51,22,893
922001,4329400,4560792,4332130,4561506,1500,2245,356,746,1522,2129,-2522,2988,51,22,893
923002,4329632,4560920,4332327,4561703,1435,2151,451,235,1515,870,-2529,5666,34,34,893
924002,4329844,4561056,4332524,4561900,1554,2127,493,-74,1595,732,-3046,4450,34,34,893
925013,4330076,4561168,4332754,4562130,1428,2329,471,-97,1626,1234,-2871,5540,34,22,894
926005,4330292,4561284,4332951,4562327,1521,2341,400,2,1550,878,-1001,4864,34,22,894
927006,4330508,4561404,4333148,4562524,1513,2350,254,28,1493,-164,55,3598,32,25,893
928007,4330748,4561528,4333345,4562721,1345,2357,78,276,1500,-165,-623,4730,32,25,893
929008,4331004,4561660,4333542,4562918,1219,2335,2,761,1489,372,-1140,5829,43,30,891
930009,4331236,4561780,4333739,4563115,1354,2444,45,881,1438,495,-1749,4067,43,30,891
931010,4331448,4561896,4333936,4563312,1473,2506,245,567,1342,937,-1702,4422,51,34,893
932011,4331684,4562028,4334133,4563509,1307,2434,509,-184,1227,840,-1287,3428,51,34,893
933012,4331928,4562168,4334330,4563706,1236,2409,752,-937,1084,1143,-795,3945,35,31,891
934013,4332148,4562324,4334527,4563903,1376,2328,974,-1444,935,685,-1218,4681,35,31,891
935014,4332368,4562460,4334724,4564100,1367,2480,1018,-1845,758,125,4,3148,49,41,893
936015,4332636,4562644,4334921,4564297,1036,2186,809,-2091,616,1158,196,2485,49,41,893
937016,4332832,4562820,4335118,4564494,1487,2245,526,-1836,536,2061,202,4046,54,29,893
938017,4333076,4563060,4335315,4564691,1166,1827,256,-1392,429,1898,736,3341,54,29,893
939018,4333344,4563248,4335512,4564888,986,2156,-76,-1110,367,670,1652,1401,50,32,893
940019,4333544,4563436,4335709,4565085,1410,2160,-396,-752,409,301,359,2557,50,32,893
941020,4333772,4563636,4335906,4565282,1222,2085,-519,-197,549,584,-1088,4777,49,48,895
942021,4333960,4563848,4336103,4565479,1476,2003,-490,-3,689,900,-755,2388,49,48,895
943022,4334184,4564100,4336300,4565676,1239,1729,-331,-261,779,963,-171,2599,53,40,895
944023,4334372,4564324,4336497,4565873,1469,1893,-64,-821,724,2088,-561,2827,53,40,895
945024,4334584,4564556,4336694,4566070,1313,1828,173,-1426,573,2588,-29,2435,49,55,897
946025,4334780,4564796,4336891,4566267,1414,1759,350,-1798,564,1278,-840,3174,49,55,897
947026,4334972,4565052,4337088,4566464,1441,1633,462,-1790,601,1604,-268,4190,29,52,897
948027,4335168,4565284,4337285,4566661,1417,1769,383,-1792,689,1012,-535,1535,29,52,897
949028,4335324,4565528,4337482,4566858,1686,1673,188,-1695,817,735,-270,2232,42,36,898
950029,4335488,4565768,4337679,4567055,1650,1679,60,-1146,939,713,280,4308,42,36,898
951030,4335660,4565988,4337876,4567252,1612,1794,-42,-585,997,849,58,3225,22,35,895
952031,4335832,4566196,4338073,4567449,1623,1865,-59,-152,981,1588,434,3834,22,35,895
953032,4335996,4566416,4338270,4567646,1688,1780,-39,-79,945,1658,-120,2719,36,45,896
954033,4336140,4566640,4338467,4567843,1837,1743,47,-159,894,1011,-359,3433,36,45,896
955034,4336312,4566848,4338664,4568040,1673,1838,218,-332,912,-198,-1280,3678,36,34,896
956035,4336472,4567068,4338861,4568237,1765,1754,438,-466,885,106,516,4232,36,34,896
957036,4336624,4567272,4339058,4568434,1835,1851,562,-722,864,-231,204,2477,29,34,895
958037,4336796,4567468,4339255,4568631,1722,1902,555,-1034,877,-444,-194,2935,29,34,895
959038,4336964,4567684,4339452,4568828,1760,1768,537,-1017,897,143,-603,4921,28,41,894
960039,4337128,4567884,4339649,4569025,1800,1868,521,-799,971,163,-1197,4642,28,41,894
961040,4337316,4568088,4339846,4569222,1654,1840,472,-465,1082,589,-1421,4479,42,35,893
962041,4337468,4568284,4340043,4569419,1900,1890,437,-126,1195,820,-437,4745,42,35,893
963042,4337608,4568472,4340240,4569616,2000,1944,401,111,1284,1051,-128,4188,33,32,893
964043,4337784,4568608,4340437,4569813,1785,2296,397,270,1310,1746,-362,4715,33,32,893
965044,4337952,4568804,4340634,4570010,1848,1922,444,405,1341,2144,-1489,4943,41,27,892
966045,4338116,4568988,4340831,4570207,1889,2003,520,393,1497,1380,-1119,3941,41,27,892
967046,4338300,4569164,4341028,4570404,1769,2062,639,266,1732,1006,-1148,3777,40,30,893
968047,4338484,4569312,4341225,4570601,1776,2259,798,288,1942,838,-564,4742,40,30,893
969048,4338656,4569488,4341422,4570798,1862,2094,854,402,2099,854,174,3581,27,38,893
970049,4338816,4569656,4341619,4570995,1954,2157,773,630,2281,536,-601,4142,27,38,893
971049,4339012,4569852,4341816,4571192,1730,1982,680,913,2377,669,292,4065,35,24,892
972051,4339172,4570008,4342013,4571389,1972,2250,582,1176,2407,104,283,4370,35,24,892
973052,4339332,4570172,4342210,4571586,1988,2216,557,1458,2434,360,-569,4672,38,23,892
974053,4339504,4570332,4342407,4571783,1925,2257,565,1428,2507,55,-203,3317,38,23,892
975054,4339672,4570536,4342604,4571980,1963,1979,638,1202,2612,-612,-317,3589,24,30,891
976055,4339848,4570784,4342801,4572177,1923,1682,792,1081,2662,-444,-155,5342,24,30,891
977056,4340032,4571016,4342998,4572374,1879,1767,859,1010,2622,-250,-251,3767,46,51,892
978057,4340208,4571224,4343195,4572571,1939,1912,784,933,2597,-574,-197,3651,46,51,892
979058,4340372,4571436,4343392,4572768,2030,1881,725,951,2581,-223,54,4810,23,45,895
980059,4340548,4571632,4343589,4572965,1964,1981,693,964,2585,25,-247,4176,23,45,895
981060,4340696,4571860,4343786,4573162,2161,1769,667,825,2615,-1271,373,4062,25,51,893
982061,4340856,4572100,4343983,4573359,2103,1675,616,572,2540,-1996,176,4489,25,51,893
983062,4340996,4572336,4344180,4573556,2254,1683,592,234,2401,-1839,-64,4319,28,50,891
984063,4341132,4572584,4344377,4573753,2307,1585,551,155,2130,-1994,874,6164,28,50,891
985064,4341252,4572884,4344574,4573950,2440,1216,344,287,1902,-1829,937,5380,39,41,892
986065,4341388,4573072,4344771,4574147,2368,1920,45,455,1779,-585,853,5126,39,41,892
987066,4341552,4573224,4344968,4574344,2208,2165,-124,570,1629,-323,285,5908,45,31,893
988067,4341732,4573336,4345165,4574541,2116,2452,-138,511,1496,-1090,569,5286,45,31,893
989068,4341924,4573468,4345362,4574738,2044,2356,-119,102,1427,-948,672,4191,49,30,890
990069,4342088,4573580,4345559,4574935,2234,2519,-97,-76,1358,-328,718,6388,49,30,890
991070,4342232,4573724,4345756,4575132,2383,2342,-144,-257,1328,-926,259,4255,33,17,889
992071,4342388,4573860,4345953,4575329,2327,2419,-205,-418,1282,-461,446,5146,33,17,889
993072,4342544,4574064,4346150,4575526,2345,1992,-227,-408,1170,473,408,5939,27,42,887
994073,4342700,4574288,4346347,4575723,2364,1855,-165,-367,1107,167,455,5283,27,42,887
995074,4342820,4574540,4346544,4575920,2624,1656,34,-289,1099,463,-101,6073,39,40,887
996075,4342992,4574728,4346741,4576117,2310,2060,272,-198,1048,946,568,5138,39,40,887
997076,4343128,4575036,4346938,4576314,2563,1262,369,-188,1051,467,807,3841,27,49,890
998077,4343256,4575328,4347135,4576511,2644,1320,397,-124,1062,1043,160,4239,27,49,890
999078,4343408,4575636,4347332,4576708,2515,1172,459,205,1026,1126,-132,5318,40,49,892
1000079,4343524,4575884,4347529,4576905,2776,1524,439,582,1071,236,-164,3675,40,49,892
1001080,4343656,4576168,4347726,4577102,2705,1261,321,807,1152,357,460,3147,36,61,892
1002080,4343812,4576432,4347923,4577299,2574,1358,205,1013,1202,227,-50,3979,36,61,892
1003081,4343956,4576684,4348120,4577496,2673,1408,104,1146,1161,151,-858,3614,24,41,891
1004082,4344108,4576916,4348317,4577693,2644,1518,30,1298,994,-297,-710,4740,24,41,891
1005084,4344272,4577148,4348514,4577890,2584,1503,-81,1458,719,-315,-691,4627,26,49,890
1006084,4344440,4577432,4348711,4578087,2572,1139,-250,1579,399,191,129,4774,26,49,890
1007086,4344588,4577704,4348908,4578284,2720,1181,-418,1714,132,41,136,4978,26,60,889
1008093,4344764,4577992,4349138,4578514,2570,1056,-550,1700,-53,244,-495,4483,26,60,889
1009088,4344936,4578248,4349335,4578711,2607,1231,-627,1737,-109,154,-570,4822,30,51,892
1010089,4345096,4578520,4349532,4578908,2698,1098,-690,1732,-5,-486,-826,4382,30,51,892
1011090,4345272,4578800,4349729,4579105,2608,1012,-657,1800,158,-550,-882,5061,49,47,892
1012091,4345488,4579064,4349926,4579302,2351,1082,-573,1756,263,-570,-1606,3866,49,47,892
1013092,4345672,4579332,4350123,4579499,2558,1026,-472,1772,271,-275,-1955,4447,51,53,893
1014093,4345860,4579596,4350320,4579696,2537,1021,-360,2197,217,194,-1088,5818,51,53,893
1015094,4346064,4579804,4350517,4579893,2435,1367,-363,2649,83,622,-39,3690,45,57,894
1016095,4346264,4580032,4350714,4580090,2460,1228,-381,2898,-89,1378,-140,3910,45,57,894
1017096,4346456,4580288,4350911,4580287,2512,1027,-339,2893,-247,1305,-780,3643,38,55,892
1018097,4346632,4580504,4351108,4580484,2622,1269,-283,2495,-340,510,163,2400,38,55,892
1019098,4346812,4580724,4351305,4580681,2606,1234,-163,1838,-348,-934,-207,2836,48,42,893
1020099,4346984,4580932,4351502,4580878,2668,1304,25,965,-376,-2589,-1175,3442,48,42,893
1021100,4347172,4581132,4351699,4581075,2573,1352,149,288,-577,-1591,-970,5030,47,35,892
1022101,4347332,4581300,4351896,4581272,2765,1565,124,-15,-889,-1517,-606,5167,47,35,892
1023102,4347520,4581480,4352093,4581469,2595,1498,39,137,-1198,-1094,-349,7227,42,36,891
1024102,4347692,4581688,4352290,4581666,2706,1318,-132,428,-1432,-521,-1148,6159,42,36,891
1025104,4347892,4581864,4352487,4581863,2531,1527,-345,746,-1632,170,-1403,6559,52,41,890
1026105,4348088,4582056,4352684,4582060,2557,1429,-573,1231,-1834,671,-792,6522,52,41,890
1027106,4348288,4582196,4352881,4582257,2532,1779,-811,1392,-1991,783,205,3945,35,31,890
1028107,4348488,4582332,4353078,4582454,2532,1831,-917,1380,-2047,687,496,4986,35,31,890
1029108,4348664,4582452,4353275,4582651,2692,1965,-811,670,-1963,129,-459,2807,49,35,888
1030109,4348836,4582564,4353472,4582848,2729,2052,-524,-403,-1794,495,-1575,3302,49,35,888
1031110,4349032,4582664,4353669,4583045,2580,2170,-176,-1385,-1698,1601,-1733,3958,47,25,887
1032111,4349208,4582764,4353866,4583242,2714,2213,-29,-2013,-1660,1566,-1629,3052,47,25,887
1033112,4349384,4582864,4354063,4583439,2725,2255,-80,-1916,-1597,294,-885,4891,42,24,886
1034113,4349588,4582972,4354260,4583636,2548,2244,-243,-1416,-1570,78,-593,4902,42,24,886
1035114,4349792,4583088,4354457,4583833,2546,2230,-507,-851,-1712,996,-1081,3910,39,29,885
1036115,4349980,4583224,4354654,4584030,2651,2132,-694,-311,-1869,608,-860,5558,39,29,885
1037116,4350216,4583376,4354851,4584227,2334,2052,-745,-1,-2003,1085,-693,4765,35,21,887
1038117,4350436,4583500,4355048,4584424,2425,2260,-702,-156,-2120,1402,-360,3530,35,21,887
1039118,4350640,4583592,4355245,4584621,2523,2506,-586,-518,-2161,1078,-867,4053,36,32,887
1040119,4350872,4583716,4355442,4584818,2333,2338,-467,-855,-2143,995,-503,3604,36,32,887
1041120,4351076,4583796,4355639,4585015,2506,2664,-430,-1118,-2091,1177,-1068,2535,55,15,886
1042121,4351284,4583900,4355836,4585212,2477,2556,-422,-1052,-2015,1142,-620,3851,55,15,886
1043122,4351520,4584016,4356033,4585409,2286,2517,-403,-839,-1932,757,-613,3087,53,31,887
1044123,4351736,4584108,4356230,4585606,2403,2713,-388,-559,-1870,870,-558,3292,53,31,887
1045124,4351956,4584232,4356427,4585803,2369,2545,-376,-333,-1845,913,-768,2846,34,31,885
1046125,4352196,4584372,4356624,4586000,2226,2471,-346,-294,-1801,239,-1171,2702,34,31,885
1047126,4352424,4584476,4356821,4586197,2288,2737,-269,-395,-1739,188,-1596,2634,46,27,884
1048127,4352648,4584612,4357018,4586394,2302,2564,-144,-614,-1783,1150,-1520,2873,46,27,884
1049128,4352896,4584740,4357215,4586591,2130,2645,-12,-747,-1839,996,-1245,3201,43,27,887
1050129,4353156,4584840,4357412,4586788,2029,2863,26,-908,-1848,830,-882,2118,43,27,887
1051130,4353412,4584948,4357609,4586985,2029,2852,-14,-859,-1838,1059,-550,3028,38,25,885
1052131,4353660,4585052,4357806,4587182,2057,2919,-108,-563,-1774,1077,-795,3494,38,25,885
1053132,4353960,4585168,4358003,4587379,1687,2879,-240,-301,-1649,658,1,2638,45,23,885
1054133,4354228,4585284,4358200,4587576,1857,2916,-370,-187,-1569,287,-125,2659,45,23,885
1055134,4354512,4585416,4358397,4587773,1720,2844,-391,-174,-1542,-128,-885,3864,49,17,885
1056135,4354796,4585532,4358594,4587970,1683,2981,-369,-333,-1584,286,-1188,2872,49,17,885
1057136,4355072,4585664,4358791,4588167,1698,2909,-264,-683,-1665,627,-1431,3024,53,23,886
1058137,4355332,4585792,4358988,4588364,1771,2965,-101,-961,-1766,1366,-1881,3930,53,23,886
1059138,4355644,4585920,4359185,4588561,1397,2996,1,-1248,-1812,1109,-794,2508,63,34,886
1060139,4355912,4586044,4359382,4588758,1640,3053,65,-1470,-1735,-40,-664,2471,63,34,886
1061140,4356176,4586144,4359579,4588955,1637,3247,48,-1512,-1635,-12,-382,2960,68,22,885
1062141,4356468,4586244,4359776,4589152,1421,3289,-12,-1422,-1485,-14,-582,1757,68,22,885
1063142,4356752,4586376,4359973,4589349,1433,3119,-80,-1280,-1362,579,-528,2676,58,14,886
1064143,4357036,4586480,4360170,4589546,1396,3336,-102,-1155,-1300,73,-841,2495,58,14,886
1065144,4357320,4586600,4360367,4589743,1359,3270,-89,-1193,-1317,125,-1079,2098,52,34,885
1066145,4357604,4586712,4360564,4589940,1320,3358,-49,-1257,-1341,108,-1424,3295,52,34,885
1067146,4357872,4586844,4360761,4590137,1390,3262,26,-1458,-1370,559,-1608,2678,58,22,884
1068147,4358160,4587004,4360958,4590334,1225,3104,81,-1761,-1396,642,-1579,2258,58,22,884
1069148,4358416,4587160,4361155,4590531,1400,3148,155,-2040,-1383,126,-1110,3105,60,25,885
1070149,4358672,4587312,4361352,4590728,1374,3193,191,-2284,-1344,-189,-691,2256,60,25,885
1071150,4358936,4587460,4361549,4590925,1296,3240,171,-2472,-1272,-432,-811,2160,58,38,888
1072151,4359204,4587616,4361746,4591122,1240,3209,84,-2469,-1203,-169,-140,2960,58,38,888
1073152,4359468,4587764,4361943,4591319,1236,3281,-23,-2400,-1144,-324,-149,2184,59,25,886
1074153,4359696,4587944,4362140,4591516,1448,3089,-132,-2369,-1141,163,-786,3156,59,25,886
1075154,4359948,4588100,4362337,4591713,1274,3258,-154,-2301,-1169,641,-1354,3890,45,28,886
1076155,4360176,4588304,4362534,4591910,1411,2955,-120,-2516,-1198,1096,-1308,2488,45,28,886
1077156,4360392,4588472,4362731,4592107,1478,3194,-28,-2856,-1175,937,-908,3047,46,45,885
1078157,4360680,4588652,4362928,4592304,988,3127,113,-3268,-1097,423,-718,3010,46,45,885
1079158,4360928,4588832,4363125,4592501,1217,3135,168,-3557,-1008,452,-321,2577,49,32,889
1080159,4361164,4589016,4363322,4592698,1275,3117,133,-3626,-943,680,72,2992,49,32,889
1081160,4361456,4589204,4363519,4592895,883,3097,51,-3500,-863,351,-3,3251,49,34,887
1082161,4361668,4589380,4363716,4593092,1378,3181,5,-3372,-754,310,51,3376,49,34,887
1083162,4361928,4589568,4363913,4593289,1050,3111,3,-3314,-713,1162,-87,3312,60,48,887
1084163,4362216,4589784,4364110,4593486,836,2928,34,-3369,-690,1087,-360,3245,60,48,887
1085164,4362472,4589968,4364307,4593683,1010,3135,150,-3514,-611,448,-11,3865,47,31,886
1086165,4362708,4590140,4364504,4593880,1118,3221,230,-3838,-542,599,-92,3063,47,31,886
1087166,4362984,4590316,4364701,4594077,834,3206,284,-4130,-481,478,-16,3206,58,38,891
1088167,4363228,4590500,4364898,4594274,1013,3163,244,-4315,-385,-23,-263,3829,58,38,891
1089168,4363468,4590684,4365095,4594471,1019,3169,210,-4312,-293,215,-432,3977,60,46,888
1090169,4363708,4590876,4365292,4594668,1002,3122,155,-3997,-333,2021,-139,5985,60,46,888
1091177,4363956,4591080,4365522,4594898,944,3059,20,-3635,-401,1540,-207,3963,58,48,889
1092170,4364164,4591280,4365719,4595095,1189,3084,-129,-3397,-263,3,1035,4660,58,48,889
1093172,4364388,4591472,4365916,4595292,1077,3136,-165,-3213,-102,1053,288,5291,36,31,889
1094173,4364600,4591668,4366113,4595489,1146,3113,-107,-3126,-67,2033,124,5165,36,31,889
1095174,4364780,4591828,4366310,4595686,1354,3355,-71,-3240,-35,1835,510,4125,33,45,888
1096175,4364960,4592024,4366507,4595883,1361,3131,-31,-3264,-8,2384,-109,5116,33,45,888
1097176,4365164,4592208,4366704,4596080,1209,3212,-3,-3299,48,1964,-240,4701,46,30,889
1098177,4365344,4592440,4366901,4596277,1367,2898,5,-3261,151,1598,326,4528,46,30,889
1099178,4365512,4592644,4367098,4596474,1454,3071,-7,-3157,313,1254,113,5156,26,36,888
1100179,4365704,4592836,4367295,4596671,1307,3148,-61,-2916,402,2122,102,5018,26,36,888
1101180,4365860,4593032,4367492,4596868,1551,3124,-51,-2568,400,2421,-23,5960,23,33,889
1102180,4366028,4593232,4367689,4597065,1488,3099,-86,-2291,422,2168,-484,5541,23,33,889
1103182,4366200,4593428,4367886,4597262,1474,3125,-78,-1987,505,2109,-517,5933,26,45,888
1104182,4366368,4593628,4368083,4597459,1513,3099,-70,-1852,566,2298,216,5591,26,45,888
1105184,4366536,4593804,4368280,4597656,1526,3259,-74,-1802,635,1829,-46,5576,44,41,886
1106184,4366732,4593956,4368477,4597853,1351,3430,-66,-1728,702,2009,128,5941,44,41,886
1107186,4366884,4594124,4368674,4598050,1647,3344,-89,-1614,794,1379,-35,5737,40,27,886
1108187,4367028,4594268,4368871,4598247,1720,3517,-121,-1511,869,1377,-67,5365,40,27,886
1109188,4367160,4594460,4369068,4598444,1824,3220,-106,-1431,929,1122,-244,6099,25,27,885
1110189,4367332,4594600,4369265,4598641,1586,3571,-55,-1311,956,1145,-182,5871,25,27,885
1111190,4367492,4594764,4369462,4598838,1677,3437,-5,-1304,994,755,-288,5646,26,23,882
1112191,4367676,4594908,4369659,4599035,1534,3585,60,-1282,1063,268,-243,5837,26,23,882
1113192,4367848,4595076,4369856,4599232,1620,3449,141,-1410,1114,243,89,5329,23,25,882
1114193,4367992,4595224,4370053,4599429,1818,3596,225,-1494,1115,540,-191,5733,23,25,882
1115194,4368168,4595408,4370250,4599626,1628,3378,271,-1497,1123,177,254,5630,42,25,883
1116195,4368340,4595560,4370447,4599823,1664,3599,244,-1517,1117,308,135,5024,42,25,883
1117196,4368544,4595696,4370644,4600020,1461,3726,211,-1449,1067,661,1,5610,27,22,879
1118209,4368712,4595824,4370841,4600217,1700,3800,153,-1466,1054,62,-152,5154,27,22,879
1119198,4368888,4596008,4371038,4600414,1659,3464,124,-1441,1089,-239,-250,5586,40,34,882
1120199,4369072,4596184,4371235,4600611,1616,3524,105,-1493,1103,-50,-258,5327,40,34,882
1121200,4369256,4596328,4371432,4600808,1622,3748,135,-1473,1094,-38,252,5671,46,36,879
1122201,4369440,4596500,4371629,4601005,1627,3585,185,-1537,1060,208,209,5650,46,36,879
1123202,4369616,4596648,4371826,4601202,1688,3757,197,-1723,1056,-77,133,4913,39,36,882
1124202,4369820,4596820,4372023,4601399,1510,3619,181,-1873,1077,31,-127,5310,39,36,882
1125217,4370024,4596956,4372220,4601596,1508,3800,116,-1985,1073,117,-176,4891,27,22,882
1126205,4370216,4597136,4372417,4601793,1585,3605,57,-2019,1098,-298,73,5074,27,22,882
1127206,4370408,4597292,4372614,4601990,1588,3774,19,-1916,1097,282,-221,5682,47,36,880
1128219,4370600,4597428,4372811,4602187,1590,3800,-9,-1819,1070,171,477,4904,47,36,880
1129220,4370812,4597584,4373008,4602384,1459,3800,-53,-1873,1086,-370,514,4233,46,25,879
1130221,4371020,4597712,4373205,4602581,1480,3800,-79,-1979,1156,-683,-29,4326,46,25,879
1131210,4371216,4597880,4373402,4602778,1555,3791,-65,-2024,1198,-265,198,4751,33,19,880
1132223,4371416,4598012,4373599,4602975,1530,3800,-86,-2070,1213,-371,190,3634,33,19,880
1133225,4371604,4598156,4373796,4603172,1609,3800,-49,-1965,1242,-568,-118,5499,35,29,880
1134225,4371780,4598300,4373993,4603369,1694,3800,26,-1843,1273,-535,-665,4570,35,29,880
1135226,4371976,4598440,4374190,4603566,1569,3800,80,-1914,1285,-330,-431,3246,40,27,880
1136227,4372152,4598592,4374387,4603763,1704,3800,103,-2035,1278,20,156,3739,40,27,880
1137215,4372336,4598804,4374584,4603960,1660,3634,73,-2108,1211,702,283,3116,28,27,879
1138216,4372528,4599004,4374781,4604157,1613,3709,32,-1950,1195,-131,-271,4309,28,27,879
1139230,4372684,4599184,4374978,4604354,1857,3800,16,-1707,1299,-1464,-799,3911,48,37,879
1140219,4372856,4599392,4375175,4604551,1768,3664,43,-1534,1392,-1397,268,4623,48,37,879
1141220,4373028,4599608,4375372,4604748,1780,3606,77,-1540,1316,319,-121,3614,45,30,881
1142221,4373188,4599816,4375569,4604945,1871,3652,90,-1536,1180,692,442,4688,45,30,881
1143222,4373348,4600024,4375766,4605142,1887,3649,6,-1738,1163,222,-84,2550,34,35,881
1144223,4373488,4600264,4375963,4605339,2038,3431,-69,-1893,1207,44,-63,4152,34,35,881
1145224,4373632,4600496,4376160,4605536,2036,3466,-124,-1914,1221,152,-278,3968,39,49,881
1146225,4373764,4600728,4376357,4605733,2141,3452,-141,-1714,1212,88,388,4463,39,49,881
1147226,4373944,4600948,4376554,4605930,1848,3518,-211,-1490,1253,-13,431,4126,31,48,882
1148227,4374112,4601188,4376751,4606127,1937,3375,-320,-1277,1261,524,207,3865,31,48,882
1149228,4374280,4601420,4376948,4606324,1950,3411,-402,-1181,1261,290,-500,3845,35,42,879
1150229,4374416,4601664,4377145,4606521,2178,3316,-416,-1181,1305,-162,-931,3895,35,42,879
1151230,4374596,4601872,4377342,4606718,1910,3537,-353,-1253,1337,175,-656,3850,48,35,879
1152231,4374748,4602108,4377539,4606915,2106,3346,-321,-1402,1327,695,-147,3486,48,35,879
1153232,4374900,4602368,4377736,4607112,2126,3169,-342,-1514,1282,916,25,3272,29,36,881
1154233,4375080,4602568,4377933,4607309,1959,3544,-387,-1489,1291,414,-118,3967,29,36,881
1155234,4375224,4602764,4378130,4607506,2208,3570,-389,-1318,1387,-481,-475,4058,34,52,882
1156235,4375364,4603000,4378327,4607703,2259,3303,-387,-1276,1491,-16,-969,3411,34,52,882
1157236,4375520,4603300,4378524,4607900,2178,2859,-428,-1262,1466,1466,-1621,3105,43,44,881
1158237,4375648,4603580,4378721,4608097,2383,2949,-408,-1109,1402,1138,-740,4592,43,44,881
1159238,4375796,4603856,4378918,4608294,2280,2940,-284,-852,1519,-552,-390,4942,43,64,882
1160239,4375940,4604152,4379115,4608491,2329,2772,-213,-957,1676,309,-1299,2174,43,64,882
1161240,4376068,4604480,4379312,4608688,2460,2516,-196,-1204,1655,1999,-1180,2308,39,61,882
1162241,4376204,4604804,4379509,4608885,2438,2486,-123,-1195,1662,739,-1172,4280,39,61,882
1163241,4376360,4605112,4379706,4609082,2331,2537,2,-1078,1731,609,-632,3826,20,56,885
1164243,4376516,4605464,4379903,4609279,2350,2195,45,-1177,1758,1349,-840,1659,20,56,885
1165244,4376644,4605840,4380100,4609476,2555,1967,68,-1239,1802,929,-1406,3070,26,67,887
1166245,4376808,4606172,4380297,4609673,2346,2183,133,-1199,1907,585,-1843,3849,26,67,887
1167246,4376948,4606492,4380494,4609870,2522,2205,229,-1169,2063,17,-1347,2998,43,54,888
1168247,4377068,4606760,4380691,4610067,2681,2500,249,-1311,2185,462,-964,1968,43,54,888
1169248,4377204,4607104,4380888,4610264,2608,1960,214,-1567,2206,1680,-1193,1826,44,72,889
1170249,4377372,4607512,4381085,4610461,2422,1468,247,-1595,2205,1575,-1332,3460,44,72,889
1171250,4377540,4607832,4381282,4610658,2436,1965,344,-1533,2261,422,-526,3037,44,59,884
1172251,4377724,4608108,4381479,4610855,2342,2206,401,-1466,2340,-367,780,2740,44,59,884
1173252,4377928,4608472,4381676,4611052,2215,1583,304,-1624,2488,-760,232,784,30,57,891
1174260,4378132,4608828,4381906,4611282,2227,1578,191,-1663,2579,456,-597,2687,30,57,891
1175254,4378300,4609152,4382103,4611479,2465,1723,167,-1453,2612,-66,-646,3612,50,71,889
1176255,4378516,4609488,4382300,4611676,2157,1587,116,-1332,2662,-1020,949,1697,50,71,889
1177256,4378724,4609852,4382497,4611873,2204,1339,-5,-1428,2715,279,527,943,43,74,893
1178257,4378940,4610220,4382694,4612070,2146,1239,-39,-1291,2679,2382,-322,3460,43,74,893
1179258,4379188,4610548,4382891,4612267,1924,1432,68,-902,2642,2060,-1076,3916,57,56,894
1180258,4379428,4610824,4383088,4612464,1956,1723,230,-558,2715,652,-705,3338,57,56,894
1181260,4379636,4611256,4383285,4612661,2152,645,337,-368,2824,1246,-843,2983,58,67,895
1182261,4379872,4611584,4383482,4612858,1960,1237,401,-144,2880,2124,-1199,3381,58,67,895
1183262,4380100,4611904,4383679,4613055,1997,1233,481,192,2899,2064,-269,3643,49,58,892
1184262,4380328,4612228,4383876,4613252,1985,1154,528,374,2925,1229,1537,1924,49,58,892
1185264,4380604,4612532,4384073,4613449,1650,1231,513,347,3058,468,1047,1270,47,67,897
1186264,4380820,4612896,4384270,4613646,2018,783,549,496,3218,1371,-141,2925,47,67,897
1187266,4381048,4613268,4384467,4613843,1930,656,655,888,3267,1704,-94,3183,53,67,897
1188266,4381276,4613584,4384664,4614040,1916,954,786,1259,3246,1172,42,2870,53,67,897
1189268,4381528,4613832,4384861,4614237,1743,1356,902,1618,3217,1016,406,3106,38,68,898
1190269,4381752,4614188,4385058,4614434,1907,612,893,1782,3215,658,436,1141,38,68,898
1191270,4381968,4614512,4385255,4614631,1949,756,815,1894,3220,296,352,1333,44,58,898
1192271,4382220,4614812,4385452,4614828,1701,861,801,2192,3239,-371,548,2600,44,58,898
1193272,4382416,4615072,4385649,4615025,2052,1083,762,2584,3160,-233,470,2143,35,52,898
1194273,4382632,4615336,4385846,4615222,1919,1028,674,2953,3050,469,325,1843,35,52,898
1195274,4382888,4615656,4386043,4615419,1644,624,631,3297,2911,625,1085,2294,53,59,899
1196274,4383132,4615976,4386240,4615616,1698,570,620,3523,2804,-567,1309,1064,53,59,899
1197276,4383356,4616236,4386437,4615813,1812,918,603,3690,2695,-673,1833,983,46,61,898
1198277,4383624,4616504,4386634,4616010,1507,836,494,4027,2595,-202,1587,1553,46,61,898
1199278,4383864,4616748,4386831,4616207,1663,966,276,4350,2506,504,-1485,436,39,49,901
1200279,4384048,4617016,4387028,4616404,2020,785,201,4604,2279,1207,-4838,2842,39,49,901
1201280,4384296,4617284,4387225,4616601,1598,753,377,4440,1943,-265,-1446,2750,51,39,901
1202280,4384544,4617496,4387422,4616798,1576,1097,490,3349,1770,-2246,54,-1055,51,39,901
1203281,4384764,4617708,4387619,4616995,1741,1090,676,2554,1706,-961,-697,4859,48,38,898
1204282,4384992,4617900,4387816,4617192,1679,1216,927,2120,1638,-296,-2117,4833,48,38,898
1205284,4385216,4618092,4388013,4617389,1692,1219,1060,1880,1551,-992,-1598,3849,33,48,898
1206285,4385404,4618288,4388210,4617586,1922,1194,837,1846,1326,-397,1425,3893,33,48,898
1207286,4385596,4618484,4388407,4617783,1900,1194,300,2207,1151,-1127,705,3678,53,34,898
1208287,4385856,4618692,4388604,4617980,1447,1115,-235,2765,1081,-1603,-279,5426,53,34,898
1209288,4386096,4618896,4388801,4618177,1554,1137,-571,3383,876,366,-1329,6426,48,44,897
1210289,4386336,4619084,4388998,4618374,1535,1240,-763,3412,584,-241,-655,5045,48,44,897
1211290,4386596,4619244,4389195,4618571,1384,1431,-754,2533,439,-521,-2546,4786,51,30,899
1212291,4386828,4619456,4389392,4618768,1543,1099,-572,1060,334,151,-3821,4865,51,30,899
1213292,4387036,4619688,4389589,4618965,1689,959,-472,137,168,294,-2248,5621,46,32,899
1214293,4387320,4619940,4389786,4619162,1176,810,-637,45,-61,-54,2263,5855,46,32,899
1215294,4387580,4620160,4389983,4619359,1300,999,-910,-207,-188,-1226,256,4122,44,43,898
1216295,4387828,4620332,4390180,4619556,1352,1310,-1038,-889,-290,353,-2118,5396,44,43,898
1217296,4388056,4620512,4390377,4619753,1463,1268,-985,-2007,-398,125,-2282,4777,58,33,901
1218297,4388300,4620676,4390574,4619950,1344,1381,-923,-3177,-537,41,-1394,5180,58,33,901
1219298,4388516,4620872,4390771,4620147,1510,1182,-973,-4005,-694,-78,-1126,6157,51,30,899
1220298,4388772,4621140,4390968,4620344,1236,701,-1177,-4397,-848,-63,-1009,5482,51,30,899
1221300,4388992,4621372,4391165,4620541,1450,910,-1521,-4642,-1036,683,-1276,4766,37,41,899
1222301,4389192,4621584,4391362,4620738,1575,1029,-1829,-4622,-1268,1375,-1124,5921,37,41,899
1223302,4389436,4621764,4391559,4620935,1279,1236,-2081,-4559,-1492,1536,-1116,4774,40,36,903
1224303,4389668,4621976,4391756,4621132,1339,1030,-2241,-4564,-1684,1554,-602,4812,40,36,903
1225303,4389892,4622160,4391953,4621329,1378,1209,-2281,-4612,-1835,1356,-1133,4524,41,34,899
1226305,4390096,4622384,4392150,4621526,1500,947,-2261,-4672,-1977,1181,-843,4158,41,34,899
1227305,4390332,4622592,4392347,4621723,1284,1043,-2225,-4723,-2104,1573,-611,3731,41,41,900
1228306,4390528,4622764,4392544,4621920,1534,1279,-2193,-4791,-2270,2722,-488,3356,41,41,900
1229308,4390740,4622960,4392741,4622117,1428,1129,-2201,-4777,-2423,3146,-1212,2815,31,38,900
1230309,4390924,4623112,4392938,4622314,1610,1424,-2212,-4722,-2533,3257,-704,2591,31,38,900
1231310,4391116,4623264,4393135,4622511,1562,1443,-2075,-4388,-2684,2709,1451,3587,46,23,899
1232310,4391268,4623380,4393332,4622708,1832,1703,-2038,-4470,-2754,2898,-1358,1625,46,23,899
1233312,4391412,4623504,4393529,4622905,1906,1685,-2093,-4598,-2876,4070,-674,1884,20,29,897
1234313,4391520,4623644,4393726,4623102,2170,1610,-2130,-4374,-3024,5169,701,4053,20,29,897
1235313,4391664,4623788,4393923,4623299,1969,1609,-2067,-3788,-3040,5177,-2792,5504,28,31,894
1236314,4391768,4623972,4394120,4623496,2260,1364,-1824,-3220,-3089,6719,-1022,5661,28,31,894
1237315,4391916,4624120,4394317,4623693,2008,1611,-1580,-3162,-3191,6553,-2698,2976,26,28,892
1238317,4392040,4624264,4394514,4623890,2190,1659,-1182,-2958,-3288,7225,-1762,6725,26,28,892
1239318,4392172,4624416,4394711,4624087,2168,1629,-545,-2235,-3215,6489,1182,9570,19,21,892
1240319,4392328,4624540,4394908,4624284,2037,1836,-118,-1518,-2565,3842,-206,6478,19,21,892
1241320,4392516,4624668,4395105,4624481,1841,1840,-399,-1293,-1472,3805,-5616,689,28,22,893
1242321,4392696,4624796,4395302,4624678,1900,1871,-656,-966,-671,6028,514,6328,28,22,893
1243322,4392840,4624896,4395499,4624875,2148,2088,-479,-756,-212,5539,-3629,4688,25,21,893
1244323,4392992,4625044,4395696,4625072,2119,1810,-24,-728,-105,5553,-3964,4293,25,21,893
1245324,4393200,4625172,4395893,4625269,1764,1965,322,-641,-5,3459,-778,4378,28,16,893
1246325,4393404,4625288,4396090,4625466,1787,2076,231,-335,326,2763,-1999,2996,28,16,893
1247326,4393600,4625428,4396287,4625663,1838,1951,12,795,782,3739,-3653,7552,38,19,892
1248326,4393780,4625540,4396484,4625860,1946,2164,-47,2342,1095,4105,-3626,8627,38,19,892
1249328,4393972,4625640,4396681,4626057,1874,2282,-32,3353,1286,2392,-2509,5858,27,15,891
1250329,4394180,4625764,4396878,4626254,1769,2164,23,3338,1430,1809,-2850,3079,27,15,891
1251330,4394360,4625872,4397075,4626451,1953,2303,205,2966,1492,2782,-2939,4857,39,17,891
1252330,4394580,4626004,4397272,4626648,1693,2182,370,2432,1551,2562,-2622,2814,39,17,891
1253332,4394828,4626132,4397469,4626845,1496,2237,410,1639,1752,785,-2255,1739,30,21,890
1254333,4395040,4626244,4397666,4627042,1715,2374,518,1111,2010,158,-3489,5071,30,21,890
1255334,4395280,4626344,4397863,4627239,1522,2492,674,1094,2005,1234,-2416,6437,48,21,892
1256335,4395500,4626484,4398060,4627436,1637,2267,692,1101,1739,1421,-537,4681,48,21,892
1257345,4395728,4626604,4398290,4627666,1588,2441,621,1005,1555,768,-2602,4741,42,20,891
1258337,4395980,4626756,4398487,4627863,1414,2261,558,1158,1515,146,-1171,6143,42,20,891
1259337,4396212,4626908,4398684,4628060,1525,2281,465,1132,1523,-549,1095,3030,32,19,891
1260338,4396464,4626984,4398881,4628257,1376,2809,499,840,1515,-885,12,4421,32,19,891
1261340,4396720,4627132,4399078,4628454,1325,2380,684,139,1544,-1187,-1992,3401,54,21,891
1262341,4396936,4627256,4399275,4628651,1567,2564,913,-400,1389,909,-2138,4911,54,21,891
1263342,4397164,4627384,4399472,4628848,1479,2569,1077,-979,1106,428,-2367,3428,42,32,889
1264343,4397412,4627536,4399669,4629045,1332,2439,1173,-957,800,238,-299,6113,42,32,889
1265344,4397628,4627640,4399866,4629242,1524,2781,1128,-631,544,405,122,4266,42,19,890
1266345,4397852,4627776,4400063,4629439,1463,2607,938,-443,409,856,-174,2755,42,19,890
1267346,4398092,4627924,4400260,4629636,1344,2554,680,-393,313,1927,397,2247,55,23,892
1268346,4398372,4628112,4400457,4629833,1058,2309,388,-410,173,2592,510,1328,55,23,892
1269347,4398628,4628296,4400654,4630030,1183,2340,133,-152,33,2911,654,2853,36,40,891
1270348,4398884,4628532,4400851,4630227,1157,1997,8,156,115,1344,234,2804,36,40,891
1271350,4399136,4628716,4401048,4630424,1159,2328,-53,269,434,-116,-370,2371,35,40,893
1272351,4399360,4628920,4401245,4630621,1322,2201,-75,101,869,-1256,-676,1652,35,40,893
1273352,4399584,4629096,4401442,4630818,1310,2385,49,-95,1214,-278,-2167,3648,45,35,896
1274353,4399848,4629332,4401639,4631015,1032,1993,287,-519,1314,1049,-1489,2900,45,35,896
1275354,4400068,4629568,4401836,4631212,1296,1977,467,-1229,1165,2656,-508,2143,54,42,894
1276355,4400248,4629788,4402033,4631409,1554,2067,589,-1871,897,3284,-383,3021,54,42,894
1277356,4400464,4630016,4402230,4631606,1322,2003,679,-2239,701,2306,230,3541,29,43,897
1278357,4400652,4630248,4402427,4631803,1501,1964,644,-2442,777,-124,-917,2215,29,43,897
1279358,4400832,4630468,4402624,4632000,1558,2029,525,-2314,934,101,-2,3395,47,43,894
1280359,4401036,4630704,4402821,4632197,1406,1912,313,-1733,1052,1,52,3658,47,43,894
1281360,4401208,4630952,4403018,4632394,1617,1815,-33,-1148,1046,229,1071,2165,39,37,894
1282361,4401396,4631164,4403215,4632591,1521,2034,-264,-619,1003,864,9,4253,39,37,894
1283362,4401568,4631376,4403412,4632788,1633,2027,-213,-358,978,1442,-1379,3932,29,44,894
1284363,4401752,4631596,4403609,4632985,1564,1967,57,-617,915,1584,1,2758,29,44,894
1285364,4401904,4631788,4403806,4633182,1783,2145,292,-1071,911,-189,531,2800,29,43,894
1286365,4402068,4632004,4404003,4633379,1724,1987,416,-1438,867,294,148,2849,29,43,894
1287366,4402240,4632200,4404200,4633576,1685,2112,470,-1547,807,-206,16,3319,43,51,894
1288367,4402384,4632400,4404397,4633773,1884,2086,501,-1467,711,-355,96,3626,43,51,894
1289368,4402552,4632628,4404594,4633970,1747,1898,531,-1130,584,-338,815,5487,24,46,893
1290369,4402720,4632820,4404791,4634167,1760,2125,486,-977,567,-1021,-642,2502,24,46,893
1291370,4402872,4633008,4404988,4634364,1880,2154,351,-1049,591,-241,305,2992,28,46,892
1292371,4403020,4633236,4405185,4634561,1927,1891,308,-827,637,591,-545,5067,28,46,892
1293372,4403204,4633424,4405382,4634758,1709,2146,346,-545,677,1659,-176,4565,33,39,891
1294373,4403328,4633628,4405579,4634955,2116,2043,418,-346,834,1397,-1553,4099,33,39,891
1295374,4403484,4633820,4405776,4635152,1934,2120,543,-233,1063,1446,-779,4861,27,39,892
1296375,4403660,4634020,4405973,4635349,1819,2069,648,-159,1236,1641,-795,4204,27,39,892
1297376,4403812,4634204,4406170,4635546,1989,2175,724,65,1342,1589,-262,5306,23,28,891
1298377,4403980,4634380,4406367,4635743,1902,2234,779,244,1520,1083,-697,4447,23,28,891
1299378,4404156,4634568,4406564,4635940,1862,2163,844,209,1688,1753,-461,3740,44,35,892
1300379,4404328,4634744,4406761,4636137,1899,2249,948,237,1825,996,-574,4598,44,35,892
1301380,4404472,4634916,4406958,4636334,2097,2285,989,485,1898,813,483,4531,36,41,891
1302381,4404652,4635088,4407155,4636531,1880,2296,939,798,2073,120,-887,3895,36,41,891
1303382,4404788,4635284,4407352,4636728,2182,2146,938,996,2246,348,-340,4725,25,23,889
1304383,4404944,4635468,4407549,4636925,2076,2228,968,1101,2278,437,-140,4509,25,23,889
1305384,4405088,4635628,4407746,4637122,2175,2394,979,1098,2265,375,-670,4377,40,40,889
1306385,4405264,4635796,4407943,4637319,1985,2357,989,1122,2360,14,284,4529,40,40,889
1307386,4405404,4635980,4408140,4637516,2235,2263,931,966,2508,239,-163,2981,42,39,889
1308387,4405584,4636200,4408337,4637713,1993,2028,939,1123,2651,332,-1362,5751,42,39,889
1309388,4405776,4636428,4408534,4637910,1921,1965,986,1384,2675,254,-141,5155,36,46,889
1310389,4405932,4636676,4408731,4638107,2165,1817,921,1447,2570,-142,365,3479,36,46,889
1311390,4406092,4636908,4408928,4638304,2156,1903,833,1536,2456,-674,243,5080,30,44,892
1312391,4406224,4637152,4409125,4638501,2360,1807,794,1661,2364,-281,-338,5198,30,44,892
1313392,4406384,4637388,4409322,4638698,2202,1840,731,1735,2283,-99,524,4223,31,46,892
1314393,4406532,4637692,4409519,4638895,2299,1368,680,1743,2323,-738,-995,4593,31,46,892
1315394,4406688,4637980,4409716,4639092,2267,1429,709,1815,2329,-245,180,5418,30,44,889
1316394,4406824,4638228,4409913,4639289,2420,1657,638,1706,2318,-472,949,2961,30,44,889
1317396,4406944,4638528,4410110,4639486,2555,1286,545,1513,2378,-1388,-545,3955,39,44,893
1318397,4407132,4638712,4410307,4639683,2134,2017,512,1241,2345,-1244,-45,4337,39,44,893
1319397,4407340,4638840,4410504,4639880,2005,2398,443,1088,2091,-800,1702,4457,39,43,891
1320399,4407524,4638964,4410701,4640077,2161,2456,329,1100,1795,-1328,1999,5130,39,43,891
1321400,4407692,4639064,4410898,4640274,2274,2648,183,1121,1631,-2077,945,4979,53,25,891
1322401,4407872,4639180,4411095,4640471,2208,2584,95,934,1636,-2615,80,5124,53,25,891
1323402,4408044,4639336,4411292,4640668,2269,2352,103,465,1669,-2058,539,5129,46,29,888
1324403,4408200,4639488,4411489,4640865,2388,2397,85,-13,1639,-1185,660,5114,46,29,888
1325404,4408348,4639716,4411686,4641062,2459,1909,4,-196,1610,-654,532,5859,44,41,884
1326405,4408496,4639932,4411883,4641259,2482,1976,-9,-120,1602,-253,968,6683,44,41,884
1327406,4408644,4640152,4412080,4641456,2504,1941,61,-147,1525,232,1577,5190,27,56,885
1328407,4408820,4640364,4412277,4641653,2339,1984,153,-188,1446,120,1709,5293,27,56,885
1329408,4408944,4640680,4412474,4641850,2697,1283,195,-156,1408,622,1209,4806,44,56,889
1330409,4409060,4641008,4412671,4642047,2783,1150,225,10,1392,1135,397,4981,44,56,889
1331410,4409196,4641280,4412868,4642244,2685,1467,257,37,1463,365,-386,3673,22,57,890
1332411,4409324,4641532,4413065,4642441,2766,1568,272,-61,1526,720,-130,3258,22,57,890
1333412,4409476,4641812,4413262,4642638,2637,1357,246,-70,1555,605,-530,3647,24,64,891
1334413,4409636,4642096,4413459,4642835,2604,1294,139,4,1565,326,-858,3226,24,64,891
1335414,4409796,4642352,4413656,4643032,2621,1443,45,275,1464,623,-1088,4728,44,51,889
1336415,4409944,4642604,4413853,4643229,2718,1444,-56,604,1211,-257,-849,4744,44,51,889
1337416,4410104,4642888,4414050,4643426,2661,1206,-223,936,927,-35,110,4882,46,54,890
1338417,4410260,4643192,4414247,4643623,2704,1034,-391,1289,684,357,332,5418,46,54,890
1339418,4410420,4643536,4414444,4643820,2696,719,-522,1553,513,235,-271,5309,47,53,890
1340426,4410588,4643824,4414674,4644050,2674,1044,-588,1716,435,120,-1012,5012,47,53,890
1341420,4410772,4644156,4414871,4644247,2581,709,-605,1998,436,101,-304,5756,49,62,892
1342421,4410924,4644504,4415068,4644444,2802,543,-633,2357,472,521,1008,4680,49,62,892
1343422,4411140,4644836,4415265,4644641,2393,584,-681,2504,507,731,302,3328,35,56,892
1344423,4411320,4645116,4415462,4644838,2627,872,-639,2447,422,2037,-291,3685,35,56,892
1345424,4411508,4645360,4415659,4645035,2582,1077,-580,2130,267,1642,382,2394,34,63,893
1346425,4411688,4645604,4415856,4645232,2640,1056,-564,1872,181,364,62,2786,34,63,893
1347426,4411900,4645868,4416053,4645429,2434,902,-523,1839,162,-388,-1231,4170,38,56,892
1348427,4412096,4646092,4416250,4645626,2535,1140,-457,1904,26,-176,-837,4725,38,56,892
1349428,4412248,4646308,4416447,4645823,2831,1181,-419,1906,-213,-824,-141,4433,35,48,891
1350429,4412444,4646496,4416644,4646020,2557,1360,-334,1548,-280,-2823,-651,4415,35,48,891
1351430,4412604,4646672,4416841,4646217,2799,1445,-138,762,-433,-1576,17,4854,46,31,893
1352431,4412788,4646844,4417038,4646414,2655,1481,67,-306,-907,-286,511,4513,46,31,893
1353432,4412948,4647064,4417235,4646611,2822,1170,153,-1050,-1444,-878,558,6210,31,41,891
1354433,4413104,4647276,4417432,4646808,2866,1213,-28,-1331,-1803,-1117,331,5350,31,41,891
1355434,4413272,4647488,4417629,4647005,2805,1206,-401,-1140,-2028,-759,123,5710,44,44,890
1356435,4413460,4647712,4417826,4647202,2685,1119,-760,-597,-2233,-467,-354,6350,44,44,890
1357436,4413656,4647936,4418023,4647399,2637,1108,-1027,-46,-2362,-18,-315,5941,29,46,890
1358436,4413828,4648152,4418220,4647596,2798,1149,-1194,253,-2419,730,-750,5312,29,46,890
1359438,4414016,4648356,4418417,4647793,2703,1221,-1191,299,-2387,467,-2504,5733,40,34,891
1360438,4414200,4648528,4418614,4647990,2734,1432,-1042,136,-2376,1341,-3416,5042,40,34,891
1361440,4414376,4648708,4418811,4648187,2794,1390,-816,-207,-2412,1733,-1934,4589,29,30,891
1362441,4414560,4648872,4419008,4648384,2751,1504,-625,-582,-2418,1107,-1727,4129,29,30,891
1363442,4414736,4649044,4419205,4648581,2811,1465,-540,-784,-2318,342,-1119,3735,30,30,890
1364442,4414892,4649180,4419402,4648778,2954,1716,-510,-696,-2100,-505,-931,4418,30,30,890
1365444,4415076,4649300,4419599,4648975,2786,1850,-527,-477,-1962,313,-779,3970,28,31,889
