"Data file recorded 2014/9/22  15:38:57"
"%  Right Stride Frequency         = 3.0"
"%  Left Stride Frequency         = 3.0"
"%  Phase (Fractional)         = 32768.0"
"%  Experiment.py "
"%  Motor Gains    = [1800, 200, 100, 0, 0, 1800, 200, 100, 0, 0]
"% Columns: "
"% time | Right Leg Pos | Left Leg Pos | Commanded Right Leg Pos | Commanded Left Leg Pos | DCR | DCL | GyroX | GryoY | GryoZ | AX | AY | AZ | RBEMF | LBEMF | VBatt "
10719,5196676,5513148,5191068,5551516,-1159,3800,14,125,242,315,-437,4069,0,8,878
11709,5196692,5513152,5191265,5551713,-1256,3800,16,122,241,305,-428,4063,0,8,878
12710,5196684,5513184,5191462,5551910,-1017,3800,16,131,238,318,-448,4040,4,5,860
13711,5196660,5513272,5191659,5552107,-821,3800,14,112,239,309,-442,4080,4,5,860
14712,5196632,5513352,5191856,5552304,-698,3800,7,140,234,244,-485,4106,2,9,853
15713,5196608,5513420,5192053,5552501,-626,3800,-4,153,224,119,-642,4110,2,9,853
16714,5196560,5513524,5192250,5552698,-370,3800,-29,176,230,-57,-905,4199,-1,15,852
17714,5196532,5513624,5192447,5552895,-397,3800,-51,183,253,-36,-809,3940,-1,15,852
18715,5196536,5513720,5192644,5553092,-513,3800,-52,129,277,121,-438,3724,-8,8,855
19717,5196532,5513812,5192841,5553289,-376,3800,-40,-40,291,201,-205,3715,-8,8,855
20717,5196528,5513936,5193038,5553486,-287,3800,-40,-158,324,277,-144,3901,-8,16,855
21718,5196520,5514064,5193235,5553683,-173,3800,-47,-230,384,356,-59,3815,-8,16,855
22719,5196532,5514208,5193432,5553880,-218,3800,-48,-359,453,438,1,3682,14,31,856
23721,5196524,5514376,5193629,5554077,-3,3800,-36,-474,498,448,152,3747,14,31,856
24721,5196528,5514504,5193826,5554274,6,3800,-33,-608,543,459,50,3810,0,29,855
25722,5196516,5514652,5194023,5554471,198,3800,-33,-689,599,429,-106,3886,0,29,855
26723,5196528,5514800,5194220,5554668,128,3800,-34,-764,646,321,-125,4019,10,37,854
27724,5196516,5514976,5194417,5554865,370,3800,-42,-775,693,274,-249,4189,10,37,854
28725,5196516,5515120,5194614,5555062,381,3800,-57,-753,747,252,-430,4278,-6,37,856
29726,5196520,5515264,5194811,5555259,440,3800,-60,-751,813,218,-423,4088,-6,37,856
30727,5196508,5515408,5195008,5555456,632,3800,-61,-764,885,251,-428,4231,10,37,855
31728,5196516,5515532,5195205,5555653,589,3800,-72,-734,961,301,-453,4290,10,37,855
32729,5196540,5515672,5195402,5555850,565,3800,-92,-744,1049,314,-540,4269,16,35,852
33730,5196528,5515804,5195599,5556047,882,3800,-98,-753,1135,248,-567,4259,16,35,852
34731,5196532,5515928,5195796,5556244,867,3800,-97,-762,1218,256,-683,4343,0,20,851
35732,5196536,5516048,5195993,5556441,952,3800,-103,-720,1307,320,-817,4379,0,20,851
36733,5196524,5516156,5196190,5556638,1143,3800,-113,-671,1401,253,-1027,4427,11,17,852
37734,5196524,5516308,5196387,5556835,1154,3800,-113,-687,1493,177,-1278,4227,11,17,852
38735,5196528,5516464,5196584,5557032,1214,3800,-102,-733,1570,136,-1591,4230,-6,37,852
39736,5196528,5516608,5196781,5557229,1326,3800,-94,-749,1638,-14,-2025,4377,-6,37,852
40737,5196524,5516768,5196978,5557426,1439,3800,-83,-719,1718,-72,-2372,4441,14,36,852
41738,5196516,5516904,5197175,5557623,1555,3800,-47,-719,1799,-69,-2376,4171,14,36,852
42739,5196524,5517040,5197372,5557820,1538,3800,-5,-670,1869,37,-2123,4352,14,22,851
43740,5196516,5517172,5197569,5558017,1728,3800,19,-585,1917,173,-1819,4525,14,22,851
44741,5196520,5517288,5197766,5558214,1738,3800,19,-464,1924,254,-1559,4653,9,35,849
45742,5196532,5517448,5197963,5558411,1769,3800,33,-400,1905,266,-1291,4422,9,35,849
46743,5196520,5517564,5198160,5558608,2011,3800,69,-342,1853,193,-957,4468,2,37,847
47745,5196524,5517724,5198357,5558805,1997,3800,133,-307,1758,110,-576,4319,2,37,847
48745,5196528,5517860,5198554,5559002,2082,3800,225,-301,1648,174,-113,4233,16,20,847
49746,5196520,5517984,5198751,5559199,2248,3800,326,-318,1551,374,366,4223,16,20,847
50747,5196524,5518132,5198948,5559396,2258,3800,430,-316,1465,479,814,4157,-2,26,847
51748,5196540,5518300,5199145,5559593,2262,3800,535,-336,1361,445,1112,4221,-2,26,847
52749,5196548,5518424,5199342,5559790,2396,3800,615,-269,1224,375,1212,4454,13,33,846
53750,5196560,5518572,5199539,5559987,2453,3800,666,-157,1060,168,1168,4538,13,33,846
54751,5196584,5518720,5199736,5560184,2455,3800,677,68,878,-38,1103,4861,18,40,846
55752,5196600,5518872,5199933,5560381,2585,3800,649,348,708,-223,837,5087,18,40,846
56753,5196612,5519036,5200130,5560578,2691,3800,588,729,587,-413,642,5319,1,39,844
57754,5196652,5519196,5200327,5560775,2586,3800,551,1019,495,-511,669,4854,1,39,844
58755,5196680,5519340,5200524,5560972,2737,3800,515,1244,418,-356,605,4838,8,22,841
59756,5196716,5519484,5200721,5561169,2758,3800,455,1436,361,-385,504,4691,8,22,841
60757,5196744,5519632,5200918,5561366,2883,3800,418,1486,299,-645,369,4120,22,38,843
61758,5196800,5519780,5201115,5561563,2771,3800,418,1386,229,-688,169,3670,22,38,843
62759,5196852,5519944,5201312,5561760,2860,3800,427,1197,210,-587,-167,3638,26,38,843
63760,5196928,5520088,5201509,5561957,2765,3800,397,1114,232,-611,-572,3865,26,38,843
64761,5197016,5520224,5201706,5562154,2738,3800,353,972,279,-620,-746,3558,31,43,843
65762,5197116,5520344,5201903,5562351,2706,3800,315,797,369,-525,-682,3578,31,43,843
66763,5197232,5520548,5202100,5562548,2643,3800,275,641,462,-430,-416,3706,31,46,843
67764,5197340,5520760,5202297,5562745,2733,3800,251,498,496,-457,-173,3614,31,46,843
68765,5197456,5520932,5202494,5562942,2719,3800,241,358,490,-482,-109,3645,35,39,843
69766,5197568,5521100,5202691,5563139,2783,3800,226,238,478,-490,-4,3704,35,39,843
70767,5197676,5521256,5202888,5563336,2848,3800,192,150,480,-437,-155,3913,32,43,843
71768,5197788,5521400,5203085,5563533,2861,3800,134,160,502,-488,-324,4111,32,43,843
72769,5197892,5521608,5203282,5563730,2953,3800,84,159,522,-605,-307,4064,40,41,844
73770,5198008,5521872,5203479,5563927,2915,3800,45,193,538,-529,-373,4275,40,41,844
74771,5198088,5522080,5203676,5564124,3192,3800,10,236,548,-361,-374,4245,26,45,843
75772,5198168,5522364,5203873,5564321,3245,3800,-24,306,546,-315,-356,4345,26,45,843
76773,5198248,5522624,5204070,5564518,3297,3800,-51,384,513,-406,-441,4360,11,58,843
77774,5198304,5522888,5204267,5564715,3510,3800,-87,411,437,-337,-477,4323,11,58,843
78775,5198356,5523284,5204464,5564912,3601,3800,-134,482,351,-139,-523,4460,7,56,841
79776,5198420,5523644,5204661,5565109,3585,3800,-202,593,270,18,-382,4477,7,56,841
80777,5198488,5524016,5204858,5565306,3618,3800,-264,646,178,301,-2,4243,10,61,839
81778,5198560,5524384,5205055,5565503,3649,3800,-313,597,68,608,426,4064,10,61,839
82779,5198620,5524836,5205252,5565700,3785,3800,-352,478,-61,881,813,3810,15,85,840
83780,5198688,5525336,5205449,5565897,3794,3800,-389,273,-213,1230,1085,3664,15,85,840
84794,5198760,5525852,5205646,5566094,3800,3800,-431,24,-368,1471,966,3544,12,101,840
85782,5198864,5526448,5205843,5566291,3666,3800,-466,-243,-497,1742,778,3442,12,101,840
86796,5198904,5527020,5206040,5566488,3800,3800,-484,-473,-607,1862,602,3381,22,125,840
87797,5198972,5527660,5206237,5566685,3800,3800,-478,-777,-704,1940,366,3225,22,125,840
88798,5199032,5528324,5206434,5566882,3800,3800,-436,-1091,-801,2075,176,3202,30,134,842
89799,5199088,5529140,5206631,5567079,3800,3800,-382,-1362,-889,2128,-392,3481,30,134,842
90800,5199144,5529868,5206828,5567276,3800,3800,-338,-1507,-964,2216,-771,3673,33,127,841
91801,5199212,5530652,5207025,5567473,3800,3800,-273,-1616,-1054,2181,-1055,3660,33,127,841
92809,5199300,5531408,5207452,5567900,3800,3800,-156,-1727,-1155,2322,-1198,3564,16,163,841
93803,5199400,5532272,5207649,5568097,3800,3800,-13,-1733,-1251,2644,-1304,3853,16,163,841
94804,5199532,5533004,5207846,5568294,3800,3800,150,-1684,-1340,2796,-1346,3906,42,171,843
95792,5199720,5533952,5208043,5568491,3747,3800,349,-1612,-1444,3034,-1219,3927,42,171,843
96793,5199920,5534832,5208240,5568688,3672,3800,564,-1455,-1562,3399,-1246,4244,50,167,844
97794,5200148,5535652,5208437,5568885,3485,3800,793,-1151,-1653,3664,-1421,4407,50,167,844
98795,5200376,5536568,5208634,5569082,3474,3800,1013,-614,-1719,3574,-2082,5046,45,178,845
99796,5200608,5537468,5208831,5569279,3434,3800,1185,113,-1793,3225,-3003,5514,45,178,845
100797,5200824,5538456,5209028,5569476,3528,3800,1335,933,-1915,3054,-3509,5454,63,168,848
101798,5201044,5539328,5209225,5569673,3494,3800,1504,1704,-2062,2953,-3670,4883,63,168,848
102799,5201264,5540192,5209422,5569870,3486,3800,1725,2376,-2222,2896,-3397,4596,50,178,846
103800,5201472,5541032,5209619,5570067,3557,3800,1961,2927,-2368,3455,-3000,4312,50,178,846
104802,5201696,5541856,5209816,5570264,3447,3800,2200,3517,-2487,4009,-2772,4158,51,171,847
105802,5201904,5542628,5210013,5570461,3543,3800,2468,4075,-2605,4246,-2079,3373,51,171,847
106803,5202116,5543544,5210210,5570658,3513,3800,2810,4340,-2772,3912,-1470,2538,43,142,846
107804,5202324,5544304,5210407,5570855,3536,3800,3218,4421,-2959,3792,-1016,2235,43,142,846
108818,5202488,5545060,5210604,5571052,3800,3800,3602,4535,-3090,4012,-755,2214,52,146,846
109806,5202660,5545728,5210801,5571249,3789,3800,3908,4716,-3141,4126,-436,2317,52,146,846
110820,5202816,5546524,5210998,5571446,3800,3800,4125,5090,-3154,3817,151,2883,33,151,846
111821,5202976,5547188,5211195,5571643,3800,3800,4262,5657,-3204,3414,966,3222,33,151,846
112822,5203112,5547924,5211392,5571840,3800,3800,4317,6331,-3335,3163,2025,3376,30,143,843
113823,5203252,5548564,5211589,5572037,3800,3800,4322,6971,-3481,2803,2765,3057,30,143,843
114824,5203400,5549176,5211786,5572234,3800,3800,4312,7407,-3588,2539,3505,2514,24,119,842
115825,5203496,5549680,5211983,5572431,3800,3800,4235,7773,-3654,2489,4104,2547,24,119,842
116826,5203612,5550224,5212180,5572628,3800,3800,4032,8198,-3759,1954,4630,2646,29,102,842
117827,5203712,5550752,5212377,5572825,3800,3800,3681,8661,-3930,1239,4711,2748,29,102,842
118827,5203816,5551252,5212574,5573022,3800,3800,3251,9057,-4046,900,4550,2316,23,106,839
119829,5203980,5551752,5212771,5573219,3800,3800,2803,9203,-3976,823,4232,1931,23,106,839
120830,5204168,5552308,5212968,5573416,3800,3800,2376,9212,-3750,805,4041,1631,44,95,841
121831,5204380,5552844,5213165,5573613,3800,3800,1949,8932,-3488,488,4082,930,44,95,841
122819,5204600,5553368,5213362,5573810,3783,3800,1505,8384,-3246,128,3800,420,44,117,841
123820,5204900,5553988,5213559,5574007,3239,3800,1011,7697,-3064,-44,2864,148,44,117,841
124821,5205196,5554536,5213756,5574204,3222,3800,448,7143,-2926,-500,1695,547,51,101,842
125822,5205444,5555056,5213953,5574401,3502,3800,-91,6534,-2720,-910,102,532,51,101,842
126823,5205724,5555656,5214150,5574598,3266,3800,-888,6145,-2269,-774,-3527,1850,49,111,847
127824,5205992,5556232,5214347,5574795,3312,3800,-1877,5768,-1642,-954,-5772,1422,49,111,847
128825,5206268,5556768,5214544,5574992,3228,3800,-2512,4805,-1284,-1665,-5897,-517,73,106,844
129826,5206564,5557396,5214741,5575189,3062,3800,-2812,3413,-1113,-2111,-8249,-726,73,106,844
130827,5206804,5558144,5214938,5575386,3395,3800,-3074,1888,-854,-2207,-9766,-505,73,136,845
131828,5207064,5558808,5215135,5575583,3243,3800,-3444,467,-500,-2208,-9685,-20,73,136,845
132829,5207316,5559480,5215332,5575780,3271,3800,-4091,-849,-73,-2554,-9695,1235,64,142,849
133830,5207528,5560100,5215529,5575977,3516,3800,-4698,-2316,245,-3213,-8523,828,64,142,849
134818,5207736,5561080,5215726,5576174,3538,2572,-5044,-4188,431,-3660,-6757,498,40,173,847
135819,5207968,5561936,5215923,5576371,3373,3060,-5327,-6015,548,-3599,-4873,1746,40,173,847
136820,5208180,5562796,5216120,5576568,3494,2747,-5578,-7575,696,-3616,-3626,2427,52,172,845
137822,5208404,5563708,5216317,5576765,3408,2110,-5818,-8722,875,-3243,-2352,3848,52,172,845
138823,5208616,5564508,5216514,5576962,3478,2547,-6036,-9284,1105,-2686,-1502,5808,67,171,853
139824,5208820,5565452,5216711,5577159,3526,1322,-4587,-10203,1285,-711,-366,18489,67,171,853
140825,5208996,5566312,5216908,5577356,3712,1558,-31,-10756,1081,3268,1739,32767,40,178,854
141826,5209168,5567068,5217105,5577553,3749,1964,2466,-8101,1121,1419,1519,30363,40,178,854
142839,5209300,5567788,5217302,5577750,3800,1961,2062,-4734,1517,-1170,2027,14298,31,174,855
143841,5209460,5568548,5217499,5577947,3800,1466,1066,-2106,1857,-2327,2345,10925,31,174,855
144841,5209588,5569252,5217696,5578144,3800,1595,657,-1136,2012,-2877,2943,8245,42,146,851
145843,5209744,5569920,5217893,5578341,3800,1614,622,-465,2024,-2228,3405,8222,42,146,851
146843,5209900,5570628,5218090,5578538,3800,1142,664,292,2026,-1636,3121,6611,51,142,851
147832,5210096,5571264,5218287,5578735,3721,1400,709,587,2125,-1064,2334,5258,51,142,851
148833,5210360,5571776,5218484,5578932,3268,2038,656,1105,2284,-85,1361,5898,42,136,852
149834,5210604,5572324,5218681,5579129,3374,1660,667,1085,2528,587,725,3474,42,136,852
150834,5210860,5572904,5218878,5579326,3274,1293,859,546,2754,1660,-460,2314,70,118,854
151835,5211160,5573412,5219075,5579523,2956,1608,1169,-315,2863,1869,-2199,1119,70,118,854
152836,5211440,5573916,5219272,5579720,3045,1499,1516,-1310,2935,1463,-3425,778,62,107,856
153837,5211704,5574360,5219469,5579917,3118,1767,1796,-1947,2958,1626,-3169,1136,62,107,856
154839,5211956,5574728,5219666,5580114,3170,2167,2118,-2709,2984,1978,-2360,338,65,94,857
155839,5212220,5575028,5219863,5580311,3067,2548,2439,-3099,2945,1767,-1543,1642,65,94,857
156840,5212480,5575348,5220060,5580508,3066,2370,2719,-3226,2849,1275,-1252,2000,62,78,855
157841,5212752,5575576,5220257,5580705,2960,2932,3087,-3417,2770,575,-1001,1312,62,78,855
158842,5213020,5575780,5220454,5580902,2954,3080,3494,-3443,2431,-348,748,1616,47,51,851
159844,5213268,5575976,5220651,5581099,3058,3132,3752,-3292,1668,-1818,2285,2463,47,51,851
160845,5213496,5576144,5220848,5581296,3171,3321,3777,-2569,714,-2503,3204,3958,43,45,850
161845,5213756,5576316,5221045,5581493,2945,3308,3764,-1746,-85,-2929,3477,3351,43,45,850
162846,5213992,5576452,5221242,5581690,3080,3560,3736,-787,-641,-3009,3468,4154,48,25,847
163848,5214244,5576584,5221439,5581887,2956,3615,3711,358,-939,-3142,3096,4262,48,25,847
164848,5214512,5576732,5221636,5582084,2826,3537,3705,1289,-1115,-3747,2785,3486,45,41,847
165849,5214752,5576900,5221833,5582281,2984,3426,3743,2118,-1345,-4151,2844,3258,45,41,847
166850,5214984,5577032,5222030,5582478,3020,3681,3781,2749,-1615,-4345,3086,2520,56,45,844
167851,5215232,5577224,5222227,5582675,2898,3309,3757,3168,-1842,-4104,2727,2002,56,45,844
168852,5215464,5577400,5222424,5582872,2985,3419,3619,3329,-2005,-3627,2175,1272,39,42,844
169853,5215696,5577608,5222621,5583069,2971,3215,3379,3264,-2141,-3362,2548,734,39,42,844
170855,5215928,5577812,5222818,5583266,2956,3238,3047,2986,-2339,-3036,4083,-118,37,40,847
171856,5216144,5578028,5223015,5583463,3050,3156,2721,2336,-2523,-2603,4489,-1002,37,40,847
172857,5216320,5578224,5223212,5583660,3310,3282,2431,1528,-2483,-1918,3792,-1131,35,40,847
173857,5216528,5578388,5223409,5583857,3106,3498,2127,741,-2134,-1204,3039,-802,35,40,847
174858,5216712,5578568,5223606,5584054,3264,3406,1768,20,-1602,-788,2743,-414,29,43,847
175867,5216928,5578768,5223836,5584284,3071,3296,1341,-652,-1109,-506,2809,-303,29,43,847
176860,5217140,5578936,5224033,5584481,3091,3509,989,-1509,-739,-316,2723,-815,37,45,844
177862,5217364,5579156,5224230,5584678,3006,3175,636,-2340,-460,50,2206,-234,37,45,844
178862,5217580,5579392,5224427,5584875,3048,3060,128,-2946,-270,-105,2415,269,52,50,845
179864,5217792,5579600,5224624,5585072,3068,3231,-404,-3507,-93,-157,2099,616,52,50,845
180864,5218088,5579796,5224821,5585269,2500,3308,-954,-3825,24,123,1402,1646,56,38,847
181865,5218344,5580004,5225018,5585466,2726,3229,-1576,-3809,94,114,872,2675,56,38,847
182866,5218596,5580212,5225215,5585663,2728,3225,-2267,-3557,116,-240,286,3740,63,41,847
183867,5218884,5580436,5225412,5585860,2464,3114,-2946,-3127,-1,-386,-441,4054,63,41,847
184868,5219200,5580664,5225609,5586057,2239,3076,-3592,-2819,-294,-369,-1225,3815,56,52,849
185869,5219480,5580884,5225806,5586254,2428,3117,-4226,-2597,-668,-151,-1776,3807,56,52,849
186871,5219760,5581116,5226003,5586451,2393,3028,-4846,-2483,-1028,60,-1433,3639,70,38,852
187872,5220068,5581336,5226200,5586648,2170,3094,-5456,-2423,-1296,513,-864,3550,70,38,852
188873,5220452,5581564,5226397,5586845,1614,3031,-6043,-2484,-1466,1202,-270,3239,74,45,852
189873,5220852,5581816,5226594,5587042,1426,2858,-6516,-2670,-1560,1380,-233,2917,74,45,852
190874,5221212,5582076,5226791,5587239,1606,2781,-6946,-2781,-1645,1047,-313,3699,73,58,853
191876,5221548,5582304,5226988,5587436,1696,2969,-7330,-2906,-1688,414,-658,3479,73,58,853
192877,5221932,5582528,5227185,5587633,1315,2983,-7627,-3134,-1628,-95,-792,3341,79,57,858
193878,5222264,5582740,5227382,5587830,1582,3052,-7863,-3316,-1499,-501,-908,3640,79,57,858
194878,5222584,5582960,5227579,5588027,1604,2993,-8003,-3800,-1336,-706,-1047,2633,60,59,857
195879,5222948,5583188,5227776,5588224,1256,2931,-8004,-4562,-1158,-727,-1421,2098,60,59,857
196880,5223276,5583428,5227973,5588421,1424,2838,-7918,-5347,-955,-1164,-2095,2496,76,51,857
197881,5223568,5583640,5228170,5588618,1608,3007,-7789,-6022,-635,-1654,-3118,2989,76,51,857
198882,5223884,5583832,5228367,5588815,1407,3135,-7600,-6548,-215,-1843,-3809,3334,69,41,859
199883,5224124,5584028,5228564,5589012,1864,3112,-7320,-7028,263,-2085,-4630,3696,69,41,859
200884,5224396,5584180,5228761,5589209,1632,3407,-6913,-7426,743,-2383,-5182,4054,60,33,856
201885,5224644,5584352,5228958,5589406,1760,3293,-6182,-7698,1188,-2317,-5752,5853,60,33,856
202886,5224896,5584560,5229155,5589603,1712,3065,-2441,-2792,1479,2860,-8685,32767,63,28,853
203888,5225096,5584756,5229352,5589800,2036,3141,2177,2947,1660,1663,-6872,32767,63,28,853
204889,5225316,5584960,5229549,5589997,1902,3089,4194,3645,1895,-2328,-3522,1455,38,50,853
205889,5225524,5585188,5229746,5590194,1973,2926,4174,1041,2232,-2182,-2757,256,38,50,853
206890,5225708,5585412,5229943,5590391,2130,2941,4032,-1312,2640,-1321,-3702,1415,36,52,853
207892,5225900,5585604,5230140,5590588,2083,3144,4137,-2291,3118,-1066,-4407,3012,36,52,853
208892,5226084,5585768,5230337,5590785,2138,3334,4471,-2770,3677,-1147,-4475,2589,51,46,855
209894,5226252,5585960,5230534,5590982,2252,3162,4724,-3039,4186,-515,-3824,3644,51,46,855
210894,5226388,5586188,5230731,5591179,2480,2925,4897,-3399,4648,-303,-2903,3266,48,43,853
211896,5226532,5586356,5230928,5591376,2454,3314,5078,-3982,5050,-54,-2106,2830,48,43,853
212896,5226652,5586508,5231125,5591573,2639,3434,5176,-4396,5280,448,-1190,3105,37,39,850
213898,5226800,5586660,5231322,5591770,2487,3455,5259,-4681,5391,576,-430,3587,37,39,850
214898,5226956,5586780,5231519,5591967,2455,3690,5230,-4448,5487,1025,-147,5239,28,33,849
215900,5227084,5586940,5231716,5592164,2661,3457,5110,-3795,5596,1039,-528,5883,28,33,849
216901,5227212,5587148,5231913,5592361,2692,3153,4837,-2849,5728,497,-1222,7298,30,41,847
217901,5227328,5587340,5232110,5592558,2804,3257,4451,-1432,5745,84,-1019,8437,30,41,847
218902,5227428,5587540,5232307,5592755,2948,3206,4009,-140,5545,132,180,7706,25,33,847
219904,5227540,5587752,5232504,5592952,2911,3126,3648,974,5236,719,1087,7047,25,33,847
220904,5227620,5587964,5232701,5593149,3163,3120,3340,1857,4934,1421,1220,6371,28,35,847
221905,5227736,5588176,5232898,5593346,2975,3114,3039,2600,4625,1898,1282,6035,28,35,847
222906,5227852,5588392,5233095,5593543,3012,3082,2721,3239,4231,1859,1833,5347,26,40,847
223908,5227960,5588636,5233292,5593740,3102,2887,2453,3526,3750,1760,2100,3908,26,40,847
224908,5228124,5588876,5233489,5593937,2767,2895,2200,3437,3108,1849,2669,2841,37,39,846
225910,5228280,5589104,5233686,5594134,2836,2957,1977,3041,2421,1845,2881,1618,37,39,846
226910,5228408,5589332,5233883,5594331,3043,2944,1797,2312,1851,2026,2589,727,39,45,848
227912,5228572,5589584,5234080,5594528,2833,2771,1607,1476,1451,2321,2196,395,39,45,848
228912,5228720,5589816,5234277,5594725,2956,2882,1447,518,1218,2238,1973,-248,31,59,850
229913,5228852,5590120,5234474,5594922,3085,2386,1287,-556,1010,2132,2081,-594,31,59,850
230914,5228996,5590460,5234671,5595119,3034,2098,1130,-1670,762,2084,2132,-809,24,56,851
231916,5229124,5590788,5234868,5595316,3166,2116,979,-2689,538,1980,2091,-417,24,56,851
232916,5229264,5591104,5235065,5595513,3117,2140,815,-3384,374,1720,1645,174,21,69,851
233917,5229420,5591436,5235262,5595710,3036,1982,641,-3843,206,948,1072,591,21,69,851
234918,5229604,5591800,5235459,5595907,2868,1709,454,-3987,35,145,402,1725,39,62,850
235920,5229808,5592128,5235656,5596104,2741,1878,243,-3767,-77,-470,43,2629,39,62,850
236921,5229972,5592440,5235853,5596301,3007,1927,41,-3308,-86,-1130,-74,3091,47,70,855
237922,5230112,5592808,5236050,5596498,3183,1503,-125,-2726,-16,-1729,-175,3560,47,70,855
238923,5230240,5593232,5236247,5596695,3289,1054,-244,-2176,28,-2060,-206,3292,35,70,857
239923,5230388,5593612,5236444,5596892,3187,1249,-287,-1673,-12,-1798,87,2996,35,70,857
240924,5230524,5593940,5236641,5597089,3290,1517,-290,-1208,-45,-1368,84,2933,24,69,855
241925,5230716,5594360,5236838,5597286,2943,845,-329,-668,45,-1048,-520,3364,24,69,855
242926,5230928,5594768,5237035,5597483,2813,828,-415,49,219,-1099,-976,3682,36,80,857
243927,5231148,5595168,5237232,5597680,2754,789,-535,754,407,-1078,-1114,3653,36,80,857
244928,5231356,5595496,5237429,5597877,2825,1182,-625,1436,602,-772,-899,3418,47,77,859
245929,5231536,5595872,5237626,5598074,3009,804,-660,1849,761,-392,-656,2725,47,77,859
246930,5231748,5596232,5237823,5598271,2803,833,-629,1950,882,255,-752,2010,31,64,860
247931,5231932,5596532,5238020,5598468,2985,1162,-558,1814,965,1120,-495,1188,31,64,860
248932,5232140,5596792,5238217,5598665,2832,1386,-499,1530,995,1921,-63,911,48,72,859
249933,5232372,5597148,5238414,5598862,2668,716,-482,1309,1025,2517,-231,1429,48,72,859
250934,5232600,5597468,5238611,5599059,2680,888,-491,1258,1093,2619,-568,1900,59,68,859
251935,5232804,5597808,5238808,5599256,2828,700,-476,1241,1136,2733,-388,1817,59,68,859
252936,5233020,5598096,5239005,5599453,2746,985,-400,1062,1080,3266,-31,1291,45,62,862
253937,5233236,5598344,5239202,5599650,2738,1212,-259,683,957,4014,-125,843,45,62,862
254938,5233472,5598660,5239399,5599847,2597,736,-92,285,795,4347,-330,938,42,60,861
255940,5233708,5598968,5239596,5600044,2582,737,73,25,607,4082,-681,1561,42,60,861
256940,5233928,5599208,5239793,5600241,2673,1143,238,19,413,3669,-985,2285,58,49,859
257941,5234144,5599456,5239990,5600438,2691,1071,403,288,195,3529,-1077,2946,58,49,859
258951,5234384,5599704,5240220,5600668,2537,1063,544,764,-86,3810,-1101,3420,34,49,862
259943,5234620,5599980,5240417,5600865,2546,854,640,1361,-419,4186,-1427,3802,34,49,862
260944,5234876,5600236,5240614,5601062,2396,953,723,1990,-759,4039,-1914,3869,58,43,861
261945,5235196,5600476,5240811,5601259,1943,1035,794,2719,-1107,3456,-2459,4233,58,43,861
262946,5235464,5600688,5241008,5601456,2238,1203,842,3644,-1474,3024,-2725,4557,48,40,864
263947,5235728,5600872,5241205,5601653,2234,1384,873,4533,-1830,2951,-2645,4428,48,40,864
264948,5235988,5601072,5241402,5601850,2233,1282,884,5369,-2160,3010,-2603,4305,44,38,865
265949,5236304,5601316,5241599,5602047,1831,988,901,6119,-2444,2687,-2756,3929,44,38,865
266950,5236612,5601544,5241796,5602244,1834,1074,885,6759,-2676,2522,-2833,3901,49,52,862
267951,5236880,5601768,5241993,5602441,2053,1087,811,7365,-2863,2490,-2425,3556,49,52,862
268953,5237180,5601956,5242190,5602638,1809,1316,708,7637,-3022,2259,-1790,2579,54,32,865
269954,5237420,5602116,5242387,5602835,2166,1507,586,7575,-3164,2048,-1395,1876,54,32,865
270955,5237688,5602268,5242584,5603032,1961,1577,471,7255,-3305,1746,-797,1086,65,30,865
271956,5237992,5602468,5242781,5603229,1690,1276,369,6729,-3415,1540,-145,636,65,30,865
272957,5238264,5602660,5242978,5603426,1858,1328,267,6130,-3443,1372,76,733,49,45,863
273958,5238536,5602816,5243175,5603623,1826,1572,110,5596,-3369,1035,359,985,49,45,863
274958,5238792,5602984,5243372,5603820,1901,1510,-96,5151,-3225,670,646,1174,62,35,866
275960,5239028,5603140,5243569,5604017,2010,1603,-332,4713,-3066,344,935,1301,62,35,866
276961,5239344,5603296,5243766,5604214,1459,1621,-619,4209,-2932,-216,1060,1108,60,33,864
277962,5239644,5603428,5243963,5604411,1514,1799,-907,3552,-2795,-859,932,761,60,33,864
278962,5239924,5603548,5244160,5604608,1603,1908,-1193,2826,-2646,-1362,790,1031,61,25,861
279964,5240152,5603656,5244357,5604805,1915,2023,-1504,2254,-2499,-1646,744,1715,61,25,861
280965,5240448,5603772,5244554,5605002,1448,2009,-1835,1814,-2328,-1820,472,1965,53,22,864
281966,5240712,5603876,5244751,5605199,1619,2125,-2147,1466,-2115,-2151,-49,2414,53,22,864
282967,5240948,5603996,5244948,5605396,1777,2059,-2453,1238,-1870,-2501,-583,2973,43,30,861
283967,5241204,5604180,5245145,5605593,1627,1665,-2735,994,-1630,-2625,-744,3118,43,30,861
284968,5241404,5604340,5245342,5605790,1977,1832,-2992,669,-1422,-2447,-872,3065,50,26,861
285969,5241656,5604500,5245539,5605987,1629,1848,-3216,215,-1245,-2205,-964,2958,50,26,861
286970,5241912,5604636,5245736,5606184,1578,2025,-3405,-306,-1079,-1944,-1122,3094,49,40,864
287972,5242184,5604796,5245933,5606381,1446,1892,-3564,-783,-918,-1760,-1326,3421,49,40,864
288972,5242412,5604924,5246130,5606578,1708,2122,-3687,-1254,-756,-1539,-1325,3507,60,23,862
289973,5242608,5605064,5246327,5606775,1910,2072,-3751,-1833,-641,-1022,-1057,3396,60,23,862
290974,5242844,5605200,5246524,5606972,1643,2125,-3762,-2460,-596,-180,-764,3435,41,25,863
291975,5243056,5605332,5246721,5607169,1787,2179,-3752,-3124,-589,568,-491,3694,41,25,863
292976,5243272,5605500,5246918,5607366,1755,1967,-3706,-3744,-607,1144,-317,3981,57,29,861
293977,5243484,5605696,5247115,5607563,1773,1793,-3640,-4250,-660,1515,-146,4341,57,29,861
294978,5243680,5605852,5247312,5607760,1875,2061,-3532,-4697,-751,1863,95,4629,47,37,860
295979,5243880,5606004,5247509,5607957,1849,2106,-3230,-4915,-904,3302,683,6934,47,37,860
296980,5244064,5606152,5247706,5608154,1956,2153,-792,-1601,-2002,15483,4752,32767,32,23,863
297981,5244252,5606312,5247903,5608351,1935,2095,2847,3413,-3190,11590,314,32767,32,23,863
298982,5244472,5606492,5248100,5608548,1726,1978,4386,4591,-3518,3096,-51,5496,29,38,860
299983,5244684,5606632,5248297,5608745,1770,2253,4194,2919,-3431,2709,593,2506,29,38,860
300984,5244872,5606760,5248494,5608942,1924,2358,3631,749,-3312,2937,375,2550,37,33,858
301985,5245060,5606940,5248691,5609139,1929,2042,3130,-11,-3130,2972,-313,4974,37,33,858
302986,5245272,5607156,5248888,5609336,1774,1809,2858,-526,-3006,2646,681,3174,50,33,861
303988,5245476,5607344,5249085,5609533,1820,1988,2674,-1183,-3022,2644,1016,3276,50,33,861
304988,5245664,5607548,5249282,5609730,1925,1885,2435,-2152,-3091,2528,1086,2667,33,30,860
305990,5245880,5607732,5249479,5609927,1743,2016,2030,-3097,-3047,1993,-301,3215,33,30,860
306990,5246104,5607912,5249676,5610124,1681,2050,1400,-3429,-2852,1485,-1888,4500,38,46,861
307991,5246320,5608064,5249873,5610321,1724,2244,702,-3631,-2634,1334,-1250,4287,38,46,861
308992,5246556,5608264,5250070,5610518,1583,1944,176,-3923,-2471,1424,-260,3901,56,37,862
309993,5246800,5608488,5250267,5610715,1512,1782,-190,-4325,-2379,1165,-35,3740,56,37,862
310994,5247004,5608660,5250464,5610912,1760,2119,-580,-4663,-2300,792,-214,4477,37,30,859
311995,5247300,5608848,5250661,5611109,1143,2023,-949,-4771,-2207,851,304,4541,37,30,859
312996,5247600,5609012,5250858,5611306,1072,2188,-1181,-4939,-2087,882,734,4011,60,30,863
313997,5247832,5609188,5251055,5611503,1483,2123,-1313,-5129,-1916,706,379,4299,60,30,863
314998,5248096,5609352,5251252,5611700,1254,2212,-1407,-5131,-1685,543,61,4662,59,40,864
315999,5248392,5609560,5251449,5611897,1011,1934,-1471,-5171,-1432,388,147,4398,59,40,864
317000,5248640,5609724,5251646,5612094,1289,2223,-1496,-5084,-1210,304,381,4625,58,44,862
318001,5248884,5609892,5251843,5612291,1294,2212,-1453,-4977,-1025,91,291,4488,58,44,862
319002,5249152,5610056,5252040,5612488,1114,2251,-1326,-4850,-889,-67,189,4406,61,42,865
320004,5249412,5610220,5252237,5612685,1136,2267,-1147,-4628,-802,-147,252,4541,61,42,865
321004,5249640,5610420,5252434,5612882,1323,2040,-940,-4361,-746,-148,283,4590,61,29,863
322006,5249888,5610612,5252631,5613079,1177,2093,-732,-3951,-681,125,108,5099,61,29,863
323006,5250164,5610768,5252828,5613276,967,2337,-530,-3392,-561,330,-93,5289,54,35,862
324007,5250380,5610928,5253025,5613473,1335,2328,-305,-2802,-398,503,-5,5328,54,35,862
325008,5250648,5611116,5253222,5613670,979,2158,-84,-2172,-252,731,258,5299,58,49,864
326010,5250880,5611312,5253419,5613867,1189,2108,200,-1679,-187,747,761,4654,58,49,864
327010,5251076,5611512,5253616,5614064,1415,2083,526,-1298,-216,786,1153,4397,35,47,861
328012,5251288,5611716,5253813,5614261,1309,2055,894,-1012,-277,905,1212,4068,35,47,861
329012,5251496,5611900,5254010,5614458,1329,2187,1253,-739,-280,1131,999,4056,49,30,864
330013,5251724,5612068,5254207,5614655,1192,2299,1562,-319,-221,1431,737,4342,49,30,864
331014,5251960,5612228,5254404,5614852,1125,2367,1815,102,-156,1521,499,4203,41,49,863
332015,5252176,5612436,5254601,5615049,1241,2062,1998,551,-128,1507,327,4277,41,49,863
333016,5252396,5612624,5254798,5615246,1207,2192,2110,1014,-122,1534,256,4279,50,40,861
334017,5252596,5612820,5254995,5615443,1331,2142,2161,1480,-109,1588,326,4208,50,40,861
335018,5252792,5613028,5255192,5615640,1357,2063,2153,1961,-107,1494,400,4291,50,49,861
336020,5252968,5613192,5255389,5615837,1491,2353,2077,2435,-129,1388,545,4131,50,49,861
337020,5253172,5613400,5255586,5616034,1314,2074,1954,2831,-170,1325,760,3985,28,33,863
338021,5253372,5613624,5255783,5616231,1338,1962,1805,3182,-205,1378,713,3613,28,33,863
339022,5253544,5613832,5255980,5616428,1525,2058,1663,3369,-215,1508,654,3033,32,35,861
340023,5253744,5614028,5256177,5616625,1349,2134,1516,3434,-211,1582,477,2753,32,35,861
341024,5253944,5614204,5256374,5616822,1348,2269,1352,3387,-195,1702,261,2486,48,34,864
342032,5254120,5614364,5256604,5617052,1522,2400,1152,3316,-180,1659,194,2395,48,34,864
343026,5254296,5614564,5256801,5617249,1532,2149,908,3341,-160,1407,153,2676,26,30,863
344027,5254496,5614728,5256998,5617446,1381,2389,628,3452,-138,1143,158,2775,26,30,863
345029,5254668,5614896,5257195,5617643,1567,2378,343,3510,-118,1093,214,2639,37,41,859
346029,5254848,5615056,5257392,5617840,1525,2444,54,3603,-107,1072,150,2584,37,41,859
347030,5255020,5615236,5257589,5618037,1586,2327,-221,3602,-117,917,-90,2226,33,47,861
348031,5255212,5615412,5257786,5618234,1465,2362,-476,3563,-174,579,-496,2110,33,47,861
349032,5255372,5615612,5257983,5618431,1681,2211,-734,3596,-254,23,-1378,2489,41,31,860
350033,5255548,5615784,5258180,5618628,1591,2398,-978,3855,-305,-480,-2266,2955,41,31,860
351034,5255740,5615928,5258377,5618825,1493,2597,-1199,4195,-327,-885,-2523,3147,35,28,860
352035,5255912,5616048,5258574,5619022,1630,2781,-1385,4543,-314,-1054,-2403,3125,35,28,860
353036,5256112,5616188,5258771,5619219,1454,2681,-1559,4903,-229,-1035,-2283,3114,50,22,860
354037,5256336,5616320,5258968,5619416,1293,2761,-1718,5140,-88,-1241,-2151,2741,50,22,860
355038,5256528,5616428,5259165,5619613,1495,2950,-1851,5255,46,-1601,-2137,2560,36,32,856
356039,5256708,5616536,5259362,5619810,1579,2990,-1926,5345,148,-1806,-2178,2509,36,32,856
357040,5256916,5616672,5259559,5620007,1399,2843,-1939,5437,225,-2056,-2186,2387,39,20,858
358041,5257092,5616816,5259756,5620204,1609,2816,-1910,5417,254,-2246,-1949,2035,39,20,858
359042,5257288,5616956,5259953,5620401,1485,2867,-1839,5266,266,-2192,-2014,1777,32,37,856
360043,5257472,5617108,5260150,5620598,1566,2813,-1748,5086,355,-2082,-2003,1956,32,37,856
361044,5257668,5617216,5260347,5620795,1492,3127,-1672,4950,540,-2079,-1848,2065,37,21,856
362045,5257844,5617364,5260544,5620992,1627,2900,-1596,4816,766,-2050,-1562,2100,37,21,856
363046,5258012,5617508,5260741,5621189,1690,2949,-1516,4670,982,-2021,-1209,2152,43,22,857
364047,5258148,5617664,5260938,5621386,1918,2892,-1413,4464,1153,-2128,-908,2020,43,22,857
365048,5258288,5617824,5261135,5621583,1919,2884,-1297,4290,1277,-2254,-662,2146,40,22,856
366049,5258432,5617972,5261332,5621780,1917,2982,-1153,4108,1381,-2514,-419,2289,40,22,856
367051,5258540,5618136,5261529,5621977,2182,2896,-1013,3991,1476,-2696,-257,2744,41,24,853
368052,5258668,5618304,5261726,5622174,2087,2885,-887,4052,1578,-2838,-265,3188,41,24,853
369052,5258776,5618460,5261923,5622371,2252,2979,-776,4153,1700,-3057,-468,3540,35,34,854
370054,5258888,5618624,5262120,5622568,2265,2945,-675,4329,1817,-3194,-571,3839,35,34,854
371054,5259012,5618804,5262317,5622765,2223,2852,-583,4469,1896,-3331,-430,3894,29,45,853
372056,5259184,5618944,5262514,5622962,1935,3128,-494,4635,1919,-3451,-464,4084,29,45,853
373056,5259340,5619116,5262711,5623159,2053,2940,-406,4768,1901,-3632,-547,4171,42,49,853
374057,5259480,5619316,5262908,5623356,2179,2765,-301,4880,1846,-3779,-653,4168,42,49,853
375058,5259600,5619504,5263105,5623553,2339,2844,-186,4922,1770,-3812,-1026,4151,45,31,853
376059,5259732,5619728,5263302,5623750,2292,2608,-82,4944,1687,-3808,-1349,4146,45,31,853
377060,5259864,5619900,5263499,5623947,2322,2945,14,4865,1596,-3696,-1492,4009,39,40,853
378061,5259980,5620084,5263696,5624144,2459,2877,99,4658,1504,-3478,-1191,3748,39,40,853
379062,5260088,5620244,5263893,5624341,2548,3043,173,4338,1400,-3228,-938,3440,21,46,853
380063,5260196,5620440,5264090,5624538,2588,2819,239,3871,1281,-2965,-872,3123,21,46,853
381064,5260304,5620620,5264287,5624735,2628,2928,305,3191,1161,-2749,-596,2716,25,38,851
382065,5260408,5620860,5264484,5624932,2695,2535,369,2402,1048,-2454,-396,2432,25,38,851
383066,5260504,5621076,5264681,5625129,2789,2678,431,1533,937,-2168,-289,2231,35,34,851
384068,5260580,5621260,5264878,5625326,2968,2883,492,409,844,-1988,-178,1795,35,34,851
385068,5260676,5621464,5265075,5625523,2889,2756,531,-880,774,-1802,62,1690,22,46,852
386069,5260760,5621560,5265272,5625720,3014,3477,556,-2273,735,-1669,103,1695,22,46,852
387070,5260836,5621640,5265469,5625917,3118,3629,550,-3631,727,-1552,16,2126,24,28,848
388071,5260884,5621708,5265666,5626114,3359,3762,482,-4710,763,-1455,-266,3111,24,28,848
389085,5260960,5621756,5265863,5626311,3238,3800,384,-5544,831,-1413,-256,3623,28,25,842
390086,5261020,5621800,5266060,5626508,3399,3800,283,-6206,898,-1337,51,4109,28,25,842
391087,5261092,5621868,5266257,5626705,3380,3800,203,-6718,942,-1284,514,4571,10,23,838
392088,5261164,5621920,5266454,5626902,3436,3800,368,-7147,947,-770,621,6691,10,23,838
393089,5261248,5621988,5266651,5627099,3412,3800,1198,-7487,863,341,839,12938,27,23,837
394090,5261312,5622040,5266848,5627296,3596,3800,1963,-7380,840,236,796,11255,27,23,837
395091,5261412,5622088,5267045,5627493,3415,3800,2075,-7008,982,-352,777,7466,20,23,836
396092,5261496,5622156,5267242,5627690,3566,3800,1805,-6598,1178,-430,868,6941,20,23,836
397093,5261572,5622228,5267439,5627887,3671,3800,1578,-6229,1321,-208,1063,6966,11,27,833
398094,5261680,5622364,5267636,5628084,3511,3800,1612,-5719,1389,213,998,9154,11,27,833
399095,5261780,5622500,5267833,5628281,3605,3800,2035,-4625,1523,1099,183,13082,35,22,835
400084,5261868,5622672,5268030,5628478,3728,3738,2350,-3885,1678,609,331,7882,35,22,835
401085,5261992,5622944,5268227,5628675,3536,3081,2312,-3588,1813,626,481,5962,16,37,834
402086,5262112,5623240,5268424,5628872,3596,2890,2056,-3521,1865,953,907,5430,16,37,834
403099,5262204,5623548,5268621,5629069,3800,2767,1770,-3417,1886,1390,799,5532,40,65,838
404088,5262320,5623940,5268818,5629266,3706,2157,1514,-3143,1939,1838,886,5572,40,65,838
405089,5262440,5624260,5269015,5629463,3716,2554,1295,-2985,1989,2241,1203,4926,31,82,844
406103,5262552,5624584,5269212,5629660,3800,2474,1068,-2819,1987,2533,1491,5143,31,82,844
407090,5262680,5624932,5269409,5629857,3736,2259,748,-2572,1903,2609,1514,5391,42,66,847
408092,5262804,5625264,5269606,5630054,3795,2300,387,-2329,1789,2763,1285,5149,42,66,847
409093,5262944,5625596,5269803,5630251,3721,2241,42,-2049,1642,2880,1327,5171,42,77,846
410106,5263056,5625892,5270000,5630448,3800,2424,-264,-1761,1436,2904,1566,5131,42,77,846
411107,5263184,5626272,5270197,5630645,3800,1819,-527,-1506,1196,3194,1794,4961,22,83,844
412108,5263312,5626684,5270394,5630842,3800,1526,-716,-1376,954,3047,1527,4256,22,83,844
413109,5263440,5627080,5270591,5631039,3800,1539,-787,-1517,664,2709,1461,3457,43,96,846
414110,5263552,5627532,5270788,5631236,3800,1078,-798,-1701,326,2618,1108,3521,43,96,846
415111,5263664,5628104,5270985,5631433,3800,163,-813,-1743,17,2534,512,3897,43,98,850
416113,5263764,5628508,5271182,5631630,3800,1123,-805,-1611,-233,2450,199,4125,43,98,850
417114,5263864,5628988,5271379,5631827,3800,525,-776,-1317,-481,2417,288,4535,26,97,851
418114,5263920,5629412,5271576,5632024,3800,775,-774,-862,-781,2424,765,5009,26,97,851
419115,5263984,5629784,5271773,5632221,3800,1024,-816,-362,-1100,2748,1598,5207,25,88,851
420116,5264044,5630188,5271970,5632418,3800,733,-864,138,-1459,2913,2408,5162,25,88,851
421117,5264100,5630540,5272167,5632615,3800,990,-909,653,-1881,2813,2949,5161,11,86,850
422118,5264176,5630896,5272364,5632812,3800,896,-980,1179,-2293,2957,3146,5266,11,86,850
423119,5264236,5631212,5272561,5633009,3800,1094,-1073,1677,-2629,3391,3263,5139,27,69,851
424120,5264292,5631540,5272758,5633206,3800,963,-1169,2139,-2912,3807,3478,5006,27,69,851
425128,5264348,5631848,5272988,5633436,3800,1053,-1260,2534,-3191,4015,3555,4780,26,61,851
426122,5264420,5632184,5273185,5633633,3800,817,-1368,2817,-3430,4190,3140,4651,26,61,851
427123,5264488,5632468,5273382,5633830,3800,1104,-1491,3126,-3603,4332,2671,4640,13,62,851
428124,5264572,5632720,5273579,5634027,3800,1281,-1621,3460,-3748,4308,2312,4618,13,62,851
429125,5264636,5632972,5273776,5634224,3800,1257,-1768,3853,-3904,4175,1785,4716,27,51,851
430126,5264676,5633228,5273973,5634421,3800,1206,-1928,4272,-4045,3971,1025,4798,27,51,851
431127,5264744,5633504,5274170,5634618,3800,1046,-2098,4697,-4159,3796,449,4797,25,69,850
432128,5264816,5633744,5274367,5634815,3800,1253,-2252,5127,-4286,3625,77,4801,25,69,850
433129,5264900,5634000,5274564,5635012,3800,1127,-2368,5530,-4422,3334,-257,4498,14,52,849
434131,5265000,5634248,5274761,5635209,3800,1155,-2440,5824,-4531,3099,-658,4221,14,52,849
435131,5265112,5634480,5274958,5635406,3800,1239,-2469,6036,-4611,2900,-877,3816,35,52,847
436132,5265264,5634676,5275155,5635603,3800,1465,-2463,6141,-4677,2629,-964,3399,35,52,847
437133,5265412,5634892,5275352,5635800,3800,1333,-2424,6170,-4755,2230,-1146,3125,40,37,851
438134,5265572,5635036,5275549,5635997,3800,1806,-2353,6099,-4843,1858,-1417,2923,40,37,851
439135,5265720,5635180,5275746,5636194,3800,1829,-2255,6051,-4926,1578,-1633,3023,45,46,850
440136,5265876,5635328,5275943,5636391,3800,1826,-2125,6065,-4985,1181,-1711,3089,45,46,850
441137,5266008,5635468,5276140,5636588,3800,1901,-1957,6082,-5008,694,-2035,3005,31,34,848
442138,5266144,5635632,5276337,5636785,3800,1766,-1761,6200,-4978,11,-2596,3338,31,34,848
443139,5266252,5635768,5276534,5636982,3800,1968,-1533,6343,-4893,-954,-3286,3462,25,42,846
444140,5266360,5635900,5276731,5637179,3800,2022,-1256,6534,-4793,-1891,-3977,3568,25,42,846
445141,5266448,5636028,5276928,5637376,3800,2077,-929,6739,-4686,-2768,-4600,3661,13,25,847
446142,5266556,5636168,5277125,5637573,3800,2027,-562,7025,-4593,-3456,-4999,3825,13,25,847
447143,5266632,5636276,5277322,5637770,3800,2267,-177,7250,-4509,-3824,-5100,3551,28,21,844
448144,5266720,5636412,5277519,5637967,3800,2119,189,7414,-4370,-4144,-5035,3354,28,21,844
449145,5266796,5636548,5277716,5638164,3800,2146,512,7468,-4147,-4504,-4859,3302,25,28,846
450146,5266864,5636684,5277913,5638361,3800,2173,790,7533,-3878,-4765,-4586,3414,25,28,846
451147,5266928,5636804,5278110,5638558,3800,2307,1029,7582,-3607,-5004,-4198,3415,25,33,845
452148,5266996,5636956,5278307,5638755,3800,2127,1244,7522,-3335,-4986,-3606,3025,25,33,845
453149,5267056,5637072,5278504,5638952,3800,2389,1436,7275,-3061,-4740,-2911,2594,19,34,845
454150,5267120,5637200,5278701,5639149,3800,2344,1613,6821,-2798,-4457,-2009,2007,19,34,845
455151,5267192,5637340,5278898,5639346,3800,2294,1787,6086,-2526,-3994,-1230,1329,27,35,844
456152,5267232,5637456,5279095,5639543,3800,2481,1948,5149,-2216,-3514,-614,876,27,35,844
457153,5267288,5637580,5279292,5639740,3800,2463,2084,4105,-1874,-3194,35,739,18,35,844
458154,5267344,5637684,5279489,5639937,3800,2630,2164,3091,-1536,-2976,448,897,18,35,844
459155,5267388,5637808,5279686,5640134,3800,2537,2196,2104,-1219,-2731,759,1094,24,31,843
460156,5267448,5637920,5279883,5640331,3800,2649,2182,1187,-908,-2421,816,1411,24,31,843
461157,5267484,5638052,5280080,5640528,3800,2554,2124,365,-584,-2139,665,1715,26,40,842
462158,5267500,5638180,5280277,5640725,3800,2609,2022,-397,-247,-1945,630,2099,26,40,842
463159,5267512,5638304,5280474,5640922,3800,2667,1881,-1047,94,-1820,679,2526,-1,32,840
464160,5267520,5638456,5280671,5641119,3800,2512,1719,-1619,426,-1742,676,2793,-1,32,840
465161,5267508,5638596,5280868,5641316,3800,2613,1525,-2084,748,-1650,541,3216,5,29,841
466162,5267508,5638708,5281065,5641513,3800,2825,1318,-2427,1069,-1609,441,3661,5,29,841
467163,5267516,5638832,5281262,5641710,3800,2783,1103,-2709,1404,-1510,454,3758,14,27,841
468164,5267500,5638960,5281459,5641907,3800,2789,879,-2947,1778,-1309,487,3995,14,27,841
469165,5267516,5639100,5281656,5642104,3800,2740,672,-3148,2184,-1108,465,4045,13,33,840
470166,5267504,5639272,5281853,5642301,3800,2552,476,-3375,2559,-962,643,3991,13,33,840
471167,5267508,5639420,5282050,5642498,3800,2723,275,-3619,2861,-963,1002,3735,14,37,841
472168,5267504,5639568,5282247,5642695,3800,2746,53,-3990,3077,-972,1355,3226,14,37,841
473169,5267512,5639732,5282444,5642892,3800,2660,-190,-4434,3213,-951,1331,3006,2,34,842
474170,5267504,5639872,5282641,5643089,3800,2836,-450,-4861,3328,-982,1028,2966,2,34,842
475171,5267516,5640036,5282838,5643286,3800,2702,-704,-5244,3480,-956,500,3030,14,37,841
476172,5267508,5640164,5283035,5643483,3800,2957,-930,-5622,3667,-838,29,2898,14,37,841
477173,5267512,5640312,5283232,5643680,3800,2855,-1102,-6024,3865,-837,-382,2730,0,42,839
478174,5267512,5640444,5283429,5643877,3800,2983,-1253,-6449,4019,-821,-627,2545,0,42,839
479175,5267516,5640592,5283626,5644074,3800,2906,-1381,-6940,4098,-789,-633,2271,11,38,839
480176,5267512,5640756,5283823,5644271,3800,2821,-1472,-7432,4102,-740,-676,2199,11,38,839
481177,5267512,5640956,5284020,5644468,3800,2595,-1531,-7861,4053,-699,-944,2430,12,45,840
482179,5267508,5641140,5284217,5644665,3800,2702,-1604,-8040,3973,-544,-1261,3220,12,45,840
483179,5267508,5641328,5284414,5644862,3800,2682,-1706,-8005,3846,-445,-1160,3844,7,34,840
484181,5267524,5641480,5284611,5645059,3800,2926,-1864,-7666,3642,-168,-751,4677,7,34,840
485181,5267524,5641660,5284808,5645256,3800,2760,-2024,-7286,3378,308,-717,4548,5,32,841
486182,5267532,5641864,5285005,5645453,3800,2608,-2156,-6911,3096,639,-1092,4676,5,32,841
487183,5267516,5642028,5285202,5645650,3800,2872,-2279,-6540,2848,1001,-1569,4732,3,46,839
488184,5267524,5642180,5285399,5645847,3800,2968,-2433,-6121,2628,1425,-1372,4838,3,46,839
489185,5267536,5642348,5285596,5646044,3800,2882,-2555,-5820,2433,1755,-1130,4347,2,38,840
490186,5267532,5642504,5285793,5646241,3800,2976,-2592,-5674,2215,2050,-858,3882,2,38,840
491187,5267548,5642660,5285990,5646438,3800,2994,-2550,-5609,1944,2444,-575,3764,10,45,839
492188,5267544,5642808,5286187,5646635,3800,3066,-2446,-5583,1637,2687,-297,3481,10,45,839
493189,5267544,5642956,5286384,5646832,3800,3089,-2293,-5627,1328,2892,-236,3229,1,42,839
494190,5267560,5643112,5286581,5647029,3800,3057,-2075,-5749,1068,2953,-535,2931,1,42,839
495191,5267560,5643268,5286778,5647226,3800,3076,-1831,-5839,858,3107,-719,3237,6,28,839
496192,5267576,5643424,5286975,5647423,3800,3095,-1606,-5733,674,3247,-672,3839,6,28,839
497193,5267576,5643592,5287172,5647620,3800,3034,-1394,-5505,490,3237,-354,4030,16,42,839
498195,5267592,5643724,5287369,5647817,3800,3287,-1182,-5171,310,3245,-73,4376,16,42,839
499195,5267616,5643860,5287566,5648014,3800,3290,-983,-4643,131,3219,120,5111,-4,40,837
500196,5267628,5644024,5287763,5648211,3800,3130,-795,-3941,-47,3200,329,5667,-4,40,837
501197,5267664,5644144,5287960,5648408,3800,3440,-630,-3063,-191,3133,334,6173,9,29,837
502198,5267688,5644296,5288157,5648605,3800,3261,-491,-2090,-287,3011,237,6598,9,29,837
503199,5267716,5644436,5288354,5648802,3800,3361,-392,-982,-332,2971,155,7194,21,31,838
504200,5267752,5644576,5288551,5648999,3800,3387,-325,208,-352,2846,138,7372,21,31,838
505201,5267796,5644724,5288748,5649196,3800,3360,-266,1398,-372,2624,143,7299,21,41,837
506203,5267812,5644872,5288945,5649393,3800,3382,-211,2530,-421,2283,-53,7319,21,41,837
507203,5267824,5645012,5289142,5649590,3800,3458,-144,3557,-471,2213,0,6959,-2,41,835
508211,5267848,5645160,5289372,5649820,3800,3445,-60,4420,-479,2085,-88,6648,-2,41,835
509205,5267852,5645284,5289569,5650017,3800,3628,30,5161,-436,2081,-55,6384,3,22,836
510206,5267872,5645400,5289766,5650214,3800,3715,127,5772,-385,2012,108,5920,3,22,836
511220,5267892,5645492,5289963,5650411,3800,3800,252,6203,-356,1840,394,5271,1,25,834
512221,5267924,5645576,5290160,5650608,3800,3800,381,6479,-340,1742,564,5018,1,25,834
513222,5267940,5645688,5290357,5650805,3800,3800,494,6619,-312,1634,583,4632,19,32,834
514223,5268004,5645812,5290554,5651002,3800,3800,611,6603,-284,1251,585,4162,19,32,834
515224,5268056,5645912,5290751,5651199,3800,3800,750,6434,-287,665,502,3744,11,15,833
516225,5268120,5646020,5290948,5651396,3800,3800,885,6180,-326,209,404,3630,11,15,833
517226,5268204,5646092,5291145,5651593,3800,3800,992,5971,-383,-157,352,3712,29,26,834
518227,5268292,5646164,5291342,5651790,3800,3800,1069,5772,-461,-508,225,3652,29,26,834
519228,5268372,5646248,5291539,5651987,3800,3800,1109,5567,-547,-793,48,3765,10,11,834
520229,5268464,5646332,5291736,5652184,3800,3800,1126,5304,-630,-1089,-35,3603,10,11,834
521230,5268572,5646412,5291933,5652381,3800,3800,1102,5006,-687,-1261,-161,3743,13,24,832
522231,5268656,5646464,5292130,5652578,3800,3800,1046,4750,-714,-1483,-338,3768,13,24,832
523232,5268736,5646528,5292327,5652775,3800,3800,994,4398,-737,-1724,-404,3412,32,10,833
524233,5268844,5646596,5292524,5652972,3800,3800,956,3999,-763,-1804,-448,3254,32,10,833
525234,5268904,5646680,5292721,5653169,3800,3800,932,3502,-775,-1953,-454,2984,24,18,833
526235,5268960,5646756,5292918,5653366,3800,3800,924,2891,-769,-2046,-513,2600,24,18,833
527236,5269028,5646816,5293115,5653563,3800,3800,924,2159,-766,-2013,-370,2421,7,9,833
528237,5269096,5646876,5293312,5653760,3800,3800,917,1411,-766,-1981,-220,2345,7,9,833
529238,5269156,5646936,5293509,5653957,3800,3800,891,714,-746,-1880,-168,2573,8,24,833
530239,5269248,5647012,5293706,5654154,3800,3800,845,145,-678,-1753,-194,2879,8,24,833
531240,5269300,5647068,5293903,5654351,3800,3800,783,-360,-565,-1520,-29,3079,7,23,832
532241,5269376,5647112,5294100,5654548,3800,3800,713,-795,-436,-1264,260,3232,7,23,832
533242,5269480,5647188,5294297,5654745,3800,3800,643,-1263,-325,-1183,451,3170,9,25,833
534243,5269568,5647228,5294494,5654942,3800,3800,581,-1772,-251,-1165,525,3154,9,25,833
535244,5269648,5647292,5294691,5655139,3800,3800,539,-2281,-207,-1107,560,3028,25,24,833
536245,5269740,5647348,5294888,5655336,3800,3800,513,-2757,-169,-1036,547,3029,25,24,833
537246,5269840,5647376,5295085,5655533,3800,3800,480,-3107,-120,-976,310,3404,15,5,833
538247,5269920,5647400,5295282,5655730,3800,3800,426,-3354,-50,-886,67,3707,15,5,833
539248,5270000,5647412,5295479,5655927,3800,3800,348,-3457,46,-687,12,4108,30,7,833
540249,5270112,5647444,5295676,5656124,3800,3800,245,-3478,150,-460,193,4339,30,7,833
541250,5270192,5647456,5295873,5656321,3800,3800,136,-3491,220,-246,575,4175,17,17,833
542251,5270268,5647488,5296070,5656518,3800,3800,52,-3541,261,-44,846,4013,17,17,833
543252,5270368,5647532,5296267,5656715,3800,3800,-2,-3539,301,122,925,4096,9,13,832
544253,5270460,5647584,5296464,5656912,3800,3800,-51,-3488,359,235,741,4290,9,13,832
545254,5270540,5647632,5296661,5657109,3800,3800,-115,-3346,446,334,507,4424,31,6,833
546255,5270644,5647708,5296858,5657306,3800,3800,-177,-3225,539,354,467,4315,31,6,833
547256,5270724,5647772,5297055,5657503,3800,3800,-208,-3125,592,355,546,4076,10,13,832
548257,5270832,5647852,5297252,5657700,3800,3800,-210,-3090,626,389,435,3940,10,13,832
549258,5270940,5647912,5297449,5657897,3800,3800,-212,-2998,677,493,237,3994,21,12,833
550259,5271052,5648000,5297646,5658094,3800,3800,-216,-2844,751,566,60,4057,21,12,833
551260,5271176,5648064,5297843,5658291,3800,3800,-216,-2672,822,546,-61,4060,16,12,833
552261,5271300,5648172,5298040,5658488,3800,3800,-220,-2502,887,609,-238,4113,16,12,833
553262,5271408,5648256,5298237,5658685,3800,3800,-219,-2322,950,643,-430,4036,16,13,830
554263,5271532,5648348,5298434,5658882,3800,3800,-201,-2155,986,544,-507,3880,16,13,830
555264,5271632,5648456,5298631,5659079,3800,3800,-193,-1922,946,491,-334,4132,17,18,833
556265,5271748,5648548,5298828,5659276,3800,3800,-213,-1623,893,590,-538,4246,17,18,833
557266,5271856,5648660,5299025,5659473,3800,3800,-234,-1294,856,691,-727,4236,15,20,834
558267,5271960,5648792,5299222,5659670,3800,3800,-239,-1001,819,715,-714,4111,15,20,834
559268,5272052,5648904,5299419,5659867,3800,3800,-238,-753,760,806,-582,4208,13,18,834
560269,5272160,5649020,5299616,5660064,3800,3800,-237,-490,672,882,-421,4093,13,18,834
561270,5272256,5649132,5299813,5660261,3800,3800,-215,-322,565,897,-287,3727,17,25,834
562271,5272360,5649220,5300010,5660458,3800,3800,-159,-213,439,1006,-105,3496,17,25,834
563271,5272444,5649340,5300207,5660655,3800,3800,-78,-156,309,1073,-3,3434,14,24,834
564273,5272568,5649432,5300404,5660852,3800,3800,19,-132,190,1123,82,3300,14,24,834
565274,5272664,5649536,5300601,5661049,3800,3800,124,-151,95,1162,38,3294,33,18,830
566275,5272764,5649648,5300798,5661246,3800,3800,226,-150,23,1211,190,3370,33,18,830
567276,5272864,5649756,5300995,5661443,3800,3800,321,-126,-37,1287,481,3474,12,18,833
568277,5272968,5649872,5301192,5661640,3800,3800,406,-42,-91,1278,616,3536,12,18,833
569278,5273076,5649976,5301389,5661837,3800,3800,469,109,-136,1136,560,3878,11,22,834
570279,5273184,5650108,5301586,5662034,3800,3800,499,381,-165,1006,596,4274,11,22,834
571280,5273312,5650208,5301783,5662231,3800,3800,497,721,-167,877,566,4579,17,21,834
572281,5273452,5650304,5301980,5662428,3800,3800,466,1119,-147,810,599,4812,17,21,834
573282,5273592,5650404,5302177,5662625,3800,3800,423,1520,-121,746,823,4781,21,20,834
574283,5273760,5650524,5302374,5662822,3800,3800,387,1872,-104,652,1129,4629,21,20,834
575284,5273928,5650612,5302571,5663019,3800,3800,345,2159,-91,649,1333,4482,44,17,833
576285,5274092,5650740,5302768,5663216,3800,3800,294,2398,-74,680,1468,4438,44,17,833
577286,5274256,5650912,5302965,5663413,3800,3800,247,2562,-59,495,1604,4201,26,37,831
578287,5274400,5651092,5303162,5663610,3800,3800,205,2592,-56,369,1626,3965,26,37,831
579288,5274560,5651272,5303359,5663807,3800,3800,145,2625,-59,239,1377,4014,40,37,835
580289,5274716,5651524,5303556,5664004,3800,3800,54,2634,-70,39,917,3985,40,37,835
581290,5274836,5651824,5303753,5664201,3800,3800,-62,2725,-75,-210,249,4122,34,51,836
582291,5274980,5652108,5303950,5664398,3800,3800,-195,2764,-70,-465,-223,4056,34,51,836
583292,5275104,5652368,5304147,5664595,3800,3800,-320,2735,-61,-476,-365,3910,21,63,836
584293,5275244,5652648,5304344,5664792,3800,3800,-425,2585,-53,-510,-386,3577,21,63,836
585294,5275376,5653008,5304541,5664989,3800,3800,-484,2326,-48,-668,-443,3241,27,62,836
586295,5275500,5653332,5304738,5665186,3800,3800,-544,2011,-28,-680,-641,3280,27,62,836
587296,5275636,5653660,5304935,5665383,3800,3800,-596,1671,18,-631,-673,3000,21,59,832
588297,5275756,5653972,5305132,5665580,3800,3800,-595,1221,70,-706,-615,2744,21,59,832
589298,5275860,5654368,5305329,5665777,3800,3800,-517,241,148,-1069,-618,2834,41,66,836
590299,5276000,5654772,5305526,5665974,3800,3800,-492,-190,203,-1158,-502,3189,41,66,836
591309,5276120,5655216,5305756,5666204,3800,3800,-498,-451,241,-1247,-282,3537,33,73,836
592301,5276232,5655632,5305953,5666401,3800,3800,-489,-703,223,-1455,215,3409,33,73,836
593289,5276380,5656172,5306150,5666598,3800,3680,-455,-914,167,-1580,905,3662,20,86,837
594303,5276480,5656628,5306347,5666795,3800,3800,-454,-1038,142,-1434,1504,4096,20,86,837
595291,5276620,5657192,5306544,5666992,3800,3259,-462,-1133,143,-1267,1988,3912,38,93,837
596292,5276760,5657796,5306741,5667189,3800,2832,-451,-1280,116,-1367,2246,3930,38,93,837
597293,5276868,5658364,5306938,5667386,3800,2896,-452,-1324,76,-1437,2145,4223,41,116,836
598294,5276988,5659000,5307135,5667583,3800,2279,-451,-1391,91,-1316,1944,3930,41,116,836
599295,5277128,5659560,5307332,5667780,3800,2597,-441,-1451,164,-1427,1239,4097,28,125,842
600296,5277264,5660284,5307529,5667977,3800,1342,-422,-1461,268,-1250,719,4147,28,125,842
601297,5277428,5660928,5307726,5668174,3800,1647,-336,-1600,364,-1161,418,3572,50,116,847
602298,5277592,5661676,5307923,5668371,3800,756,-205,-1754,451,-874,13,3804,50,116,847
603299,5277796,5662252,5308120,5668568,3800,1666,-59,-1809,533,-425,-197,3834,51,128,850
604300,5278004,5662868,5308317,5668765,3800,1233,127,-1945,607,-140,-307,3466,51,128,850
605301,5278208,5663472,5308514,5668962,3800,1130,332,-1984,643,287,-227,3747,38,112,853
606302,5278452,5664052,5308711,5669159,3800,1113,564,-2061,629,517,-216,3428,38,112,853
607303,5278652,5664772,5308908,5669356,3800,9,815,-2099,561,894,-296,3494,39,117,851
608304,5278884,5665296,5309105,5669553,3800,1091,1094,-2143,449,1213,-499,3381,39,117,851
609305,5279216,5665844,5309302,5669750,3800,788,1401,-2158,330,1398,-1207,3598,63,102,851
610306,5279516,5666344,5309499,5669947,3800,956,1698,-1964,216,1723,-1888,3999,63,102,851
611307,5279868,5666824,5309696,5670144,3800,956,1973,-1684,108,1994,-2305,4037,55,101,853
612308,5280284,5667360,5309893,5670341,3800,459,2206,-1274,11,2329,-2787,4405,55,101,853
613309,5280664,5667864,5310090,5670538,3800,524,2399,-786,-103,2504,-3137,4329,84,90,854
614310,5281088,5668328,5310287,5670735,3800,657,2557,-330,-255,2639,-3243,4170,84,90,854
615311,5281600,5668752,5310484,5670932,3800,808,2692,127,-441,2928,-2984,4023,78,85,856
616312,5282068,5669120,5310681,5671129,3800,1083,2823,443,-664,3093,-2701,3520,78,85,856
617313,5282540,5669444,5310878,5671326,3800,1303,2993,716,-931,3062,-2375,3215,87,67,856
618314,5283144,5669728,5311075,5671523,3800,1515,3184,986,-1253,2902,-1895,2837,87,67,856
619315,5283672,5670024,5311272,5671720,3800,1397,3344,1263,-1579,2960,-1587,3012,96,65,853
620316,5284236,5670284,5311469,5671917,3800,1594,3401,1647,-1853,2951,-1406,3338,96,65,853
621317,5284820,5670508,5311666,5672114,3800,1807,3460,2043,-2117,2503,-1021,3005,116,49,852
622318,5285412,5670692,5311863,5672311,3800,2064,3461,2410,-2429,1902,-773,3139,116,49,852
623319,5286040,5670884,5312060,5672508,3800,2016,3493,2880,-2809,1105,-680,3156,107,53,853
624320,5286628,5671060,5312257,5672705,3800,2125,3455,3242,-3225,380,-652,2665,107,53,853
625321,5287320,5671204,5312454,5672902,3800,2350,3486,3630,-3652,-231,-695,2483,132,37,851
626322,5287980,5671368,5312651,5673099,3800,2239,3419,3912,-4046,-802,-806,2518,132,37,851
627323,5288664,5671504,5312848,5673296,3800,2441,3336,4184,-4388,-1346,-937,2343,138,47,851
628324,5289420,5671664,5313045,5673493,3800,2308,3232,4375,-4651,-1927,-1193,1894,138,47,851
629325,5290148,5671804,5313242,5673690,3800,2458,3133,4404,-4855,-2518,-1129,1536,138,46,851
630326,5290868,5671972,5313439,5673887,3800,2296,3044,4381,-4988,-2857,-832,1403,138,46,851
631327,5291600,5672140,5313636,5674084,3800,2310,2902,4157,-5072,-2943,-281,800,147,41,850
632328,5292312,5672268,5313833,5674281,3800,2590,2763,3677,-5072,-3039,102,-140,147,41,850
633329,5292984,5672404,5314030,5674478,3800,2568,2587,2960,-4906,-3248,29,-139,145,52,851
634330,5293720,5672588,5314227,5674675,3800,2274,2378,2320,-4507,-3399,-222,327,145,52,851
635331,5294296,5672776,5314424,5674872,3800,2253,2081,1770,-3945,-3156,-242,565,122,48,850
636332,5294848,5672952,5314621,5675069,3800,2338,1775,1174,-3339,-2642,-244,480,122,48,850
637333,5295384,5673132,5314818,5675266,3800,2320,1434,405,-2721,-1685,-293,186,127,32,850
638334,5295824,5673268,5315015,5675463,3800,2623,1115,-764,-2154,-1084,-525,-639,127,32,850
639335,5296236,5673436,5315212,5675660,3800,2436,294,-1248,-1398,105,-2153,2860,106,33,849
640336,5296616,5673588,5315409,5675857,3800,2556,-2073,39,42,1397,-7032,8602,106,33,849
641337,5296912,5673736,5315606,5676054,3800,2603,-4937,1183,1785,1344,-9430,4984,85,45,844
642338,5297172,5673884,5315803,5676251,3800,2625,-6607,854,3122,1339,-7071,374,85,45,844
643339,5297408,5674004,5316000,5676448,3800,2835,-6736,-2128,3396,1066,-3239,-5687,63,33,844
644340,5297696,5674140,5316197,5676645,3800,2761,-6057,-5853,2886,1705,-1598,-6371,63,33,844
645341,5297940,5674252,5316394,5676842,3800,2950,-5564,-9436,2499,1801,-1761,-6169,41,31,843
646342,5298208,5674380,5316591,5677039,3800,2880,-5686,-11942,2409,2527,-2701,-2005,41,31,843
647343,5298484,5674504,5316788,5677236,3800,2938,-6378,-12436,2551,2942,-4327,3501,73,23,843
648344,5298744,5674644,5316985,5677433,3800,2863,-7011,-12373,2898,2259,-5004,4726,73,23,843
649345,5299028,5674792,5317182,5677630,3800,2836,-7368,-11824,3190,2510,-4608,6837,45,40,842
650346,5299328,5674924,5317379,5677827,3800,2964,-7561,-11273,3239,2182,-2763,6870,45,40,842
651347,5299596,5675068,5317576,5678024,3800,2914,-7616,-10570,2997,1176,-1225,8136,71,34,843
652348,5299840,5675196,5317773,5678221,3800,3044,-7644,-9709,2495,372,-1481,8230,71,34,843
653349,5300092,5675344,5317970,5678418,3800,2941,-7359,-9300,1846,-452,-1522,6706,55,24,840
654350,5300344,5675472,5318167,5678615,3800,3098,-6186,-7669,1140,1854,41,18991,55,24,840
655351,5300588,5675624,5318364,5678812,3800,2967,-1254,1194,-548,14995,7230,32767,51,30,841
656352,5300784,5675808,5318561,5679009,3800,2774,3602,9159,-1871,5989,1376,32767,51,30,841
657353,5300908,5675968,5318758,5679206,3800,2940,4797,11132,-2095,1067,198,7677,48,45,841
658354,5300964,5676172,5318955,5679403,3800,2663,4235,9413,-1931,1827,782,3472,48,45,841
659355,5300992,5676320,5319152,5679600,3800,3036,3652,7037,-1900,2227,522,1894,22,45,840
660356,5301016,5676468,5319349,5679797,3800,3057,3697,5425,-1940,1948,890,646,22,45,840
661357,5301028,5676604,5319546,5679994,3800,3160,3885,3422,-1883,2418,499,-1171,19,49,841
662359,5301044,5676776,5319743,5680191,3800,2946,3926,1840,-1696,3097,-332,33,19,49,841
663359,5301052,5676940,5319940,5680388,3800,3012,3812,-64,-1365,2177,-644,-1355,18,28,837
664360,5301072,5677120,5320137,5680585,3800,2920,3761,-2291,-1072,1841,-882,-2164,18,28,837
665361,5301080,5677280,5320334,5680782,3800,3061,3709,-4431,-897,1883,-865,-2084,10,38,837
666362,5301068,5677492,5320531,5680979,3800,2731,3641,-6476,-698,1405,-881,-1479,10,38,837
667363,5301068,5677676,5320728,5681176,3800,2913,3341,-7561,-509,1430,-1188,1564,10,30,839
668364,5301072,5677808,5320925,5681373,3800,3266,2835,-7983,-244,1147,-2019,2927,10,30,839
669365,5301076,5677912,5321122,5681570,3800,3483,2266,-7736,71,685,-2028,5146,11,47,840
670366,5301076,5678084,5321319,5681767,3800,3070,1703,-6836,398,629,-2674,6503,11,47,840
671367,5301068,5678212,5321516,5681964,3800,3375,1298,-6228,697,328,-2443,5391,13,43,835
672369,5301068,5678348,5321713,5682161,3800,3353,996,-5421,927,-253,-1979,6670,13,43,835
673369,5301068,5678556,5321910,5682358,3800,2899,706,-4509,922,-724,-832,6432,12,41,837
674377,5301080,5678736,5322140,5682588,3800,3097,423,-3747,711,-813,41,5933,12,41,837
675371,5301076,5678920,5322337,5682785,3800,3078,215,-2856,514,-741,458,6000,-3,39,835
676372,5301072,5679060,5322534,5682982,3800,3379,84,-2189,467,-445,366,5311,-3,39,835
677373,5301076,5679200,5322731,5683179,3800,3405,-40,-1405,515,-83,302,5725,16,39,838
678374,5301064,5679356,5322928,5683376,3800,3324,-160,-675,635,-167,118,5420,16,39,838
679375,5301072,5679512,5323125,5683573,3800,3342,-277,-100,760,133,37,4913,-6,39,836
680376,5301064,5679632,5323322,5683770,3800,3602,-380,386,847,467,285,4510,-6,39,836
681377,5301072,5679828,5323519,5683967,3800,3128,-451,653,978,551,434,3960,-3,24,836
682378,5301064,5680012,5323716,5684164,3800,3210,-497,820,1143,969,283,3648,-3,24,836
683379,5301060,5680204,5323913,5684361,3800,3163,-457,731,1288,1042,187,2629,11,31,834
684380,5301076,5680360,5324110,5684558,3800,3406,-326,454,1414,1100,103,2411,11,31,834
685381,5301064,5680520,5324307,5684755,3800,3399,-154,197,1531,1517,-89,2374,13,50,836
686382,5301068,5680660,5324504,5684952,3800,3550,22,-178,1615,1598,-53,2142,13,50,836
687383,5301076,5680804,5324701,5685149,3800,3549,189,-401,1655,1599,-128,2622,3,42,835
688384,5301064,5680960,5324898,5685346,3800,3493,343,-600,1660,1587,-380,2343,3,42,835
689385,5301064,5681168,5325095,5685543,3800,3163,497,-837,1661,1466,-639,2370,1,30,834
690386,5301068,5681384,5325292,5685740,3800,3106,661,-1016,1667,1161,-653,2538,1,30,834
691387,5301064,5681552,5325489,5685937,3800,3420,849,-1235,1638,901,-691,2372,9,39,835
692388,5301064,5681720,5325686,5686134,3800,3433,1022,-1294,1579,737,-692,2978,9,39,835
693389,5301056,5681900,5325883,5686331,3800,3367,1173,-1210,1523,372,-774,3340,7,45,837
694390,5301052,5682068,5326080,5686528,3800,3455,1283,-926,1454,172,-986,3820,7,45,837
695391,5301068,5682248,5326277,5686725,3800,3388,1343,-449,1400,-5,-1108,4323,-1,28,835
696392,5301064,5682464,5326474,5686922,3800,3156,1361,64,1394,-277,-1118,4564,-1,28,835
697393,5301072,5682688,5326671,5687119,3800,3095,1312,632,1370,-258,-974,4766,-3,37,834
698394,5301060,5682900,5326868,5687316,3800,3164,1232,1110,1317,-191,-681,4392,-3,37,834
699395,5301060,5683116,5327065,5687513,3800,3132,1142,1513,1279,68,-535,4338,16,56,837
700396,5301064,5683412,5327262,5687710,3800,2589,1048,1873,1260,244,-483,4085,16,56,837
701397,5301060,5683648,5327459,5687907,3800,2947,963,2045,1247,242,-507,3774,13,56,837
702398,5301052,5683916,5327656,5688104,3800,2717,871,2189,1244,409,-430,3621,13,56,837
703399,5301052,5684160,5327853,5688301,3800,2847,778,2106,1243,652,-331,2854,0,44,841
704400,5301052,5684428,5328050,5688498,3800,2667,669,1829,1266,987,-276,2503,0,44,841
705401,5301056,5684720,5328247,5688695,3800,2476,529,1498,1329,1172,-300,2361,14,49,841
706402,5301040,5685004,5328444,5688892,3800,2488,360,1091,1418,1290,-295,2167,14,49,841
707403,5301052,5685316,5328641,5689089,3800,2264,178,691,1527,1437,-139,2136,10,54,840
708404,5301044,5685600,5328838,5689286,3800,2401,-2,208,1633,1411,54,1978,10,54,840
709405,5301044,5685856,5329035,5689483,3800,2551,-184,-288,1727,1469,181,2128,16,53,840
710406,5301044,5686160,5329232,5689680,3800,2204,-365,-719,1804,1398,321,2240,16,53,840
711407,5301040,5686532,5329429,5689877,3800,1703,-547,-1094,1877,1208,278,2473,8,56,842
712408,5301048,5686844,5329626,5690074,3800,2029,-737,-1357,1922,1023,380,2910,8,56,842
713409,5301028,5687212,5329823,5690271,3800,1604,-926,-1507,1912,763,614,3172,-4,77,843
714410,5301048,5687444,5330020,5690468,3800,2439,-1077,-1620,1859,593,538,3357,-4,77,843
715411,5301048,5687652,5330217,5690665,3800,2585,-1183,-1623,1772,292,266,3767,-1,57,844
716412,5301036,5687880,5330414,5690862,3800,2447,-1286,-1462,1699,59,15,4491,-1,57,844
717413,5301036,5688164,5330611,5691059,3800,2059,-1391,-1122,1665,-30,-2,4940,15,50,842
718414,5301036,5688468,5330808,5691256,3800,1888,-1452,-798,1653,-23,-39,4738,15,50,842
719415,5301032,5688848,5331005,5691453,3800,1333,-1445,-536,1606,36,242,4546,13,67,841
720416,5301044,5689108,5331202,5691650,3800,2056,-1381,-468,1513,114,480,4116,13,67,841
721417,5301028,5689520,5331399,5691847,3800,1012,-1248,-542,1398,102,550,3719,17,66,845
722418,5301044,5689888,5331596,5692044,3800,1212,-1060,-666,1293,-192,439,3661,17,66,845
723419,5301028,5690232,5331793,5692241,3800,1297,-842,-813,1221,-276,234,3621,-4,69,844
724420,5301040,5690616,5331990,5692438,3800,966,-631,-856,1215,-61,26,3995,-4,69,844
725421,5301056,5690948,5332187,5692635,3800,1232,-422,-779,1266,80,-272,4305,15,74,847
726422,5301072,5691260,5332384,5692832,3800,1306,-234,-563,1340,26,-831,4781,15,74,847
727423,5301100,5691668,5332581,5693029,3800,615,-64,-305,1394,-37,-1067,4831,11,73,848
728425,5301152,5692052,5332778,5693226,3800,682,118,-94,1415,45,-1004,4652,11,73,848
729426,5301196,5692448,5332975,5693423,3800,520,339,51,1418,221,-754,4432,11,75,847
730426,5301280,5692836,5333172,5693620,3800,486,570,160,1414,174,-678,4413,11,75,847
731427,5301412,5693172,5333369,5693817,3800,751,781,289,1417,196,-602,4535,29,85,849
732428,5301620,5693572,5333566,5694014,3800,262,977,455,1431,254,-448,4477,29,85,849
733429,5301788,5693956,5333763,5694211,3800,280,1175,580,1447,322,-163,4316,43,73,851
734430,5302012,5694292,5333960,5694408,3800,518,1352,769,1471,90,-94,4608,43,73,851
735431,5302208,5694636,5334157,5694605,3800,404,1499,1003,1526,-74,132,4806,44,71,854
736432,5302360,5694964,5334354,5694802,3800,446,1626,1201,1593,83,416,4632,44,71,854
737433,5302540,5695336,5334551,5694999,3800,94,1740,1391,1648,555,760,4574,39,73,853
738434,5302772,5695696,5334748,5695196,3800,98,1804,1646,1666,1000,1309,4422,39,73,853
739435,5303040,5695924,5334945,5695393,3800,909,1861,1736,1644,1220,1478,3996,43,56,853
740436,5303328,5696052,5335142,5695590,3800,1564,1885,1824,1642,1002,779,4264,43,56,853
741437,5303644,5696228,5335339,5695787,3800,1273,1903,2050,1717,434,259,4526,68,58,854
742438,5303936,5696448,5335536,5695984,3800,988,1923,2184,1811,362,593,4182,68,58,854
743439,5304268,5696668,5335733,5696181,3800,977,1931,2215,1864,891,886,3948,54,50,849
744440,5304604,5696896,5335930,5696378,3800,914,1853,2449,1906,1519,1076,4256,54,50,849
745441,5304916,5697116,5336127,5696575,3800,954,1739,2648,1955,1681,1404,3755,77,56,852
746442,5305268,5697320,5336324,5696772,3800,1051,1626,2716,2002,1226,782,3749,77,56,852
747443,5305716,5697520,5336521,5696969,3800,1074,1486,2888,2026,470,404,4225,74,52,853
748444,5306032,5697724,5336718,5697166,3800,1046,1251,3224,1966,147,796,4764,74,52,853
749445,5306440,5697916,5336915,5697363,3800,1123,935,3811,1835,631,1949,4778,84,42,852
750446,5306928,5698092,5337112,5697560,3800,1233,566,4021,1682,1210,2743,3734,84,42,852
751447,5307384,5698228,5337309,5697757,3800,1509,199,4178,1541,1598,2500,4009,89,46,852
752448,5307844,5698392,5337506,5697954,3800,1348,-201,4324,1469,1668,2475,3626,89,46,852
753449,5308420,5698568,5337703,5698151,3800,1282,-536,4339,1398,1561,3110,2625,109,47,852
754450,5308880,5698724,5337900,5698348,3800,1425,-945,4092,1273,1462,2840,2757,109,47,852
755451,5309452,5698884,5338097,5698545,3800,1417,-1398,4096,1183,1181,2435,3347,111,50,854
756452,5309976,5699048,5338294,5698742,3800,1406,-1840,4123,1099,1206,2805,2965,111,50,854
757460,5310624,5699216,5338524,5698972,3800,1408,-2176,4009,1005,1253,2303,2421,115,48,853
758454,5311228,5699348,5338721,5699169,3800,1662,-2569,4038,983,1056,1743,3422,115,48,853
759455,5311840,5699468,5338918,5699366,3800,1771,-2851,4026,986,1023,1681,2321,105,47,854
760456,5312660,5699604,5339115,5699563,3800,1697,-3132,3571,957,1218,961,1635,105,47,854
761457,5313424,5699736,5339312,5699760,3800,1751,-3281,3389,917,924,777,2147,129,28,853
762458,5314208,5699836,5339509,5699957,3800,1994,-3434,2961,885,782,385,1575,129,28,853
763459,5315088,5699928,5339706,5700154,3800,2090,-3507,2830,825,861,-249,2392,135,30,851
764460,5315980,5700020,5339903,5700351,3800,2136,-3589,2777,805,334,-558,2528,135,30,851
765461,5316884,5700124,5340100,5700548,3800,2102,-3579,2788,753,458,-529,2487,146,35,853
766462,5317884,5700224,5340297,5700745,3800,2169,-3609,2749,593,860,-92,2390,146,35,853
767463,5318792,5700316,5340494,5700942,3800,2266,-3568,2555,369,785,305,1971,165,21,853
768465,5319684,5700412,5340691,5701139,3800,2285,-3547,2447,111,939,395,2222,165,21,853
769465,5320720,5700492,5340888,5701336,3800,2436,-3516,2328,-107,1065,691,2167,160,41,852
770466,5321672,5700584,5341085,5701533,3800,2409,-3497,2316,-221,1454,1201,2708,160,41,852
771467,5322600,5700692,5341282,5701730,3800,2348,-3526,2396,-355,2272,1617,2842,201,28,853
772468,5323672,5700808,5341479,5701927,3800,2333,-3582,2313,-562,2467,1186,2351,201,28,853
773469,5324416,5700916,5341676,5702124,3800,2422,-3718,2498,-841,1685,247,3639,166,43,851
774470,5325228,5701036,5341873,5702321,3800,2381,-3839,2519,-1197,1206,-379,2842,166,43,851
775471,5326096,5701164,5342070,5702518,3800,2363,-3971,2331,-1553,1628,-1453,3123,187,47,851
776472,5326856,5701296,5342267,5702715,3800,2366,-4059,2487,-1798,1705,-2238,3607,187,47,851
777473,5327572,5701444,5342464,5702912,3800,2288,-4071,2259,-1935,1478,-3314,2662,155,39,851
778474,5328236,5701544,5342661,5703109,3800,2630,-3959,2219,-2039,1844,-4656,3804,155,39,851
779475,5328944,5701644,5342858,5703306,3800,2674,-3704,2436,-1954,1871,-6235,4480,160,33,851
780476,5329576,5701748,5343055,5703503,3800,2690,-3340,2852,-1819,1788,-7423,4959,160,33,851
781477,5330112,5701844,5343252,5703700,3800,2784,-2960,3359,-1782,1592,-8033,5308,146,37,849
782478,5330628,5701948,5343449,5703897,3800,2776,-1832,4237,-1809,1002,-8578,9216,146,37,849
783479,5331068,5702048,5343646,5704094,3800,2844,2186,11823,-1585,2125,-12636,32767,119,27,847
784480,5331464,5702120,5343843,5704291,3800,3074,6171,17560,-1503,2408,-8363,15593,119,27,847
785481,5331800,5702236,5344040,5704488,3800,2835,7121,17605,-1643,2082,-5594,1854,95,20,843
786482,5332048,5702340,5344237,5704685,3800,2951,6743,15269,-1910,2234,-4329,523,95,20,843
787483,5332244,5702428,5344434,5704882,3800,3100,6196,12955,-2126,3246,-3695,752,63,23,841
788484,5332400,5702548,5344631,5705079,3800,2934,5993,12315,-2122,3113,-2782,2944,63,23,841
789485,5332488,5702660,5344828,5705276,3800,3022,5885,11765,-1996,2585,-2294,2073,26,27,841
790486,5332544,5702784,5345025,5705473,3800,2979,5735,10874,-2110,2322,-1087,1367,26,27,841
791487,5332596,5702888,5345222,5705670,3800,3146,5564,9089,-2546,435,576,109,20,38,840
792488,5332652,5703020,5345419,5705867,3800,3000,5296,7042,-3221,-692,2050,756,20,38,840
793490,5332712,5703148,5345616,5706064,3800,3056,4936,5055,-3911,-1325,2363,929,1,20,839
794490,5332824,5703256,5345813,5706261,3800,3220,4528,3417,-4429,-1360,2451,2141,1,20,839
795491,5332920,5703368,5346010,5706458,3800,3233,4108,2106,-4674,-1222,2846,2766,11,26,837
796492,5333080,5703508,5346207,5706655,3800,3083,3695,801,-4732,-2111,2384,3428,11,26,837
797493,5333264,5703668,5346404,5706852,3800,2976,3195,-182,-4770,-3649,1888,4574,30,28,838
798494,5333472,5703788,5346601,5707049,3800,3261,2617,-1189,-4863,-4530,1771,4569,30,28,838
799495,5333652,5703956,5346798,5707246,3800,2973,2054,-1991,-4965,-4786,1745,5097,33,39,838
800496,5333848,5704104,5346995,5707443,3800,3121,1512,-2642,-5016,-5170,2516,5460,33,39,838
801497,5334052,5704244,5347192,5707640,3800,3197,1045,-3112,-4954,-5087,3135,5646,42,43,838
802498,5334236,5704384,5347389,5707837,3800,3222,573,-3301,-4789,-4438,3422,5818,42,43,838
803499,5334432,5704516,5347586,5708034,3800,3301,144,-3545,-4564,-3814,3883,4837,33,37,840
804500,5334624,5704724,5347783,5708231,3800,2823,-196,-3902,-4303,-3006,4155,3987,33,37,840
805501,5334812,5704892,5347980,5708428,3800,3085,-460,-4482,-4019,-2159,3699,3106,35,39,839
806502,5334984,5705060,5348177,5708625,3800,3099,-739,-4722,-3665,-1631,2922,4050,35,39,839
807503,5335168,5705228,5348374,5708822,3800,3113,-1034,-4819,-3296,-1032,2922,3542,44,30,839
808504,5335340,5705396,5348571,5709019,3800,3126,-1328,-5167,-2976,-190,2594,2919,44,30,839
809505,5335504,5705552,5348768,5709216,3800,3220,-1607,-5577,-2647,642,2284,3003,43,45,839
810506,5335680,5705732,5348965,5709413,3800,3078,-1821,-6148,-2324,1203,2383,2198,43,45,839
811507,5335864,5705892,5349162,5709610,3800,3219,-1958,-6857,-2059,1848,1883,1774,48,32,839
812508,5336044,5706076,5349359,5709807,3800,3076,-1997,-7626,-1821,2038,1146,1473,48,32,839
813509,5336256,5706292,5349556,5710004,3800,2869,-1957,-8435,-1560,1944,212,1540,31,40,840
814510,5336428,5706520,5349753,5710201,3800,2780,-1861,-9020,-1341,2047,-530,1815,31,40,840
815511,5336604,5706756,5349950,5710398,3800,2714,-1701,-9559,-1123,1961,-1059,1848,31,58,840
816512,5336816,5706976,5350147,5710595,3800,2805,-1523,-9850,-863,1840,-1373,2559,31,58,840
817513,5336976,5707224,5350344,5710792,3800,2608,-1344,-9945,-591,1866,-1427,2860,54,57,841
818514,5337160,5707484,5350541,5710989,3800,2506,-1157,-9840,-300,1658,-1442,3603,54,57,841
819515,5337304,5707728,5350738,5711186,3800,2586,-986,-9334,10,1255,-1544,4497,29,50,841
820516,5337488,5707964,5350935,5711383,3800,2620,-833,-8678,266,686,-1717,4580,29,50,841
821517,5337628,5708184,5351132,5711580,3800,2710,-632,-7903,425,-14,-1881,4824,23,49,843
822518,5337776,5708408,5351329,5711777,3800,2674,-382,-7067,519,-446,-1869,4912,23,49,843
823519,5337944,5708624,5351526,5711974,3800,2717,-114,-6194,586,-405,-1887,5134,28,54,843
824520,5338092,5708864,5351723,5712171,3800,2548,150,-5244,654,-524,-2054,5214,28,54,843
825521,5338232,5709092,5351920,5712368,3800,2610,450,-4242,740,-658,-2141,5083,34,45,842
826522,5338372,5709288,5352117,5712565,3800,2811,768,-3311,827,-395,-2103,4866,34,45,842
827523,5338488,5709460,5352314,5712762,3800,2973,1087,-2415,954,-4,-2106,4692,26,51,842
828524,5338600,5709624,5352511,5712959,3800,3038,1394,-1556,1110,246,-1914,4389,26,51,842
829525,5338728,5709788,5352708,5713156,3800,3053,1730,-986,1221,461,-1647,3280,34,43,839
830526,5338832,5709924,5352905,5713353,3800,3255,2094,-770,1270,763,-1372,2511,34,43,839
831527,5338952,5710076,5353102,5713550,3800,3176,2424,-591,1339,1172,-1326,2446,39,33,839
832528,5339092,5710216,5353299,5713747,3800,3276,2703,-423,1441,1491,-1173,2265,26,24,838
833529,5339224,5710336,5353496,5713944,3800,3436,2959,-306,1563,1586,-823,1928,26,24,838
834530,5339356,5710456,5353693,5714141,3800,3471,3175,-156,1709,1815,-312,2172,43,34,838
835531,5339524,5710580,5353890,5714338,3800,3478,3307,160,1867,2059,14,2613,43,34,838
836532,5339648,5710720,5354087,5714535,3800,3404,3394,486,2000,1849,192,2475,35,37,836
837533,5339804,5710896,5354284,5714732,3800,3189,3462,732,2076,1575,545,2252,35,37,836
838534,5339944,5711028,5354481,5714929,3800,3493,3479,1030,2068,1558,1093,2414,21,42,835
839535,5340076,5711184,5354678,5715126,3800,3362,3419,1434,2024,1411,1131,2766,21,42,835
840543,5340200,5711376,5354908,5715356,3800,3155,3266,2107,2043,1043,366,3708,20,32,835
841537,5340316,5711556,5355105,5715553,3800,3238,3016,3046,2105,691,138,4200,20,32,835
842538,5340460,5711752,5355302,5715750,3800,3138,2719,3928,2090,573,1240,3822,20,46,837
843539,5340568,5711960,5355499,5715947,3800,3060,2452,4555,1882,527,2881,3109,20,46,837
844540,5340704,5712168,5355696,5716144,3800,3056,2093,5158,1259,110,5062,3457,39,45,838
845541,5340924,5712368,5355893,5716341,3800,3105,1646,5700,287,-208,6316,3060,39,45,838
846542,5341172,5712576,5356090,5716538,3800,3052,1205,6018,-645,503,5747,2380,50,55,840
847543,5341468,5712788,5356287,5716735,3800,3020,758,6093,-1389,962,4850,1934,50,55,840
848544,5341792,5713052,5356484,5716932,3800,2667,338,5999,-1998,822,3660,1387,72,58,841
849545,5342112,5713284,5356681,5717129,3800,2852,-96,5636,-2551,615,2522,899,72,58,841
850546,5342536,5713500,5356878,5717326,3800,2944,-481,5048,-3011,628,1755,-155,87,42,844
851547,5343044,5713704,5357075,5717523,3800,3017,-782,4088,-3368,878,1769,-1125,87,42,844
852548,5343428,5713892,5357272,5717720,3800,3122,-1077,3201,-3618,1008,1497,-526,104,52,843
853549,5343896,5714092,5357469,5717917,3800,3046,-1405,2376,-3841,758,1698,-677,104,52,843
854550,5344460,5714320,5357666,5718114,3800,2858,-1651,1160,-4172,667,1852,-2020,108,44,843
855551,5344964,5714524,5357863,5718311,3800,3006,-1834,-1,-4571,582,1594,-1395,108,44,843
856552,5345596,5714720,5358060,5718508,3800,3057,-1960,-905,-4874,-156,1275,-896,117,41,845
857553,5346300,5714888,5358257,5718705,3800,3246,-2149,-1821,-5016,-297,470,-244,117,41,845
858554,5346936,5715076,5358454,5718902,3800,3125,-2375,-2172,-4945,-305,-491,1570,131,52,844
859555,5347624,5715276,5358651,5719099,3800,3050,-2697,-2031,-4648,-1065,-1544,2922,131,52,844
860544,5348392,5715508,5358848,5719296,3151,2835,-3035,-1633,-4300,-1875,-2357,3558,149,41,844
861545,5349192,5715744,5359045,5719493,2688,2793,-3467,-1349,-3928,-2272,-2898,3983,149,41,844
862546,5349944,5715976,5359242,5719690,2747,2804,-3803,-890,-3542,-2471,-2827,3992,165,65,847
863546,5350744,5716232,5359439,5719887,2183,2629,-4071,-598,-3223,-2932,-2671,3303,165,65,847
864547,5351620,5716504,5359636,5720084,1411,2497,-4162,-685,-2937,-3959,-3264,2791,141,58,853
865548,5352404,5716772,5359833,5720281,1730,2491,-4156,-838,-2650,-4613,-3624,2947,141,58,853
866549,5353132,5717032,5360030,5720478,1848,2514,-4048,-950,-2365,-5070,-4014,2748,137,60,860
867550,5353908,5717368,5360227,5720675,1294,1979,-3918,-1066,-2061,-5982,-4635,3101,137,60,860
868551,5354640,5717684,5360424,5720872,1335,2051,-3816,-1082,-1699,-6621,-5227,3569,145,80,858
869552,5355304,5717972,5360621,5721069,1557,2187,-3733,-1031,-1258,-6381,-5573,3711,145,80,858
870553,5355992,5718324,5360818,5721266,1192,1719,-3613,-1040,-710,-5975,-5664,3542,150,61,862
871554,5356572,5718672,5361015,5721463,1700,1679,-3388,-1386,-116,-5682,-5140,2586,150,61,862
872555,5357124,5719020,5361212,5721660,1719,1614,-3085,-2137,422,-4780,-4715,1998,119,67,863
873556,5357664,5719312,5361409,5721857,1644,1922,-2715,-3044,911,-4204,-4260,1545,119,67,863
874557,5358112,5719620,5361606,5722054,2110,1773,-2271,-4133,1354,-3961,-3684,1258,98,69,863
875558,5358508,5719940,5361803,5722251,2348,1645,-1841,-5235,1714,-3393,-3021,1502,98,69,863
876559,5358880,5720272,5362000,5722448,2422,1511,-1468,-6322,1994,-2681,-1961,1625,84,58,860
877560,5359172,5720576,5362197,5722645,2881,1640,-1128,-7146,2263,-1403,-1708,2354,84,58,860
878561,5359464,5720828,5362394,5722842,2839,1941,-790,-8141,2510,261,-1969,1761,60,63,859
879562,5359748,5721044,5362591,5723039,2852,2158,-401,-9269,2742,1688,-1772,1854,60,63,859
880563,5359968,5721328,5362788,5723236,3242,1695,-19,-10097,2954,2388,-1314,3060,60,49,855
881564,5360172,5721620,5362985,5723433,3340,1603,410,-10890,3116,2656,-1051,2700,60,49,855
882565,5360368,5721844,5363182,5723630,3390,2017,813,-11554,3232,3127,-793,3229,40,43,851
883566,5360564,5722024,5363379,5723827,3392,2300,1221,-11938,3335,3728,-722,3845,40,43,851
884567,5360800,5722176,5363576,5724024,3125,2495,1604,-12306,3380,4576,-1057,3873,45,47,849
885568,5361028,5722384,5363773,5724221,3162,2141,1888,-12239,3366,4801,-1385,5185,45,47,849
886569,5361248,5722588,5363970,5724418,3203,2163,2039,-11713,3413,4048,-1832,6802,56,47,849
887570,5361428,5722772,5364167,5724615,3460,2293,2009,-10581,3522,3771,-2127,8646,56,47,849
888571,5361616,5722960,5364364,5724812,3415,2273,1884,-9029,3557,3650,-1851,9099,38,45,850
889572,5361856,5723140,5364561,5725009,3071,2331,1767,-7615,3439,3861,-921,8702,38,45,850
890573,5362096,5723304,5364758,5725206,3053,2445,1618,-6260,3177,4328,-674,8511,45,38,848
891575,5362328,5723488,5364955,5725403,3088,2327,1361,-4854,2884,3797,-1005,8784,45,38,848
892575,5362564,5723700,5365152,5725600,3047,2145,1033,-3287,2693,2780,-1348,9362,54,37,850
893576,5362748,5723928,5365349,5725797,3378,2033,708,-1712,2526,2306,-723,9067,54,37,850
894577,5362932,5724144,5365546,5725994,3384,2099,456,-407,2250,2564,767,7940,27,40,849
895578,5363180,5724364,5365743,5726191,2962,2064,169,786,1840,3306,1988,8271,27,40,849
896580,5363380,5724564,5365940,5726388,3262,2189,-131,1953,1741,4076,-7,7768,40,38,849
897580,5363592,5724764,5366137,5726585,3180,2188,-437,3012,1704,3320,666,7475,40,38,849
898581,5363796,5724952,5366334,5726782,3228,2267,-686,4228,1803,2785,365,7820,50,44,849
899582,5363960,5725168,5366531,5726979,3492,2084,-669,4506,1810,2925,2364,4099,50,44,849
900583,5364124,5725392,5366728,5727176,3508,2022,-361,4390,1772,3085,880,4033,46,34,849
901584,5364348,5725576,5366925,5727373,3121,2278,-52,4281,1624,3466,2664,4149,46,34,849
902585,5364564,5725740,5367122,5727570,3164,2419,204,4201,1298,3880,4109,3886,52,27,847
903586,5364788,5725908,5367319,5727767,3102,2406,407,4336,1033,3162,2217,4426,52,27,847
904587,5365000,5726064,5367516,5727964,3171,2499,500,4725,964,2044,910,5668,52,42,848
905588,5365176,5726216,5367713,5728161,3405,2545,476,5428,944,1388,533,6807,52,42,848
906589,5365312,5726364,5367910,5728358,3683,2592,474,5817,810,1544,1001,5338,40,42,845
907591,5365468,5726496,5368107,5728555,3576,2720,576,5987,643,1437,-5,5058,40,42,845
908591,5365680,5726692,5368304,5728752,3221,2322,675,6043,404,1447,175,4843,29,37,843
909592,5365884,5726880,5368501,5728949,3268,2376,788,5903,95,1304,218,4083,29,37,843
910593,5366136,5727056,5368698,5729146,2944,2461,862,5844,-63,774,-1301,4591,64,42,849
911594,5366360,5727200,5368895,5729343,3108,2684,880,5889,-61,153,-2118,4805,64,42,849
912595,5366536,5727344,5369092,5729540,3417,2708,847,5880,3,-11,-1870,4651,35,24,849
913596,5366672,5727488,5369289,5729737,3695,2732,869,5613,3,345,-616,3362,35,24,849
914597,5366836,5727628,5369486,5729934,3534,2782,985,4840,-74,1101,346,2104,27,40,844
915598,5366996,5727756,5369683,5730131,3576,2888,1097,3947,-170,1604,740,2241,27,40,844
916599,5367176,5727896,5369880,5730328,3459,2838,1172,3173,-219,1581,742,2390,35,29,841
917600,5367432,5728080,5370077,5730525,2959,2570,1172,2588,-175,1320,218,2993,35,29,841
918601,5367652,5728276,5370274,5730722,3175,2495,1129,2216,-46,900,-189,3561,44,29,844
919602,5367852,5728436,5370471,5730919,3298,2738,1067,1894,96,291,-396,3812,44,29,844
920603,5368032,5728620,5370668,5731116,3432,2593,1064,1443,163,276,148,3284,43,34,847
921604,5368232,5728768,5370865,5731313,3306,2841,1093,833,135,796,775,3030,43,34,847
922605,5368420,5728928,5371062,5731510,3386,2782,1095,368,80,1365,859,3576,41,28,845
923615,5368692,5729080,5371292,5731740,2842,2866,1022,111,49,1597,593,4016,41,28,845
924608,5369012,5729248,5371489,5731937,2489,2780,891,57,56,1365,239,4640,55,46,845
925609,5369324,5729464,5371686,5732134,2488,2473,721,176,84,722,-297,5264,55,46,845
926610,5369648,5729692,5371883,5732331,2358,2384,549,407,118,404,-689,5464,71,51,850
927611,5369940,5729920,5372080,5732528,2517,2372,401,592,105,919,-320,5136,71,51,850
928612,5370264,5730112,5372277,5732725,2261,2599,318,550,42,1636,331,4334,59,43,852
929613,5370616,5730312,5372474,5732922,2019,2548,292,437,-37,1895,335,4198,59,43,852
930614,5370988,5730532,5372671,5733119,1817,2413,248,475,-68,1544,-604,4689,75,53,853
931614,5371328,5730816,5372868,5733316,1954,1976,154,527,-17,1086,-1234,4804,75,53,853
932616,5371688,5731136,5373065,5733513,1759,1697,34,616,53,929,-1273,4692,66,54,857
933616,5372060,5731432,5373262,5733710,1607,1804,-106,781,124,744,-1733,4844,66,54,857
934618,5372404,5731748,5373459,5733907,1717,1627,-254,1043,218,355,-2534,5099,77,70,861
935618,5372728,5732016,5373656,5734104,1786,1896,-341,1302,318,11,-2771,4826,77,70,861
936620,5373116,5732364,5373853,5734301,1302,1331,-282,1324,360,27,-1768,4074,67,73,862
937621,5373464,5732704,5374050,5734498,1487,1318,-145,1238,289,447,-580,3979,67,73,862
938622,5373816,5733064,5374247,5734695,1394,1121,-232,1674,167,724,-302,5691,65,69,863
939622,5374188,5733360,5374444,5734892,1192,1479,-318,1853,132,366,-1005,3942,65,69,863
940624,5374524,5733656,5374641,5735089,1356,1435,-320,1943,192,303,-1468,4213,61,71,866
941625,5374808,5733960,5374838,5735286,1643,1338,-288,2075,309,181,-1809,4189,61,71,866
942625,5375140,5734264,5375035,5735483,1283,1292,-224,2139,439,-83,-1935,3970,73,47,864
943626,5375440,5734500,5375232,5735680,1438,1700,-149,2154,493,-308,-1603,3901,73,47,864
944628,5375740,5734716,5375429,5735877,1393,1817,-57,2159,498,-364,-1220,3771,68,51,865
945629,5376044,5734908,5375626,5736074,1321,1969,49,2178,477,-395,-684,3523,68,51,865
946630,5376364,5735092,5375823,5736271,1167,2025,175,2050,446,-512,-435,3099,57,49,862
947630,5376676,5735320,5376020,5736468,1166,1737,314,1903,452,-544,-303,3168,57,49,862
948632,5376980,5735536,5376217,5736665,1168,1804,469,1830,516,-490,-175,3155,67,48,861
949633,5377272,5735716,5376414,5736862,1201,2036,635,1766,591,-574,86,2944,67,48,861
950634,5377576,5735908,5376611,5737059,1079,1963,776,1691,642,-639,373,3257,55,47,862
951634,5377912,5736076,5376808,5737256,818,2126,899,1664,716,-527,482,3334,55,47,862
952635,5378216,5736248,5377005,5737453,971,2113,1010,1643,799,-369,719,3153,52,29,863
953636,5378596,5736424,5377202,5737650,415,2097,1154,1549,857,-336,1033,2666,52,29,863
954637,5378928,5736604,5377399,5737847,656,2080,1357,1229,842,-414,1414,2049,67,36,862
955638,5379252,5736808,5377596,5738044,650,1927,1603,796,782,-235,1398,1879,67,36,862
956639,5379552,5736964,5377793,5738241,755,2246,1824,448,769,175,1121,2220,65,29,864
957641,5379848,5737148,5377990,5738438,735,2076,1966,277,842,437,720,2645,65,29,864
958641,5380168,5737340,5378187,5738635,531,2029,2020,230,923,534,628,2873,67,26,862
959642,5380412,5737496,5378384,5738832,985,2272,2008,192,907,609,743,2943,67,26,862
960644,5380660,5737664,5378581,5739029,937,2210,1938,121,748,712,874,2907,58,36,862
961645,5380932,5737800,5378778,5739226,754,2437,1806,-71,485,1038,849,2579,58,36,862
962646,5381152,5737956,5378975,5739423,1068,2330,1665,-421,154,1499,977,2034,51,31,862
963646,5381372,5738160,5379172,5739620,1058,2027,1557,-874,-179,2108,1147,1691,51,31,862
964647,5381620,5738368,5379369,5739817,860,1998,1468,-1403,-504,2601,1491,1409,30,42,860
965648,5381816,5738576,5379566,5740014,1185,1993,1389,-1922,-787,2931,1174,1354,30,42,860
966649,5382008,5738744,5379763,5740211,1212,2256,1295,-2209,-978,3066,716,1850,44,31,862
967650,5382208,5738924,5379960,5740408,1160,2190,1152,-2353,-1119,2764,544,2249,44,31,862
968652,5382392,5739092,5380157,5740605,1265,2277,979,-2442,-1247,2724,695,2341,30,32,860
969653,5382556,5739320,5380354,5740802,1404,1889,764,-2480,-1359,2659,879,2439,30,32,860
970653,5382740,5739516,5380551,5740999,1285,2089,482,-2494,-1446,2688,1017,2406,33,33,859
971654,5382896,5739724,5380748,5741196,1478,2010,181,-2575,-1533,2674,1245,2177,33,33,859
972655,5383076,5739912,5380945,5741393,1334,2139,-122,-2709,-1600,2635,1324,1945,43,34,860
973657,5383208,5740096,5381142,5741590,1663,2170,-428,-2807,-1634,2741,1267,2130,43,34,860
974657,5383392,5740284,5381339,5741787,1342,2150,-738,-2825,-1642,2888,1376,2202,20,41,860
975658,5383540,5740472,5381536,5741984,1589,2154,-1022,-2839,-1640,2818,1589,2189,20,41,860
976659,5383700,5740648,5381733,5742181,1530,2238,-1309,-2763,-1604,2676,1527,2560,21,43,860
977660,5383868,5740832,5381930,5742378,1492,2194,-1605,-2600,-1545,2422,1433,2645,21,43,860
978661,5384020,5741016,5382127,5742575,1612,2201,-1905,-2397,-1475,2122,1428,2685,39,32,859
979662,5384168,5741184,5382324,5742772,1657,2313,-2194,-2204,-1406,1939,1538,2542,39,32,859
980663,5384328,5741356,5382521,5742969,1598,2299,-2468,-2173,-1351,1925,1573,2141,42,33,858
981664,5384492,5741532,5382718,5743166,1588,2285,-2727,-2125,-1302,2079,1484,2183,42,33,858
982665,5384660,5741716,5382915,5743363,1575,2240,-2977,-2144,-1260,2176,1309,1859,25,33,857
983666,5384832,5741876,5383112,5743560,1561,2407,-3233,-2150,-1214,2185,721,2069,25,33,857
984667,5384980,5742040,5383309,5743757,1732,2397,-3490,-2006,-1130,1942,-94,2461,39,43,858
985669,5385152,5742220,5383506,5743954,1592,2305,-3717,-1794,-996,1643,-759,2559,39,43,858
986669,5385292,5742416,5383703,5744151,1817,2205,-3897,-1561,-854,1562,-1132,2828,22,40,857
987670,5385460,5742616,5383900,5744348,1655,2179,-4030,-1328,-728,1477,-1431,2785,22,40,857
988671,5385632,5742780,5384097,5744545,1640,2419,-4089,-1178,-602,1584,-1706,2604,32,42,857
989673,5385804,5742948,5384294,5744742,1651,2407,-4094,-969,-475,1621,-1983,2788,32,42,857
990674,5385968,5743108,5384491,5744939,1715,2474,-4065,-736,-349,1455,-2260,3117,42,44,858
991675,5386120,5743296,5384688,5745136,1810,2303,-4035,-398,-243,1359,-2461,3534,42,44,858
992676,5386300,5743432,5384885,5745333,1642,2655,-4006,-38,-153,1177,-2467,3676,30,31,856
993677,5386476,5743628,5385082,5745530,1676,2281,-3984,364,-76,877,-2251,4070,30,31,856
994678,5386640,5743788,5385279,5745727,1765,2523,-3973,769,-25,682,-1797,4384,29,38,856
995679,5386812,5743952,5385476,5745924,1726,2512,-3958,1220,13,539,-1362,4757,29,38,856
996680,5386980,5744136,5385673,5746121,1763,2394,-3931,1871,91,453,-1004,5392,48,37,857
997680,5387176,5744352,5385870,5746318,1589,2185,-3892,2599,214,345,-415,5689,48,37,857
998681,5387364,5744508,5386067,5746515,1643,2578,-3839,3229,333,249,299,5843,43,43,856
999682,5387540,5744680,5386264,5746712,1727,2490,-3176,4370,459,20,268,10712,43,43,856
1000683,5387712,5744840,5386461,5746909,1762,2582,-20,10886,934,-1097,-1955,32767,29,42,857
1001684,5387864,5745036,5386658,5747106,1907,2358,3244,15693,1212,-55,504,19656,29,42,857
1002685,5388060,5745208,5386855,5747303,1632,2519,3953,15559,1162,521,1728,1534,47,41,854
1003686,5388220,5745384,5387052,5747500,1873,2503,3521,13297,1060,653,1338,295,47,41,854
1004687,5388416,5745556,5387249,5747697,1648,2540,2883,11303,1140,1277,83,1668,31,35,855
1005688,5388600,5745760,5387446,5747894,1728,2337,2507,10811,1520,921,-1317,3123,31,35,855
1006696,5388804,5745944,5387676,5748124,1615,2484,2055,10476,2182,560,-3320,3136,46,40,856
1007690,5388972,5746104,5387873,5748321,1853,2650,1700,9986,2558,465,-1867,1965,46,40,856
1008692,5389156,5746312,5388070,5748518,1757,2345,1547,8569,2534,-547,-1185,-17,42,29,857
1009692,5389284,5746468,5388267,5748715,2138,2689,1379,7046,2255,-1137,-2505,1186,42,29,857
1010694,5389440,5746640,5388464,5748912,1981,2600,845,6244,1896,-1536,-4343,2982,41,39,856
1011694,5389588,5746780,5388661,5749109,2052,2826,124,5395,1583,-2519,-5486,2704,41,39,856
1012695,5389716,5746960,5388858,5749306,2207,2583,-426,4325,1423,-2926,-5805,2381,43,39,854
1013696,5389836,5747128,5389055,5749503,2291,2672,-609,2655,1253,-3403,-4607,1931,43,39,854
1014697,5389944,5747288,5389252,5749700,2404,2738,-513,859,999,-3756,-3354,3700,44,33,851
1015698,5390076,5747436,5389449,5749897,2283,2835,415,-1353,897,-5707,-2977,9823,44,33,851
1016700,5390244,5747600,5389646,5750094,2071,2750,1230,-2847,847,-5137,-2252,8598,26,43,850
1017700,5390412,5747772,5389843,5750291,2083,2711,1207,-3302,729,-4218,-1352,7016,26,43,850
1018702,5390564,5747924,5390040,5750488,2203,2857,754,-3043,551,-4008,-381,7665,27,28,852
1019702,5390688,5748124,5390237,5750685,2410,2556,330,-2672,346,-4031,702,7622,27,28,852
1020703,5390812,5748280,5390434,5750882,2442,2850,71,-2382,85,-3778,1688,7562,22,42,852
1021704,5390956,5748448,5390631,5751079,2341,2788,-78,-2133,-175,-3436,1774,7195,22,42,852
1022705,5391080,5748596,5390828,5751276,2498,2935,-146,-1774,-373,-3007,1715,7113,39,45,850
1023706,5391184,5748780,5391025,5751473,2664,2716,-223,-1383,-516,-2580,1774,6791,39,45,850
1024708,5391316,5748964,5391222,5751670,2517,2723,-308,-932,-625,-2078,1962,6716,36,43,849
1025708,5391424,5749136,5391419,5751867,2705,2809,-347,-476,-682,-1504,1840,6250,36,43,849
1026710,5391544,5749308,5391616,5752064,2664,2821,-335,-347,-704,-989,1489,5189,17,45,847
1027710,5391648,5749504,5391813,5752261,2805,2671,-318,-490,-667,-457,1030,4629,17,45,847
1028712,5391760,5749712,5392010,5752458,2793,2592,-278,-775,-534,-89,358,3853,24,38,849
1029712,5391880,5749892,5392207,5752655,2777,2776,-216,-1281,-331,68,-556,2944,24,38,849
1030714,5391984,5750124,5392404,5752852,2918,2435,-83,-2022,-113,59,-1555,2177,16,50,847
1031714,5392088,5750356,5392601,5753049,2959,2421,127,-2908,71,198,-2157,1829,16,50,847
1032716,5392184,5750620,5392798,5753246,3053,2192,366,-3747,212,385,-2381,1710,27,43,849
1033716,5392300,5750880,5392995,5753443,2964,2190,629,-4572,332,335,-2352,1340,27,43,849
1034717,5392384,5751108,5393192,5753640,3214,2376,890,-5349,471,176,-2453,1623,22,50,849
1035718,5392500,5751344,5393389,5753837,3049,2310,1132,-5806,619,135,-2333,2376,22,50,849
1036719,5392616,5751616,5393586,5754034,3085,2052,1344,-5920,780,38,-2144,3227,36,56,847
1037720,5392756,5751880,5393783,5754231,2961,2073,1536,-5812,934,-216,-1906,3723,36,56,847
1038722,5392864,5752180,5393980,5754428,3200,1803,1720,-5539,1076,-590,-1756,4101,40,56,850
1039722,5392984,5752504,5394177,5754625,3159,1598,1901,-5025,1207,-967,-1353,4758,40,56,850
1040724,5393100,5752720,5394374,5754822,3219,2265,2072,-4269,1296,-1304,-869,5088,19,48,851
1041724,5393220,5752912,5394571,5755019,3228,2417,2245,-3473,1307,-1569,-389,5244,19,48,851
1042725,5393336,5753080,5394768,5755216,3290,2581,2412,-2566,1258,-1764,86,5523,37,41,849
1043726,5393464,5753256,5394965,5755413,3245,2540,2556,-1559,1187,-1759,482,5510,37,41,849
1044727,5393576,5753444,5395162,5755610,3382,2469,2641,-502,1137,-1627,804,5472,38,49,846
1045728,5393684,5753692,5395359,5755807,3448,2073,2694,437,1137,-1397,1016,5139,38,49,846
1046729,5393816,5754028,5395556,5756004,3326,1462,2734,1266,1172,-976,1083,4640,18,58,845
1047730,5393928,5754352,5395753,5756201,3489,1482,2781,1878,1190,-602,1290,3810,18,58,845
1048731,5394064,5754628,5395950,5756398,3366,1747,2822,2245,1165,-296,1575,2999,43,75,849
1049732,5394204,5754972,5396147,5756595,3366,1258,2844,2420,1102,159,1785,2426,43,75,849
1050733,5394324,5755296,5396344,5756792,3525,1328,2838,2385,1031,682,1598,1776,23,71,850
1051734,5394444,5755632,5396541,5756989,3560,1192,2789,2365,964,1149,1051,1980,23,71,850
1052735,5394576,5756028,5396738,5757186,3514,729,2680,2389,896,1462,338,1940,40,82,851
1053736,5394712,5756352,5396935,5757383,3515,1124,2498,2367,793,1850,-49,1847,40,82,851
1054737,5394820,5756648,5397132,5757580,3731,1256,2250,2419,638,2070,-273,1971,27,62,852
1055739,5394956,5756996,5397329,5757777,3582,865,1992,2357,432,2158,-167,1343,27,62,852
1056740,5395064,5757352,5397526,5757974,3797,745,1734,2180,173,2417,140,1193,17,67,849
1057753,5395156,5757732,5397723,5758171,3800,514,1496,1959,-96,2607,481,1127,17,67,849
1058754,5395264,5758064,5397920,5758368,3800,755,1263,1776,-353,2640,679,1359,22,68,849
1059755,5395360,5758408,5398117,5758565,3800,615,1024,1729,-606,2656,858,1639,22,68,849
1060756,5395448,5758752,5398314,5758762,3800,551,787,1706,-859,2545,1321,1658,35,63,849
1061757,5395552,5759116,5398511,5758959,3800,353,545,1751,-1105,2511,1633,1918,35,63,849
1062758,5395644,5759420,5398708,5759156,3800,680,291,1835,-1340,2439,1959,1940,27,68,850
1063759,5395712,5759792,5398905,5759353,3800,179,13,1946,-1581,2220,2188,2148,27,68,850
1064760,5395776,5760236,5399102,5759550,3800,-380,-294,2144,-1815,2254,2199,2532,28,63,851
1065761,5395832,5760556,5399299,5759747,3800,341,-604,2430,-2012,2258,1949,2703,28,63,851
1066762,5395884,5760808,5399496,5759944,3800,742,-912,2823,-2168,2044,1752,3036,18,64,850
1067763,5395952,5761060,5399693,5760141,3800,717,-1222,3279,-2299,1847,1608,3178,18,64,850
1068764,5395996,5761348,5399890,5760338,3800,452,-1509,3719,-2363,1888,1495,3226,24,46,850
1069765,5396048,5761568,5400087,5760535,3800,867,-1765,4137,-2383,1966,1454,3247,24,46,850
1070766,5396108,5761760,5400284,5760732,3800,1044,-1995,4526,-2458,1727,1444,3088,17,42,848
1071767,5396192,5761956,5400481,5760929,3800,1019,-2225,4845,-2577,1549,1158,2943,17,42,848
1072768,5396260,5762128,5400678,5761126,3800,1180,-2446,5083,-2663,1536,714,2868,28,59,848
1073769,5396340,5762344,5400875,5761323,3800,896,-2642,5295,-2687,1600,357,2855,28,59,848
1074770,5396424,5762572,5401072,5761520,3800,807,-2815,5551,-2679,1544,7,2756,28,58,847
1075771,5396480,5762796,5401269,5761717,3800,820,-2959,5679,-2639,1348,-361,2444,28,58,847
1076772,5396564,5763008,5401466,5761914,3800,889,-3038,5644,-2566,1209,-635,2055,30,38,848
1077773,5396608,5763208,5401663,5762111,3800,962,-3060,5414,-2508,1026,-842,1648,30,38,848
1078774,5396640,5763400,5401860,5762308,3800,1014,-3026,5069,-2476,614,-1112,1374,22,42,849
1079775,5396672,5763600,5402057,5762505,3800,962,-2966,4717,-2466,-32,-1420,1445,22,42,849
1080776,5396660,5763748,5402254,5762702,3800,1309,-2884,4446,-2508,-732,-1658,1677,11,47,847
1081777,5396684,5763904,5402451,5762899,3800,1277,-2808,4245,-2565,-1176,-1971,2015,11,47,847
1082778,5396688,5764080,5402648,5763096,3800,1160,-2737,4128,-2601,-1480,-2015,2368,13,42,846
1083779,5396684,5764256,5402845,5763293,3800,1169,-2675,4025,-2595,-1790,-1785,2605,13,42,846
1084780,5396692,5764424,5403042,5763490,3800,1232,-2606,3939,-2548,-2016,-1723,2767,-7,41,846
1085781,5396684,5764588,5403239,5763687,3800,1272,-2525,3813,-2475,-2191,-1697,2804,-7,41,846
1086782,5396704,5764756,5403436,5763884,3800,1259,-2436,3686,-2394,-2478,-1596,2912,-6,43,847
1087783,5396696,5764888,5403633,5764081,3800,1513,-2351,3515,-2325,-2733,-1453,2875,-6,43,847
1088784,5396700,5765076,5403830,5764278,3800,1166,-2276,3224,-2266,-2915,-1188,2750,14,39,847
1089792,5396700,5765252,5404060,5764508,3800,1265,-2214,2877,-2195,-3006,-1016,2825,14,39,847
1090786,5396700,5765456,5404257,5764705,3800,1086,-2167,2441,-2096,-3017,-878,2770,-7,45,845
1091787,5396716,5765620,5404454,5764902,3800,1351,-2132,1964,-1953,-2906,-674,2762,-7,45,845
1092788,5396724,5765764,5404651,5765099,3800,1499,-2110,1421,-1772,-2751,-447,2765,13,27,845
1093789,5396720,5765888,5404848,5765296,3800,1656,-2101,842,-1565,-2491,-360,2777,13,27,845
1094790,5396720,5766040,5405045,5765493,3800,1501,-2098,171,-1336,-2173,-330,2738,-7,31,846
1095791,5396732,5766152,5405242,5765690,3800,1788,-2101,-578,-1099,-1924,-287,2785,-7,31,846
1096792,5396744,5766268,5405439,5765887,3800,1798,-2098,-1486,-868,-1800,-549,2819,13,37,845
1097793,5396736,5766364,5405636,5766084,3800,1967,-2080,-2508,-646,-1601,-938,2963,13,37,845
1098794,5396740,5766476,5405833,5766281,3800,1905,-722,-4460,-557,-101,-1927,12273,-6,18,844
1099795,5396736,5766568,5406030,5766478,3800,2076,2402,-6645,-703,1916,-3977,26487,-6,18,844
1100796,5396748,5766684,5406227,5766675,3800,1962,3866,-7177,-530,-385,-2910,9720,12,19,843
1101797,5396760,5766796,5406424,5766872,3800,2024,3407,-6464,-112,-721,-1890,7688,12,19,843
1102798,5396760,5766888,5406621,5767069,3800,2195,2491,-5202,287,-873,-986,8179,15,25,842
1103799,5396760,5766988,5406818,5767266,3800,2188,1886,-4435,494,-861,77,7134,15,25,842
1104800,5396764,5767072,5407015,5767463,3800,2337,1472,-3720,578,-492,57,7829,13,15,842
1105801,5396768,5767164,5407212,5767660,3800,2333,798,-2757,804,-448,-1181,8279,13,15,842
1106802,5396776,5767260,5407409,5767857,3800,2354,141,-2042,1131,-355,-1109,6641,14,27,841
1107803,5396776,5767340,5407606,5768054,3800,2505,-239,-1673,1269,-248,336,5748,14,27,841
1108804,5396764,5767412,5407803,5768251,3800,2610,-305,-1873,1253,-109,650,4283,-2,13,841
1109805,5396780,5767512,5408000,5768448,3800,2478,-280,-2280,1242,600,171,3764,-2,13,841
1110806,5396760,5767600,5408197,5768645,3800,2601,-335,-2741,1323,866,-303,3297,3,18,840
1111807,5396780,5767672,5408394,5768842,3800,2756,-477,-3229,1483,1042,-477,3377,3,18,840
1112808,5396776,5767772,5408591,5769039,3800,2624,-670,-3389,1658,1446,-1081,4040,2,30,840
1113809,5396776,5767872,5408788,5769236,3800,2667,-812,-3595,1860,1365,-1797,3528,2,30,840
1114810,5396780,5767964,5408985,5769433,3800,2763,-876,-3896,2058,1264,-1840,3371,15,15,838
1115811,5396796,5768048,5409182,5769630,3800,2863,-850,-4315,2155,1145,-1608,2831,15,15,838
1116812,5396764,5768148,5409379,5769827,3800,2806,-752,-4851,2122,967,-1339,2609,3,31,838
1117813,5396780,5768260,5409576,5770024,3800,2769,-671,-5078,1957,704,-797,3693,3,31,838
1118814,5396776,5768376,5409773,5770221,3800,2779,-652,-5036,1736,681,-504,4244,15,25,838
1119815,5396796,5768460,5409970,5770418,3800,3030,-660,-4796,1606,777,-936,4773,15,25,838
1120816,5396788,5768548,5410167,5770615,3800,3053,-642,-4360,1549,707,-827,5167,12,32,839
1121817,5396784,5768640,5410364,5770812,3800,3074,-608,-3842,1481,571,-421,5481,12,32,839
1122818,5396788,5768732,5410561,5771009,3800,3121,-595,-3201,1327,406,183,5767,7,17,837
1123819,5396792,5768844,5410758,5771206,3800,3033,-553,-2614,1089,145,550,5470,7,17,837
1124820,5396792,5768956,5410955,5771403,3800,3072,-461,-2077,809,76,784,5260,-4,27,836
1125821,5396804,5769048,5411152,5771600,3800,3243,-323,-1614,547,110,973,4894,-4,27,836
1126822,5396800,5769176,5411349,5771797,3800,3049,-136,-1289,359,148,797,4465,-1,37,836
1127823,5396808,5769300,5411546,5771994,3800,3106,91,-1039,246,260,493,4098,-1,37,836
1128824,5396808,5769432,5411743,5772191,3800,3086,342,-931,206,418,255,3728,9,24,836
1129825,5396804,5769600,5411940,5772388,3800,2874,574,-854,225,510,97,3737,9,24,836
1130826,5396808,5769716,5412137,5772585,3800,3235,742,-693,268,558,-170,3993,0,22,836
1131827,5396808,5769852,5412334,5772782,3800,3137,855,-457,332,654,-372,4067,0,22,836
1132828,5396812,5770000,5412531,5772979,3800,3085,953,-180,384,816,-205,4168,15,31,838
1133829,5396812,5770160,5412728,5773176,3800,3026,1066,79,416,886,-85,4010,15,31,838
1134830,5396820,5770344,5412925,5773373,3800,2883,1197,262,401,906,32,3883,12,41,837
1135831,5396812,5770536,5413122,5773570,3800,2835,1328,454,357,937,93,3887,12,41,837
1136832,5396820,5770724,5413319,5773767,3800,2865,1451,625,304,985,-55,3912,3,31,836
1137833,5396828,5770896,5413516,5773964,3800,2977,1530,901,257,1067,-185,4153,3,31,836
1138834,5396844,5771044,5413713,5774161,3800,3148,1537,1232,221,1180,-137,4383,11,39,838
1139835,5396836,5771220,5413910,5774358,3800,2984,1486,1593,209,1393,-253,4577,11,39,838
1140836,5396844,5771388,5414107,5774555,3800,3046,1391,1993,209,1631,-338,4697,16,41,836
1141837,5396836,5771524,5414304,5774752,3800,3274,1280,2373,212,1852,-205,4616,16,41,836
1142838,5396840,5771704,5414501,5774949,3800,3008,1182,2618,196,2051,-99,4223,-5,49,837
1143839,5396852,5771876,5414698,5775146,3800,3069,1103,2746,145,2140,-117,3818,-5,49,837
1144840,5396844,5772056,5414895,5775343,3800,3027,1045,2746,56,2108,-92,3466,13,35,836
1145841,5396848,5772232,5415092,5775540,3800,3061,985,2644,-59,2117,-176,3199,13,35,836
1146842,5396852,5772420,5415289,5775737,3800,2991,906,2477,-179,2063,-379,3061,15,37,837
1147843,5396848,5772572,5415486,5775934,3800,3237,810,2298,-278,1975,-642,3139,15,37,837
1148844,5396852,5772756,5415683,5776131,3800,3043,699,2166,-359,1922,-699,3207,-1,31,836
1149845,5396844,5772916,5415880,5776328,3800,3210,576,2017,-430,1814,-677,3232,-1,31,836
1150846,5396836,5773088,5416077,5776525,3800,3147,438,1923,-501,1600,-611,3380,13,33,836
1151847,5396856,5773252,5416274,5776722,3800,3211,293,1831,-574,1363,-494,3356,13,33,836
1152848,5396852,5773396,5416471,5776919,3800,3361,145,1725,-648,1092,-395,3326,5,42,835
1153849,5396848,5773540,5416668,5777116,3800,3385,-3,1597,-705,828,-326,3388,5,42,835
1154850,5396864,5773700,5416865,5777313,3800,3301,-154,1479,-741,568,-215,3387,14,38,836
1155851,5396852,5773876,5417062,5777510,3800,3211,-291,1317,-760,262,-182,3269,14,38,836
1156852,5396852,5774028,5417259,5777707,3800,3382,-422,1214,-745,-77,-211,3464,13,32,835
1157853,5396856,5774172,5417456,5777904,3800,3456,-547,1132,-693,-368,-226,3520,13,32,835
1158854,5396840,5774356,5417653,5778101,3800,3212,-680,1095,-611,-575,-264,3680,7,41,835
1159855,5396852,5774504,5417850,5778298,3800,3460,-810,1035,-510,-857,-251,3691,7,41,835
1160856,5396848,5774656,5418047,5778495,3800,3456,-927,934,-409,-1100,-134,3594,-1,25,833
1161857,5396856,5774812,5418244,5778692,3800,3449,-1027,775,-320,-1376,-76,3444,-1,25,833
1162858,5396848,5774944,5418441,5778889,3800,3628,-1111,599,-214,-1597,-134,3412,-6,40,834
1163859,5396852,5775076,5418638,5779086,3800,3658,-1186,409,-90,-1739,-218,3324,-6,40,834
1164860,5396848,5775212,5418835,5779283,3800,3661,-1243,167,57,-1896,-297,3204,11,39,834
1165861,5396856,5775356,5419032,5779480,3800,3634,-1293,-116,233,-1970,-332,3263,11,39,834
1166875,5396852,5775472,5419229,5779677,3800,3800,-1335,-416,418,-2007,-340,3183,15,34,832
1167876,5396852,5775592,5419426,5779874,3800,3800,-1352,-756,589,-2046,-304,3063,15,34,832
1168877,5396840,5775704,5419623,5780071,3800,3800,-1342,-1108,746,-2048,-230,3139,15,23,833
1169878,5396848,5775820,5419820,5780268,3800,3800,-1315,-1416,895,-2035,-219,3286,15,23,833
1170879,5396848,5775900,5420017,5780465,3800,3800,-1280,-1683,1035,-2001,-269,3447,15,14,830
1171880,5396848,5775992,5420214,5780662,3800,3800,-1237,-1921,1168,-2010,-385,3589,15,14,830
1172888,5396848,5776072,5420444,5780892,3800,3800,-1189,-2173,1290,-1895,-404,3717,16,13,831
1173882,5396852,5776136,5420641,5781089,3800,3800,-1131,-2377,1390,-1722,-335,3814,16,13,831
1174883,5396856,5776212,5420838,5781286,3800,3800,-1063,-2569,1465,-1587,-306,3926,15,23,830
1175883,5396848,5776260,5421035,5781483,3800,3800,-995,-2673,1521,-1415,-277,4140,15,23,830
1176884,5396852,5776328,5421232,5781680,3800,3800,-930,-2744,1552,-1209,-186,4284,5,23,830
1177885,5396860,5776376,5421429,5781877,3800,3800,-864,-2770,1553,-1012,-106,4448,5,23,830
1178887,5396848,5776412,5421626,5782074,3800,3800,-799,-2794,1532,-825,-59,4601,15,12,830
1179888,5396856,5776432,5421823,5782271,3800,3800,-747,-2751,1481,-616,91,4849,15,12,830
1180888,5396860,5776448,5422020,5782468,3800,3800,-712,-2624,1379,-454,464,5108,14,11,829
1181889,5396848,5776480,5422217,5782665,3800,3800,-685,-2449,1257,-178,507,5125,14,11,829
1182890,5396856,5776500,5422414,5782862,3800,3800,-648,-2274,1130,246,696,5106,14,0,829
1183891,5396864,5776504,5422611,5783059,3800,3800,-598,-2115,998,589,847,5180,14,0,829
1184892,5396860,5776532,5422808,5783256,3800,3800,-555,-1954,862,759,732,5262,14,4,829
1185893,5396856,5776536,5423005,5783453,3800,3800,-521,-1804,732,860,502,5209,14,4,829
1186895,5396860,5776568,5423202,5783650,3800,3800,-466,-1681,612,986,430,5011,9,13,830
1187896,5396860,5776600,5423399,5783847,3800,3800,-384,-1591,491,1057,214,4873,9,13,830
1188897,5396888,5776628,5423596,5784044,3800,3800,-286,-1482,371,1089,-45,4830,12,3,830
1189898,5396924,5776660,5423793,5784241,3800,3800,-173,-1384,271,1050,-270,4772,12,3,830
1190899,5396992,5776696,5423990,5784438,3800,3800,-38,-1282,174,1012,-297,4652,11,16,828
1191900,5397116,5776704,5424187,5784635,3800,3800,128,-1304,74,1165,-186,4288,11,16,828
1192901,5397252,5776696,5424384,5784832,3800,3800,340,-1467,-12,1299,-281,3933,20,14,830
1193902,5397448,5776724,5424581,5785029,3800,3800,555,-1598,-55,1017,-1522,4305,20,14,830
1194903,5397660,5776720,5424778,5785226,3800,3800,719,-1380,-82,316,-2668,5032,49,12,832
1195904,5397844,5776732,5424975,5785423,3800,3800,851,-1120,-122,-13,-2731,4945,49,12,832
1196905,5398104,5776728,5425172,5785620,3800,3800,951,-726,-119,509,-2405,5456,58,3,832
1197906,5398324,5776720,5425369,5785817,3800,3800,1027,-324,-105,1081,-1361,5144,58,3,832
1198907,5398520,5776732,5425566,5786014,3800,3800,1152,-193,-158,1371,-87,4269,59,8,832
1199908,5398740,5776736,5425763,5786211,3800,3800,1310,-131,-330,1250,443,4253,59,8,832
1200909,5398948,5776740,5425960,5786408,3800,3800,1444,-71,-562,1005,-15,4229,56,-1,833
1201910,5399112,5776752,5426157,5786605,3800,3800,1542,23,-705,1347,-522,4313,56,-1,833
1202911,5399252,5776752,5426354,5786802,3800,3800,1604,159,-713,1823,-584,4261,45,12,831
1203912,5399396,5776752,5426551,5786999,3800,3800,1659,177,-693,1999,-319,3937,45,12,831
1204913,5399508,5776760,5426748,5787196,3800,3800,1685,251,-736,2237,56,4202,26,9,830
1205914,5399604,5776784,5426945,5787393,3800,3800,1695,355,-834,2566,468,4050,26,9,830
1206915,5399684,5776788,5427142,5787590,3800,3800,1685,413,-967,2827,673,4015,22,5,830
1207916,5399748,5776768,5427339,5787787,3800,3800,1674,495,-1142,2872,740,3871,22,5,830
1208917,5399800,5776792,5427536,5787984,3800,3800,1654,505,-1300,2894,430,3823,26,14,830
1209918,5399852,5776796,5427733,5788181,3800,3800,1605,602,-1389,3124,369,4034,26,14,830
1210919,5399868,5776816,5427930,5788378,3800,3800,1533,672,-1448,3046,427,3890,13,11,830
1211920,5399868,5776844,5428127,5788575,3800,3800,1456,747,-1530,2932,342,3892,13,11,830
1212921,5399880,5776860,5428324,5788772,3800,3800,1349,891,-1621,3012,289,4125,12,8,830
1213922,5399884,5776896,5428521,5788969,3800,3800,1225,1074,-1690,2922,338,4082,12,8,830
1214923,5399880,5776924,5428718,5789166,3800,3800,1113,1235,-1734,2725,355,4016,14,2,829
1215924,5399876,5776976,5428915,5789363,3800,3800,1015,1363,-1753,2583,400,3806,14,2,829
1216925,5399892,5777028,5429112,5789560,3800,3800,893,1464,-1730,2382,502,3929,13,14,830
1217926,5399880,5777068,5429309,5789757,3800,3800,733,1614,-1671,2174,764,4015,13,14,830
1218927,5399888,5777080,5429506,5789954,3800,3800,573,1723,-1602,1843,1023,3761,13,4,827
1219928,5399888,5777096,5429703,5790151,3800,3800,419,1905,-1510,1501,1069,3944,13,4,827
1220929,5399892,5777124,5429900,5790348,3800,3800,270,2132,-1380,1117,1101,3919,12,-1,829
1221930,5399896,5777128,5430097,5790545,3800,3800,127,2309,-1209,614,1003,3786,12,-1,829
1222931,5399908,5777172,5430294,5790742,3800,3800,-5,2445,-1007,101,773,3697,14,3,829
1223932,5399904,5777176,5430491,5790939,3800,3800,-129,2541,-771,-398,444,3625,14,3,829
1224933,5399904,5777208,5430688,5791136,3800,3800,-258,2687,-495,-864,68,3701,16,5,828
1225934,5399928,5777280,5430885,5791333,3800,3800,-387,2847,-200,-1401,-208,3607,16,5,828
1226935,5399924,5777324,5431082,5791530,3800,3800,-498,3013,95,-1859,-542,3551,12,18,829
1227936,5399928,5777400,5431279,5791727,3800,3800,-591,3164,386,-2291,-820,3627,12,18,829
1228937,5399932,5777476,5431476,5791924,3800,3800,-669,3295,682,-2675,-1154,3541,10,11,830
1229938,5399924,5777536,5431673,5792121,3800,3800,-737,3345,990,-2945,-1454,3377,10,11,830
1230939,5399936,5777628,5431870,5792318,3800,3800,-788,3355,1297,-3238,-1616,3182,16,20,830
1231940,5399956,5777708,5432067,5792515,3800,3800,-816,3276,1591,-3387,-1720,2971,16,20,830
1232941,5399960,5777804,5432264,5792712,3800,3800,-823,3156,1863,-3448,-1736,2737,13,32,830
1233942,5399956,5777912,5432461,5792909,3800,3800,-818,2939,2102,-3463,-1712,2594,13,32,830
1234943,5399988,5777984,5432658,5793106,3800,3800,-803,2700,2318,-3367,-1676,2624,15,15,828
1235944,5400008,5778060,5432855,5793303,3800,3800,-771,2408,2490,-3195,-1521,2536,15,15,828
1236945,5400044,5778152,5433052,5793500,3800,3800,-720,2096,2625,-3021,-1418,2511,21,27,829
1237946,5400104,5778212,5433249,5793697,3800,3800,-647,1809,2726,-2813,-1152,2657,21,27,829
1238947,5400168,5778320,5433446,5793894,3800,3800,-558,1575,2740,-2611,-954,2778,8,17,831
1239948,5400252,5778404,5433643,5794091,3800,3800,-455,1359,2643,-2410,-886,2966,8,17,831
1240949,5400332,5778468,5433840,5794288,3800,3800,-368,1136,2465,-2109,-781,3007,28,26,829
1241950,5400404,5778504,5434037,5794485,3800,3800,-305,867,2243,-1737,-485,2952,28,26,829
1242950,5400496,5778532,5434234,5794682,3800,3800,-264,563,2011,-1333,-323,2996,30,15,831
1243952,5400588,5778572,5434431,5794879,3800,3800,-225,244,1749,-971,-165,3009,30,15,831
1244953,5400692,5778600,5434628,5795076,3800,3800,-182,-106,1442,-572,63,2950,32,15,831
1245954,5400792,5778620,5434825,5795273,3800,3800,-146,-472,1092,-134,271,2850,32,15,831
1246955,5400896,5778628,5435022,5795470,3800,3800,-122,-887,714,300,337,2865,35,13,829
1247956,5401004,5778664,5435219,5795667,3800,3800,-126,-1266,323,643,484,3079,35,13,829
1248957,5401100,5778692,5435416,5795864,3800,3800,-155,-1646,-57,824,769,3141,13,4,829
1249958,5401180,5778712,5435613,5796061,3800,3800,-208,-1984,-418,1006,926,3237,13,4,829
1250959,5401284,5778760,5435810,5796258,3800,3800,-284,-2311,-744,1194,895,3365,21,16,831
1251960,5401372,5778760,5436007,5796455,3800,3800,-371,-2576,-1023,1299,849,3490,21,16,831
1252961,5401448,5778776,5436204,5796652,3800,3800,-455,-2833,-1262,1340,856,3585,27,10,830
1253962,5401544,5778772,5436401,5796849,3800,3800,-526,-3094,-1477,1306,769,3554,27,10,830
1254963,5401632,5778784,5436598,5797046,3800,3800,-612,-3279,-1641,1323,566,4079,30,0,830
1255973,5401708,5778800,5436828,5797276,3800,3800,-757,-3254,-1711,1383,379,4743,30,0,830
1256965,5401796,5778812,5437025,5797473,3800,3800,-916,-3164,-1747,1185,344,4692,24,16,830
1257966,5401892,5778844,5437222,5797670,3800,3800,-1037,-3102,-1803,994,446,4492,24,16,830
1258967,5402016,5778868,5437419,5797867,3800,3800,-1135,-3047,-1829,926,263,4589,29,17,829
1259968,5402116,5778904,5437616,5798064,3800,3800,-1248,-2945,-1799,793,183,4763,29,17,829
1260969,5402236,5778956,5437813,5798261,3800,3800,-1373,-2793,-1744,654,452,5029,27,13,831
1261970,5402352,5778984,5438010,5798458,3800,3800,-1502,-2594,-1656,686,470,5179,27,13,831
1262971,5402468,5779044,5438207,5798655,3800,3800,-1590,-2345,-1495,839,391,5107,19,12,831
1263972,5402556,5779100,5438404,5798852,3800,3800,-1647,-2140,-1324,706,606,5082,19,12,831
1264972,5402676,5779176,5438601,5799049,3800,3800,-1691,-1933,-1168,586,617,5133,16,24,831
1265974,5402748,5779228,5438798,5799246,3800,3800,-1722,-1767,-1012,564,566,5024,16,24,831
1266975,5402868,5779288,5438995,5799443,3800,3800,-1718,-1618,-844,457,439,4944,12,20,831
1267975,5402976,5779348,5439192,5799640,3800,3800,-1558,-1465,-646,193,130,5865,12,20,831
1268977,5403088,5779428,5439389,5799837,3800,3800,218,705,67,-317,-535,11164,17,27,830
1269978,5403224,5779492,5439586,5800034,3800,3800,651,817,275,296,244,3742,17,27,830
1270979,5403348,5779548,5439783,5800231,3800,3800,716,206,412,435,138,2937,25,11,830
1271979,5403492,5779632,5439980,5800428,3800,3800,754,-375,602,461,-472,3092,25,11,830
1272981,5403652,5779692,5440177,5800625,3800,3800,855,-728,839,351,-635,3284,43,27,829
1273982,5403796,5779748,5440374,5800822,3800,3800,992,-903,1102,356,-916,3458,43,27,829
1274983,5403948,5779816,5440571,5801019,3800,3800,1132,-1035,1327,400,-638,3544,43,26,831
1275984,5404092,5779880,5440768,5801216,3800,3800,1250,-1041,1496,181,-400,3925,43,26,831
1276985,5404212,5779932,5440965,5801413,3800,3800,1361,-938,1624,11,-323,4195,31,16,831
1277986,5404348,5779996,5441162,5801610,3800,3800,1442,-746,1708,112,-290,4507,31,16,831
1278987,5404496,5780044,5441359,5801807,3800,3800,1487,-418,1785,215,-219,4988,20,17,832
1279988,5404612,5780116,5441556,5802004,3800,3800,1517,19,1846,162,-233,5213,20,17,832
1280989,5404760,5780212,5441753,5802201,3800,3800,1549,437,1841,98,-358,5073,39,18,831
1281990,5404904,5780292,5441950,5802398,3800,3800,1591,821,1794,124,-382,5130,39,18,831
1282991,5405028,5780384,5442147,5802595,3800,3800,1618,1257,1712,270,-245,5141,27,15,832
1283991,5405144,5780468,5442344,5802792,3800,3800,1613,1571,1574,420,-106,4741,27,15,832
1284993,5405256,5780560,5442541,5802989,3800,3800,1595,1757,1400,655,115,4487,20,30,832
1285994,5405352,5780648,5442738,5803186,3800,3800,1564,1846,1196,1027,482,4185,20,30,832
1286995,5405452,5780748,5442935,5803383,3800,3800,1526,1846,964,1413,764,3798,22,23,832
1287995,5405536,5780848,5443132,5803580,3800,3800,1492,1721,698,1681,1077,3411,22,23,832
1288997,5405624,5780964,5443329,5803777,3800,3800,1459,1460,390,1883,1263,2962,11,20,831
1289998,5405724,5781072,5443526,5803974,3800,3800,1405,1074,57,2180,1334,2637,11,20,831
1290999,5405788,5781184,5443723,5804171,3800,3800,1330,635,-242,2379,1244,2412,8,29,830
1292000,5405868,5781284,5443920,5804368,3800,3800,1242,80,-476,2434,1081,2246,8,29,830
1293001,5405932,5781384,5444117,5804565,3800,3800,1140,-421,-671,2554,907,2430,25,31,830
1294002,5406032,5781488,5444314,5804762,3800,3800,1012,-841,-844,2558,873,2535,25,31,830
1295003,5406100,5781588,5444511,5804959,3800,3800,843,-1133,-996,2466,691,2894,26,29,831
1296004,5406212,5781656,5444708,5805156,3800,3800,626,-1279,-1116,2350,501,3349,26,29,831
1297005,5406320,5781732,5444905,5805353,3800,3800,387,-1320,-1181,2172,501,3616,12,24,831
1298006,5406428,5781808,5445102,5805550,3800,3800,156,-1282,-1230,1856,643,3769,12,24,831
1299007,5406544,5781896,5445299,5805747,3800,3800,-66,-1257,-1263,1586,732,3756,21,25,832
1300007,5406676,5782004,5445496,5805944,3800,3800,-285,-1168,-1253,1276,708,3985,21,25,832
1301009,5406816,5782096,5445693,5806141,3800,3800,-489,-1019,-1221,894,796,3980,33,15,832
1302010,5406940,5782204,5445890,5806338,3800,3800,-651,-875,-1183,466,866,3790,33,15,832
1303011,5407072,5782316,5446087,5806535,3800,3800,-778,-766,-1124,61,850,3808,20,24,831
1304011,5407212,5782424,5446284,5806732,3800,3800,-878,-650,-1040,-245,746,3753,20,24,831
1305013,5407364,5782568,5446481,5806929,3800,3800,-960,-555,-925,-615,567,3735,28,34,832
1306014,5407496,5782732,5446678,5807126,3800,3800,-1027,-403,-763,-904,379,3790,28,34,832
1307015,5407648,5782860,5446875,5807323,3800,3800,-1078,-290,-555,-1035,292,3623,32,23,832
1308016,5407776,5782996,5447072,5807520,3800,3800,-1100,-178,-313,-1159,199,3517,32,23,832
1309017,5407924,5783096,5447269,5807717,3800,3800,-1087,-133,-50,-1297,59,3351,37,28,832
1310017,5408064,5783208,5447466,5807914,3800,3800,-1034,-134,219,-1455,-138,3203,37,28,832
1311018,5408248,5783328,5447663,5808111,3800,3800,-952,-176,491,-1530,-245,3206,39,19,832
1312019,5408428,5783444,5447860,5808308,3800,3800,-833,-255,747,-1451,-214,2996,39,19,832
1313020,5408672,5783588,5448057,5808505,3800,3800,-652,-463,967,-1201,197,2580,56,25,831
1314022,5408944,5783728,5448254,5808702,3800,3800,-432,-909,1175,-1112,-95,2288,56,25,831
1315022,5409276,5783868,5448451,5808899,3800,3800,-286,-1056,1399,-1103,-1428,3415,69,29,833
1316023,5409608,5784040,5448648,5809096,3800,3800,-153,-992,1586,-1475,-1384,3312,69,29,833
1317024,5409988,5784200,5448845,5809293,3800,3800,-12,-1099,1744,-1474,-1785,3362,71,41,834
1318026,5410380,5784364,5449042,5809490,3800,3800,74,-950,1834,-725,-1267,4125,71,41,834
1319027,5410784,5784524,5449239,5809687,3800,3800,207,-1080,1839,-814,-345,2905,81,34,835
1320028,5411264,5784688,5449436,5809884,3800,3800,355,-1203,1730,-646,84,3717,81,34,835
1321029,5411728,5784856,5449633,5810081,3800,3800,433,-1111,1532,-244,278,4093,92,39,836
1322030,5412144,5785068,5449830,5810278,3800,3800,495,-1215,1289,203,588,3538,92,39,836
1323031,5412672,5785312,5450027,5810475,3800,3800,531,-1192,998,613,851,3854,85,55,836
1324032,5413144,5785544,5450224,5810672,3800,3800,539,-1388,685,664,1137,3410,85,55,836
1325033,5413600,5785788,5450421,5810869,3800,3800,477,-1532,382,1196,1767,3850,108,45,835
1326034,5414136,5786020,5450618,5811066,3800,3800,372,-1560,128,1886,2044,3895,108,45,835
1327035,5414608,5786272,5450815,5811263,3800,3800,282,-1750,-118,2101,2201,3370,105,54,835
1328036,5415096,5786484,5451012,5811460,3800,3800,196,-1919,-370,2169,2236,3665,105,54,835
1329037,5415636,5786804,5451209,5811657,3800,3800,118,-2216,-608,2076,2098,3210,100,55,838
1330038,5416116,5787104,5451406,5811854,3800,3800,0,-2443,-808,2332,1767,3751,100,55,838
1331039,5416616,5787376,5451603,5812051,3800,3800,-109,-2594,-939,2422,1388,3512,106,59,837
1332039,5417152,5787636,5451800,5812248,3800,3800,-164,-2959,-1042,1894,940,3078,106,59,837
1333041,5417712,5787928,5451997,5812445,3800,3800,-238,-3083,-1125,1492,-43,4062,116,57,837
1334042,5418208,5788272,5452194,5812642,3800,3800,-337,-3053,-1159,1001,-769,4141,116,57,837
1335043,5418792,5788572,5452391,5812839,3800,3800,-397,-2998,-1155,531,-1168,4153,115,60,837
1336044,5419380,5788856,5452588,5813036,3800,3800,-440,-2964,-1125,342,-1462,4270,115,60,837
1337045,5420000,5789104,5452785,5813233,3800,3800,-420,-2979,-1042,-12,-1480,4147,126,71,838
1338046,5420568,5789480,5452982,5813430,3800,3800,-387,-2970,-933,-58,-1110,4271,126,71,838
1339054,5421224,5789812,5453212,5813660,3800,3800,-304,-3077,-799,-137,-686,3681,131,57,839
1340048,5421828,5790092,5453409,5813857,3800,3800,-164,-3276,-614,-118,-460,3585,131,57,839
1341049,5422408,5790360,5453606,5814054,3800,3800,-17,-3474,-369,-196,-346,3592,131,59,839
1342050,5423052,5790664,5453803,5814251,3800,3800,176,-3681,-77,-555,-478,3368,131,59,839
1343051,5423700,5790992,5454000,5814448,3800,3800,376,-3986,251,-1060,-824,3353,139,67,840
1344052,5424244,5791348,5454197,5814645,3800,3800,596,-4129,610,-1715,-1181,3730,139,67,840
1345053,5424888,5791640,5454394,5814842,3800,3800,833,-4241,993,-2273,-1298,3905,130,55,839
1346054,5425376,5791896,5454591,5815039,3800,3800,1127,-4249,1387,-2470,-1133,3978,130,55,839
1347055,5425860,5792196,5454788,5815236,3800,3800,1440,-4293,1802,-2616,-1505,4168,129,57,838
1348056,5426368,5792544,5454985,5815433,3800,3800,1730,-4082,2234,-2377,-1710,4687,129,57,838
1349057,5426804,5792908,5455182,5815630,3800,3800,1992,-4043,2658,-1829,-1473,4002,111,61,838
1350058,5427216,5793220,5455379,5815827,3800,3800,2269,-4013,3069,-1425,-1534,4029,111,61,838
1351059,5427676,5793516,5455576,5816024,3800,3800,2527,-3958,3467,-1136,-1488,4017,82,71,837
1352060,5428020,5793912,5455773,5816221,3800,3800,2790,-4016,3843,-516,-1770,3597,82,71,837
