"Data file recorded 2014/9/24  16:44:48"
"%  Right Stride Frequency         = 9.0"
"%  Left Stride Frequency         = 9.0"
"%  Phase (Fractional)         = 32768.0"
"%  Experiment.py "
"%  Motor Gains    = [1800, 200, 100, 0, 0, 1800, 200, 100, 0, 0]
"% Columns: "
"% time | Right Leg Pos | Left Leg Pos | Commanded Right Leg Pos | Commanded Left Leg Pos | DCR | DCL | GyroX | GryoY | GryoZ | AX | AY | AZ | RBEMF | LBEMF | VBatt "
11710,3605228,3645608,3625410,3658178,3800,3800,-416,-481,582,536,-350,4048,-13,-9,847
12704,3605236,3645600,3626016,3658784,3800,3800,-419,-484,581,527,-362,4067,-2,7,848
13705,3605276,3645656,3626622,3659390,3800,3800,-419,-489,586,518,-397,4089,-2,7,848
14706,3605428,3645756,3627228,3659996,3800,3800,-415,-508,597,536,-640,4114,26,21,814
15707,3605700,3645904,3627834,3660602,3800,3800,-397,-495,609,593,-1135,4063,26,21,814
16708,3605936,3646092,3628440,3661208,3800,3800,-360,-501,617,720,-1401,4024,39,44,814
17709,3606316,3646360,3629046,3661814,3800,3800,-327,-517,621,805,-1422,4003,39,44,814
18710,3606728,3646628,3629652,3662420,3800,3800,-309,-537,614,899,-1431,3976,66,50,816
19712,3607168,3646952,3630258,3663026,3800,3800,-300,-553,592,1139,-1200,3982,66,50,816
20712,3607628,3647304,3630864,3663632,3800,3800,-304,-636,572,1490,-998,3703,83,79,817
21713,3608156,3647656,3631470,3664238,3800,3800,-304,-805,534,1686,-955,3510,83,79,817
22714,3608684,3648052,3632076,3664844,3800,3800,-330,-830,489,1754,-1087,3877,111,81,818
23715,3609344,3648444,3632682,3665450,3800,3800,-361,-871,454,1969,-908,3673,111,81,818
24716,3609920,3648816,3633288,3666056,3800,3800,-366,-923,440,2349,-689,3506,99,75,819
25717,3610576,3649292,3633894,3666662,3800,3800,-354,-1008,427,2505,-347,3381,99,75,819
26718,3611300,3649728,3634500,3667268,3800,3800,-297,-1134,346,2715,376,3071,132,100,819
27719,3612024,3650196,3635106,3667874,3800,3800,-253,-1189,205,2809,1164,3186,132,100,819
28720,3612764,3650668,3635712,3668480,3800,3800,-209,-1171,37,2930,1177,3073,136,95,821
29721,3613620,3651168,3636318,3669086,3800,3800,-197,-1048,-118,2991,439,3484,136,95,821
30722,3614444,3651660,3636924,3669692,3800,3800,-152,-683,-263,2567,-416,3800,165,108,820
31723,3615240,3652224,3637530,3670298,3800,3800,-101,-300,-443,1622,-161,3837,165,108,820
32724,3616088,3652696,3638136,3670904,3800,3800,-86,67,-685,1190,483,3898,168,100,821
33726,3616848,3653192,3638742,3671510,3800,3800,-132,496,-903,1195,1196,4119,168,100,821
34727,3617584,3653716,3639348,3672116,3800,3800,-291,932,-972,1265,1082,3854,159,119,822
35728,3618436,3654192,3639954,3672722,3800,3800,-407,1258,-911,839,556,3051,159,119,822
36728,3619176,3654804,3640560,3673328,3800,3800,-464,1157,-747,266,-17,2073,159,113,821
37737,3619944,3655544,3641794,3674562,3800,3800,-439,1009,-508,303,-482,2160,159,113,821
38730,3620592,3656024,3642400,3675168,3800,3800,-425,984,-176,328,-925,2362,162,119,821
39731,3621276,3656528,3643006,3675774,3800,3800,-380,1006,230,252,-1852,2299,162,119,821
40732,3621920,3657032,3643612,3676380,3800,3800,-298,1041,671,132,-2458,2535,149,117,822
41734,3622608,3657712,3644218,3676986,3800,3800,-234,1082,1054,188,-1903,2465,149,117,822
42735,3623212,3658344,3644824,3677592,3800,3800,-118,1246,1511,726,-1800,2820,144,133,822
43735,3623804,3659120,3645430,3678198,3800,3800,43,1551,2077,651,-1522,3247,144,133,822
44736,3624416,3659812,3646036,3678804,3800,3800,218,1909,2642,526,-1436,3571,140,142,823
45737,3624956,3660580,3646642,3679410,3800,3800,364,2414,3151,671,-1439,4195,140,142,823
46738,3625520,3661372,3647248,3680016,3800,3800,497,3092,3559,534,-1114,4555,141,153,823
47739,3626144,3662224,3647854,3680622,3800,3800,588,3951,3795,353,-382,5066,141,153,823
48740,3626700,3662932,3648460,3681228,3800,3800,688,4768,3964,161,0,5564,130,145,822
49741,3627240,3663592,3649066,3681834,3800,3800,793,5959,4149,314,-478,6905,130,145,822
50742,3627792,3664160,3649672,3682440,3800,3800,849,7435,4306,303,-288,7254,130,124,823
51743,3628408,3664672,3650278,3683046,3800,3800,925,8855,4374,-167,483,7229,130,124,823
52744,3628980,3665160,3650884,3683652,3800,3800,908,10164,4200,-587,1609,7507,120,103,821
53745,3629528,3665508,3651490,3684258,3800,3800,803,11440,3762,-832,2431,7429,120,103,821
54746,3630124,3665824,3652096,3684864,3800,3800,638,12689,2941,-957,4671,7285,117,67,819
55747,3630692,3666060,3652702,3685470,3800,3800,238,13656,1526,-1513,7173,6469,117,67,819
56748,3631264,3666248,3653308,3686076,3800,3800,-310,14147,-272,-2042,7376,5272,121,50,818
57749,3631836,3666372,3653914,3686682,3800,3800,-825,14193,-2072,-1995,6765,4066,121,50,818
58750,3632416,3666472,3654520,3687288,3800,3800,-1313,13848,-3661,-1753,5326,3102,118,27,816
59751,3633000,3666560,3655126,3687894,3800,3800,-1798,13210,-4937,-1400,3676,2481,118,27,816
60752,3633620,3666620,3655732,3688500,3800,3800,-2268,12290,-5874,-912,1642,1721,124,18,815
61753,3634208,3666668,3656338,3689106,3800,3800,-2696,11180,-6522,-581,629,1859,124,18,815
62754,3634844,3666712,3656944,3689712,3800,3800,-1272,10656,-6737,-3266,-1476,19504,131,23,816
63755,3635520,3666756,3657550,3690318,3800,3800,4374,10372,-6076,-8909,-6498,32767,131,23,816
64763,3636164,3666780,3658178,3690946,3800,3800,9135,9281,-5479,-3518,-3322,22419,143,9,816
65757,3636864,3666844,3658784,3691552,3800,3800,9578,7182,-5517,1017,1356,-310,143,9,816
66758,3637636,3666932,3659390,3692158,3800,3800,7823,5230,-5778,1883,786,277,148,29,817
67759,3638360,3667032,3659996,3692764,3800,3800,5584,4337,-5634,2306,-727,3715,148,29,817
68760,3639136,3667176,3660602,3693370,3800,3800,3410,4170,-5089,2271,-581,5086,133,24,817
69761,3639996,3667328,3661208,3693976,3800,3800,1816,3158,-4813,1422,-156,947,133,24,817
70762,3640792,3667508,3661814,3694582,3800,3800,1178,352,-5028,329,-184,-3629,165,46,817
71763,3641688,3667696,3662420,3695188,3800,3800,1014,-3101,-5503,130,600,-3536,165,46,817
72764,3642680,3667932,3663026,3695794,3800,3800,828,-5993,-5810,-97,-129,-2154,165,47,819
73765,3643624,3668176,3663632,3696400,3800,3800,436,-7792,-5726,-264,-1321,337,165,47,819
74767,3644548,3668464,3664238,3697006,3800,3800,6,-8783,-5383,-410,-1703,1615,196,57,820
75767,3645560,3668728,3664844,3697612,3800,3800,-377,-9267,-5009,-1075,-1937,3328,196,57,820
76768,3646616,3669012,3665450,3698218,3800,3800,-714,-9380,-4749,-2056,-2163,4377,196,59,821
77769,3647664,3669324,3666056,3698824,3800,3800,-999,-9396,-4638,-3153,-2243,4798,196,59,821
78770,3648676,3669672,3666662,3699430,3800,3800,-1232,-9234,-4585,-4281,-3242,5436,180,80,822
79771,3649852,3670064,3667268,3700036,3800,3800,-1438,-8709,-4494,-5091,-4269,6480,180,80,822
80772,3650876,3670448,3667874,3700642,3800,3800,-1583,-7980,-4354,-5823,-4863,6776,191,82,822
81773,3651932,3670848,3668480,3701248,3800,3800,-1612,-7272,-4183,-6339,-5501,6674,191,82,822
82775,3653004,3671272,3669086,3701854,3800,3800,-1540,-6530,-3997,-6707,-5719,7004,216,94,823
83775,3653976,3671680,3669692,3702460,3800,3800,-1337,-5822,-3804,-7079,-5536,6520,216,94,823
84776,3654956,3672076,3670298,3703066,3800,3800,-997,-5268,-3564,-7457,-5253,5901,208,109,824
85777,3655992,3672532,3670904,3703672,3800,3800,-561,-4975,-3236,-8185,-4951,5400,208,109,824
86778,3656896,3672924,3671510,3704278,3800,3800,-115,-4694,-2779,-8844,-4520,5741,204,96,824
87779,3657808,3673328,3672116,3704884,3800,3800,364,-4629,-2191,-9363,-4353,4744,204,96,824
88780,3658736,3673684,3672722,3705490,3800,3800,878,-4934,-1484,-9297,-3848,3884,189,95,823
89781,3659568,3674028,3673328,3706096,3800,3800,1402,-5514,-661,-8194,-3472,3096,189,95,823
90782,3660396,3674348,3673934,3706702,3800,3800,1896,-6519,197,-6356,-3096,1420,167,78,822
91792,3661236,3674656,3674562,3707330,3800,3800,2404,-8127,935,-4068,-2283,-490,167,78,822
92784,3662000,3674964,3675168,3707936,3800,3800,2968,-10110,1539,-1772,-1003,-1864,171,77,820
93785,3662776,3675232,3675774,3708542,3800,3800,3479,-12391,2027,-319,-40,-2870,171,77,820
94786,3663548,3675472,3676380,3709148,3800,3800,3877,-14643,2514,681,352,-2281,155,61,818
95787,3664316,3675720,3676986,3709754,3800,3800,4027,-16417,3134,1845,305,-597,155,61,818
96788,3664964,3675944,3677592,3710360,3800,3800,4075,-17520,3747,2812,1140,544,151,47,819
97789,3665788,3676148,3678198,3710966,3800,3800,4135,-18330,4149,3195,2383,572,151,47,819
98790,3666448,3676320,3678804,3711572,3800,3800,4352,-19146,4419,3324,2145,344,139,42,818
99792,3667200,3676456,3679410,3712178,3800,3800,4490,-19644,4657,3540,2170,1819,139,42,818
100792,3667920,3676596,3680016,3712784,3800,3800,4526,-19781,4953,3821,2196,2245,147,46,818
101793,3668752,3676744,3680622,3713390,3800,3800,4390,-19481,5232,4312,2565,3531,147,46,818
102794,3669568,3676868,3681228,3713996,3800,3800,3823,-18038,5492,4589,2430,6807,162,30,817
103795,3670376,3676972,3681834,3714602,3800,3800,3427,-17094,5646,4083,2216,3166,162,30,817
104784,3671288,3677092,3682440,3715208,3334,3800,3439,-16148,5755,3876,1182,4134,178,24,817
105785,3672112,3677232,3683046,3715814,3791,3800,3484,-15164,5905,3339,511,4728,178,24,817
106786,3672960,3677368,3683652,3716420,3537,3800,3514,-13630,5989,2827,206,5537,163,39,819
107787,3673820,3677484,3684258,3717026,3353,3800,3382,-11924,5899,1906,329,5726,163,39,819
108788,3674804,3677636,3684864,3717632,2413,3800,3277,-9882,5738,1284,-263,6272,169,29,819
109789,3675680,3677796,3685470,3718238,2972,3800,3082,-7917,5493,1054,-376,5746,169,29,819
110790,3676636,3677924,3686076,3718844,2319,3800,3035,-6276,5186,859,-79,4340,176,42,820
111790,3677576,3678080,3686682,3719450,2274,3800,3016,-4753,4975,1453,-451,4509,176,42,820
112791,3678416,3678232,3687288,3720056,2798,3800,3075,-3384,4882,2388,-602,3590,170,32,822
113792,3679352,3678396,3687894,3720662,2055,3800,3135,-2368,4830,3581,-143,2566,170,32,822
114794,3680164,3678544,3688500,3721268,2741,3800,3249,-1643,4782,4621,370,984,142,35,823
115795,3680952,3678732,3689106,3721874,2813,3800,3413,-1772,4710,4905,729,-1380,142,35,823
116796,3681784,3678904,3689712,3722480,2439,3800,3560,-2442,4598,5499,948,-2442,159,36,823
117797,3682496,3679100,3690318,3723086,3145,3800,3596,-3183,4522,6117,938,-2457,159,36,823
118804,3683204,3679276,3690946,3723714,3136,3800,3555,-3841,4415,6133,1077,-2588,133,49,822
119799,3683928,3679452,3691552,3724320,2986,3800,3351,-4257,3972,5455,2195,-1211,133,49,822
120800,3684604,3679616,3692158,3724926,3256,3800,2550,-3174,3199,4822,2092,5260,125,45,821
121801,3685300,3679800,3692764,3725532,3094,3800,1281,-835,2807,5937,-360,7294,125,45,821
122814,3685884,3680004,3693370,3726138,3800,3800,367,733,3039,6962,-471,2317,125,51,822
123815,3686444,3680228,3693976,3726744,3800,3800,304,170,3095,6176,2572,-3557,125,51,822
124816,3687004,3680440,3694582,3727350,3800,3800,620,-1096,2866,6005,2485,-3302,125,53,819
125817,3687512,3680636,3695188,3727956,3800,3800,520,-1229,2490,6434,3055,602,125,53,819
126818,3688084,3680844,3695794,3728562,3800,3800,-24,-215,2254,6724,2288,2168,105,50,816
127819,3688588,3681028,3696400,3729168,3800,3800,-663,1108,2020,6393,2190,2126,105,50,816
128820,3689080,3681240,3697006,3729774,3800,3800,-1257,2388,1672,5718,1130,2842,120,48,817
129821,3689584,3681448,3697612,3730380,3800,3800,-1876,3605,1211,5509,992,3381,120,48,817
130822,3690036,3681656,3698218,3730986,3800,3800,-2517,4732,696,5321,613,3237,99,54,817
131824,3690512,3681848,3698824,3731592,3800,3800,-3131,5854,202,5520,665,3470,99,54,817
132824,3690996,3682028,3699430,3732198,3800,3800,-3654,7024,-258,5826,904,3705,98,36,816
133825,3691452,3682200,3700036,3732804,3800,3800,-4065,8042,-728,6063,1345,3187,98,36,816
134826,3691884,3682404,3700642,3733410,3800,3800,-4401,8738,-1194,6589,1588,2650,81,49,816
135827,3692320,3682584,3701248,3734016,3800,3800,-4591,9294,-1660,6928,1467,2200,81,49,816
136828,3692748,3682784,3701854,3734622,3800,3800,-4714,9489,-2159,6858,1360,1429,91,41,814
137829,3693168,3682992,3702460,3735228,3800,3800,-4751,9493,-2676,6664,980,897,91,41,814
138830,3693624,3683228,3703066,3735834,3800,3800,-4824,9310,-3155,6356,126,973,79,54,815
139831,3694028,3683432,3703672,3736440,3800,3800,-4902,9254,-3592,6119,-510,1222,79,54,815
140832,3694456,3683632,3704278,3737046,3800,3800,-4982,9162,-4011,5638,-916,1119,76,54,813
141833,3694912,3683852,3704884,3737652,3800,3800,-4957,9020,-4420,5172,-910,933,76,54,813
142834,3695356,3684080,3705490,3738258,3800,3800,-4880,8818,-4833,4626,-781,1287,84,59,816
143835,3695784,3684324,3706096,3738864,3800,3800,-4780,8727,-5213,4123,-867,1541,84,59,816
144836,3696276,3684564,3706702,3739470,3800,3800,-4645,8710,-5519,3520,-874,1705,80,43,816
145844,3696740,3684792,3707330,3740098,3800,3800,-4465,8670,-5766,2762,-762,1786,80,43,816
146838,3697200,3685036,3707936,3740704,3800,3800,-4259,8662,-5973,2185,-730,2130,87,46,815
147839,3697716,3685264,3708542,3741310,3800,3800,-4068,8769,-6123,1966,-731,2459,87,46,815
148840,3698264,3685532,3709148,3741916,3800,3800,-3894,8826,-6241,1942,-403,2252,94,63,815
149841,3698848,3685844,3709754,3742522,3800,3800,-3737,8753,-6343,1873,-41,2026,94,63,815
150842,3699392,3686180,3710360,3743128,3800,3800,-3597,8626,-6409,1472,18,2279,109,76,816
151843,3700048,3686464,3710966,3743734,3800,3800,-3455,8492,-6433,1062,187,2213,109,76,816
152844,3700680,3686820,3711572,3744340,3800,3800,-3309,8338,-6421,748,465,2048,126,75,818
153845,3701340,3687188,3712178,3744946,3800,3800,-3156,8112,-6372,292,631,1950,126,75,818
154846,3702040,3687528,3712784,3745552,3800,3800,-2976,7870,-6317,-674,699,1938,143,80,818
155847,3702744,3687932,3713390,3746158,3800,3800,-2903,7858,-6202,-1802,625,3370,143,80,818
156848,3703492,3688368,3713996,3746764,3800,3800,-2944,7937,-6064,-2692,1219,3165,161,92,820
157836,3704344,3688788,3714602,3747370,3410,3800,-2981,7851,-5974,-3287,1899,2499,161,92,820
158837,3705140,3689216,3715208,3747976,3679,3800,-2968,7746,-5863,-4192,1485,2813,161,94,819
159838,3705920,3689672,3715814,3748582,3704,3800,-2951,7611,-5660,-5357,1018,3256,161,94,819
160839,3706836,3690196,3716420,3749188,2720,3800,-2962,7522,-5357,-6328,706,3597,159,108,822
161840,3707728,3690748,3717026,3749794,2747,3800,-3028,7467,-5027,-6944,378,3628,159,108,822
162841,3708616,3691344,3717632,3750400,2650,3800,-3078,7509,-4653,-7523,-862,3719,181,103,823
163842,3709652,3691960,3718238,3751006,1537,3800,-3029,7185,-4220,-8462,-1894,2936,181,103,823
164844,3710592,3692668,3718844,3751612,1992,3800,-2848,5141,-3759,-10837,-2946,16,179,125,827
165845,3711576,3693384,3719450,3752218,1552,3800,-2502,70,-3157,-13567,-4353,-3460,179,125,827
166846,3712544,3694260,3720056,3752824,1495,3800,-2241,-6374,-2492,-14200,-6078,-2810,180,136,830
167847,3713464,3695008,3720662,3753430,1658,3800,-2259,-11408,-1949,-11138,-7765,389,180,136,830
168848,3714352,3695888,3721268,3754036,1736,3800,-2545,-13295,-1311,-9074,-7954,5680,199,151,831
169849,3715296,3696740,3721874,3754642,1238,3800,-2613,-11794,19,-9985,-5336,11165,199,151,831
170850,3716180,3697664,3722480,3755248,1492,3800,-2462,-8309,1508,-9191,-3733,12217,165,173,830
171851,3716960,3698612,3723086,3755854,2068,3800,-2122,-7013,2498,-7820,-3311,5791,165,173,830
172859,3717836,3699576,3723714,3756482,1360,3800,-1787,-6451,3364,-8560,-2522,8861,177,183,833
173853,3718536,3700548,3724320,3757088,2419,3800,-1465,-6054,4094,-7128,-2190,6856,177,183,833
174854,3719292,3701552,3724926,3757694,2004,3800,-1173,-5936,4567,-5430,-1736,5924,157,193,831
175855,3720068,3702584,3725532,3758300,1806,3800,-745,-5699,5065,-5289,-1114,5743,157,193,831
176856,3720808,3703508,3726138,3758906,1973,3800,-224,-6012,5524,-3424,-1418,3845,167,209,832
177856,3721536,3704628,3726744,3759512,1995,3800,233,-6100,5898,-2096,-1449,5131,167,209,832
178857,3722184,3705676,3727350,3760118,2478,3800,757,-6212,6332,-1747,-1394,4394,154,208,833
179858,3722964,3706548,3727956,3760724,1577,3800,1232,-6402,6652,153,-2069,3965,154,208,833
180859,3723640,3707476,3728562,3761330,2197,3800,1693,-6770,6895,946,-2298,3884,144,208,831
181861,3724376,3708540,3729168,3761936,1766,3800,2233,-7231,7080,1480,-2354,3545,144,208,831
182861,3725120,3709600,3729774,3762542,1657,3800,2783,-7819,6980,2665,-2535,2529,159,185,833
183862,3725824,3710532,3730380,3763148,1865,3800,3363,-8611,6719,2975,-2403,2120,159,185,833
184863,3726492,3711672,3730986,3763754,2063,3800,3833,-9335,6415,4011,-2482,2664,144,221,833
185865,3727224,3712700,3731592,3764360,1608,3800,4221,-9768,6071,5599,-2698,2687,144,221,833
186866,3727928,3713888,3732198,3764966,1741,3800,4538,-9996,5727,5943,-2169,3493,143,220,833
187867,3728592,3714992,3732804,3765572,1966,3800,4867,-10046,5313,6373,-2017,3682,143,220,833
188867,3729280,3716140,3733410,3766178,1781,3800,5120,-9941,4718,6627,-1477,3920,131,205,834
189868,3729860,3717108,3734016,3766784,2469,3800,5357,-9663,4075,6203,-791,4134,131,205,834
190869,3730436,3718112,3734622,3767390,2507,3800,5473,-9138,3439,5913,-447,4650,126,188,832
191870,3731152,3719092,3735228,3767996,1585,3800,5439,-8384,2763,5111,-1420,5054,126,188,832
192871,3731692,3720044,3735834,3768602,2715,3800,5326,-7298,2048,4003,-507,5437,134,198,829
193873,3732332,3721212,3736440,3769208,2076,3800,5136,-6374,1201,3579,1193,4156,134,198,829
194873,3733016,3722160,3737046,3769814,1767,3800,4858,-5875,309,3977,1520,3260,141,216,833
195874,3733628,3723236,3737652,3770420,2215,3800,4528,-5245,-419,4129,1042,3833,141,216,833
196875,3734172,3724288,3738258,3771026,2668,3800,4138,-4447,-912,3785,-371,3808,143,211,831
197877,3734864,3725328,3738864,3771632,1706,3800,3799,-3704,-1285,3344,-1448,3339,143,211,831
198878,3735500,3726436,3739470,3772238,2044,3800,3592,-3005,-1608,2563,-1467,3117,131,217,832
199888,3736100,3727592,3740098,3772866,2281,3800,3550,-2597,-2097,1782,-630,1840,131,217,832
200879,3736692,3728668,3740704,3773472,2339,3800,3548,-2455,-2623,1694,-1079,1287,118,229,834
201881,3737288,3729804,3741310,3774078,2319,3800,3520,-2019,-2840,2026,-1841,2700,118,229,834
202882,3737864,3731040,3741916,3774684,2458,3800,3261,-877,-2590,2747,-2712,4888,115,232,831
203882,3738392,3732160,3742522,3775290,2793,3800,2857,803,-2083,3456,-1802,5572,115,232,831
204883,3738968,3733340,3743128,3775896,2507,3800,2501,2362,-1527,3475,-899,4473,112,231,832
205884,3739596,3734376,3743734,3776502,2173,3800,2422,3146,-1163,3514,431,1811,112,231,832
206886,3740180,3735300,3744340,3777108,2459,3800,2466,3356,-924,4061,1703,762,133,199,829
207886,3740800,3736172,3744946,3777714,2228,3800,2268,3426,-707,4532,2838,541,133,199,829
208887,3741436,3736968,3745552,3778320,2115,3800,1971,3282,-525,4688,3406,-774,119,188,831
209889,3741980,3737744,3746158,3778926,2719,3800,1730,3147,-407,4990,4444,-389,119,188,831
210889,3742660,3738404,3746764,3779532,1837,3800,1491,3166,-369,4746,5048,-369,131,148,830
211890,3743260,3739008,3747370,3780138,2341,3800,1250,3303,-376,4064,4843,-428,131,148,830
212891,3743812,3739560,3747976,3780744,2665,3800,979,3350,-408,3435,4782,-598,125,122,825
213893,3744392,3740004,3748582,3781350,2502,3800,637,3865,-532,2888,4380,1169,125,122,825
214894,3744900,3740460,3749188,3781956,2996,3800,104,5097,-814,1899,4098,3148,101,111,825
215895,3745360,3740928,3749794,3782562,3361,3800,-640,6397,-1180,1158,3741,3110,101,111,825
216895,3745816,3741292,3750400,3783168,3453,3800,-1516,7374,-1706,1265,3684,1976,81,95,824
217909,3746228,3741684,3751006,3783774,3800,3800,-2346,7596,-2306,1744,3005,-55,81,95,824
218910,3746628,3742024,3751612,3784380,3800,3800,-3155,7342,-2795,2306,1926,-332,76,85,820
219899,3747088,3742336,3752218,3784986,3671,3800,-3975,6624,-3171,2915,1902,-1551,76,85,820
220912,3747476,3742656,3752824,3785592,3800,3800,-4775,5533,-3427,3705,1837,-2489,69,68,816
221913,3747844,3742968,3753430,3786198,3800,3800,-5556,4274,-3568,4418,1575,-2635,69,68,816
222914,3748200,3743260,3754036,3786804,3800,3800,-6329,2937,-3584,4620,966,-2532,64,55,816
223915,3748544,3743528,3754642,3787410,3800,3800,-7555,2113,-3126,4847,-2425,32,64,55,816
224916,3748908,3743772,3755248,3788016,3800,3800,-9107,1550,-2251,4246,-5905,60,63,53,814
225917,3749248,3744000,3755854,3788622,3800,3800,-10338,218,-1592,4260,-3937,-2481,63,53,814
226925,3749600,3744268,3756482,3789250,3800,3800,-11251,-1833,-1302,4471,-2781,-2949,61,50,813
227919,3749932,3744500,3757088,3789856,3800,3800,-11942,-4155,-1077,4210,-3170,-3470,61,50,813
228920,3750280,3744740,3757694,3790462,3800,3800,-12625,-6169,-750,4143,-3174,-1925,73,41,814
229921,3750644,3744944,3758300,3791068,3800,3800,-13377,-7458,-426,4392,-2609,376,73,41,814
230923,3750968,3745140,3758906,3791674,3800,3800,-14229,-7791,-184,4583,-2812,3750,57,39,814
231924,3751240,3745376,3759512,3792280,3800,3800,-14758,-7908,31,4652,-2665,3645,57,39,814
232924,3751484,3745596,3760118,3792886,3800,3800,-12666,-5748,411,4780,-4653,10714,73,54,814
233925,3751816,3745808,3760724,3793492,3800,3800,-1040,18582,2477,2647,-17524,32767,73,54,814
234927,3752128,3746016,3761330,3794098,3800,3800,10757,32297,4053,8175,-6890,26730,65,38,813
235928,3752476,3746200,3761936,3794704,3800,3800,13379,32297,4178,10778,379,-7830,65,38,813
236929,3752788,3746424,3762542,3795310,3800,3800,11543,30068,3756,9715,1179,-9037,63,51,814
237929,3753112,3746616,3763148,3795916,3800,3800,9707,21721,3344,9001,200,-10864,63,51,814
238931,3753472,3746780,3763754,3796522,3800,3800,9049,17162,3209,7722,512,-6794,61,40,814
239931,3753788,3747020,3764360,3797128,3800,3800,8768,14481,3272,6708,1435,-5308,61,40,814
240933,3754112,3747232,3764966,3797734,3800,3800,8315,11338,2940,6142,2809,-7929,69,54,814
241933,3754488,3747464,3765572,3798340,3800,3800,7579,7512,2134,3831,3922,-6506,69,54,814
242935,3754820,3747712,3766178,3798946,3800,3800,6507,5297,1470,1877,2526,87,68,55,815
243936,3755172,3747932,3766784,3799552,3800,3800,5156,3859,904,760,2460,-427,68,55,815
244936,3755584,3748156,3767390,3800158,3800,3800,3913,2624,184,-2054,4113,583,70,60,815
245937,3755980,3748436,3767996,3800764,3800,3800,2708,506,-476,-7503,4712,-57,70,60,815
246939,3756388,3748712,3768602,3801370,3800,3800,1581,-2413,-1232,-9647,5060,500,78,48,814
247940,3756872,3749040,3769208,3801976,3800,3800,637,-5031,-2092,-10980,5940,1488,78,48,814
248940,3757348,3749324,3769814,3802582,3800,3800,-120,-6386,-2877,-9890,5994,3592,90,65,816
249941,3757796,3749644,3770420,3803188,3800,3800,-660,-6734,-3484,-9007,5506,4396,90,65,816
250943,3758344,3750000,3771026,3803794,3800,3800,-1078,-6165,-3841,-8237,5240,5974,111,76,817
251944,3758844,3750336,3771632,3804400,3800,3800,-1491,-4647,-3968,-7283,4932,7311,111,76,817
252945,3759368,3750676,3772238,3805006,3800,3800,-1833,-3178,-3910,-7317,4516,6245,119,76,816
253952,3759932,3751032,3772866,3805634,3800,3800,-1982,-2454,-3675,-7566,3789,5291,119,76,816
254947,3760524,3751436,3773472,3806240,3800,3800,-2096,-1770,-3227,-7643,2713,5770,123,95,817
255947,3761084,3751848,3774078,3806846,3800,3800,-2227,-1369,-2534,-7296,1878,4449,123,95,817
256948,3761692,3752248,3774684,3807452,3800,3800,-2494,-916,-1717,-6453,1319,4422,106,93,818
257949,3762352,3752708,3775290,3808058,3800,3800,-2839,-673,-843,-6007,1177,3554,106,93,818
258951,3762932,3753196,3775896,3808664,3800,3800,-3191,-711,65,-5135,950,3045,106,99,818
259952,3763576,3753684,3776502,3809270,3800,3800,-3505,-826,947,-3908,575,2330,106,99,818
260952,3764328,3754224,3777108,3809876,3800,3800,-3765,-1148,1848,-2939,315,1838,130,96,818
261953,3765032,3754712,3777714,3810482,3800,3800,-3971,-1627,2668,-1866,99,1233,130,96,818
262955,3765784,3755248,3778320,3811088,3800,3800,-4064,-2647,3345,-1390,91,-671,152,103,820
263956,3766628,3755880,3778926,3811694,3800,3800,-4022,-4087,3858,-938,236,-1583,152,103,820
264957,3767344,3756440,3779532,3812300,3800,3800,-3909,-5620,4165,-250,-21,-1773,157,113,820
265958,3768152,3757104,3780138,3812906,3800,3800,-3754,-7080,4321,-262,-558,-1577,157,113,820
266959,3769064,3757768,3780744,3813512,3800,3800,-3661,-8054,4395,-57,-1142,326,171,139,822
267959,3769912,3758524,3781350,3814118,3800,3800,-3665,-8441,4416,549,-1873,1663,171,139,822
268960,3770768,3759324,3781956,3814724,3800,3800,-3640,-8506,4353,447,-2178,2218,171,145,822
269949,3771756,3760192,3782562,3815330,2964,3800,-3478,-8610,4139,-6,-1951,1853,171,145,822
270950,3772760,3761060,3783168,3815936,2691,3800,-3197,-8829,3788,-223,-2113,1940,179,170,825
271951,3773736,3761900,3783774,3816542,2706,3800,-2881,-8671,3413,-542,-2597,3274,179,170,825
272952,3774916,3762912,3784380,3817148,1180,3800,-2535,-8112,3043,-856,-3031,3868,187,185,828
273953,3775920,3763804,3784986,3817754,2107,3800,-2154,-7358,2629,-1087,-3230,4128,187,185,828
274954,3776960,3764824,3785592,3818360,1693,3800,-1720,-6467,2208,-1479,-3380,4666,196,193,830
275955,3778004,3765856,3786198,3818966,1477,3800,-1208,-5475,1757,-1633,-3474,4476,196,193,830
276956,3778952,3766836,3786804,3819572,1928,3800,-602,-4605,1301,-1935,-3668,4007,201,192,832
277957,3779924,3767852,3787410,3820178,1619,3800,75,-3916,931,-2115,-4007,3503,201,192,832
278957,3780832,3768920,3788016,3820784,1888,3800,734,-3418,690,-1851,-4333,2921,192,211,832
279959,3781812,3769948,3788622,3821390,1275,3800,1346,-3077,549,-1708,-4523,2357,192,211,832
280966,3782744,3771116,3789250,3822018,1443,3800,1967,-2868,488,-1552,-4670,1613,203,203,833
281961,3783556,3772056,3789856,3822624,2103,3800,2594,-3002,500,-1295,-4889,471,203,203,833
282962,3784440,3773012,3790462,3823230,1532,3800,3188,-3214,593,-970,-5232,327,196,208,834
283963,3785268,3774072,3791068,3823836,1785,3800,3685,-3357,767,-675,-5581,198,196,208,834
284964,3786012,3775080,3791674,3824442,2252,3800,4087,-3569,896,-500,-5189,-398,177,211,833
285965,3786860,3776140,3792280,3825048,1496,3800,4430,-3770,1004,-476,-4859,-624,177,211,833
286966,3787608,3777188,3792886,3825654,2060,3800,4707,-3943,1113,-378,-4286,-931,168,214,833
287967,3788352,3778216,3793492,3826260,2025,3800,4887,-4080,1230,70,-3891,-965,168,214,833
288968,3789156,3779416,3794098,3826866,1564,3800,4958,-4080,1366,254,-3476,-618,171,208,834
289969,3789932,3780516,3794704,3827472,1666,3800,4976,-3960,1499,339,-3187,-841,171,208,834
290970,3790728,3781764,3795310,3828078,1457,3800,4950,-3896,1600,282,-2788,-1166,155,228,833
291971,3791524,3782836,3795916,3828684,1375,3800,4843,-3822,1646,136,-2258,-1111,155,228,833
292972,3792288,3783848,3796522,3829290,1506,3800,4613,-3594,1609,-43,-1832,-885,169,209,834
293973,3793100,3784912,3797128,3829896,1117,3800,4284,-3207,1474,-286,-1340,-915,169,209,834
294973,3793936,3785936,3797734,3830502,867,3800,3803,-2621,1316,-254,-1258,-325,181,205,834
295975,3794652,3786984,3798340,3831108,1568,3800,3194,-1947,1231,-166,-1526,-117,181,205,834
296976,3795352,3788144,3798946,3831714,1628,3800,2522,-1262,1230,87,-1315,-148,167,211,834
297977,3796092,3789236,3799552,3832320,1320,3800,1849,-688,1252,268,-539,-595,167,211,834
298978,3796728,3790372,3800158,3832926,1958,3800,1141,-508,1244,170,-2,-1789,131,218,833
299979,3797300,3791472,3800764,3833532,2373,3800,469,-621,1263,212,-333,-2509,131,218,833
300980,3797904,3792612,3801370,3834138,2175,3800,-128,-803,1396,376,-204,-2570,149,226,833
301981,3798564,3793884,3801976,3834744,1802,3800,-698,-1034,1673,657,-177,-2483,149,226,833
302982,3799200,3794956,3802582,3835350,1939,3800,-1218,-1210,2054,1434,-542,-2219,126,243,831
303983,3799780,3796136,3803188,3835956,2301,3800,-1673,-1431,2495,1586,-91,-2335,126,243,831
304984,3800472,3797364,3803794,3836562,1563,3800,-2104,-1891,2858,1911,717,-3003,144,248,835
305985,3801116,3798572,3804400,3837168,1848,3800,-2512,-2658,3051,2219,2107,-3862,144,248,835
306986,3801808,3799840,3805006,3837774,1511,3800,-2903,-3605,3186,2343,2827,-4059,150,242,833
307996,3802496,3800952,3805634,3838402,1510,3800,-3342,-4422,3363,2871,3082,-3586,150,242,833
308988,3803072,3802032,3806240,3839008,2224,3800,-3837,-4969,3674,3004,3063,-2667,136,245,834
309989,3803592,3803020,3806846,3839614,2612,3800,-4317,-5217,4114,3428,2932,-1875,136,245,834
310990,3804160,3804068,3807452,3840220,2329,3800,-4751,-5452,4539,4122,3018,-2014,126,221,835
311990,3804744,3805080,3808058,3840826,2240,3800,-5135,-5836,4817,4753,3831,-2215,126,221,835
312992,3805360,3806084,3808664,3841432,2035,3800,-5465,-6387,4865,5392,4530,-2674,122,210,829
313993,3806024,3807044,3809270,3842038,1711,3800,-5690,-7151,4729,5582,4230,-3180,122,210,829
314994,3806628,3808000,3809876,3842644,2088,3800,-5861,-7697,4497,5227,3253,-1746,130,212,830
315995,3807212,3808916,3810482,3843250,2223,3800,-6132,-7477,4197,4638,1592,414,130,212,830
316996,3807812,3809812,3811088,3843856,2126,3800,-6396,-6812,3728,3741,1127,829,120,200,831
317997,3808432,3810784,3811694,3844462,1996,3800,-6657,-5968,2979,3117,1022,1739,120,200,831
318998,3808976,3811680,3812300,3845068,2498,3800,-6775,-5085,1960,3186,299,1772,109,197,830
319998,3809544,3812440,3812906,3845674,2366,3800,-6767,-4211,894,3508,-659,2223,109,197,830
321000,3810020,3813204,3813512,3846280,2998,3800,-6708,-3208,-144,3521,-1284,2779,120,151,829
322001,3810504,3813852,3814118,3846886,3003,3800,-6502,-2495,-1211,3594,-1471,1478,120,151,829
323002,3810936,3814532,3814724,3847492,3405,3800,-6172,-2347,-2191,4257,-1827,700,102,132,826
324003,3811348,3815240,3815330,3848098,3615,3800,-5802,-2493,-2915,5544,-2795,544,102,132,826
325016,3811736,3815848,3815936,3848704,3800,3800,-5469,-2895,-3439,6274,-2915,102,74,127,822
326017,3812124,3816380,3816542,3849310,3800,3800,-5086,-3643,-3804,6545,-3040,-698,74,127,822
327006,3812552,3816904,3817148,3849916,3788,3800,-4704,-4818,-4074,7085,-2992,-1377,76,123,819
328019,3812980,3817420,3817754,3850522,3800,3800,-4328,-6116,-4279,7904,-2642,-1188,76,123,819
329020,3813376,3817964,3818360,3851128,3800,3800,-4083,-7394,-4359,8760,-2501,-588,71,112,818
330022,3813788,3818452,3818966,3851734,3800,3800,-3939,-8651,-4411,9234,-1855,-767,71,112,818
331023,3814192,3818932,3819572,3852340,3800,3800,-3909,-9777,-4374,9287,-1637,177,97,103,817
332023,3814636,3819440,3820178,3852946,3800,3800,-4144,-10141,-4133,9867,-1316,3221,97,103,817
333025,3815096,3819924,3820784,3853552,3800,3800,-6621,-6824,-2786,12954,-3312,17425,96,103,818
334025,3815532,3820384,3821390,3854158,3800,3800,-10791,-1577,-356,12024,-6754,18172,96,103,818
335033,3816012,3820916,3822018,3854786,3800,3800,-8675,7206,1731,10586,-7310,23550,101,93,816
336027,3816540,3821448,3822624,3855392,3800,3800,3215,28972,3194,13447,-7937,32767,101,93,816
337028,3816920,3821924,3823230,3855998,3800,3800,11220,32297,3496,12607,1001,-3858,108,111,817
338029,3817340,3822528,3823836,3856604,3800,3800,12276,32297,3363,12464,4296,-2753,108,111,817
339030,3817832,3823060,3824442,3857210,3800,3800,9525,25374,3590,12317,5193,-6138,86,119,818
340031,3818320,3823768,3825048,3857816,3800,3800,7426,20870,3898,10750,4261,-6526,86,119,818
341032,3818768,3824420,3825654,3858422,3800,3800,6459,17870,4315,7809,2279,-5712,101,116,818
342033,3819292,3825152,3826260,3859028,3800,3800,6234,15426,4736,6098,1726,-5861,101,116,818
343034,3819744,3825844,3826866,3859634,3800,3800,6126,12514,4976,5389,1468,-5608,109,134,819
344035,3820220,3826608,3827472,3860240,3800,3800,5955,9758,5170,3321,1648,-4540,109,134,819
345036,3820728,3827468,3828078,3860846,3800,3800,5632,7563,5266,2099,2732,-2959,106,140,819
346037,3821232,3828316,3828684,3861452,3800,3800,5170,5869,4943,695,5151,-2471,106,140,819
347039,3821732,3829124,3829290,3862058,3800,3800,4801,4267,4181,-2514,6502,-2013,122,170,820
348039,3822268,3830044,3829896,3862664,3800,3800,4512,3263,3234,-4384,4851,1076,122,170,820
349041,3822844,3830968,3830502,3863270,3800,3800,3797,4207,2124,-5187,4431,6460,127,177,821
350041,3823344,3831868,3831108,3863876,3800,3800,2867,7188,1175,-6849,2304,9920,127,177,821
351042,3823868,3832924,3831714,3864482,3800,3800,1878,9654,339,-8648,-587,8443,120,203,822
352043,3824496,3834056,3832320,3865088,3800,3800,801,12172,-571,-10261,-1390,11271,120,203,822
353044,3825040,3835040,3832926,3865694,3800,3800,-122,14694,-1487,-11746,-782,10388,122,195,824
354045,3825620,3836020,3833532,3866300,3800,3800,-967,17173,-2381,-10892,-1973,10236,122,195,824
355047,3826280,3837132,3834138,3866906,3800,3800,-1607,19656,-2979,-10244,-3008,9975,121,202,824
356047,3826884,3838244,3834744,3867512,3800,3800,-2004,21682,-3159,-9240,-3455,8426,121,202,824
357048,3827524,3839136,3835350,3868118,3800,3800,-2295,23016,-3168,-6908,-3850,6071,123,198,823
358036,3828208,3840080,3835956,3868724,3613,3800,-2386,23311,-2995,-5422,-3521,3153,123,198,823
359037,3828868,3840948,3836562,3869330,3741,3800,-2354,22778,-2754,-3411,-3167,667,131,201,824
360038,3829564,3841768,3837168,3869936,3478,3800,-2286,21097,-2521,-1957,-2734,-2691,131,201,824
361039,3830356,3842600,3837774,3870542,2797,3800,-2142,18626,-2218,-1247,-1834,-4133,135,180,824
362048,3831108,3843380,3838402,3871170,2994,3800,-1978,15939,-1872,-208,-1832,-5094,135,180,824
363042,3831896,3844112,3839008,3871776,2691,3800,-1874,13119,-1426,163,-2113,-5043,148,169,825
364043,3832728,3844840,3839614,3872382,2318,3800,-1959,10468,-801,479,-2931,-3596,148,169,825
365044,3833488,3845540,3840220,3872988,2702,3800,-2038,7809,-248,344,-2499,-4319,169,150,826
366045,3834268,3846276,3840826,3873594,2501,3800,-1908,4986,99,-524,-2124,-4871,169,150,826
367046,3835176,3847092,3841432,3874200,1570,3800,-1670,2138,189,-1485,-645,-4623,173,169,827
368047,3835960,3847872,3842038,3874806,2267,3800,-1428,-698,-119,-2490,748,-4560,173,169,827
369048,3836780,3848660,3842644,3875412,1949,3800,-1244,-3163,-757,-3186,1200,-3051,172,154,827
370049,3837628,3849408,3843250,3876018,1670,3800,-1170,-4937,-1544,-3315,1992,-1018,172,154,827
371050,3838540,3850224,3843856,3876624,1137,3800,-1142,-6290,-2292,-3606,2205,-162,171,149,829
372051,3839412,3851036,3844462,3877230,1271,3800,-1137,-7009,-2784,-4414,1304,1997,171,149,829
373052,3840192,3851908,3845068,3877836,1770,3800,-1215,-7157,-2930,-5139,229,3581,168,172,830
374053,3841092,3852712,3845674,3878442,892,3800,-1433,-6929,-2848,-5724,-411,4773,168,172,830
375054,3842000,3853480,3846280,3879048,709,3800,-1735,-6424,-2636,-6216,-1625,5447,158,186,832
376055,3842780,3854412,3846886,3879654,1434,3800,-1974,-5935,-2333,-6624,-2480,5330,158,186,832
377056,3843668,3855308,3847492,3880260,636,3800,-2083,-5613,-1947,-6894,-2165,5019,184,178,832
378057,3844444,3856284,3848098,3880866,1262,3800,-2073,-5439,-1481,-6938,-2140,4720,184,178,832
379058,3845172,3857212,3848704,3881472,1509,3800,-1987,-5302,-929,-6917,-1737,4664,166,178,831
380059,3845992,3858228,3849310,3882078,841,3800,-1828,-5306,-357,-6721,-1207,4033,166,178,831
381060,3846716,3859208,3849916,3882684,1390,3800,-1589,-5748,189,-6275,-1543,2664,160,212,833
382061,3847464,3860228,3850522,3883290,1177,3800,-1237,-6574,710,-5856,-1603,1614,160,212,833
383062,3848228,3861388,3851128,3883896,1009,3800,-855,-7684,1201,-5347,-1405,849,162,211,835
384063,3848864,3862500,3851734,3884502,1796,3800,-516,-8870,1665,-4679,-961,704,162,211,835
385064,3849496,3863580,3852340,3885108,1810,3800,-207,-9959,2234,-4298,-1201,555,139,228,834
386065,3850172,3864648,3852946,3885714,1506,3800,130,-11081,2927,-4072,-1586,308,139,228,834
387066,3850836,3865692,3853552,3886320,1555,3800,474,-12148,3630,-4028,-1855,887,152,209,833
388067,3851384,3866672,3854158,3886926,2307,3800,770,-12745,4309,-4491,-1843,2325,152,209,833
389074,3852076,3867752,3854786,3887554,1378,3800,1005,-13042,4913,-5182,-1685,3122,127,220,833
390069,3852592,3868748,3855392,3888160,2519,3800,1219,-13071,5382,-5886,-974,3767,127,220,833
391070,3853096,3869752,3855998,3888766,2639,3800,1413,-13032,5765,-6347,-379,3949,131,215,830
392071,3853692,3870788,3856604,3889372,2069,3800,1612,-13048,6179,-6044,-623,3699,131,215,830
393071,3854236,3871776,3857210,3889978,2421,3800,1832,-13203,6689,-5432,-984,3307,116,212,830
394073,3854704,3872900,3857816,3890584,2958,3800,2105,-13750,7250,-4389,-893,2103,116,212,830
395074,3855244,3873912,3858422,3891190,2537,3800,2384,-14562,7804,-3034,-566,1520,127,202,831
396075,3855728,3874872,3859028,3891796,2942,3800,2689,-15740,8278,-1780,209,413,127,202,831
397076,3856148,3875788,3859634,3892402,3424,3800,2981,-17070,8670,-358,382,193,111,192,827
398077,3856552,3876656,3860240,3893008,3613,3800,3317,-18539,8925,1112,966,-670,111,192,827
399078,3856992,3877508,3860846,3893614,3462,3800,3669,-20157,9113,2888,666,-1003,98,181,826
400091,3857368,3878196,3861452,3894220,3800,3800,3990,-21671,9267,4258,51,-822,98,181,826
401092,3857772,3878836,3862058,3894826,3800,3800,4263,-23102,9338,4550,-812,-516,93,144,819
402080,3858212,3879384,3862664,3895432,3727,3800,4456,-24099,9281,4610,-1301,884,93,144,819
403094,3858568,3879916,3863270,3896038,3800,3800,4551,-24587,9193,5115,-1404,1807,94,122,819
404095,3859000,3880412,3863876,3896644,3800,3800,4610,-24915,9015,5460,-884,1588,94,122,819
405096,3859424,3880880,3864482,3897250,3800,3800,4688,-25117,8696,5855,-231,2105,74,105,819
406097,3859792,3881280,3865088,3897856,3800,3800,4576,-24408,8498,6447,-742,5584,74,105,819
407098,3860220,3881636,3865694,3898462,3800,3800,4303,-23156,8409,6489,-471,6328,65,87,816
408099,3860620,3881924,3866300,3899068,3800,3800,3960,-21487,8179,6009,344,7295,65,87,816
409100,3861036,3882284,3866906,3899674,3800,3800,3574,-19629,8085,6095,-944,8034,91,81,816
410101,3861348,3882656,3867512,3900280,3800,3800,2958,-17258,8200,6699,-834,10819,91,81,816
411103,3861800,3882960,3868118,3900886,3800,3800,1785,-13586,8290,5552,-1141,14871,66,62,815
412103,3862180,3883300,3868724,3901492,3800,3800,933,-10748,7807,3947,1447,9411,66,62,815
413104,3862564,3883664,3869330,3902098,3800,3800,430,-8224,7021,5435,2839,11471,67,77,814
414105,3863004,3884024,3869936,3902704,3800,3800,-335,-4521,6835,7840,874,17125,67,77,814
415106,3863408,3884376,3870542,3903310,3800,3800,-1173,-482,6798,7807,2664,14489,78,72,816
416116,3863832,3884816,3871170,3903938,3800,3800,-1791,2305,6451,7305,3951,10021,78,72,816
417108,3864344,3885216,3871776,3904544,3800,3800,-2068,3442,5647,7388,5754,6212,76,68,816
418109,3864796,3885588,3872382,3905150,3800,3800,-2385,4269,4657,8000,6237,7295,76,68,816
419110,3865236,3885920,3872988,3905756,3800,3800,-2846,5645,3798,8802,5816,8345,96,84,816
420111,3865812,3886356,3873594,3906362,3800,3800,-3108,6499,3094,9134,5367,4746,96,84,816
421112,3866340,3886880,3874200,3906968,3800,3800,-3104,6293,2435,8978,4513,2384,114,84,817
422113,3866924,3887276,3874806,3907574,3800,3800,-3100,5501,1720,9050,5082,2124,114,84,817
423114,3867472,3887808,3875412,3908180,3800,3800,-3116,4487,923,9468,5498,1100,103,102,817
424115,3868132,3888356,3876018,3908786,3800,3800,-2986,2986,208,9173,4022,-1008,103,102,817
425116,3868740,3888896,3876624,3909392,3800,3800,-2744,1458,-296,8739,2772,-856,121,107,818
426104,3869412,3889592,3877230,3909998,3787,3800,-2588,231,-632,8942,2301,155,121,107,818
427106,3870144,3890204,3877836,3910604,3358,3800,-2535,-684,-871,9145,2112,433,141,110,820
428107,3870860,3890912,3878442,3911210,3411,3800,-2505,-1415,-1052,8931,2234,563,141,110,820
429108,3871624,3891568,3879048,3911816,3043,3800,-2426,-2142,-1365,8061,2643,177,137,129,821
430109,3872468,3892392,3879654,3912422,2439,3800,-2310,-2782,-1723,6975,1630,740,137,129,821
431110,3873268,3893128,3880260,3913028,2631,3800,-2189,-2925,-1992,5639,624,1846,150,138,823
432111,3874088,3894056,3880866,3913634,2413,3800,-2130,-2494,-2173,4208,-513,3050,150,138,823
433112,3874992,3894908,3881472,3914240,1758,3800,-2082,-1595,-2274,2667,-1930,4005,143,150,828
434112,3875780,3895760,3882078,3914846,2405,3800,-2042,-377,-2292,1516,-2832,4973,143,150,828
435114,3876576,3896724,3882684,3915452,2273,3800,-1945,1106,-2268,946,-3358,5191,159,170,828
436115,3877408,3897668,3883290,3916058,1949,3800,-1813,2705,-2230,564,-3436,5060,159,170,828
437116,3878148,3898704,3883896,3916664,2466,3800,-1625,4303,-2167,94,-3322,4756,150,194,829
438117,3878896,3899784,3884502,3917270,2355,3800,-1405,5681,-2059,-539,-3391,4174,150,194,829
439118,3879652,3900768,3885108,3917876,2240,3800,-1144,6981,-1860,-878,-3783,3847,144,198,831
440119,3880384,3901780,3885714,3918482,2336,3800,-855,8081,-1592,-936,-3923,2920,144,198,831
441120,3881068,3902808,3886320,3919088,2603,3800,-503,8792,-1319,-1049,-3451,1436,150,212,830
442121,3881888,3903832,3886926,3919694,1659,3800,-94,9070,-1058,-1284,-3153,407,150,212,830
443129,3882496,3904948,3887554,3920322,2994,3800,328,9332,-760,-1309,-3191,391,161,199,831
444123,3883032,3905960,3888160,3920928,3476,3800,727,9697,-386,-1097,-3316,374,161,199,831
445124,3883608,3906912,3888766,3921534,3240,3800,1090,10216,59,-677,-3699,798,135,205,831
446124,3884252,3907976,3889372,3922140,2800,3800,1484,10848,652,-90,-4238,1046,135,205,831
447125,3884840,3908908,3889978,3922746,3158,3800,1872,11333,1215,257,-3961,565,139,211,827
448126,3885396,3910004,3890584,3923352,3381,3800,2200,11662,1635,780,-3792,106,139,211,827
449127,3886008,3911020,3891190,3923958,3030,3800,2414,11880,1874,1121,-3308,-208,129,209,828
450129,3886576,3912016,3891796,3924564,3322,3800,2480,12058,1964,1378,-3090,-118,129,209,828
451129,3887112,3913080,3892402,3925170,3554,3800,2382,12314,1978,1546,-3028,419,117,209,826
452131,3887724,3914092,3893008,3925776,3078,3800,2206,12620,1904,1741,-2242,367,117,209,826
453131,3888248,3915000,3893614,3926382,3665,3800,1956,12831,1614,1671,-947,342,135,213,826
454133,3888804,3916080,3894220,3926988,3488,3800,1548,13255,1127,1318,-170,1517,135,213,826
455133,3889380,3917052,3894826,3927594,3377,3800,1005,13867,553,1337,58,1872,118,213,826
456135,3889900,3918052,3895432,3928200,3766,3800,471,14200,-79,1727,1225,644,118,213,826
457135,3890448,3918976,3896038,3928806,3617,3800,-24,13870,-830,2289,2611,-900,131,200,824
458136,3891040,3920020,3896644,3929412,3349,3800,-462,13034,-1629,2876,2485,-1744,131,200,824
459150,3891552,3921096,3897250,3930018,3800,3800,-992,12194,-2270,3046,1051,-866,127,203,823
460139,3892084,3922132,3897856,3930624,3800,3800,-1571,11441,-2746,3104,381,-987,127,203,823
461127,3892632,3923220,3898462,3931230,3728,3541,-2084,10526,-3226,3221,905,-1509,105,214,825
462141,3893144,3924248,3899068,3931836,3800,3732,-2483,9553,-3743,3157,705,-1162,105,214,825
463142,3893668,3925324,3899674,3932442,3800,3227,-2857,8668,-4239,3069,-21,-541,111,225,823
464130,3894236,3926420,3900280,3933048,3700,2888,-3183,7905,-4550,2879,-879,99,111,225,823
465131,3894824,3927588,3900886,3933654,3583,2192,-3453,7313,-4690,3053,-1415,461,111,244,824
466132,3895396,3928648,3901492,3934260,3699,2669,-3622,6733,-4730,3254,-1602,314,111,244,824
467133,3896028,3929680,3902098,3934866,3314,2658,-3749,6108,-4695,2804,-1579,787,130,231,827
468134,3896732,3930688,3902704,3935472,2823,2632,-3899,5620,-4613,2470,-1976,1398,130,231,827
469135,3897404,3931584,3903310,3936078,2995,3205,-4028,5231,-4544,2059,-1964,1237,133,196,827
470143,3898096,3932520,3903938,3936706,2843,2821,-4150,4896,-4509,1595,-2062,1733,133,196,827
471137,3898816,3933312,3904544,3937312,2619,3640,-4267,4892,-4501,1216,-2643,2927,143,194,831
472151,3899548,3934000,3905150,3937918,2489,3800,-4369,5215,-4536,-85,-3029,3832,143,194,831
473151,3900304,3934672,3905756,3938524,2274,3800,-4375,5911,-4631,-2157,-3371,4641,145,173,831
474152,3901128,3935308,3906362,3939130,1755,3800,-4255,6467,-4840,-4280,-3319,4462,145,173,831
475154,3901856,3935948,3906968,3939736,2302,3800,-4157,6958,-5272,-5762,-1941,4989,150,134,827
476155,3902600,3936472,3907574,3940342,2142,3800,-4105,7650,-5865,-6616,-1282,5390,150,134,827
477156,3903456,3936968,3908180,3940948,1333,3800,-3998,8778,-6500,-7646,-1126,5912,162,128,827
478157,3904256,3937448,3908786,3941554,1599,3800,-3786,9346,-7080,-9082,-1562,4437,162,128,827
479157,3905012,3937936,3909392,3942160,1809,3800,-3563,9479,-7536,-9961,-2753,4733,169,120,826
480159,3905876,3938408,3909998,3942766,1022,3800,-3308,9749,-7850,-10553,-3794,5152,169,120,826
481159,3906620,3938888,3910604,3943372,1711,3800,-2968,9438,-8000,-12560,-4027,3630,143,100,828
482161,3907428,3939324,3911210,3943978,1224,3800,561,4768,-6635,-27570,-7000,12273,143,100,828
483162,3908264,3939772,3911816,3944584,948,3800,10194,-3681,-2892,-32768,-13845,32767,156,95,828
484163,3908996,3940212,3912422,3945190,1544,3800,15627,-7912,2,-23106,-3382,12589,156,95,828
485164,3909736,3940636,3913028,3945796,1435,3800,15238,-8738,1073,-17287,-2627,5586,156,94,828
486165,3910512,3941156,3913634,3946402,1136,3800,13251,-9157,658,-10267,-2743,1757,156,94,828
487165,3911196,3941604,3914240,3947008,1678,3800,12051,-10745,7,-7574,-2344,624,149,106,828
488167,3911892,3942052,3914846,3947614,1564,3800,11642,-12820,-114,-7110,-1743,-89,149,106,828
489167,3912656,3942512,3915452,3948220,1070,3800,11422,-15096,444,-7543,-1607,-392,138,90,826
490168,3913304,3942928,3916058,3948826,1777,3800,11109,-16867,1385,-5006,-1400,-254,138,90,826
491169,3913952,3943352,3916664,3949432,1759,3800,10574,-18501,2167,-522,-1185,-1595,123,80,826
492170,3914592,3943788,3917270,3950038,1794,3800,9322,-19411,2644,2746,877,1758,123,80,826
493172,3915132,3944240,3917876,3950644,2449,3800,5981,-17266,3392,4866,4342,13915,129,91,826
494173,3915672,3944624,3918482,3951250,2478,3800,1700,-13636,4032,4269,6194,13669,129,91,826
495174,3916236,3945080,3919088,3951856,2348,3800,-1294,-12417,4234,2272,4938,4108,108,84,826
496175,3916756,3945536,3919694,3952462,2661,3800,-2067,-14820,4402,704,3070,-4266,121,85,824
497183,3917228,3945984,3920322,3953090,3030,3800,-1555,-18897,4541,1710,3404,-7042,121,85,824
498177,3917692,3946424,3920928,3953696,3143,3800,-1198,-22637,4772,3428,3678,-5366,107,81,822
499178,3918168,3946836,3921534,3954302,3126,3800,-1466,-24473,5474,5891,4436,-473,107,81,822
500179,3918584,3947252,3922140,3954908,3585,3800,-2194,-25023,6633,7886,4439,1035,105,95,820
501180,3918988,3947652,3922746,3955514,3749,3800,-2613,-26022,7632,6530,3850,-1652,105,95,820
502181,3919436,3948156,3923352,3956120,3544,3800,-2688,-27389,8317,5679,2949,-824,95,89,819
503194,3919832,3948560,3923958,3956726,3800,3800,-2915,-27853,8858,5779,1734,2854,95,89,819
504195,3920208,3949048,3924564,3957332,3800,3800,-3067,-27667,9491,5143,114,3391,99,88,818
505196,3920640,3949540,3925170,3957938,3800,3800,-3034,-26676,10083,5087,628,5616,99,88,818
506197,3920996,3950000,3925776,3958544,3800,3800,-2791,-25598,10483,5500,1342,5461,72,94,816
507198,3921392,3950580,3926382,3959150,3800,3800,-2457,-24008,10750,5212,1634,7388,72,94,816
508199,3921764,3951096,3926988,3959756,3800,3800,-2114,-21923,10963,4185,1195,8511,70,102,816
509201,3922132,3951528,3927594,3960362,3800,3800,-1519,-20131,11203,3350,-895,6593,70,102,816
510202,3922492,3952132,3928200,3960968,3800,3800,-674,-18237,11350,2878,-145,7330,84,117,816
511203,3922900,3952640,3928806,3961574,3800,3800,-190,-15261,11292,3024,1407,11710,84,117,816
512203,3923324,3953220,3929412,3962180,3800,3800,-28,-11283,11011,2678,868,13912,76,111,817
513204,3923808,3953848,3930018,3962786,3800,3800,-15,-6209,10657,1886,-845,17544,76,111,817
514205,3924308,3954480,3930624,3963392,3800,3800,98,-608,10600,2065,-2307,18018,103,133,818
515194,3924900,3955156,3931230,3963998,3718,3800,297,4312,10419,3059,122,15823,103,133,818
516207,3925420,3955852,3931836,3964604,3800,3800,650,8315,9957,3542,665,13571,114,127,819
517196,3926076,3956588,3932442,3965210,3336,3800,1143,11471,9319,3856,378,10981,114,127,819
518197,3926692,3957392,3933048,3965816,3584,3800,1746,13607,8556,4640,-202,7670,124,141,821
519198,3927348,3958196,3933654,3966422,3313,3800,2429,14784,7742,5190,-684,4934,124,141,821
520199,3928064,3959040,3934260,3967028,2890,3800,3242,15293,6954,6293,-1210,2345,146,164,820
521200,3928736,3959900,3934866,3967634,3137,3800,4016,14860,6185,7961,-1549,-603,146,164,820
522201,3929396,3960812,3935472,3968240,3190,3800,4824,13725,5504,8681,-2208,-2453,146,172,824
523202,3930104,3961684,3936078,3968846,2847,3800,5634,12123,4920,8844,-3016,-3792,146,172,824
524199,3930840,3962704,3936706,3969474,2625,3500,6409,10163,4328,8675,-4059,-4794,147,182,826
525191,3931648,3963740,3937312,3970080,2088,3212,7097,7787,3719,8153,-4765,-5564,147,182,826
526192,3932376,3964784,3937918,3970686,2535,2971,7576,5664,3175,8546,-5586,-4388,165,196,829
527193,3933232,3965700,3938524,3971292,1626,3636,7759,4343,2733,8628,-5850,-2825,165,196,829
528194,3934008,3966704,3939130,3971898,2052,2912,7732,3410,2353,8079,-5761,-2341,149,202,832
529195,3934732,3967848,3939736,3972504,2327,1802,7575,2842,1945,7642,-5452,-1415,149,202,832
530196,3935564,3968740,3940342,3973110,1553,3252,7375,2601,1467,6800,-4539,-689,142,202,834
531197,3936268,3969684,3940948,3973716,2311,2778,7096,2731,991,6372,-4147,57,142,202,834
532198,3937040,3970616,3941554,3974322,1814,2711,6713,3223,623,5932,-4039,656,147,171,833
533199,3937948,3971536,3942160,3974928,832,2649,6290,4149,406,5405,-3770,1402,147,171,833
534200,3938656,3972480,3942766,3975534,2038,2352,5858,5308,213,5019,-3411,1417,165,178,835
535201,3939500,3973372,3943372,3976140,1084,2551,5437,6428,-14,4567,-2978,1014,165,178,835
536202,3940176,3974128,3943978,3976746,2104,3336,4973,7484,-307,4238,-2641,828,142,185,835
537203,3940944,3974992,3944584,3977352,1459,2548,4472,8600,-699,3845,-2406,710,142,185,835
538204,3941728,3975896,3945190,3977958,1281,2168,3920,9696,-1126,3253,-2006,421,151,191,832
539205,3942444,3976760,3945796,3978564,1659,2304,3390,10718,-1502,2929,-1590,-79,151,191,832
540206,3943168,3977740,3946402,3979170,1558,1415,2877,11581,-1812,2843,-1175,-489,138,195,838
541207,3943800,3978632,3947008,3979776,2121,1840,2441,12602,-2044,2638,-856,-354,138,195,838
542208,3944492,3979440,3947614,3980382,1709,2276,2062,13430,-2205,2235,-311,-1288,145,166,838
543209,3945232,3980248,3948220,3980988,1351,2188,1712,13832,-2404,1975,1326,-2252,145,166,838
544210,3945860,3980988,3948826,3981594,2042,2554,1334,14140,-2649,1696,3007,-2455,130,151,835
545211,3946528,3981780,3949432,3982200,1766,2147,892,14269,-2956,1114,4680,-3254,130,151,835
546212,3947240,3982564,3950038,3982806,1444,2119,413,13976,-3351,478,6481,-4263,123,154,834
547213,3947848,3983308,3950644,3983412,2094,2308,-24,13440,-3639,466,7106,-4592,123,154,834
548214,3948404,3983892,3951250,3984018,2441,3318,-364,12659,-3737,876,6767,-5795,120,140,837
549215,3948980,3984636,3951856,3984624,2330,2257,-569,11494,-3775,513,7061,-6727,120,140,837
550216,3949488,3985556,3952462,3985230,2798,1019,-742,10537,-3732,28,6507,-5552,129,163,829
551224,3949992,3986336,3953090,3985858,2879,1827,-1030,9788,-3652,-197,5714,-5147,129,163,829
552218,3950516,3987044,3953696,3986464,2790,2233,-1727,7603,-3626,107,4861,-6221,117,151,834
553219,3950996,3987792,3954302,3987070,3121,1920,-2022,6352,-3451,-79,3493,-5749,117,151,834
554220,3951440,3988476,3954908,3987676,3419,2286,-2308,5272,-3107,-392,2487,-5348,106,167,831
555221,3951904,3989252,3955514,3988282,3356,1636,-2548,4283,-2613,-530,1700,-5285,106,167,831
556222,3952336,3990140,3956120,3988888,3633,812,-2708,3230,-2152,-341,1083,-5270,91,168,828
557235,3952752,3991016,3956726,3989494,3800,768,-2815,2268,-1670,-580,662,-4476,91,168,828
558224,3953208,3991808,3957332,3990100,3634,1211,-3031,1624,-1126,-828,9,-3288,114,168,830
559238,3953620,3992608,3957938,3990706,3800,1076,-3322,1250,-583,-971,-482,-2572,114,168,830
560239,3954012,3993352,3958544,3991312,3800,1364,-3676,1087,-87,-1046,-372,-1590,102,147,829
561240,3954448,3994112,3959150,3991918,3800,1196,-4036,993,279,-874,-177,-1433,102,147,829
562241,3954848,3994744,3959756,3992524,3800,1985,-4447,919,487,-864,26,-728,94,133,827
563242,3955268,3995360,3960362,3993130,3800,2080,-4928,1134,544,-882,110,741,94,133,827
564243,3955704,3995924,3960968,3993736,3800,2423,-5401,1224,438,-951,186,-235,91,131,825
565244,3956112,3996428,3961574,3994342,3800,2842,-5784,1135,197,-975,-282,71,91,131,825
566245,3956524,3996860,3962180,3994948,3800,3368,-6187,1446,-43,-814,-1453,2235,87,107,822
567246,3956980,3997288,3962786,3995554,3800,3471,-6713,2208,-252,-500,-2097,3341,87,107,822
568259,3957404,3997664,3963392,3996160,3800,3800,-7312,2898,-512,-467,-2146,2985,87,78,820
569260,3957808,3997996,3963998,3996766,3800,3800,-7918,3525,-874,-503,-2196,3700,87,78,820
570261,3958288,3998296,3964604,3997372,3800,3800,-8523,4299,-1402,-994,-1412,4598,81,79,816
571262,3958724,3998560,3965210,3997978,3800,3800,-9133,5019,-2148,-1534,-238,4597,81,79,816
572263,3959164,3998840,3965816,3998584,3800,3800,-9751,5627,-3073,-1822,-321,4554,82,63,815
573264,3959660,3999040,3966422,3999190,3800,3800,-10399,6133,-4103,-1794,-1266,4608,82,63,815
574266,3960100,3999244,3967028,3999796,3800,3800,-11018,6470,-5207,-1685,-1840,4284,82,47,815
575267,3960580,3999388,3967634,4000402,3800,3800,-11571,6477,-6291,-1781,-2380,3722,82,47,815
576267,3961124,3999568,3968240,4001008,3800,3800,-12028,6161,-7249,-2023,-3029,3457,104,36,814
577268,3961632,3999748,3968846,4001614,3800,3800,-12492,5792,-8022,-2224,-3800,4070,104,36,814
578277,3962148,3999908,3969474,4002242,3800,3800,-10525,3952,-8212,-7198,-5651,8944,94,47,815
579270,3962724,4000056,3970080,4002848,3800,3800,5505,-5458,-5901,-32768,-17952,32767,94,47,815
580271,3963292,4000212,3970686,4003454,3800,3800,18116,-10214,-3674,-9794,-8989,32767,113,32,815
581272,3963880,4000332,3971292,4004060,3800,3800,16633,-4467,-2770,516,-4295,27282,113,32,815
582273,3964532,4000496,3971898,4004666,3800,3800,7629,5636,-2626,2890,-823,32767,114,39,815
583262,3965216,4000680,3972504,4005272,3629,3800,1301,11564,-3802,960,6653,12136,114,39,815
584262,3965876,4000864,3973110,4005878,3757,3800,503,8667,-5280,-3283,3960,-5713,136,46,816
585263,3966564,4001056,3973716,4006484,3546,3800,1777,2507,-6572,-1567,3103,-9204,136,46,816
586264,3967316,4001264,3974322,4007090,3084,3800,2505,-3562,-7138,-936,998,-9516,137,48,816
587266,3968080,4001472,3974928,4007696,2941,3800,2136,-7256,-6742,-545,-1258,-5767,137,48,816
588266,3968832,4001740,3975534,4008302,2953,3800,1463,-9959,-6217,-59,-902,-5791,156,55,819
589268,3969680,4001988,3976140,4008908,2248,3800,1136,-12619,-5714,-555,-1723,-4226,156,55,819
590268,3970480,4002272,3976746,4009514,2464,3800,861,-14633,-5105,-912,-2468,-1886,165,65,821
591270,3971308,4002588,3977352,4010120,2193,3800,447,-16468,-4318,-618,-3110,-1217,165,65,821
592271,3972208,4002912,3977958,4010726,1614,3800,-210,-17396,-3275,-729,-3126,1811,156,88,823
593272,3973056,4003340,3978564,4011332,1834,3800,-886,-17381,-2089,-1269,-3278,3948,156,88,823
594273,3973784,4003736,3979170,4011938,2531,3800,-1625,-16745,-1088,-2211,-3340,6246,166,89,826
595274,3974668,4004168,3979776,4012544,1435,3800,-2095,-15909,-306,-3599,-2382,5918,166,89,826
596275,3975464,4004608,3980382,4013150,1903,3800,-2186,-15647,282,-4392,-1501,3864,148,90,824
597276,3976216,4005084,3980988,4013756,2115,3800,-2070,-15706,684,-4556,-1217,3478,148,90,824
598277,3977020,4005568,3981594,4014362,1704,3800,-1929,-15680,1044,-5247,-463,4213,163,102,826
599278,3977788,4006084,3982200,4014968,1858,3800,-1875,-15114,1302,-5653,30,5381,163,102,826
600279,3978520,4006628,3982806,4015574,2029,3800,-1819,-13951,1546,-6064,-461,6521,160,113,827
601279,3979288,4007164,3983412,4016180,1734,3800,-1595,-12838,1887,-6951,-338,6234,160,113,827
602280,3979960,4007700,3984018,4016786,2306,3800,-1196,-11969,2314,-7131,-70,5561,143,104,826
603282,3980600,4008252,3984624,4017392,2491,3800,-793,-11327,2782,-7158,896,5647,143,104,826
604282,3981244,4008792,3985230,4017998,2450,3800,-401,-10575,3254,-7145,1255,5759,135,109,825
605290,3981912,4009312,3985858,4018626,2284,3800,-42,-9895,3735,-6303,1046,5398,135,109,825
606284,3982468,4009824,3986464,4019232,3007,3800,341,-9176,4356,-4921,829,5822,118,109,825
607286,3983120,4010276,3987070,4019838,2386,3800,620,-8323,5109,-3245,1216,6391,118,109,825
608287,3983612,4010788,3987676,4020444,3437,3800,943,-7964,5792,-2118,1612,4135,135,100,822
609288,3984124,4011292,3988282,4021050,3355,3800,1373,-8473,6318,-1098,1859,2131,135,100,822
610289,3984688,4011776,3988888,4021656,3049,3800,1927,-9373,6728,111,1770,1078,102,106,819
611290,3985164,4012244,3989494,4022262,3657,3800,2372,-10414,7110,1648,1377,960,102,106,819
612291,3985656,4012700,3990100,4022868,3607,3800,2755,-11255,7567,3065,755,1280,117,84,820
613304,3986088,4013068,3990706,4023474,3800,3800,3050,-12049,7968,4715,1160,1111,117,84,820
614292,3986584,4013568,3991312,4024080,3709,3800,3245,-12636,8193,5784,1561,1913,102,106,818
615306,3987020,4014020,3991918,4024686,3800,3800,3348,-12969,8348,6303,1246,2749,102,106,818
616307,3987436,4014512,3992524,4025292,3800,3800,3343,-13027,8376,6461,933,3518,96,99,817
617308,3987932,4015000,3993130,4025898,3800,3800,3236,-12731,8327,6335,181,4473,96,99,817
618309,3988412,4015448,3993736,4026504,3800,3800,3076,-12007,8294,6129,-579,5651,101,107,816
619310,3988880,4015968,3994342,4027110,3800,3800,2891,-10977,8373,6187,-2498,6206,101,107,816
620299,3989436,4016528,3994948,4027716,3685,3800,2724,-9905,8580,5842,-2800,6225,94,97,816
621312,3989976,4016972,3995554,4028322,3800,3800,2585,-8536,8589,5349,-1635,7467,94,97,816
622300,3990524,4017520,3996160,4028928,3791,3800,2287,-6762,8433,5237,-2511,9001,104,103,818
623302,3991176,4018056,3996766,4029534,3122,3800,1982,-4702,8342,5290,-2903,8783,104,103,818
624303,3991816,4018580,3997372,4030140,3183,3800,1912,-2905,8116,5185,-1235,7461,121,105,818
625304,3992368,4019256,3997978,4030746,3758,3800,2018,-1479,7591,5046,-75,6916,121,105,818
626305,3993112,4019892,3998584,4031352,2498,3800,2082,248,6929,4600,-43,8039,131,124,822
627306,3993720,4020616,3999190,4031958,3348,3800,2099,1863,6256,4604,31,6791,131,124,822
628307,3994384,4021328,3999796,4032564,2974,3800,2094,3311,5527,4719,207,6372,133,144,824
629307,3995084,4022112,4000402,4033170,2709,3800,2143,4392,4818,4425,-188,4915,133,144,824
630309,3995792,4022868,4001008,4033776,2615,3800,2311,5000,4086,4251,-607,3291,138,145,824
631309,3996432,4023788,4001614,4034382,3026,3800,2543,5282,3336,3892,-1147,2273,138,145,824
632320,3997228,4024692,4002242,4035010,1978,3800,2785,5399,2636,3551,-1438,1734,152,166,826
633312,3997956,4025520,4002848,4035616,2350,3800,2967,5496,2008,3693,-1843,1280,152,166,826
634313,3998728,4026484,4003454,4036222,2003,3800,3119,5515,1497,3803,-1874,610,161,175,827
635314,3999548,4027408,4004060,4036828,1610,3800,3246,5447,1107,3844,-2048,112,161,175,827
636315,4000340,4028424,4004666,4037434,1705,3800,3340,5234,790,3954,-2168,-527,159,200,830
637316,4001028,4029428,4005272,4038040,2320,3800,3424,4920,578,3885,-2320,-910,159,200,830
638304,4001876,4030520,4005878,4038646,1214,3754,3480,4762,506,4040,-2444,-688,154,183,830
639318,4002596,4031452,4006484,4039252,1964,3800,3436,4741,593,4129,-2871,-222,154,183,830
640319,4003312,4032436,4007090,4039858,1942,3800,3220,5166,808,3985,-2965,1020,161,191,833
641307,4003984,4033488,4007696,4040464,2189,3504,3029,5569,865,3498,-1749,-72,161,191,833
642308,4004920,4034548,4008302,4041070,395,3256,2963,5496,680,3390,-1299,-1519,158,190,829
643309,4005664,4035528,4008908,4041676,1534,3592,3054,5141,491,3252,-1755,-2415,158,190,829
644310,4006332,4036496,4009514,4042282,1983,3510,3212,4584,356,3001,-1956,-3145,145,196,835
645311,4007148,4037508,4010120,4042888,966,3058,3334,4254,313,2824,-2324,-2361,145,196,835
646324,4007876,4038352,4010726,4043494,1463,3800,3367,4280,364,2434,-2385,-1532,149,200,832
647313,4008492,4039332,4011332,4044100,2160,2991,3289,4815,447,2129,-2831,-295,149,200,832
648314,4009260,4040304,4011938,4044706,1138,2881,3149,5777,493,1619,-2559,392,142,184,833
649315,4009920,4041256,4012544,4045312,1791,2854,3054,6626,436,1181,-1903,-115,142,184,833
650316,4010564,4042168,4013150,4045918,1874,2970,2973,7471,286,1206,-1327,-1,146,206,835
651317,4011264,4043108,4013756,4046524,1484,2650,2907,8373,149,781,-947,-19,146,206,835
652318,4011824,4044148,4014362,4047130,2379,1835,2798,9334,0,420,-396,106,122,183,833
653319,4012464,4045100,4014968,4047736,1865,2233,2572,10384,-197,432,517,621,122,183,833
654320,4013172,4045956,4015574,4048342,1395,2724,2196,11643,-498,719,1952,1202,143,173,834
655321,4013700,4046756,4016180,4048948,2555,2989,1692,12596,-1009,585,4121,-452,143,173,834
656322,4014252,4047528,4016786,4049554,2429,3091,1159,12808,-1664,340,6020,-2191,125,160,835
657323,4014832,4048384,4017392,4050160,2266,2457,691,12534,-2253,609,6483,-2786,125,160,835
658324,4015352,4049212,4017998,4050766,2679,2534,307,12043,-2608,1124,5346,-3402,118,162,830
659332,4015856,4049924,4018626,4051394,2834,3222,-8,11349,-2804,1434,5143,-4188,118,162,830
660326,4016392,4050804,4019232,4052000,2666,2053,-309,10226,-3018,1702,5397,-5220,110,152,831
661327,4016860,4051624,4019838,4052606,3152,2334,-670,8937,-3217,2540,4693,-4988,110,152,831
662328,4017296,4052428,4020444,4053212,3427,2347,-1121,7790,-3300,2710,4063,-4281,116,175,831
663329,4017740,4053372,4021050,4053818,3449,1323,-1577,6730,-3250,2402,3393,-4012,116,175,831
664330,4018160,4054244,4021656,4054424,3681,1657,-2065,5700,-3134,2227,2677,-3523,101,177,826
665344,4018564,4055032,4022262,4055030,3800,2102,-2479,4861,-2895,2009,2208,-2520,101,177,826
666332,4019016,4055916,4022868,4055636,3639,1379,-2848,4248,-2580,2118,1583,-2112,84,188,828
667346,4019412,4056680,4023474,4056242,3800,2060,-3159,3450,-2298,1739,1662,-2707,84,188,828
668346,4019796,4057672,4024080,4056848,3800,465,-3418,2592,-2002,1304,1751,-2136,92,184,828
669347,4020148,4058556,4024686,4057454,3800,1018,-3750,1908,-1757,1365,2011,-1650,92,184,828
670348,4020564,4059420,4025292,4058060,3800,1030,-4144,1359,-1573,1303,2101,-1240,97,169,828
671349,4020952,4060184,4025898,4058666,3800,1585,-4522,942,-1426,966,2021,-920,97,169,828
672350,4021328,4060884,4026504,4059272,3800,1943,-4831,555,-1364,665,2223,-682,76,145,827
673352,4021760,4061528,4027110,4059878,3800,2276,-5165,349,-1375,472,2372,590,76,145,827
674352,4022152,4062176,4027716,4060484,3800,2233,-5635,709,-1384,566,1290,2500,79,120,824
675354,4022544,4062668,4028322,4061090,3800,3257,-6158,1360,-1419,624,695,2971,79,120,824
676355,4022996,4063112,4028928,4061696,3800,3628,-6638,2196,-1543,441,384,4009,79,100,823
677368,4023416,4063512,4029534,4062302,3800,3800,-7122,3371,-1676,285,-180,5511,79,100,823
678369,4023816,4063864,4030140,4062908,3800,3800,-7621,4583,-1916,-168,1020,5438,84,90,818
679370,4024280,4064224,4030746,4063514,3800,3800,-8212,5671,-2437,-1088,2254,5520,84,90,818
680371,4024668,4064524,4031352,4064120,3800,3800,-8795,6644,-3283,-2147,2801,5365,77,66,815
681372,4025068,4064728,4031958,4064726,3800,3800,-9339,7442,-4382,-3060,2546,5199,77,66,815
682373,4025544,4064940,4032564,4065332,3800,3800,-9946,8496,-5484,-3364,349,6834,84,48,813
683374,4025968,4065136,4033170,4065938,3800,3800,-10654,9767,-6434,-3313,-1303,7104,84,48,813
684375,4026412,4065356,4033776,4066544,3800,3800,-11203,10429,-7379,-3767,-1236,4837,91,46,814
685376,4026932,4065536,4034382,4067150,3800,3800,-11538,10166,-8387,-4368,-1356,3189,91,46,814
686384,4027404,4065688,4035010,4067778,3800,3800,-11817,9424,-9335,-4590,-2456,2840,85,43,812
687378,4027908,4065844,4035616,4068384,3800,3800,-8644,7194,-9454,-11466,-8372,10818,85,43,812
688379,4028460,4065980,4036222,4068990,3800,3800,6720,1236,-6297,-32768,-27870,32767,102,46,813
689381,4028992,4066144,4036828,4069596,3800,3800,17380,-994,-4106,-10958,-11169,24873,102,46,813
690381,4029540,4066320,4037434,4070202,3800,3800,16931,-35,-3802,-3853,-3461,8334,122,35,815
691382,4030160,4066536,4038040,4070808,3800,3800,12212,1394,-4297,-1429,-3153,9021,122,35,815
692383,4030788,4066760,4038646,4071414,3800,3800,7472,4546,-4125,-167,-3559,15120,131,58,815
693384,4031448,4066984,4039252,4072020,3800,3800,4363,5665,-3705,-362,972,6244,131,58,815
694373,4032172,4067220,4039858,4072626,3658,3800,3381,3656,-4065,-900,2135,-4277,120,60,816
695386,4032852,4067504,4040464,4073232,3800,3800,3095,-861,-4561,-1409,802,-7361,120,60,816
696374,4033572,4067760,4041070,4073838,3604,3800,2543,-4842,-4366,-50,-1457,-5701,140,61,816
697376,4034332,4068064,4041676,4074444,3287,3800,1749,-8011,-3752,204,-1571,-5598,140,61,816
698377,4035204,4068388,4042282,4075050,2471,3800,1056,-10538,-3339,-251,509,-3480,155,79,817
699378,4036024,4068736,4042888,4075656,2704,3800,443,-12241,-3103,158,215,-1243,155,79,817
700379,4036864,4069148,4043494,4076262,2477,3800,-59,-14012,-2798,-115,-103,-1719,154,88,822
701380,4037824,4069528,4044100,4076868,1573,3800,-588,-15245,-2318,-164,262,438,154,88,822
702380,4038680,4069936,4044706,4077474,2114,3800,-1169,-15875,-1764,-83,346,1999,165,89,822
703382,4039472,4070352,4045312,4078080,2434,3800,-1902,-15718,-1241,-613,461,4834,165,89,822
704382,4040360,4070812,4045918,4078686,1711,3800,-2509,-15001,-733,-1751,-148,5705,156,88,825
705384,4041184,4071260,4046524,4079292,2016,3800,-2934,-14389,-330,-2484,-657,5570,156,88,825
706385,4042004,4071780,4047130,4079898,1948,3800,-3220,-13610,-128,-3465,-225,6150,161,111,825
707386,4042856,4072296,4047736,4080504,1641,3800,-3424,-12844,-49,-4444,-197,6217,161,111,825
708387,4043620,4072812,4048342,4081110,2123,3800,-3533,-11809,65,-4822,-1256,7069,158,111,825
709388,4044392,4073344,4048948,4081716,2001,3800,-3535,-10503,374,-5287,-2068,7500,158,111,825
710389,4045172,4073896,4049554,4082322,1874,3800,-3477,-8937,884,-5851,-1957,8505,142,96,826
711390,4045880,4074428,4050160,4082928,2280,3800,-3314,-7460,1459,-6190,-1618,7986,142,96,826
712390,4046536,4074984,4050766,4083534,2584,3800,-2965,-6449,2029,-6557,-1037,6544,130,119,826
713398,4047244,4075484,4051394,4084162,2225,3800,-2487,-5841,2568,-6562,-618,5443,130,119,826
714392,4047864,4075996,4052000,4084768,2770,3800,-1952,-5638,3055,-6342,-211,4404,137,114,824
715393,4048452,4076532,4052606,4085374,2979,3800,-1438,-5920,3521,-5651,-27,3219,137,114,824
716394,4049068,4077116,4053212,4085980,2800,3800,-923,-6520,4031,-4445,-299,2191,119,105,823
717395,4049616,4077668,4053818,4086586,3251,3800,-319,-7598,4587,-3206,-111,355,119,105,823
718396,4050124,4078172,4054424,4087192,3545,3800,361,-9217,5133,-2050,111,-902,107,100,821
719397,4050676,4078620,4055030,4087798,3295,3800,1059,-11033,5716,-591,-58,-1486,107,100,821
720398,4051196,4079188,4055636,4088404,3534,3800,1707,-12882,6349,778,-134,-1708,109,108,819
721412,4051616,4079680,4056242,4089010,3800,3800,2304,-14560,6987,2201,-383,-1272,109,108,819
722401,4052116,4080288,4056848,4089616,3788,3800,2905,-16160,7482,3232,-77,-1245,91,103,819
723414,4052548,4080832,4057454,4090222,3800,3800,3461,-17546,7821,3899,-33,-409,91,103,819
724415,4052988,4081432,4058060,4090828,3800,3800,3906,-18516,7969,4472,72,610,95,111,817
725416,4053460,4082004,4058666,4091434,3800,3800,4129,-18919,8001,4506,-589,2098,95,111,817
726417,4053924,4082540,4059272,4092040,3800,3800,4196,-18739,8052,4395,-949,3425,101,121,816
727418,4054396,4083212,4059878,4092646,3800,3800,4162,-18030,8090,4526,-1343,5127,101,121,816
728419,4054900,4083780,4060484,4093252,3800,3800,4047,-16543,8122,4210,-2021,7149,91,129,817
729407,4055476,4084436,4061090,4093858,3708,3800,3878,-14566,8114,3602,-1907,8129,91,129,817
730409,4056048,4085076,4061696,4094464,3749,3800,3763,-12595,8041,3729,-1969,7831,110,118,817
731410,4056644,4085820,4062302,4095070,3604,3800,3674,-10483,8290,3924,-4138,8490,110,118,817
732411,4057360,4086568,4062908,4095676,2807,3800,3512,-7948,8518,3144,-2779,9734,136,134,819
733412,4057944,4087388,4063514,4096282,3642,3800,3199,-5127,8500,2803,-2907,10430,136,134,819
734412,4058608,4088132,4064120,4096888,3119,3800,2987,-2425,8383,2440,-2944,9345,120,158,821
735413,4059288,4089012,4064726,4097494,2987,3800,3076,-299,7985,2521,-733,7495,120,158,821
736414,4059960,4089812,4065332,4098100,3009,3800,3305,1402,7422,3034,-554,6925,145,172,822
737415,4060632,4090744,4065938,4098706,2981,3800,3500,3146,6916,3378,-95,6596,145,172,822
738417,4061404,4091772,4066544,4099312,2284,3800,3687,4620,6497,3573,-28,4880,146,171,824
739418,4062096,4092608,4067150,4099918,2747,3800,3875,5757,6116,4184,-144,4170,146,171,824
740428,4062832,4093616,4067778,4100546,2426,3800,4071,6642,5777,5270,-125,3065,137,186,826
741407,4063652,4094612,4068384,4101152,1808,3755,4355,6831,5381,6208,-805,366,137,186,826
742408,4064416,4095672,4068990,4101758,2089,3156,4750,6424,4960,6509,-1928,-1278,145,197,826
743409,4065188,4096736,4069596,4102364,1967,2931,5132,5739,4491,6147,-2093,-1600,145,197,826
744410,4065916,4097788,4070202,4102970,2189,2811,5337,5148,4017,6178,-2645,-1043,149,194,830
745410,4066700,4098824,4070808,4103576,1762,2723,5348,4813,3616,6361,-3412,-524,149,194,830
746412,4067400,4099728,4071414,4104182,2246,3418,5251,4693,3164,6497,-2848,-695,156,188,833
747413,4068264,4100692,4072020,4104788,1109,2887,5145,4364,2555,6449,-1892,-1866,156,188,833
748414,4068988,4101668,4072626,4105394,1932,2650,5124,3875,1908,6087,-1558,-2262,150,200,834
749415,4069784,4102664,4073232,4106000,1400,2354,5149,3465,1338,6113,-1540,-2198,150,200,834
750416,4070544,4103520,4073838,4106606,1558,3120,5132,3442,911,6783,-1680,-1341,156,166,835
751417,4071280,4104388,4074444,4107212,1651,2931,5009,3963,675,7221,-2113,-74,156,166,835
752430,4071980,4105108,4075050,4107818,1836,3800,4783,4780,488,6624,-2324,259,137,179,835
753419,4072812,4105960,4075656,4108424,911,2873,4531,5468,164,5749,-1779,-223,137,179,835
754421,4073496,4106952,4076262,4109030,1803,1829,4253,6059,-349,5074,-1085,-469,137,197,833
755421,4074148,4107828,4076868,4109636,1983,2436,3893,7019,-940,4419,-937,310,137,197,833
756423,4074800,4108704,4077474,4110242,1964,2317,3505,8136,-1493,3435,-906,268,149,188,835
757423,4075524,4109592,4078080,4110848,1462,2118,3088,9146,-1973,2993,-507,106,149,188,835
758424,4076144,4110400,4078686,4111454,2107,2530,2706,10254,-2465,2839,481,160,142,175,834
759425,4076800,4111288,4079292,4112060,1860,1907,2379,11226,-3026,2359,1703,-633,142,175,834
760426,4077472,4111996,4079898,4112666,1732,2987,2020,11915,-3678,1842,2866,-1190,122,158,836
761427,4078156,4112736,4080504,4113272,1622,2728,1543,12306,-4289,1379,3688,-1992,122,158,836
762428,4078748,4113448,4081110,4113878,2204,2856,999,12485,-4696,1717,3436,-2519,124,142,835
763429,4079260,4114284,4081716,4114484,2746,1980,475,12447,-4861,1777,3426,-3090,124,142,835
764430,4079816,4114864,4082322,4115090,2494,3592,73,12090,-4886,1570,4065,-3948,123,156,832
765431,4080380,4115672,4082928,4115696,2462,2078,-222,11379,-4807,1666,4062,-4513,123,156,832
766432,4080920,4116484,4083534,4116302,2642,1963,-504,10696,-4625,1738,3963,-4275,129,137,832
767440,4081408,4117320,4084162,4116930,3029,1721,-819,10025,-4390,1431,4280,-4595,129,137,832
768434,4081872,4118084,4084768,4117536,3242,2102,-1124,9139,-4166,1142,4715,-5086,108,168,832
769435,4082364,4118840,4085374,4118142,3117,2086,-1392,8115,-3908,1200,4824,-4923,108,168,832
770436,4082796,4119672,4085980,4118748,3570,1511,-1675,7096,-3562,1515,4367,-4741,116,166,831
771450,4083196,4120476,4086586,4119354,3800,1599,-1957,6083,-3058,1281,3851,-4578,116,166,831
772438,4083644,4121196,4087192,4119960,3631,2073,-2266,5192,-2494,943,3281,-3943,94,181,829
773452,4084060,4122100,4087798,4120566,3800,792,-2613,4408,-1918,467,2661,-3419,94,181,829
774453,4084468,4122920,4088404,4121172,3800,1223,-2969,3917,-1316,277,1824,-2458,107,174,826
775454,4084880,4123716,4089010,4121778,3800,1290,-3403,3604,-763,183,1329,-2037,107,174,826
776455,4085244,4124568,4089616,4122384,3800,831,-3864,3294,-343,-80,1626,-1814,85,146,827
777456,4085616,4125220,4090222,4122990,3800,2061,-4313,3058,-77,-261,2210,-1356,85,146,827
778457,4086016,4125864,4090828,4123596,3800,2093,-4763,2812,42,-386,2528,-1252,87,136,827
779458,4086388,4126472,4091434,4124202,3800,2317,-5218,2475,25,-354,2807,-1125,87,136,827
780459,4086760,4127060,4092040,4124808,3800,2449,-5711,2177,-142,-256,3301,-690,89,120,825
781460,4087144,4127624,4092646,4125414,3800,2617,-6265,2092,-425,-194,2358,471,89,120,825
782460,4087504,4128056,4093252,4126020,3800,3519,-6849,2540,-710,-129,959,2330,69,107,822
783462,4087884,4128472,4093858,4126626,3800,3701,-7410,3372,-979,25,254,3472,69,107,822
784475,4088276,4128856,4094464,4127232,3800,3800,-7966,4275,-1244,297,-40,3915,83,97,822
785476,4088680,4129176,4095070,4127838,3800,3800,-8605,5282,-1558,422,301,4986,83,97,822
786477,4089068,4129524,4095676,4128444,3800,3800,-9236,6132,-2101,31,1852,4558,71,82,814
787479,4089456,4129804,4096282,4129050,3800,3800,-9863,6891,-2937,-593,2337,4930,71,82,814
788480,4089880,4130032,4096888,4129656,3800,3800,-10516,7764,-3954,-1406,1684,5649,92,63,814
789481,4090268,4130240,4097494,4130262,3800,3800,-11159,8566,-5055,-1920,756,5511,92,63,814
790481,4090676,4130424,4098100,4130868,3800,3800,-11733,9109,-6212,-1999,380,4835,76,58,814
791482,4091112,4130600,4098706,4131474,3800,3800,-12288,9568,-7306,-2082,-490,5419,76,58,814
792483,4091520,4130792,4099312,4132080,3800,3800,-12853,9792,-8322,-2411,-1212,4759,79,48,814
793484,4091968,4130944,4099918,4132686,3800,3800,-13341,9549,-9193,-2731,-2393,3902,79,48,814
794492,4092448,4131052,4100546,4133314,3800,3800,-12879,8635,-9912,-5612,-5426,4744,81,38,813
795487,4092916,4131192,4101152,4133920,3800,3800,1216,1468,-7386,-32768,-26678,32767,81,38,813
796487,4093428,4131336,4101758,4134526,3800,3800,16000,-2611,-4293,-19016,-18564,32767,95,26,813
797489,4093968,4131476,4102364,4135132,3800,3800,18346,-1929,-3565,-2974,-3167,10456,95,26,813
798489,4094536,4131640,4102970,4135738,3800,3800,12288,3173,-3927,86,-3156,21601,94,46,812
799491,4095044,4131796,4103576,4136344,3800,3800,5419,9127,-4178,1465,-367,19109,94,46,812
800491,4095680,4132008,4104182,4136950,3800,3800,2133,10119,-4628,-1478,3510,3279,124,42,814
801492,4096328,4132196,4104788,4137556,3800,3800,1911,6656,-5539,-1560,2149,-6016,124,42,814
802493,4096984,4132444,4105394,4138162,3800,3800,2193,1187,-6207,-1180,567,-7796,129,50,815
803494,4097720,4132680,4106000,4138768,3800,3800,1715,-2657,-5914,-429,-2055,-4871,129,50,815
804495,4098404,4132900,4106606,4139374,3800,3800,910,-5797,-5350,-209,-959,-5888,126,62,816
805496,4099128,4133164,4107212,4139980,3800,3800,511,-8722,-5149,-804,450,-5676,126,62,816
806485,4099960,4133472,4107818,4140586,3168,3800,453,-11273,-4983,-1154,-857,-3499,155,69,817
807485,4100756,4133808,4108424,4141192,3311,3800,239,-13502,-4674,-1140,-1137,-2668,155,69,817
808487,4101616,4134188,4109030,4141798,2801,3800,-282,-14878,-4044,-1060,-1600,525,148,74,817
809487,4102520,4134596,4109636,4142404,2397,3800,-966,-15325,-3148,-1423,-2193,2489,148,74,817
810489,4103400,4135032,4110242,4143010,2427,3800,-1702,-15198,-2251,-1973,-2519,4300,180,89,822
811490,4104260,4135456,4110848,4143616,2443,3800,-2264,-14640,-1475,-3502,-2962,5651,180,89,822
812491,4105172,4135940,4111454,4144222,1984,3800,-2525,-14117,-877,-4672,-2628,4706,181,93,824
813491,4106012,4136452,4112060,4144828,2332,3800,-2562,-13786,-465,-5300,-1744,4664,181,93,824
814492,4106884,4136952,4112666,4145434,2016,3800,-2557,-13364,-124,-6018,-1217,5397,160,111,825
815493,4107676,4137468,4113272,4146040,2436,3800,-2459,-12672,196,-6244,-1632,5615,160,111,825
816494,4108576,4138012,4113878,4146646,1632,3800,-2283,-11740,539,-6166,-2137,6340,163,104,825
817495,4109400,4138540,4114484,4147252,2013,3800,-2019,-10531,886,-6458,-1733,7013,163,104,825
818496,4110192,4139108,4115090,4147858,2132,3800,-1711,-9367,1186,-6688,-1497,6624,165,124,825
819497,4110984,4139672,4115696,4148464,2051,3800,-1274,-8339,1535,-7167,-1397,6295,165,124,825
820499,4111692,4140216,4116302,4149070,2532,3800,-855,-7477,1982,-7612,-1206,6280,158,106,825
821507,4112368,4140740,4116930,4149698,2712,3800,-433,-6705,2478,-7417,-968,5807,158,106,825
822501,4113152,4141232,4117536,4150304,1960,3800,-22,-6217,3068,-7094,-1002,4986,148,101,826
823502,4113764,4141768,4118142,4150910,3033,3800,486,-6157,3701,-6263,-980,3688,148,101,826
824503,4114400,4142332,4118748,4151516,2871,3800,971,-6530,4346,-4899,-519,2778,127,101,823
825503,4115024,4142876,4119354,4152122,2938,3800,1477,-7119,5075,-3565,-245,1989,127,101,823
826505,4115564,4143392,4119960,4152728,3493,3800,2042,-8322,5761,-2200,153,-307,138,100,822
827506,4116120,4143888,4120566,4153334,3416,3800,2695,-9999,6369,-677,447,-1345,138,100,822
828507,4116684,4144388,4121172,4153940,3386,3800,3344,-11744,6974,709,399,-1435,106,113,821
829520,4117140,4144968,4121778,4154546,3800,3800,3866,-13350,7568,2001,25,-903,106,113,821
830521,4117632,4145524,4122384,4155152,3800,3800,4271,-14824,8009,3135,331,-720,108,105,819
831522,4118128,4146096,4122990,4155758,3800,3800,4606,-16144,8232,3997,947,-469,108,105,819
832523,4118596,4146680,4123596,4156364,3800,3800,4856,-17097,8302,4907,869,476,93,112,817
833524,4119068,4147316,4124202,4156970,3800,3800,4929,-17555,8354,5039,-300,2150,93,112,817
834525,4119588,4147896,4124808,4157576,3800,3800,4877,-17456,8493,4717,-1129,3465,96,114,818
835526,4120136,4148540,4125414,4158182,3800,3800,4727,-16737,8679,4731,-1811,5214,96,114,818
836528,4120660,4149188,4126020,4158788,3800,3800,4437,-15311,8818,4485,-2194,7130,102,126,818
837516,4121312,4149844,4126626,4159394,3207,3800,4136,-13547,8860,4103,-1684,7174,102,126,818
838517,4121964,4150540,4127232,4160000,3188,3800,3892,-12081,8679,4121,-814,6236,116,129,819
839518,4122556,4151260,4127838,4160606,3570,3800,3661,-10468,8418,3704,-1228,7035,116,129,819
840519,4123272,4152068,4128444,4161212,2747,3800,3416,-8728,8260,3322,-1833,6962,136,135,821
841520,4123856,4152928,4129050,4161818,3583,3800,3211,-7058,8393,3554,-3507,6513,136,135,821
842521,4124508,4153704,4129656,4162424,3139,3800,3082,-5348,8259,2673,-1114,6773,132,166,819
843522,4125192,4154600,4130262,4163030,2906,3800,2916,-3258,7912,2498,-1134,7727,132,166,819
844523,4125864,4155448,4130868,4163636,2953,3800,2695,-1257,7631,3043,-1813,6912,145,185,822
845524,4126548,4156420,4131474,4164242,2844,3800,2646,427,7271,2868,-719,5539,145,185,822
846524,4127232,4157408,4132080,4164848,2811,3800,2736,1982,6880,3137,-354,5293,147,180,825
847525,4128032,4158328,4132686,4165454,2002,3800,2845,3343,6497,3915,-269,4219,147,180,825
848535,4128752,4159260,4133314,4166082,2462,3800,3033,4297,6219,4328,-926,2763,138,191,827
849515,4129544,4160336,4133920,4166688,1932,3261,3326,4757,5871,4993,-617,1069,138,191,827
850516,4130348,4161416,4134526,4167294,1771,3029,3626,4719,5349,5964,-955,-225,158,202,829
851517,4131140,4162472,4135132,4167900,1764,2982,3892,4516,4814,5932,-1909,-620,158,202,829
852518,4131816,4163476,4135738,4168506,2459,3133,4121,4143,4312,5738,-2705,-1314,156,199,831
853519,4132624,4164524,4136344,4169112,1546,2665,4276,3705,3763,5948,-3101,-1401,156,199,831
854520,4133360,4165472,4136950,4169718,1940,3140,4295,3396,3247,6140,-3123,-896,156,187,834
855521,4134180,4166400,4137556,4170324,1321,3125,4196,3371,2745,6440,-2544,-690,156,187,834
856522,4134908,4167408,4138162,4170930,1843,2449,4175,3352,2154,6104,-1400,-1592,150,195,835
857523,4135800,4168384,4138768,4171536,694,2487,4324,3100,1551,5943,-1031,-2330,150,195,835
858524,4136460,4169192,4139374,4172142,2120,3449,4485,3039,1006,7053,-867,-1500,144,175,834
859525,4137212,4170040,4139980,4172748,1482,3093,4457,3631,643,7599,-1272,163,144,175,834
860526,4137964,4170844,4140586,4173354,1418,3282,4304,4586,437,6802,-1869,346,148,171,838
861527,4138648,4171696,4141192,4173960,1809,2873,4105,5257,91,5972,-1088,-717,148,171,838
862528,4139436,4172728,4141798,4174566,1079,1562,3904,5835,-493,5423,-230,-657,128,177,832
863529,4140032,4173600,4142404,4175172,2285,2445,3639,6808,-1166,4803,-115,-80,128,177,832
864530,4140684,4174416,4143010,4175778,1915,2704,3355,7732,-1754,4026,-300,-494,136,179,832
865531,4141384,4175288,4143616,4176384,1574,2237,3015,8657,-2112,4195,-104,-17,136,179,832
866532,4142020,4176140,4144222,4176990,1961,2254,2678,9668,-2511,3770,1495,-504,125,184,833
867533,4142672,4176988,4144828,4177596,1841,2173,2418,10409,-3175,2816,2736,-1779,125,184,833
868534,4143364,4177748,4145434,4178202,1554,2655,2133,10815,-4038,2105,4209,-2260,119,147,835
869535,4144028,4178444,4146040,4178808,1704,3015,1704,11069,-4804,2123,5120,-2505,119,147,835
870536,4144572,4179196,4146646,4179414,2482,2601,1061,11383,-5252,2553,4936,-2546,142,145,835
871537,4145116,4179928,4147252,4180020,2509,2671,484,11511,-5286,2375,4071,-2959,142,145,835
872538,4145640,4180648,4147858,4180626,2670,2696,43,11381,-5096,2265,4271,-3268,134,143,832
873539,4146204,4181396,4148464,4181232,2440,2458,-314,11027,-4942,2040,4971,-3971,134,143,832
874540,4146676,4182224,4149070,4181838,3074,1861,-664,10662,-4838,2038,5194,-4067,108,150,829
875548,4147192,4183036,4149698,4182466,2849,1880,-1024,10047,-4824,1663,5480,-5011,108,150,829
876542,4147696,4183796,4150304,4183072,2969,2137,-1362,9085,-4800,1343,5335,-5319,119,145,831
877543,4148104,4184528,4150910,4183678,3657,2257,-1706,8135,-4662,1811,4250,-4718,119,145,831
878544,4148556,4185324,4151516,4184284,3449,1773,-2078,7317,-4381,1964,3218,-4623,112,171,831
879545,4148976,4186184,4152122,4184890,3732,1262,-2498,6589,-3884,1749,1856,-3884,112,171,831
880558,4149384,4186964,4152728,4185496,3800,1685,-2965,5948,-3273,1505,1039,-3472,91,176,826
881547,4149844,4187852,4153334,4186102,3634,885,-3413,5342,-2650,1120,600,-3181,91,176,826
882560,4150228,4188664,4153940,4186708,3800,1270,-3880,4930,-2076,752,267,-2353,81,167,828
883562,4150592,4189516,4154546,4187314,3800,912,-4351,4589,-1598,311,143,-2178,81,167,828
884563,4150984,4190284,4155152,4187920,3800,1365,-4841,4216,-1212,-4,381,-1849,75,165,827
885564,4151340,4190924,4155758,4188526,3800,2150,-5333,3909,-919,-98,751,-1543,75,165,827
886565,4151704,4191568,4156364,4189132,3800,2107,-5770,3480,-758,22,1109,-1709,95,141,827
887566,4152100,4192160,4156970,4189738,3800,2438,-6169,2979,-756,-37,1671,-1475,95,141,827
888567,4152472,4192736,4157576,4190344,3800,2550,-6611,2634,-893,-56,2143,-499,85,123,824
889568,4152824,4193272,4158182,4190950,3800,2831,-7142,2837,-1071,169,1141,1514,85,123,824
890569,4153220,4193728,4158788,4191556,3800,3396,-7664,3283,-1279,162,296,1940,64,97,823
891570,4153588,4194136,4159394,4192162,3800,3783,-8120,3840,-1482,455,-301,2600,64,97,823
892583,4153976,4194532,4160000,4192768,3800,3800,-8588,4467,-1659,664,-739,3640,83,82,820
893584,4154384,4194864,4160606,4193374,3800,3800,-9185,5459,-1834,635,-502,5479,83,82,820
894585,4154768,4195212,4161212,4193980,3800,3800,-9827,6519,-2193,306,514,5305,72,80,814
895586,4155160,4195516,4161818,4194586,3800,3800,-10461,7417,-2885,-339,1453,5147,72,80,814
896587,4155580,4195756,4162424,4195192,3800,3800,-11072,8247,-3811,-1198,1612,5645,72,74,813
897588,4155952,4195988,4163030,4195798,3800,3800,-11626,8933,-4872,-1954,1083,5246,72,74,813
898589,4156356,4196200,4163636,4196404,3800,3800,-12107,9419,-5961,-2064,-249,5127,76,64,814
899590,4156812,4196432,4164242,4197010,3800,3800,-12472,9798,-7002,-2207,-1199,5084,76,64,814
900591,4157240,4196628,4164848,4197616,3800,3800,-12897,10270,-7903,-2541,-2232,6209,75,49,813
901592,4157684,4196796,4165454,4198222,3800,3800,-13402,10585,-8758,-3277,-2358,5702,75,49,813
902600,4158200,4196948,4166082,4198850,3800,3800,-8267,7933,-8607,-15162,-11116,17910,84,47,813
903594,4158696,4197108,4166688,4199456,3800,3800,9171,1457,-5391,-32768,-29437,32767,84,47,813
904595,4159192,4197256,4167294,4200062,3800,3800,19487,-24,-3558,-8265,-8000,19511,101,42,813
905596,4159748,4197436,4167900,4200668,3800,3800,17494,1774,-3490,-3104,-2818,11598,101,42,813
906597,4160340,4197624,4168506,4201274,3800,3800,9880,8364,-3588,698,-4722,26463,120,45,812
907598,4160904,4197800,4169112,4201880,3800,3800,4398,12445,-3917,-996,2786,10155,120,45,812
908599,4161548,4197984,4169718,4202486,3800,3800,3006,10778,-4856,-2684,3698,-3277,120,51,814
909600,4162252,4198196,4170324,4203092,3800,3800,3516,5308,-6121,-2425,2918,-8818,120,51,814
910601,4162904,4198412,4170930,4203698,3800,3800,3528,-53,-6809,-1698,617,-7578,122,59,816
911602,4163576,4198624,4171536,4204304,3800,3800,2499,-3776,-6305,-638,-2719,-5230,122,59,816
912590,4164368,4198924,4172142,4204910,3480,3800,1356,-6864,-5571,-740,-1487,-6073,148,57,814
913591,4165112,4199184,4172748,4205516,3721,3800,876,-9857,-5240,-1266,-721,-5197,148,57,814
914592,4165892,4199524,4173354,4206122,3421,3800,580,-12367,-4945,-951,-1760,-3018,137,77,817
915593,4166800,4199904,4173960,4206728,2490,3800,146,-14246,-4464,-734,-1712,-1871,137,77,817
916595,4167636,4200304,4174566,4207334,2840,3800,-536,-15597,-3685,-889,-1841,-44,149,88,818
917595,4168512,4200712,4175172,4207940,2472,3800,-1227,-16449,-2761,-1574,-2458,925,149,88,818
918597,4169484,4201136,4175778,4208546,1713,3800,-1860,-17065,-1875,-2352,-2223,2141,177,96,822
919598,4170332,4201608,4176384,4209152,2383,3800,-2317,-16969,-1207,-3438,-1667,4195,177,96,822
920599,4171148,4202084,4176990,4209758,2492,3800,-2578,-16656,-743,-4566,-1430,3966,185,107,824
921599,4172056,4202640,4177596,4210364,1785,3800,-2675,-16404,-337,-5411,-1313,4325,185,107,824
922601,4172872,4203156,4178202,4210970,2269,3800,-2671,-15956,64,-5642,-1225,5010,189,113,825
923602,4173732,4203720,4178808,4211576,1883,3800,-2648,-14918,465,-5619,-1443,6656,189,113,825
924603,4174624,4204248,4179414,4212182,1558,3800,-2589,-13556,912,-6143,-1948,7216,180,117,826
925604,4175400,4204836,4180020,4212788,2210,3800,-2381,-12169,1364,-6536,-1762,7192,180,117,826
926605,4176180,4205408,4180626,4213394,2109,3800,-2055,-10879,1823,-6890,-1470,7072,155,105,826
927606,4176964,4205948,4181232,4214000,2007,3800,-1679,-9535,2281,-7446,-812,7310,155,105,826
928607,4177644,4206512,4181838,4214606,2626,3800,-1319,-8390,2749,-7821,-517,6700,147,129,825
929614,4178336,4207028,4182466,4215234,2522,3800,-900,-7594,3275,-7518,-627,5857,147,129,825
930609,4179040,4207572,4183072,4215840,2405,3800,-457,-7027,3861,-6432,-487,5320,148,106,824
931610,4179704,4208128,4183678,4216446,2631,3800,-19,-6695,4531,-5215,-530,4510,148,106,824
932611,4180268,4208752,4184284,4217052,3275,3800,460,-6864,5231,-4274,-249,2865,125,108,824
933612,4180864,4209276,4184890,4217658,3081,3800,1036,-7861,5845,-2857,320,293,125,108,824
934613,4181412,4209776,4185496,4218264,3406,3800,1710,-9348,6381,-1242,824,-964,132,113,823
935613,4181936,4210348,4186102,4218870,3593,3800,2359,-10935,6914,184,760,-1125,132,113,823
936627,4182424,4210920,4186708,4219476,3800,3800,2953,-12517,7496,1475,247,-1056,118,105,822
937615,4182956,4211572,4187314,4220082,3630,3800,3473,-13968,8031,3080,316,-687,118,105,822
938629,4183428,4212112,4187920,4220688,3800,3800,3964,-15195,8351,4420,1028,-322,106,115,818
939630,4183908,4212764,4188526,4221294,3800,3800,4347,-16084,8503,5009,1010,585,106,115,818
940631,4184408,4213384,4189132,4221900,3800,3800,4624,-16696,8493,5029,949,1313,97,118,818
941632,4184932,4213992,4189738,4222506,3800,3800,4667,-16889,8436,4669,-311,2829,97,118,818
942633,4185420,4214704,4190344,4223112,3800,3800,4618,-16446,8428,4865,-768,4219,105,139,817
943622,4186028,4215352,4190950,4223718,3407,3800,4524,-15520,8413,4954,-1223,5302,105,139,817
944622,4186600,4216048,4191556,4224324,3648,3800,4304,-14013,8333,4333,-1615,6992,113,127,818
945623,4187200,4216804,4192162,4224930,3477,3800,4083,-12284,8205,3795,-1568,7045,113,127,818
946624,4187868,4217564,4192768,4225536,3026,3800,3963,-10609,8021,3892,-1651,6762,114,140,821
947625,4188520,4218404,4193374,4226142,3107,3800,3823,-8814,7886,3604,-2617,7278,114,140,821
948626,4189092,4219236,4193980,4226748,3623,3800,3712,-7061,8037,3697,-4023,6680,144,172,821
949627,4189868,4220116,4194586,4227354,2274,3800,3669,-5444,8056,3215,-2705,6327,144,172,821
950628,4190456,4220964,4195192,4227960,3458,3800,3598,-3420,7905,3002,-2373,7896,117,180,823
951630,4191144,4221872,4195798,4228566,2797,3800,3362,-1077,7688,3391,-1792,8400,117,180,823
952631,4191840,4222844,4196404,4229172,2708,3800,3282,957,7223,3286,-837,6090,137,182,827
953619,4192516,4223828,4197010,4229778,2803,3732,3410,2366,6630,3268,-235,4461,137,182,827
954620,4193212,4224800,4197616,4230384,2640,3647,3587,3402,5994,4154,494,3348,145,175,826
955621,4194032,4225872,4198222,4230990,1772,2819,3719,3994,5403,5309,176,1776,145,175,826
956631,4194808,4226952,4198850,4231618,1983,2571,3930,4211,4994,6176,-911,259,151,199,827
957623,4195580,4227856,4199456,4232224,1935,3541,4236,4230,4645,6766,-1627,-565,151,199,827
958624,4196424,4228908,4200062,4232830,1381,2421,4467,4117,4349,6778,-2757,-573,141,207,834
959625,4197104,4230072,4200668,4233436,2375,1477,4568,3968,4005,6396,-3211,-520,141,207,834
960626,4197808,4230972,4201274,4234042,2183,2998,4579,3735,3521,6288,-3258,-1072,152,201,831
961627,4198648,4231828,4201880,4234648,1230,3164,4619,3431,2822,6222,-2638,-1767,152,201,831
962628,4199400,4232792,4202486,4235254,1717,2332,4656,3031,2033,6027,-2262,-2026,153,175,834
963629,4200092,4233676,4203092,4235860,2054,2710,4684,2766,1272,6119,-1839,-1908,153,175,834
964630,4200880,4234612,4203698,4236466,1375,2240,4715,2874,614,6293,-1435,-1503,133,171,834
965631,4201600,4235452,4204304,4237072,1751,2738,4679,3457,168,7118,-1326,-193,133,171,834
966632,4202344,4236120,4204910,4237678,1540,3786,4574,4270,-104,7347,-1922,3,150,182,833
967633,4203048,4236960,4205516,4238284,1748,2608,4453,5217,-313,6773,-2455,196,150,182,833
968634,4203848,4237836,4206122,4238890,1063,2266,4323,6056,-659,5874,-2039,-463,155,173,834
969635,4204556,4238748,4206728,4239496,1593,1906,4126,6777,-1217,5245,-1236,-747,155,173,834
970636,4205168,4239588,4207334,4240102,2191,2253,3768,7760,-1799,4801,-904,170,125,185,834
971637,4205912,4240408,4207940,4240708,1306,2284,3321,9041,-2302,4408,-683,295,125,185,834
972638,4206576,4241188,4208546,4241314,1781,2458,2859,10051,-2754,4179,113,-632,127,149,836
973639,4207208,4241976,4209152,4241920,1970,2328,2461,10833,-3340,3872,1604,-1217,127,149,836
974640,4207844,4242664,4209758,4242526,1932,2917,2177,11272,-4009,3614,2427,-2482,126,142,835
975641,4208436,4243412,4210364,4243132,2214,2479,1948,11441,-4681,3194,3343,-3026,126,142,835
976642,4209068,4244056,4210970,4243738,1952,3113,1511,11551,-5220,2750,4225,-2977,133,143,833
977643,4209740,4244792,4211576,4244344,1673,2481,942,11524,-5474,2829,3817,-3434,133,143,833
978644,4210264,4245516,4212182,4244950,2635,2504,375,11467,-5510,2878,4072,-3395,126,149,832
979645,4210772,4246124,4212788,4245556,2778,3228,-99,11109,-5514,2388,5154,-4330,126,149,832
980646,4211312,4246920,4213394,4246162,2608,1969,-468,10466,-5478,2355,5032,-4711,125,129,833
981646,4211804,4247724,4214000,4246768,2959,1832,-752,9962,-5305,1779,4925,-4256,125,129,833
982648,4212312,4248500,4214606,4247374,2902,1932,-980,9424,-5073,1175,5508,-4815,114,164,827
983655,4212772,4249208,4215234,4248002,3276,2322,-1228,8779,-4820,1107,5179,-4758,114,164,827
984650,4213216,4249956,4215840,4248608,3448,2009,-1475,8042,-4500,1130,5419,-4513,95,161,829
985651,4213632,4250708,4216446,4249214,3707,1920,-1848,7457,-4150,1489,4973,-4031,95,161,829
986652,4214076,4251496,4217052,4249820,3603,1614,-2301,6930,-3647,1017,3851,-3607,89,164,828
987666,4214496,4252280,4217658,4250426,3800,1561,-2810,6538,-3049,702,2638,-2984,89,164,828
988667,4214892,4253168,4218264,4251032,3800,787,-3378,6206,-2494,416,1790,-2746,108,175,826
989655,4215348,4253924,4218870,4251638,3770,1545,-3892,5961,-1947,144,1070,-2038,108,175,826
990668,4215732,4254716,4219476,4252244,3800,1238,-4376,5929,-1432,91,673,-1521,97,150,827
991669,4216096,4255492,4220082,4252850,3800,1262,-4907,5793,-981,-250,606,-1584,97,150,827
992670,4216452,4256148,4220688,4253456,3800,1990,-5467,5621,-626,-341,662,-1264,74,140,826
993671,4216836,4256732,4221294,4254062,3800,2449,-5996,5370,-428,-254,1062,-1364,74,140,826
994672,4217220,4257376,4221900,4254668,3800,2057,-6456,4908,-407,-156,1732,-1636,86,125,826
995673,4217580,4257908,4222506,4255274,3800,2789,-6940,4423,-568,-76,2308,-1259,86,125,826
996675,4217988,4258476,4223112,4255880,3800,2581,-7536,4268,-880,-195,1953,328,79,107,821
997675,4218352,4258920,4223718,4256486,3800,3426,-8161,4512,-1163,-27,-75,1651,79,107,821
998689,4218728,4259308,4224324,4257092,3800,3800,-8671,4943,-1347,239,-890,2043,75,89,820
999690,4219148,4259700,4224930,4257698,3800,3800,-9122,5271,-1535,434,-1266,2482,75,89,820
1000691,4219524,4260040,4225536,4258304,3800,3800,-9644,5775,-1797,484,-1532,3813,84,87,817
1001692,4219908,4260332,4226142,4258910,3800,3800,-10270,6520,-2230,-44,-382,4648,84,87,817
1002693,4220360,4260684,4226748,4259516,3800,3800,-10880,7265,-2960,-1036,1433,4551,92,80,814
1003694,4220744,4260952,4227354,4260122,3800,3800,-11481,7951,-3942,-2119,1495,5074,92,80,814
1004695,4221144,4261168,4227960,4260728,3800,3800,-12049,8557,-5048,-2860,674,5027,77,62,814
1005696,4221576,4261364,4228566,4261334,3800,3800,-12542,9024,-6173,-2948,-663,4982,77,62,814
1006697,4221992,4261540,4229172,4261940,3800,3800,-13043,9707,-7170,-3055,-2040,6330,85,57,812
1007698,4222428,4261740,4229778,4262546,3800,3800,-13609,10394,-8049,-3579,-2840,6406,85,57,812
1008699,4222904,4261900,4230384,4263152,3800,3800,-14043,10520,-8916,-4176,-3414,4706,77,48,813
1009700,4223400,4262068,4230990,4263758,3800,3800,-6891,6772,-8350,-21068,-14985,26037,77,48,813
1010708,4223864,4262208,4231618,4264386,3800,3800,11109,654,-4816,-32768,-28070,32767,94,41,813
1011702,4224452,4262352,4232224,4264992,3800,3800,19417,90,-3146,-7425,-6229,7773,94,41,813
1012703,4225016,4262500,4232830,4265598,3800,3800,16568,2064,-3288,-3463,-3470,10973,110,44,813
1013704,4225548,4262640,4233436,4266204,3800,3800,9799,8146,-3754,-18,-2952,22512,110,44,813
1014705,4226192,4262792,4234042,4266810,3800,3800,4473,11942,-3989,-825,2033,13267,121,35,814
1015706,4226816,4262960,4234648,4267416,3800,3800,2710,11300,-4612,-2121,2877,-1107,121,35,814
1016708,4227460,4263140,4235254,4268022,3800,3800,2798,6270,-5668,-2303,2269,-8270,138,47,812
1017696,4228208,4263352,4235860,4268628,3793,3800,2682,1161,-6063,-1152,-520,-6763,138,47,812
1018710,4228916,4263580,4236466,4269234,3800,3800,1897,-2866,-5650,-462,-1871,-6550,132,49,814
1019698,4229648,4263808,4237072,4269840,3796,3800,1152,-6429,-5396,-597,270,-6746,132,49,814
1020699,4230396,4264052,4237678,4270446,3636,3800,757,-9514,-5204,-738,-837,-4930,157,63,816
1021700,4231276,4264292,4238284,4271052,2691,3800,455,-11989,-4818,-351,-1551,-3073,157,63,816
1022701,4232120,4264608,4238890,4271658,2813,3800,77,-13911,-4237,-234,-1421,-2105,154,62,817
1023702,4232980,4264972,4239496,4272264,2603,3800,-451,-15298,-3529,-410,-1269,-217,154,62,817
1024702,4233916,4265324,4240102,4272870,1984,3800,-1113,-16199,-2727,-888,-1840,1335,172,73,821
1025704,4234784,4265756,4240708,4273476,2295,3800,-1841,-16351,-1898,-1542,-2125,4036,172,73,821
1026705,4235676,4266180,4241314,4274082,2020,3800,-2358,-16038,-1221,-2886,-2312,4292,162,83,823
1027706,4236556,4266608,4241920,4274688,1976,3800,-2520,-15867,-759,-4244,-1920,3509,162,83,823
1028707,4237416,4267140,4242526,4275294,1990,3800,-2546,-15748,-475,-5266,-947,4572,175,110,823
1029708,4238240,4267620,4243132,4275900,2120,3800,-2544,-15261,-302,-5817,-476,5317,175,110,823
1030708,4239108,4268128,4243738,4276506,1731,3800,-2487,-14440,-136,-6017,-776,5979,158,112,826
1031709,4239968,4268664,4244344,4277112,1671,3800,-2343,-13248,88,-6057,-1343,6814,158,112,826
1032710,4240740,4269240,4244950,4277718,2149,3800,-2101,-12040,383,-6265,-1630,6969,174,119,825
1033712,4241584,4269796,4245556,4278324,1595,3800,-1783,-10796,720,-6538,-1688,6923,174,119,825
1034713,4242312,4270412,4246162,4278930,2267,3800,-1393,-9542,1138,-7193,-1424,6968,153,112,827
1035714,4242988,4270964,4246768,4279536,2562,3800,-1029,-8393,1602,-7764,-1119,7065,153,112,827
1036714,4243704,4271504,4247374,4280142,2264,3800,-641,-7445,2075,-7693,-734,6264,140,111,826
1037723,4244368,4272044,4248002,4280770,2574,3800,-245,-6978,2627,-6989,-664,4822,140,111,826
1038716,4244972,4272552,4248608,4281376,2950,3800,267,-6973,3226,-6316,-719,3445,132,104,823
1039718,4245600,4273136,4249214,4281982,2792,3800,756,-7285,3914,-5295,-376,2920,132,104,823
1040718,4246164,4273640,4249820,4282588,3211,3800,1262,-8112,4646,-3822,151,986,129,108,822
1041720,4246684,4274188,4250426,4283194,3525,3800,1780,-9467,5324,-1983,545,-450,129,108,822
1042721,4247248,4274700,4251032,4283800,3268,3800,2433,-11076,5968,-575,883,-1567,124,102,822
1043722,4247792,4275148,4251638,4284406,3422,3800,3054,-13039,6564,818,1086,-2233,124,102,822
1044735,4248228,4275760,4252244,4285012,3800,3800,3596,-14860,7185,2302,594,-1467,103,105,819
1045724,4248744,4276260,4252850,4285618,3712,3800,4016,-16272,7733,3831,966,-640,103,105,819
1046737,4249216,4276820,4253456,4286224,3800,3800,4365,-17275,8098,4661,936,96,89,101,819
1047738,4249668,4277380,4254062,4286830,3800,3800,4682,-18058,8311,4692,612,750,89,101,819
1048739,4250192,4277948,4254668,4287436,3800,3800,4919,-18527,8433,4800,24,1953,107,116,818
1049740,4250692,4278548,4255274,4288042,3800,3800,4966,-18317,8555,4883,-875,3857,107,116,818
1050741,4251232,4279140,4255880,4288648,3800,3800,4828,-17406,8721,4851,-1514,5365,98,117,816
1051743,4251772,4279756,4256486,4289254,3800,3800,4558,-15995,8857,4465,-1872,6783,98,117,816
1052731,4252428,4280336,4257092,4289860,3088,3800,4234,-14124,8898,3925,-1696,7662,109,134,818
1053732,4253028,4281000,4257698,4290466,3442,3800,3997,-12309,8801,3636,-1055,7109,109,134,818
1054733,4253656,4281648,4258304,4291072,3258,3800,3751,-10463,8682,3602,-1849,7710,105,121,818
1055734,4254348,4282432,4258910,4291678,2821,3800,3575,-8471,8957,3742,-4053,7416,105,121,818
1056735,4254948,4283144,4259516,4292284,3400,3800,3486,-6801,9028,3062,-1564,6486,117,129,821
1057736,4255596,4283968,4260122,4292890,3082,3800,3313,-4615,8815,2442,-2360,8860,117,129,821
1058737,4256296,4284732,4260728,4293496,2717,3800,3049,-2186,8681,2872,-2819,8482,132,154,824
1059738,4256964,4285572,4261334,4294102,2890,3800,2947,-128,8452,3144,-1482,6913,132,154,824
1060739,4257656,4286416,4261940,4294708,2703,3800,2994,1692,8010,3355,-181,6579,137,147,822
1061740,4258396,4287408,4262546,4295314,2345,3800,3044,3292,7495,3792,511,5666,137,147,822
1062741,4259136,4288368,4263152,4295920,2287,3800,3098,4533,6956,4245,611,3829,137,179,825
1063741,4259820,4289212,4263758,4296526,2604,3800,3190,5250,6428,5246,1075,2138,137,179,825
1064752,4260664,4290224,4264386,4297154,1509,3800,3392,5352,5867,6518,1157,252,166,194,828
1065731,4261428,4291268,4264992,4297760,1941,3678,3664,5094,5330,6958,-487,-825,166,194,828
1066732,4262180,4292428,4265598,4298366,1953,2711,3958,4614,4832,6452,-1786,-1471,147,192,828
1067746,4263040,4293340,4266204,4298972,1166,3800,4185,4032,4305,6484,-1994,-1592,147,192,828
1068734,4263672,4294388,4266810,4299578,2581,3084,4238,3555,3774,6602,-2331,-930,144,200,831
1069735,4264420,4295472,4267416,4300184,1794,2650,4165,3323,3245,6658,-2497,-763,144,200,831
1070736,4265296,4296356,4268022,4300790,875,3779,4011,3189,2664,6735,-1991,-885,139,193,832
1071737,4265900,4297392,4268628,4301396,2577,2641,3938,3086,2037,6279,-1390,-1369,139,193,832
1072738,4266688,4298360,4269234,4302002,1347,2908,3922,3136,1432,6167,-1276,-1138,150,182,834
1073739,4267476,4299288,4269840,4302608,1268,3016,3929,3357,911,6468,-1461,-908,150,182,834
1074740,4268192,4300160,4270446,4303214,1670,3251,3916,3787,524,6670,-1856,-370,140,174,831
1075741,4268880,4301040,4271052,4303820,1810,3081,3855,4495,210,6482,-2106,-95,140,174,831
1076742,4269704,4301828,4271658,4304426,864,3576,3752,5064,-142,5857,-1963,-789,151,190,834
1077743,4270360,4302804,4272264,4305032,1892,2240,3629,5567,-617,5004,-1525,-894,151,190,834
1078744,4271024,4303760,4272870,4305638,1818,2211,3412,6370,-1185,4404,-1376,-153,145,185,832
1079745,4271672,4304616,4273476,4306244,1899,2727,3141,7425,-1724,3732,-1437,-78,145,185,832
1080746,4272332,4305440,4274082,4306850,1801,2831,2917,8391,-2120,3418,-1274,-421,140,196,835
1081746,4272976,4306380,4274688,4307456,1885,1959,2685,9344,-2405,3619,-535,-355,140,196,835
1082748,4273624,4307308,4275294,4308062,1841,1893,2526,10233,-2759,2987,575,-1222,143,165,832
1083749,4274296,4308088,4275900,4308668,1662,2741,2320,10910,-3254,2326,1584,-1680,143,165,832
1084750,4274932,4308856,4276506,4309274,1875,2746,1973,11496,-3750,2256,2484,-1657,131,159,833
1085751,4275524,4309572,4277112,4309880,2156,3023,1421,12122,-4098,2717,3110,-1415,131,159,833
1086752,4276036,4310336,4277718,4310486,2698,2653,888,12469,-4390,2236,4203,-3009,114,158,834
1087753,4276612,4311180,4278324,4311092,2312,2049,462,12151,-4583,1812,4672,-4208,114,158,834
1088754,4277112,4311844,4278930,4311698,2833,3148,124,11541,-4686,1701,5377,-4625,126,161,830
1089755,4277668,4312644,4279536,4312304,2505,2213,-221,10892,-4718,1694,5600,-4862,126,161,830
1090756,4278176,4313432,4280142,4312910,2849,2208,-549,10266,-4748,1645,5375,-5119,114,148,832
1091764,4278632,4314212,4280770,4313538,3250,2190,-911,9579,-4721,1549,4829,-4755,114,148,832
1092758,4279116,4314968,4281376,4314144,3129,2274,-1319,8900,-4538,1716,4114,-4321,112,151,832
1093759,4279536,4315796,4281982,4314750,3611,1727,-1764,8212,-4241,1996,3717,-4178,112,151,832
1094760,4279948,4316516,4282588,4315356,3747,2352,-2218,7530,-3861,1887,3181,-4036,91,161,827
1095761,4280380,4317340,4283194,4315962,3699,1606,-2645,6787,-3377,1575,2270,-3713,91,161,827
1096774,4280788,4318228,4283800,4316568,3800,1082,-3058,6199,-2841,1347,1697,-3223,112,182,827
1097775,4281188,4319064,4284406,4317174,3800,1305,-3479,5634,-2310,1046,1427,-2973,112,182,827
1098777,4281620,4320008,4285012,4317780,3800,481,-3905,5183,-1827,646,1248,-2596,98,178,826
1099778,4281980,4320784,4285618,4318386,3800,1456,-4364,4710,-1437,252,1317,-2342,98,178,826
1100779,4282336,4321544,4286224,4318992,3800,1488,-4793,4210,-1191,94,1646,-2442,75,151,826
1101780,4282756,4322180,4286830,4319598,3800,2249,-5269,3591,-1058,-70,1954,-2281,75,151,826
1102780,4283128,4322836,4287436,4320204,3800,2102,-5702,3018,-1048,-86,2340,-2061,96,148,826
1103782,4283508,4323424,4288042,4320810,3800,2534,-6162,2533,-1178,-44,2828,-1310,96,148,826
1104782,4283896,4324068,4288648,4321416,3800,2167,-6704,2412,-1392,-96,2723,178,74,135,822
1105783,4284276,4324552,4289254,4322022,3800,3220,-7301,2694,-1537,100,1220,1642,74,135,822
1106785,4284660,4325020,4289860,4322628,3800,3380,-7860,3273,-1623,254,99,2648,73,112,821
1107786,4285056,4325452,4290466,4323234,3800,3682,-8369,4136,-1714,462,-448,3711,73,112,821
1108799,4285468,4325820,4291072,4323840,3800,3800,-8848,5117,-1816,488,-933,4526,72,86,818
1109800,4285884,4326196,4291678,4324446,3800,3800,-9365,6154,-1994,442,-543,5245,72,86,818
1110801,4286280,4326504,4292284,4325052,3800,3800,-9888,7052,-2428,-25,1240,4904,75,81,815
1111802,4286720,4326784,4292890,4325658,3800,3800,-10420,7832,-3191,-871,1801,5122,75,81,815
1112803,4287128,4327016,4293496,4326264,3800,3800,-10967,8546,-4168,-1736,1654,5298,79,54,814
1113804,4287568,4327224,4294102,4326870,3800,3800,-11473,9130,-5226,-2353,519,5056,79,54,814
1114805,4288036,4327460,4294708,4327476,3800,3800,-11889,9573,-6251,-2350,-752,4984,84,58,814
1115806,4288500,4327668,4295314,4328082,3800,3800,-12172,9856,-7204,-2495,-1505,4548,84,58,814
1116807,4288988,4327844,4295920,4328688,3800,3800,-12500,10134,-8021,-3104,-2814,5624,94,47,812
1117808,4289512,4327976,4296526,4329294,3800,3800,-12957,10336,-8746,-3698,-3730,5527,94,47,812
1118816,4290068,4328116,4297154,4329922,3800,3800,-7359,7190,-8451,-16888,-12594,19350,91,28,813
1119810,4290560,4328264,4297760,4330528,3800,3800,9805,452,-5212,-32768,-29536,32767,91,28,813
1120811,4291200,4328404,4298366,4331134,3800,3800,19168,-963,-3505,-8282,-6839,18077,114,44,813
1121812,4291796,4328584,4298972,4331740,3800,3800,17119,196,-3649,-3626,-2302,10898,114,44,813
1122813,4292388,4328744,4299578,4332346,3800,3800,10248,6354,-3874,364,-4618,24832,121,48,814
1123814,4293080,4328928,4300184,4332952,3800,3800,4463,10811,-3855,-407,970,14178,121,48,814
1124815,4293772,4329096,4300790,4333558,3800,3800,2557,10629,-4424,-1940,3046,-329,125,46,814
1125816,4294460,4329324,4301396,4334164,3800,3800,2684,5541,-5487,-2442,1998,-8328,125,46,814
1126804,4295264,4329524,4302002,4334770,3132,3800,2800,275,-6062,-1592,-147,-7390,123,57,814
1127805,4295980,4329760,4302608,4335376,3634,3800,1958,-3898,-5652,-630,-2408,-6205,123,57,814
1128806,4296780,4330000,4303214,4335982,3026,3800,1098,-7289,-5170,-825,-552,-6974,155,54,813
1129807,4297672,4330308,4303820,4336588,2326,3800,732,-10595,-5016,-1369,-270,-6016,155,54,813
1130808,4298528,4330648,4304426,4337194,2442,3800,647,-13308,-4886,-1065,-1228,-3953,165,73,818
1131810,4299380,4331004,4305032,4337800,2360,3800,291,-15297,-4456,-550,-1576,-1721,165,73,818
1132811,4300348,4331392,4305638,4338406,1477,3800,-364,-16400,-3706,-650,-1688,756,165,87,823
1133812,4301196,4331804,4306244,4339012,2122,3800,-1173,-16946,-2788,-1333,-2407,1983,165,87,823
1134812,4301996,4332232,4306850,4339618,2338,3800,-1905,-16965,-1813,-1815,-2733,4195,180,99,823
1135814,4302900,4332708,4307456,4340224,1558,3800,-2464,-16488,-1003,-2974,-2530,5036,180,99,823
1136814,4303708,4333200,4308062,4340830,2070,3800,-2686,-16224,-495,-4457,-1705,3947,154,95,824
1137815,4304532,4333692,4308668,4341436,1875,3800,-2753,-16101,-190,-5508,-1079,4447,154,95,824
1138816,4305316,4334200,4309274,4342042,2048,3800,-2783,-15574,26,-5754,-1041,5450,176,100,826
1139818,4306136,4334760,4309880,4342648,1729,3800,-2756,-14708,300,-6158,-1653,6121,176,100,826
1140819,4306920,4335288,4310486,4343254,1877,3800,-2670,-13320,695,-6670,-2174,7612,163,103,826
1141819,4307616,4335920,4311092,4343860,2388,3800,-2503,-11818,1170,-7485,-1881,7951,163,103,826
1142820,4308332,4336420,4311698,4344466,2215,3800,-2193,-10368,1706,-7923,-1539,7769,147,115,826
1143821,4308980,4336932,4312304,4345072,2622,3800,-1788,-9138,2225,-7986,-858,7111,147,115,826
1144822,4309660,4337472,4312910,4345678,2391,3800,-1370,-8245,2739,-7958,-527,6396,128,105,824
1145830,4310288,4337952,4313538,4346306,2716,3800,-897,-7595,3288,-7693,-573,5626,128,105,824
1146824,4310892,4338552,4314144,4346912,2868,3800,-413,-7286,3879,-6620,-419,4704,129,106,823
1147826,4311424,4339060,4314750,4347518,3351,3800,55,-7278,4536,-4911,-209,3988,129,106,823
1148827,4311988,4339604,4315356,4348124,3170,3800,519,-7749,5267,-3153,138,2379,119,106,820
1149828,4312480,4340108,4315962,4348730,3671,3800,1107,-8936,5909,-1667,867,-20,119,106,820
1150829,4312992,4340572,4316568,4349336,3587,3800,1776,-10690,6457,-94,1191,-1370,118,104,818
1151843,4313476,4341076,4317174,4349942,3800,3800,2471,-12582,7018,1440,917,-1752,118,104,818
1152843,4313968,4341636,4317780,4350548,3800,3800,3057,-14301,7616,3091,479,-1125,96,115,817
1153844,4314400,4342168,4318386,4351154,3800,3800,3569,-15793,8111,4480,710,-783,96,115,817
1154845,4314904,4342728,4318992,4351760,3800,3800,4054,-17059,8429,5125,825,-120,81,105,817
1155847,4315360,4343272,4319598,4352366,3800,3800,4471,-18015,8506,5672,1093,612,81,105,817
1156848,4315844,4343892,4320204,4352972,3800,3800,4690,-18495,8482,5754,432,2265,110,120,816
1157848,4316360,4344468,4320810,4353578,3800,3800,4702,-18275,8493,5758,-99,4133,110,120,816
1158849,4316852,4345040,4321416,4354184,3800,3800,4627,-17273,8548,5744,-964,6186,107,119,816
1159850,4317396,4345656,4322022,4354790,3800,3800,4431,-15671,8598,5288,-1446,7586,107,119,816
1160838,4317984,4346228,4322628,4355396,3589,3800,4181,-13594,8595,4522,-1366,8622,111,114,816
1161839,4318560,4346912,4323234,4356002,3679,3800,3956,-11629,8493,4306,-1236,8047,111,114,816
1162840,4319136,4347552,4323840,4356608,3693,3800,3775,-9734,8566,4433,-3165,8098,97,126,817
1163841,4319828,4348376,4324446,4357214,2931,3800,3740,-8019,8725,4138,-2076,6791,97,126,817
1164843,4320416,4349124,4325052,4357820,3590,3800,3648,-6141,8408,3265,-463,8334,120,133,819
1165844,4321068,4349872,4325658,4358426,3171,3800,3433,-3836,8127,2954,-3114,9040,120,133,819
1166844,4321744,4350692,4326264,4359032,2991,3800,3303,-1429,8001,3145,-2376,8603,137,145,823
1167846,4322448,4351512,4326870,4359638,2773,3800,3334,791,7700,3508,-483,8193,137,145,823
1168846,4323168,4352524,4327476,4360244,2624,3800,3438,2979,7296,3894,-326,8142,148,166,823
1169847,4323824,4353340,4328082,4360850,3003,3800,3565,4712,6847,4117,41,5771,148,166,823
1170848,4324640,4354304,4328688,4361456,1911,3800,3712,5968,6355,4522,581,4451,141,174,824
1171849,4325424,4355220,4329294,4362062,2034,3800,3809,6946,5831,5471,1013,3621,141,174,824
1172860,4326192,4356152,4329922,4362690,2073,3800,3967,7309,5291,6400,290,983,158,192,824
1173839,4327008,4357236,4330528,4363296,1681,3320,4259,7086,4769,6891,-953,-678,158,192,824
1174840,4327756,4358356,4331134,4363902,2045,2870,4614,6546,4252,6625,-1745,-1451,138,193,829
1175841,4328528,4359304,4331740,4364508,1823,3795,4824,5973,3726,6753,-2128,-1122,138,193,829
1176842,4329304,4360268,4332346,4365114,1723,3539,4869,5603,3238,6679,-2476,-727,161,204,832
1177843,4330048,4361332,4332952,4365720,1864,2714,4822,5343,2729,6628,-2449,-915,161,204,832
1178844,4330832,4362328,4333558,4366326,1535,2968,4740,5067,2093,6607,-1827,-1448,142,192,831
1179845,4331544,4363356,4334164,4366932,1940,2583,4673,4773,1423,6186,-1361,-1662,142,192,831
1180846,4332424,4364256,4334770,4367538,769,3255,4634,4713,845,6010,-1675,-1317,144,198,834
1181847,4333076,4365156,4335376,4368144,2175,3127,4601,4860,368,6082,-1866,-1234,144,198,834
1182848,4333844,4365956,4335982,4368750,1379,3666,4541,5195,9,6291,-2239,-714,148,183,832
1183849,4334620,4366852,4336588,4369356,1255,2940,4418,5849,-280,6263,-2537,-285,148,183,832
1184850,4335312,4367744,4337194,4369962,1743,2839,4203,6413,-592,5550,-2319,-750,143,181,831
1185851,4336052,4368680,4337800,4370568,1384,2420,3985,6904,-1021,4797,-1862,-1078,143,181,831
1186852,4336736,4369552,4338406,4371174,1700,2703,3689,7566,-1552,4155,-1754,-721,150,188,834
1187853,4337348,4370404,4339012,4371780,2148,2720,3359,8474,-2012,3537,-1909,-385,150,188,834
1188854,4338044,4371260,4339618,4372386,1583,2586,3013,9382,-2351,3201,-1540,-427,137,195,835
1189855,4338696,4372148,4340224,4372992,1839,2262,2715,10388,-2654,2903,-707,-620,137,195,835
1190856,4339312,4373064,4340830,4373598,2060,1951,2508,11157,-3018,2444,317,-1796,135,181,832
1191857,4340020,4373792,4341436,4374204,1440,3073,2280,11612,-3506,1929,1634,-2403,135,181,832
1192858,4340688,4374560,4342042,4374810,1663,2751,1940,12007,-3925,1665,2338,-2186,121,151,833
1193859,4341240,4375248,4342648,4375416,2412,3215,1479,12255,-4267,1461,3202,-2807,121,151,833
1194860,4341712,4376016,4343254,4376022,2971,2644,974,12323,-4538,1269,4191,-3437,136,140,831
1195861,4342296,4376800,4343860,4376628,2281,2466,562,12053,-4706,896,4991,-4368,136,140,831
1196862,4342840,4377464,4344466,4377234,2559,3190,298,11366,-4783,873,5574,-5336,127,145,827
1197863,4343372,4378336,4345072,4377840,2667,1774,111,10416,-4768,712,5641,-5757,127,145,827
1198864,4343880,4379080,4345678,4378446,2860,2513,-90,9639,-4680,662,5308,-5249,110,158,831
1199872,4344356,4379900,4346306,4379074,3126,1954,-399,9003,-4517,663,4567,-4646,110,158,831
1200866,4344788,4380724,4346912,4379680,3479,1833,-809,8473,-4209,712,3794,-3996,122,163,831
1201867,4345244,4381532,4347518,4380286,3395,1844,-1262,7926,-3805,911,3546,-3832,122,163,831
1202867,4345664,4382292,4348124,4380892,3703,2075,-1686,7188,-3403,1125,3193,-4282,92,159,829
1203881,4346072,4383036,4348730,4381498,3800,2115,-2075,6251,-2940,888,2653,-4430,92,159,829
1204870,4346516,4383916,4349336,4382104,3712,1144,-2501,5296,-2418,735,1952,-4085,85,177,827
1205883,4346900,4384768,4349942,4382710,3800,1211,-2917,4431,-1879,503,1517,-3804,85,177,827
1206884,4347288,4385696,4350548,4383316,3800,594,-3350,3705,-1313,293,1272,-3097,79,181,824
1207885,4347688,4386468,4351154,4383922,3800,1496,-3789,3102,-780,298,1180,-2944,79,181,824
1208886,4348048,4387196,4351760,4384528,3800,1716,-4255,2363,-341,186,1422,-2875,80,158,826
1209887,4348448,4387856,4352366,4385134,3800,2117,-4743,1710,-36,-3,1841,-2347,80,158,826
1210888,4348836,4388532,4352972,4385740,3800,1986,-5243,1126,98,-115,2364,-2055,94,130,826
1211889,4349212,4389180,4353578,4386346,3800,2142,-6391,494,-244,-100,3729,-272,94,130,826
1212890,4349564,4389752,4354184,4386952,3800,2631,-7062,499,-633,-64,2993,494,72,121,823
1213892,4349948,4390228,4354790,4387558,3800,3288,-7726,945,-1001,89,1213,2639,72,121,823
1214892,4350324,4390712,4355396,4388164,3800,3291,-8431,2074,-1222,264,-511,4882,80,113,822
1215906,4350708,4391120,4356002,4388770,3800,3800,-9123,3477,-1331,405,-1313,5469,80,113,822
1216894,4351116,4391552,4356608,4389376,3800,3778,-9817,4808,-1532,458,-938,5716,87,101,817
1217908,4351488,4391916,4357214,4389982,3800,3800,-10480,5903,-2012,162,512,5539,87,101,817
1218909,4351856,4392260,4357820,4390588,3800,3800,-11148,6862,-2844,-474,1793,5572,67,71,814
1219910,4352292,4392544,4358426,4391194,3800,3800,-11805,7737,-3897,-1240,1309,5472,67,71,814
1220911,4352680,4392812,4359032,4391800,3800,3800,-12409,8462,-4968,-1779,-144,5456,69,75,814
1221912,4353104,4393052,4359638,4392406,3800,3800,-12842,9003,-6000,-1927,-884,4921,69,75,814
1222913,4353520,4393312,4360244,4393012,3800,3800,-13133,9248,-7014,-2173,-1151,4388,73,55,813
1223914,4354036,4393524,4360850,4393618,3800,3800,-13389,9260,-7952,-2512,-2192,4445,73,55,813
1224915,4354528,4393720,4361456,4394224,3800,3800,-13683,9085,-8716,-2852,-3777,4506,98,53,813
1225916,4354968,4393880,4362062,4394830,3800,3800,-11717,7505,-8869,-8153,-7512,7089,98,53,813
1226924,4355592,4394032,4362690,4395458,3800,3800,4525,219,-5906,-32768,-28606,32767,88,49,812
1227918,4356092,4394232,4363296,4396064,3800,3800,18074,-2920,-3185,-14416,-14479,32767,88,49,812
1228919,4356640,4394392,4363902,4396670,3800,3800,19233,-1641,-2770,-3051,-3020,7451,127,36,813
1229920,4357328,4394560,4364508,4397276,3800,3800,12764,3000,-3059,126,-4330,22093,127,36,813
1230921,4357916,4394740,4365114,4397882,3800,3800,6125,9570,-3168,1256,-172,20484,125,49,814
1231922,4358544,4394916,4365720,4398488,3800,3800,3020,10649,-3752,-1508,4684,3517,125,49,814
1232910,4359276,4395132,4366326,4399094,3800,3800,2933,7153,-4942,-1890,2877,-6892,131,50,814
1233924,4359976,4395340,4366932,4399700,3800,3800,3267,1475,-5732,-1939,899,-8341,131,50,814
1234925,4360688,4395576,4367538,4400306,3800,3800,2884,-2876,-5501,-959,-1960,-6488,125,62,815
1235913,4361512,4395824,4368144,4400912,3045,3800,2073,-6311,-5051,-682,-1552,-7068,125,62,815
1236914,4362308,4396092,4368750,4401518,3137,3800,1502,-9456,-4741,-941,-516,-5804,156,63,815
1237915,4363096,4396368,4369356,4402124,3109,3800,1085,-11749,-4389,-538,-1567,-2961,156,63,815
1238916,4364028,4396720,4369962,4402730,2067,3800,570,-13888,-3859,-460,-2031,-2289,161,77,818
1239917,4364860,4397084,4370568,4403336,2594,3800,-14,-15465,-3178,-999,-1249,-822,161,77,818
1240918,4365720,4397444,4371174,4403942,2308,3800,-576,-16518,-2473,-1166,-1302,343,173,81,819
1241919,4366672,4397828,4371780,4404548,1582,3800,-1108,-17275,-1768,-1835,-1643,1433,173,81,819
1242920,4367476,4398240,4372386,4405154,2421,3800,-1658,-17212,-1117,-3089,-1462,4354,176,92,822
1243922,4368304,4398724,4372992,4405760,2175,3800,-2105,-16720,-621,-4126,-1188,4753,176,92,822
1244922,4369200,4399188,4373598,4406366,1623,3800,-2414,-16114,-217,-4715,-1593,5015,161,95,825
1245924,4369948,4399676,4374204,4406972,2487,3800,-2548,-15460,227,-5282,-1705,5299,161,95,825
1246924,4370736,4400180,4374810,4407578,2158,3800,-2589,-14562,753,-5693,-2038,6310,169,95,824
1247925,4371608,4400684,4375416,4408184,1516,3800,-2592,-13078,1299,-6217,-2183,8099,169,95,824
1248926,4372372,4401240,4376022,4408790,2123,3800,-2516,-11277,1899,-7287,-2043,8446,145,115,823
1249927,4373076,4401796,4376628,4409396,2455,3800,-2276,-9673,2486,-7964,-1500,7633,145,115,823
1250928,4373744,4402328,4377234,4410002,2653,3800,-1947,-8546,2955,-8189,-439,6845,150,100,826
1251929,4374452,4402848,4377840,4410608,2359,3800,-1539,-7627,3350,-8060,232,6346,150,100,826
1252930,4375128,4403336,4378446,4411214,2530,3800,-1075,-7121,3755,-7487,349,4597,147,104,824
1253938,4375728,4403848,4379074,4411842,3017,3800,-623,-6999,4252,-6180,176,4044,147,104,824
1254932,4376412,4404416,4379680,4412448,2459,3800,-205,-7080,4931,-4442,184,3401,127,105,824
1255933,4376960,4404928,4380286,4413054,3335,3800,236,-7670,5666,-2809,451,1535,127,105,824
1256934,4377500,4405468,4380892,4413660,3414,3800,782,-8875,6324,-1540,631,-262,117,99,821
1257935,4378076,4405940,4381498,4414266,3203,3800,1420,-10493,6944,-303,739,-1129,117,99,821
1258936,4378596,4406408,4382104,4414872,3592,3800,2008,-12134,7533,1137,464,-1010,124,111,818
1259950,4379072,4406992,4382710,4415478,3800,3800,2534,-13653,8063,2486,279,-862,124,111,818
1260938,4379580,4407476,4383316,4416084,3768,3800,3084,-15147,8404,3976,588,-1167,122,112,819
1261952,4380060,4408040,4383922,4416690,3800,3800,3603,-16563,8573,4997,341,-613,122,112,819
1262953,4380500,4408564,4384528,4417296,3800,3800,3993,-17578,8652,5418,314,848,90,104,816
1263954,4380980,4409156,4385134,4417902,3800,3800,4125,-17994,8668,5384,-447,2506,90,104,816
1264955,4381484,4409756,4385740,4418508,3800,3800,4081,-17750,8684,5283,-1091,4157,93,103,816
1265956,4381916,4410316,4386346,4419114,3800,3800,4016,-16817,8691,5395,-1251,5801,93,103,816
1266957,4382452,4410960,4386952,4419720,3800,3800,3833,-15327,8618,5309,-1701,7344,112,107,816
1267958,4382964,4411500,4387558,4420326,3800,3800,3564,-13376,8517,4566,-1988,8363,112,107,816
1268947,4383548,4412144,4388164,4420932,3686,3800,3340,-11618,8368,4466,-1494,7643,103,112,817
1269947,4384160,4412804,4388770,4421538,3509,3800,3169,-9827,8344,4585,-3003,7731,103,112,817
1270948,4384748,4413600,4389376,4422144,3668,3800,3193,-8412,8491,4196,-2814,5847,109,125,816
1271949,4385396,4414296,4389982,4422750,3276,3800,3326,-7101,8290,3646,-819,6090,109,125,816
1272950,4386060,4415124,4390588,4423356,3151,3800,3210,-4997,7908,3296,-1908,9357,117,143,820
1273951,4386724,4415864,4391194,4423962,3127,3800,2934,-2223,7838,3881,-3259,10199,117,143,820
1274952,4387376,4416740,4391800,4424568,3183,3800,2830,302,7806,4101,-2293,8412,142,143,822
1275953,4388144,4417660,4392406,4425174,2386,3800,2924,2339,7509,3958,-385,7339,142,143,822
1276954,4388836,4418516,4393012,4425780,2825,3800,3074,3856,6969,4226,522,5769,141,164,822
1277955,4389532,4419492,4393618,4426386,2761,3800,3173,5045,6339,4962,682,4358,141,164,822
1278957,4390272,4420352,4394224,4426992,2428,3800,3288,5705,5730,6011,1284,2538,153,186,826
1279958,4391088,4421320,4394830,4427598,1862,3800,3474,5977,5101,7235,1087,1052,153,186,826
1280955,4391876,4422332,4395458,4428226,1967,3770,3791,5928,4521,7331,-503,-225,165,206,825
1281947,4392652,4423504,4396064,4428832,1968,2522,4160,5535,3984,6766,-1585,-846,165,206,825
1282949,4393444,4424468,4396670,4429438,1787,3666,4437,5058,3410,6875,-1787,-949,134,208,828
1283949,4394212,4425508,4397276,4430044,1866,3001,4556,4788,2876,6798,-2456,-513,134,208,828
1284950,4394900,4426600,4397882,4430650,2331,2463,4572,4687,2349,6571,-2760,-652,148,195,833
1285951,4395744,4427484,4398488,4431256,1251,3641,4508,4522,1770,6318,-2382,-1031,148,195,833
1286952,4396496,4428524,4399094,4431862,1763,2476,4484,4521,1158,6050,-1941,-1005,158,193,832
1287953,4397292,4429484,4399700,4432468,1405,2822,4507,4641,559,5968,-1560,-1251,158,193,832
1288954,4398036,4430392,4400306,4433074,1670,3014,4564,4710,14,6339,-1414,-1419,162,184,832
1289955,4398876,4431220,4400912,4433680,967,3418,4566,5065,-389,6605,-1889,-610,162,184,832
1290957,4399524,4432104,4401518,4434286,2150,2945,4491,5770,-699,6020,-2338,-250,160,163,834
1291957,4400368,4432940,4402124,4434892,820,3145,4401,6449,-1000,5152,-2675,-654,160,163,834
1292958,4401084,4433784,4402730,4435498,1572,2991,4211,7170,-1303,4587,-2607,-97,145,174,832
1293959,4401704,4434708,4403336,4436104,2167,2351,3874,8335,-1600,4236,-2493,841,145,174,832
1294960,4402480,4435576,4403942,4436710,1117,2587,3533,9621,-1917,3413,-2228,236,154,183,834
1295961,4403124,4436412,4404548,4437316,1925,2686,3306,10562,-2224,2772,-1846,-663,154,183,834
1296962,4403752,4437268,4405154,4437922,2017,2451,3124,11419,-2503,2698,-1076,-636,145,179,833
1297963,4404432,4438216,4405760,4438528,1659,1726,2932,12209,-2843,2127,121,-1247,145,179,833
1298964,4405028,4439008,4406366,4439134,2188,2619,2671,12876,-3306,1661,1555,-1745,130,169,832
1299965,4405704,4439664,4406972,4439740,1658,3447,2306,13203,-3779,1413,2978,-2466,130,169,832
1300966,4406412,4440392,4407578,4440346,1414,2943,1814,13381,-4163,1535,3851,-2764,130,137,835
1301967,4406948,4441096,4408184,4440952,2520,3050,1312,13322,-4422,1313,4022,-3575,130,137,835
