"Data file recorded 2014/9/24  16:39:34"
"%  Right Stride Frequency         = 9.0"
"%  Left Stride Frequency         = 9.0"
"%  Phase (Fractional)         = 32768.0"
"%  Experiment.py "
"%  Motor Gains    = [1800, 200, 100, 0, 0, 1800, 200, 100, 0, 0]
"% Columns: "
"% time | Right Leg Pos | Left Leg Pos | Commanded Right Leg Pos | Commanded Left Leg Pos | DCR | DCL | GyroX | GryoY | GryoZ | AX | AY | AZ | RBEMF | LBEMF | VBatt "
12150,-18972,-204,-9586,23182,3800,3800,-427,-466,584,212,-229,4123,4,7,856
13144,-18972,-196,-8980,23788,3800,3800,-427,-469,584,229,-248,4111,8,-2,856
14145,-18896,-176,-8374,24394,3800,3800,-427,-470,589,227,-247,4131,8,-2,856
15146,-18760,-148,-7768,25000,3800,3800,-428,-464,585,231,-303,4100,11,7,821
16147,-18588,-116,-7162,25606,3800,3800,-425,-512,569,148,-424,3984,11,7,821
17148,-18344,-84,-6556,26212,3800,3800,-424,-515,549,-38,-261,4071,46,10,820
18149,-18096,-40,-5950,26818,3800,3800,-415,-519,536,-315,-297,4214,46,10,820
19150,-17792,-12,-5344,27424,3800,3800,-407,-492,547,-661,-604,4345,52,5,821
20151,-17436,36,-4738,28030,3800,3800,-386,-420,595,-1116,-844,4584,52,5,821
21152,-17064,100,-4132,28636,3800,3800,-357,-236,691,-1614,-1222,4902,81,25,821
22153,-16660,164,-3526,29242,3800,3800,-322,-79,827,-2125,-1304,4934,81,25,821
23154,-16236,248,-2920,29848,3800,3800,-287,72,997,-2540,-1405,5003,72,14,822
24155,-15764,320,-2314,30454,3800,3800,-251,93,1198,-2692,-1418,4670,72,14,822
25156,-15348,396,-1708,31060,3800,3800,-204,-74,1423,-2636,-1153,4219,80,18,822
26157,-14880,500,-1102,31666,3800,3800,-173,-333,1690,-2559,-1075,4224,80,18,822
27158,-14436,580,-496,32272,3800,3800,-146,-562,1996,-2281,-943,4309,83,18,822
28159,-14044,660,110,32878,3800,3800,-94,-991,2266,-1600,-862,3623,83,18,822
29160,-13636,736,716,33484,3800,3800,-12,-1457,2490,-1174,-365,3709,83,18,820
30161,-13252,808,1322,34090,3800,3800,59,-1850,2660,-863,417,3976,83,18,820
31162,-12848,884,1928,34696,3800,3800,125,-2514,2706,-36,213,3362,74,20,822
32163,-12464,968,2534,35302,3800,3800,117,-2687,2744,520,300,5112,74,20,822
33164,-12100,1020,3140,35908,3800,3800,118,-2829,2746,965,1250,4442,67,10,822
34165,-11720,1092,3746,36514,3800,3800,79,-3219,2603,1450,697,4145,67,10,822
35166,-11320,1144,4352,37120,3800,3800,-52,-3019,2417,1066,401,6368,83,12,820
36167,-10932,1240,4958,37726,3800,3800,-142,-2829,2228,1236,983,5368,83,12,820
37169,-10564,1300,5564,38332,3800,3800,-213,-2857,1938,1776,1174,5250,65,17,820
38176,-10156,1344,6798,39566,3800,3800,-293,-2741,1588,1346,1745,5895,65,17,820
39170,-9784,1408,7404,40172,3800,3800,-299,-2717,1195,2052,2288,4898,71,11,822
40171,-9412,1460,8010,40778,3800,3800,-223,-2981,776,2809,1916,3728,71,11,822
41172,-8996,1536,8616,41384,3800,3800,-125,-3428,429,2077,995,4049,74,24,821
42173,-8596,1616,9222,41990,3800,3800,-54,-3591,139,2160,711,4551,74,24,821
43174,-8192,1700,9828,42596,3800,3800,44,-3866,-87,2568,955,3775,73,13,822
44175,-7720,1776,10434,43202,3800,3800,149,-4048,-229,2190,622,4535,73,13,822
45176,-7296,1876,11040,43808,3800,3800,207,-3852,-396,1777,573,5441,73,23,822
46177,-6848,1956,11646,44414,3800,3800,295,-3700,-595,1660,783,4976,73,23,822
47178,-6336,2024,12252,45020,3800,3800,393,-3469,-757,1682,355,5518,81,26,822
48179,-5868,2096,12858,45626,3800,3800,466,-3049,-939,1092,124,6025,81,26,822
49180,-5388,2144,13464,46232,3800,3800,556,-2693,-1108,441,49,5659,88,10,821
50181,-4824,2188,14070,46838,3800,3800,698,-2578,-1249,464,237,4911,88,10,821
51182,-4276,2212,14676,47444,3800,3800,835,-2417,-1356,235,32,5403,94,5,822
52183,-3836,2216,15282,48050,3800,3800,897,-1983,-1398,-82,246,5937,94,5,822
53184,-3224,2236,15888,48656,3800,3800,996,-1713,-1403,244,158,4968,100,5,822
54185,-2676,2264,16494,49262,3800,3800,986,-1414,-1357,497,13,5766,100,5,822
55186,-2096,2280,17100,49868,3800,3800,1015,-895,-1308,443,448,5572,115,5,822
56187,-1480,2320,17706,50474,3800,3800,945,-713,-1303,541,-7,4855,115,5,822
57188,-840,2312,18312,51080,3800,3800,860,-294,-1302,368,-249,5629,116,21,823
58189,-172,2336,18918,51686,3800,3800,688,42,-1255,681,-339,5143,116,21,823
59190,508,2364,19524,52292,3800,3800,471,498,-1231,1238,-823,5149,127,15,822
60191,1148,2388,20130,52898,3800,3800,163,1009,-1190,1641,-376,5534,127,15,822
61192,1828,2420,20736,53504,3800,3800,-170,1240,-1132,2369,-255,4481,109,18,822
62193,2560,2444,21342,54110,3800,3800,-460,1305,-1118,3017,-503,3761,109,18,822
63194,3244,2444,21948,54716,3800,3800,-642,872,-1119,3336,-424,1839,125,19,824
64195,3996,2480,22554,55322,3800,3800,-748,145,-1123,3893,-977,1305,125,19,824
65203,4884,2508,23182,55950,3800,3800,-820,-679,-1074,4103,-1234,672,145,18,823
66197,5692,2532,23788,56556,3800,3800,-795,-1571,-974,4116,-1174,264,145,18,823
67198,6536,2528,24394,57162,3800,3800,-761,-2150,-893,4190,-1374,1122,153,21,824
68200,7504,2552,25000,57768,3800,3800,-797,-2244,-800,3903,-1392,2743,153,21,824
69201,8448,2572,25606,58374,3800,3800,-910,-1776,-728,3594,-1317,4024,164,15,825
70202,9336,2588,26212,58980,3800,3800,-1016,-1068,-771,3293,-1018,4019,164,15,825
71203,10228,2628,26818,59586,3800,3800,-1054,-427,-908,2984,-655,3853,173,23,824
72204,11220,2644,27424,60192,3800,3800,-1080,395,-1097,2328,-200,4592,173,23,824
73205,12056,2672,28030,60798,3800,3800,-1168,1337,-1317,1064,138,4957,180,11,825
74206,12848,2700,28636,61404,3800,3800,-1305,2376,-1533,588,234,5134,180,11,825
75207,13820,2736,29242,62010,3800,3800,-1415,3440,-1655,972,367,4820,178,18,825
76208,14624,2784,29848,62616,3800,3800,-1476,4365,-1595,1289,47,4371,178,18,825
77209,15460,2824,30454,63222,3800,3800,-1484,5110,-1386,1100,-187,3764,152,20,825
78210,16208,2844,31060,63828,3800,3800,-1377,5402,-1100,514,97,2182,152,20,825
79211,16948,2900,31666,64434,3800,3800,-1210,5328,-812,462,392,1432,158,11,825
80212,17664,2956,32272,65040,3800,3800,-1021,5216,-523,451,415,1114,158,11,825
81213,18400,2980,32878,65646,3800,3800,-853,5012,-212,156,142,739,139,19,823
82214,19064,3012,33484,66252,3800,3800,-722,4658,38,-68,-102,379,139,19,823
83214,19688,3048,34090,66858,3800,3800,-626,4192,195,-306,-657,233,133,25,823
84216,20336,3076,34696,67464,3800,3800,-573,3827,270,-566,-1601,476,133,25,823
85217,20960,3100,35302,68070,3800,3800,-547,3585,341,-914,-1931,881,122,9,824
86218,21552,3104,35908,68676,3800,3800,-543,3528,411,-1417,-1718,1435,122,9,824
87219,22164,3108,36514,69282,3800,3800,-549,3703,509,-1599,-1748,2216,122,14,823
88220,22700,3124,37120,69888,3800,3800,-531,4107,633,-1662,-1708,2772,122,14,823
89221,23240,3124,37726,70494,3800,3800,-501,4639,743,-1807,-1400,3264,129,17,823
90222,23824,3140,38332,71100,3800,3800,-479,5087,762,-1902,-952,2881,129,17,823
91223,24352,3152,38938,71706,3800,3800,-464,5311,656,-1897,-741,2654,95,18,822
92233,24852,3156,39566,72334,3800,3800,-492,5552,465,-1811,-1380,2987,95,18,822
93225,25420,3172,40172,72940,3800,3800,-592,5796,221,-1737,-2003,3174,97,18,821
94226,25916,3184,40778,73546,3800,3800,-815,6046,-71,-1531,-2200,3390,97,18,821
95226,26444,3208,41384,74152,3800,3800,-1098,6186,-431,-1281,-2113,3168,94,2,822
96228,26980,3212,41990,74758,3800,3800,-1411,6203,-852,-923,-1775,2844,94,2,822
97228,27516,3212,42596,75364,3800,3800,-1796,6256,-1274,-531,-1509,3466,95,13,822
98230,28028,3240,43202,75970,3800,3800,-2277,6404,-1593,-29,-1359,3825,95,13,822
99230,28664,3252,43808,76576,3800,3800,-2758,6196,-1876,337,-834,2662,94,20,820
100231,29252,3264,44414,77182,3800,3800,-3114,5574,-2226,903,-39,1618,94,20,820
101233,29848,3280,45020,77788,3800,3800,-3408,4714,-2530,1201,-269,1645,114,15,823
102234,30556,3292,45626,78394,3800,3800,-3702,3853,-2677,1447,-722,1797,114,15,823
103235,31212,3300,46232,79000,3800,3800,-4003,2983,-2680,1589,-772,1840,134,9,822
104236,31900,3312,46838,79606,3800,3800,-4252,2198,-2614,1471,-647,2366,134,9,822
105237,32668,3336,47444,80212,3800,3800,-3515,2518,-2417,743,-1079,13757,142,14,822
106238,33432,3356,48050,80818,3800,3800,539,7333,-1683,-2388,-2830,32767,142,14,822
107239,34180,3388,48656,81424,3800,3800,5121,11011,-966,-1583,-1055,32767,142,21,824
108240,35060,3376,49262,82030,3800,3800,6420,10286,-885,1053,2535,1779,142,21,824
109241,35888,3404,49868,82636,3800,3800,5460,7150,-1158,1323,2531,-1855,172,20,824
110242,36728,3412,50474,83242,3800,3800,4247,4231,-1404,1117,1617,-1186,172,20,824
111230,37732,3444,51080,83848,3672,3800,3507,2185,-1443,179,1183,-517,186,11,825
112231,38700,3484,51686,84454,3740,3800,2993,494,-1379,-289,1063,131,186,11,825
113245,39584,3520,52292,85060,3800,3800,2398,-1015,-1428,-1048,1447,596,173,17,826
114233,40700,3556,52898,85666,2474,3800,1754,-2635,-1588,-2017,1819,667,173,17,826
115234,41736,3612,53504,86272,2787,3800,1173,-4127,-1795,-2782,1899,1047,195,29,826
116235,42704,3704,54110,86878,3056,3800,751,-5549,-1943,-3667,1286,1180,195,29,826
117236,43708,3812,54716,87484,2658,3800,518,-6505,-1973,-4598,570,2365,171,32,830
118237,44748,3896,55322,88090,2244,3800,313,-6937,-1861,-5616,-215,3723,171,32,830
119245,45688,4032,55950,88718,2734,3800,84,-6892,-1572,-6515,-1172,4910,182,43,829
120239,46656,4176,56556,89324,2402,3800,-97,-6746,-1153,-7372,-1773,5140,182,43,829
121240,47616,4364,57162,89930,2299,3800,-183,-6585,-619,-7869,-2246,5440,182,52,832
122241,48484,4588,57768,90536,2759,3800,-220,-6306,6,-7670,-2432,5724,182,52,832
123242,49308,4812,58374,91142,2941,3800,-213,-6011,715,-7405,-2635,5134,193,56,832
124243,50228,5060,58980,91748,2205,3800,-144,-5969,1502,-7445,-2790,4389,193,56,832
125244,51036,5308,59586,92354,2818,3800,-24,-6245,2301,-7480,-2776,3691,166,66,830
126245,51780,5596,60192,92960,3158,3800,225,-6708,3068,-7764,-2729,3173,166,66,830
127246,52580,5880,60798,93566,2725,3800,522,-7049,3810,-8344,-2641,3693,153,73,832
128247,53280,6156,61404,94172,3310,3800,865,-7280,4529,-8734,-2634,3743,153,73,832
129248,53924,6408,62010,94778,3645,3800,1264,-7624,5245,-8516,-2151,3394,160,54,829
130249,54668,6652,62616,95384,2961,3800,1650,-8015,5986,-7170,-1671,3233,160,54,829
131262,55260,6844,63222,95990,3800,3800,2025,-8752,6681,-5383,-1228,1815,134,47,828
132251,55876,7040,63828,96596,3766,3800,2405,-9785,7325,-3251,-813,1034,134,47,828
133265,56480,7228,64434,97202,3800,3800,2802,-10950,7865,-1116,81,385,115,38,828
134266,57056,7380,65040,97808,3800,3800,3102,-12092,8307,651,746,189,115,38,828
135267,57548,7512,65646,98414,3800,3800,3343,-13189,8701,1596,1031,269,119,30,822
136255,58180,7612,66252,99020,3725,3800,3491,-14170,9011,2379,1461,745,119,30,822
137269,58680,7700,66858,99626,3800,3800,3604,-14867,9195,3251,1743,1219,93,26,822
138269,59244,7756,67464,100232,3800,3800,3645,-15217,9296,4038,2128,1764,93,26,822
139270,59848,7816,68070,100838,3800,3800,3667,-15501,9319,4643,1855,1555,100,19,823
140272,60332,7828,68676,101444,3800,3800,3661,-15635,9302,4476,1320,2129,100,19,823
141272,60960,7840,69282,102050,3800,3800,3666,-15439,9225,4201,944,2804,103,1,822
142274,61576,7836,69888,102656,3800,3800,3615,-15017,9010,3984,914,3312,103,1,822
143274,62208,7864,70494,103262,3800,3800,3405,-14107,8640,3712,1319,4982,136,16,822
144276,62780,7892,71100,103868,3800,3800,3101,-12959,8068,3367,1600,4883,136,16,822
145264,63480,7908,71706,104474,3381,3800,2745,-11822,7285,3147,2210,5119,132,9,822
146285,64080,7940,72334,105102,3800,3800,2419,-10570,6340,2886,2893,5142,132,9,822
147278,64712,7976,72940,105708,3800,3800,2051,-9301,5300,2770,3599,5320,135,12,822
148267,65424,8000,73546,106314,3266,3800,1650,-7886,4270,2774,3709,5515,135,12,822
149268,66052,8032,74152,106920,3782,3800,1254,-6593,3276,2803,4079,4855,124,10,821
150269,66688,8068,74758,107526,3721,3800,949,-5507,2279,3018,4148,3897,124,10,821
151270,67440,8116,75364,108132,2933,3800,700,-4624,1465,2863,2285,3689,138,9,825
152271,68140,8152,75970,108738,3218,3800,646,-4153,618,2219,2168,1696,138,9,825
153272,68848,8204,76576,109344,3125,3800,315,-3185,59,3055,60,4920,148,27,824
154273,69616,8244,77182,109950,2680,3800,-314,-1467,46,4098,-354,6518,148,27,824
155274,70408,8284,77788,110556,2450,3800,-871,21,-57,4111,693,4684,135,23,825
156275,71160,8300,78394,111162,2637,3800,-1139,695,-544,4263,1058,2532,135,23,825
157276,71972,8348,79000,111768,2173,3800,-1315,719,-1182,4876,1036,1510,124,24,827
158277,72688,8384,79606,112374,2726,3800,-1577,408,-1773,5600,900,618,124,24,827
159278,73496,8420,80212,112980,2064,3800,-1933,27,-2349,6132,1627,-48,128,10,827
160279,74312,8464,80818,113586,1923,3800,-2336,-262,-2835,6977,1635,265,128,10,827
161280,75032,8512,81424,114192,2473,3800,-2721,-493,-3196,7262,1427,379,142,26,828
162281,75780,8552,82030,114798,2237,3800,-3102,-716,-3460,6718,994,916,142,26,828
163282,76468,8604,82636,115404,2577,3800,-3527,-345,-3713,5966,1130,2755,144,23,827
164283,77228,8620,83242,116010,2061,3800,-4374,1383,-3832,5929,1422,6740,144,23,827
165284,77884,8656,83848,116616,2690,3800,-4966,2436,-3900,5451,1379,2052,134,21,828
166285,78452,8696,84454,117222,3258,3800,-5150,2652,-4036,5743,1708,1245,134,21,828
167286,79136,8748,85060,117828,2500,3800,-5248,2769,-4156,5703,1716,1578,133,26,830
168287,79700,8800,85666,118434,3269,3800,-5455,2805,-4155,5170,748,993,133,26,830
169288,80320,8876,86272,119040,2914,3800,-5697,2668,-4073,4362,358,204,101,26,824
170289,80952,8936,86878,119646,2829,3800,-5885,2388,-3984,4141,434,-176,101,26,824
171303,81404,9000,87484,120252,3800,3800,-6080,2321,-3919,4202,61,504,106,22,824
172304,81896,9056,88090,120858,3800,3800,-6268,2359,-3835,3324,-402,883,106,22,824
173299,82424,9128,88718,121486,3644,3800,-6381,2538,-3710,2525,-1101,1437,99,28,824
174293,82940,9196,89324,122092,3760,3800,-6457,2969,-3582,2300,-1501,2245,99,28,824
175294,83464,9256,89930,122698,3747,3800,-6418,3630,-3330,2114,-2288,2765,110,24,822
176308,83968,9312,90536,123304,3800,3800,-6292,4509,-2963,1786,-3128,3636,110,24,822
177308,84480,9344,91142,123910,3800,3800,-6093,5418,-2550,1409,-3938,3805,99,23,822
178310,84940,9392,91748,124516,3800,3800,-5825,6234,-2160,1315,-3952,3583,99,23,822
179310,85480,9428,92354,125122,3800,3800,-5532,6980,-1829,1279,-4095,3546,101,12,822
180312,86012,9468,92960,125728,3800,3800,-5163,7589,-1521,856,-4434,3350,101,12,822
181313,86524,9524,93566,126334,3800,3800,-4728,8030,-1235,278,-4640,3312,107,11,821
182301,87108,9536,94172,126940,3644,3800,-4242,8468,-1006,219,-4689,3321,107,11,821
183314,87648,9560,94778,127546,3800,3800,-3767,8920,-817,415,-4835,3410,97,20,822
184315,88144,9572,95384,128152,3800,3800,-3280,9339,-639,500,-5058,3320,97,20,822
185304,88740,9584,95990,128758,3655,3800,-2777,9717,-440,550,-5284,3600,105,13,823
186317,89292,9584,96596,129364,3800,3800,-2297,10197,-199,602,-5396,4108,105,13,823
187318,89804,9604,97202,129970,3800,3800,-1871,10669,62,803,-5181,4111,122,17,822
188307,90416,9616,97808,130576,3622,3800,-1486,11068,281,1039,-4790,3765,122,17,822
189320,90964,9620,98414,131182,3800,3800,-1110,11272,433,1160,-4413,3325,108,10,821
190321,91508,9632,99020,131788,3800,3800,-753,11329,498,1206,-3767,3010,108,10,821
191310,92124,9636,99626,132394,3649,3800,-496,11232,408,1099,-2710,2756,100,18,822
192324,92712,9652,100232,133000,3800,3800,-383,11004,138,890,-1737,2511,100,18,822
193324,93256,9668,100838,133606,3800,3800,-365,10740,-257,559,-1068,2547,124,12,821
194313,93892,9692,101444,134212,3550,3800,-404,10399,-751,-78,-360,2184,124,12,821
195314,94528,9740,102050,134818,3539,3800,-520,9800,-1396,-686,903,1797,115,18,822
196315,95164,9756,102656,135424,3527,3800,-674,9085,-2151,-847,1660,1626,115,18,822
197316,95912,9772,103262,136030,2765,3800,-892,8443,-2839,-1102,2072,2186,133,21,823
198317,96556,9780,103868,136636,3401,3800,-1225,7928,-3391,-1676,1925,2658,133,21,823
199318,97228,9808,104474,137242,3198,3800,-1578,7341,-3798,-1848,2153,2452,140,22,824
200328,97988,9832,105102,137870,2592,3800,-1913,6692,-4120,-2208,2275,2703,140,22,824
201320,98728,9848,105708,138476,2659,3800,-2192,5924,-4388,-2649,2259,2482,144,21,825
202321,99472,9864,106314,139082,2574,3800,-2090,4846,-4583,-3775,1735,3364,144,21,825
203322,100196,9884,106920,139688,2649,3800,2596,2134,-3649,-14265,-4797,32767,152,18,825
204323,101048,9888,107526,140294,1742,3800,8500,-1399,-2097,-13115,-3656,30497,152,18,825
205324,101804,9900,108132,140900,2277,3800,9869,-3245,-1281,-5142,-72,3871,154,21,827
206325,102600,9928,108738,141506,1945,3800,8323,-3329,-1013,-3971,-612,4997,154,21,827
207326,103536,9956,109344,142112,927,3800,6657,-2924,-766,-3840,-788,5177,146,11,830
208327,104332,9984,109950,142718,1719,3800,5756,-2721,-499,-3954,-274,4657,146,11,830
209328,105092,10024,110556,143324,1878,3800,5226,-3019,-290,-3905,61,3752,160,25,830
210329,106048,10064,111162,143930,500,3800,4654,-3526,-106,-3642,-56,3355,160,25,830
211330,106808,10120,111768,144536,1658,3800,3995,-3992,147,-3340,-387,2894,144,27,831
212331,107580,10180,112374,145142,1511,3800,3296,-4564,582,-3028,-979,2681,144,27,831
213332,108372,10236,112980,145748,1306,3800,2690,-5075,1062,-2686,-575,2420,137,26,832
214333,109060,10296,113586,146354,1919,3800,2206,-5829,1527,-2431,-241,1506,137,26,832
215334,109756,10348,114192,146960,1831,3800,1770,-6763,1966,-2100,-153,1036,143,26,830
216335,110536,10440,114798,147566,1230,3800,1389,-7657,2385,-2105,-261,1042,143,26,830
217336,111204,10516,115404,148172,1904,3800,1092,-8552,2802,-2240,-404,876,144,20,830
218337,111920,10608,116010,148778,1557,3800,823,-9248,3166,-2294,-520,1513,144,20,830
219338,112672,10700,116616,149384,1269,3800,566,-9732,3488,-2512,-561,2023,129,33,832
220339,113324,10784,117222,149990,1873,3800,352,-9937,3808,-2668,-1079,2784,129,33,832
221340,113928,10872,117828,150596,2175,3800,235,-9983,4161,-3468,-1503,2788,135,20,831
222341,114572,10984,118434,151202,1910,3800,226,-10014,4524,-4387,-1545,3079,135,20,831
223342,115176,11080,119040,151808,2162,3800,254,-9900,4856,-4808,-1543,3628,137,20,830
224343,115680,11188,119646,152414,2831,3800,365,-9757,5189,-5269,-1188,3606,137,20,830
225344,116224,11304,120252,153020,2610,3800,562,-9597,5548,-5150,-1013,3445,104,23,829
226345,116732,11404,120858,153626,2879,3800,824,-9456,5911,-4809,-833,3326,104,23,829
227352,117140,11492,121486,154254,3601,3800,1093,-9346,6301,-4137,-460,3219,100,33,827
228347,117584,11568,122092,154860,3448,3800,1374,-9436,6688,-3218,-161,2409,100,33,827
229348,118016,11648,122698,155466,3600,3800,1656,-9747,7100,-2270,1,1842,102,20,826
230361,118392,11716,123304,156072,3800,3800,1884,-10151,7500,-1223,125,1516,102,20,826
231362,118812,11760,123910,156678,3800,3800,2053,-10589,7868,-64,256,1199,73,21,823
232364,119184,11808,124516,157284,3800,3800,2174,-11051,8139,907,660,841,73,21,823
233365,119572,11848,125122,157890,3800,3800,2291,-11587,8240,1915,1008,391,86,5,820
234366,119992,11856,125728,158496,3800,3800,2330,-11990,8223,2628,966,1004,86,5,820
235366,120392,11916,126334,159102,3800,3800,2304,-11984,8186,2898,386,2085,78,15,820
236368,120796,11932,126940,159708,3800,3800,2256,-11792,8081,3090,579,2199,78,15,820
237369,121260,11968,127546,160314,3800,3800,2219,-11460,7848,3129,874,2675,95,4,819
238370,121680,11984,128152,160920,3800,3800,2063,-10614,7379,3247,2230,4365,95,4,819
239370,122128,12012,128758,161526,3800,3800,1651,-9225,6696,3715,3192,5972,94,4,820
240372,122624,12032,129364,162132,3800,3800,1077,-7457,6063,4090,2651,6773,94,4,820
241372,123052,12044,129970,162738,3800,3800,352,-5116,5476,3737,2240,9187,85,1,820
242374,123556,12068,130576,163344,3800,3800,-408,-2468,4784,3914,2753,9570,85,1,820
243374,124108,12096,131182,163950,3800,3800,-943,-550,4238,4929,1477,6758,92,4,820
244376,124564,12124,131788,164556,3800,3800,-1098,474,3654,4721,1768,4223,92,4,820
245377,125108,12140,132394,165162,3800,3800,-940,238,2815,3985,1974,925,91,4,821
246378,125628,12180,133000,165768,3800,3800,-646,-449,1785,4028,2474,34,91,4,821
247378,126188,12200,133606,166374,3800,3800,-580,-767,890,4252,1477,1631,102,5,820
248380,126764,12212,134212,166980,3800,3800,-700,-529,202,4773,1734,2691,102,5,820
249381,127320,12252,134818,167586,3800,3800,-906,-159,-407,5274,2661,3155,104,13,821
250369,127928,12272,135424,168192,3763,3800,-1060,190,-973,5529,2486,2951,104,13,821
251382,128528,12328,136030,168798,3800,3800,-1146,0,-1668,5267,3256,1553,103,20,821
252371,129220,12336,136636,169404,3205,3800,-1147,-504,-2393,5197,3276,897,103,20,821
253372,129832,12356,137242,170010,3704,3800,-1199,-1076,-2970,5261,2773,995,137,13,822
254380,130488,12372,137870,170638,3419,3800,-1368,-1354,-3344,5155,1755,1998,137,13,822
255374,131100,12396,138476,171244,3692,3800,-1620,-1349,-3534,5165,1229,2712,119,9,824
256375,131800,12416,139082,171850,3102,3800,-1843,-1283,-3648,5159,1428,2502,119,9,824
257376,132416,12444,139688,172456,3624,3800,-2067,-1300,-3778,5027,1745,2339,132,13,823
258377,133064,12464,140294,173062,3407,3800,-2549,-778,-3955,5440,2855,5475,132,13,823
259378,133776,12508,140900,173668,2962,3800,-3548,1258,-4279,5886,4302,10245,136,23,824
260379,134436,12524,141506,174274,3264,3800,-4327,2580,-4307,5911,1555,4630,136,23,824
261380,135140,12552,142112,174880,2947,3800,-4788,2816,-4083,5791,870,3087,127,20,824
262381,135972,12576,142718,175486,2050,3800,-4986,2077,-3997,5117,1656,609,127,20,824
263382,136768,12616,143324,176092,2193,3800,-5064,1007,-4023,4812,978,0,147,11,825
264383,137512,12648,143930,176698,2458,3800,-5118,78,-4084,4221,420,-41,147,11,825
265384,138324,12680,144536,177304,1943,3800,-5289,-242,-4014,4161,-419,1734,141,6,828
266385,139124,12720,145142,177910,1935,3800,-5684,372,-3751,4318,-1455,4656,141,6,828
267386,139916,12740,145748,178516,1904,3800,-6137,1459,-3524,3695,-1460,5004,158,10,825
268387,140760,12768,146354,179122,1476,3800,-6362,2112,-3486,3011,-976,3050,158,10,825
269388,141484,12788,146960,179728,2175,3800,-6406,2381,-3565,2480,-1498,2578,126,10,828
270389,142152,12820,147566,180334,2499,3800,-6454,2756,-3562,1441,-2125,3553,126,10,828
271390,142892,12868,148172,180940,1991,3800,-6602,3590,-3440,537,-2362,4752,130,21,830
272391,143524,12900,148778,181546,2655,3800,-6756,4663,-3286,197,-2388,4845,130,21,830
273392,144152,12948,149384,182152,2672,3800,-6794,5640,-3128,331,-2122,4300,133,20,827
274393,144812,12992,149990,182758,2449,3800,-6711,6306,-2932,612,-2069,3705,133,20,827
275394,145396,13080,150596,183364,2935,3800,-6538,6770,-2674,484,-1944,3339,131,25,827
276395,146064,13124,151202,183970,2383,3800,-6282,7101,-2340,98,-1735,3052,131,25,827
277396,146652,13176,151808,184576,2892,3800,-5960,7399,-1982,31,-1794,2913,132,11,827
278409,147100,13232,152414,185182,3800,3800,-5604,7716,-1629,116,-2283,2970,132,11,827
279398,147624,13308,153020,185788,3400,3800,-5242,7961,-1333,74,-2625,2742,124,28,826
280399,148204,13400,153626,186394,3062,3800,-4821,8003,-1167,-104,-2750,2250,124,28,826
281407,148736,13488,154254,187022,3405,3800,-4370,7828,-1097,-450,-3241,1983,118,31,821
282401,149228,13568,154860,187628,3707,3800,-3901,7631,-1076,-618,-3600,2027,118,31,821
283402,149744,13640,155466,188234,3597,3800,-3450,7487,-1040,-575,-4063,2268,115,17,823
284403,150292,13728,156072,188840,3424,3800,-2989,7396,-967,-706,-4208,2433,115,17,823
285417,150740,13808,156678,189446,3800,3800,-2486,7400,-814,-725,-4151,2807,119,14,823
286405,151284,13856,157284,190052,3547,3800,-1923,7413,-610,-888,-3742,2790,119,14,823
287406,151808,13888,157890,190658,3710,3800,-1377,7406,-413,-982,-3632,3214,118,9,823
288419,152300,13912,158496,191264,3800,3800,-869,7522,-221,-1055,-3412,3613,118,9,823
289408,152868,13924,159102,191870,3504,3800,-465,7639,-98,-1220,-2916,3761,112,4,823
290422,153364,13956,159708,192476,3800,3800,-127,7846,-40,-1284,-2720,4079,112,4,823
291422,153872,13972,160314,193082,3800,3800,148,8046,-5,-1299,-2739,4314,103,20,820
292411,154464,13988,160920,193688,3456,3800,382,8273,55,-1147,-2969,4512,103,20,820
293425,154968,13992,161526,194294,3800,3800,595,8443,167,-984,-2977,4577,99,10,821
294425,155508,14032,162132,194900,3800,3800,766,8522,293,-799,-2656,4373,99,10,821
295426,156044,14052,162738,195506,3800,3800,926,8503,394,-659,-2203,4180,103,9,820
296415,156604,14052,163344,196112,3785,3800,1060,8392,424,-622,-1773,3973,103,9,820
297416,157168,14076,163950,196718,3780,3800,1113,8056,332,-570,-902,3450,95,2,820
298430,157712,14088,164556,197324,3800,3800,1092,7434,69,-619,-33,2675,95,2,820
299418,158312,14080,165162,197930,3587,3800,997,6462,-305,-637,498,2135,97,7,821
300419,158920,14104,165768,198536,3538,3800,868,5408,-683,-655,536,2083,97,7,821
301433,159468,14132,166374,199142,3800,3800,1377,4554,-887,-1271,-242,8887,103,5,820
302421,160112,14164,166980,199748,3324,3800,4562,4499,-649,-3111,-1982,32767,103,5,820
303422,160736,14188,167586,200354,3443,3800,7877,4783,-367,-737,-1035,25903,124,13,822
304423,161388,14204,168192,200960,3249,3800,8360,4133,-324,486,229,3363,124,13,822
305424,162088,14220,168798,201566,2908,3800,7137,2962,-467,592,542,2323,129,6,824
306425,162740,14268,169404,202172,3190,3800,5888,1746,-672,555,828,2100,129,6,824
307426,163428,14304,170010,202778,2930,3800,5009,400,-899,131,1543,1637,136,7,824
308436,164184,14336,170638,203406,2450,3800,4281,-905,-1132,-53,1396,1458,136,7,824
309428,164920,14352,171244,204012,2519,3800,3523,-2628,-1284,-595,1491,559,154,21,825
310429,165628,14396,171850,204618,2651,3800,2680,-4498,-1330,-905,1556,1108,154,21,825
311430,166424,14404,172456,205224,2018,3800,1806,-5900,-1251,-648,1167,2091,138,22,827
312431,167152,14444,173062,205830,2391,3800,955,-6869,-1030,-560,617,2495,138,22,827
313432,167916,14484,173668,206436,2097,3800,256,-7597,-737,-744,710,2662,152,7,826
314433,168772,14516,174274,207042,1413,3800,-286,-8209,-445,-1002,981,2923,152,7,826
315434,169548,14568,174880,207648,1840,3800,-712,-8799,-198,-1309,1173,2850,149,26,828
316435,170344,14620,175486,208254,1632,3800,-1072,-9407,25,-1756,1186,2954,149,26,828
317435,171184,14712,176092,208860,1255,3800,-1337,-9955,249,-2269,1148,3107,154,26,830
318437,171976,14796,176698,209466,1475,3800,-1547,-10420,525,-2454,700,3446,154,26,830
319437,172728,14884,177304,210072,1661,3800,-1742,-10660,864,-2531,145,3966,157,18,831
320439,173520,15000,177910,210678,1331,3800,-1897,-10777,1259,-2719,-77,4169,157,18,831
321439,174200,15128,178516,211284,1999,3800,-1986,-10793,1674,-2802,-198,4460,135,27,831
322441,174956,15260,179122,211890,1458,3800,-1960,-10747,2060,-2850,-174,4447,135,27,831
323441,175684,15456,179728,212496,1581,3800,-1817,-10701,2392,-3057,-238,4271,152,49,831
324443,176404,15680,180334,213102,1582,3800,-1568,-10699,2695,-3299,-685,4146,152,49,831
325444,177112,15900,180940,213708,1613,3800,-1255,-10682,3003,-3392,-1342,4064,143,42,831
326445,177816,16092,181546,214314,1596,3800,-916,-10589,3350,-3614,-1728,4409,143,42,831
327446,178476,16332,182152,214920,1847,3800,-558,-10195,3711,-4095,-1958,5192,125,43,832
328446,179076,16580,182758,215526,2226,3800,-199,-9674,4076,-4589,-2058,5372,125,43,832
329447,179672,16840,183364,216132,2256,3800,197,-9140,4470,-4730,-2289,5383,128,55,831
330449,180204,17100,183970,216738,2688,3800,586,-8595,4881,-4856,-2164,5508,128,55,831
331450,180768,17360,184576,217344,2508,3800,996,-8060,5293,-4861,-2059,5225,124,65,830
332451,181304,17616,185182,217950,2715,3800,1454,-7713,5738,-4504,-2056,4626,124,65,830
333452,181748,17908,185788,218556,3362,3800,1938,-7510,6212,-3599,-1828,4291,119,67,829
334453,182212,18168,186394,219162,3299,3800,2422,-7357,6665,-2215,-1338,3934,119,67,829
335461,182640,18432,187022,219790,3613,3800,2845,-7394,7001,-789,-585,3136,99,60,827
336468,183032,18636,187628,220396,3800,3800,3298,-7692,7233,493,-500,2086,99,60,827
337469,183428,18824,188234,221002,3800,3800,3681,-7974,7428,1848,-501,2404,93,54,824
338457,183868,19012,188840,221608,3800,3800,3985,-7963,7571,3158,-408,2930,93,54,824
339470,184244,19172,189446,222214,3800,3800,4130,-7825,7616,4060,-70,3364,76,40,821
340472,184612,19328,190052,222820,3800,3800,4219,-7497,7510,4542,190,3524,76,40,821
341473,185052,19508,190658,223426,3800,3800,4245,-7150,7249,5148,497,3758,87,43,821
342474,185468,19676,191264,224032,3800,3800,4237,-6573,6879,5241,652,4569,87,43,821
343475,185904,19844,191870,224638,3800,3800,4145,-5611,6476,5137,688,5813,78,28,821
344476,186332,19968,192476,225244,3800,3800,4032,-4344,6110,5397,769,6083,78,28,821
345476,186836,20096,193082,225850,3800,3800,3920,-3101,5740,5330,1225,6064,91,26,820
346478,187296,20196,193688,226456,3800,3800,3813,-1759,5314,5102,1505,6204,91,26,820
347479,187792,20296,194294,227062,3800,3800,3756,-605,4902,5201,1125,5218,83,26,819
348480,188324,20420,194900,227668,3800,3800,3740,278,4491,5283,1261,4623,83,26,819
349481,188820,20520,195506,228274,3800,3800,3707,1127,4029,4921,1463,4707,94,37,820
350482,189356,20640,196112,228880,3800,3800,3743,1736,3591,5021,1145,3239,94,37,820
351483,189912,20776,196718,229486,3800,3800,3890,1893,3177,4936,968,1963,92,26,821
352484,190440,20888,197324,230092,3800,3800,4046,2053,2750,4632,1381,2262,92,26,821
353472,191024,21008,197930,230698,3767,3800,4174,2089,2269,4621,1625,1305,105,25,818
354486,191600,21148,198536,231304,3800,3800,4194,2000,1817,4386,1412,1004,105,25,818
355486,192152,21264,199142,231910,3800,3800,4115,1915,1362,3965,1949,1059,105,26,821
356488,192692,21356,199748,232516,3800,3800,3860,1751,807,3841,2201,1058,105,26,821
357476,193400,21468,200354,233122,3019,3800,3468,1889,194,3435,2253,1836,111,27,820
358490,193972,21564,200960,233728,3800,3800,2963,2034,-408,3103,2235,1541,111,27,820
359478,194640,21664,201566,234334,3259,3800,2464,2006,-1027,3125,2421,921,130,32,822
360479,195288,21756,202172,234940,3368,3800,1891,2210,-1539,2897,1680,2016,130,32,822
361480,195960,21860,202778,235546,3190,3800,1272,2516,-1895,2818,1014,1869,120,35,823
362487,196612,21952,203406,236174,3305,3800,651,2889,-2160,2819,723,2098,120,35,823
363482,197332,22068,204012,236780,2831,3800,66,3304,-2223,2808,-150,2021,143,37,824
364483,197972,22200,204618,237386,3318,3800,-690,4003,-2199,3194,10,3341,143,37,824
365484,198624,22292,205224,237992,3224,3800,-1790,5100,-2287,3089,790,4419,123,27,824
366485,199352,22388,205830,238598,2696,3800,-2571,5204,-2559,2651,1260,-184,123,27,824
367486,200012,22476,206436,239204,3099,3800,-3215,4677,-2903,3000,1523,-364,136,21,824
368487,200696,22560,207042,239810,2916,3800,-3756,3760,-3234,3185,2193,-1209,136,21,824
369488,201528,22656,207648,240416,1893,3800,-4311,2996,-3466,3304,2067,-863,131,29,826
370489,202260,22756,208254,241022,2464,3800,-4790,2236,-3597,3057,2109,-1511,131,29,826
371490,202996,22860,208860,241628,2382,3800,-5237,1432,-3630,2888,1849,-1446,148,30,826
372491,203808,22984,209466,242234,1818,3800,-6125,837,-3382,3148,1722,1029,148,30,826
373492,204628,23112,210072,242840,1675,3800,-6550,1090,-3228,2781,1569,1586,140,25,828
374493,205400,23244,210678,243446,1903,3800,-6895,1396,-3079,2061,664,1489,140,25,828
375494,206240,23440,211284,244052,1376,3800,-7160,1431,-3014,1448,376,1010,154,41,830
376495,206952,23660,211890,244658,2131,3800,-7387,1631,-2997,1097,406,1645,154,41,830
377496,207612,23920,212496,245264,2433,3800,-7621,2004,-2926,175,56,2247,126,44,830
378497,208328,24184,213102,245870,2035,3800,-7899,2519,-2800,-250,-660,2965,126,44,830
379498,208936,24488,213708,246476,2711,3800,-8136,3235,-2612,-277,-717,3258,133,64,828
380499,209472,24812,214314,247082,3192,3800,-8262,3808,-2326,-125,-1208,2688,133,64,828
381500,210128,25180,214920,247688,2421,3800,-8339,4296,-2001,55,-1833,3012,113,78,830
382501,210712,25624,215526,248294,2882,3800,-8376,4872,-1651,-253,-1963,3438,113,78,830
383502,211256,26076,216132,248900,3160,3800,-8334,5309,-1320,-386,-2155,2762,125,91,827
384503,211916,26484,216738,249506,2413,3800,-8209,5559,-1039,-188,-2596,2513,125,91,827
385504,212440,27028,217344,250112,3300,3800,-8022,5706,-735,-180,-3009,2739,115,90,828
386517,212852,27476,217950,250718,3800,3800,-7782,5770,-432,-43,-3369,2577,115,90,828
387506,213384,27924,218556,251324,3369,3800,-7508,5792,-151,-78,-3666,2660,103,97,830
388507,213960,28456,219162,251930,3109,3800,-7153,5795,116,-141,-3813,2811,103,97,830
389515,214444,28908,219790,252558,3748,3800,-6756,5797,353,165,-4157,2953,108,92,825
390521,214928,29364,220396,253164,3800,3800,-6314,5740,579,159,-4583,3014,108,92,825
391510,215520,30004,221002,253770,3135,3800,-5787,5718,848,186,-5047,3441,114,99,827
392523,216000,30496,221608,254376,3800,3800,-5142,5845,1221,405,-5694,3945,114,99,827
393512,216516,31132,222214,254982,3707,3800,-4437,6027,1563,260,-5362,4098,102,119,825
394512,217080,31736,222820,255588,3426,3800,-3709,6335,1824,339,-5170,4739,102,119,825
395514,217604,32396,223426,256194,3713,3800,-3017,6776,1967,271,-4919,5327,114,126,826
396515,218140,33072,224032,256800,3670,3800,-822,9915,1994,2725,-4873,29509,114,126,826
397516,218728,33620,224638,257406,3354,3800,2686,15694,1913,4074,-5090,32767,117,124,828
398517,219256,34216,225244,258012,3764,3800,4712,17841,1837,1282,-4282,4849,117,124,828
399518,219812,34680,225850,258618,3612,3800,4994,17018,1808,1060,-3531,2744,106,119,827
400519,220428,35220,226456,259224,3235,3800,4839,15467,1770,1187,-3469,1883,106,119,827
401520,221012,35748,227062,259830,3445,3800,4798,14569,1697,1053,-3411,2303,130,107,825
402521,221600,36120,227668,260436,3429,3800,4918,14031,1508,484,-2509,1711,130,107,825
403522,222200,36520,228274,261042,3358,3800,4942,13276,1040,201,-1392,972,130,100,828
404523,222760,36924,228880,261648,3629,3800,4807,12335,311,-465,-381,884,130,100,828
405524,223352,37264,229486,262254,3436,3800,4576,11277,-484,-1137,-239,1093,107,87,826
406525,223936,37568,230092,262860,3497,3800,4221,10442,-1265,-1247,-537,1715,107,87,826
407526,224540,37840,230698,263466,3375,3800,3780,9743,-1957,-1759,-205,1761,108,72,825
408527,225156,38056,231304,264072,3296,3800,3286,9003,-2612,-2197,138,1765,108,72,825
409528,225856,38256,231910,264678,2731,3800,2770,8173,-3284,-2627,-33,1577,131,41,824
410529,226456,38432,232516,265284,3360,3800,2300,7179,-3881,-3489,134,1416,131,41,824
411529,227128,38592,233122,265890,2882,3800,1855,5808,-4349,-5052,218,502,132,38,824
412531,227876,38736,233728,266496,2345,3800,1496,2495,-4610,-7625,-370,-3098,132,38,824
413532,228576,38856,234334,267102,2606,3800,1241,-2249,-4540,-8834,-1777,-3315,154,33,824
414533,229276,38944,234940,267708,2566,3800,1028,-6611,-4070,-9539,-2709,-1143,154,33,824
415534,230016,39032,235546,268314,2258,3800,787,-9332,-3319,-9333,-3190,2073,151,37,829
416544,230736,39104,236174,268942,2343,3800,441,-10332,-2463,-8796,-3336,4751,151,37,829
417536,231428,39164,236780,269548,2481,3800,105,-10405,-1702,-7978,-3252,5690,144,12,827
418537,232280,39184,237386,270154,1374,3800,-126,-10144,-998,-7389,-2864,6421,144,12,827
419537,233064,39192,237992,270760,1722,3800,-223,-9555,-292,-6685,-2556,7234,132,21,825
420539,233788,39232,238598,271366,2046,3800,-218,-8716,395,-6086,-2099,8292,132,21,825
421540,234692,39256,239204,271972,791,3800,224,-7914,1030,-5593,-1075,12403,143,5,830
422541,235464,39284,239810,272578,1544,3800,859,-7316,1563,-5107,57,11230,143,5,830
423542,236256,39328,240416,273184,1338,3800,1153,-7263,2043,-5003,763,5944,142,25,827
424543,237084,39360,241022,273790,1016,3800,1179,-7646,2523,-4468,1280,4349,142,25,827
425544,237860,39424,241628,274396,1267,3800,1184,-8175,2963,-3558,1528,3527,147,26,830
426545,238596,39496,242234,275002,1461,3800,1265,-8733,3371,-2697,1861,3182,147,26,830
427545,239420,39596,242840,275608,815,3800,1388,-9233,3722,-1851,2141,3450,146,31,831
428547,240124,39708,243446,276214,1523,3800,1480,-9615,3985,-1020,1546,3529,146,31,831
429548,240656,39824,244052,276820,2632,3800,1569,-10094,4165,-654,997,3261,159,25,831
430549,241380,39964,244658,277426,1380,3800,1692,-10624,4200,-263,584,3087,159,25,831
431550,242048,40084,245264,278032,1704,3800,1825,-11260,4088,331,458,2663,136,31,831
432551,242752,40292,245870,278638,1436,3800,1964,-11956,3856,753,21,2390,136,31,831
433552,243488,40548,246476,279244,1180,3800,2058,-12552,3618,658,-580,2878,145,43,831
434553,244132,40764,247082,279850,1739,3800,2142,-12893,3469,421,-1097,3563,145,43,831
435554,244688,41044,247688,280456,2311,3800,2174,-13062,3432,149,-1525,4254,138,50,831
436555,245316,41300,248294,281062,1852,3800,2174,-12960,3510,-98,-1531,5254,138,50,831
437556,245848,41564,248900,281668,2485,3800,2167,-12732,3652,-698,-1224,5420,130,69,831
438557,246384,41940,249506,282274,2491,3800,2144,-12371,3839,-1265,-846,6033,130,69,831
439558,246812,42292,250112,282880,3246,3800,2084,-12029,4077,-1011,-497,6000,122,76,831
440559,247260,42668,250718,283486,3190,3800,2063,-11816,4424,550,-6,5492,122,76,831
441560,247684,43044,251324,284092,3421,3800,1997,-11637,4805,2802,859,5132,95,89,829
442573,248028,43468,251930,284698,3800,3800,1960,-11662,5146,4421,1526,3920,95,89,829
443581,248412,43944,252558,285326,3800,3800,1876,-11882,5439,5415,1985,3696,89,79,826
444576,248748,44332,253164,285932,3800,3800,1723,-12077,5672,6135,1962,3841,89,79,826
445577,249108,44736,253770,286538,3800,3800,1100,-11421,6081,7014,323,7357,73,92,822
446578,249464,45120,254376,287144,3800,3800,286,-10101,6687,7566,-75,8117,73,92,822
447578,249796,45488,254982,287750,3800,3800,-247,-9010,6867,7574,2382,6766,63,79,822
448580,250132,45920,255588,288356,3800,3800,-498,-8213,6815,7684,894,6866,63,79,822
449580,250536,46316,256194,288962,3800,3800,-573,-7436,6776,7706,896,6781,70,85,822
450581,250876,46684,256800,289568,3800,3800,-569,-6544,6586,7557,2221,6786,70,85,822
451582,251252,47052,257406,290174,3800,3800,-649,-5362,6229,7526,3051,7727,67,88,822
452583,251648,47408,258012,290780,3800,3800,-721,-3953,5785,7274,3009,7717,67,88,822
453584,251996,47792,258618,291386,3800,3800,-683,-2538,5364,6856,2917,7307,74,65,822
454585,252352,48132,259224,291992,3800,3800,-546,-1378,4978,6817,2876,6763,74,65,822
455586,252728,48444,259830,292598,3800,3800,-386,-332,4669,6934,1981,6709,70,65,821
456587,253092,48788,260436,293204,3800,3800,-126,716,4415,6301,1381,6117,70,65,821
457588,253452,49156,261042,293810,3800,3800,260,1548,4109,5540,1593,4988,68,72,821
458589,253848,49492,261648,294416,3800,3800,701,2110,3674,5107,1893,4449,68,72,821
459590,254232,49844,262254,295022,3800,3800,1102,2771,3182,4715,1855,4614,65,80,822
460591,254636,50212,262860,295628,3800,3800,1452,3498,2712,4131,2601,4260,65,80,822
461593,255128,50596,263466,296234,3800,3800,1788,3992,2260,3552,2832,3417,72,83,822
462594,255528,51036,264072,296840,3800,3800,2066,4446,1854,3213,2634,3359,72,83,822
463595,256052,51376,264678,297446,3800,3800,2302,4988,1541,2489,2178,3341,98,82,821
464596,256572,51732,265284,298052,3800,3800,2579,5405,1313,1662,1590,2296,98,82,821
465597,257020,52040,265890,298658,3800,3800,2947,5458,1057,945,1368,1197,99,75,823
466598,257540,52388,266496,299264,3800,3800,3351,5391,840,577,603,1148,99,75,823
467598,258084,52684,267102,299870,3800,3800,3649,5334,800,538,-113,1095,95,83,821
468600,258620,53180,267708,300476,3800,3800,3847,5183,821,509,33,482,95,83,821
469601,259240,53624,268314,301082,3800,3800,3985,4880,864,176,187,97,108,101,824
470609,259848,54124,268942,301710,3800,3800,4114,4628,905,-161,191,70,108,101,824
471603,260432,54700,269548,302316,3800,3800,4258,4274,1012,-224,-169,-241,121,116,825
472603,261056,55264,270154,302922,3800,3800,4371,4251,1331,-133,-839,1021,121,116,825
473604,261744,55936,270760,303528,3800,3800,4396,4557,1864,-2,-1094,1635,114,123,825
474605,262444,56560,271366,304134,3800,3800,4340,5009,2481,101,-977,1903,114,123,825
475606,263104,57360,271972,304740,3800,3800,4221,5550,3077,169,-512,2093,132,127,827
476595,263924,58060,272578,305346,3198,3800,4005,5976,3584,408,-87,1817,132,127,827
477609,264628,58872,273184,305952,3800,3800,3674,6402,3939,714,536,1924,148,138,827
478610,265324,59608,273790,306558,3800,3800,3181,6754,4141,1047,1397,1727,148,138,827
479598,266132,60440,274396,307164,3106,3800,2676,6661,4182,1663,1965,-43,151,168,830
480599,266928,61352,275002,307770,3100,3800,2214,6100,4062,2126,3162,-1268,151,168,830
481600,267704,62168,275608,308376,3151,3800,1759,5248,3818,2300,3971,-1823,161,180,830
482601,268600,63020,276214,308982,2275,3800,1232,4310,3477,2504,4390,-2006,161,180,830
483602,269480,63840,276820,309588,2256,3800,733,3441,3159,2405,4329,-1917,166,175,833
484603,270328,64596,277426,310194,2351,3800,220,2811,2898,2335,4307,-1046,166,175,833
485604,271200,65388,278032,310800,2086,3800,-375,2469,2611,2341,4242,-265,167,154,836
486605,272052,66072,278638,311406,2104,3800,-1088,2373,2200,1846,4448,477,167,154,836
487606,272836,66736,279244,312012,2452,3800,-1943,2525,1564,1156,5074,1059,147,140,835
488607,273612,67300,279850,312618,2429,3800,-2824,2750,688,463,5971,937,147,140,835
489608,274428,67832,280456,313224,2088,3800,-3672,2902,-344,-342,6652,1020,168,129,834
490609,275116,68344,281062,313830,2852,3800,-4553,3006,-1399,-379,6740,1115,168,129,834
491610,275820,68856,281668,314436,2710,3800,-5473,3216,-2298,-175,5927,1160,165,116,833
492611,276540,69264,282274,315042,2561,3800,-6374,3356,-2932,-131,4160,854,165,116,833
493612,277248,69628,282880,315648,2593,3800,-7190,3434,-3314,-177,2047,770,126,91,830
494613,277828,69952,283486,316254,3405,3800,-7910,3316,-3525,-320,949,434,126,91,830
495614,278368,70272,284092,316860,3685,3800,-8570,3069,-3760,-420,699,-17,130,74,830
496615,278916,70604,284698,317466,3661,3800,-9228,2789,-4084,-349,178,111,130,74,830
497622,279484,70860,285326,318094,3565,3800,-9847,2476,-4377,-165,-106,47,122,63,826
498617,280036,71124,285932,318700,3690,3800,-10400,1966,-4639,-195,-594,-449,122,63,826
499630,280504,71384,286538,319306,3800,3800,-10785,1308,-4849,-199,-1638,-766,104,54,822
500631,281028,71596,287144,319912,3800,3800,-11037,501,-4895,-295,-3352,-729,104,54,822
501632,281524,71820,287750,320518,3800,3800,-11286,-293,-4747,-547,-5041,-546,116,59,822
502634,281984,72012,288356,321124,3800,3800,-11522,-1079,-4450,-1061,-6370,-200,116,59,822
503634,282408,72168,288962,321730,3800,3800,-11705,-1912,-4187,-1482,-6542,-365,92,47,822
504636,282904,72304,289568,322336,3800,3800,-11825,-2603,-3936,-1775,-7699,762,92,47,822
505636,283332,72436,290174,322942,3800,3800,-11854,-3124,-3643,-2242,-9030,1542,91,31,821
506637,283776,72556,290780,323548,3800,3800,-11708,-3480,-3268,-2427,-10176,2356,91,31,821
507638,284236,72644,291386,324154,3800,3800,-8165,969,-2390,-1478,-16752,31489,80,22,820
508640,284652,72708,291992,324760,3800,3800,2236,20175,-869,2762,-28371,32767,80,22,820
509640,285080,72732,292598,325366,3800,3800,10094,31051,137,2981,-13935,20034,85,7,820
510642,285564,72776,293204,325972,3800,3800,11569,28904,550,2566,-7628,-6364,85,7,820
511642,286008,72808,293810,326578,3800,3800,10208,21317,747,3009,-6884,-9961,82,5,818
512644,286452,72828,294416,327184,3800,3800,9296,14794,943,3361,-6956,-9730,82,5,818
513644,286960,72876,295022,327790,3800,3800,9018,10989,1316,2803,-6160,-6548,80,20,819
514646,287440,72904,295628,328396,3800,3800,8848,8206,1779,2922,-6126,-6073,80,20,819
515646,287940,72932,296234,329002,3800,3800,8357,5058,2012,2474,-4497,-5869,90,6,820
516647,288504,72964,296840,329608,3800,3800,7038,2892,2004,2393,-1573,-192,90,6,820
517648,289020,72988,297446,330214,3800,3800,4649,2158,1844,2521,-414,3745,91,10,820
518649,289552,73020,298052,330820,3800,3800,2424,1451,1473,1149,-798,1217,91,10,820
519650,290156,73048,298658,331426,3800,3800,1424,-751,855,-534,-47,-3129,93,21,820
520651,290748,73084,299264,332032,3800,3800,1073,-3521,70,-1430,875,-2322,93,21,820
521652,291340,73132,299870,332638,3800,3800,629,-5563,-752,-1774,1742,-36,109,23,819
522653,292016,73168,300476,333244,3800,3800,-136,-6280,-1483,-1861,2504,3111,109,23,819
523654,292680,73204,301082,333850,3800,3800,-919,-6047,-2145,-2020,3158,4550,120,25,819
524665,293348,73244,301710,334478,3800,3800,-1517,-5597,-2718,-2121,3307,4945,120,25,819
525644,294132,73288,302316,335084,3284,3800,-1887,-5189,-3148,-2351,3382,5496,131,25,822
526645,294836,73324,302922,335690,3742,3800,-2189,-4753,-3460,-2832,3593,5958,131,25,822
527646,295568,73364,303528,336296,3514,3800,-2442,-4175,-3643,-2924,3262,6187,139,10,822
528647,296436,73416,304134,336902,2549,3800,-2721,-3517,-3647,-2983,2910,6324,139,10,822
529648,297240,73448,304740,337508,2864,3800,-2915,-3072,-3474,-3457,2686,5510,143,15,822
530649,298040,73512,305346,338114,2805,3800,-3011,-2935,-3156,-3696,2507,4821,143,15,822
531650,298924,73572,305952,338720,2159,3800,-2991,-2937,-2737,-3578,2440,4253,156,30,827
532651,299804,73628,306558,339326,2066,3800,-2861,-3158,-2233,-3538,2268,3370,156,30,827
533652,300696,73704,307164,339932,1866,3800,-2619,-3624,-1650,-3599,2042,2689,164,21,826
534653,301732,73764,307770,340538,778,3800,-2297,-4216,-1037,-3737,2015,2499,164,21,826
535654,302644,73844,308376,341144,1419,3800,-1929,-4772,-439,-3818,1876,2571,165,33,829
536655,303512,73924,308982,341750,1581,3800,-1513,-5165,135,-3947,1482,2927,165,33,829
537656,304460,74028,309588,342356,932,3800,-1060,-5464,712,-4338,701,2968,166,21,831
538657,305196,74128,310194,342962,2201,3800,-591,-5745,1314,-4715,-28,3112,166,21,831
539657,306028,74220,310800,343568,1503,3800,-81,-6000,1864,-5116,-370,3193,144,31,830
540659,306816,74360,311406,344174,1698,3800,466,-6268,2350,-5499,-717,3134,144,31,830
541660,307608,74492,312012,344780,1592,3800,1075,-6501,2773,-5805,-1068,2963,158,25,828
542661,308384,74644,312618,345386,1618,3800,1696,-6768,3166,-5507,-1438,2788,158,25,828
543662,309132,74860,313224,345992,1732,3800,2307,-6966,3560,-4859,-1604,2833,147,33,829
544663,309844,75052,313830,346598,1911,3800,2848,-7177,3933,-4402,-1758,2725,147,33,829
545664,310532,75284,314436,347204,2025,3800,3357,-7306,4254,-4172,-1708,2580,158,45,829
546665,311212,75536,315042,347810,2044,3800,3866,-7537,4464,-4115,-1800,2110,158,45,829
547666,311976,75796,315648,348416,1450,3800,4328,-7646,4620,-4188,-2140,2555,141,59,830
548667,312564,76076,316254,349022,2559,3800,4689,-7531,4842,-4281,-2708,3128,141,59,830
549668,313192,76360,316860,349628,2299,3800,4951,-7424,5105,-4219,-2960,2779,128,66,830
550668,313780,76608,317466,350234,2558,3800,5200,-7414,5332,-4171,-2645,2328,128,66,830
551677,314340,76908,318094,350862,2764,3800,5401,-7645,5516,-3702,-2440,1721,127,53,828
552671,314864,77196,318700,351468,3025,3800,5563,-8035,5681,-2805,-2437,1001,127,53,828
553672,315432,77496,319306,352074,2768,3800,5685,-8785,5859,-1682,-1927,-117,116,74,829
554673,315968,77776,319912,352680,3000,3800,5796,-9729,6032,-274,-1448,-576,116,74,829
555674,316456,78012,320518,353286,3353,3800,5917,-10864,6149,764,-797,-1513,128,67,826
556675,316996,78272,321124,353892,3057,3800,6023,-12083,6255,1314,-467,-1310,128,67,826
557676,317448,78500,321730,354498,3675,3800,6067,-13149,6357,2129,-30,-1126,94,60,826
558689,317884,78708,322336,355104,3800,3800,6036,-14086,6437,2901,564,-1183,94,60,826
559678,318384,78876,322942,355710,3499,3800,5930,-14773,6476,3521,996,-710,90,46,825
560679,318864,79048,323548,356316,3680,3800,5784,-15289,6491,3961,969,-379,90,46,825
561692,319324,79196,324154,356922,3800,3800,5565,-15397,6504,3720,752,956,88,33,821
562693,319796,79324,324760,357528,3800,3800,5311,-15059,6535,3444,917,1560,88,33,821
563682,320304,79448,325366,358134,3674,3800,5049,-14554,6549,3492,1091,1995,95,41,821
564695,320776,79584,325972,358740,3800,3800,4642,-13367,6514,3285,1407,4116,95,41,821
565684,321328,79680,326578,359346,3483,3800,4187,-11916,6477,2940,1259,4054,91,35,819
566697,321788,79768,327184,359952,3800,3800,3741,-10461,6326,2547,1392,4226,91,35,819
567698,322288,79864,327790,360558,3800,3800,3266,-8721,6036,1823,1937,5131,100,17,819
568687,322852,79968,328396,361164,3541,3800,2759,-7057,5650,1422,2198,4461,100,17,819
569688,323424,80076,329002,361770,3507,3800,2190,-5501,5182,1399,2427,4205,97,23,818
570701,323860,80156,329608,362376,3800,3800,1568,-3937,4872,1187,1582,4022,97,23,818
571690,324520,80244,330214,362982,3010,3800,1123,-2995,4401,1125,2867,1328,111,18,821
572691,325096,80348,330820,363588,3549,3800,685,-2173,3808,1531,2529,2247,111,18,821
573692,325708,80428,331426,364194,3322,3800,50,-540,3724,3087,314,5218,100,22,821
574693,326304,80528,332032,364800,3428,3800,-739,1439,4006,3981,-1182,5580,100,22,821
575694,326936,80632,332638,365406,3192,3800,-1208,2916,4150,3744,-500,3579,130,21,822
576695,327552,80748,333244,366012,3289,3800,-1484,3617,3841,3796,828,1945,130,21,822
577696,328216,80844,333850,366618,2964,3800,-1864,3693,3123,4709,1705,598,119,33,821
578704,328772,80992,334478,367246,3672,3800,-2451,3363,2228,5629,2553,-85,119,33,821
579698,329372,81132,335084,367852,3401,3800,-3158,3041,1269,6615,3395,33,125,28,824
580699,330036,81284,335690,368458,2977,3800,-3846,2717,391,6919,3633,-378,125,28,824
581700,330628,81420,336296,369064,3434,3800,-4339,1988,-263,6719,3145,-1097,112,25,822
582701,331244,81532,336902,369670,3281,3800,-4641,791,-746,7080,2929,-1939,112,25,822
583702,332008,81656,337508,370276,2287,3800,-4900,-58,-1095,8066,2984,-850,129,25,825
584702,332796,81772,338114,370882,2059,3800,-5149,-548,-1327,8279,3163,-650,129,25,825
585703,333484,81924,338720,371488,2648,3800,-5395,-1044,-1508,8205,2822,-354,124,26,824
586704,334212,82064,339326,372094,2346,3800,-5776,-990,-1730,7873,2883,1915,124,26,824
587705,335012,82244,339932,372700,1812,3800,-6134,-865,-2040,7266,3295,1167,133,34,826
588707,335724,82412,340538,373306,2316,3800,-6381,-867,-2440,6952,3142,1048,133,34,826
589707,336400,82588,341144,373912,2511,3800,-6657,-865,-2867,6330,2968,1608,140,30,827
590708,337196,82800,341750,374518,1679,3800,-6982,-662,-3305,5985,2700,2215,140,30,827
591709,337892,83044,342356,375124,2264,3800,-7406,-57,-3779,5246,1947,3228,124,38,829
592711,338512,83252,342962,375730,2734,3800,-7822,1001,-4129,3664,795,4386,124,38,829
593712,339156,83524,343568,376336,2568,3800,-8207,2249,-4287,2327,28,4881,138,49,830
594713,339800,83836,344174,376942,2553,3800,-8454,3358,-4292,1778,-201,4480,138,49,830
595714,340400,84136,344780,377548,2831,3800,-8572,4541,-4139,1608,-246,4823,125,66,828
596715,340996,84476,345386,378154,2862,3800,-8629,5718,-3880,1478,-558,4593,125,66,828
597716,341524,84772,345992,378760,3321,3800,-8627,6595,-3574,1005,-803,3712,125,71,827
598717,342108,85108,346598,379366,2982,3800,-8545,6959,-3251,754,-645,2446,125,71,827
599718,342732,85516,347204,379972,2725,3800,-8329,6846,-3007,1031,-482,880,116,81,825
600719,343244,85892,347810,380578,3467,3800,-8029,6341,-2799,1033,-976,249,116,81,825
601733,343648,86288,348416,381184,3800,3800,-7730,5844,-2488,696,-2129,810,111,89,827
602721,344208,86772,349022,381790,3278,3800,-7508,5550,-2055,449,-3069,1648,111,89,827
603722,344732,87248,349628,382396,3540,3800,-7244,5375,-1602,245,-3347,1623,115,92,825
604736,345212,87708,350234,383002,3800,3800,-6872,5106,-1200,292,-3502,1472,115,92,825
605731,345748,88276,350862,383630,3563,3800,-6419,4875,-870,279,-3818,2062,113,98,826
606738,346248,88824,351468,384236,3800,3800,-5969,4879,-538,155,-4424,3290,113,98,826
607738,346716,89448,352074,384842,3800,3800,-5496,5173,-165,219,-4906,3897,97,116,824
608727,347272,90044,352680,385448,3570,3800,-4964,5672,246,271,-5281,4646,97,116,824
609741,347772,90612,353286,386054,3800,3800,-4371,6304,657,273,-5367,5260,104,129,824
610742,348276,91284,353892,386660,3800,3800,-3775,7064,964,348,-5267,6111,104,129,824
611730,348876,91880,354498,387266,3392,3800,-1268,11348,1446,389,-7853,32767,117,120,825
612731,349428,92644,355104,387872,3717,3800,2990,19467,2124,653,-8939,32767,117,120,825
613745,349948,93268,355710,388478,3800,3800,5383,22600,2354,1717,-4207,5258,116,122,826
614733,350544,94008,356316,389084,3486,3800,5569,21619,2192,1854,-2881,2278,116,122,826
615734,351132,94648,356922,389690,3545,3800,5199,19775,1855,2177,-2556,1211,134,149,827
616735,351712,95392,357528,390296,3607,3800,4999,18426,1583,2412,-2948,1048,134,149,827
617736,352376,96128,358134,390902,3058,3800,4967,17788,1455,2278,-2980,1516,119,131,828
618737,352968,96932,358740,391508,3515,3800,4802,17165,1312,2193,-2690,877,119,131,828
619738,353560,97688,359346,392114,3523,3800,4520,16210,1045,1949,-2241,156,128,146,828
620739,354232,98512,359952,392720,2995,3800,4169,15025,584,1454,-1150,-85,128,146,828
621740,354856,99232,360558,393326,3288,3800,3735,13732,-113,1191,-85,-328,121,146,827
622741,355472,100104,361164,393932,3335,3800,3279,12499,-916,735,525,-130,121,146,827
623742,356172,100912,361770,394538,2770,3800,2780,11445,-1712,223,838,371,117,145,830
624743,356840,101636,362376,395144,2943,3800,2309,10388,-2510,-130,767,258,117,145,830
625744,357560,102316,362982,395750,2569,3800,1821,9385,-3282,-480,557,859,139,141,830
626745,358320,103004,363588,396356,2253,3800,1352,8611,-3970,-1068,282,1183,139,141,830
627746,359052,103652,364194,396962,2373,3800,871,7794,-4582,-1794,-166,1243,153,134,831
628747,359784,104356,364800,397568,2319,3800,447,7051,-5097,-2719,-499,1602,153,134,831
629748,360588,104948,365406,398174,1783,3800,117,6402,-5448,-3537,-778,1972,159,126,833
630749,361372,105528,366012,398780,1831,3800,-116,5838,-5674,-4013,-1288,1999,159,126,833
631750,362160,106064,366618,399386,1727,3800,-264,5263,-5777,-4643,-1892,2124,147,124,833
632760,362924,106592,367246,400014,1818,3800,-318,4746,-5744,-5256,-2808,2193,147,124,833
633752,363784,107160,367852,400620,1106,3800,-313,4232,-5574,-5677,-4045,2133,173,119,832
634753,364492,107584,368458,401226,2012,3800,-241,3620,-5280,-6467,-3807,2082,173,119,832
635754,365232,108052,369064,401832,1754,3800,-147,2982,-4926,-7279,-3708,2216,165,110,834
636755,366136,108492,369670,402438,600,3800,22,1464,-4473,-9015,-3793,546,165,110,834
637756,366920,108984,370276,403044,1271,3800,341,-1782,-3866,-11461,-3274,-1283,144,110,833
638757,367680,109464,370882,403650,1355,3800,691,-5556,-3266,-12602,-3015,-244,144,110,833
639758,368532,109884,371488,404256,673,3800,919,-8198,-2744,-12469,-2149,2141,156,101,836
640759,369248,110328,372094,404862,1474,3800,1043,-9157,-2266,-11166,-1677,3857,156,101,836
641760,370052,110800,372700,405468,838,3800,1086,-8826,-1799,-9661,-1669,5350,155,102,834
642761,370840,111280,373306,406074,858,3800,1126,-7732,-1219,-8984,-1704,6393,155,102,834
643762,371536,111812,373912,406680,1395,3800,1161,-6861,-549,-8817,-1844,5601,145,111,833
644763,372228,112384,374518,407286,1382,3800,1236,-6664,118,-8671,-1836,4620,145,111,833
645764,372884,112912,375124,407892,1586,3800,1334,-6670,746,-8540,-1197,4490,135,105,835
646765,373484,113468,375730,408498,1939,3800,1399,-6688,1331,-8064,-971,4260,135,105,835
647766,374120,113956,376336,409104,1700,3800,1447,-6734,1877,-7305,-1057,4018,131,117,835
648767,374828,114528,376942,409710,1207,3800,1544,-7208,2444,-6115,-1537,2797,131,117,835
649768,375404,115128,377548,410316,2045,3800,1747,-7929,2986,-4860,-1551,2017,131,116,833
650769,375960,115700,378154,410922,2193,3800,2017,-8973,3540,-4250,-1602,1158,134,122,835
651770,376552,116372,378760,411528,1974,3800,2280,-10380,4149,-3559,-1847,325,134,122,835
652771,377036,117004,379366,412134,2702,3800,2523,-12141,4819,-3063,-1878,-175,120,131,832
653772,377528,117604,379972,412740,2704,3800,2700,-13521,5579,-3348,-2008,1375,120,131,832
654773,377952,118376,380578,413346,3209,3800,2805,-14420,6520,-3572,-2436,2455,108,120,829
655774,378340,119128,381184,413952,3530,3800,2904,-15261,7558,-3297,-2053,2208,108,120,829
656775,378720,119748,381790,414558,3680,3800,2886,-16202,8496,-940,-629,1924,95,140,829
657789,379084,120376,382396,415164,3800,3800,2881,-17314,9302,2414,405,730,95,140,829
658790,379416,121212,383002,415770,3800,3800,2901,-18729,10017,4243,1158,263,88,182,826
659797,379724,122136,383630,416398,3800,3800,2587,-19762,10594,5594,1262,2462,88,182,826
660792,380072,123056,384236,417004,3800,3800,983,-18998,11286,6685,-1312,9060,89,171,825
661793,380372,123972,384842,417610,3800,3800,-1137,-17047,11955,7383,105,9702,89,171,825
662794,380672,124864,385448,418216,3800,3800,-3612,-14367,12183,8812,3206,12970,59,183,826
663795,380988,125800,386054,418822,3800,3800,-4881,-13425,12178,8685,1767,4532,59,183,826
664796,381304,126732,386660,419428,3800,3800,-4716,-15351,12103,8791,1274,-1755,75,170,825
665797,381620,127680,387266,420034,3800,3800,-3986,-17939,12005,9875,1158,-1288,75,170,825
666798,381972,128544,387872,420640,3800,3800,-3470,-19763,11921,10486,733,541,80,178,826
667799,382288,129424,388478,421246,3800,3800,-3239,-20460,11880,9815,-917,2784,80,178,826
668800,382636,130292,389084,421852,3800,3800,-3120,-20373,11508,8518,385,3584,64,187,826
669801,383036,131196,389690,422458,3800,3800,-2945,-19600,10608,8365,3269,6713,64,187,826
670802,383404,132128,390296,423064,3800,3800,-2693,-17666,9673,8637,2251,10534,74,188,827
671803,383772,132900,390902,423670,3800,3800,-2156,-15365,8960,8274,1197,10836,74,188,827
672804,384228,133684,391508,424276,3800,3800,-1664,-11951,8491,8118,448,15753,79,171,826
673804,384640,134416,392114,424882,3800,3800,-1520,-7336,8106,7918,791,19128,79,171,826
674806,385064,135088,392720,425488,3800,3800,-1399,-2645,7478,6677,992,17255,83,140,825
675806,385580,135704,393326,426094,3800,3800,-1087,1017,6342,5725,2235,14048,83,140,825
676808,386080,136244,393932,426700,3800,3800,-705,4045,4932,5533,2833,13067,87,110,824
677809,386572,136740,394538,427306,3800,3800,-270,6557,3723,5182,1655,11206,87,110,824
678809,387172,137220,395144,427912,3800,3800,252,8729,2643,4583,1755,9754,109,105,824
679810,387684,137664,395750,428518,3800,3800,861,10743,1731,4161,1480,9167,109,105,824
680811,388236,138016,396356,429124,3800,3800,1505,12545,941,4332,2113,7668,101,87,824
681812,388868,138416,396962,429730,3800,3800,2025,13512,107,4586,3235,4674,101,87,824
682814,389348,138736,397568,430336,3800,3800,2475,13638,-819,4818,4338,2435,106,65,823
683814,389948,139036,398174,430942,3800,3800,2925,12921,-1769,5058,3910,-72,106,65,823
684816,390464,139304,398780,431548,3800,3800,3416,11562,-2548,5136,2421,-1676,110,69,822
685816,391140,139576,399386,432154,3800,3800,3813,9996,-3099,5072,1845,-1837,110,69,822
686824,391728,139896,400014,432782,3800,3800,3963,8473,-3510,5117,1406,-1769,129,63,822
687818,392312,140204,400620,433388,3800,3800,4077,6637,-3788,4294,398,-3178,129,63,822
688807,393040,140480,401226,433994,3794,3800,4302,4240,-4096,3350,593,-4706,114,70,823
689820,393664,140756,401832,434600,3800,3800,4484,1769,-4303,3225,238,-4060,114,70,823
690822,394248,141060,402438,435206,3800,3800,4418,-257,-4318,3332,268,-2603,118,64,823
691822,394888,141416,403044,435812,3800,3800,4183,-1912,-4192,2884,787,-2305,118,64,823
692824,395464,141712,403650,436418,3800,3800,3938,-3472,-3997,2600,1325,-2041,121,56,822
693825,396008,142020,404256,437024,3800,3800,3673,-4746,-3652,2617,1500,-801,121,56,822
694826,396540,142316,404862,437630,3800,3800,3366,-5658,-3173,2456,2164,163,98,76,822
695826,397096,142672,405468,438236,3800,3800,3028,-6234,-2711,2130,2788,553,98,76,822
696827,397660,143068,406074,438842,3800,3800,2643,-6741,-2287,1943,3200,904,121,82,821
697828,398312,143440,406680,439448,3800,3800,1514,-5876,-1775,1919,1636,6600,121,82,821
698829,399024,143820,407286,440054,3800,3800,79,-4372,-1194,1311,896,5725,129,94,822
699830,399668,144260,407892,440660,3800,3800,-1017,-3333,-631,1197,1521,4168,129,94,822
700819,400488,144676,408498,441266,3160,3800,-2127,-2081,-34,433,509,6636,123,87,824
701820,401272,145124,409104,441872,3308,3800,-3215,-793,490,240,1944,5730,123,87,824
702821,402060,145644,409710,442478,3204,3800,-3820,-155,832,609,3876,2707,161,102,827
703822,402880,146092,410316,443084,2912,3800,-3950,-594,1048,1007,5350,566,161,102,827
704823,403632,146480,410922,443690,3274,3800,-4015,-1046,1153,1144,6042,1385,138,95,827
705824,404352,147008,411528,444296,3426,3800,-4202,-1202,1365,819,4905,1888,138,95,827
706825,405164,147472,412134,444902,2761,3800,-4596,-904,1808,788,2904,3651,152,109,828
707826,405864,148040,412740,445508,3421,3800,-4974,-75,2245,978,2898,4871,152,109,828
708827,406580,148580,413346,446114,3275,3800,-5234,941,2521,568,2599,5268,156,113,829
709828,407316,149104,413952,446720,3094,3800,-5293,1814,2669,-151,1635,4885,156,113,829
710829,408068,149704,414558,447326,2931,3800,-5295,2562,2686,-732,1223,5050,145,118,828
711830,408740,150248,415164,447932,3403,3800,-5334,3391,2577,-941,931,5439,145,118,828
712843,409328,150796,415770,448538,3800,3800,-5409,4390,2366,-411,492,5741,133,113,829
713839,409968,151476,416398,449166,3608,3800,-5433,5298,2087,43,218,4918,133,113,829
714833,410600,152080,417004,449772,3648,3800,-5448,5973,1827,68,-405,4813,149,120,827
715834,411260,152752,417610,450378,3450,3800,-5449,6519,1583,309,-1040,4616,149,120,827
716835,411876,153444,418216,450984,3723,3800,-5402,6965,1348,372,-1493,4182,137,151,827
717835,412492,154212,418822,451590,3719,3800,-5263,7359,1191,431,-2252,4230,137,151,827
718836,413116,155068,419428,452196,3662,3800,-5033,7789,1113,750,-2688,4113,138,142,826
719837,413728,155860,420034,452802,3736,3800,-4734,7995,1036,901,-2692,3423,138,142,826
720839,414340,156664,420640,453408,3734,3800,-4328,7950,937,1284,-2807,2719,148,155,828
721839,415020,157476,421246,454014,3279,3800,-3877,7630,845,1592,-3129,2226,148,155,828
722840,415636,158440,421852,454620,3675,3800,-3431,7200,779,1607,-3204,2043,148,163,829
723842,416276,159408,422458,455226,3511,3800,-3056,6738,670,1706,-3030,1946,148,163,829
724843,416988,160248,423064,455832,3016,3800,-2762,6301,556,1946,-3316,2074,151,178,829
725844,417628,161228,423670,456438,3452,3800,-2567,6122,527,2024,-4002,2987,151,178,829
726845,418292,162180,424276,457044,3277,3800,-2333,6016,460,1590,-4026,2573,152,203,832
727846,418956,163120,424882,457650,3254,3800,-1917,5668,284,1250,-3821,1707,152,203,832
728847,419572,164324,425488,458256,3550,3800,-1421,5254,57,1356,-3713,2163,125,201,832
729848,420184,165280,426094,458862,3574,3800,-997,5240,-132,1732,-3821,3497,125,201,832
730849,420872,166256,426700,459468,3064,3800,-697,5560,-250,1846,-3997,4168,141,209,830
731850,421516,167268,427306,460074,3323,3800,-369,5991,-331,1645,-4550,4191,141,209,830
732851,422208,168228,427912,460680,2986,3800,-15,6363,-469,1396,-4599,4253,153,207,832
733852,423000,169064,428518,461286,2280,3800,339,6861,-668,1333,-4808,4888,153,207,832
734853,423776,170016,429124,461892,2307,3800,614,7485,-922,1115,-4057,5083,136,168,832
735854,424484,170892,429730,462498,2688,3800,893,8067,-1214,742,-3581,4836,136,168,832
736855,425316,171664,430336,463104,1815,3800,1124,8674,-1512,491,-3400,5230,160,154,835
737856,426088,172456,430942,463710,2118,3800,1356,9427,-1766,115,-3029,5389,160,154,835
738857,426900,173240,431548,464316,1778,3800,1589,10132,-1974,-417,-2816,5152,165,163,836
739858,427640,174084,432154,464922,2170,3800,1858,10717,-2227,-820,-2447,4684,165,163,836
740868,428508,174876,432782,465550,1266,3800,2109,11039,-2563,-1327,-1808,3998,169,166,835
741860,429312,175572,433388,466156,1580,3800,2328,11158,-2984,-1676,-928,3297,169,166,835
742861,430020,176364,433994,466762,2136,3800,2443,11006,-3575,-2146,309,2447,171,145,836
743862,430988,177084,434600,467368,352,3800,2444,10522,-4304,-2655,606,1606,171,145,836
744863,431728,177940,435206,467974,1719,3800,2403,9874,-4988,-2496,1056,941,151,146,835
745864,432556,178736,435812,468580,1072,3800,2264,8990,-5459,-2311,942,221,151,146,835
746865,433452,179472,436418,469186,520,3800,2100,8024,-5723,-2638,676,95,162,155,837
747866,434240,180296,437024,469792,1116,3800,1984,7032,-5810,-3358,763,-44,162,155,837
748867,434968,181032,437630,470398,1437,3800,1925,5811,-5761,-4014,535,-700,173,156,839
749868,435740,181884,438236,471004,1090,3800,1870,4511,-5575,-4662,279,-819,173,156,839
750869,436460,182732,438842,471610,1365,3800,1866,3167,-5274,-5313,228,-1013,151,163,837
751870,437148,183496,439448,472216,1530,3800,1875,1824,-4945,-5625,123,-1022,151,163,837
752871,437972,184420,440054,472822,584,3800,1873,466,-4568,-5814,-757,-949,134,156,836
753872,438592,185364,440660,473428,1854,3800,1804,-788,-4052,-5787,-2155,-465,134,156,836
754873,439308,186184,441266,474034,1206,3800,1643,-1933,-3316,-5780,-3001,-115,147,177,839
755874,440012,187164,441872,474640,1238,3800,1399,-2944,-2426,-6008,-2994,378,147,177,839
756875,440680,188168,442478,475246,1437,3800,1131,-3851,-1465,-6298,-2978,687,128,203,839
757876,441292,189084,443084,475852,1784,3800,907,-4765,-516,-6504,-3180,409,128,203,839
758877,441936,190116,443690,476458,1567,3800,728,-5833,403,-6869,-3225,235,145,222,839
759878,442516,191204,444296,477064,1980,3800,645,-6874,1293,-6943,-3074,305,145,222,839
760879,443100,192360,444902,477670,1964,3800,547,-7891,2166,-7066,-2952,873,127,222,839
761880,443616,193360,445508,478276,2429,3800,359,-8389,3028,-7569,-2881,3199,127,222,839
762880,444128,194308,446114,478882,2496,3800,135,-8525,3889,-8336,-3078,3790,102,210,836
763881,444556,195280,446720,479488,3099,3800,57,-8689,4710,-8752,-2718,3319,102,210,836
764883,445036,196156,447326,480094,2831,3800,8,-8751,5467,-8241,-2118,4313,97,201,833
765884,445428,197112,447932,480700,3475,3800,-73,-8839,6202,-7105,-1687,4230,97,201,833
766885,445848,198020,448538,481306,3383,3800,-166,-9411,6900,-5561,-1587,3079,104,193,832
767892,446256,198872,449166,481934,3554,3800,-234,-10326,7529,-4058,-1269,2565,104,193,832
768899,446616,199792,449772,482540,3800,3800,-211,-11491,8095,-2165,-699,1782,86,192,830
769900,446980,200760,450378,483146,3800,3800,-228,-12906,8548,186,-332,1253,86,192,830
770901,447328,201668,450984,483752,3800,3800,-236,-14385,8920,2094,-177,920,72,203,827
771902,447632,202692,451590,484358,3800,3800,-260,-15873,9252,3817,-336,826,72,203,827
772904,447948,203588,452196,484964,3800,3800,-212,-17365,9529,5661,-820,762,63,188,827
773904,448300,204468,452802,485570,3800,3800,-191,-18840,9670,7107,-954,1201,63,188,827
774905,448624,205236,453408,486176,3800,3800,-198,-20192,9636,8645,-847,1190,79,154,826
775906,448968,205972,454014,486782,3800,3800,-151,-21524,9518,9375,-1479,1340,79,154,826
776907,449344,206636,454620,487388,3800,3800,-107,-22369,9405,9115,-2701,3277,77,116,824
777908,449744,207124,455226,487994,3800,3800,-215,-22038,9327,8584,-3795,6623,77,116,824
778909,450124,207540,455832,488600,3800,3800,-452,-20868,9167,8372,-3091,8202,93,86,822
779910,450552,207836,456438,489206,3800,3800,-1067,-18409,8645,8901,175,13664,93,86,822
780912,450988,208100,457044,489812,3800,3800,-1828,-15345,7701,8606,2459,13848,90,51,821
781912,451368,208300,457650,490418,3800,3800,-2339,-13067,6788,7871,1048,11067,90,51,821
782914,451816,208400,458256,491024,3800,3800,-2504,-11468,6410,7619,-1283,10228,68,35,820
783914,452148,208448,458862,491630,3800,3800,-2545,-9860,6083,6692,557,11668,68,35,820
784915,452548,208488,459468,492236,3800,3800,-2573,-8004,5139,4553,3161,11531,86,12,816
785916,452936,208520,460074,492842,3800,3800,-2461,-6366,4059,3415,1774,10178,86,12,816
786917,453248,208508,460680,493448,3800,3800,-2086,-5286,2933,3117,3084,8482,58,5,817
787918,453608,208532,461286,494054,3800,3800,-1622,-4474,1549,2789,5838,8622,58,5,817
788920,454008,208540,461892,494660,3800,3800,-1236,-3297,20,1959,7250,10754,63,-1,817
789921,454372,208552,462498,495266,3800,3800,-581,-696,-1266,1656,6547,20060,63,-1,817
790922,454660,208588,463104,495872,3800,3800,112,2535,-1890,2467,2913,18884,59,1,817
791923,455056,208604,463710,496478,3800,3800,323,5101,-1855,3738,1419,12552,59,1,817
792924,455404,208632,464316,497084,3800,3800,40,7012,-1728,4512,3014,11427,78,5,817
793925,455768,208660,464922,497690,3800,3800,-305,7800,-1849,4364,4665,7635,78,5,817
794932,456104,208724,465550,498318,3800,3800,-347,7672,-2113,4012,3498,5023,61,6,817
795926,456524,208792,466156,498924,3800,3800,-196,7229,-2466,4078,4128,3917,61,6,817
796928,456892,208876,466762,499530,3800,3800,-32,6706,-2726,4420,3806,3945,72,29,817
797929,457276,208984,467368,500136,3800,3800,55,5957,-2890,4544,3571,2853,72,29,817
798930,457796,209128,467974,500742,3800,3800,99,4831,-2978,4471,3235,1825,75,40,818
799930,458216,209288,468580,501348,3800,3800,28,3928,-2981,4356,3001,2958,75,40,818
800932,458708,209488,469186,501954,3800,3800,-157,3395,-2907,3994,2753,3664,95,35,819
801932,459276,209708,469792,502560,3800,3800,-320,2782,-2713,3540,1815,3074,95,35,819
802934,459784,209988,470398,503166,3800,3800,-467,2247,-2481,3194,1528,3506,104,59,820
803934,460360,210244,471004,503772,3800,3800,-701,2047,-2315,2877,2242,4504,104,59,820
804936,460980,210584,471610,504378,3800,3800,-1511,2909,-2232,3002,2369,9094,109,71,821
805937,461536,210928,472216,504984,3800,3800,-2263,3760,-2150,2340,1531,5781,109,71,821
806937,462172,211296,472822,505590,3800,3800,-2634,3554,-1976,2081,378,3405,111,82,821
807938,462912,211676,473428,506196,3800,3800,-2699,3041,-1750,2476,-86,3204,111,82,821
808939,463652,212076,474034,506802,3800,3800,-2777,2315,-1572,2108,-197,2521,135,93,823
809940,464440,212560,474640,507408,3800,3800,-2762,1790,-1470,1638,-282,2372,135,93,823
810929,465340,213016,475246,508014,3617,3800,-2753,1370,-1387,1294,-1017,2631,165,106,825
811929,466236,213560,475852,508620,3516,3800,-2729,1339,-1242,1024,-1766,3561,165,106,825
812931,467132,214100,476458,509226,3390,3800,-2646,1577,-1048,588,-2124,4035,147,117,826
813932,468152,214728,477064,509832,2435,3800,-2503,1958,-934,309,-2218,4337,147,117,826
814933,469020,215348,477670,510438,3272,3800,-2355,2507,-930,-201,-2623,4848,161,112,828
815934,469832,215900,478276,511044,3533,3800,-2211,3385,-996,-993,-2626,5638,161,112,828
816935,470824,216560,478882,511650,2240,3800,-2065,4355,-1072,-1767,-3037,5562,163,133,830
817935,471652,217196,479488,512256,3169,3800,-1880,5105,-1129,-1901,-3228,4808,163,133,830
818936,472448,217976,480094,512862,3287,3800,-1625,5769,-1160,-1644,-2880,4618,165,149,831
819937,473296,218644,480700,513468,2857,3800,-1310,6368,-1101,-1456,-3123,4132,165,149,831
820939,474164,219464,481306,514074,2618,3800,-931,6697,-924,-1623,-3356,3231,174,145,830
821960,474824,220200,481934,514702,3800,3800,-461,6676,-638,-1728,-2887,2356,174,145,830
822941,475640,221064,482540,515308,2840,3800,88,6488,-330,-1341,-1957,1601,165,152,832
823942,476368,221856,483146,515914,3337,3800,618,6130,-52,-1248,-1382,1037,165,152,832
824943,477076,222824,483752,516520,3418,3800,1129,5595,215,-1380,-1222,531,157,156,831
825944,477808,223700,484358,517126,3215,3800,1592,4864,404,-1248,-1137,15,157,156,831
826945,478476,224564,484964,517732,3589,3800,2009,4252,482,-1191,-1036,173,150,179,831
827946,479128,225576,485570,518338,3669,3800,2369,3717,467,-1250,-1475,56,150,179,831
828947,479868,226424,486176,518944,3062,3800,2691,3246,391,-1204,-2318,425,143,188,830
829948,480540,227460,486782,519550,3460,3800,3000,2943,420,-882,-2931,1029,143,188,830
830949,481172,228464,487388,520156,3699,3800,3336,2856,581,-458,-3326,1070,147,205,832
831950,481892,229516,487994,520762,3100,3800,3630,2802,825,-271,-3996,1284,147,205,832
832951,482564,230508,488600,521368,3372,3800,3909,2729,1135,-79,-4122,1247,150,212,830
833952,483216,231496,489206,521974,3478,3800,4113,2682,1450,358,-3854,1437,150,212,830
834953,483944,232676,489812,522580,2950,3800,4190,2831,1704,839,-3627,1845,160,208,832
835953,484576,233708,490418,523186,3540,3800,4150,3119,1848,860,-3088,1929,160,208,832
836955,485232,234652,491024,523792,3370,3800,4026,3396,1886,969,-3190,2069,127,199,833
837956,485920,235568,491630,524398,3135,3800,3857,3765,1864,1423,-3221,2461,127,199,833
838957,486552,236488,492236,525004,3474,3800,3641,4249,1823,1738,-3199,2765,139,186,830
839958,487172,237444,492842,525610,3544,3800,3412,4769,1726,2036,-3069,2521,139,186,830
840959,487940,238312,493448,526216,2549,3800,3214,5136,1554,2133,-2337,2099,133,189,829
841960,488656,239136,494054,526822,2827,3800,3047,5349,1306,2375,-1477,1829,133,189,829
842961,489396,239960,494660,527428,2619,3800,2854,5480,965,2797,-575,1609,157,179,832
843962,490196,240820,495266,528034,2160,3800,2639,5643,530,2778,129,1463,157,179,832
844963,490952,241584,495872,528640,2370,3800,2364,5724,-23,2651,430,1136,145,171,833
845964,491696,242444,496478,529246,2385,3800,2007,5694,-751,2255,1497,563,145,171,833
846965,492548,243284,497084,529852,1603,3800,1537,5453,-1749,1585,3090,-66,177,154,834
847966,493308,244048,497690,530458,2111,3800,1007,4895,-3101,974,4441,-1087,177,154,834
848976,494116,244828,498318,531086,1733,3800,452,4124,-4631,619,4512,-1461,162,149,835
849968,494988,245616,498924,531692,1216,3800,-83,3404,-5942,501,2971,-1296,162,149,835
850969,495780,246456,499530,532298,1635,3800,-571,2756,-6885,360,2464,-1266,153,175,834
851969,496608,247288,500136,532904,1314,3800,-1054,2208,-7424,288,1506,-999,153,175,834
852970,497368,248072,500742,533510,1671,3800,-1544,1722,-7601,220,260,-730,147,177,835
853971,498252,248844,501348,534116,775,3800,-1988,1238,-7570,-190,-520,-683,147,177,835
854973,499100,249788,501954,534722,895,3800,-2345,800,-7414,-714,-1315,-157,168,163,835
855974,499824,250640,502560,535328,1618,3800,-2604,509,-7206,-1391,-1351,183,168,163,835
856975,500664,251444,503166,535934,791,3800,-2737,35,-6954,-2197,-1492,-567,153,178,838
857976,501432,252284,503772,536540,1170,3800,-2742,-529,-6576,-2897,-1627,-613,153,178,838
858977,502156,253268,504378,537146,1394,3800,-2662,-1208,-6065,-3539,-1720,-952,149,186,839
859978,502880,254388,504984,537752,1342,3800,-2519,-1977,-5406,-4122,-2280,-1080,149,186,839
860979,503480,255392,505590,538358,2121,3800,-2356,-2803,-4622,-4745,-2888,-1089,137,210,839
861980,504160,256488,506196,538964,1588,3800,-2137,-3649,-3764,-5333,-3069,-1229,137,210,839
862981,504924,257584,506802,539570,994,3800,-1918,-4526,-2924,-5705,-3232,-1047,163,225,837
863982,505596,258616,507408,540176,1541,3800,-1691,-5227,-2084,-6249,-3146,-487,163,225,837
864983,506240,259656,508014,540782,1699,3800,-1604,-5564,-1274,-6868,-3123,1287,132,214,840
865984,506860,260680,508620,541388,1843,3800,-1617,-5442,-544,-7391,-3084,2415,132,214,840
866985,507436,261748,509226,541994,2132,3800,-1640,-5301,158,-7853,-2984,2346,126,210,839
867986,507992,262684,509832,542600,2279,3800,-1573,-5253,922,-8041,-3420,2589,126,210,839
868987,508560,263648,510438,543206,2221,3800,-1496,-5282,1778,-8755,-3439,3365,130,202,836
869988,509012,264572,511044,543812,3014,3800,-1463,-5001,2729,-9812,-3276,4777,130,202,836
870989,509440,265548,511650,544418,3243,3800,-1470,-4622,3761,-10292,-3269,5039,97,203,835
871990,509904,266556,512256,545024,3081,3800,-1447,-4532,4790,-9374,-2808,4610,97,203,835
872991,510272,267516,512862,545630,3786,3800,-1410,-4936,5698,-6879,-1628,3426,105,202,831
874004,510628,268488,513468,546236,3800,3800,-1390,-5946,6456,-4102,-714,2089,105,202,831
875005,510980,269400,514074,546842,3800,3800,-1340,-7328,7119,-1590,43,1012,92,181,827
876013,511344,270264,514702,547470,3800,3800,-1434,-8904,7727,1188,265,1048,92,181,827
877008,511684,271156,515308,548076,3800,3800,-1572,-10350,8283,3442,479,968,90,160,826
878008,512032,271896,515914,548682,3800,3800,-1748,-11846,8779,5488,702,1099,90,160,826
879010,512348,272544,516520,549288,3800,3800,-2523,-12316,9428,7582,-874,5443,74,130,822
880010,512684,273040,517126,549894,3800,3800,-3809,-12356,10182,7816,-3278,5636,74,130,822
881012,513040,273476,517732,550500,3800,3800,-4715,-13016,10651,9773,-1034,5580,63,101,820
882012,513396,273876,518338,551106,3800,3800,-4229,-13741,10628,14069,1350,11032,63,101,820
883014,513736,274192,518944,551712,3800,3800,952,-4642,9597,27923,4116,32767,63,69,820
884014,514124,274396,519550,552318,3800,3800,6452,4129,8172,19646,3739,32729,63,69,820
885015,514500,274564,520156,552924,3800,3800,7881,4954,7275,10894,3391,6486,71,35,818
886016,514852,274724,520762,553530,3800,3800,6799,1929,6738,9947,3893,5959,71,35,818
887018,515248,274840,521368,554136,3800,3800,5308,-712,6195,8990,3694,5007,88,35,818
888019,515604,274952,521974,554742,3800,3800,4267,-1432,5590,7473,4251,6338,88,35,818
889020,515968,275052,522580,555348,3800,3800,3563,-1307,5093,5350,4227,5950,65,15,817
890021,516336,275120,523186,555954,3800,3800,2731,-1139,4642,4247,4142,6821,65,15,817
891022,516700,275200,523792,556560,3800,3800,1835,-1392,3975,2379,4398,5027,76,10,818
892023,517040,275272,524398,557166,3800,3800,1164,-2311,3008,73,5453,2545,76,10,818
893024,517404,275336,525004,557772,3800,3800,753,-3583,1812,-970,5869,2089,76,12,816
894025,517768,275464,525610,558378,3800,3800,353,-4419,684,-1350,4493,3594,76,12,816
895026,518136,275564,526216,558984,3800,3800,-82,-4577,-127,-1634,3311,4913,67,18,818
896026,518532,275700,526822,559590,3800,3800,-536,-4424,-871,-2599,3833,5050,67,18,818
897027,518836,275856,527428,560196,3800,3800,-993,-4169,-1510,-3621,2755,5667,73,41,817
898028,519244,276032,528034,560802,3800,3800,-1438,-3611,-1810,-4128,977,6751,73,41,817
899029,519664,276260,528640,561408,3800,3800,-1896,-2807,-1869,-4462,41,6899,70,43,819
900030,520080,276464,529246,562014,3800,3800,-2186,-2271,-1784,-4755,-376,5685,70,43,819
901031,520456,276688,529852,562620,3800,3800,-2248,-2196,-1430,-4439,-1443,4829,93,49,819
902032,520992,276924,530458,563226,3800,3800,-2267,-2156,-829,-4234,-1829,4983,93,49,819
903040,521452,277168,531086,563854,3800,3800,-2238,-2157,-155,-4502,-1517,4247,105,62,820
904035,522000,277424,531692,564460,3800,3800,-2135,-2516,443,-4554,-1070,2612,105,62,820
905035,522488,277744,532298,565066,3800,3800,-2047,-3347,958,-4159,-1036,1712,97,67,821
906037,523128,278108,532904,565672,3800,3800,-2084,-4013,1497,-3689,-958,2616,97,67,821
907037,523732,278440,533510,566278,3800,3800,-2212,-4318,2006,-3266,-686,3290,111,79,821
908038,524316,278836,534116,566884,3800,3800,-2424,-4501,2447,-2542,-509,3458,111,79,821
909040,525016,279332,534722,567490,3800,3800,-2604,-4380,2832,-1651,-116,4282,129,92,822
910040,525664,279776,535328,568096,3800,3800,-2788,-4170,3104,-471,376,4231,129,92,822
911041,526344,280276,535934,568702,3800,3800,-2955,-4179,3202,503,674,3570,141,101,823
912042,527124,280828,536540,569308,3800,3800,-3067,-4267,3219,1234,617,3218,141,101,823
913043,527848,281340,537146,569914,3800,3800,-3129,-4450,3134,2247,649,2871,144,116,825
914044,528656,281908,537752,570520,3800,3800,-3135,-4690,3006,3043,40,2419,144,116,825
915033,529536,282560,538358,571126,3381,3800,-3075,-4950,2931,3433,-444,2379,153,119,826
916034,530436,283132,538964,571732,3129,3800,-2925,-5150,2872,3967,-783,2375,153,119,826
917035,531348,283816,539570,572338,2922,3800,-2736,-5299,2786,4181,-1109,2524,171,127,825
918036,532324,284540,540176,572944,2360,3800,-2442,-5333,2656,4036,-1610,2789,171,127,825
919036,533236,285292,540782,573550,2628,3800,-2068,-5149,2420,3976,-1876,3259,169,146,829
920038,534132,286200,541388,574156,2601,3800,-1621,-4769,2087,3594,-2117,3648,169,146,829
921039,535100,287000,541994,574762,1994,3800,-1159,-4064,1696,3402,-2193,4502,176,160,833
922040,535960,287896,542600,575368,2558,3800,-649,-3286,1323,3267,-2358,4286,176,160,833
923041,536732,288696,543206,575974,3037,3800,-139,-2378,1028,3193,-2229,5171,160,177,833
924042,537592,289648,543812,576580,2376,3800,401,-1262,790,2977,-2543,5337,160,177,833
925043,538380,290632,544418,577186,2748,3800,1002,-289,551,2778,-2539,4548,168,187,834
926044,539216,291496,545024,577792,2348,3800,1656,615,361,2829,-2733,4416,168,187,834
927045,540032,292480,545630,578398,2382,3800,2317,1469,269,2622,-2692,3939,164,185,835
928046,540676,293484,546236,579004,3441,3800,2950,2205,263,2358,-2551,3517,164,185,835
929047,541380,294428,546842,579610,3024,3800,3538,2960,309,2266,-2411,3298,165,195,835
930055,542124,295532,547470,580238,2724,3800,4114,3521,395,2264,-1906,2349,165,195,835
931049,542792,296480,548076,580844,3173,3800,4657,3899,460,2197,-1547,1906,152,200,831
932050,543464,297464,548682,581450,3120,3800,5116,4368,546,2107,-1764,2251,152,200,831
933051,544184,298360,549288,582056,2770,3800,5574,5176,821,2170,-2524,2671,161,186,835
934052,544836,299364,549894,582662,3176,3800,5948,6075,1089,1951,-2424,2378,161,186,835
935053,545504,300316,550500,583268,3050,3800,6276,6805,1290,1997,-2131,1564,139,194,833
936054,546200,301312,551106,583874,2836,3800,6439,7323,1353,2195,-1552,1245,139,194,833
937055,546832,302160,551712,584480,3226,3800,6428,7779,1267,2270,-1510,876,148,183,832
938056,547468,303088,552318,585086,3189,3800,6327,8179,1153,2395,-1892,637,148,183,832
939057,548152,303876,552924,585692,2856,3800,6210,8533,1056,2761,-2241,404,145,202,833
940058,548780,304764,553530,586298,3197,3800,6078,8746,959,3191,-2161,1,145,202,833
941059,549388,305776,554136,586904,3322,3800,5900,8840,761,3440,-1427,-541,142,196,830
942060,550020,306624,554742,587510,3162,3800,5623,8752,423,3536,-835,-1126,142,196,830
943061,550568,307488,555348,588116,3712,3800,5267,8556,-54,3634,-46,-1444,129,180,831
944061,551140,308356,555954,588722,3578,3800,4757,8390,-691,3876,946,-1210,129,180,831
945076,551672,309180,556560,589328,3800,3800,4047,8327,-1587,3645,2738,-1066,112,172,831
946063,552336,310092,557166,589934,3012,3800,3156,7992,-2932,2831,4813,-2112,112,172,831
947065,552916,310976,557772,590540,3549,3800,2215,7280,-4592,2558,5340,-3049,119,157,828
948065,553536,311812,558378,591146,3294,3800,1289,6506,-6048,2854,4019,-2807,119,157,828
949067,554204,312664,558984,591752,2968,3800,414,5913,-6974,3189,3109,-2205,138,164,832
950068,554828,313504,559590,592358,3236,3800,-588,5676,-7321,3445,1594,-788,138,164,832
951069,555444,314320,560196,592964,3283,3800,-1627,5713,-7299,3306,297,-137,155,171,829
952069,556164,315388,560802,593570,2584,3800,-2550,5705,-7265,2735,470,-445,155,171,829
953071,556792,316312,561408,594176,3150,3800,-3267,5496,-7383,2149,962,-836,131,180,830
954072,557472,317224,562014,594782,2792,3800,-3781,5095,-7562,1757,935,-1335,131,180,830
955073,558256,318200,562620,595388,2065,3800,-4116,4456,-7638,1469,308,-1953,136,210,834
956074,558928,319156,563226,595994,2737,3800,-4319,3642,-7550,1197,-248,-2399,136,210,834
957084,559636,320156,563854,596622,2478,3800,-4468,2666,-7345,1034,-1239,-2876,150,228,834
958076,560408,321336,564460,597228,2006,3800,-4609,1616,-7062,598,-1701,-3030,150,228,834
959077,561164,322392,565066,597834,2040,3800,-4803,575,-6755,134,-1971,-2505,136,226,835
960078,561952,323516,565672,598440,1761,3800,-5032,-258,-6494,-354,-2288,-2065,136,226,835
961079,562780,324564,566278,599046,1415,3800,-5208,-898,-6255,-1082,-2831,-1506,142,227,838
962080,563552,325608,566884,599652,1693,3800,-5289,-1279,-6015,-1819,-3294,-673,142,227,838
963081,564300,326760,567490,600258,1780,3800,-5359,-1314,-5776,-3138,-3454,720,171,216,838
964081,565196,327800,568096,600864,729,3800,-5404,-977,-5521,-4666,-3441,1970,171,216,838
965083,565944,328804,568702,601470,1592,3800,-5445,-277,-5250,-5577,-2951,3214,145,218,839
966084,566620,329824,569308,602076,2012,3800,-5454,680,-4926,-6073,-2774,3881,145,218,839
967085,567388,330852,569914,602682,1366,3800,-5406,1620,-4507,-6503,-2659,3977,159,221,841
968085,568056,331992,570520,603288,1964,3800,-5321,2339,-4028,-6884,-2666,3909,159,221,841
969087,568748,333008,571126,603894,1777,3800,-5182,2811,-3467,-7098,-2409,3665,146,217,839
970088,569560,334084,571732,604500,937,3800,-4992,3091,-2829,-6928,-2986,3323,146,217,839
971089,570280,335096,572338,605106,1462,3800,-4759,3269,-2117,-6570,-3288,3156,143,218,838
972090,570924,336020,572944,605712,1921,3800,-4517,3030,-1397,-6227,-2678,2272,143,218,838
973091,571644,337008,573550,606318,1396,3800,-4235,2417,-704,-5785,-2355,1723,143,186,839
974092,572260,337868,574156,606924,2042,3800,-3934,1672,14,-5748,-2105,1840,143,186,839
975093,572808,338620,574762,607530,2493,3800,-3582,719,823,-6440,-2196,1488,123,146,835
976093,573384,339320,575368,608136,2331,3800,-3206,-1844,1931,-11594,-2453,-472,123,146,835
977095,573960,339924,575974,608742,2345,3800,-2875,-6409,3210,-12944,-3326,-1036,138,138,834
978096,574452,340504,576580,609348,2921,3800,-2742,-11168,4444,-12651,-4309,953,138,138,834
979097,574932,340992,577186,609954,3051,3800,-2635,-13863,5545,-9591,-3427,4215,112,110,830
980097,575388,341400,577792,610560,3268,3800,-2531,-14108,6527,-7140,-2635,7260,112,110,830
981099,575804,341780,578398,611166,3601,3800,-2493,-13113,7271,-4488,-1513,8365,96,75,827
982112,576196,342116,579004,611772,3800,3800,-2348,-12392,7822,-3402,223,8639,96,75,827
983113,576576,342424,579610,612378,3800,3800,-160,-11354,8007,2588,1453,32767,92,54,823
984121,576944,342716,580238,613006,3800,3800,5128,-7391,7497,10546,2388,32767,92,54,823
985115,577316,342932,580844,613612,3800,3800,8804,-3820,7206,6356,2249,32767,69,60,819
986116,577648,343236,581450,614218,3800,3800,9135,-2593,7387,5537,1169,17730,69,60,819
987117,577988,343520,582056,614824,3800,3800,7776,-2129,7615,6725,1521,17910,70,70,820
988118,578332,343772,582662,615430,3800,3800,5796,-431,7802,7071,845,20870,70,70,820
989120,578624,344020,583268,616036,3800,3800,3986,880,7918,7534,-29,15246,60,61,819
990120,578924,344296,583874,616642,3800,3800,2684,1222,8036,7572,681,11236,60,61,819
991121,579196,344572,584480,617248,3800,3800,1802,135,7975,6754,2267,5685,51,48,819
992122,579500,344852,585086,617854,3800,3800,1056,-1978,7773,6304,2253,1688,51,48,819
993123,579788,345116,585692,618460,3800,3800,366,-4576,7559,6217,2287,-1125,53,51,818
994124,580032,345396,586298,619066,3800,3800,-313,-7116,7575,6446,887,-912,53,51,818
995126,580352,345708,586904,619672,3800,3800,-899,-9321,7615,6044,770,-701,45,68,818
996126,580648,346016,587510,620278,3800,3800,-1343,-10841,7511,4463,-236,1191,45,68,818
997127,580948,346324,588116,620884,3800,3800,-1591,-12206,7430,3759,-1521,885,55,56,818
998129,581332,346632,588722,621490,3800,3800,-1628,-13588,7261,3261,-1074,1035,55,56,818
999129,581704,346904,589328,622096,3800,3800,-1547,-14484,6918,2276,-72,2548,67,69,820
1000130,582144,347336,589934,622702,3800,3800,-1420,-14830,6358,260,-323,3855,67,69,820
1001131,582604,347748,590540,623308,3800,3800,-1385,-14731,5470,-1570,262,5236,78,91,820
1002133,583032,348132,591146,623914,3800,3800,-1536,-13531,4461,-2143,263,8556,78,91,820
1003133,583524,348608,591752,624520,3800,3800,-1693,-11338,3606,-2005,-475,10269,92,85,821
1004134,584028,349116,592358,625126,3800,3800,-1626,-9040,2855,-3354,-500,9931,92,85,821
1005136,584496,349668,592964,625732,3800,3800,-1330,-7287,2015,-4937,1094,9125,99,116,823
1006137,585012,350284,593570,626338,3800,3800,-938,-5561,1154,-5251,985,8763,99,116,823
1007137,585592,350900,594176,626944,3800,3800,-519,-3617,583,-4729,-471,8528,97,106,822
1008138,586076,351572,594782,627550,3800,3800,-156,-1856,255,-4411,-163,8204,97,106,822
1009139,586684,352244,595388,628156,3800,3800,211,-143,174,-3311,-1109,8270,105,127,824
1010140,587328,353004,595994,628762,3800,3800,696,1041,242,-2496,-1511,5884,105,127,824
1011148,587992,353776,596622,629390,3800,3800,1325,1696,393,-1971,-1595,3958,116,148,825
1012142,588624,354540,597228,629996,3800,3800,1895,1583,475,-1303,-1063,1750,116,148,825
1013143,589404,355376,597834,630602,3800,3800,2391,1002,613,-305,-1285,750,132,145,827
1014144,590120,356180,598440,631208,3800,3800,2667,641,891,1341,-1452,1245,132,145,827
1015145,590880,357076,599046,631814,3800,3800,2893,367,1274,2268,-1495,301,171,160,828
1016134,591744,357956,599652,632420,3181,3800,3162,-403,1622,2139,-1366,-809,171,160,828
1017135,592544,358876,600258,633026,3496,3800,3493,-1332,1917,2231,-1421,-794,167,180,828
1018136,593392,359820,600864,633632,3092,3800,3961,-2306,2561,2696,-1718,22,167,180,828
1019137,594380,360804,601470,634238,2050,3800,4099,-2381,2983,2962,-2166,966,176,191,831
1020138,595308,361804,602076,634844,2286,3800,4224,-2065,3440,2977,-2568,1902,176,191,831
1021139,596160,362812,602682,635450,2654,3800,4414,-1672,3836,2690,-2984,1504,185,185,832
1022140,597180,363716,603288,636056,1423,3800,4698,-1287,4123,2446,-3534,1538,185,185,832
1023141,598072,364644,603894,636662,2098,3800,4968,-742,4299,2181,-3607,2183,165,192,835
1024142,598920,365524,604500,637268,2269,3800,5137,150,4343,2535,-3690,2745,165,192,835
1025143,599900,366412,605106,637874,1280,3800,5250,1034,4275,3281,-3408,2170,191,166,837
1026144,600724,367356,605712,638480,2160,3800,5298,1956,4123,3978,-2740,2668,191,166,837
1027145,601524,368180,606318,639086,2226,3800,5285,3149,3891,4332,-2670,3153,164,181,835
1028146,602332,369064,606924,639692,2087,3800,5297,4262,3689,4036,-2859,2501,164,181,835
1029147,603092,369828,607530,640298,2321,3800,5338,5208,3531,4208,-2525,2415,162,175,835
1030147,603824,370692,608136,640904,2441,3800,5339,6098,3331,4744,-1789,1962,162,175,835
1031149,604648,371564,608742,641510,1772,3800,5305,7015,3110,5059,-1033,1717,148,175,835
1032149,605384,372476,609348,642116,2265,3800,5242,7706,2919,4853,-902,794,148,175,835
1033150,605944,373260,609954,642722,3387,3800,5181,8074,2743,4573,-576,65,146,184,834
1034151,606676,374132,610560,643328,2256,3800,5000,8236,2457,4444,654,-410,146,184,834
1035153,607328,374928,611166,643934,2737,3800,4715,8350,1981,4337,1979,-936,146,159,834
1036153,607964,375764,611772,644540,2825,3800,4410,8349,1373,3957,2882,-1433,146,159,834
1037155,608580,376572,612378,645146,2946,3800,4026,8184,691,3308,3681,-1611,137,149,834
1038162,609240,377360,613006,645774,2657,3800,3416,8005,-202,2665,5747,-2126,137,149,834
1039157,609828,378204,613612,646380,3116,3800,2647,7520,-1352,1985,6947,-3135,148,154,831
1040157,610400,378988,614218,646986,3232,3800,1877,7094,-2598,1412,7336,-2972,148,154,831
1041159,611024,379740,614824,647592,2899,3800,1024,6634,-3703,1194,7002,-2820,132,148,831
1042159,611540,380752,615430,648198,3615,3800,156,6317,-4496,1661,5659,-2311,132,148,831
1043173,612028,381596,616036,648804,3800,3800,-717,6070,-4944,2363,4276,-1948,128,159,829
1044161,612564,382492,616642,649410,3575,3800,-1475,5804,-5001,2734,2776,-2037,128,159,829
1045175,613052,383400,617248,650016,3800,3800,-2136,5449,-4737,2627,2265,-1977,113,193,828
1046176,613504,384216,617854,650622,3800,3800,-2681,4709,-4524,2408,3675,-3276,113,193,828
1047177,613968,385364,618460,651228,3800,3800,-3146,3577,-4378,2535,3873,-4002,91,210,828
1048178,614392,386316,619066,651834,3800,3800,-3437,2256,-4167,2663,3504,-4404,91,210,828
1049179,614800,387380,619672,652440,3800,3800,-3627,754,-3881,2462,3230,-4709,87,225,828
1050180,615236,388440,620278,653046,3800,3800,-3766,-760,-3484,2161,3233,-4329,87,225,828
1051181,615628,389472,620884,653652,3800,3800,-3958,-1997,-3011,2087,3242,-3533,81,216,826
1052182,616028,390404,621490,654258,3800,3800,-4207,-2822,-2483,1860,3018,-2517,81,216,826
1053184,616496,391432,622096,654864,3800,3800,-4560,-3314,-1941,1213,2885,-1413,88,205,827
1054184,616916,392320,622702,655470,3800,3800,-5011,-3432,-1449,815,2848,-51,88,205,827
1055186,617368,393236,623308,656076,3800,3800,-5640,-2934,-1027,818,3096,2280,87,193,827
1056186,617856,394152,623914,656682,3800,3800,-6577,-1366,-726,1134,3032,6333,87,193,827
1057187,618340,395052,624520,657288,3800,3800,-7623,780,-596,867,2819,7074,93,191,827
1058188,618856,396044,625126,657894,3800,3800,-8474,2616,-630,313,2887,6027,93,191,827
1059190,619440,397000,625732,658500,3800,3800,-9050,3861,-878,233,2569,5007,109,199,828
1060190,620028,397840,626338,659106,3800,3800,-9493,4913,-1222,339,1410,5553,109,199,828
1061192,620604,398708,626944,659712,3800,3800,-10070,6303,-1584,682,366,6704,115,200,826
1062180,621328,399576,627550,660318,3360,3800,-10704,7743,-1817,933,-1660,6619,115,200,826
1063181,621988,400408,628156,660924,3737,3800,-11088,8721,-1964,988,-1858,4763,131,169,827
1064182,622684,401100,628762,661530,3473,3800,-11167,8998,-2281,734,-513,3255,131,169,827
1065192,623516,401668,629390,662158,2536,3800,-11123,8698,-2815,850,390,2333,157,143,829
1066184,624300,402272,629996,662764,2759,3800,-10932,8072,-3480,554,596,1572,157,143,829
1067185,625084,402776,630602,663370,2681,3800,-10573,7403,-4169,-428,-297,1767,145,125,827
1068186,625892,403232,631208,663976,2444,3800,-10120,6665,-4851,-1252,-902,1883,145,125,827
1069187,626700,403660,631814,664582,2356,3800,-9620,5973,-5470,-1876,-1582,2412,163,79,829
1070188,627560,403984,632420,665188,1920,3800,-9042,5212,-5999,-2613,-2277,2318,163,79,829
1071189,628468,404232,633026,665794,1489,3800,-5505,4460,-5815,-8664,-8675,23696,155,62,829
1072190,629232,404504,633632,666400,2320,3800,7242,3248,-3449,-25484,-26011,32767,155,62,829
1073191,630104,404776,634238,667006,1529,3800,16378,3481,-1596,-9602,-10918,32767,168,56,829
1074191,631012,405060,634844,667612,1171,3800,16902,3981,-1278,-3917,-2794,5615,168,56,829
1075192,631876,405304,635450,668218,1334,3800,14041,3184,-1607,-6073,-2848,2769,179,62,829
1076193,632640,405548,636056,668824,1891,3800,11998,906,-1725,-9296,-1807,1351,179,62,829
1077195,633556,405796,636662,669430,804,3800,11462,-2668,-1430,-12165,-1195,-988,144,60,832
1078196,634260,406076,637268,670036,2087,3800,11274,-6365,-1049,-11277,-2425,-996,144,60,832
1079196,634972,406404,637874,670642,1992,3800,10617,-8152,-756,-7609,-3788,2790,141,68,830
1080197,635736,406708,638480,671248,1597,3800,8640,-6833,199,-4562,-5621,9390,141,68,830
1081198,636500,407028,639086,671854,1529,3800,6022,-4569,1610,-4165,-5027,8466,152,79,830
1082199,637204,407416,639692,672460,1861,3800,4291,-3685,2204,-5568,-1862,2705,152,79,830
1083200,637852,407828,640298,673066,2193,3800,3745,-5434,1926,-6552,315,-2326,150,83,830
1084202,638504,408240,640904,673672,2148,3800,3395,-7209,1452,-5405,776,125,150,83,830
1085203,639080,408708,641510,674278,2636,3800,2725,-8366,1365,-4969,641,-79,129,93,829
1086204,639652,409196,642116,674884,2677,3800,1968,-9458,1822,-5197,-321,-716,129,93,829
1087205,640204,409700,642722,675490,2826,3800,1289,-10342,2618,-4882,-1255,208,112,106,831
1088206,640732,410244,643328,676096,3011,3800,760,-11071,3638,-4423,-1570,921,112,106,831
1089207,641200,410816,643934,676702,3447,3800,262,-11310,4811,-3644,-2035,2084,108,112,829
1090207,641680,411456,644540,677308,3428,3800,-164,-11878,6042,-3171,-2075,813,108,112,829
1091221,642092,412044,645146,677914,3800,3800,-537,-12587,7252,-2063,-1875,847,85,107,828
1092229,642516,412580,645774,678542,3800,3800,-877,-13388,8328,-553,-1745,123,85,107,828
1093223,642960,413244,646380,679148,3800,3800,-1103,-14544,9194,477,-1604,-791,101,118,824
1094224,643336,413788,646986,679754,3800,3800,-1212,-15829,9885,1569,-1631,-962,101,118,824
1095225,643740,414556,647592,680360,3800,3800,-1182,-17073,10477,2603,-1690,-1092,98,124,822
1096226,644148,415172,648198,680966,3800,3800,-1129,-18057,11026,3283,-1999,-199,98,124,822
1097227,644528,415932,648804,681572,3800,3800,-1050,-18553,11565,3698,-2390,919,79,148,823
1098228,644888,416616,649410,682178,3800,3800,-924,-18707,12025,4093,-2928,1630,79,148,823
1099229,645316,417424,650016,682784,3800,3800,-675,-18432,12396,4295,-3566,2394,100,139,823
1100230,645736,418188,650622,683390,3800,3800,-301,-17796,12667,4157,-3730,3075,100,139,823
1101232,646160,419028,651228,683996,3800,3800,125,-17031,12707,3631,-3738,3336,89,142,824
1102232,646712,419836,651834,684602,3800,3800,508,-15670,12536,2904,-3399,5274,89,142,824
1103233,647180,420652,652440,685208,3800,3800,962,-13804,12220,2038,-3143,5743,97,151,825
1104234,647736,421504,653046,685814,3800,3800,1502,-12001,11666,1667,-2847,5208,97,151,825
1105223,648332,422324,653652,686420,3796,3800,2089,-10081,10943,1377,-2587,5660,101,175,825
1106236,648872,423324,654258,687026,3800,3800,2717,-7892,10268,897,-2875,6264,101,175,825
1107224,649496,424224,654864,687632,3644,3800,3323,-5546,9650,622,-2931,6270,110,190,826
1108238,650080,425148,655470,688238,3800,3800,3906,-3156,9139,136,-3042,6413,110,190,826
1109227,650716,426260,656076,688844,3568,3800,4577,-930,8614,-6,-2366,5116,118,177,827
1110240,651304,427248,656682,689450,3800,3800,5176,1252,7984,749,-1812,5905,118,177,827
1111228,652012,428292,657288,690056,3083,3800,5411,4290,7870,2924,-3002,9334,121,183,828
1112230,652676,429252,657894,690662,3334,3800,5582,7364,7929,4118,-1943,7538,121,183,828
1113230,653404,430160,658500,691268,2881,3800,5999,9093,7638,4973,-993,3576,132,189,829
1114231,654168,431032,659106,691874,2588,3800,6465,9709,6846,6708,1076,1481,132,189,829
1115232,654956,431904,659712,692480,2359,3800,6704,9840,5705,7925,1874,-218,142,170,831
1116234,655672,432812,660318,693086,2761,3800,6728,9309,4455,7551,1486,-2219,142,170,831
1117235,656504,433504,660924,693692,1938,3800,6570,8501,3222,7312,990,-2018,161,150,832
1118236,657236,434216,661530,694298,2509,3800,6258,7704,2219,7817,206,-1609,161,150,832
1119244,657968,434840,662158,694926,2463,3800,5938,6953,1385,8503,435,-2323,153,143,831
1120238,658728,435488,662764,695532,2221,3800,5691,6026,519,9164,1720,-3486,153,143,831
1121239,659516,436160,663370,696138,1967,3800,5474,4861,-372,9778,2560,-3836,150,132,832
1122240,660292,436868,663976,696744,1968,3800,5020,4047,-1134,10293,1979,-2069,150,132,832
1123241,661104,437492,664582,697350,1653,3800,4414,3721,-1755,9948,1977,-1476,141,128,833
1124242,661868,438104,665188,697956,1884,3800,3840,3132,-2486,9306,3393,-2798,141,128,833
1125243,662600,438720,665794,698562,2030,3800,3183,2363,-3574,8928,5184,-2318,147,131,833
1126244,663484,439372,666400,699168,958,3800,2291,2055,-4805,8505,5747,-1117,147,131,833
1127245,664092,440060,667006,699774,2683,3800,1365,1729,-6003,7602,6025,-2237,149,132,832
1128246,664848,440744,667612,700380,1692,3800,508,1373,-7077,6694,5629,-1856,149,132,832
1129247,665604,441400,668218,700986,1627,3800,-378,1492,-7912,5450,5004,-167,140,128,835
1130248,666268,442076,668824,701592,2177,3800,-1307,2200,-8518,3963,4727,342,140,128,835
1131249,666932,442740,669430,702198,2152,3800,-2077,2835,-8965,2303,4305,-506,128,147,834
1132250,667572,443528,670036,702804,2287,3800,-2725,3434,-9190,1397,3644,225,128,147,834
1133251,668220,444320,670642,703410,2220,3800,-3381,4475,-9144,1422,3262,1502,136,140,832
1134252,668848,444892,671248,704016,2335,3800,-4050,5791,-8877,1028,3206,1538,136,140,832
1135253,669388,445600,671854,704622,2915,3800,-4558,6761,-8448,-52,2673,456,132,132,833
1136254,670004,446460,672460,705228,2436,3800,-4906,7285,-7877,-480,2198,-249,132,132,833
1137255,670604,447264,673066,705834,2539,3800,-5186,7515,-7217,-334,2225,-1009,117,154,832
1138256,671068,448120,673672,706440,3452,3800,-5466,7556,-6493,-265,1971,-1739,117,154,832
1139257,671504,448984,674278,707046,3703,3800,-5737,7177,-5733,-535,1040,-2694,114,190,832
1140270,671936,449740,674884,707652,3800,3800,-5997,6373,-4962,-547,105,-3484,114,190,832
1141259,672420,450764,675490,708258,3534,3800,-6245,5223,-4124,-315,-507,-4095,99,194,828
1142273,672860,451772,676096,708864,3800,3800,-6525,3892,-3182,-28,-1856,-4498,99,194,828
1143274,673312,452804,676702,709470,3800,3800,-6845,2416,-2177,-264,-3301,-4325,93,203,828
1144274,673696,453816,677308,710076,3800,3800,-7131,1107,-1065,-464,-4877,-3473,93,203,828
1145276,674124,454780,677914,710682,3800,3800,-7417,77,82,-358,-5730,-2729,91,201,827
1146283,674540,455624,678542,711310,3800,3800,-7680,-899,1166,-230,-5676,-2472,91,201,827
1147277,674912,456492,679148,711916,3800,3800,-7896,-1835,2136,-229,-5536,-1754,84,182,826
1148278,675312,457448,679754,712522,3800,3800,-8151,-2554,2956,-225,-5290,-607,84,182,826
1149280,675676,458276,680360,713128,3800,3800,-8568,-2485,3569,-344,-4132,2769,78,170,825
1150281,676052,459100,680966,713734,3800,3800,-9047,-1721,3971,-359,-2691,4163,78,170,825
1151282,676492,459964,681572,714340,3800,3800,-9360,-1027,4175,-344,-1161,3428,86,179,825
1152282,676864,460860,682178,714946,3800,3800,-9412,-552,4280,-332,-67,3837,86,179,825
1153284,677236,461748,682784,715552,3800,3800,-9490,366,4318,-133,658,6483,82,195,826
1154285,677660,462732,683390,716158,3800,3800,-9675,1863,4440,236,151,8252,82,195,826
1155286,678068,463568,683996,716764,3800,3800,-9816,3752,4622,596,305,9504,85,196,826
1156286,678488,464396,684602,717370,3800,3800,-9966,5893,4563,711,1310,10829,85,196,826
1157288,678960,465188,685208,717976,3800,3800,-10133,8109,4276,740,1821,11301,102,173,826
1158289,679408,465888,685814,718582,3800,3800,-10255,10072,3791,920,2769,10905,102,173,826
1159290,679844,466548,686420,719188,3800,3800,-6678,17963,3129,5019,4514,32767,102,146,823
1160291,680380,467072,687026,719794,3800,3800,630,32297,2299,8055,4975,32767,102,146,823
1161292,680856,467532,687632,720400,3800,3800,4314,32297,1230,5054,4214,4289,90,116,823
1162293,681360,467896,688238,721006,3800,3800,3877,32297,-144,4620,6246,-1605,90,116,823
1163293,681908,468180,688844,721612,3800,3800,2666,31123,-1846,4336,5983,-3949,107,83,822
1164294,682392,468380,689450,722218,3800,3800,2096,26788,-3642,3742,4513,-5059,107,83,822
1165295,682908,468472,690056,722824,3800,3800,2857,22909,-5102,600,2127,-2701,110,29,820
1166297,683472,468524,690662,723430,3800,3800,7059,15892,-5234,-9125,-6554,23656,110,29,820
1167298,684000,468524,691268,724036,3800,3800,9702,10238,-4901,-5328,-4583,7202,110,11,818
1168298,684580,468512,691874,724642,3800,3800,9105,5866,-4525,-10869,-2112,-1975,110,11,818
1169299,685204,468516,692480,725248,3800,3800,6637,1446,-3598,-13200,-4900,900,113,15,816
1170300,685792,468524,693086,725854,3800,3800,3522,-1631,-2238,-12973,-5780,4901,113,15,816
1171301,686384,468528,693692,726460,3800,3800,312,-3186,-1477,-11803,-3026,7133,103,15,814
1172302,687096,468532,694298,727066,3800,3800,-1593,-4927,-1720,-10234,-1200,1404,103,15,814
1173313,687776,468520,694926,727694,3800,3800,-2134,-8401,-2405,-8630,-969,-3366,134,3,815
1174305,688448,468524,695532,728300,3800,3800,-1846,-12427,-2986,-7467,-302,-4094,134,3,815
1175293,689264,468560,696138,728906,3168,3800,-1679,-16039,-3262,-6770,-154,-2676,150,19,817
1176294,690020,468572,696744,729512,3478,3800,-1704,-18489,-3147,-6071,-1230,-575,150,19,817
1177295,690792,468588,697350,730118,3306,3800,-1840,-19788,-2640,-5329,-2359,2049,140,21,819
1178296,691624,468608,697956,730724,2834,3800,-1958,-19935,-1847,-4567,-3296,4358,140,21,819
1179297,692484,468628,698562,731330,2548,3800,-2297,-19103,-865,-3788,-3621,6843,155,21,821
1180298,693336,468680,699168,731936,2491,3800,-2789,-17535,195,-3687,-3544,8531,155,21,821
1181299,694288,468744,699774,732542,1715,3800,-3402,-15543,1146,-4262,-2685,10533,144,16,824
1182300,695152,468832,700380,733148,2153,3800,-3765,-13836,1889,-4984,-2541,9000,144,16,824
1183301,696064,468988,700986,733754,1719,3800,-3723,-12913,2439,-5285,-2185,6609,170,24,825
1184302,696868,469132,701592,734360,2308,3800,-3430,-12411,2793,-5359,-1671,5902,170,24,825
1185303,697828,469360,702198,734966,1179,3800,-3111,-11951,2967,-5387,-1303,6045,174,51,828
1186304,698676,469604,702804,735572,1774,3800,-2758,-11564,3060,-5114,-1083,5322,174,51,828
1187305,699532,469872,703410,736178,1614,3800,-2233,-11227,3135,-4498,-837,4688,181,68,825
1188306,700388,470204,704016,736784,1505,3800,-1543,-10999,3216,-4054,-959,4098,181,68,825
1189307,701236,470596,704622,737390,1449,3800,-721,-10835,3266,-4210,-868,4115,173,81,830
1190308,701964,470996,705228,737996,2147,3800,121,-10698,3358,-4075,-1420,4235,173,81,830
1191309,702796,471476,705834,738602,1398,3800,976,-10354,3551,-4104,-2000,4533,153,91,832
1192310,703496,471976,706440,739208,2182,3800,1755,-9694,3907,-4308,-2336,5359,153,91,832
1193311,704152,472496,707046,739814,2435,3800,2486,-9076,4384,-4447,-2590,5237,139,112,830
1194312,704836,473080,707652,740420,2227,3800,3202,-8586,4878,-4357,-2618,4878,139,112,830
1195313,705456,473668,708258,741026,2621,3800,3977,-8360,5321,-3690,-2157,3825,131,126,831
1196314,706012,474300,708864,741632,3044,3800,4805,-8678,5669,-2802,-1890,2143,131,126,831
1197315,706576,474940,709470,742238,3012,3800,5723,-9389,6022,-1867,-2001,1286,111,124,831
1198316,707032,475604,710076,742844,3754,3800,6551,-10172,6381,-484,-1888,1079,111,124,831
1199330,707484,476300,710682,743450,3800,3800,7312,-10840,6677,674,-1826,535,98,126,828
1200325,707968,477032,711310,744078,3711,3800,7933,-11544,6926,1646,-1780,136,98,126,828
1201332,708384,477824,711916,744684,3800,3800,8519,-12343,7133,2449,-1939,-427,84,145,825
1202333,708848,478508,712522,745290,3800,3800,8938,-13118,7332,2856,-2603,1,84,145,825
1203334,709308,479228,713128,745896,3800,3800,9250,-13574,7535,3363,-3226,332,97,138,824
1204334,709756,480024,713734,746502,3800,3800,9391,-13794,7637,3185,-3475,1000,97,138,824
1205336,710228,480748,714340,747108,3800,3800,9497,-13699,7666,2755,-3569,1307,89,143,823
1206337,710716,481684,714946,747714,3800,3800,9570,-13353,7753,2791,-4010,1829,89,143,823
1207338,711180,482528,715552,748320,3800,3800,9516,-12398,7895,2763,-3751,3303,100,165,825
1208338,711680,483380,716158,748926,3800,3800,9359,-11076,8020,2368,-2721,3564,100,165,825
1209327,712268,484312,716764,749532,3575,3800,9212,-9920,8013,2401,-1831,2558,95,160,825
1210340,712776,485128,717370,750138,3800,3800,9015,-8622,7934,1941,-2039,3350,95,160,825
1211341,713332,486144,717976,750744,3800,3800,8760,-7092,7894,1310,-2084,3493,106,184,826
1212330,713948,487132,718582,751350,3464,3800,8456,-5555,7702,1314,-1433,3162,106,184,826
1213343,714500,488036,719188,751956,3800,3800,8114,-3858,7542,901,-2688,3642,105,190,826
1214331,715104,489116,719794,752562,3565,3800,7810,-2130,7457,725,-3350,3226,105,190,826
1215333,715684,490120,720400,753168,3727,3800,7486,-364,7242,758,-2975,3594,110,211,828
1216334,716356,491204,721006,753774,3124,3800,7095,1614,7161,1585,-3610,4333,110,211,828
1217348,716912,492260,721612,754380,3800,3800,6582,3677,7196,3614,-3727,4592,120,218,828
1218336,717624,493312,722218,754986,2851,3800,5721,6290,7530,6474,-3386,6964,120,218,828
1219337,718292,494416,722824,755592,3100,3800,4906,8746,7816,7277,-2109,4633,138,215,832
1220338,718984,495340,723430,756198,2913,3800,4395,9976,7573,7188,-269,789,138,215,832
1221339,719744,496296,724036,756804,2422,3800,4080,9721,6767,7121,1340,-2726,149,217,833
1222340,720480,497304,724642,757410,2515,3800,3936,8303,5676,7594,1456,-5345,149,217,833
1223341,721196,498200,725248,758016,2592,3800,3752,6794,4486,8731,2677,-5194,155,172,832
1224342,721992,499032,725854,758622,2010,3800,3239,6010,3517,9916,2456,-3140,155,172,832
1225343,722696,499836,726460,759228,2543,3800,2545,5488,2897,10699,1213,-3303,137,165,832
1226344,723360,500552,727066,759834,2767,3800,2140,4374,2307,10049,1245,-5605,137,165,832
1227352,724140,501332,727694,760462,1976,3800,2027,2802,1656,9555,1146,-6068,140,163,834
1228346,724844,502220,728300,761068,2409,3800,2046,1220,896,9312,1553,-6275,140,163,834
1229347,725636,502968,728906,761674,1778,3800,1990,168,118,8819,2281,-4762,139,151,832
1230347,726428,503680,729512,762280,1697,3800,1675,283,-615,8266,2744,-1939,139,151,832
1231349,727096,504380,730118,762886,2446,3800,1330,690,-1422,7293,3342,-2778,136,154,833
1232350,727868,505132,730724,763492,1723,3800,1089,995,-2420,6647,4872,-2904,136,154,833
1233351,728656,505928,731330,764098,1544,3800,852,1379,-3633,5902,6078,-2455,135,135,834
1234352,729392,506656,731936,764704,1811,3800,526,2089,-4923,4956,6574,-1702,135,135,834
1235353,730052,507304,732542,765310,2264,3800,11,3208,-6107,4378,7569,-496,138,148,834
1236353,730756,508044,733148,765916,1946,3800,-772,4818,-7087,4602,8093,842,138,148,834
1237355,731412,508728,733754,766522,2225,3800,-1680,6317,-8017,4318,8453,-379,132,147,832
1238356,732024,509596,734360,767128,2497,3800,-2574,7221,-9062,3588,8169,-2061,132,147,832
1239357,732660,510272,734966,767734,2335,3800,-3264,7439,-9916,3112,6330,-3174,138,162,832
1240358,733280,510932,735572,768340,2429,3800,-3751,7260,-10404,2877,5463,-3851,138,162,832
1241359,733780,511700,736178,768946,3225,3800,-4142,6890,-10526,3302,4248,-4098,108,143,831
1242360,734384,512488,736784,769552,2577,3800,-4482,6477,-10317,3780,3472,-4199,108,143,831
1243361,734932,513372,737390,770158,2953,3800,-4810,5726,-9874,3763,3483,-4821,122,153,832
1244362,735440,514060,737996,770764,3247,3800,-5050,4737,-9230,3545,2873,-4976,122,153,832
1245363,735960,514944,738602,771370,3210,3800,-5353,3806,-8536,3389,2139,-4741,114,176,831
1246364,736488,515884,739208,771976,3195,3800,-5771,2741,-7751,3060,750,-5083,114,176,831
1247378,736800,516904,739814,772582,3800,3800,-6957,2554,-6399,3649,-3292,-516,113,193,828
1248366,737264,517896,740420,773188,3787,3800,-8733,2898,-4682,3441,-4842,-325,113,193,828
1249380,737712,518952,741026,773794,3800,3800,-10013,2226,-3281,2272,-4159,-4274,92,211,830
1250381,738152,519996,741632,774400,3800,3800,-10416,325,-2382,1432,-3342,-6509,92,211,830
1251382,738580,520888,742238,775006,3800,3800,-10466,-2005,-1732,641,-3732,-6463,112,190,827
1252382,739020,521848,742844,775612,3800,3800,-10590,-3753,-1049,155,-4165,-4620,112,190,827
1253383,739440,522772,743450,776218,3800,3800,-10773,-4722,-255,-462,-4436,-3228,86,210,827
1254391,739848,523724,744078,776846,3800,3800,-11321,-4727,416,-353,-3710,879,86,210,827
1255385,740284,524600,744684,777452,3800,3800,-12368,-3323,908,193,-2345,5223,92,203,826
1256387,740656,525524,745290,778058,3800,3800,-13379,-1747,1327,86,-2830,4741,92,203,826
1257387,741060,526392,745896,778664,3800,3800,-13877,-508,1812,-375,-4752,4622,93,190,825
1258388,741504,527292,746502,779270,3800,3800,-14020,633,2444,-692,-5181,5975,93,190,825
1259389,741908,528268,747108,779876,3800,3800,-13938,1786,3080,-665,-4735,5929,106,184,826
1260390,742328,529068,747714,780482,3800,3800,-13759,2974,3566,-642,-4284,6487,106,184,826
1261392,742772,529880,748320,781088,3800,3800,-13642,4440,3914,-508,-3977,7856,80,181,825
1262393,743160,530676,748926,781694,3800,3800,-13598,6104,4146,-137,-3691,8765,80,181,825
1263393,743588,531304,749532,782300,3800,3800,-13482,7873,4283,-198,-2980,9568,82,144,825
1264394,744076,531916,750138,782906,3800,3800,-13201,9456,4248,-944,-1549,9618,82,144,825
1265396,744512,532452,750744,783512,3800,3800,-9327,15868,4229,1910,-664,32767,89,120,824
1266396,744972,532892,751350,784118,3800,3800,935,32297,4137,7798,-671,32767,89,120,824
1267397,745440,533260,751956,784724,3800,3800,7525,32297,3853,6471,-356,10185,104,81,821
1268398,745912,533540,752562,785330,3800,3800,8213,32297,2950,5606,4301,-2976,104,81,821
1269400,746360,533728,753168,785936,3800,3800,6344,32297,1229,4649,7745,-6218,104,55,820
1270401,746836,533880,753774,786542,3800,3800,5577,32297,-890,3352,7246,-7827,104,55,820
1271401,747308,533940,754380,787148,3800,3800,5411,28756,-2733,2291,6171,-5115,79,31,818
1272403,747752,533964,754986,787754,3800,3800,5518,24118,-3644,-7413,3192,-5542,79,31,818
1273404,748240,533980,755592,788360,3800,3800,7660,14298,-2851,-25597,-4062,9160,80,3,817
1274404,748744,533988,756198,788966,3800,3800,9258,2966,-1716,-21398,-3221,-206,80,3,817
1275405,749204,533976,756804,789572,3800,3800,8093,-3594,-1366,-12982,-3497,1462,86,6,817
1276406,749776,533984,757410,790178,3800,3800,4419,-4237,-1279,-8218,-6938,10271,86,6,817
1277408,750296,533984,758016,790784,3800,3800,17,-2241,-1454,-5937,-4611,11610,100,3,818
1278408,750860,533972,758622,791390,3800,3800,-3088,-2378,-2139,-6866,-778,5174,100,3,818
1279409,751496,533992,759228,791996,3800,3800,-3657,-6238,-3038,-7597,171,-4240,97,9,818
1280411,752076,534000,759834,792602,3800,3800,-2923,-12117,-3842,-7070,1135,-6466,97,9,818
1281421,752708,534012,760462,793230,3800,3800,-2316,-17064,-4322,-5832,485,-4582,128,11,817
1282413,753408,534020,761068,793836,3800,3800,-2301,-20285,-4227,-4475,-1317,-1675,128,11,817
1283414,754084,534068,761674,794442,3800,3800,-2483,-21841,-3551,-3410,-3485,1322,119,18,818
1284415,754812,534080,762280,795048,3800,3800,-2712,-22261,-2513,-2245,-4436,3737,119,18,818
1285403,755608,534140,762886,795654,3567,3800,-3095,-21714,-1351,-1505,-4039,6306,147,24,819
1286404,756392,534192,763492,796260,3565,3800,-3661,-20470,-177,-1435,-3979,7839,147,24,819
1287405,757188,534268,764098,796866,3407,3800,-4274,-18735,827,-2102,-2915,10161,138,13,820
1288406,758096,534376,764704,797472,2576,3800,-4717,-16978,1596,-2928,-2380,9972,138,13,820
1289407,759008,534500,765310,798078,2418,3800,-4836,-15619,2102,-3364,-1680,8523,173,24,821
1290408,759860,534668,765916,798684,2686,3800,-4699,-14621,2445,-3843,-1755,7685,173,24,821
1291409,760760,534868,766522,799290,2258,3800,-4473,-13622,2696,-4266,-1887,8198,165,34,825
1292410,761684,535088,767128,799896,1969,3800,-4150,-12597,2811,-4462,-1441,7961,165,34,825
1293411,762688,535340,767734,800502,1295,3800,-3634,-11527,2834,-4174,-932,7692,179,50,826
1294412,763532,535660,768340,801108,2191,3800,-2963,-10504,2782,-3743,-659,7093,179,50,826
1295413,764540,536020,768946,801714,991,3800,-2166,-9730,2701,-3734,-715,6591,162,72,827
1296414,765404,536436,769552,802320,1778,3800,-1277,-9064,2666,-3506,-900,6326,162,72,827
1297415,766176,536820,770158,802926,2281,3800,-341,-8430,2696,-3013,-913,6112,167,93,830
1298416,767104,537292,770764,803532,1166,3800,542,-7741,2799,-2995,-854,6277,167,93,830
1299417,767892,537792,771370,804138,1961,3800,1443,-7119,2895,-3504,-842,5542,157,92,832
1300417,768668,538316,771976,804744,1962,3800,2390,-6914,3015,-3524,-1009,4207,157,92,832
1301419,769448,538900,772582,805350,1862,3800,3379,-6919,3169,-3394,-1049,3768,161,117,833
1302420,770140,539484,773188,805956,2374,3800,4301,-6932,3452,-3487,-1702,3813,161,117,833
1303421,770836,540084,773794,806562,2310,3800,5164,-7023,3857,-3647,-2388,3398,142,131,830
1304422,771512,540700,774400,807168,2405,3800,5999,-7216,4337,-3641,-2489,2970,142,131,830
1305423,772124,541392,775006,807774,2803,3800,6791,-7426,4767,-3312,-2136,2661,148,123,830
1306424,772644,542064,775612,808380,3416,3800,7547,-7860,5116,-2549,-1834,1389,148,123,830
1307425,773184,542908,776218,808986,3321,3800,8186,-8569,5407,-1771,-1660,855,134,141,831
1308432,773740,543584,776846,809614,3253,3800,8767,-9308,5658,-507,-1383,211,134,141,831
1309439,774192,544384,777452,810220,3800,3800,9232,-10252,5858,542,-1515,-695,115,140,827
1310428,774700,545136,778058,810826,3665,3800,9629,-11288,6077,1203,-1913,-1041,115,140,827
1311441,775136,545972,778664,811432,3800,3800,9874,-12189,6387,1867,-2936,-380,110,168,828
1312442,775620,546936,779270,812038,3800,3800,9975,-12632,6680,1941,-3277,583,110,168,828
1313444,776068,547764,779876,812644,3800,3800,10053,-12886,6874,2121,-3069,-121,103,164,826
1314444,776536,548760,780482,813250,3800,3800,10105,-13143,6989,2351,-3456,-34,103,164,826
1315446,777044,549676,781088,813856,3800,3800,10041,-12956,7033,2037,-3757,1426,94,185,825
1316446,777548,550636,781694,814462,3800,3800,9888,-12347,7157,2072,-4583,1971,94,185,825
1317448,778092,551684,782300,815068,3800,3800,9660,-11431,7323,1928,-4280,2432,105,188,825
1318449,778596,552764,782906,815674,3800,3800,9410,-10209,7450,1158,-3847,2815,105,188,825
1319437,779240,553688,783512,816280,3223,3800,9193,-9041,7440,1081,-2844,2044,119,181,827
1320450,779768,554800,784118,816886,3800,3800,8874,-7767,7258,1084,-2275,2733,119,181,827
1321439,780380,555904,784724,817492,3456,3800,8462,-6034,7185,590,-3641,3666,118,218,828
1322440,780984,556960,785330,818098,3508,3800,7920,-3921,7198,722,-3631,4696,118,218,828
1323441,781568,557984,785936,818704,3644,3800,6808,-788,7346,1072,-3572,8573,124,211,828
1324442,782176,559048,786542,819310,3494,3800,6006,1951,7424,862,-3583,4528,124,211,828
1325443,782796,560144,787148,819916,3413,3800,5581,3783,7403,1996,-3822,3484,134,203,829
1326444,783428,561184,787754,820522,3328,3800,5290,5228,7435,3943,-3998,3238,134,203,829
1327445,784104,562148,788360,821128,3023,3800,4730,7156,7526,6688,-2441,4630,128,208,828
1328446,784844,563164,788966,821734,2565,3800,4001,8956,7402,7350,-1105,2644,128,208,828
1329447,785552,564104,789572,822340,2721,3800,3589,9190,6918,6616,-1012,-2376,140,192,831
1330448,786240,564964,790178,822946,2810,3800,3409,7760,5993,7208,886,-5125,140,192,831
1331449,787012,565872,790784,823552,2213,3800,3239,6259,4791,9004,3053,-4997,155,184,833
1332450,787736,566772,791390,824158,2462,3800,3021,4935,3677,9878,2978,-5921,155,184,833
1333451,788432,567596,791996,824764,2599,3800,2870,3310,2860,10306,1819,-6844,143,179,832
1334452,789148,568576,792602,825370,2425,3800,2716,1585,2285,10619,1197,-6257,143,179,832
1335460,789964,569356,793230,825998,1719,3800,2607,129,1788,10640,1250,-5862,146,168,833
1336454,790656,570188,793836,826604,2457,3800,2583,-1186,1257,10445,1406,-6142,146,168,833
1337455,791412,571012,794442,827210,1991,3800,2652,-2206,605,9890,2676,-5587,156,158,832
1338456,792200,571796,795048,827816,1712,3800,2653,-2673,-176,8983,4343,-4257,156,158,832
1339457,792916,572620,795654,828422,2114,3800,2464,-2556,-1139,8143,5316,-2891,144,154,833
1340458,793592,573432,796260,829028,2334,3800,2133,-1886,-2206,7341,5473,-1629,144,154,833
1341459,794356,574172,796866,829634,1715,3800,1780,-718,-3281,6319,5836,-599,150,163,835
1342459,795032,575012,797472,830240,2235,3800,1443,658,-4335,5331,5828,-438,150,163,835
1343461,795752,575828,798078,830846,1910,3800,1007,2204,-5253,4982,5629,492,143,154,833
1344461,796440,576652,798684,831452,2075,3800,398,3962,-6001,4987,5554,846,143,154,833
1345462,797064,577576,799290,832058,2467,3800,-269,5517,-6808,4730,6546,-313,137,156,833
1346464,797608,578260,799896,832664,2995,3800,-983,6729,-7720,4236,6643,-842,137,156,833
1347465,798276,579052,800502,833270,2193,3800,-1570,7408,-8415,4050,5759,-1754,117,172,833
1348466,798812,579964,801108,833876,3048,3800,-1989,7651,-8787,4212,5339,-2519,117,172,833
1349467,799312,580896,801714,834482,3321,3800,-2244,7640,-8862,4664,4967,-3209,112,180,830
1350468,799928,582032,802320,835088,2592,3800,-2471,7198,-8665,4849,4735,-4228,112,180,830
1351469,800428,583008,802926,835694,3364,3800,-2773,6370,-8269,5001,4531,-4566,98,197,831
1352470,800932,583988,803532,836300,3384,3800,-3119,5415,-7733,5157,4034,-4822,98,197,831
1353470,801480,585056,804138,836906,3136,3800,-4056,5245,-6817,5503,1634,-1721,107,206,833
1354472,801984,586132,804744,837512,3455,3800,-5720,5824,-5451,5033,-855,-33,107,206,833
1355485,802324,587160,805350,838118,3800,3800,-7574,6384,-4176,4342,-1311,-500,105,198,830
1356474,802848,588136,805956,838724,3484,3800,-8908,6041,-3404,3418,-579,-3465,105,198,830
1357488,803240,589060,806562,839330,3800,3800,-9464,4445,-3063,2608,484,-6394,111,208,828
1358488,803700,590016,807168,839936,3800,3800,-9674,2193,-2806,1647,-122,-7013,111,208,828
1359489,804152,590920,807774,840542,3800,3800,-9891,329,-2386,739,-1644,-5599,115,189,827
1360490,804576,591904,808380,841148,3800,3800,-10284,-734,-1769,185,-3381,-3613,115,189,827
1361491,805000,592804,808986,841754,3800,3800,-10676,-1067,-1031,-516,-4786,-2020,107,207,827
1362499,805424,593716,809614,842382,3800,3800,-11101,-1076,-285,-879,-5151,-487,107,207,827
1363493,805840,594576,810220,842988,3800,3800,-11566,-523,352,-773,-5056,1739,100,199,826
1364494,806220,595364,810826,843594,3800,3800,-12628,1442,934,-41,-4488,7658,100,199,826
1365495,806648,596264,811432,844200,3800,3800,-13587,3616,1413,-136,-4317,5615,86,174,825
1366496,807048,596992,812038,844806,3800,3800,-14045,4800,1603,-784,-2995,3528,86,174,825
1367497,807436,597644,812644,845412,3800,3800,-14089,5391,1609,-1079,-2810,3504,90,150,825
1368498,807892,598216,813250,846018,3800,3800,-14154,6219,1491,-1091,-2775,5222,90,150,825
1369499,808248,598736,813856,846624,3800,3800,-14313,7596,1397,-1050,-3363,6701,76,112,822
1370500,808640,599176,814462,847230,3800,3800,-14395,9082,1357,-1123,-3411,7094,76,112,822
1371501,809044,599568,815068,847836,3800,3800,-14265,10252,1235,-1638,-2374,6861,86,77,820
1372502,809448,599868,815674,848442,3800,3800,-13978,11133,997,-2092,-921,7147,86,77,820
1373503,809816,600104,816280,849048,3800,3800,-13696,11941,523,-2301,1319,7041,83,62,820
1374504,810188,600236,816886,849654,3800,3800,-13506,12658,-449,-3175,4497,7454,83,62,820
1375505,810524,600340,817492,850260,3800,3800,-7725,22649,-1225,-6498,1841,32767,62,24,818
1376506,810860,600392,818098,850866,3800,3800,3883,32297,-1128,-6910,-1471,32767,62,24,818
1377507,811208,600412,818704,851472,3800,3800,12930,32297,-1340,-6103,1634,25294,64,7,816
1378509,811572,600408,819310,852078,3800,3800,16809,32297,-1210,-15431,94,10069,64,7,816
1379510,811908,600420,819916,852684,3800,3800,16481,24715,-1108,-13796,-184,-12463,81,8,816
1380511,812252,600396,820522,853290,3800,3800,14567,12563,-787,-15054,-2816,-10443,81,8,816
1381512,812644,600400,821128,853896,3800,3800,12570,6901,-305,-8182,-4858,786,64,11,815
1382513,813008,600384,821734,854502,3800,3800,10535,6936,-65,-1908,-3845,5335,64,11,815
1383514,813364,600404,822340,855108,3800,3800,8013,7384,-182,-108,-1404,3341,66,-1,816
1384515,813780,600388,822946,855714,3800,3800,4607,6176,-377,529,-72,3489,66,-1,816
1385516,814220,600396,823552,856320,3800,3800,1232,3532,-832,184,1443,290,77,1,816
