"Data file recorded 2014/9/24  13:42:25"
"%  Right Stride Frequency         = 2.0"
"%  Left Stride Frequency         = 2.0"
"%  Phase (Fractional)         = 32768.0"
"%  Experiment.py "
"%  Motor Gains    = [1800, 200, 100, 0, 0, 1800, 200, 100, 0, 0]
"% Columns: "
"% time | Right Leg Pos | Left Leg Pos | Commanded Right Leg Pos | Commanded Left Leg Pos | DCR | DCL | GyroX | GryoY | GryoZ | AX | AY | AZ | RBEMF | LBEMF | VBatt "
11729,16501020,18013120,16487159,18027255,-3800,3800,-370,-566,357,189,-433,4068,0,8,832
12729,16501036,18013144,16487290,18027386,-3800,3800,-370,-568,360,197,-408,4046,0,8,832
13731,16501012,18013136,16487421,18027517,-3800,3800,-371,-571,358,213,-421,4054,8,4,832
14732,16500916,18013124,16487552,18027648,-3800,3800,-371,-590,364,198,-449,4048,8,4,832
15733,16500680,18013240,16487683,18027779,-3800,3800,-369,-577,361,179,-345,4082,-43,25,798
16721,16500396,18013524,16487814,18027910,-3631,3800,-369,-529,354,218,-317,4132,-43,25,798
17709,16500048,18013960,16487945,18028041,-3023,3615,-386,-503,360,530,-552,4068,-64,62,802
18710,16499680,18014464,16488076,18028172,-2681,3030,-416,-584,329,871,-230,3673,-64,62,802
19711,16499320,18014904,16488207,18028303,-2517,3296,-474,-627,262,1207,-415,3966,-82,72,804
20712,16498924,18015392,16488338,18028434,-2063,2842,-522,-619,187,1367,-486,3877,-82,72,804
21713,16498528,18015908,16488469,18028565,-1833,2500,-553,-568,109,1349,-666,4115,-73,98,813
22714,16498152,18016376,16488600,18028696,-1737,2655,-577,-445,25,1193,-813,4370,-73,98,813
23716,16497688,18016904,16488731,18028827,-928,2107,-610,-280,-60,1254,-719,4400,-83,82,817
24716,16497320,18017328,16488862,18028958,-1310,2630,-615,-42,-157,1503,-68,4476,-83,82,817
25717,16496908,18017732,16488993,18029089,-799,2638,-600,132,-233,1882,441,4263,-75,72,818
26718,16496448,18018128,16489124,18029220,-240,2574,-588,205,-304,2530,1122,3854,-75,72,818
27719,16496072,18018460,16489255,18029351,-543,2888,-618,219,-339,3012,997,3682,-79,67,819
28720,16495708,18018712,16489386,18029482,-403,3336,-635,194,-339,3197,727,3339,-79,67,819
29721,16495308,18018952,16489517,18029613,55,3366,-616,169,-335,3190,169,3223,-76,53,822
30722,16494996,18019172,16489648,18029744,-302,3453,-559,205,-297,3014,-720,3364,-76,53,822
31723,16494688,18019364,16489779,18029875,-135,3604,-495,364,-239,2602,-1349,3777,-54,48,817
32724,16494348,18019532,16489910,18030006,271,3739,-455,747,-182,2030,-1807,4327,-54,48,817
33738,16494100,18019688,16490041,18030137,-138,3800,-434,1299,-106,1295,-2144,4863,-60,24,817
34739,16493868,18019812,16490172,18030268,-80,3800,-413,1817,-29,781,-2004,4674,-60,24,817
35740,16493672,18019908,16490303,18030399,-161,3800,-371,2286,3,307,-1784,4568,-33,14,815
36741,16493480,18019960,16490434,18030530,-45,3800,-300,2708,-2,-378,-1790,4386,-33,14,815
37742,16493344,18020020,16490565,18030661,-279,3800,-256,3020,-36,-943,-1905,4033,-31,11,812
38743,16493216,18020064,16490696,18030792,-215,3800,-274,3185,-78,-1248,-1736,3880,-31,11,812
39744,16493108,18020108,16490827,18030923,-236,3800,-319,3258,-134,-1404,-1375,3442,-27,15,813
40745,16493052,18020120,16490958,18031054,-479,3800,-367,3169,-227,-1511,-1281,2795,-27,15,813
41746,16493016,18020144,16491089,18031185,-530,3800,-370,2880,-309,-1784,-1574,2359,-13,-2,813
42747,16492980,18020172,16491220,18031316,-458,3800,-337,2463,-347,-1817,-1682,2249,-13,-2,813
43748,16492968,18020204,16491351,18031447,-545,3800,-321,1992,-384,-1715,-1031,1870,-12,7,812
44749,16492960,18020224,16491482,18031578,-509,3800,-315,1382,-415,-1711,-703,1449,-12,7,812
45751,16492964,18020264,16491613,18031709,-529,3800,-299,661,-403,-1697,-874,1232,-5,11,812
46752,16492960,18020284,16491744,18031840,-420,3800,-274,-196,-320,-1526,-1198,1106,-5,11,812
47753,16492964,18020332,16491875,18031971,-414,3800,-247,-945,-158,-1139,-1475,1383,-3,12,811
48754,16492960,18020368,16492006,18032102,-305,3800,-209,-1655,46,-872,-1750,1451,-3,12,811
49755,16492960,18020440,16492137,18032233,-273,3800,-165,-2296,282,-725,-2209,1867,8,0,811
50756,16492964,18020496,16492268,18032364,-242,3800,-141,-2822,513,-499,-2465,2540,8,0,811
51757,16492972,18020548,16492399,18032495,-213,3800,-124,-3220,713,-160,-2303,2721,6,13,810
52757,16492960,18020612,16492530,18032626,-25,3800,-108,-3549,899,158,-2153,3023,6,13,810
53758,16492960,18020692,16492661,18032757,-43,3800,-100,-3763,1082,380,-2022,3472,-3,8,813
54759,16492968,18020768,16492792,18032888,-39,3800,-108,-3872,1236,643,-1516,3822,-3,8,813
55760,16492972,18020872,16492923,18033019,42,3800,-140,-3831,1342,998,-757,4258,11,9,813
56761,16492968,18021012,16493054,18033150,151,3800,-232,-3623,1406,1303,-159,4861,11,9,813
57762,16492976,18021148,16493185,18033281,130,3800,-385,-3283,1448,1502,-56,5383,0,32,813
58763,16492968,18021284,16493316,18033412,291,3800,-546,-2859,1455,1698,189,5597,0,32,813
59764,16492976,18021412,16493447,18033543,245,3800,-685,-2414,1407,1918,363,5661,12,37,813
60765,16492980,18021572,16493578,18033674,326,3800,-808,-1971,1303,2024,352,5632,12,37,813
61766,16492972,18021752,16493709,18033805,462,3800,-916,-1631,1153,2000,313,5497,15,28,814
62767,16492968,18021956,16493840,18033936,497,3800,-1005,-1335,988,2030,176,5428,15,28,814
63768,16492980,18022140,16493971,18034067,449,3800,-893,-887,814,2272,106,7336,-1,30,814
64769,16492976,18022312,16494102,18034198,609,3800,-291,513,586,2551,490,15542,-1,30,814
65770,16492976,18022492,16494233,18034329,642,3800,191,1260,326,1619,324,6585,-1,39,813
66771,16493000,18022648,16494364,18034460,539,3800,213,999,57,1394,285,3240,-1,39,813
67772,16493024,18022840,16494495,18034591,586,3800,2,215,-211,1269,251,2642,5,30,813
68773,16493048,18022996,16494626,18034722,634,3800,-200,-587,-521,923,177,2374,5,30,813
69774,16493044,18023152,16494757,18034853,868,3800,-351,-1281,-869,331,133,2421,3,25,812
70775,16493048,18023296,16494888,18034984,874,3800,-507,-1872,-1177,18,-474,2680,3,25,812
71776,16493068,18023460,16495019,18035115,824,3800,-502,-2170,-1370,-609,-1211,5174,14,32,812
72777,16493092,18023608,16495150,18035246,846,3800,70,-1367,-1334,-2132,-2204,14385,14,32,812
73778,16493128,18023780,16495281,18035377,813,3800,646,-943,-1369,-1778,-792,7120,14,39,812
74779,16493136,18023900,16495412,18035508,1043,3800,693,-1616,-1567,-1463,162,1856,14,39,812
75780,16493152,18024048,16495543,18035639,1043,3800,418,-2711,-1718,-1544,-290,1948,11,24,812
76781,16493176,18024192,16495674,18035770,1041,3800,95,-3573,-1708,-1509,-759,2603,11,24,812
77782,16493208,18024340,16495805,18035901,1035,3800,-133,-4090,-1545,-1812,-792,3166,5,25,811
78783,16493244,18024508,16495936,18036032,1053,3800,-61,-4180,-1294,-2291,-916,6105,5,25,811
79784,16493260,18024668,16496067,18036163,1228,3800,452,-3642,-995,-2784,-1013,10859,1,25,810
80785,16493308,18024808,16496198,18036294,1066,3800,884,-3582,-761,-2445,-57,4882,1,25,810
81786,16493360,18024960,16496329,18036425,1075,3800,949,-4087,-596,-2109,280,2849,10,27,810
82787,16493412,18025108,16496460,18036556,1111,3800,822,-4735,-376,-1751,3,3062,10,27,810
83788,16493452,18025256,16496591,18036687,1226,3800,670,-4980,-41,-1458,-173,4247,25,29,811
84789,16493496,18025432,16496722,18036818,1240,3800,523,-4820,332,-1209,-18,5078,25,29,811
85790,16493572,18025596,16496853,18036949,1065,3800,375,-4443,633,-926,498,5482,26,33,811
86791,16493648,18025736,16496984,18037080,1090,3800,236,-3952,852,-748,954,5946,26,33,811
87792,16493720,18025888,16497115,18037211,1141,3800,104,-3413,1012,-640,1079,5994,8,23,809
88793,16493780,18026040,16497246,18037342,1248,3800,-38,-2890,1113,-454,1236,6158,8,23,809
89794,16493864,18026180,16497377,18037473,1119,3800,-176,-2338,1179,-262,1492,6101,28,23,811
90795,16493940,18026312,16497508,18037604,1194,3800,-286,-1880,1211,104,1679,5772,28,23,811
91796,16494012,18026448,16497639,18037735,1245,3800,-364,-1500,1201,376,1863,5400,14,20,810
92797,16494132,18026556,16497770,18037866,951,3800,-401,-1288,1170,449,1735,4965,14,20,810
93798,16494208,18026660,16497901,18037997,1251,3800,-400,-1177,1117,651,1393,4550,29,20,809
94799,16494308,18026784,16498032,18038128,1116,3800,-350,-1239,1046,694,1301,4040,29,20,809
95800,16494400,18026932,16498163,18038259,1183,3800,-273,-1396,948,668,1380,3819,19,36,811
96801,16494508,18027024,16498294,18038390,1094,3800,-213,-1534,820,645,1426,3849,19,36,811
97802,16494604,18027148,16498425,18038521,1186,3800,-189,-1618,681,477,1415,3948,19,28,811
98803,16494692,18027256,16498556,18038652,1255,3800,-196,-1593,546,381,1285,4192,19,28,811
99804,16494792,18027376,16498687,18038783,1194,3800,-223,-1540,420,157,1198,4226,12,18,811
100805,16494872,18027476,16498818,18038914,1343,3800,-254,-1481,310,-174,1187,4290,12,18,811
101806,16494968,18027608,16498949,18039045,1259,3800,-280,-1433,222,-484,1167,4291,12,22,810
102807,16495084,18027692,16499080,18039176,1141,3800,-302,-1375,174,-768,1033,4311,12,22,810
103808,16495176,18027788,16499211,18039307,1309,3800,-309,-1295,180,-1036,903,4356,16,17,809
104809,16495256,18027892,16499342,18039438,1407,3800,-283,-1231,230,-1338,782,4162,16,17,809
105810,16495376,18027992,16499473,18039569,1163,3800,-226,-1239,309,-1574,631,4041,10,25,810
106811,16495464,18028088,16499604,18039700,1383,3800,-146,-1249,414,-1836,463,4042,10,25,810
107812,16495520,18028200,16499735,18039831,1616,3800,-61,-1276,561,-2038,281,4080,29,28,809
108813,16495648,18028264,16499866,18039962,1168,3800,18,-1262,749,-2213,202,4103,29,28,809
109814,16495724,18028340,16499997,18040093,1518,3800,98,-1285,957,-2312,188,4008,11,23,809
110815,16495776,18028432,16500128,18040224,1704,3800,186,-1304,1167,-2299,106,3921,11,23,809
111816,16495896,18028544,16500259,18040355,1285,3800,286,-1385,1368,-2283,-52,3795,17,23,810
112817,16495988,18028644,16500390,18040486,1477,3800,364,-1450,1569,-2195,-328,3782,17,23,810
113818,16496052,18028744,16500521,18040617,1682,3800,413,-1528,1757,-2050,-315,3825,30,27,807
114819,16496156,18028832,16500652,18040748,1445,3800,436,-1595,1906,-1867,-175,3925,30,27,807
115820,16496236,18028932,16500783,18040879,1619,3800,426,-1565,2043,-1806,-264,4340,8,14,808
116821,16496312,18029032,16500914,18041010,1669,3800,400,-1418,2176,-1786,-364,4545,8,14,808
117822,16496428,18029152,16501045,18041141,1426,3800,362,-1278,2308,-1424,-242,4555,27,27,809
118823,16496548,18029264,16501176,18041272,1407,3800,307,-1130,2411,-1036,81,4601,27,27,809
119824,16496656,18029380,16501307,18041403,1492,3800,257,-1075,2496,-700,235,4379,21,30,808
120825,16496752,18029468,16501438,18041534,1584,3800,221,-1149,2575,-357,348,4071,21,30,808
121826,16496872,18029604,16501569,18041665,1440,3800,184,-1268,2631,-145,395,4186,30,25,809
122827,16496972,18029700,16501700,18041796,1579,3800,146,-1334,2665,65,228,4157,30,25,809
123828,16497076,18029824,16501831,18041927,1567,3800,111,-1446,2679,325,-37,3888,35,20,809
124829,16497192,18029952,16501962,18042058,1500,3800,63,-1625,2675,555,-138,3906,35,20,809
125830,16497308,18030076,16502093,18042189,1507,3800,0,-1783,2651,727,-261,4029,24,18,808
126831,16497396,18030164,16502224,18042320,1702,3800,-70,-1941,2634,871,-607,3995,24,18,808
127832,16497500,18030280,16502355,18042451,1615,3800,-145,-2031,2633,937,-795,4267,19,19,809
128833,16497592,18030396,16502486,18042582,1708,3800,-221,-2113,2610,1137,-723,4239,19,19,809
129834,16497672,18030512,16502617,18042713,1807,3800,-290,-2223,2559,1415,-633,4035,24,18,807
130835,16497776,18030648,16502748,18042844,1668,3800,-356,-2359,2500,1553,-730,4058,24,18,807
131836,16497896,18030744,16502879,18042975,1574,3800,-423,-2491,2431,1550,-1014,4180,27,21,808
132837,16497992,18030864,16503010,18043106,1741,3800,-474,-2653,2335,1510,-1015,4119,27,21,808
133838,16498120,18030956,16503141,18043237,1543,3800,-498,-2749,2212,1365,-1052,4247,30,36,808
134839,16498216,18031088,16503272,18043368,1759,3800,-536,-2717,2151,1318,-1588,4790,30,36,808
135847,16498320,18031220,16503412,18043508,2407,3800,-611,-2559,2164,1331,-1979,5013,35,26,807
136841,16498432,18031324,16503543,18043639,2367,3800,-671,-2467,2154,1210,-1833,4654,35,26,807
137842,16498544,18031404,16503674,18043770,2376,3800,-687,-2487,2099,1195,-1887,4363,16,21,807
138843,16498644,18031508,16503805,18043901,2466,3800,-696,-2589,2045,1256,-2214,4408,16,21,807
139844,16498792,18031628,16503936,18044032,2159,3800,-701,-2714,2003,1265,-2217,4177,42,19,805
140845,16498980,18031736,16504067,18044163,1885,3800,-686,-2863,1948,1171,-2142,4095,42,19,805
141846,16499148,18031840,16504198,18044294,1995,3800,-658,-2923,1904,1071,-2357,4339,26,13,805
142847,16499276,18031928,16504329,18044425,2247,3800,-629,-2921,1888,963,-2501,4565,26,13,805
143848,16499448,18032028,16504460,18044556,1955,3800,-577,-2901,1898,801,-2608,4560,28,21,807
144849,16499584,18032112,16504591,18044687,2179,3800,-509,-2911,1917,713,-2735,4434,28,21,807
145850,16499692,18032232,16504722,18044818,2365,3800,-435,-2968,1940,648,-2891,4523,43,29,806
146851,16499832,18032356,16504853,18044949,2162,3800,-365,-3037,1954,611,-2923,4370,43,29,806
147852,16499960,18032432,16504984,18045080,2239,3800,-288,-3159,1934,676,-2894,4097,22,14,805
148853,16500044,18032492,16505115,18045211,2536,3800,-194,-3282,1903,802,-2791,4049,22,14,805
149854,16500192,18032556,16505246,18045342,2129,3800,-68,-3423,1879,1062,-2569,3924,14,25,806
150855,16500300,18032624,16505377,18045473,2391,3800,67,-3513,1885,1259,-2540,4095,14,25,806
151856,16500384,18032716,16505508,18045604,2562,3800,199,-3558,1917,1428,-2233,4377,29,21,804
152857,16500536,18032808,16505639,18045735,2129,3800,358,-3579,1925,1483,-1717,4145,29,21,804
153858,16500632,18032856,16505770,18045866,2495,3800,535,-3597,1920,1442,-1610,4233,35,7,804
154859,16500712,18032912,16505901,18045997,2619,3800,720,-3552,1910,1472,-1371,4447,35,7,804
155860,16500836,18032960,16506032,18046128,2348,3800,888,-3432,1819,1576,-889,4671,27,9,806
156861,16500924,18033032,16506163,18046259,2593,3800,1051,-3212,1687,1600,-784,4734,27,9,806
157862,16501004,18033112,16506294,18046390,2666,3800,1230,-2978,1535,1699,-349,4816,19,19,802
158863,16501088,18033148,16506425,18046521,2663,3800,1404,-2694,1409,1919,-201,5037,19,19,802
159864,16501168,18033184,16506556,18046652,2711,3800,1550,-2333,1298,2016,17,5200,13,14,803
160865,16501252,18033228,16506687,18046783,2708,3800,1681,-1922,1157,2045,148,5051,13,14,803
161866,16501320,18033280,16506818,18046914,2837,3800,1821,-1625,980,1985,154,4627,28,10,803
162867,16501440,18033364,16506949,18047045,2517,3800,1980,-1443,797,1915,75,4365,28,10,803
163868,16501544,18033440,16507080,18047176,2630,3800,2127,-1242,635,1829,-29,4458,30,16,803
164869,16501628,18033496,16507211,18047307,2777,3800,2228,-971,547,1620,-156,4483,30,16,803
165870,16501784,18033536,16507342,18047438,2317,3800,2300,-717,486,1439,92,4289,22,14,804
166871,16501892,18033620,16507473,18047569,2628,3800,2377,-524,434,1396,336,4175,22,14,804
167872,16501980,18033684,16507604,18047700,2773,3800,2450,-323,410,1309,103,4080,18,24,803
168873,16502076,18033744,16507735,18047831,2739,3800,2547,-228,390,1149,25,3443,18,24,803
169874,16502136,18033796,16507866,18047962,2997,3800,2676,-314,366,1152,-104,2944,27,5,802
170875,16502172,18033844,16507997,18048093,3189,3800,2771,-409,336,1276,-42,2984,27,5,802
171876,16502220,18033848,16508128,18048224,3152,3800,2827,-464,317,1079,-50,2818,5,20,802
172877,16502252,18033880,16508259,18048355,3296,3800,2867,-542,303,879,-93,2704,5,20,802
173878,16502276,18033924,16508390,18048486,3395,3800,2891,-599,289,964,259,2646,20,6,799
174879,16502316,18033980,16508521,18048617,3336,3800,2877,-608,288,1093,410,2663,20,6,799
175880,16502368,18034020,16508652,18048748,3297,3800,2826,-544,275,1051,515,2621,3,21,798
176881,16502412,18034028,16508783,18048879,3386,3800,2761,-552,250,838,571,2470,3,21,798
177882,16502492,18034020,16508914,18049010,3185,3800,2692,-574,237,791,478,2379,12,16,798
178883,16502652,18034040,16509045,18049141,2674,3800,2595,-488,217,591,328,2698,12,16,798
179884,16502796,18034072,16509176,18049272,2769,3800,2457,-185,178,26,523,2983,29,5,797
180885,16502972,18034100,16509307,18049403,2550,3800,2329,37,128,-107,987,2453,29,5,797
181886,16503192,18034144,16509438,18049534,2237,3800,2221,143,86,238,1322,2168,39,1,802
182887,16503380,18034168,16509569,18049665,2413,3800,2107,261,78,244,1459,2316,39,1,802
183888,16503540,18034168,16509700,18049796,2578,3800,1996,317,103,-94,1476,1966,33,10,803
184889,16503696,18034184,16509831,18049927,2593,3800,1917,199,154,-460,1399,1439,33,10,803
185890,16503844,18034192,16509962,18050058,2636,3800,1857,69,264,-343,1394,1427,32,4,804
186891,16503964,18034232,16510093,18050189,2817,3800,1778,-3,389,103,1463,1359,32,4,804
187892,16504112,18034280,16510224,18050320,2635,3800,1656,-119,474,351,1611,1124,35,0,803
188893,16504292,18034296,16510355,18050451,2415,3800,1483,-226,543,359,1411,1383,35,0,803
189894,16504468,18034304,16510486,18050582,2422,3800,1238,-127,612,196,917,2013,37,3,802
190895,16504652,18034348,16510617,18050713,2350,3800,948,100,673,-50,649,2168,37,3,802
191896,16504800,18034372,16510748,18050844,2568,3800,637,394,707,-178,373,2305,51,6,803
192897,16504940,18034404,16510879,18050975,2615,3800,329,512,706,-30,279,1817,51,6,803
193898,16505064,18034432,16511010,18051106,2719,3800,33,485,683,496,290,1529,24,11,803
194899,16505212,18034424,16511141,18051237,2563,3800,-270,435,653,955,229,1338,24,11,803
195900,16505348,18034420,16511272,18051368,2637,3800,-560,215,587,1138,306,938,21,0,802
196901,16505496,18034432,16511403,18051499,2556,3800,-854,29,475,1264,244,1192,21,0,802
197902,16505672,18034428,16511534,18051630,2363,3800,-1161,-139,350,1217,52,1222,29,-3,803
198903,16505812,18034444,16511665,18051761,2585,3800,-1488,-249,216,1323,-28,1394,29,-3,803
199904,16505940,18034484,16511796,18051892,2662,3800,-1827,-311,78,1140,-192,1494,31,11,803
200905,16506056,18034464,16511927,18052023,2745,3800,-2126,-559,-54,1212,-10,923,31,11,803
201906,16506168,18034444,16512058,18052154,2779,3800,-2395,-926,-227,1489,154,856,31,-2,802
202907,16506244,18034468,16512189,18052285,3029,3800,-2645,-1287,-432,1589,348,881,31,-2,802
203908,16506340,18034476,16512320,18052416,2920,3800,-2872,-1674,-648,1980,513,827,31,-3,801
204909,16506444,18034508,16512451,18052547,2884,3800,-3106,-1911,-831,2045,377,1467,31,-3,801
205910,16506560,18034508,16512582,18052678,2817,3800,-3353,-2027,-1002,1767,316,1882,35,-1,800
206911,16506708,18034496,16512713,18052809,2610,3800,-3594,-2035,-1185,1753,68,2102,35,-1,800
207912,16506860,18034500,16512844,18052940,2577,3800,-3810,-2048,-1350,1783,-15,2251,40,2,801
208913,16507024,18034500,16512975,18053071,2489,3800,-4020,-2036,-1467,1778,-90,2699,40,2,801
209914,16507164,18034516,16513106,18053202,2636,3800,-4233,-1923,-1549,1703,-135,2954,28,-2,803
210915,16507300,18034552,16513237,18053333,2660,3800,-4420,-1836,-1593,1389,-249,2976,28,-2,803
211916,16507392,18034548,16513368,18053464,2953,3800,-4580,-1808,-1609,1287,-312,3015,35,13,803
212917,16507460,18034536,16513499,18053595,3132,3800,-4694,-1877,-1613,1448,-245,2800,35,13,803
213918,16507568,18034536,16513630,18053726,2893,3800,-4765,-1970,-1569,1906,-327,2888,30,0,801
214919,16507656,18034556,16513761,18053857,3038,3800,-4811,-2090,-1465,2075,-531,2866,30,0,801
215920,16507740,18034572,16513892,18053988,3085,3800,-4821,-2232,-1377,1759,-471,2971,32,0,799
216921,16507876,18034620,16514023,18054119,2759,3800,-4786,-2374,-1316,1514,-420,3316,32,0,799
217922,16508020,18034640,16514154,18054250,2704,3800,-4724,-2385,-1245,1595,-361,3742,17,1,800
218923,16508136,18034636,16514285,18054381,2888,3800,-4674,-2288,-1156,1641,-453,4250,17,1,800
219924,16508284,18034652,16514416,18054512,2681,3800,-4620,-2088,-1081,1511,-590,4611,41,2,802
220925,16508448,18034680,16514547,18054643,2568,3800,-4540,-1898,-1028,1246,-867,4878,41,2,802
221926,16508628,18034700,16514678,18054774,2447,3800,-4444,-1663,-964,924,-1319,5344,49,0,801
222927,16508724,18034708,16514809,18054905,2989,3800,-4353,-1324,-882,658,-1543,5886,49,0,801
223928,16508856,18034716,16514940,18055036,2764,3800,-4267,-911,-800,766,-1591,6100,23,0,802
224929,16508948,18034704,16515071,18055167,3033,3800,-4126,-651,-760,1312,-861,5531,23,0,802
225930,16509048,18034696,16515202,18055298,2998,3800,-3904,-545,-776,1833,-240,5165,34,1,799
226931,16509176,18034704,16515333,18055429,2825,3800,-3645,-504,-811,1836,-196,5387,34,1,799
227932,16509360,18034728,16515464,18055560,2453,3800,-3256,-347,-815,1868,-370,6860,19,7,800
228933,16509488,18034740,16515595,18055691,2805,3800,-1133,3384,-832,4479,108,32767,19,7,800
229934,16509668,18034752,16515726,18055822,2460,3800,1365,7182,-837,3492,-131,24041,36,12,801
230935,16509852,18034752,16515857,18055953,2413,3800,2402,7665,-761,2349,-181,3256,36,12,801
231936,16510008,18034740,16515988,18056084,2578,3800,2408,5928,-607,2276,-767,2241,34,10,802
232937,16510124,18034744,16516119,18056215,2836,3800,2321,3969,-454,2048,-1415,1572,34,10,802
233938,16510276,18034788,16516250,18056346,2603,3800,2431,2772,-248,1847,-1630,2340,32,7,803
234939,16510372,18034808,16516381,18056477,2969,3800,2582,1758,-4,2079,-1492,1479,32,7,803
235940,16510484,18034816,16516512,18056608,2879,3800,2635,920,185,2635,-1025,2462,33,16,800
236941,16510656,18034808,16516643,18056739,2487,3800,2570,448,300,2305,-575,3530,33,16,800
237942,16510828,18034808,16516774,18056870,2470,3800,2412,83,336,1772,-676,3750,42,-1,801
238943,16510996,18034836,16516905,18057001,2480,3800,2259,-95,334,1314,-652,4363,42,-1,801
239944,16511140,18034864,16517036,18057132,2626,3800,2129,-303,356,783,-254,4422,38,18,803
240945,16511352,18034904,16517167,18057263,2166,3800,2004,-312,328,794,-60,5097,38,18,803
241945,16511496,18034920,16517298,18057394,2586,3800,1863,-226,267,479,185,5189,36,15,803
242947,16511616,18034936,16517429,18057525,2742,3800,1693,3,202,163,507,5800,36,15,803
243948,16511760,18034956,16517560,18057656,2587,3800,1449,357,74,561,1122,6050,28,3,804
244949,16511872,18034972,16517691,18057787,2797,3800,1194,693,-94,1032,1982,5697,28,3,804
245950,16512052,18035016,16517822,18057918,2351,3800,962,1092,-263,1263,2490,5815,35,5,801
246951,16512212,18035024,16517953,18058049,2465,3800,800,1160,-399,1198,2742,4644,35,5,801
247952,16512416,18035064,16518084,18058180,2159,3800,739,908,-442,977,2522,4042,28,12,801
248953,16512568,18035064,16518215,18058311,2476,3800,760,595,-451,762,2479,3481,28,12,801
249954,16512732,18035044,16518346,18058442,2388,3800,840,25,-478,574,2192,2709,30,-2,803
250955,16512868,18035048,16518477,18058573,2561,3800,926,-522,-476,552,1468,2985,30,-2,803
251956,16512944,18035084,16518608,18058704,2962,3800,993,-1022,-433,427,1000,2882,19,0,803
252957,16513068,18035096,16518739,18058835,2666,3800,1032,-1483,-420,502,918,2908,19,0,803
253958,16513216,18035104,16518870,18058966,2509,3800,1019,-1725,-452,465,1065,3462,30,4,803
254959,16513368,18035096,16519001,18059097,2476,3800,927,-1805,-493,227,1284,3936,30,4,803
255960,16513504,18035116,16519132,18059228,2575,3800,781,-1709,-545,17,1413,4250,27,14,802
256961,16513692,18035140,16519263,18059359,2226,3800,648,-1644,-562,-277,1220,3998,27,14,802
257962,16513848,18035152,16519394,18059490,2416,3800,540,-1626,-540,-427,651,3976,35,14,802
258963,16513976,18035200,16519525,18059621,2593,3800,407,-1597,-464,-399,218,4038,35,14,802
259964,16514112,18035204,16519656,18059752,2543,3800,266,-1595,-336,-252,448,3830,21,15,804
260972,16514216,18035224,16519796,18059892,2760,3800,125,-1650,-228,-29,871,3517,21,15,804
261966,16514308,18035248,16519927,18060023,2853,3800,5,-1776,-171,175,1156,3139,35,3,800
262967,16514424,18035276,16520058,18060154,2710,3800,-127,-1861,-117,572,1405,3420,35,3,800
263968,16514564,18035344,16520189,18060285,2557,3800,-293,-1826,-43,914,1483,3595,30,2,802
264969,16514696,18035376,16520320,18060416,2608,3800,-453,-1889,48,928,1381,3140,30,2,802
265970,16514844,18035416,16520451,18060547,2502,3800,-574,-2018,128,855,1119,2770,39,5,802
266971,16515048,18035472,16520582,18060678,2120,3800,-663,-2289,164,689,828,2338,39,5,802
267972,16515192,18035524,16520713,18060809,2491,3800,-760,-2513,168,746,437,2718,34,17,802
268973,16515328,18035556,16520844,18060940,2540,3800,-880,-2563,203,726,-85,3108,34,17,802
269974,16515504,18035608,16520975,18061071,2271,3800,-1002,-2493,252,471,-506,3262,27,17,804
270975,16515608,18035656,16521106,18061202,2734,3800,-1131,-2311,260,380,-680,3677,27,17,804
271976,16515724,18035680,16521237,18061333,2666,3800,-1246,-2166,222,580,-559,3541,30,6,803
272977,16515876,18035736,16521368,18061464,2433,3800,-1333,-2040,167,1044,-432,3453,30,6,803
273978,16516072,18035792,16521499,18061595,2130,3800,-1379,-1964,107,1205,-428,3160,22,7,802
274979,16516228,18035868,16521630,18061726,2370,3800,-1386,-1956,45,1080,-593,2960,22,7,802
275980,16516452,18035948,16521761,18061857,1906,3800,-1364,-1934,-5,955,-1024,3033,43,9,803
276981,16516668,18035996,16521892,18061988,1919,3800,-1322,-2013,-32,795,-1184,2722,43,9,803
277982,16516836,18036096,16522023,18062119,2204,3800,-1277,-2084,-50,843,-1119,2925,38,25,804
278983,16516992,18036184,16522154,18062250,2269,3800,-1257,-2047,-62,799,-1263,3036,38,25,804
279984,16517240,18036272,16522285,18062381,1644,3800,-1226,-2130,-84,944,-973,2641,30,21,805
280985,16517432,18036372,16522416,18062512,1968,3800,-1163,-2221,-122,1256,-556,2687,30,21,805
281986,16517600,18036504,16522547,18062643,2102,3800,-1121,-2203,-146,1354,-575,3163,30,23,805
282987,16517848,18036648,16522678,18062774,1552,3800,-1144,-2003,-140,1316,-684,3608,30,23,805
283988,16518028,18036796,16522809,18062905,1957,3800,-1161,-1878,-154,1223,-243,3232,39,20,806
284989,16518204,18036916,16522940,18063036,1963,3800,-1143,-1740,-178,1143,-409,3377,39,20,806
285990,16518412,18037080,16523071,18063167,1730,3800,-1100,-1622,-183,1376,-205,3123,39,23,808
286990,16518616,18037236,16523202,18063298,1724,3800,-1031,-1638,-158,1665,-46,2739,39,23,808
287992,16518776,18037444,16523333,18063429,1987,3800,-974,-1701,-131,1805,-20,2802,31,31,806
288993,16519004,18037636,16523464,18063560,1520,3800,-928,-1718,-125,1870,131,2837,31,31,806
289994,16519168,18037816,16523595,18063691,1906,3800,-903,-1648,-145,1735,254,3146,39,44,808
290995,16519344,18038076,16523726,18063822,1812,3800,-925,-1377,-180,1431,150,3926,39,44,808
291996,16519568,18038352,16523857,18063953,1472,3800,-1007,-884,-191,1257,-67,4491,47,50,808
292997,16519784,18038620,16523988,18064084,1486,3800,-1091,-333,-202,1385,-180,4216,47,50,808
293998,16520020,18038920,16524119,18064215,1316,3800,-1124,-9,-224,1629,-186,3411,34,54,808
294999,16520228,18039252,16524250,18064346,1458,3800,-1142,116,-236,1935,-285,3177,34,54,808
296000,16520556,18039608,16524381,18064477,621,3800,-1181,154,-200,2063,-605,3029,49,73,810
297001,16520848,18039984,16524512,18064608,777,3800,-1227,170,-119,1971,-918,2908,49,73,810
298002,16521068,18040352,16524643,18064739,1189,3800,-1254,174,-13,1800,-1004,2622,43,64,811
299002,16521304,18040840,16524774,18064870,1042,3800,-1251,28,105,1769,-975,2218,43,64,811
300004,16521564,18041304,16524905,18065001,837,3800,-1222,-133,217,1907,-886,2095,50,72,812
301005,16521824,18041752,16525036,18065132,781,3800,-1177,-326,317,2028,-732,1983,50,72,812
302006,16522064,18042244,16525167,18065263,858,3800,-1123,-505,426,2118,-795,2075,61,91,812
303007,16522308,18042808,16525298,18065394,784,3800,-1073,-570,529,1956,-810,2540,61,91,812
304008,16522540,18043316,16525429,18065525,815,3800,-1037,-448,601,1531,-999,3005,48,104,814
305009,16522744,18043972,16525560,18065656,959,3800,-1019,-76,631,1144,-1054,3607,48,104,814
306010,16522944,18044536,16525691,18065787,955,3800,-1014,423,640,911,-854,3848,37,110,814
307011,16523152,18045220,16525822,18065918,871,3800,-1052,999,634,789,-649,4157,37,110,814
308012,16523364,18045856,16525953,18066049,811,3800,-1118,1616,619,713,-547,4085,45,110,814
309013,16523540,18046644,16526084,18066180,1016,3800,-1174,2126,600,331,-550,3955,45,110,814
310014,16523736,18047440,16526215,18066311,864,3800,-1231,2593,584,-12,-690,3908,39,128,815
311015,16523924,18048300,16526346,18066442,889,3800,-1251,2977,574,-67,-894,3400,39,128,815
312016,16524116,18049076,16526477,18066573,837,3800,-1201,3188,606,223,-997,2935,39,141,815
313004,16524260,18049960,16526608,18066704,1132,3590,-1103,3290,648,525,-698,2603,39,141,815
314005,16524428,18050844,16526739,18066835,966,3262,-989,3263,691,557,-748,2219,26,161,816
315006,16524568,18051688,16526870,18066966,1138,3201,-850,3241,732,530,-983,2172,26,161,816
316007,16524716,18052680,16527001,18067097,1081,1901,-699,3107,778,679,-1200,1808,33,171,817
317008,16524836,18053520,16527132,18067228,1261,2543,-543,2986,852,1012,-1436,1795,33,171,817
318009,16524964,18054344,16527263,18067359,1213,2341,-404,2872,956,1235,-1585,1788,24,158,819
319011,16525100,18055188,16527394,18067490,1162,1905,-286,2877,1073,1607,-1998,2246,24,158,819
320011,16525236,18055912,16527525,18067621,1159,2396,-223,3039,1170,1791,-2380,2659,23,146,821
321012,16525376,18056784,16527656,18067752,1130,1148,-157,3234,1194,1851,-2360,2442,23,146,821
322013,16525508,18057536,16527787,18067883,1181,1628,-55,3382,1144,1976,-2308,2351,36,142,822
323014,16525636,18058244,16527918,18068014,1207,1651,36,3643,1074,1998,-2471,2796,36,142,822
324015,16525780,18058848,16528049,18068145,1103,2095,76,4079,1006,2244,-2561,3271,27,135,823
325017,16525924,18059508,16528180,18068276,1097,1514,109,4638,929,2304,-2545,3263,33,118,823
326017,16526044,18060092,16528311,18068407,1253,1792,144,5258,847,2205,-2493,3474,33,118,823
327018,16526184,18060672,16528442,18068538,1124,1621,148,5815,745,2299,-2160,3194,22,115,823
328019,16526320,18061164,16528573,18068669,1147,2014,183,6096,567,2562,-1108,2264,22,115,823
329020,16526444,18061624,16528704,18068800,1226,2071,250,6228,313,2770,-388,1944,36,87,823
330021,16526592,18062068,16528835,18068931,1068,2034,281,6405,54,2908,-111,2156,36,87,823
331022,16526756,18062424,16528966,18069062,955,2487,235,6643,-239,2642,497,2021,31,73,821
332023,16526884,18062748,16529097,18069193,1181,2604,159,6858,-645,2309,1025,1794,31,73,821
333024,16527040,18063024,16529228,18069324,996,2841,53,7009,-1179,2110,1192,1615,37,46,818
334025,16527172,18063272,16529359,18069455,1146,2966,-142,7304,-1699,1782,750,2218,37,46,818
335026,16527280,18063444,16529490,18069586,1306,3424,-469,7574,-2203,876,1042,2008,17,36,816
336027,16527432,18063576,16529621,18069717,1022,3674,-888,7573,-2816,86,1236,1034,17,36,816
337028,16527528,18063716,16529752,18069848,1388,3621,-1359,7403,-3517,-311,1140,758,35,18,812
338029,16527624,18063848,16529883,18069979,1404,3673,-1846,7138,-4192,-421,831,579,35,18,812
339043,16527760,18063940,16530014,18070110,1152,3800,-2311,6798,-4737,-542,138,384,22,16,810
340044,16527856,18064032,16530145,18070241,1418,3800,-2733,6419,-5053,-1016,-880,486,22,16,810
341045,16527936,18064112,16530276,18070372,1541,3800,-3105,6008,-5148,-1248,-1924,684,22,26,809
342046,16528052,18064172,16530407,18070503,1322,3800,-3423,5540,-5106,-1267,-2719,749,22,26,809
343034,16528172,18064304,16530538,18070634,1303,3766,-3697,5042,-4938,-1546,-3636,1011,35,21,808
344048,16528272,18064412,16530669,18070765,1442,3800,-4117,4798,-4450,-1853,-5960,2098,35,21,808
345036,16528380,18064608,16530800,18070896,1403,3350,-4811,4716,-3588,-2431,-8091,2702,20,36,806
346037,16528492,18064868,16530931,18071027,1386,2894,-5634,4733,-2722,-2863,-7143,3063,20,36,806
347038,16528568,18065192,16531062,18071158,1636,2410,-6302,4320,-2067,-2958,-5507,1752,26,60,812
348039,16528664,18065488,16531193,18071289,1527,2515,-6759,3204,-1437,-2717,-4757,241,26,60,812
349040,16528776,18065832,16531324,18071420,1436,2122,-7167,1722,-655,-2550,-4172,-27,12,55,816
350041,16528880,18066104,16531455,18071551,1498,2511,-7552,386,99,-2636,-2549,1252,12,55,816
351042,16528964,18066336,16531586,18071682,1645,2718,-1998,-1835,1398,-7309,-2925,32767,22,50,818
352043,16529092,18066528,16531717,18071813,1371,2942,7778,-1453,2953,-3284,-4090,32767,22,50,818
353044,16529156,18066728,16531848,18071944,1802,2863,10415,1162,4469,-1214,-7097,15293,10,42,815
354045,16529236,18067012,16531979,18072075,1724,2271,7746,2503,5452,-1720,-2694,6393,10,42,815
355046,16529392,18067276,16532110,18072206,1239,2339,5047,2370,5838,-1677,-287,2917,15,46,813
356047,16529480,18067536,16532241,18072337,1683,2308,3412,-13,6005,-2419,1318,2386,15,46,813
357048,16529572,18067780,16532372,18072468,1676,2360,2886,-977,5977,-2194,3647,834,12,36,817
358049,16529692,18067964,16532503,18072599,1506,2711,2407,-2135,5721,-1924,5058,1002,12,36,817
359050,16529820,18068152,16532634,18072730,1458,2662,1907,-2720,5319,-1617,3972,2602,32,42,817
360051,16529896,18068336,16532765,18072861,1807,2665,1613,-3558,4844,-2095,4004,1539,32,42,817
361052,16529976,18068492,16532896,18072992,1806,2830,1337,-4005,4299,-1527,3779,3258,17,34,816
362053,16530052,18068688,16533027,18073123,1855,2552,1127,-4293,3798,-836,3383,2993,17,34,816
363054,16530124,18068848,16533158,18073254,1907,2766,870,-4387,3490,-44,2235,4088,12,42,813
364055,16530196,18069052,16533289,18073385,1934,2460,660,-4140,3142,-60,2507,4487,12,42,813
365056,16530268,18069236,16533420,18073516,1960,2561,603,-4501,2631,-215,2492,2509,15,37,813
366057,16530336,18069408,16533551,18073647,2013,2619,662,-4849,2092,283,1043,2822,15,37,813
367058,16530396,18069564,16533682,18073778,2095,2709,751,-5503,1619,99,583,1522,20,30,813
368059,16530476,18069692,16533813,18073909,1993,2887,820,-6286,1178,-76,-167,1481,20,30,813
369060,16530536,18069824,16533944,18074040,2150,2862,875,-7037,811,55,-826,1216,23,20,812
370061,16530596,18069956,16534075,18074171,2181,2862,936,-7861,596,405,-1514,945,23,20,812
371062,16530664,18070128,16534206,18074302,2160,2595,850,-8237,541,942,-2099,2502,18,23,811
372063,16530712,18070264,16534337,18074433,2323,2819,652,-8380,658,985,-2345,2899,18,23,811
373064,16530776,18070424,16534468,18074564,2252,2657,465,-8331,833,1155,-2672,3166,19,36,811
374065,16530860,18070556,16534599,18074695,2149,2832,348,-8315,968,1105,-2405,2613,19,36,811
375066,16530912,18070668,16534730,18074826,2384,2966,275,-8371,1032,854,-2190,2760,8,24,810
376067,16530992,18070828,16534861,18074957,2232,2654,199,-8257,1053,763,-2120,3055,8,24,810
377068,16531052,18071004,16534992,18075088,2389,2535,139,-8122,1123,596,-1827,3019,19,41,809
378069,16531132,18071192,16535123,18075219,2287,2436,84,-7724,1239,726,-1527,3755,19,41,809
379070,16531224,18071364,16535254,18075350,2230,2519,42,-7148,1365,653,-1008,3902,26,32,811
380071,16531352,18071540,16535385,18075481,2007,2474,23,-6576,1476,439,-495,3937,26,32,811
381072,16531432,18071740,16535516,18075612,2330,2295,40,-5949,1557,306,-181,3980,22,42,813
382073,16531496,18071920,16535647,18075743,2461,2400,101,-5357,1623,171,23,3680,22,42,813
383074,16531584,18072096,16535778,18075874,2331,2406,210,-4719,1707,51,191,3760,16,34,813
384075,16531688,18072296,16535909,18076005,2243,2225,367,-4108,1836,-141,165,3508,16,34,813
385076,16531756,18072500,16536040,18076136,2496,2169,567,-3547,2000,-180,4,3354,12,34,813
386084,16531832,18072704,16536180,18076276,2475,2142,809,-2899,2140,-215,241,3476,12,34,813
387078,16531920,18072916,16536311,18076407,2420,2057,1082,-2242,2233,-283,165,3379,12,41,813
388079,16531996,18073124,16536442,18076538,2520,2049,1330,-1594,2279,-187,255,3490,12,41,813
389080,16532072,18073324,16536573,18076669,2545,2069,1537,-918,2316,-179,344,3347,21,40,813
390081,16532164,18073468,16536704,18076800,2464,2414,1728,-287,2298,-255,360,3045,21,40,813
391082,16532220,18073564,16536835,18076931,2722,2730,1858,288,2198,-192,-47,2906,29,19,813
392083,16532316,18073644,16536966,18077062,2488,2854,1918,819,2097,25,-517,2762,29,19,813
393084,16532412,18073708,16537097,18077193,2504,2983,1908,1359,1998,181,-533,2750,25,31,809
394085,16532464,18073808,16537228,18077324,2815,2773,1899,1735,1854,317,215,2068,25,31,809
395086,16532536,18073912,16537359,18077455,2717,2760,1880,2008,1688,544,778,1937,14,18,808
396087,16532636,18074008,16537490,18077586,2557,2826,1838,2242,1555,746,710,1886,14,18,808
397088,16532712,18074124,16537621,18077717,2732,2708,1757,2474,1414,925,879,1874,30,18,808
398089,16532768,18074244,16537752,18077848,2891,2689,1615,2739,1230,1114,1017,1835,30,18,808
399090,16532884,18074364,16537883,18077979,2523,2694,1420,2842,1011,1178,1112,1419,14,34,808
400091,16532956,18074520,16538014,18078110,2825,2459,1170,2864,777,1254,765,1387,14,34,808
401092,16533004,18074696,16538145,18078241,3013,2315,882,2885,562,1209,491,1417,17,33,809
402093,16533072,18074900,16538276,18078372,2916,2108,585,2926,372,1215,556,1529,17,33,809
403094,16533148,18075084,16538407,18078503,2892,2211,268,3060,209,1258,664,1692,15,47,809
404095,16533208,18075312,16538538,18078634,3024,1894,-66,3176,54,1194,909,1722,15,47,809
405096,16533272,18075544,16538669,18078765,3029,1825,-411,3276,-95,1177,885,1827,8,42,811
406097,16533348,18075748,16538800,18078896,2979,1969,-777,3428,-233,1116,808,1966,8,42,811
407098,16533452,18075940,16538931,18079027,2817,2017,-1142,3559,-376,962,820,2104,27,36,810
408099,16533532,18076112,16539062,18079158,2991,2125,-1514,3692,-504,852,634,2178,27,36,810
409100,16533648,18076304,16539193,18079289,2773,1974,-1871,3797,-593,712,688,2136,16,46,812
410101,16533760,18076508,16539324,18079420,2808,1867,-2211,3906,-636,692,774,2234,16,46,812
411102,16533852,18076696,16539455,18079551,2951,1943,-2513,3981,-658,661,1003,2314,17,48,812
412103,16533972,18076900,16539586,18079682,2782,1811,-2767,4067,-676,603,1241,2445,17,48,812
413104,16534108,18077080,16539717,18079813,2680,1941,-2974,4148,-675,546,1425,2593,25,35,812
414105,16534212,18077292,16539848,18079944,2893,1705,-3150,4171,-668,474,1697,2576,25,35,812
415106,16534328,18077460,16539979,18080075,2826,1965,-3307,4169,-665,375,1772,2612,22,35,813
416107,16534444,18077636,16540110,18080206,2833,1895,-3446,4130,-674,187,1730,2716,22,35,813
417108,16534548,18077796,16540241,18080337,2921,1983,-3571,4107,-684,-131,1585,2951,16,36,812
418109,16534660,18077980,16540372,18080468,2881,1810,-3689,4126,-677,-437,1394,3116,16,36,812
419110,16534760,18078140,16540503,18080599,2970,1948,-3801,4169,-641,-682,1038,3411,30,27,811
420111,16534880,18078348,16540634,18080730,2852,1614,-3897,4214,-563,-906,601,3620,30,27,811
421112,16534972,18078488,16540765,18080861,3045,2036,-3967,4228,-460,-1139,440,3626,21,30,811
422113,16535080,18078648,16540896,18080992,2956,1899,-4039,4211,-375,-1305,486,3696,21,30,811
423114,16535204,18078772,16541027,18081123,2860,2128,-4118,4131,-313,-1540,308,3711,35,45,810
424115,16535284,18078948,16541158,18081254,3159,1783,-4197,4014,-275,-1721,130,3774,35,45,810
425116,16535396,18079192,16541289,18081385,2968,1308,-4281,3883,-276,-1833,-16,3822,20,43,812
426117,16535500,18079440,16541420,18081516,3031,1233,-4365,3708,-293,-2016,-266,4029,20,43,812
427118,16535596,18079700,16541551,18081647,3097,1101,-4407,3544,-315,-2055,-450,4449,35,51,813
428119,16535700,18079900,16541682,18081778,3060,1447,-3010,5173,-371,-326,-298,24258,35,51,813
429120,16535812,18080100,16541813,18081909,3021,1416,702,9502,-578,2152,-209,32767,35,44,814
430121,16535912,18080288,16541944,18082040,3110,1466,3644,11419,-859,144,381,16899,35,44,814
431122,16536020,18080524,16542075,18082171,3071,1121,4025,10192,-1073,-1009,1537,1478,22,34,813
432123,16536116,18080760,16542206,18082302,3163,1075,3188,7779,-1218,-504,1445,-170,22,34,813
433124,16536204,18080960,16542337,18082433,3233,1270,2320,5940,-1288,27,1398,563,28,51,812
434125,16536292,18081160,16542468,18082564,3253,1240,1738,4235,-1215,-1364,915,-137,28,51,812
435126,16536392,18081344,16542599,18082695,3193,1317,1315,1399,-1057,-2835,89,-2169,20,47,813
436127,16536504,18081528,16542730,18082826,3128,1294,811,-1606,-963,-1981,-107,-851,20,47,813
437128,16536620,18081684,16542861,18082957,3110,1458,130,-3138,-1047,-563,327,1913,35,39,812
438129,16536740,18081860,16542992,18083088,3091,1314,-616,-3630,-1281,221,528,2535,35,39,812
439131,16536848,18082056,16543123,18083219,3177,1161,-1324,-3908,-1547,516,-179,3038,19,29,812
440131,16536964,18082248,16543254,18083350,3136,1159,-1930,-4083,-1755,402,-536,4264,19,29,812
441132,16537056,18082420,16543385,18083481,3304,1266,-2473,-4103,-1930,454,-561,4800,16,44,813
442133,16537188,18082596,16543516,18083612,3054,1221,-3011,-4016,-2144,643,-337,4921,16,44,813
443134,16537320,18082744,16543647,18083743,3055,1390,-3428,-3943,-2356,413,53,4887,39,34,810
444135,16537464,18082904,16543778,18083874,2975,1302,-3727,-3934,-2548,374,-151,4774,39,34,810
445136,16537620,18083036,16543909,18084005,2891,1476,-3944,-3980,-2684,573,-719,4544,37,26,812
446137,16537760,18083164,16544040,18084136,2988,1503,-4055,-4068,-2723,331,-1216,4389,37,26,812
447139,16537928,18083292,16544171,18084267,2798,1504,-4068,-4234,-2739,-62,-1522,4289,42,36,814
448139,16538072,18083412,16544302,18084398,2943,1560,-3952,-4358,-2758,-360,-1752,5480,42,36,814
449140,16538220,18083524,16544433,18084529,2912,1618,-2617,-2565,-2492,-1461,-3852,23653,40,15,814
450141,16538360,18083648,16544564,18084660,2959,1546,-303,610,-2035,-1787,-4137,28669,40,15,814
451142,16538504,18083756,16544695,18084791,2930,1656,1016,1448,-1938,-417,-174,5103,30,10,813
452143,16538640,18083812,16544826,18084922,2979,2014,1154,373,-2106,-199,1003,2123,30,10,813
453144,16538748,18083864,16544957,18085053,3165,2075,957,-1277,-2259,181,293,1214,15,11,813
454145,16538864,18083956,16545088,18085184,3123,1842,908,-2396,-2221,310,-932,1802,15,11,813
455146,16538992,18084080,16545219,18085315,3050,1645,1052,-3124,-2028,-60,-1317,1970,29,18,808
456147,16539124,18084140,16545350,18085446,3027,2076,1211,-3721,-1845,-150,-1511,2079,29,18,808
457148,16539224,18084200,16545481,18085577,3241,2108,1317,-4203,-1704,-521,-1390,2624,17,13,811
458149,16539336,18084224,16545612,18085708,3176,2381,1376,-4566,-1581,-726,-1213,3113,17,13,811
459150,16539452,18084288,16545743,18085839,3158,2160,1339,-4689,-1482,-635,-889,3967,34,7,809
460151,16539576,18084360,16545874,18085970,3112,2136,1216,-4444,-1344,-804,-389,4929,34,7,809
461152,16539704,18084456,16546005,18086101,3090,2002,1031,-3918,-1218,-883,8,5459,26,22,809
462153,16539860,18084532,16546136,18086232,2906,2152,859,-3358,-1156,-954,27,5220,26,22,809
463154,16540000,18084560,16546267,18086363,3003,2497,737,-2879,-1070,-1041,-420,5336,19,18,809
464155,16540144,18084632,16546398,18086494,2973,2249,654,-2351,-903,-786,-763,5395,19,18,809
465156,16540264,18084704,16546529,18086625,3129,2275,583,-1929,-684,-698,-929,4862,39,22,808
466157,16540404,18084796,16546660,18086756,3002,2167,562,-1566,-494,-719,-804,4698,39,22,808
467158,16540556,18084868,16546791,18086887,2918,2319,589,-1334,-381,-553,-875,4156,35,11,808
468159,16540724,18084928,16546922,18087018,2803,2425,646,-1185,-320,-301,-979,3920,35,11,808
469160,16540892,18084968,16547053,18087149,2788,2590,693,-951,-262,-182,-1068,4023,44,27,810
470161,16541068,18085056,16547184,18087280,2719,2310,750,-873,-213,-119,-1218,3349,44,27,810
471162,16541212,18085152,16547315,18087411,2914,2275,814,-880,-188,27,-1371,2964,42,14,809
472163,16541352,18085248,16547446,18087542,2938,2292,903,-978,-164,201,-1362,2593,42,14,809
473164,16541496,18085328,16547577,18087673,2908,2414,1000,-1198,-141,620,-1345,2187,21,9,810
474165,16541624,18085368,16547708,18087804,3010,2705,1109,-1470,-136,921,-921,2012,21,9,810
475166,16541756,18085416,16547839,18087935,2986,2691,1207,-1695,-187,938,205,1997,35,19,809
476167,16541908,18085472,16547970,18088066,2852,2675,1255,-1926,-320,1035,664,1997,35,19,809
477168,16542032,18085564,16548101,18088197,3032,2468,1272,-2086,-494,1066,774,2173,41,25,806
478169,16542152,18085636,16548232,18088328,3063,2620,1280,-2070,-628,1149,35,2663,41,25,806
479170,16542284,18085680,16548363,18088459,2989,2833,1313,-1964,-700,1290,-740,2769,29,27,808
480171,16542440,18085704,16548494,18088590,2829,3006,1353,-1812,-739,1227,-871,2907,29,27,808
481172,16542576,18085792,16548625,18088721,2953,2625,1366,-1580,-773,1221,-917,3035,30,26,806
482173,16542700,18085848,16548756,18088852,3032,2859,1351,-1377,-820,1256,-925,3086,30,26,806
483174,16542852,18085944,16548887,18088983,2849,2624,1318,-1089,-879,1176,-658,3240,39,9,807
484175,16542968,18086028,16549018,18089114,3081,2721,1275,-728,-961,974,-13,3284,39,9,807
485176,16543104,18086060,16549149,18089245,2956,3089,1224,-343,-1037,965,52,3321,22,15,807
486177,16543276,18086080,16549280,18089376,2714,3214,1174,20,-1097,930,9,3169,22,15,807
487178,16543416,18086172,16549411,18089507,2911,2782,1126,296,-1129,969,-355,2851,25,17,805
488179,16543516,18086268,16549542,18089638,3176,2772,1077,453,-1155,996,-672,2540,25,17,805
489180,16543652,18086348,16549673,18089769,2949,2896,1022,518,-1177,955,-504,2234,31,12,805
490181,16543780,18086444,16549804,18089900,3002,2812,953,537,-1193,995,-506,1948,31,12,805
491182,16543888,18086480,16549935,18090031,3139,3229,876,504,-1199,998,-314,1805,25,26,806
492183,16544020,18086528,16550066,18090162,2989,3191,798,453,-1203,896,64,1666,25,26,806
493184,16544144,18086648,16550197,18090293,3044,2747,713,309,-1199,859,107,1420,17,28,804
494185,16544228,18086744,16550328,18090424,3315,2913,625,105,-1179,780,79,1218,17,28,804
495186,16544356,18086852,16550459,18090555,3042,2849,535,-105,-1138,758,53,1178,36,20,806
496187,16544492,18086932,16550590,18090686,2991,3047,433,-269,-1078,661,-54,1239,36,20,806
497188,16544576,18086996,16550721,18090817,3338,3177,302,-399,-998,552,-168,1418,32,30,805
498189,16544680,18087056,16550852,18090948,3227,3234,149,-457,-904,426,-332,1595,32,30,805
499190,16544828,18087168,16550983,18091079,2945,2918,-17,-493,-811,303,-384,1719,34,22,802
500191,16544916,18087300,16551114,18091210,3340,2794,-192,-453,-722,184,-450,1979,34,22,802
501192,16545012,18087432,16551245,18091341,3307,2793,-388,-378,-622,103,-485,2084,35,33,803
502193,16545124,18087528,16551376,18091472,3216,3035,-602,-240,-512,66,-461,2192,35,33,803
503194,16545232,18087592,16551507,18091603,3253,3265,-822,-106,-406,40,-394,2177,31,25,804
504195,16545312,18087668,16551638,18091734,3451,3215,-1036,-59,-306,18,-341,2078,31,25,804
505196,16545436,18087764,16551769,18091865,3181,3106,-1244,-86,-218,52,-282,2044,33,15,802
506197,16545588,18087872,16551900,18091996,2997,3042,-1450,-96,-129,86,-276,2067,33,15,802
507198,16545684,18087996,16552031,18092127,3364,2946,-1656,-149,-35,141,-271,2077,42,19,803
508199,16545836,18088100,16552162,18092258,3006,3084,-1853,-230,37,180,-256,1957,42,19,803
509200,16545996,18088104,16552293,18092389,2945,3766,-2041,-346,81,179,-150,1961,24,23,803
510201,16546140,18088148,16552424,18092520,3040,3554,-2216,-520,105,236,22,1982,24,23,803
511211,16546236,18088280,16552564,18092660,3360,3008,-2407,-674,121,264,143,2150,21,26,801
512203,16546380,18088400,16552695,18092791,3056,3089,-2608,-841,129,164,239,2223,21,26,801
513204,16546508,18088548,16552826,18092922,3159,2908,-2796,-985,112,135,323,2232,38,23,802
514205,16546608,18088600,16552957,18093053,3349,3543,-2971,-1157,96,184,290,2295,38,23,802
515206,16546736,18088656,16553088,18093184,3176,3552,-3151,-1317,86,264,230,2554,31,18,805
516207,16546848,18088744,16553219,18093315,3285,3371,-3325,-1488,67,256,246,2670,31,18,805
517208,16546924,18088868,16553350,18093446,3535,3150,-3492,-1672,40,265,49,2728,16,26,799
518209,16547036,18089012,16553481,18093577,3321,3021,-3653,-1821,32,339,-315,3047,16,26,799
519210,16547180,18089184,16553612,18093708,3116,2829,-3804,-1916,53,356,-317,3313,32,24,801
520211,16547268,18089308,16553743,18093839,3486,3133,-3937,-1984,59,351,52,3508,32,24,801
521212,16547344,18089380,16553874,18093970,3586,3485,-4037,-2018,35,341,353,3686,31,36,802
522213,16547484,18089472,16554005,18094101,3184,3378,-4095,-2067,2,418,366,3982,31,36,802
523214,16547600,18089620,16554136,18094232,3342,3021,-4122,-2062,-22,526,279,4337,18,33,799
524215,16547700,18089752,16554267,18094363,3456,3121,-3784,-1675,-21,909,71,7807,18,33,799
525216,16547832,18089944,16554398,18094494,3257,2720,-1181,3126,10,3039,-335,32767,26,32,803
526217,16547952,18090072,16554529,18094625,3339,3122,1928,7867,69,1616,-815,28572,26,32,803
527218,16548044,18090180,16554660,18094756,3532,3258,2857,8136,17,1128,679,1019,31,39,804
528219,16548152,18090292,16554791,18094887,3443,3243,2381,5735,-72,1399,519,-656,31,39,804
529220,16548320,18090456,16554922,18095018,3053,2904,1807,3056,-152,1902,134,-1217,38,36,801
530221,16548420,18090636,16555053,18095149,3493,2784,1470,1353,-179,1586,-71,4,38,36,801
531222,16548540,18090800,16555184,18095280,3374,2870,1207,168,-158,1254,-548,264,20,31,803
532223,16548688,18090936,16555315,18095411,3193,3043,810,-756,-217,1266,-798,1237,20,31,803
533224,16548800,18091056,16555446,18095542,3427,3149,358,-1659,-321,605,-585,1546,28,41,803
534225,16548908,18091184,16555577,18095673,3464,3101,-88,-2606,-484,376,-270,1531,28,41,803
535226,16549068,18091364,16555708,18095804,3127,2756,-508,-3473,-746,201,314,1742,38,35,800
536227,16549192,18091560,16555839,18095935,3357,2628,-898,-4159,-991,-258,465,2705,38,35,800
537228,16549300,18091732,16555970,18096066,3468,2761,-1261,-4474,-1197,-245,-153,3659,36,38,805
538229,16549440,18091888,16556101,18096197,3266,2850,-1575,-4654,-1322,-407,-845,3912,36,38,805
539230,16549604,18091984,16556232,18096328,3102,3241,-1828,-4602,-1336,-662,-1269,4937,39,31,804
540231,16549744,18092088,16556363,18096459,3249,3204,-2021,-4471,-1293,-671,-1337,4975,39,31,804
541232,16549892,18092256,16556494,18096590,3193,2789,-2103,-4484,-1221,-866,-806,5066,35,42,804
542233,16550080,18092424,16556625,18096721,2920,2774,-1702,-3787,-1105,-827,5,11472,35,42,804
543234,16550232,18092628,16556756,18096852,3136,2518,-585,-2057,-969,-557,795,19781,26,47,804
544235,16550388,18092772,16556887,18096983,3102,2887,215,-1134,-864,-407,1211,7751,26,47,804
545236,16550576,18092944,16557018,18097114,2877,2695,317,-1325,-744,-242,1610,4018,42,36,807
546237,16550736,18093096,16557149,18097245,3042,2812,147,-2162,-609,112,1709,2939,42,36,807
547238,16550860,18093288,16557280,18097376,3271,2536,31,-2890,-491,280,1794,3073,46,38,807
548239,16551068,18093472,16557411,18097507,2713,2564,76,-3425,-391,61,1928,2763,46,38,807
549240,16551232,18093668,16557542,18097638,2974,2460,198,-3908,-339,165,1608,2761,26,34,807
550241,16551428,18093872,16557673,18097769,2748,2379,296,-4274,-296,59,1568,3300,26,34,807
551242,16551604,18094024,16557804,18097900,2854,2696,328,-4485,-197,-26,1502,3841,32,34,809
552243,16551832,18094196,16557935,18098031,2487,2554,283,-4497,-129,5,1471,4096,32,34,809
553244,16552012,18094372,16558066,18098162,2767,2509,215,-4469,-177,-346,1761,4212,31,42,808
554245,16552184,18094568,16558197,18098293,2800,2356,149,-4389,-276,-334,1485,4452,31,42,808
555246,16552444,18094704,16558328,18098424,2194,2730,78,-4229,-380,-20,1297,4546,45,45,809
556247,16552628,18094876,16558459,18098555,2648,2487,-9,-3954,-441,-4,1237,4948,45,45,809
557248,16552796,18095016,16558590,18098686,2733,2684,-104,-3567,-505,33,1209,5093,30,44,811
558249,16553008,18095200,16558721,18098817,2423,2387,-170,-3382,-630,64,1419,4390,30,44,811
559250,16553184,18095368,16558852,18098948,2629,2471,-210,-3224,-762,122,1363,4408,43,44,809
560251,16553352,18095552,16558983,18099079,2664,2348,-231,-3178,-852,311,1370,3777,43,44,809
561252,16553568,18095712,16559114,18099210,2328,2487,-227,-3383,-894,498,1241,3109,47,28,811
562253,16553776,18095868,16559245,18099341,2345,2501,-223,-3626,-872,614,1097,3043,47,28,811
563254,16553944,18095988,16559376,18099472,2580,2732,-222,-3931,-810,759,970,2576,49,23,811
564255,16554136,18096120,16559507,18099603,2404,2657,-228,-4262,-757,818,843,2606,49,23,811
565256,16554316,18096248,16559638,18099734,2458,2683,-220,-4547,-704,628,876,2593,33,39,809
566257,16554468,18096384,16559769,18099865,2625,2632,-180,-4873,-660,767,785,2412,33,39,809
567258,16554624,18096544,16559900,18099996,2590,2470,-136,-5077,-624,879,621,2768,42,36,810
568259,16554804,18096648,16560031,18100127,2420,2832,-100,-5132,-574,633,375,3111,42,36,810
569260,16554980,18096756,16560162,18100258,2426,2818,-77,-5107,-555,508,19,3205,27,33,809
570262,16555164,18096892,16560293,18100389,2353,2642,-65,-4984,-531,318,-369,3723,27,33,809
571262,16555372,18096992,16560424,18100520,2171,2881,-62,-4643,-459,295,-695,4249,48,18,809
572263,16555556,18097116,16560555,18100651,2298,2735,-73,-4201,-371,335,-912,4422,48,18,809
573264,16555748,18097240,16560686,18100782,2223,2739,-68,-3784,-292,262,-680,4364,42,34,811
574265,16555948,18097368,16560817,18100913,2143,2715,-49,-3316,-237,390,-446,4452,42,34,811
575267,16556168,18097464,16560948,18101044,1980,2932,-17,-2870,-182,571,-227,4325,31,36,810
576267,16556372,18097588,16561079,18101175,2049,2761,47,-2409,-106,619,71,4362,31,36,810
577268,16556616,18097708,16561210,18101306,1750,2792,143,-2020,-33,623,391,4022,43,32,810
578269,16556916,18097824,16561341,18101437,1327,2823,260,-1771,29,626,588,3552,43,32,810
579271,16557128,18097972,16561472,18101568,1841,2617,388,-1574,101,532,433,3569,45,31,811
580271,16557328,18098104,16561603,18101699,1887,2717,480,-1357,155,324,61,3617,45,31,811
581272,16557560,18098192,16561734,18101830,1644,3011,555,-1060,213,221,-494,3746,58,15,813
582273,16557760,18098300,16561865,18101961,1814,2897,588,-724,280,162,-1221,3720,58,15,813
583274,16558008,18098420,16561996,18102092,1464,2828,546,-490,346,420,-1429,3317,64,17,812
584276,16558300,18098544,16562127,18102223,1118,2806,457,-240,494,567,-1281,3409,64,17,812
585276,16558588,18098684,16562258,18102354,1075,2703,330,-48,730,272,-1457,3300,60,19,812
586278,16558876,18098816,16562389,18102485,1007,2754,177,221,992,113,-1634,3367,60,19,812
587278,16559128,18098928,16562520,18102616,1179,2887,73,398,1283,-394,-1905,2967,65,32,814
588279,16559376,18099064,16562651,18102747,1154,2736,-5,601,1563,-902,-2523,3401,65,32,814
589280,16559648,18099176,16562782,18102878,943,2895,-100,868,1817,-1412,-2756,3427,47,21,815
590281,16559884,18099308,16562913,18103009,1122,2771,-194,930,2032,-1668,-2787,2843,47,21,815
591282,16560080,18099452,16563044,18103140,1344,2690,-266,923,2210,-1503,-2719,2750,50,23,815
592283,16560320,18099556,16563175,18103271,1021,2953,-317,766,2381,-1593,-2589,2431,50,23,815
593284,16560524,18099672,16563306,18103402,1215,2886,-345,569,2539,-1555,-2288,2235,52,26,815
594285,16560708,18099764,16563437,18103533,1318,3053,-421,302,2663,-1657,-1587,2067,52,26,815
595286,16560904,18099852,16563568,18103664,1214,3098,-576,52,2788,-1746,-1271,2344,50,18,814
596287,16561084,18099964,16563699,18103795,1294,2957,-737,-120,2931,-1837,-1511,2341,50,18,814
597288,16561244,18100100,16563830,18103926,1406,2806,-859,-372,3102,-2104,-1933,2271,39,14,812
598289,16561400,18100188,16563961,18104057,1421,3125,-971,-518,3304,-2036,-2249,3097,39,14,812
599290,16561564,18100288,16564092,18104188,1356,3064,-1110,-495,3529,-1904,-2464,3411,23,15,813
600291,16561672,18100400,16564223,18104319,1718,2999,-1250,-462,3728,-1805,-2482,3665,23,15,813
601292,16561812,18100500,16564354,18104450,1514,3087,-1386,-374,3888,-1844,-2518,4025,39,23,812
602293,16561972,18100660,16564485,18104581,1377,2701,-1491,-310,4012,-1798,-2398,4098,39,23,812
603295,16562072,18100772,16564616,18104712,1765,3010,-1553,-253,4104,-1512,-1900,3999,18,16,811
604295,16562176,18100880,16564747,18104843,1752,3046,-1606,-404,4163,-1231,-1261,3594,18,16,811
605296,16562320,18101012,16564878,18104974,1498,2896,-1676,-642,4202,-868,-830,3582,16,29,815
606297,16562408,18101108,16565009,18105105,1867,3137,-1753,-945,4217,-407,-478,3517,16,29,815
607299,16562512,18101208,16565140,18105236,1779,3127,-1809,-1302,4178,-1,-44,3375,17,23,811
608299,16562648,18101304,16565271,18105367,1577,3168,-1844,-1680,4095,310,-131,3444,17,23,811
609301,16562720,18101392,16565402,18105498,2004,3238,-1860,-2080,3991,714,-341,3503,12,26,809
610301,16562800,18101468,16565533,18105629,1977,3337,-1864,-2449,3815,1184,15,3743,12,26,809
611302,16562912,18101556,16565664,18105760,1786,3282,-1852,-2762,3556,1401,178,3874,26,22,810
612303,16562956,18101652,16565795,18105891,2250,3248,-1831,-3082,3261,1558,60,4174,26,22,810
613304,16563024,18101764,16565926,18106022,2128,3158,-1824,-3305,2922,1807,120,4514,24,22,806
614305,16563124,18101836,16566057,18106153,1942,3435,-1838,-3383,2567,2006,-98,4939,24,22,806
615306,16563176,18101920,16566188,18106284,2277,3380,-1887,-3308,2207,2200,-349,5349,15,10,807
616307,16563240,18102004,16566319,18106415,2233,3402,-1954,-3234,1864,2306,-641,5461,15,10,807
617308,16563328,18102120,16566450,18106546,2101,3210,-2004,-3200,1553,2403,-908,5491,30,28,807
618309,16563436,18102212,16566581,18106677,1988,3378,-2034,-3088,1277,2438,-1232,5760,30,28,807
619310,16563528,18102340,16566712,18106808,2106,3155,-2048,-2862,1049,2381,-1542,6152,29,16,807
620311,16563652,18102460,16566843,18106939,1909,3211,-2043,-2542,866,2300,-1545,6440,29,16,807
621312,16563756,18102568,16566974,18107070,2047,3296,-1991,-2305,697,2337,-1231,6326,32,13,807
622313,16563828,18102664,16567105,18107201,2273,3387,-1862,-2122,499,2312,-719,6283,32,13,807
623315,16563928,18102788,16567236,18107332,2112,3216,-1609,-1900,307,2112,-412,7170,21,26,809
624315,16564012,18102904,16567367,18107463,2234,3274,-1058,-1104,195,1736,-194,12160,21,26,809
625316,16564072,18103036,16567498,18107594,2415,3175,-467,-448,84,1684,614,8291,26,20,807
626317,16564164,18103164,16567629,18107725,2233,3202,-149,-336,-52,1539,612,5624,26,20,807
627318,16564260,18103276,16567760,18107856,2225,3311,-9,-530,-169,1420,-43,5264,25,39,808
628319,16564324,18103448,16567891,18107987,2454,2918,101,-716,-234,1177,-722,5173,25,39,808
629320,16564408,18103640,16568022,18108118,2351,2767,249,-773,-260,803,-1200,5356,30,38,808
630321,16564508,18103808,16568153,18108249,2265,2902,409,-753,-259,537,-1588,5224,30,38,808
631323,16564584,18103956,16568284,18108380,2439,3021,571,-763,-237,215,-1627,5119,29,24,808
632323,16564668,18104116,16568415,18108511,2411,2934,713,-722,-178,-184,-1794,5396,29,24,808
633324,16564752,18104260,16568546,18108642,2433,3029,827,-602,-80,-447,-2090,5584,13,33,809
634325,16564848,18104440,16568677,18108773,2373,2784,922,-356,68,-755,-2346,5882,13,33,809
635326,16564912,18104624,16568808,18108904,2604,2735,1021,-84,248,-1139,-2628,5896,20,42,809
636334,16564996,18104836,16568948,18109044,2504,2530,1157,59,386,-1183,-2452,5286,20,42,809
637328,16565052,18105048,16569079,18109175,2713,2495,1349,52,481,-1115,-2277,4797,12,38,810
638329,16565108,18105268,16569210,18109306,2746,2407,1559,-75,582,-1036,-2297,4531,12,38,810
639330,16565180,18105460,16569341,18109437,2673,2556,1734,-206,690,-816,-2234,4505,16,45,811
640331,16565236,18105680,16569472,18109568,2807,2342,1857,-243,796,-562,-1684,4581,16,45,811
641332,16565272,18105900,16569603,18109699,2975,2304,1944,-259,880,-418,-1443,4507,25,52,810
642333,16565324,18106124,16569734,18109830,2910,2239,2031,-334,915,-97,-1377,4186,25,52,810
643334,16565396,18106340,16569865,18109961,2811,2252,2123,-444,934,115,-1533,4001,15,50,809
644335,16565436,18106572,16569996,18110092,3052,2108,2210,-601,961,389,-1464,3881,15,50,809
645336,16565480,18106772,16570127,18110223,3067,2279,2291,-733,992,577,-1415,3749,23,44,809
646337,16565552,18106984,16570258,18110354,2919,2168,2358,-871,1031,643,-1400,3827,23,44,809
647338,16565616,18107148,16570389,18110485,2999,2455,2405,-949,1040,712,-1087,3799,19,34,809
648339,16565684,18107356,16570520,18110616,3003,2147,2444,-1037,998,802,-706,3658,19,34,809
649340,16565788,18107592,16570651,18110747,2791,1926,2476,-1091,943,822,-484,3668,26,36,810
650341,16565904,18107836,16570782,18110878,2723,1827,2477,-1100,911,767,-721,3863,26,36,810
651342,16566020,18108056,16570913,18111009,2731,1939,2446,-960,940,460,-1262,4245,14,34,810
652343,16566128,18108276,16571044,18111140,2792,1900,2409,-719,1015,98,-1462,4397,14,34,810
653344,16566232,18108440,16571175,18111271,2829,2237,2393,-569,1076,-47,-972,4050,16,39,812
654345,16566316,18108620,16571306,18111402,2975,2115,2399,-537,1101,140,-309,3539,16,39,812
655346,16566408,18108856,16571437,18111533,2944,1720,2387,-559,1118,476,-13,3393,15,36,811
656347,16566496,18109112,16571568,18111664,2988,1540,2343,-631,1152,850,111,3144,15,36,811
657348,16566576,18109320,16571699,18111795,3062,1807,2293,-741,1174,936,418,2791,18,51,810
658349,16566648,18109540,16571830,18111926,3139,1693,2260,-919,1169,878,693,2380,18,51,810
659350,16566732,18109708,16571961,18112057,3085,2003,2228,-1173,1133,909,1048,2107,28,38,812
660351,16566840,18109880,16572092,18112188,2947,1960,2179,-1363,1097,848,1179,2292,28,38,812
661352,16566928,18110080,16572223,18112319,3091,1755,2099,-1408,1075,721,1245,2454,30,37,811
662353,16567068,18110360,16572354,18112450,2763,1190,1993,-1376,982,532,1860,2470,30,37,811
663354,16567216,18110588,16572485,18112581,2707,1472,1870,-1326,799,346,2312,2579,25,39,811
664355,16567400,18110792,16572616,18112712,2460,1591,1759,-1199,609,433,2649,2607,25,39,811
665356,16567580,18111004,16572747,18112843,2464,1506,1671,-1045,468,361,2799,2613,28,50,814
666357,16567720,18111180,16572878,18112974,2711,1711,1598,-824,405,37,2522,2810,28,50,814
667358,16567852,18111424,16573009,18113105,2762,1237,1550,-613,406,-131,1831,2492,37,53,815
668359,16567972,18111680,16573140,18113236,2843,1107,1512,-475,426,-26,1406,2288,37,53,815
669360,16568104,18111904,16573271,18113367,2768,1266,1460,-379,455,259,1237,2119,37,39,814
670361,16568228,18112132,16573402,18113498,2822,1200,1407,-319,485,406,999,1695,37,39,814
671362,16568400,18112340,16573533,18113629,2505,1291,1353,-251,527,274,665,1768,39,43,815
672363,16568572,18112532,16573664,18113760,2488,1364,1276,-107,594,75,418,2056,39,43,815
673364,16568780,18112728,16573795,18113891,2230,1311,1153,92,667,80,271,1996,41,34,815
674365,16568972,18112928,16573926,18114022,2305,1256,1029,243,732,-61,309,1786,41,34,815
675366,16569116,18113160,16574057,18114153,2600,1012,917,360,791,-204,207,1843,30,50,815
676367,16569252,18113376,16574188,18114284,2649,1075,801,477,809,29,348,1681,30,50,815
677368,16569392,18113580,16574319,18114415,2621,1117,677,537,829,519,264,1581,40,37,817
678369,16569520,18113808,16574450,18114546,2698,925,545,508,820,1026,322,1268,40,37,817
679370,16569656,18113972,16574581,18114677,2647,1311,413,462,763,1225,239,1058,23,42,816
680371,16569832,18114156,16574712,18114808,2378,1163,255,466,684,1048,-21,1458,23,42,816
681372,16570012,18114360,16574843,18114939,2332,1006,60,568,595,782,-299,1767,34,49,817
682373,16570180,18114600,16574974,18115070,2392,733,-159,738,500,813,-474,1752,34,49,817
683374,16570312,18114812,16575105,18115201,2617,872,-356,860,415,963,-424,1508,46,36,817
684375,16570476,18115052,16575236,18115332,2403,650,-511,757,317,1263,-110,984,46,36,817
685376,16570588,18115284,16575367,18115463,2738,655,-673,625,160,1674,-4,1191,36,39,818
686377,16570728,18115456,16575498,18115594,2560,1012,-865,566,-10,2036,-82,1401,36,39,818
687378,16570880,18115624,16575629,18115725,2476,1021,-1061,576,-172,2349,-45,1545,34,51,817
688379,16571040,18115852,16575760,18115856,2415,603,-1230,623,-329,2420,-101,1611,34,51,817
689380,16571216,18116072,16575891,18115987,2296,614,-1377,680,-479,2333,-10,1752,22,34,817
690381,16571368,18116248,16576022,18116118,2438,869,-1536,776,-651,2286,76,1993,22,34,817
691382,16571532,18116416,16576153,18116249,2349,903,-1690,846,-846,2231,255,1891,24,26,819
692383,16571644,18116556,16576284,18116380,2684,1074,-1842,841,-1022,2383,279,1964,24,26,819
693384,16571800,18116684,16576415,18116511,2398,1150,-1992,870,-1160,2601,81,1947,27,36,818
694385,16571924,18116808,16576546,18116642,2602,1179,-2126,842,-1267,2699,-43,1856,27,36,818
695386,16572056,18116964,16576677,18116773,2552,968,-2226,816,-1375,2646,-280,1921,32,19,816
696387,16572224,18117112,16576808,18116904,2312,1010,-2323,881,-1493,2379,-627,2282,32,19,816
697388,16572364,18117260,16576939,18117035,2484,1003,-2423,1042,-1592,2150,-814,2643,20,27,815
698389,16572528,18117380,16577070,18117166,2320,1182,-2537,1285,-1669,1958,-994,2991,20,27,815
699390,16572700,18117440,16577201,18117297,2253,1589,-2642,1532,-1742,1663,-999,3039,46,26,817
700391,16572868,18117500,16577332,18117428,2263,1620,-2713,1697,-1809,1419,-961,2938,46,26,817
701392,16572988,18117600,16577463,18117559,2568,1383,-2760,1784,-1870,1253,-961,2753,30,14,817
702393,16573092,18117736,16577594,18117690,2681,1156,-2787,1754,-1918,1217,-981,2559,30,14,817
703395,16573208,18117844,16577725,18117821,2614,1341,-2797,1712,-1946,1241,-922,2644,12,26,816
704395,16573312,18117956,16577856,18117952,2701,1325,-2785,1619,-1962,1054,-821,2590,12,26,816
705396,16573412,18118080,16577987,18118083,2741,1253,-2767,1512,-1966,695,-769,2758,14,22,815
706397,16573544,18118176,16578118,18118214,2542,1443,-2751,1469,-1946,389,-697,2952,14,22,815
707398,16573668,18118244,16578249,18118345,2596,1646,-2743,1450,-1911,277,-632,3150,32,20,814
708399,16573812,18118364,16578380,18118476,2465,1326,-2759,1455,-1863,161,-764,3392,32,20,814
709401,16573952,18118492,16578511,18118607,2487,1277,-2813,1417,-1801,-156,-883,3585,23,23,815
710401,16574124,18118584,16578642,18118738,2270,1519,-2872,1321,-1752,-561,-789,3654,23,23,815
711402,16574256,18118736,16578773,18118869,2521,1135,-2904,1266,-1681,-782,-979,4082,38,15,816
712403,16574356,18118840,16578904,18119000,2735,1447,-2955,1321,-1565,-599,-989,4620,38,15,816
713404,16574456,18118944,16579035,18119131,2750,1459,-3042,1407,-1404,84,-767,4883,16,17,816
714405,16574584,18119072,16579166,18119262,2577,1310,-3153,1484,-1228,576,-430,4783,16,17,816
715406,16574696,18119200,16579297,18119393,2686,1311,-3257,1485,-1065,667,-198,4785,27,13,814
716407,16574832,18119300,16579428,18119524,2534,1500,-3329,1371,-959,592,213,4712,27,13,814
717408,16574992,18119440,16579559,18119655,2372,1246,-3377,1123,-901,572,418,4595,21,32,814
718409,16575128,18119532,16579690,18119786,2521,1563,-3403,834,-866,733,649,4565,21,32,814
719411,16575268,18119616,16579821,18119917,2493,1634,-3409,479,-822,1039,916,4899,32,21,814
720411,16575464,18119776,16579952,18120048,2116,1146,-3421,226,-788,1545,1188,5959,32,21,814
721412,16575616,18119912,16580083,18120179,2383,1294,-2353,1561,-847,4640,1055,21137,35,32,814
722413,16575740,18120060,16580214,18120310,2562,1211,517,6912,-1240,9042,154,32767,35,32,814
723414,16575864,18120204,16580345,18120441,2565,1231,2255,8964,-1572,3268,1957,7598,26,17,818
724415,16576000,18120320,16580476,18120572,2488,1412,2380,7483,-1750,2530,1719,2069,26,17,818
725416,16576144,18120456,16580607,18120703,2434,1285,1825,4790,-1831,2586,459,849,34,32,815
726417,16576296,18120576,16580738,18120834,2376,1390,1462,2747,-1825,2198,-501,1143,34,32,815
727418,16576460,18120692,16580869,18120965,2287,1422,1247,1409,-1740,1880,-1002,1726,27,19,816
728419,16576644,18120844,16581000,18121096,2140,1188,1059,320,-1645,1748,-1039,1700,27,19,816
729420,16576820,18120920,16581131,18121227,2171,1687,863,-829,-1592,1708,-904,1932,49,16,816
730421,16577024,18121012,16581262,18121358,1964,1605,693,-2028,-1591,1511,-1020,2060,49,16,816
731422,16577192,18121112,16581393,18121489,2174,1568,516,-3006,-1639,1347,-981,2958,46,34,818
732423,16577336,18121248,16581524,18121620,2319,1341,191,-3404,-1691,1402,-540,4918,46,34,818
733424,16577504,18121412,16581655,18121751,2154,1151,-126,-3628,-1725,1435,-352,4536,40,25,817
734425,16577704,18121564,16581786,18121882,1924,1217,-412,-3648,-1764,1631,-229,5709,40,25,817
735426,16577928,18121680,16581917,18122013,1733,1449,-746,-3191,-1774,1764,283,7356,29,33,817
736427,16578140,18121828,16582048,18122144,1774,1241,-1070,-2564,-1783,1777,529,7560,29,33,817
737428,16578396,18121964,16582179,18122275,1445,1314,-1231,-2161,-1813,1512,544,6284,58,22,819
738429,16578600,18122096,16582310,18122406,1739,1339,-1200,-2085,-1840,1107,550,5378,58,22,819
739430,16578768,18122224,16582441,18122537,1948,1365,-1075,-2243,-1902,1211,735,4918,32,30,820
740431,16578988,18122364,16582572,18122668,1585,1286,-947,-2370,-1985,1164,468,5102,32,30,820
741432,16579148,18122468,16582703,18122799,1948,1523,-862,-2121,-2041,1007,331,5963,47,26,819
742433,16579356,18122604,16582834,18122930,1614,1321,-800,-1717,-2080,910,316,5969,47,26,819
743434,16579608,18122744,16582965,18123061,1287,1292,-727,-1404,-2100,396,158,5740,47,20,819
744435,16579800,18122908,16583096,18123192,1636,1128,-605,-1156,-2145,-220,552,5447,47,20,819
745436,16579988,18123028,16583227,18123323,1636,1408,-416,-1119,-2217,-460,543,4582,31,16,820
746437,16580164,18123144,16583358,18123454,1692,1440,-208,-1181,-2268,-392,290,4431,31,16,820
747438,16580332,18123252,16583489,18123585,1726,1500,-39,-1222,-2239,-104,49,4410,47,24,821
748439,16580520,18123356,16583620,18123716,1577,1537,91,-1301,-2154,43,26,3978,47,24,821
749440,16580724,18123468,16583751,18123847,1446,1495,216,-1451,-2056,-266,285,3705,45,13,819
750441,16580928,18123564,16583882,18123978,1414,1610,367,-1666,-1965,-769,550,3515,45,13,819
751442,16581104,18123684,16584013,18124109,1570,1465,525,-1889,-1857,-1052,606,3504,43,30,819
752443,16581248,18123760,16584144,18124240,1764,1764,659,-1958,-1681,-1155,557,3892,43,30,819
753444,16581424,18123848,16584275,18124371,1545,1708,758,-1991,-1470,-985,721,3735,41,24,819
754445,16581572,18123940,16584406,18124502,1713,1700,826,-2114,-1304,-736,1054,3252,41,24,819
755446,16581756,18124064,16584537,18124633,1466,1504,884,-2302,-1188,-655,1229,3183,24,29,818
756447,16581896,18124172,16584668,18124764,1737,1614,900,-2420,-1084,-717,713,3449,24,29,818
757448,16582116,18124304,16584799,18124895,1199,1464,877,-2349,-939,-951,-273,3897,24,17,818
758449,16582280,18124384,16584930,18125026,1535,1812,816,-2166,-813,-1367,-346,4000,24,17,818
759450,16582468,18124464,16585061,18125157,1360,1834,692,-1962,-743,-1400,-295,3995,32,13,819
760451,16582628,18124592,16585192,18125288,1523,1535,514,-1847,-691,-1127,176,3529,32,13,819
761459,16582784,18124700,16585332,18125428,1541,1674,333,-1910,-649,-731,694,3116,26,15,819
762453,16582936,18124788,16585463,18125559,1558,1818,169,-2066,-622,-314,897,2755,26,15,819
763454,16583080,18124876,16585594,18125690,1602,1837,-7,-2197,-603,-76,740,2805,19,10,819
764455,16583244,18124952,16585725,18125821,1463,1937,-265,-2099,-571,185,180,3441,19,10,819
765456,16583456,18125052,16585856,18125952,1128,1801,-507,-2017,-537,295,89,2939,41,11,817
766457,16583612,18125136,16585987,18126083,1467,1922,-663,-2073,-522,396,296,2615,41,11,817
767458,16583792,18125236,16586118,18126214,1297,1835,-771,-2220,-537,417,492,2512,33,27,818
768459,16583984,18125352,16586249,18126345,1195,1742,-881,-2382,-583,448,598,2591,33,27,818
769460,16584144,18125456,16586380,18126476,1383,1829,-974,-2462,-662,623,692,2620,25,13,818
770461,16584292,18125564,16586511,18126607,1451,1815,-1072,-2455,-763,1010,592,2868,25,13,818
771462,16584472,18125672,16586642,18126738,1230,1825,-1208,-2306,-865,1325,410,3141,38,15,820
772463,16584660,18125780,16586773,18126869,1155,1835,-1354,-2165,-969,1304,194,3012,38,15,820
773464,16584820,18125908,16586904,18127000,1317,1711,-1501,-2054,-1083,1098,-16,3047,38,27,819
774465,16585008,18126028,16587035,18127131,1118,1766,-1679,-1874,-1197,775,-326,3435,38,27,819
775466,16585204,18126144,16587166,18127262,1040,1799,-1859,-1635,-1309,631,-195,3338,22,21,819
776467,16585348,18126240,16587297,18127393,1360,1939,-2022,-1434,-1428,733,119,3135,22,21,819
777468,16585520,18126348,16587428,18127524,1167,1874,-2181,-1237,-1525,932,-8,3124,37,18,820
778469,16585668,18126476,16587559,18127655,1310,1751,-2296,-1185,-1605,1257,-61,2498,37,18,820
779470,16585784,18126588,16587690,18127786,1517,1859,-2359,-1261,-1694,1532,-223,2155,39,17,819
780471,16585928,18126724,16587821,18127917,1336,1708,-2457,-1298,-1767,1401,-633,2586,39,17,819
781472,16586132,18126852,16587952,18128048,929,1759,-2638,-1114,-1793,1282,-960,3309,36,27,819
782473,16586308,18126968,16588083,18128179,1086,1841,-2823,-852,-1803,1140,-857,3120,36,27,819
783474,16586424,18127108,16588214,18128310,1467,1687,-2947,-657,-1797,982,-752,2966,38,34,820
784475,16586572,18127232,16588345,18128441,1260,1791,-3034,-438,-1773,829,-811,3166,38,34,820
785476,16586740,18127348,16588476,18128572,1119,1847,-3114,-205,-1735,698,-569,3194,31,34,819
786477,16586908,18127496,16588607,18128703,1103,1640,-3196,-28,-1689,731,-291,3034,31,34,819
787478,16587076,18127628,16588738,18128834,1087,1739,-3291,209,-1647,790,-253,3246,42,19,819
788479,16587224,18127772,16588869,18128965,1205,1660,-3386,470,-1616,554,-333,3256,42,19,819
789480,16587376,18127924,16589000,18129096,1171,1601,-3462,705,-1591,244,-326,3276,40,36,821
790481,16587524,18128048,16589131,18129227,1189,1779,-3524,961,-1545,55,-403,3385,40,36,821
791482,16587692,18128180,16589262,18129358,1048,1728,-3611,1283,-1468,-58,-897,3609,39,32,820
792483,16587892,18128316,16589393,18129489,818,1701,-3692,1568,-1380,-237,-1515,3496,39,32,820
793484,16588032,18128460,16589524,18129620,1189,1646,-3753,1725,-1300,-493,-1888,3307,30,36,820
794485,16588196,18128576,16589655,18129751,1025,1828,-3819,1866,-1232,-654,-1969,3394,30,36,820
795486,16588344,18128680,16589786,18129882,1118,1915,-3882,2025,-1162,-794,-1706,3341,14,31,822
796487,16588464,18128816,16589917,18130013,1298,1713,-3932,2200,-1082,-964,-1306,3492,14,31,822
797488,16588600,18128932,16590048,18130144,1196,1845,-3955,2330,-978,-1088,-1289,3477,25,24,819
798489,16588748,18129044,16590179,18130275,1114,1878,-3951,2434,-874,-1042,-1217,3436,25,24,819
799490,16588860,18129172,16590310,18130406,1348,1780,-3925,2474,-782,-987,-1286,3316,35,32,820
800491,16589000,18129292,16590441,18130537,1169,1835,-3890,2410,-699,-947,-1679,3137,35,32,820
801492,16589136,18129388,16590572,18130668,1192,2000,-3838,2270,-615,-811,-2018,3048,20,26,820
802493,16589248,18129504,16590703,18130799,1351,1883,-3773,2083,-537,-508,-2002,3035,20,26,820
803494,16589396,18129632,16590834,18130930,1118,1809,-3705,1904,-488,-263,-1714,3019,35,32,820
804495,16589560,18129772,16590965,18131061,1004,1730,-3640,1696,-474,-122,-1358,3076,35,32,820
805496,16589708,18129916,16591096,18131192,1096,1699,-3595,1494,-499,-6,-1033,3340,25,19,819
806497,16589860,18130040,16591227,18131323,1063,1828,-3563,1317,-532,27,-1061,3506,25,19,819
807498,16589996,18130168,16591358,18131454,1161,1805,-3526,1239,-532,-10,-1508,3716,33,23,820
808499,16590140,18130300,16591489,18131585,1105,1779,-3480,1184,-530,12,-1764,3783,33,23,820
809500,16590264,18130432,16591620,18131716,1234,1779,-3413,1071,-505,155,-2319,3834,25,30,820
810501,16590388,18130588,16591751,18131847,1237,1619,-3332,952,-484,340,-2304,3896,25,30,820
811502,16590516,18130712,16591882,18131978,1214,1822,-3243,809,-490,437,-2083,3901,15,23,820
812503,16590664,18130860,16592013,18132109,1081,1664,-3161,644,-545,436,-1667,4008,15,23,820
813504,16590808,18131000,16592144,18132240,1102,1710,-3080,443,-590,663,-1414,3955,33,36,820
814505,16590948,18131120,16592275,18132371,1123,1841,-2979,253,-564,887,-1381,4073,33,36,820
815506,16591104,18131272,16592406,18132502,1012,1632,-2857,149,-482,853,-1437,4291,39,28,821
816507,16591236,18131404,16592537,18132633,1161,1757,-2711,66,-379,679,-1491,4336,39,28,821
817508,16591364,18131556,16592668,18132764,1189,1622,-2062,582,-191,117,-1988,10095,22,33,820
818509,16591516,18131688,16592799,18132895,1029,1748,-51,4117,327,-1653,-3589,32767,22,33,820
819510,16591640,18131852,16592930,18133026,1207,1533,1645,6204,647,107,-1261,10188,39,26,819
820511,16591784,18131972,16593061,18133157,1077,1813,2048,5707,634,955,-72,2379,39,26,819
821512,16591916,18132128,16593192,18133288,1152,1577,1819,3935,505,1484,-231,969,22,36,821
822513,16592060,18132256,16593323,18133419,1072,1754,1646,2414,427,2046,-590,1334,22,36,821
823514,16592216,18132368,16593454,18133550,986,1863,1595,1510,489,1881,-701,1915,34,19,820
824515,16592364,18132484,16593585,18133681,1028,1845,1548,795,597,1683,-1422,2072,34,19,820
825516,16592532,18132596,16593716,18133812,887,1878,1430,168,643,1257,-1566,2371,21,25,820
826517,16592644,18132712,16593847,18133943,1246,1859,1292,-532,653,656,-1313,2378,21,25,820
827518,16592768,18132828,16593978,18134074,1174,1867,1174,-1163,580,504,-1173,2648,16,22,820
828519,16592880,18132904,16594109,18134205,1258,2141,1054,-1698,510,136,-1191,2821,16,22,820
829520,16593000,18132988,16594240,18134336,1212,2112,978,-2068,508,-266,-1331,3244,13,23,819
830521,16593108,18133088,16594371,18134467,1299,2026,878,-2324,527,-460,-1677,3607,13,23,819
831522,16593236,18133168,16594502,18134598,1175,2174,777,-2504,600,-890,-2128,4141,35,11,817
832524,16593348,18133260,16594633,18134729,1283,2116,662,-2334,753,-1005,-2624,5208,35,11,817
833524,16593440,18133348,16594764,18134860,1425,2160,568,-2100,944,-1069,-2611,5170,28,10,818
834525,16593568,18133424,16594895,18134991,1203,2259,519,-1815,1142,-1414,-2148,5386,28,10,818
835526,16593672,18133508,16595026,18135122,1365,2231,517,-1498,1324,-1533,-2104,5443,30,13,818
836527,16593792,18133580,16595157,18135253,1269,2332,563,-1310,1497,-1454,-2153,5024,30,13,818
837528,16593928,18133684,16595288,18135384,1167,2144,628,-1106,1704,-1414,-1982,5291,17,16,817
838529,16594012,18133768,16595419,18135515,1514,2290,693,-942,1941,-1395,-1698,4894,17,16,817
839530,16594108,18133848,16595550,18135646,1454,2338,761,-902,2155,-1210,-1534,4606,32,22,817
840532,16594224,18133904,16595681,18135777,1336,2521,854,-847,2329,-1129,-990,4413,32,22,817
841532,16594328,18133976,16595812,18135908,1423,2448,970,-985,2454,-983,-631,3893,29,23,815
842533,16594412,18134060,16595943,18136039,1569,2393,1074,-1206,2512,-699,-176,3776,29,23,815
843534,16594528,18134168,16596074,18136170,1376,2253,1152,-1468,2519,-524,519,3597,29,24,816
844535,16594624,18134276,16596205,18136301,1516,2264,1210,-1736,2504,-207,484,3336,29,24,816
845536,16594716,18134384,16596336,18136432,1559,2275,1238,-2082,2458,-14,559,3170,14,12,815
846537,16594808,18134472,16596467,18136563,1577,2419,1253,-2455,2412,62,275,3057,14,12,815
847538,16594924,18134576,16596598,18136694,1433,2331,1214,-2792,2396,308,-502,3313,9,25,816
848540,16595000,18134708,16596729,18136825,1708,2156,1136,-3043,2387,303,-306,3463,9,25,816
849540,16595104,18134812,16596860,18136956,1545,2344,1045,-3224,2333,251,90,3696,27,13,815
850541,16595192,18134920,16596991,18137087,1664,2329,966,-3308,2241,333,-214,3926,27,13,815
851542,16595296,18135008,16597122,18137218,1577,2474,939,-3335,2128,327,312,4249,10,18,814
852543,16595388,18135096,16597253,18137349,1669,2493,954,-3185,1990,357,578,4763,10,18,814
853544,16595468,18135204,16597384,18137480,1766,2378,978,-2965,1841,386,687,4880,20,27,814
854545,16595528,18135316,16597515,18137611,1924,2362,998,-2711,1695,470,740,5133,20,27,814
855546,16595596,18135412,16597646,18137742,1901,2477,1049,-2370,1545,726,903,5883,8,25,813
856547,16595684,18135516,16597777,18137873,1795,2440,1119,-2056,1400,768,786,5685,8,25,813
857548,16595748,18135628,16597908,18138004,1976,2399,1132,-1846,1293,661,417,4872,24,29,814
858549,16595816,18135740,16598039,18138135,1978,2408,1100,-1771,1222,694,48,4571,24,29,814
859550,16595892,18135856,16598170,18138266,1954,2390,1049,-1748,1153,745,22,4382,14,17,814
860551,16595944,18135968,16598301,18138397,2138,2424,990,-1704,1088,778,-115,4297,14,17,814
861552,16596024,18136088,16598432,18138528,1986,2379,936,-1686,1046,893,-161,4148,13,31,813
862553,16596092,18136172,16598563,18138659,2089,2625,881,-1641,1009,1046,192,4310,13,31,813
863554,16596152,18136280,16598694,18138790,2171,2486,823,-1526,979,1141,275,4336,24,26,811
864555,16596208,18136436,16598825,18138921,2230,2175,753,-1414,951,1236,207,4313,24,26,811
865557,16596276,18136568,16598956,18139052,2182,2325,676,-1300,904,1217,369,4295,8,21,812
866557,16596340,18136704,16599087,18139183,2238,2298,596,-1192,848,1195,439,4350,8,21,812
867558,16596416,18136848,16599218,18139314,2187,2243,517,-1056,783,1269,481,4389,18,19,813
868559,16596492,18136984,16599349,18139445,2212,2291,452,-956,719,1336,505,4327,18,19,813
869560,16596548,18137120,16599480,18139576,2370,2290,408,-814,662,1386,429,4433,29,20,813
870561,16596600,18137276,16599611,18139707,2431,2154,376,-645,609,1451,504,4414,29,20,813
871562,16596684,18137420,16599742,18139838,2252,2224,361,-485,539,1442,673,4378,28,26,813
872563,16596800,18137560,16599873,18139969,2059,2245,357,-293,464,1460,480,4474,28,26,813
873564,16596908,18137728,16600004,18140100,2120,2055,369,-123,391,1430,436,4416,35,42,812
874565,16597000,18137876,16600135,18140231,2237,2172,387,51,324,1437,286,4437,35,42,812
875566,16597104,18138060,16600266,18140362,2175,1925,405,218,264,1443,50,4360,33,40,813
876567,16597188,18138216,16600397,18140493,2322,2089,417,415,190,1340,425,4309,33,40,813
877568,16597256,18138400,16600528,18140624,2449,1891,407,625,126,1276,382,4395,11,27,814
878569,16597348,18138544,16600659,18140755,2318,2136,384,845,78,1164,503,4312,11,27,814
879570,16597412,18138732,16600790,18140886,2522,1836,345,1071,40,1077,616,4385,27,41,813
880571,16597488,18138896,16600921,18141017,2472,1973,281,1281,3,950,609,4200,27,41,813
881572,16597568,18139000,16601052,18141148,2471,2359,200,1415,-38,771,483,3977,8,19,813
882573,16597628,18139072,16601183,18141279,2627,2586,110,1528,-73,661,209,3858,8,19,813
883574,16597680,18139108,16601314,18141410,2712,2853,42,1563,-87,583,150,3541,7,20,813
884575,16597764,18139168,16601445,18141541,2534,2734,-6,1545,-96,445,442,3315,7,20,813
885576,16597844,18139224,16601576,18141672,2582,2793,-49,1497,-77,349,268,3250,30,9,808
886584,16597892,18139264,16601716,18141812,2823,2937,-93,1424,-16,231,117,3128,30,9,808
887578,16597952,18139348,16601847,18141943,2780,2684,-125,1380,88,188,-57,3170,24,14,809
888579,16598040,18139432,16601978,18142074,2625,2705,-133,1312,207,74,-180,2983,24,14,809
889580,16598092,18139528,16602109,18142205,2885,2646,-142,1260,331,-75,-554,3159,14,14,805
890581,16598148,18139640,16602240,18142336,2894,2554,-161,1282,465,-198,-954,3327,14,14,805
891582,16598236,18139788,16602371,18142467,2714,2323,-185,1350,560,-329,-944,3368,21,20,807
892583,16598280,18139960,16602502,18142598,3028,2155,-220,1483,574,-431,-628,3612,21,20,807
893584,16598332,18140156,16602633,18142729,3014,1977,-242,1633,522,-547,-347,3682,21,29,808
894585,16598420,18140368,16602764,18142860,2807,1842,-249,1820,421,-543,-214,3660,21,29,808
895586,16598492,18140536,16602895,18142991,2934,2101,-264,1959,291,-638,93,3480,7,49,808
896587,16598536,18140748,16603026,18143122,3149,1791,-313,1946,122,-681,533,3123,7,49,808
897589,16598588,18141016,16603157,18143253,3134,1382,-416,1836,-75,-571,942,2718,8,51,810
898589,16598644,18141268,16603288,18143384,3143,1428,-564,1583,-282,-471,1149,2399,8,51,810
899590,16598692,18141508,16603419,18143515,3231,1456,-737,1302,-447,-330,835,2386,15,41,810
900591,16598752,18141696,16603550,18143646,3188,1756,-882,983,-565,-222,608,2237,15,41,810
901592,16598820,18141876,16603681,18143777,3166,1785,-1014,692,-639,-162,357,2281,24,38,811
902593,16598888,18142112,16603812,18143908,3194,1390,-1135,408,-665,-92,19,2475,24,38,811
903594,16598960,18142396,16603943,18144039,3196,1023,-1246,227,-655,-5,-269,2709,7,40,810
904595,16599056,18142624,16604074,18144170,3063,1330,-1360,147,-640,5,-378,2989,7,40,810
905596,16599144,18142844,16604205,18144301,3133,1342,-1492,105,-639,17,-285,3075,28,53,812
906597,16599236,18143068,16604336,18144432,3126,1276,-1642,36,-647,144,-288,3180,28,53,812
907598,16599352,18143328,16604467,18144563,2983,994,-1796,36,-643,252,-274,3347,20,57,810
908599,16599472,18143576,16604598,18144694,2964,1018,-1937,17,-629,363,-33,3445,20,57,810
909600,16599576,18143852,16604729,18144825,3077,780,-2051,48,-632,441,223,3600,36,51,812
910601,16599692,18144096,16604860,18144956,3010,930,-2147,95,-654,511,226,3662,36,51,812
911602,16599804,18144304,16604991,18145087,3044,1122,-2228,141,-692,656,-66,3800,17,58,814
912603,16599912,18144516,16605122,18145218,3080,1061,-2312,247,-741,728,-186,3967,17,58,814
913604,16600040,18144776,16605253,18145349,2957,704,-2360,364,-816,751,-180,4071,30,42,815
914605,16600152,18145060,16605384,18145480,3067,487,-2365,481,-925,861,2,4204,30,42,815
915606,16600264,18145292,16605515,18145611,3076,768,-2350,636,-1019,918,-312,4486,19,40,814
916607,16600400,18145520,16605646,18145742,2925,750,-2338,858,-1054,993,-1154,4539,19,40,814
917608,16600508,18145704,16605777,18145873,3111,1002,-2294,1065,-1040,1016,-1309,4506,26,38,813
918609,16600608,18145880,16605908,18146004,3176,1032,-2234,1192,-1033,1005,-1052,4405,26,38,813
919610,16600756,18146100,16606039,18146135,2869,719,-2144,1294,-1065,972,-687,4454,33,39,815
920611,16600872,18146292,16606170,18146266,3077,867,-2041,1419,-1115,810,-338,4495,33,39,815
921612,16600992,18146472,16606301,18146397,3058,921,-1915,1643,-1159,570,31,5407,36,29,813
922613,16601096,18146648,16606432,18146528,3170,925,-1215,3237,-1006,-377,-1217,16941,36,29,813
923614,16601200,18146804,16606563,18146659,3183,1039,-281,5041,-812,-516,-1070,13125,22,29,814
924615,16601320,18146976,16606694,18146790,3089,921,89,5481,-805,-168,-329,4010,22,29,814
925616,16601428,18147132,16606825,18146921,3175,1010,42,4987,-906,-285,-107,3375,34,32,813
926617,16601520,18147260,16606956,18147052,3293,1186,-94,4401,-1020,-335,97,3304,34,32,813
927618,16601620,18147408,16607087,18147183,3258,1054,-192,4093,-1114,-705,325,3553,11,37,813
928619,16601712,18147560,16607218,18147314,3326,1019,-291,3784,-1268,-1106,804,2924,11,37,813
929620,16601800,18147696,16607349,18147445,3371,1117,-427,3271,-1534,-1344,1054,2462,19,26,811
930621,16601892,18147836,16607480,18147576,3364,1088,-558,2636,-1765,-1725,399,2217,19,26,811
931622,16601968,18147976,16607611,18147707,3489,1084,-687,1929,-1889,-1971,-342,2221,29,22,812
932623,16602076,18148088,16607742,18147838,3300,1268,-689,1352,-1953,-2192,-672,3533,29,22,812
933624,16602172,18148228,16607873,18147969,3393,1089,-72,1987,-1843,-3311,-1972,14533,13,23,811
934625,16602276,18148328,16608004,18148100,3356,1352,783,2995,-1695,-3051,-1561,12215,13,23,811
935626,16602380,18148440,16608135,18148231,3369,1286,1023,2789,-1718,-2195,-305,2987,20,18,811
936627,16602468,18148540,16608266,18148362,3488,1374,799,1827,-1781,-1964,-351,2357,20,18,811
937628,16602540,18148616,16608397,18148493,3615,1548,524,769,-1738,-1485,-776,2175,27,14,810
938629,16602616,18148708,16608528,18148624,3616,1466,340,-40,-1552,-1259,-729,2510,27,14,810
939630,16602724,18148800,16608659,18148755,3427,1483,205,-630,-1282,-997,-336,2981,11,28,808
940631,16602840,18148896,16608790,18148886,3384,1473,64,-1165,-1033,-630,-92,3202,11,28,808
941632,16602944,18148964,16608921,18149017,3472,1676,-62,-1610,-815,-510,180,3712,22,27,807
942633,16603076,18149024,16609052,18149148,3299,1757,-126,-1854,-618,-219,20,5026,22,27,807
943634,16603220,18149084,16609183,18149279,3219,1788,-48,-1835,-444,287,-218,7011,14,23,809
944635,16603376,18149184,16609314,18149410,3134,1552,115,-1582,-270,518,-178,7772,14,23,809
945636,16603544,18149256,16609445,18149541,3044,1753,137,-1461,-106,621,358,5532,28,16,809
946637,16603716,18149300,16609576,18149672,3002,1966,44,-1533,45,989,703,5631,28,16,809
947638,16603868,18149324,16609707,18149803,3118,2138,-23,-1367,181,1201,257,7050,39,16,811
948639,16604048,18149384,16609838,18149934,2923,1944,-103,-1215,295,896,-416,5509,39,16,811
949640,16604184,18149468,16609969,18150065,3197,1815,-195,-1182,381,630,-809,4904,23,11,810
950641,16604336,18149544,16610100,18150196,3090,1889,-275,-1200,411,742,-669,4827,23,11,810
951642,16604488,18149600,16610231,18150327,3081,2047,-325,-1310,369,1035,-148,4355,32,8,810
952643,16604628,18149616,16610362,18150458,3153,2349,-354,-1466,281,1187,242,4204,32,8,810
953644,16604776,18149644,16610493,18150589,3097,2319,-376,-1612,173,1416,437,4129,35,3,809
954645,16604944,18149692,16610624,18150720,2957,2230,-379,-1869,3,1622,1025,3694,35,3,809
955646,16605092,18149764,16610755,18150851,3075,2106,-344,-2179,-226,1708,1415,3546,32,17,808
956647,16605240,18149816,16610886,18150982,3069,2266,-295,-2491,-470,1712,923,3456,32,17,808
957648,16605392,18149828,16611017,18151113,3035,2569,-279,-2744,-667,1614,57,3652,46,7,810
958649,16605556,18149896,16611148,18151244,2947,2247,-279,-2814,-771,1454,-511,4082,46,7,810
959650,16605688,18149948,16611279,18151375,3147,2382,-279,-2809,-839,1281,-552,4171,21,25,807
960651,16605804,18150036,16611410,18151506,3255,2175,-273,-2776,-884,1117,-540,4186,21,25,807
961652,16605912,18150100,16611541,18151637,3316,2356,-255,-2685,-902,975,-447,4431,26,14,808
962653,16606020,18150140,16611672,18151768,3327,2546,-223,-2561,-917,926,-245,4376,26,14,808
963655,16606116,18150148,16611803,18151899,3420,2800,-168,-2456,-936,732,99,4264,27,22,806
964655,16606244,18150228,16611934,18152030,3222,2373,-123,-2300,-969,430,638,4351,27,22,806
965656,16606364,18150288,16612065,18152161,3278,2530,-104,-2157,-1011,160,902,4308,23,25,805
966657,16606496,18150376,16612196,18152292,3203,2373,-78,-1976,-1018,0,361,4391,23,25,805
967658,16606652,18150472,16612327,18152423,3043,2340,2,-1779,-938,-154,-629,4292,30,22,807
968659,16606792,18150512,16612458,18152554,3140,2730,123,-1633,-801,-294,-1325,4131,30,22,807
969660,16606944,18150544,16612589,18152685,3057,2823,242,-1528,-668,-371,-1852,4040,32,10,806
970661,16607100,18150628,16612720,18152816,3022,2520,373,-1406,-546,-511,-2254,3854,32,10,806
971662,16607252,18150712,16612851,18152947,3039,2541,501,-1342,-420,-601,-2449,3866,20,26,806
972663,16607400,18150816,16612982,18153078,3058,2429,623,-1290,-303,-580,-2180,3759,20,26,806
973664,16607532,18150880,16613113,18153209,3158,2708,766,-1178,-191,-475,-1419,3778,36,10,806
974665,16607712,18150912,16613244,18153340,2838,2951,909,-1071,-107,-460,-690,3667,36,10,806
975666,16607848,18150960,16613375,18153471,3111,2889,1048,-1054,-35,-256,-468,3441,42,14,807
976667,16608008,18151036,16613506,18153602,2951,2738,1198,-1113,35,154,-416,3066,42,14,807
977668,16608164,18151100,16613637,18153733,2966,2844,1362,-1280,90,514,-688,2735,22,11,806
978669,16608324,18151200,16613768,18153864,2929,2632,1510,-1500,118,730,-783,2716,22,11,806
979670,16608464,18151260,16613899,18153995,3051,2914,1592,-1608,138,984,-696,3014,28,29,806
980671,16608636,18151296,16614030,18154126,2834,3106,1601,-1602,160,1259,-459,3320,28,29,806
981672,16608804,18151368,16614161,18154257,2844,2908,1588,-1465,182,1472,-113,3560,35,15,807
982673,16608952,18151476,16614292,18154388,2962,2693,1563,-1265,175,1463,328,3760,35,15,807
983674,16609120,18151572,16614423,18154519,2822,2785,1507,-1040,123,1486,470,3817,44,27,804
984675,16609320,18151664,16614554,18154650,2593,2828,1403,-831,32,1692,534,3831,44,27,804
985676,16609436,18151736,16614685,18154781,3125,2979,1261,-594,-87,1946,409,3804,43,10,806
986677,16609576,18151764,16614816,18154912,2972,3300,1105,-389,-216,2102,-81,3650,43,10,806
987678,16609748,18151832,16614947,18155043,2755,3078,953,-281,-363,2204,-389,3408,37,16,808
988679,16609872,18151920,16615078,18155174,3059,2972,810,-202,-528,2372,-348,3286,37,16,808
989680,16609996,18152016,16615209,18155305,3063,2939,660,-127,-708,2493,-84,3162,23,23,803
990681,16610148,18152132,16615340,18155436,2880,2820,509,-125,-898,2433,114,2976,23,23,803
991682,16610280,18152200,16615471,18155567,3006,3149,362,-184,-1087,2328,219,2753,20,26,803
992683,16610408,18152224,16615602,18155698,3033,3471,214,-292,-1261,2276,203,2704,20,26,803
993684,16610560,18152308,16615733,18155829,2875,3118,73,-405,-1422,2200,60,2561,39,12,806
994685,16610704,18152412,16615864,18155960,2920,3006,-42,-546,-1578,2024,-52,2380,39,12,806
995686,16610832,18152536,16615995,18156091,3022,2884,-136,-712,-1718,1807,-272,2441,33,33,801
996687,16610928,18152644,16616126,18156222,3239,2995,-220,-841,-1822,1594,-779,2608,33,33,801
997688,16611100,18152716,16616257,18156353,2747,3247,-315,-891,-1901,1403,-1051,2752,21,17,805
998689,16611256,18152792,16616388,18156484,2837,3247,-417,-893,-1968,1129,-894,2861,21,17,805
999690,16611396,18152892,16616519,18156615,2934,3111,-519,-880,-2031,811,-426,3019,25,18,803
1000691,16611580,18153004,16616650,18156746,2637,3045,-610,-768,-2066,594,-343,3268,25,18,803
1001692,16611748,18153124,16616781,18156877,2721,3001,-694,-651,-2060,345,-545,3264,49,22,805
1002693,16611904,18153268,16616912,18157008,2785,2845,-777,-596,-2042,74,-483,3169,49,22,805
1003694,16612044,18153372,16617043,18157139,2882,3108,-865,-569,-2010,-214,-453,3230,39,22,806
1004695,16612196,18153436,16617174,18157270,2799,3388,-947,-543,-1936,-396,-459,3175,39,22,806
1005696,16612320,18153520,16617305,18157401,2978,3285,-1011,-558,-1837,-525,-318,3124,39,21,806
1006697,16612460,18153660,16617436,18157532,2875,2931,-1057,-573,-1738,-647,-33,3072,39,21,806
1007698,16612612,18153760,16617567,18157663,2792,3196,-1111,-588,-1647,-803,233,3145,26,20,802
1008699,16612724,18153928,16617698,18157794,3051,2755,-1170,-651,-1552,-851,386,3004,26,20,802
1009700,16612844,18154016,16617829,18157925,3007,3274,-1226,-741,-1446,-923,429,3065,37,18,806
1010701,16613008,18154088,16617960,18158056,2719,3401,-1276,-799,-1307,-984,285,3200,37,18,806
1011711,16613164,18154220,16618100,18158196,2763,3031,-1321,-899,-1147,-992,-136,3131,27,25,806
1012703,16613292,18154364,16618231,18158327,2940,2951,-1362,-993,-975,-918,-812,3331,27,25,806
1013704,16613448,18154536,16618362,18158458,2755,2759,-1420,-1012,-798,-876,-1135,3705,39,42,804
1014705,16613596,18154716,16618493,18158589,2799,2688,-1504,-959,-628,-802,-1188,3888,39,42,804
1015706,16613708,18154844,16618624,18158720,3033,3015,-1590,-914,-475,-758,-927,4037,24,29,806
1016707,16613848,18154952,16618755,18158851,2855,3151,-1673,-859,-386,-622,-333,4081,24,29,806
1017708,16614028,18155096,16618886,18158982,2584,2920,-1756,-807,-357,-445,86,4075,19,28,807
1018709,16614148,18155264,16619017,18159113,2965,2755,-1845,-832,-372,-223,431,4045,19,28,807
1019710,16614256,18155468,16619148,18159244,3050,2499,-1921,-956,-376,170,192,3832,40,44,805
1020711,16614416,18155656,16619279,18159375,2714,2575,-447,880,-455,3552,-1015,25531,40,44,805
1021712,16614556,18155816,16619410,18159506,2836,2737,1282,3095,-658,2909,-669,18426,40,47,806
1022713,16614664,18155956,16619541,18159637,3047,2859,1840,3104,-775,979,-4,2328,40,47,806
1023714,16614832,18156100,16619672,18159768,2656,2829,1519,1772,-773,1190,240,1606,18,37,809
1024715,16614984,18156296,16619803,18159899,2748,2476,1075,343,-751,1475,298,1405,18,37,809
1025716,16615096,18156520,16619934,18160030,3008,2261,774,-636,-789,1260,902,1703,32,38,806
1026717,16615232,18156732,16620065,18160161,2856,2301,569,-1523,-955,918,1490,1210,32,38,806
1027718,16615392,18156904,16620196,18160292,2695,2533,300,-2438,-1214,966,1068,1425,24,48,809
1028719,16615544,18157064,16620327,18160423,2736,2597,-30,-3239,-1364,852,-164,2008,24,48,809
1029720,16615692,18157232,16620458,18160554,2755,2531,-376,-3921,-1370,806,-746,2601,43,37,809
1030721,16615896,18157420,16620589,18160685,2374,2381,-731,-4313,-1356,687,-478,3314,43,37,809
1031722,16616040,18157596,16620720,18160816,2744,2438,-1072,-4485,-1374,237,426,3922,40,47,809
1032724,16616168,18157792,16620851,18160947,2845,2285,-1380,-4435,-1445,125,782,4617,40,47,809
1033724,16616364,18157972,16620982,18161078,2393,2363,-1628,-4323,-1488,42,493,4926,22,34,811
1034725,16616504,18158152,16621113,18161209,2740,2343,-1767,-4130,-1414,-107,-120,5082,22,34,811
1035726,16616660,18158360,16621244,18161340,2630,2134,-1817,-4051,-1280,-237,-571,4779,46,39,810
1036727,16616876,18158576,16621375,18161471,2219,2048,-1715,-4131,-1140,-530,-414,5040,46,39,810
1037728,16617056,18158800,16621506,18161602,2423,1958,-1238,-3615,-951,-921,-53,10836,48,46,810
1038729,16617244,18159008,16621637,18161733,2349,2024,-648,-2959,-764,-790,729,9150,48,46,810
1039730,16617412,18159204,16621768,18161864,2458,2071,-401,-2829,-634,-484,1530,4492,45,39,813
1040731,16617628,18159400,16621899,18161995,2121,2043,-401,-3005,-509,-561,1610,4244,45,39,813
1041732,16617832,18159580,16622030,18162126,2165,2122,-398,-3377,-387,-557,1080,3627,47,48,814
1042733,16618048,18159764,16622161,18162257,2054,2074,-278,-3677,-255,-761,132,3756,47,48,814
1043734,16618256,18159960,16622292,18162388,2071,1971,-80,-3954,-101,-1063,-483,3499,48,30,815
1044735,16618436,18160148,16622423,18162519,2225,1996,109,-4250,28,-1202,-933,3561,48,30,815
1045736,16618612,18160320,16622554,18162650,2231,2078,246,-4371,157,-1361,-976,4073,29,35,814
1046737,16618840,18160472,16622685,18162781,1864,2195,322,-4321,261,-1423,-317,4384,29,35,814
1047738,16619032,18160652,16622816,18162912,2063,1999,337,-4187,299,-1468,263,4456,46,31,814
1048739,16619204,18160832,16622947,18163043,2170,1978,356,-4076,326,-1500,215,4464,46,31,814
1049740,16619412,18161000,16623078,18163174,1913,2037,373,-3894,375,-1260,-445,4777,27,28,814
1050741,16619580,18161140,16623209,18163305,2147,2209,392,-3769,467,-983,-985,4591,27,28,814
1051742,16619720,18161292,16623340,18163436,2319,2125,441,-3660,558,-1008,-711,4427,44,29,813
1052743,16619892,18161436,16623471,18163567,2101,2169,498,-3573,607,-949,-28,4388,44,29,813
1053744,16620044,18161580,16623602,18163698,2218,2164,516,-3423,638,-673,716,4711,42,29,814
1054745,16620192,18161700,16623733,18163829,2237,2319,468,-3138,725,-277,969,5071,42,29,814
1055746,16620336,18161828,16623864,18163960,2256,2271,427,-2914,844,-93,1047,4483,35,21,814
1056747,16620512,18161988,16623995,18164091,2037,2059,463,-2948,903,59,1107,3757,35,21,814
1057748,16620660,18162124,16624126,18164222,2206,2206,552,-3038,945,302,682,3796,32,30,813
1058749,16620804,18162252,16624257,18164353,2225,2259,599,-3040,1017,603,434,4155,32,30,813
1059750,16621012,18162392,16624388,18164484,1792,2180,610,-2899,1062,643,622,4239,42,32,814
1060751,16621148,18162512,16624519,18164615,2241,2311,641,-2789,1053,582,744,4027,42,32,814
1061752,16621316,18162632,16624650,18164746,2025,2316,675,-2673,1011,821,495,4264,42,20,812
1062753,16621508,18162772,16624781,18164877,1849,2187,678,-2429,959,737,347,4728,42,20,812
1063754,16621708,18162872,16624912,18165008,1769,2451,663,-2092,902,550,314,4916,44,17,813
1064755,16621868,18162976,16625043,18165139,2007,2438,638,-1671,847,605,421,5076,44,17,813
1065756,16622056,18163112,16625174,18165270,1808,2237,611,-1211,762,541,1068,5095,29,21,815
1066757,16622232,18163212,16625305,18165401,1863,2475,595,-764,590,297,1741,4809,29,21,815
1067758,16622396,18163344,16625436,18165532,1924,2275,589,-495,330,5,1922,4192,39,31,813
1068759,16622548,18163468,16625567,18165663,1990,2329,608,-355,73,-78,1819,4017,39,31,813
1069760,16622724,18163556,16625698,18165794,1821,2573,623,-275,-120,19,1635,3768,21,19,813
1070761,16622880,18163656,16625829,18165925,1936,2513,625,-286,-274,-14,1136,3217,21,19,813
1071762,16623056,18163760,16625960,18166056,1792,2499,640,-492,-421,-125,868,2565,45,27,813
1072763,16623228,18163864,16626091,18166187,1800,2512,664,-786,-562,-140,743,2364,45,27,813
1073764,16623384,18163984,16626222,18166318,1889,2417,668,-1037,-659,-4,873,2467,41,14,812
1074765,16623564,18164088,16626353,18166449,1718,2529,624,-1216,-722,-63,1280,2673,41,14,812
1075766,16623744,18164208,16626484,18166580,1697,2435,543,-1315,-818,-354,1391,2822,30,21,813
1076767,16623920,18164272,16626615,18166711,1703,2814,435,-1385,-941,-516,1289,2785,30,21,813
1077768,16624120,18164372,16626746,18166842,1523,2604,334,-1456,-1070,-614,1450,2754,26,11,813
1078769,16624272,18164464,16626877,18166973,1814,2671,208,-1540,-1170,-598,1173,2649,26,11,813
1079770,16624460,18164556,16627008,18167104,1564,2689,56,-1666,-1195,-548,181,2496,25,18,812
1080771,16624652,18164672,16627139,18167235,1513,2546,-95,-1869,-1172,-513,-401,2247,25,18,812
1081772,16624816,18164800,16627270,18167366,1674,2473,-210,-2107,-1108,-319,-859,2163,47,15,813
1082773,16625024,18164888,16627401,18167497,1366,2742,-308,-2281,-1006,-320,-1127,2421,47,15,813
1083774,16625188,18164996,16627532,18167628,1627,2628,-391,-2372,-867,-513,-1335,2661,39,27,814
1084775,16625392,18165072,16627663,18167759,1345,2852,-464,-2372,-742,-529,-1289,2819,39,27,814
1085776,16625580,18165208,16627794,18167890,1420,2476,-531,-2283,-658,-495,-1077,3173,27,27,813
1086777,16625756,18165336,16627925,18168021,1476,2527,-600,-2085,-592,-535,-1109,3496,27,27,813
1087778,16625940,18165432,16628056,18168152,1403,2744,-670,-1909,-539,-535,-1019,3347,44,16,813
1088779,16626132,18165556,16628187,18168283,1327,2572,-746,-1757,-448,-570,-1400,3494,44,16,813
1089780,16626304,18165672,16628318,18168414,1435,2629,-822,-1577,-304,-619,-1902,3543,47,17,815
1090781,16626500,18165784,16628449,18168545,1256,2663,-880,-1481,-125,-671,-2269,3149,47,17,815
1091782,16626640,18165916,16628580,18168676,1602,2538,-918,-1463,59,-724,-2521,3055,26,27,815
1092783,16626824,18166048,16628711,18168807,1305,2538,-927,-1505,252,-554,-2505,2927,26,27,815
1093784,16626980,18166172,16628842,18168938,1469,2592,-907,-1566,463,-416,-2488,2820,42,19,814
1094785,16627128,18166276,16628973,18169069,1512,2729,-857,-1589,727,-546,-2700,3064,42,19,814
1095786,16627256,18166400,16629104,18169200,1639,2608,-793,-1615,1032,-652,-2702,3120,23,16,815
1096788,16627440,18166496,16629235,18169331,1265,2799,-713,-1669,1352,-621,-2709,3098,23,16,815
1097788,16627572,18166624,16629366,18169462,1591,2601,-610,-1721,1687,-517,-2665,3034,33,23,814
1098789,16627692,18166740,16629497,18169593,1671,2683,-484,-1812,2004,-455,-2570,2983,33,23,814
1099790,16627848,18166800,16629628,18169724,1435,3064,-355,-1890,2293,-442,-2591,3198,25,10,814
1100791,16627968,18166876,16629759,18169855,1666,2990,-230,-1916,2557,-296,-2635,3405,25,10,814
1101792,16628076,18166920,16629890,18169986,1751,3228,-129,-1839,2798,-182,-2638,3669,26,24,813
1102793,16628224,18167012,16630021,18170117,1493,2946,-67,-1725,3001,-136,-2465,3881,26,24,813
1103794,16628324,18167092,16630152,18170248,1808,3043,-51,-1589,3165,-26,-2180,3967,36,16,811
1104795,16628440,18167164,16630283,18170379,1714,3120,-76,-1404,3282,38,-1992,4179,36,16,811
1105796,16628536,18167236,16630414,18170510,1855,3147,-147,-1140,3374,-48,-2098,4482,33,25,811
1106797,16628632,18167308,16630545,18170641,1871,3173,-258,-834,3443,-132,-2235,4652,33,25,811
1107798,16628704,18167376,16630676,18170772,2047,3227,-396,-592,3485,-80,-2172,4615,30,9,810
1108799,16628812,18167464,16630807,18170903,1832,3122,-552,-432,3486,254,-1816,4449,30,9,810
1109800,16628912,18167544,16630938,18171034,1897,3194,-716,-370,3428,576,-1426,4194,30,7,809
1110801,16628992,18167612,16631069,18171165,2044,3298,-884,-398,3330,730,-1123,3933,30,7,809
1111802,16629132,18167700,16631200,18171296,1666,3193,-1042,-543,3211,935,-791,3684,28,24,808
1112803,16629240,18167780,16631331,18171427,1876,3265,-1178,-774,3072,1224,-487,3455,28,24,808
1113804,16629296,18167884,16631462,18171558,2234,3128,-1287,-1071,2915,1401,-372,3411,12,11,807
1114805,16629424,18167988,16631593,18171689,1787,3141,-1364,-1447,2736,1501,-508,3236,12,11,807
1115806,16629516,18168096,16631724,18171820,2029,3126,-1420,-1887,2570,1698,-968,3302,17,28,808
1116807,16629572,18168184,16631855,18171951,2288,3271,-1477,-2221,2425,1859,-1180,3599,17,28,808
1117808,16629652,18168296,16631986,18172082,2160,3130,-1532,-2498,2263,1929,-1007,3868,28,28,809
1118809,16629744,18168416,16632117,18172213,2102,3085,-1570,-2726,2050,1975,-937,4071,28,28,809
1119811,16629804,18168560,16632248,18172344,2335,2930,-1585,-2914,1817,2071,-962,4333,10,34,807
1120811,16629896,18168676,16632379,18172475,2152,3113,-1599,-2964,1578,2152,-879,4788,10,34,807
1121812,16629980,18168796,16632510,18172606,2223,3094,-1644,-2845,1340,2122,-863,5431,27,38,808
1122813,16630068,18168948,16632641,18172737,2217,2885,-1697,-2612,1117,2003,-878,5783,27,38,808
1123814,16630140,18169112,16632772,18172868,2344,2796,-1741,-2331,894,1912,-813,5912,8,37,809
1124815,16630240,18169320,16632903,18172999,2183,2488,-1767,-2038,694,1904,-851,6092,8,37,809
1125816,16630316,18169492,16633034,18173130,2358,2695,-1770,-1748,565,1901,-875,6211,20,38,809
1126817,16630388,18169636,16633165,18173261,2409,2866,-1725,-1575,470,1846,-454,6099,20,38,809
1127818,16630472,18169792,16633296,18173392,2356,2781,-1591,-1481,309,2037,521,5958,14,33,810
1128819,16630548,18169932,16633427,18173523,2430,2878,-1374,-1389,115,2160,809,6272,14,33,810
1129820,16630600,18170136,16633558,18173654,2615,2445,-1134,-1249,-12,2035,427,6508,29,32,809
1130821,16630668,18170348,16633689,18173785,2544,2361,-890,-1096,-68,1570,72,6252,29,32,809
1131822,16630740,18170548,16633820,18173916,2545,2407,-628,-995,-82,1317,-317,5871,16,33,809
1132823,16630780,18170748,16633951,18174047,2786,2376,-356,-959,-63,1294,-862,5788,16,33,809
1133824,16630824,18170928,16634082,18174178,2799,2481,-80,-992,-31,1097,-1195,5419,26,32,811
1134825,16630888,18171108,16634213,18174309,2705,2459,184,-1069,-24,927,-1123,5179,26,32,811
1135826,16630908,18171304,16634344,18174440,3029,2332,413,-1050,-34,957,-1122,5312,19,32,809
1136834,16630968,18171512,16634484,18174580,2815,2228,622,-1053,-24,1006,-930,5188,19,32,809
1137828,16631036,18171708,16634615,18174711,2793,2274,787,-965,-14,917,-758,5499,13,46,808
1138829,16631072,18171904,16634746,18174842,3036,2247,928,-834,-22,828,-701,5476,13,46,808
1139830,16631112,18172100,16634877,18174973,3051,2218,1078,-684,-25,804,-473,5341,13,33,807
1140831,16631180,18172288,16635008,18175104,2905,2244,1205,-502,26,788,-753,5556,13,33,807
1141832,16631264,18172456,16635139,18175235,2826,2353,1315,-326,111,599,-906,5402,14,44,808
1142833,16631336,18172604,16635270,18175366,2927,2471,1427,-147,177,371,-794,5436,14,44,808
1143835,16631468,18172768,16635401,18175497,2553,2358,1535,60,249,194,-887,5488,11,41,808
1144835,16631548,18172980,16635532,18175628,2901,2022,1645,248,335,28,-938,5356,11,41,808
1145836,16631628,18173200,16635663,18175759,2925,1934,1758,434,445,-158,-1083,5266,34,46,807
1146837,16631712,18173444,16635794,18175890,2920,1734,1876,491,564,-64,-954,4767,34,46,807
1147838,16631804,18173616,16635925,18176021,2888,2166,2008,415,668,365,-630,4299,31,40,810
1148839,16631860,18173780,16636056,18176152,3147,2203,2153,237,749,743,-262,3773,31,40,810
1149840,16631912,18173948,16636187,18176283,3208,2162,2275,-22,807,1057,-104,3540,16,29,810
1150841,16631992,18174112,16636318,18176414,3057,2173,2355,-261,856,1211,-191,3532,16,29,810
1151842,16632032,18174344,16636449,18176545,3347,1704,2453,-552,901,1416,-150,3131,19,32,808
1152843,16632048,18174528,16636580,18176676,3548,1981,2569,-860,912,1658,50,2843,19,32,808
1153844,16632076,18174696,16636711,18176807,3519,2065,2664,-1186,924,1928,63,2838,20,45,808
1154845,16632112,18174852,16636842,18176938,3512,2129,2716,-1396,966,2165,165,3061,20,45,808
1155846,16632120,18174992,16636973,18177069,3742,2226,2713,-1478,1017,2316,326,3248,2,25,806
1156847,16632160,18175168,16637104,18177200,3583,1981,2675,-1474,1052,2316,509,3363,2,25,806
1157848,16632188,18175332,16637235,18177331,3704,2043,2625,-1369,1051,2207,501,3653,3,42,805
1158849,16632212,18175504,16637366,18177462,3777,1975,2537,-1126,980,2152,917,3900,3,42,805
1159851,16632252,18175712,16637497,18177593,3718,1716,2405,-809,861,2122,1072,4065,0,33,804
1160852,16632320,18175908,16637628,18177724,3572,1764,2266,-454,745,1945,856,4011,0,33,804
1161852,16632392,18176120,16637759,18177855,3574,1628,2137,-88,625,1815,842,3799,17,40,803
1162853,16632504,18176356,16637890,18177986,3333,1432,2009,198,545,1641,532,3603,17,40,803
1163854,16632664,18176564,16638021,18178117,3022,1574,1865,447,496,1314,323,3475,13,34,807
1164855,16632872,18176756,16638152,18178248,2689,1647,1673,864,441,520,-68,3850,13,34,807
1165856,16633120,18176996,16638283,18178379,2388,1299,1497,1246,365,-349,210,3425,32,38,810
1166857,16633340,18177240,16638414,18178510,2525,1226,1399,1369,246,-281,1197,2322,32,38,810
1167858,16633540,18177468,16638545,18178641,2621,1283,1339,1289,98,387,2053,1736,44,52,814
1168859,16633756,18177748,16638676,18178772,2485,893,1286,954,-47,867,2790,927,44,52,814
1169860,16633948,18177984,16638807,18178903,2609,1121,1236,467,-154,930,2693,421,37,46,815
1170861,16634136,18178192,16638938,18179034,2610,1263,1163,-27,-171,829,2166,469,37,46,815
1171862,16634312,18178428,16639069,18179165,2666,1042,1051,-422,-40,738,1254,729,34,56,817
1172863,16634456,18178712,16639200,18179296,2860,675,906,-687,151,495,1150,813,34,56,817
1173864,16634592,18179020,16639331,18179427,2909,447,767,-1032,289,400,1545,394,27,44,815
1174865,16634688,18179248,16639462,18179558,3175,905,643,-1397,386,838,1460,548,27,44,815
1175866,16634812,18179480,16639593,18179689,3005,835,471,-1502,462,1321,1103,1407,27,60,815
1176867,16634948,18179680,16639724,18179820,2928,1005,273,-1411,545,1508,613,1633,27,60,815
1177868,16635096,18179904,16639855,18179951,2847,814,76,-1227,628,1475,238,1686,19,51,813
1178869,16635280,18180172,16639986,18180082,2600,479,-103,-1092,706,1376,128,1790,19,51,813
1179870,16635468,18180404,16640117,18180213,2551,660,-287,-798,800,1548,-193,2292,40,51,814
1180871,16635644,18180608,16640248,18180344,2607,802,-441,-409,831,1505,-144,2221,40,51,814
1181872,16635796,18180820,16640379,18180475,2749,717,-565,17,822,1252,-479,2595,35,49,817
1182873,16635932,18180984,16640510,18180606,2846,1002,-656,424,796,1360,-238,2503,35,49,817
1183874,16636036,18181144,16640641,18180737,3059,1015,-729,816,699,1704,-4,2429,21,32,816
1184875,16636152,18181340,16640772,18180868,2992,761,-773,1191,580,2184,-198,2267,21,32,816
1185876,16636284,18181532,16640903,18180999,2892,759,-786,1460,449,2504,-264,1866,32,44,815
1186877,16636456,18181708,16641034,18181130,2625,839,-836,1770,288,2396,-654,2199,32,44,815
1187878,16636660,18181852,16641165,18181261,2394,1033,-933,2168,119,2123,-991,2481,41,25,814
1188879,16636848,18181992,16641296,18181392,2470,1054,-1042,2574,-84,2128,-852,2361,41,25,814
1189880,16637036,18182148,16641427,18181523,2445,943,-1138,2895,-324,2253,-596,2096,30,22,816
1190881,16637192,18182252,16641558,18181654,2635,1280,-1217,3086,-566,2324,-339,1926,30,22,816
1191882,16637364,18182340,16641689,18181785,2518,1399,-1295,3188,-795,2350,-404,1702,26,31,816
1192883,16637512,18182452,16641820,18181916,2662,1257,-1383,3242,-1023,2367,-422,1627,26,31,816
1193884,16637648,18182560,16641951,18182047,2735,1292,-1498,3241,-1281,2471,-84,1470,17,32,814
1194885,16637808,18182672,16642082,18182178,2574,1275,-1649,3194,-1565,2544,154,1355,17,32,814
1195886,16637960,18182796,16642213,18182309,2614,1203,-1827,3192,-1820,2215,70,1717,35,23,814
1196887,16638148,18182908,16642344,18182440,2365,1286,-2026,3329,-2021,1643,-108,2149,35,23,814
1197888,16638340,18182996,16642475,18182571,2315,1455,-2220,3500,-2185,1260,-110,2222,36,20,815
1198889,16638492,18183108,16642606,18182702,2556,1313,-2411,3634,-2305,1095,4,2209,36,20,815
1199890,16638608,18183204,16642737,18182833,2789,1428,-2589,3652,-2402,1025,196,1959,39,12,816
1200891,16638708,18183320,16642868,18182964,2903,1310,-2746,3574,-2494,874,217,1889,39,12,816
1201892,16638796,18183400,16642999,18183095,2998,1557,-2903,3466,-2564,566,68,2155,9,13,815
1202893,16638876,18183448,16643130,18183226,3071,1794,-3064,3423,-2601,155,-67,2246,9,13,815
1203894,16638960,18183604,16643261,18183357,3068,1108,-3240,3361,-2614,-302,-82,2382,6,19,812
1204895,16639084,18183676,16643392,18183488,2822,1659,-3426,3304,-2592,-721,-11,2573,6,19,812
1205896,16639212,18183788,16643523,18183619,2798,1417,-3586,3189,-2530,-1123,-86,2570,12,14,809
1206897,16639332,18183852,16643654,18183750,2854,1747,-3717,3038,-2417,-1378,-276,2691,12,14,809
1207898,16639476,18183936,16643785,18183881,2699,1642,-3841,2908,-2244,-1678,-480,3052,37,14,812
1208899,16639668,18184048,16643916,18184012,2373,1476,-3975,2762,-2027,-2181,-701,3282,37,14,812
1209900,16639796,18184188,16644047,18184143,2776,1297,-4081,2611,-1799,-2669,-654,3560,30,27,812
1210901,16639900,18184320,16644178,18184274,2938,1346,-4140,2440,-1580,-2804,-397,3674,30,27,812
1211902,16640004,18184440,16644309,18184405,2950,1426,-4174,2136,-1361,-2455,-228,3637,31,16,815
1212903,16640096,18184564,16644440,18184536,3043,1404,-4211,1862,-1104,-2007,-254,3932,31,16,815
1213904,16640212,18184664,16644571,18184667,2901,1568,-4245,1636,-823,-1892,-128,4121,14,29,813
1214905,16640356,18184764,16644702,18184798,2721,1581,-4236,1316,-568,-2054,-115,4219,14,29,813
1215906,16640516,18184900,16644833,18184929,2610,1354,-4161,1010,-367,-2272,11,4436,35,20,811
1216907,16640680,18185008,16644964,18185060,2570,1539,-4003,617,-257,-2209,610,4741,35,20,811
1217908,16640840,18185136,16645095,18185191,2583,1416,-3773,260,-215,-1164,1180,5953,44,26,813
1218909,16641056,18185232,16645226,18185322,2197,1631,-2869,803,-198,581,1145,12655,44,26,813
1219910,16641208,18185348,16645357,18185453,2589,1513,370,6639,-437,6531,269,32767,47,17,814
1220911,16641340,18185472,16645488,18185584,2714,1466,3414,10784,-697,2399,738,18968,47,17,814
1221912,16641468,18185632,16645619,18185715,2741,1228,4131,10049,-793,647,2055,2707,38,32,816
1222913,16641628,18185764,16645750,18185846,2529,1403,3711,7001,-852,888,1253,151,38,32,816
1223914,16641780,18185908,16645881,18185977,2571,1322,3286,3990,-850,406,353,-252,29,33,813
1224915,16641972,18186016,16646012,18186108,2295,1557,3058,2280,-712,258,-577,1124,29,33,813
1225916,16642176,18186120,16646143,18186239,2189,1594,2884,1006,-494,46,-1033,1489,29,17,814
1226917,16642376,18186248,16646274,18186370,2183,1445,2612,-63,-322,-177,-610,2438,29,17,814
1227918,16642588,18186380,16646405,18186501,2074,1420,2289,-1119,-230,-46,-112,2419,42,20,815
1228919,16642776,18186532,16646536,18186632,2200,1285,1870,-2165,-234,-217,-598,3138,42,20,815
1229920,16642956,18186608,16646667,18186763,2229,1785,1280,-2709,-276,-661,-990,4366,37,29,816
1230921,16643128,18186692,16646798,18186894,2261,1755,921,-3416,-425,-703,-99,2815,37,29,816
1231922,16643292,18186824,16646929,18187025,2298,1455,565,-3994,-596,-487,-588,4347,30,17,817
1232923,16643496,18186972,16647060,18187156,2017,1347,188,-4258,-682,-616,-891,4951,30,17,817
1233924,16643712,18187148,16647191,18187287,1904,1153,-155,-4359,-747,-709,-567,5319,50,20,815
1234925,16643964,18187276,16647322,18187418,1627,1454,-433,-4418,-887,-562,342,5493,50,20,815
1235926,16644192,18187388,16647453,18187549,1736,1562,-711,-4373,-1082,-164,756,5981,40,18,818
1236927,16644388,18187504,16647584,18187680,1907,1544,-964,-4179,-1270,368,259,5885,40,18,818
1237928,16644588,18187604,16647715,18187811,1853,1657,-1079,-4259,-1429,640,156,4955,32,23,818
1238929,16644844,18187728,16647846,18187942,1448,1511,-1088,-4421,-1547,735,43,5133,32,23,818
1239930,16645044,18187840,16647977,18188073,1768,1594,-1096,-4449,-1564,784,-40,5490,37,31,818
1240931,16645284,18187932,16648108,18188204,1472,1736,-1081,-4351,-1454,744,-80,5477,37,31,818
1241932,16645508,18188012,16648239,18188335,1531,1833,-1001,-4230,-1262,687,25,5315,33,15,819
1242933,16645704,18188108,16648370,18188466,1678,1749,-876,-4119,-1042,678,-106,5258,33,15,819
1243934,16645896,18188184,16648501,18188597,1676,1899,-748,-3955,-813,765,-227,5442,47,13,818
1244935,16646092,18188296,16648632,18188728,1624,1682,-616,-3754,-561,661,-536,5365,47,13,818
1245936,16646324,18188384,16648763,18188859,1354,1851,-478,-3588,-293,449,-679,5127,29,15,818
1246937,16646532,18188456,16648894,18188990,1471,1977,-289,-3450,-86,29,-326,4928,29,15,818
1247938,16646736,18188524,16649025,18189121,1464,2030,-31,-3368,52,-422,-186,4817,43,15,817
1248939,16646892,18188588,16649156,18189252,1753,2084,270,-3194,166,-514,-105,4939,43,15,817
1249940,16647044,18188648,16649287,18189383,1770,2140,542,-2930,312,-424,118,5248,42,6,816
1250941,16647248,18188748,16649418,18189514,1413,1904,720,-2448,499,-278,-65,5769,42,6,816
1251942,16647372,18188824,16649549,18189645,1917,2078,828,-1874,740,-411,-973,5760,43,16,816
1252943,16647524,18188868,16649680,18189776,1733,2318,919,-1315,1013,-615,-1416,5652,43,16,816
1253944,16647720,18188924,16649811,18189907,1430,2275,1042,-871,1250,-806,-1220,5092,21,7,818
1254945,16647860,18188976,16649942,18190038,1776,2335,1184,-614,1403,-821,-783,4539,21,7,818
1255946,16648012,18189072,16650073,18190169,1692,2076,1265,-424,1535,-602,-925,4376,39,4,814
1256947,16648168,18189152,16650204,18190300,1657,2198,1244,-250,1696,-288,-1082,4138,39,4,814
1257948,16648296,18189204,16650335,18190431,1834,2409,1148,-108,1852,-43,-971,3922,20,11,814
1258949,16648448,18189264,16650466,18190562,1674,2390,1077,-86,1938,84,-608,3385,20,11,814
1259950,16648608,18189312,16650597,18190693,1613,2501,1082,-267,1938,331,-466,2720,21,22,815
1260951,16648772,18189364,16650728,18190824,1573,2511,1076,-482,1887,671,-494,2782,21,22,815
1261959,16648868,18189476,16650868,18190964,2018,2149,1061,-728,1837,950,-677,2472,20,8,813
1262953,16649020,18189544,16650999,18191095,1659,2452,1087,-1039,1794,1153,-748,2178,20,8,813
1263954,16649188,18189632,16651130,18191226,1543,2346,1166,-1379,1740,1270,-774,2068,29,11,814
1264955,16649288,18189708,16651261,18191357,1983,2445,1270,-1743,1646,1334,-691,2058,29,11,814
1265956,16649440,18189780,16651392,18191488,1648,2497,1336,-1980,1515,1363,-708,2332,18,24,814
1266957,16649620,18189872,16651523,18191619,1452,2389,1300,-1974,1362,1173,-897,3082,18,24,814
1267958,16649772,18189952,16651654,18191750,1619,2487,1149,-1635,1240,1055,-1889,3882,41,18,813
1268959,16649904,18190020,16651785,18191881,1743,2590,969,-1212,1127,1055,-2106,3810,41,18,813
1269960,16650108,18190096,16651916,18192012,1262,2564,853,-897,988,1132,-1509,3431,22,7,813
1270961,16650244,18190152,16652047,18192143,1685,2722,779,-638,810,1179,-599,3613,22,7,813
1271962,16650376,18190164,16652178,18192274,1709,3051,685,-309,632,1207,-202,3776,40,21,811
1272963,16650572,18190264,16652309,18192405,1282,2514,568,76,475,1186,-61,3733,40,21,811
1273964,16650708,18190320,16652440,18192536,1655,2823,467,400,304,1070,178,3270,19,14,811
1274965,16650836,18190384,16652571,18192667,1706,2803,397,578,117,1004,175,2897,19,14,811
1275966,16650972,18190420,16652702,18192798,1655,3020,336,684,-65,1088,64,2690,16,12,814
1276967,16651084,18190448,16652833,18192929,1813,3116,258,755,-218,1174,-283,2626,16,12,814
1277968,16651192,18190520,16652964,18193060,1848,2867,150,823,-362,1198,-67,2488,15,16,812
1278969,16651324,18190648,16653095,18193191,1699,2519,35,834,-509,1145,88,2150,15,16,812
1279970,16651444,18190708,16653226,18193322,1779,2975,-69,775,-658,1129,26,1987,22,13,809
1280971,16651568,18190796,16653357,18193453,1757,2820,-163,690,-794,1099,37,1826,22,13,809
1281972,16651680,18190828,16653488,18193584,1841,3214,-255,605,-898,978,-129,1865,15,6,811
1282973,16651876,18190876,16653619,18193715,1287,3151,-356,569,-960,790,-847,2047,15,6,811
1283974,16652012,18190964,16653750,18193846,1660,2920,-451,515,-970,572,-1490,1933,34,23,811
1284975,16652120,18191056,16653881,18193977,1846,2913,-565,507,-931,338,-1247,2097,34,23,811
1285976,16652332,18191116,16654012,18194108,1161,3145,-728,545,-863,81,-930,2284,32,6,811
1286977,16652468,18191152,16654143,18194239,1634,3337,-911,645,-738,70,-1010,2288,32,6,811
1287978,16652628,18191220,16654274,18194370,1472,3166,-1068,735,-571,48,-874,2341,41,15,809
1288979,16652808,18191272,16654405,18194501,1325,3300,-1225,841,-348,78,-1041,2508,41,15,809
1289980,16652996,18191328,16654536,18194632,1250,3309,-1438,1028,-33,95,-1359,2716,44,21,809
1290981,16653140,18191400,16654667,18194763,1520,3236,-1630,1199,309,-116,-1235,2391,44,21,809
1291982,16653332,18191456,16654798,18194894,1194,3369,-1783,1256,617,-76,-975,2417,23,6,809
1292983,16653520,18191512,16654929,18195025,1194,3403,-1885,1297,834,-138,-560,2327,23,6,809
1293984,16653692,18191600,16655060,18195156,1276,3223,-1952,1314,930,-198,36,2306,43,10,807
1294985,16653864,18191684,16655191,18195287,1259,3269,-2034,1356,944,-132,347,2409,43,10,807
1295986,16654032,18191752,16655322,18195418,1267,3398,-2153,1455,946,-163,335,2714,20,15,810
1296987,16654200,18191820,16655453,18195549,1251,3426,-2276,1629,947,-321,371,2879,20,15,810
1297988,16654376,18191900,16655584,18195680,1181,3374,-2377,1730,919,-531,268,2698,29,8,811
1298989,16654544,18192012,16655715,18195811,1216,3183,-2458,1835,868,-798,115,2895,29,8,811
1299990,16654692,18192092,16655846,18195942,1334,3406,-2562,2045,828,-964,-93,3100,28,26,810
1300991,16654856,18192192,16655977,18196073,1219,3295,-2691,2270,796,-1048,-235,3060,28,26,810
1301992,16655032,18192272,16656108,18196204,1124,3443,-2830,2439,766,-1062,-293,2909,35,26,811
