"Data file recorded 2014/9/24  14:18:58"
"%  Right Stride Frequency         = 11.0"
"%  Left Stride Frequency         = 11.0"
"%  Phase (Fractional)         = 32768.0"
"%  Experiment.py "
"%  Motor Gains    = [1800, 200, 100, 0, 0, 1800, 200, 100, 0, 0]
"% Columns: "
"% time | Right Leg Pos | Left Leg Pos | Commanded Right Leg Pos | Commanded Left Leg Pos | DCR | DCL | GyroX | GryoY | GryoZ | AX | AY | AZ | RBEMF | LBEMF | VBatt "
10882,36770756,37585084,36769074,37588274,-84,2107,497,756,-1136,374,-430,4064,7,-4,851
11883,36770760,37585084,36769818,37589018,191,2359,497,754,-1135,371,-445,4091,-14,-3,851
12885,36770772,37585116,36770562,37589762,462,2473,498,753,-1135,393,-424,4067,-14,-3,851
13885,36770764,37585132,36771306,37590506,918,2894,502,757,-1135,369,-443,4091,5,12,841
14886,36770764,37585200,36772050,37591250,1195,2867,511,749,-1138,400,-394,4054,5,12,841
15887,36770764,37585272,36772794,37591994,1522,3139,528,752,-1134,453,-397,4044,-8,25,837
16888,36770836,37585356,36773538,37592738,1368,3355,552,738,-1128,474,-347,4051,-8,25,837
17889,36770868,37585524,36774282,37593482,1931,3085,579,747,-1128,493,-374,4015,6,30,832
18891,36770908,37585760,36775026,37594226,2191,2884,607,768,-1118,565,-456,4054,6,30,832
19891,36771032,37585952,36775770,37594970,1940,3403,623,800,-1115,598,-265,4138,16,34,828
20892,36771148,37586152,36776514,37595714,2267,3594,642,825,-1100,666,-575,4148,16,34,828
21906,36771256,37586344,36777258,37596458,2597,3800,686,851,-1074,697,-732,3967,15,48,828
22894,36771472,37586600,36778002,37597202,2155,3705,739,893,-1055,603,-1008,4132,15,48,828
23895,36771708,37586936,36778746,37597946,2254,3386,821,899,-1057,697,-1218,4046,32,60,823
24896,36771984,37587268,36779490,37598690,2211,3594,906,862,-1064,780,-1375,3936,32,60,823
25897,36772264,37587636,36780234,37599434,2392,3537,976,863,-1082,915,-1049,4033,36,70,822
26911,36772496,37587980,36780978,37600178,2918,3800,1043,880,-1102,914,-706,3926,36,70,822
27912,36772836,37588304,36781722,37600922,2422,3800,1091,948,-1110,846,-1009,4163,66,79,823
28913,36773196,37588696,36782466,37601666,2468,3800,1068,1047,-1110,778,-1078,4186,66,79,823
29901,36773620,37589152,36783210,37602410,2210,3638,971,1132,-1114,885,-1103,4026,78,79,820
30915,36774048,37589496,36783954,37603154,2326,3800,861,1166,-1109,1181,-1307,3661,78,79,820
31916,36774436,37589884,36784698,37603898,2734,3800,776,1043,-1114,1545,-448,3328,92,72,823
32917,36774952,37590228,36785442,37604642,2036,3800,723,823,-1155,2107,73,2966,92,72,823
33918,36775392,37590592,36786186,37605386,2647,3800,714,426,-1259,2528,519,2167,92,75,823
34919,36775788,37590936,36786930,37606130,3077,3800,782,-72,-1428,2955,1214,1865,92,75,823
35920,36776360,37591284,36787674,37606874,2054,3800,919,-441,-1628,3258,844,2321,97,65,823
36940,36776796,37591608,36784714,37603914,3800,3800,1087,-613,-1857,2886,1084,2873,97,65,823
37935,36777212,37591956,36785458,37604658,3800,3800,1201,-414,-2048,2196,61,3939,96,78,818
38936,36777744,37592308,36786202,37605402,3800,3800,1262,-106,-2192,1736,-443,3918,96,78,818
39937,36778256,37592712,36786946,37606146,3800,3800,1224,163,-2281,1957,-251,4143,100,78,816
40937,36778792,37593176,36787690,37606890,3800,3800,1138,562,-2343,2023,454,4324,100,78,816
41939,36779332,37593540,36788434,37607634,3800,3800,1037,937,-2348,1381,312,4103,102,90,815
42939,36779912,37593880,36789178,37608378,3800,3800,986,1110,-2331,704,-33,3612,102,90,815
43941,36780520,37594276,36789922,37609122,3800,3800,922,1176,-2308,536,-398,3539,108,81,817
44941,36781092,37594656,36790666,37609866,3800,3800,805,1332,-2229,748,-785,3776,108,81,817
45943,36781624,37595076,36791410,37610610,3800,3800,688,1578,-2100,566,-969,3605,103,82,818
46944,36782112,37595444,36792154,37611354,3800,3800,568,1634,-1937,318,-1251,3307,103,82,818
47945,36782600,37595848,36792898,37612098,3800,3800,471,1612,-1726,702,-1491,3065,116,81,816
48946,36783144,37596224,36793642,37612842,3800,3800,436,1585,-1485,1204,-1055,2840,116,81,816
49947,36783668,37596564,36794386,37613586,3800,3800,451,1547,-1240,1204,-1066,2845,111,84,817
50948,36784092,37596948,36795130,37614330,3800,3800,515,1378,-987,1095,-755,2622,111,84,817
51949,36784628,37597380,36795874,37615074,3800,3800,592,1224,-729,1089,185,2823,117,83,816
52950,36785024,37597712,36796618,37615818,3800,3800,638,1247,-469,1262,439,3173,117,83,816
53951,36785444,37598068,36797362,37616562,3800,3800,651,1364,-260,1107,740,3284,106,74,815
54952,36785896,37598400,36798106,37617306,3800,3800,658,1345,-185,663,1310,3143,106,74,815
55953,36786276,37598720,36798850,37618050,3800,3800,646,1371,-302,524,1868,3500,84,74,814
56953,36786672,37599040,36799594,37618794,3800,3800,565,1578,-492,488,2011,4250,84,74,814
57955,36787032,37599332,36800338,37619538,3800,3800,541,1944,-645,374,2212,4628,82,70,814
58962,36787396,37599620,36801098,37620298,3800,3800,543,2382,-733,295,2254,5176,82,70,814
59957,36787716,37599868,36801842,37621042,3800,3800,992,3475,-749,505,2622,9804,70,64,810
60958,36787992,37600124,36802586,37621786,3800,3800,3312,8533,-713,1622,3112,32767,70,64,810
61959,36788276,37600324,36803330,37622530,3800,3800,5791,12759,-744,966,3229,20755,64,65,812
62960,36788532,37600596,36804074,37623274,3800,3800,6363,12871,-856,385,3407,1505,64,65,812
63961,36788760,37600852,36804818,37624018,3800,3800,6008,10858,-911,603,2654,265,62,59,812
64961,36788988,37601136,36805562,37624762,3800,3800,5457,9279,-782,927,894,1758,62,59,812
65963,36789180,37601380,36806306,37625506,3800,3800,5147,8809,-417,635,-644,2522,43,48,811
66964,36789400,37601632,36807050,37626250,3800,3800,4894,8521,-89,791,-1422,2338,43,48,811
67965,36789636,37601880,36807794,37626994,3800,3800,4675,8239,18,784,-1300,2228,33,53,809
68966,36789900,37602176,36808538,37627738,3800,3800,4427,7609,-36,212,-787,1919,33,53,809
69967,36790176,37602468,36809282,37628482,3800,3800,4062,7009,-255,-62,-1369,2425,66,64,809
70968,36790496,37602724,36810026,37629226,3800,3800,3643,6520,-514,-872,-2009,2637,66,64,809
71969,36790780,37603000,36810770,37629970,3800,3800,3158,6501,-808,-1676,-1885,4160,74,59,812
72969,36791088,37603216,36811514,37630714,3800,3800,2598,6597,-1294,-1812,-816,3924,74,59,812
73971,36791376,37603372,36812258,37631458,3800,3800,1980,6720,-2034,-2364,1082,4482,50,41,811
74972,36791708,37603508,36813002,37632202,3800,3800,1324,6922,-2903,-2850,1972,4437,50,41,811
75972,36792048,37603680,36813746,37632946,3800,3800,757,6576,-3789,-2579,2537,2589,65,35,811
76973,36792332,37603868,36814490,37633690,3800,3800,329,5939,-4526,-2440,2327,2213,65,35,811
77974,36792632,37604092,36815234,37634434,3800,3800,-10,5149,-5017,-2380,1485,1696,62,36,811
78976,36792924,37604324,36815978,37635178,3800,3800,-351,4328,-5338,-2080,601,1705,62,36,811
79977,36793228,37604592,36816722,37635922,3800,3800,-649,3590,-5486,-2174,-612,1947,65,66,811
80985,36793508,37604812,36817482,37636682,3800,3800,-856,2888,-5473,-2115,-1000,2029,65,66,811
81978,36793780,37605208,36818226,37637426,3800,3800,-1031,2184,-5451,-2083,-77,2115,63,77,811
82980,36794068,37605592,36818970,37638170,3800,3800,-1209,1373,-5459,-2249,963,2028,63,77,811
83981,36794356,37605960,36819714,37638914,3800,3800,-1336,522,-5448,-2072,1346,1996,68,73,813
84982,36794604,37606456,36820458,37639658,3800,3800,-1420,-238,-5387,-1752,1242,2446,68,73,813
85983,36794856,37606932,36821202,37640402,3800,3800,-1458,-790,-5234,-1686,1040,2991,64,94,814
86984,36795136,37607372,36821946,37641146,3800,3800,-1438,-1266,-5045,-1644,632,3116,64,94,814
87985,36795380,37607904,36822690,37641890,3800,3800,-1384,-1749,-4868,-1593,100,3469,51,100,813
88985,36795624,37608448,36823434,37642634,3800,3800,-1155,-2069,-4722,-1537,-126,5193,51,100,813
89986,36795872,37609024,36824178,37643378,3800,3800,-246,-1930,-4696,-612,-122,12210,64,112,813
90988,36796132,37609732,36824922,37644122,3800,3800,1199,-1272,-4812,-35,-281,16236,64,112,813
91989,36796388,37610392,36825666,37644866,3800,3800,2101,-758,-4901,-1232,118,8492,58,120,813
92990,36796660,37611084,36826410,37645610,3800,3800,2188,-685,-4939,-1608,752,5449,58,120,813
93990,36796964,37611764,36827154,37646354,3800,3800,1952,-687,-4972,-1516,992,5266,61,133,817
94992,36797252,37612508,36827898,37647098,3800,3800,1746,-716,-5052,-1514,1380,5031,61,133,817
95993,36797552,37613336,36828642,37647842,3800,3800,1660,-756,-5188,-1268,1307,4654,77,164,817
96994,36797880,37614072,36829386,37648586,3800,3800,1615,-907,-5334,-899,776,4262,77,164,817
97994,36798172,37614800,36830130,37649330,3800,3800,1604,-1066,-5428,-515,618,4177,73,150,817
98996,36798500,37615484,36830874,37650074,3800,3800,1599,-1243,-5437,-118,307,4043,73,150,817
99997,36798840,37616152,36831618,37650818,3800,3800,1618,-1503,-5351,214,261,3712,78,135,817
100997,36799164,37616732,36832362,37651562,3800,3800,1653,-1843,-5231,622,472,3418,78,135,817
101998,36799492,37617348,36833106,37652306,3800,3800,1704,-2352,-5089,1027,539,2806,73,132,816
103009,36799896,37617888,36833866,37653066,3800,3800,1724,-2914,-4912,1408,453,2683,73,132,816
104001,36800196,37618372,36834610,37653810,3800,3800,1739,-3515,-4698,1701,428,2392,59,100,814
105001,36800536,37618824,36835354,37654554,3800,3800,1755,-4131,-4464,2075,541,2246,59,100,814
106002,36800964,37619204,36836098,37655298,3800,3800,1756,-4712,-4245,2578,784,2332,81,103,815
107004,36801332,37619616,36836842,37656042,3800,3800,1720,-5158,-4065,3035,1020,2608,81,103,815
108005,36801684,37620008,36837586,37656786,3800,3800,1690,-5480,-3852,3244,1097,2824,68,74,814
109006,36802104,37620332,36838330,37657530,3800,3800,1649,-5741,-3650,3463,1363,2917,68,74,814
110006,36802548,37620656,36839074,37658274,3800,3800,1579,-5836,-3519,3620,1704,3297,74,75,813
111008,36803028,37620980,36839818,37659018,3800,3800,1498,-5758,-3429,3389,1796,3589,74,75,813
112009,36803492,37621356,36840562,37659762,3800,3800,1396,-5562,-3367,3021,1461,4103,87,68,814
113010,36804028,37621732,36841306,37660506,3800,3800,1237,-5069,-3370,2247,1202,5151,87,68,814
114010,36804552,37622052,36842050,37661250,3800,3800,1030,-4245,-3441,1364,1190,6010,104,89,813
115012,36805028,37622428,36842794,37661994,3800,3800,901,-3456,-3594,633,1083,5220,104,89,813
116013,36805624,37622824,36843538,37662738,3800,3800,890,-2913,-3814,-361,182,4849,111,84,816
117014,36806156,37623204,36844282,37663482,3800,3800,947,-2397,-4023,-1013,-633,4838,111,84,816
118015,36806716,37623604,36845026,37664226,3800,3800,1015,-1951,-4152,-1182,-1190,4442,111,94,816
119016,36807340,37624040,36845770,37664970,3800,3800,1090,-1617,-4220,-1522,-796,4141,111,94,816
120017,36807924,37624456,36846514,37665714,3800,3800,1206,-1349,-4329,-2209,980,3652,108,87,816
121017,36808520,37624908,36847258,37666458,3800,3800,1241,-1305,-4455,-2720,1185,3329,108,87,816
122018,36809208,37625352,36848002,37667202,3800,3800,1352,-1371,-4497,-2963,814,2659,108,101,817
123019,36809824,37625780,36848746,37667946,3800,3800,1392,-1770,-4331,-3036,-341,2073,108,101,817
124020,36810504,37626280,36849490,37668690,3800,3800,1524,-2180,-3937,-3074,-1462,1672,136,90,815
125028,36811248,37626732,36850250,37669450,3800,3800,1605,-2797,-3363,-3223,-1751,1621,136,90,815
126022,36811960,37627180,36850994,37670194,3800,3800,1751,-3315,-2665,-3307,-1538,1766,151,103,818
127023,36812680,37627648,36851738,37670938,3800,3800,1860,-3827,-1877,-3555,-1211,2159,151,103,818
128025,36813420,37628108,36852482,37671682,3800,3800,1972,-4233,-1061,-3847,-852,2206,137,88,818
129025,36814168,37628548,36853226,37672426,3800,3800,2067,-4745,-250,-4018,-633,2242,137,88,818
130026,36814872,37629036,36853970,37673170,3800,3800,2191,-5263,561,-3855,-293,2207,153,94,819
131027,36815616,37629492,36854714,37673914,3800,3800,2265,-5874,1354,-3374,-5,1999,153,94,819
132029,36816396,37629900,36855458,37674658,3800,3800,2309,-6507,2118,-3061,212,2216,153,100,819
133029,36817084,37630272,36856202,37675402,3800,3800,2205,-6842,2881,-2979,423,3737,153,100,819
134030,36817744,37630688,36856946,37676146,3800,3800,1958,-6775,3646,-2823,631,5023,158,84,817
135031,36818448,37631072,36857690,37676890,3800,3800,1335,-6033,4559,-2180,80,7556,158,84,817
136033,36819044,37631408,36858434,37677634,3800,3800,426,-4976,5516,-1584,192,7749,146,86,817
137033,36819576,37631740,36859178,37678378,3800,3800,-318,-4554,6244,-887,797,5459,146,86,817
138034,36820148,37632052,36859922,37679122,3800,3800,-814,-4635,6806,588,619,5087,124,59,816
139035,36820584,37632296,36860666,37679866,3800,3800,-1021,-5303,7126,2127,1516,3284,124,59,816
140037,36820980,37632520,36861410,37680610,3800,3800,-992,-6203,7329,3766,2112,2621,88,62,813
141038,36821352,37632752,36862154,37681354,3800,3800,-907,-7273,7524,5141,2213,2465,88,62,813
142038,36821644,37632904,36862898,37682098,3800,3800,-958,-7912,7695,6192,2231,3928,73,41,812
143039,36821884,37633104,36863642,37682842,3800,3800,-1066,-8343,7805,7048,2026,4042,73,41,812
144041,36822080,37633312,36864386,37683586,3800,3800,-1194,-8587,7758,7298,1380,4770,43,48,811
145042,36822236,37633504,36865130,37684330,3800,3800,-1280,-8527,7489,7245,1654,5230,43,48,811
146043,36822304,37633640,36865874,37685074,3800,3800,-1310,-8658,7096,7227,1311,4951,23,45,807
147051,36822324,37633780,36866634,37685834,3800,3800,-1392,-8282,6679,7037,83,6888,23,45,807
148045,36822380,37633916,36867378,37686578,3800,3800,-1410,-7479,6329,6219,-516,7472,-1,27,805
149046,36822428,37634068,36868122,37687322,3800,3800,-1351,-6327,6006,5914,-1017,8584,-1,27,805
150047,36822588,37634228,36868866,37688066,3800,3800,-1352,-4673,5680,5522,-2087,10165,30,42,804
151048,36822876,37634404,36869610,37688810,3800,3800,-1328,-2473,5271,3697,-2087,11391,30,42,804
152049,36823152,37634588,36870354,37689554,3800,3800,-1128,-193,4832,1769,-2035,11146,39,38,809
153050,36823484,37634800,36871098,37690298,3800,3800,-627,1433,4206,1207,-407,8858,39,38,809
154051,36823912,37634992,36871842,37691042,3800,3800,-6,2588,3317,1951,1909,7904,66,50,811
155052,36824296,37635176,36872586,37691786,3800,3800,646,3672,2279,2594,2819,7321,66,50,811
156053,36824628,37635400,36873330,37692530,3800,3800,1285,4854,1338,1764,2346,7394,71,56,811
157054,36825052,37635624,36874074,37693274,3800,3800,1927,5942,492,151,3010,6965,71,56,811
158055,36825404,37635920,36874818,37694018,3800,3800,2577,6915,-361,-441,3530,6420,70,53,811
159056,36825716,37636164,36875562,37694762,3800,3800,3185,7927,-1142,-418,3050,6191,70,53,811
160057,36826112,37636424,36876306,37695506,3800,3800,3747,8657,-1903,-897,2618,4843,65,63,811
161058,36826628,37636668,36877050,37696250,3800,3800,4266,9231,-2595,-1502,1366,4630,65,63,811
162059,36827116,37636916,36877794,37696994,3800,3800,4714,9886,-3141,-1881,836,4719,99,58,813
163060,36827660,37637296,36878538,37697738,3800,3800,4986,10803,-3563,-2050,25,5179,99,58,813
164061,36828272,37637672,36879282,37698482,3800,3800,4991,11855,-3689,-1688,-1470,5729,118,73,815
165062,36828860,37638064,36880026,37699226,3800,3800,4786,12817,-3633,-888,-979,5434,118,73,815
166063,36829476,37638472,36880770,37699970,3800,3800,4568,13309,-3756,-397,439,3249,134,96,816
167064,36830156,37639012,36881514,37700714,3800,3800,4618,12817,-4130,-450,403,-59,134,96,816
168065,36830832,37639536,36882258,37701458,3800,3800,4867,11718,-4507,-271,-655,-1159,129,104,816
169073,36831548,37640180,36883018,37702218,3800,3800,5016,10707,-4645,302,-1283,-490,129,104,816
170067,36832260,37640808,36883762,37702962,3800,3800,4886,10086,-4480,957,-2032,179,138,132,818
171068,36832980,37641508,36884506,37703706,3800,3800,4588,9614,-4215,1086,-1791,-45,138,132,818
172069,36833968,37642204,36885250,37704450,3800,3800,4232,8954,-4106,516,-148,-755,165,132,820
173070,36834868,37642932,36885994,37705194,3800,3800,3526,8588,-4058,804,330,922,165,132,820
174071,36835736,37643764,36886738,37705938,3800,3800,2592,8592,-3987,938,-90,1311,150,151,821
175072,36836680,37644552,36887482,37706682,3800,3800,2040,8192,-4018,728,-147,-881,150,151,821
176073,36837552,37645356,36888226,37707426,3800,3800,1973,7104,-4105,762,-884,-2299,182,164,822
177074,36838612,37646192,36888970,37708170,3800,3800,2041,5838,-4100,1096,-1624,-1735,182,164,822
178075,36839596,37647020,36889714,37708914,3800,3800,1872,5368,-3848,1681,-2595,750,200,174,825
179076,36840672,37647912,36890458,37709658,3800,3800,1463,5712,-3429,1954,-2621,2194,200,174,825
180077,36841748,37648880,36891202,37710402,3800,3800,1182,6239,-3067,1755,-2397,1517,205,184,824
181078,36842760,37649824,36891946,37711146,3800,3800,1208,6050,-2810,1454,-2198,-475,205,184,824
182079,36843700,37650816,36892690,37711890,3800,3800,1343,5513,-2719,1689,-1726,-569,204,196,825
183080,36844724,37651712,36893434,37712634,3800,3800,1295,5354,-2766,1479,-1270,552,204,196,825
184081,36845640,37652596,36894178,37713378,3800,3800,1209,5512,-2799,823,-1740,735,208,199,826
185082,36846612,37653612,36894922,37714122,3800,3800,1266,5611,-2794,300,-1763,-17,208,199,826
186083,36847520,37654556,36895666,37714866,3800,3800,1367,5532,-2899,124,-628,101,205,207,826
187084,36848424,37655480,36896410,37715610,3800,3800,1501,5860,-3079,199,-678,969,205,207,826
188085,36849292,37656444,36897154,37716354,3800,3800,1706,6073,-3198,-729,-1530,-32,208,190,826
189086,36850296,37657368,36897898,37717098,3800,3800,2048,6316,-3181,-1129,-2125,462,208,190,826
190087,36851124,37658268,36898642,37717842,3800,3800,2304,6729,-3079,-725,-1934,1236,213,194,825
191097,36852000,37659280,36899402,37718602,3800,3800,2553,8057,-2901,-326,-1362,744,213,194,825
192089,36852940,37660132,36900146,37719346,3800,3800,2680,8265,-2809,-425,-986,-250,206,189,824
193090,36853740,37660960,36900890,37720090,3800,3800,2783,8296,-2837,-186,-352,-330,206,189,824
194091,36854480,37661808,36901634,37720834,3800,3800,2822,8644,-2974,-334,-310,246,193,174,825
195092,36855144,37662592,36902378,37721578,3800,3800,2774,9054,-3257,-934,255,-229,193,174,825
196093,36855796,37663448,36903122,37722322,3800,3800,2671,9017,-3676,-594,894,-1366,147,169,824
197094,36856300,37664296,36903866,37723066,3800,3800,2494,8454,-4296,397,2058,-2608,147,169,824
198095,36856680,37665028,36904610,37723810,3800,3800,2254,7298,-5066,1249,2124,-3967,104,159,821
199096,36856996,37665756,36905354,37724554,3800,3800,1948,5891,-5670,1587,564,-4159,104,159,821
200097,36857184,37666408,36906098,37725298,3800,3800,1552,4402,-5939,1788,-1344,-3879,50,151,816
201098,36857344,37667112,36906842,37726042,3800,3800,1052,3041,-6039,2374,-1577,-3384,50,151,816
202099,36857484,37667868,36907586,37726786,3800,3800,509,1525,-6171,2766,83,-3882,23,126,813
203100,36857612,37668720,36908330,37727530,3800,3800,-8,-400,-6359,3033,1180,-4912,23,126,813
204101,36857724,37669376,36909074,37728274,3800,3800,-573,-2457,-6484,2987,978,-4234,21,145,814
205102,36857904,37670112,36909818,37729018,3800,3800,-1219,-4353,-6480,3182,443,-3715,21,145,814
206103,36858064,37670976,36910562,37729762,3800,3800,-1838,-5982,-6219,4065,-270,-3071,27,147,815
207104,36858256,37671640,36911306,37730506,3800,3800,-2458,-7333,-5704,4429,-402,-2084,27,147,815
208105,36858500,37672548,36912050,37731250,3800,3800,-3124,-8514,-5084,4487,-99,-1322,51,164,816
209106,36858760,37673440,36912794,37731994,3800,3800,-4614,-7975,-4361,5199,434,6122,51,164,816
210107,36859024,37674316,36913538,37732738,3800,3800,-7453,-4832,-3582,5281,775,12970,49,189,818
211108,36859324,37675340,36914282,37733482,3800,3800,-10595,-1231,-3084,5212,3909,12029,49,189,818
212109,36859668,37676332,36915026,37734226,3800,3800,-12293,278,-2929,3241,2859,4362,73,190,817
213117,36860016,37677300,36915786,37734986,3800,3800,-12380,-1306,-2909,1840,2173,-2378,73,190,817
214111,36860396,37678248,36916530,37735730,3800,3800,-11858,-4037,-2956,1497,2079,-3255,82,186,818
215112,36860816,37679316,36917274,37736474,3800,3800,-11644,-6163,-2975,1345,1249,-902,82,186,818
216113,36861248,37680248,36918018,37737218,3800,3800,-11837,-6715,-2850,1542,286,2949,97,197,821
217114,36861696,37681252,36918762,37737962,3800,3800,-12222,-6133,-2427,1344,-1408,5816,97,197,821
218115,36862212,37682320,36919506,37738706,3800,3800,-9491,-1035,-1480,-889,-4875,27175,113,194,821
219116,36862700,37683312,36920250,37739450,3800,3800,1236,20917,583,-6789,-12698,32767,113,194,821
220117,36863212,37684264,36920994,37740194,3800,3800,9878,-32008,1485,-790,-1712,13170,111,199,822
221118,36863860,37685132,36921738,37740938,3800,3800,11438,32084,690,1467,4329,-7614,111,199,822
222119,36864432,37686040,36922482,37741682,3800,3800,9860,23448,-599,1818,2628,-11502,138,198,822
223120,36865032,37686940,36923226,37742426,3800,3800,8567,16256,-1506,2299,378,-9842,138,198,822
224121,36865716,37687840,36923970,37743170,3800,3800,8024,12419,-1585,1762,-1243,-6183,138,182,822
225122,36866416,37688624,36924714,37743914,3800,3800,7206,10216,-1036,2594,-4605,-3876,138,182,822
226123,36867128,37689384,36925458,37744658,3800,3800,5754,8228,-90,1971,-6230,-2729,150,155,822
227124,36867872,37690076,36926202,37745402,3800,3800,4199,5536,405,-976,-3168,-3078,150,155,822
228125,36868688,37690780,36926946,37746146,3800,3800,3136,2055,-317,-3108,463,-5027,160,151,821
229126,36869484,37691392,36927690,37746890,3800,3800,2430,-2020,-1690,-4521,1269,-5665,160,151,821
230127,36870336,37692056,36928434,37747634,3800,3800,1941,-5888,-2909,-5809,-449,-5099,150,126,821
231128,36871308,37692580,36929178,37748378,3800,3800,1346,-9472,-3449,-8514,-3397,-3894,150,126,821
232129,36872180,37693080,36929922,37749122,3800,3800,938,-14740,-3169,-19160,-5657,-5915,168,108,821
233130,36873192,37693548,36930666,37749866,3800,3800,458,-19842,-2651,-17820,-6323,-1478,168,108,821
234131,36874136,37693956,36931410,37750610,3800,3800,-194,-21880,-2463,-9233,-4298,3089,170,89,819
235139,36875100,37694316,36932170,37751370,3800,3800,-928,-21695,-2560,-7293,-3061,5732,170,89,819
236133,36876044,37694680,36932914,37752114,3800,3800,-1331,-20635,-2758,-8717,-2533,7117,190,84,819
237134,36877124,37695036,36933658,37752858,3800,3800,-1370,-20351,-2945,-11892,-1706,7083,190,84,819
238135,36878112,37695340,36934402,37753602,3800,3800,-1268,-20015,-3002,-10389,-1575,8907,204,82,818
239136,36879032,37695600,36935146,37754346,3800,3800,-1347,-18931,-2895,-7157,-1424,10124,204,82,818
240137,36880092,37695916,36935890,37755090,3800,3800,-1523,-16957,-2549,-6531,-1852,11068,211,74,820
241138,36880960,37696212,36936634,37755834,3800,3800,-1577,-15421,-2000,-7046,-2242,8846,211,74,820
242139,36881840,37696460,36937378,37756578,3800,3800,-1690,-14513,-1381,-6534,-2088,9342,201,64,819
243140,36882748,37696696,36938122,37757322,3800,3800,-1796,-13203,-678,-5796,-783,10620,201,64,819
244141,36883540,37696908,36938866,37758066,3800,3800,-1774,-12054,105,-5488,-139,8937,169,65,818
245142,36884300,37697116,36939610,37758810,3800,3800,-1347,-11695,959,-5436,-705,6180,169,65,818
246143,36885048,37697308,36940354,37759554,3800,3800,-828,-12171,1903,-4755,-597,5545,150,44,815
247144,36885700,37697456,36941098,37760298,3800,3800,-283,-12587,2810,-1944,-84,5222,150,44,815
248145,36886276,37697588,36941842,37761042,3800,3800,323,-13620,3596,994,170,1823,125,44,814
249146,36886808,37697688,36942586,37761786,3800,3800,1093,-15316,4280,3224,466,-2,125,44,814
250147,36887328,37697788,36943330,37762530,3800,3800,1912,-17243,4879,5138,1003,-227,106,33,812
251148,36887728,37697864,36944074,37763274,3800,3800,2619,-18717,5390,7236,1721,1371,106,33,812
252149,36888172,37697932,36944818,37764018,3800,3800,3190,-19599,5845,7675,2063,2332,74,33,811
253150,36888656,37698036,36945562,37764762,3800,3800,3548,-19594,6149,7306,1850,5061,74,33,811
254150,36889132,37698108,36946306,37765506,3800,3800,3911,-18875,6286,6679,920,6452,86,29,811
255152,36889616,37698220,36947050,37766250,3800,3800,4171,-17323,6302,5907,975,8877,86,29,811
256153,36890256,37698328,36947794,37766994,3800,3800,4476,-15459,6267,6260,1943,8346,104,24,810
257160,36890848,37698460,36948554,37767754,3800,3800,4849,-13951,6069,6603,2750,7733,104,24,810
258154,36891404,37698616,36949298,37768498,3800,3800,5231,-12103,5826,6053,2293,9617,131,34,812
259156,36892152,37698800,36950042,37769242,3800,3800,5638,-9579,5707,5195,1593,11222,131,34,812
260157,36892728,37698992,36950786,37769986,3800,3800,5861,-6037,5101,3472,2992,14717,133,47,814
261158,36893320,37699160,36951530,37770730,3800,3800,5817,-1286,4643,2582,-968,17788,133,47,814
262159,36893944,37699308,36952274,37771474,3800,3800,6061,2614,4361,4011,1381,11939,127,44,813
263160,36894660,37699480,36953018,37772218,3800,3800,6572,5726,3901,4320,2650,11287,127,44,813
264161,36895332,37699632,36953762,37772962,3800,3800,6898,8960,3245,3776,2421,12596,145,37,813
265161,36896076,37699800,36954506,37773706,3800,3800,6919,12613,2463,4412,2657,12607,145,37,813
266162,36897020,37700004,36955250,37774450,3800,3800,6811,15901,1660,4228,1558,9964,133,51,814
267164,36897780,37700168,36955994,37775194,3800,3800,6733,18163,801,4013,637,6718,133,51,814
268165,36898704,37700380,36956738,37775938,3800,3800,6481,19761,-124,5061,519,5484,154,47,815
269166,36899600,37700552,36957482,37776682,3800,3800,6142,20664,-920,6376,-14,3168,154,47,815
270167,36900472,37700728,36958226,37777426,3800,3800,5925,20882,-1483,7408,-803,561,180,53,816
271168,36901440,37700880,36958970,37778170,3800,3800,6067,20185,-1920,7943,-917,-2701,180,53,816
272169,36902464,37701064,36959714,37778914,3800,3800,6359,18687,-2349,8181,-1198,-4638,179,48,817
273170,36903448,37701272,36960458,37779658,3800,3800,6549,16908,-2742,8496,-1583,-5248,179,48,817
274170,36904444,37701516,36961202,37780402,3800,3800,6529,15301,-2893,8722,-2622,-4640,173,51,817
275172,36905468,37701736,36961946,37781146,3800,3800,6229,13966,-2743,8907,-4051,-3691,173,51,817
276173,36906496,37701956,36962690,37781890,3800,3800,5814,12689,-2572,7951,-3992,-3721,183,58,817
277174,36907412,37702180,36963434,37782634,3800,3800,5508,11267,-2810,6136,-2020,-4748,183,58,817
278175,36908344,37702396,36964178,37783378,3800,3800,5380,9473,-3502,4699,-1340,-5997,188,59,816
279185,36909368,37702624,36964938,37784138,3800,3800,5335,7613,-4349,3619,-1222,-6150,188,59,816
280177,36910228,37702968,36965682,37784882,3800,3800,5329,6021,-5028,2389,-1626,-5792,186,72,817
281178,36911088,37703312,36966426,37785626,3800,3800,5280,4919,-5410,1231,-2862,-4421,186,72,817
282179,36912068,37703620,36967170,37786370,3800,3800,5114,4684,-5447,460,-3677,-1712,169,74,817
283180,36912844,37703904,36967914,37787114,3800,3800,4915,5257,-5232,150,-3672,-301,169,74,817
284181,36913720,37704320,36968658,37787858,3800,3800,4864,5932,-4944,-308,-3496,-1018,169,83,818
285182,36914632,37704752,36969402,37788602,3800,3800,4986,6324,-4636,-1172,-3264,-1581,169,83,818
286183,36915476,37705116,36970146,37789346,3800,3800,5114,6636,-4360,-1743,-2690,-1384,173,79,819
287184,36916288,37705524,36970890,37790090,3800,3800,5057,7350,-4153,-1834,-1542,-355,173,79,819
288185,36917224,37705964,36971634,37790834,3800,3800,4897,8280,-3905,-1820,-1024,-609,174,82,820
289186,36918048,37706372,36972378,37791578,3800,3800,4795,9082,-3521,-2002,-1193,-1348,174,82,820
290187,36918868,37706732,36973122,37792322,3800,3800,4767,9680,-3058,-2395,-702,-1454,172,84,818
291188,36919704,37707252,36973866,37793066,3800,3800,4710,10313,-2605,-2232,325,-1216,172,84,818
292189,36920440,37707688,36974610,37793810,3800,3800,4583,11078,-2196,-1985,1129,-1139,181,91,820
293190,36921116,37708076,36975354,37794554,3800,3800,4373,11854,-1747,-1562,1258,-1278,181,91,820
294191,36921796,37708512,36976098,37795298,3800,3800,4134,12378,-1243,-807,1697,-2063,155,93,818
295192,36922352,37708956,36976842,37796042,3800,3800,3851,12384,-735,166,2580,-3021,155,93,818
296193,36922860,37709400,36977586,37796786,3800,3800,3517,11903,-237,1131,3240,-3977,109,86,816
297194,36923384,37709824,36978330,37797530,3800,3800,3162,10872,261,1815,3544,-5081,109,86,816
298195,36923864,37710324,36979074,37798274,3800,3800,2783,9546,729,2209,3850,-5464,96,91,816
299196,36924312,37710776,36979818,37799018,3800,3800,2355,8111,1098,2255,4217,-5529,96,91,816
300197,36924776,37711228,36980562,37799762,3800,3800,1834,6681,1361,2439,4322,-5438,94,92,814
301205,36925252,37711780,36981322,37800522,3800,3800,1222,5294,1568,2721,4317,-5155,94,92,814
302199,36925688,37712300,36982066,37801266,3800,3800,559,3932,1793,3063,4113,-4959,99,100,815
303200,36926108,37712900,36982810,37802010,3800,3800,-92,2536,2001,3025,3822,-4888,99,100,815
304201,36926600,37713472,36983554,37802754,3800,3800,-704,1232,2202,2872,3438,-4214,88,114,815
305202,36927068,37714112,36984298,37803498,3800,3800,-1304,238,2308,2786,3841,-3274,88,114,815
306203,36927524,37714800,36985042,37804242,3800,3800,-1955,-326,2337,2436,3830,-2125,105,119,816
307204,36928040,37715616,36985786,37804986,3800,3800,-2594,-465,2354,1910,3596,-1072,105,119,816
308205,36928532,37716364,36986530,37805730,3800,3800,-3182,-300,2219,1259,3764,-252,107,138,818
309206,36928984,37717112,36987274,37806474,3800,3800,-3728,83,1765,672,3740,514,107,138,818
310207,36929516,37717852,36988018,37807218,3800,3800,-4266,703,1077,307,3447,1290,109,141,817
311208,36929956,37718632,36988762,37807962,3800,3800,-4833,1560,217,-349,3205,2241,109,141,817
312209,36930408,37719348,36989506,37808706,3800,3800,-5417,2490,-775,-810,2683,2293,95,132,817
313210,36930912,37720088,36990250,37809450,3800,3800,-5937,3229,-1967,-1075,3131,1564,95,132,817
314211,36931360,37720784,36990994,37810194,3800,3800,-6396,3742,-3247,-1060,2962,1305,102,142,817
315212,36931836,37721472,36991738,37810938,3800,3800,-6814,4074,-4512,-1109,2972,1005,102,142,817
316213,36932428,37722096,36992482,37811682,3800,3800,-7295,4248,-5693,-1174,2609,800,87,126,817
317214,36933056,37722668,36993226,37812426,3800,3800,-7826,4336,-6773,-1217,2241,707,87,126,817
318215,36933728,37723308,36993970,37813170,3800,3800,-8258,4164,-7878,-1552,2851,-421,122,110,817
319216,36934456,37723864,36994714,37813914,3800,3800,-8538,3543,-9033,-2037,3250,-1405,122,110,817
320217,36935224,37724500,36995458,37814658,3800,3800,-8715,2756,-10126,-2133,2445,-1182,141,123,819
321218,36935944,37725056,36996202,37815402,3800,3800,-9048,2359,-10825,-1770,176,639,141,123,819
322219,36936712,37725724,36996946,37816146,3800,3800,-9376,1887,-10955,-1447,-1397,-408,145,124,819
323226,36937632,37726284,36997706,37816906,3800,3800,-9494,952,-10753,-1771,-1832,-1709,145,124,819
324221,36938540,37726936,36998450,37817650,3800,3800,-9503,-457,-10391,-2569,-1987,-2321,160,129,820
325222,36939384,37727504,36999194,37818394,3800,3800,-9428,-2113,-9857,-3426,-3033,-2761,160,129,820
326223,36940440,37728028,36999938,37819138,3800,3800,-9361,-3694,-9116,-4378,-4542,-2041,179,119,820
327224,36941340,37728608,37000682,37819882,3800,3800,-9294,-4949,-8221,-5095,-5081,-1010,179,119,820
328225,36942280,37729164,37001426,37820626,3800,3800,-9215,-5832,-7335,-5612,-5175,231,177,114,821
329226,36943304,37729800,37002170,37821370,3800,3800,-9068,-6637,-6548,-6470,-5943,784,177,114,821
330227,36944252,37730436,37002914,37822114,3800,3800,-8973,-7165,-5822,-7494,-7229,3060,173,121,821
331228,36945152,37731060,37003658,37822858,3800,3800,-8911,-7270,-5113,-8366,-8370,4621,173,121,821
332229,36946040,37731648,37004402,37823602,3800,3800,-8817,-7271,-4403,-8770,-8776,5007,181,137,822
333230,36947024,37732312,37005146,37824346,3800,3800,-8533,-7445,-3700,-8868,-9151,4705,181,137,822
334231,36947916,37732912,37005890,37825090,3800,3800,-1701,-10431,-3269,-6298,-20925,32767,177,123,821
335232,36948704,37733612,37006634,37825834,3800,3800,8629,-12413,-3273,-1328,-17475,32767,177,123,821
336233,36949556,37734348,37007378,37826578,3800,3800,10292,-9528,-2049,-6330,-9453,23533,186,144,822
337234,36950252,37734864,37008122,37827322,3800,3800,5620,-3955,377,-7055,-14359,21709,186,144,822
338235,36950876,37735476,37008866,37828066,3800,3800,1476,-552,2813,-6699,-9963,13514,153,113,821
339236,36951480,37736220,37009610,37828810,3800,3800,-61,133,4225,-4639,-4820,9531,153,113,821
340237,36951944,37736952,37010354,37829554,3800,3800,-97,-1447,4559,-1820,-1895,5479,119,136,819
341238,36952348,37737768,37011098,37830298,3800,3800,69,-3945,4680,579,3,1400,119,136,819
342239,36952712,37738544,37011842,37831042,3800,3800,-266,-6736,4935,2663,270,215,81,168,818
343240,36952980,37739296,37012586,37831786,3800,3800,-728,-9551,5157,3859,667,800,81,168,818
344241,36953156,37740216,37013330,37832530,3800,3800,-1044,-12192,5383,6292,-1822,1423,54,172,817
345249,36953284,37741128,37014090,37833290,3800,3800,-1033,-14758,5837,8890,-3859,1429,54,172,817
346243,36953292,37742120,37014834,37834034,3800,3800,616,-15055,6288,13593,-4922,19529,21,173,815
347244,36953272,37742996,37015578,37834778,3800,3800,4842,-7913,6197,19619,-7597,32767,21,173,815
348245,36953252,37743916,37016322,37835522,3800,3800,6924,-3862,5301,17583,-14827,8758,9,187,815
349246,36953276,37744852,37017066,37836266,3800,3800,5273,-3634,2373,27037,-25407,-5095,9,187,815
350247,36953296,37745696,37017810,37837010,3800,3800,3726,-5738,1029,11515,-5150,421,6,183,815
351248,36953316,37746572,37018554,37837754,3800,3800,3367,-7320,1268,10457,-1952,3484,6,183,815
352249,36953384,37747560,37019298,37838498,3800,3800,3820,-8472,1951,8916,-2956,2806,5,186,815
353250,36953536,37748396,37020042,37839242,3800,3800,4329,-8744,2405,7362,-3356,4733,5,186,815
354250,36953804,37749228,37020786,37839986,3800,3800,4696,-8777,2429,5331,-2428,4851,35,183,815
355252,36954112,37750076,37021530,37840730,3800,3800,5099,-8644,2237,3029,-1088,5881,35,183,815
356253,36954436,37750800,37022274,37841474,3800,3800,5433,-7739,1978,2664,-24,7573,77,182,816
357254,36954836,37751632,37023018,37842218,3800,3800,5616,-6495,1541,2202,1102,7401,77,182,816
358255,36955320,37752420,37023762,37842962,3800,3800,5810,-5385,989,1150,2023,7207,76,179,817
359256,36955748,37753112,37024506,37843706,3800,3800,5948,-3968,467,300,1896,8917,76,179,817
360257,36956228,37753812,37025250,37844450,3800,3800,5876,-1845,144,-1228,834,10797,106,153,818
361258,36956652,37754492,37025994,37845194,3800,3800,5673,897,-35,-3331,1242,11707,106,153,818
362259,36957020,37755160,37026738,37845938,3800,3800,5550,3916,-296,-4492,1576,11439,85,140,818
363260,36957488,37755800,37027482,37846682,3800,3800,5468,6686,-782,-5529,2943,10439,85,140,818
364261,36958044,37756372,37028226,37847426,3800,3800,5254,9410,-1424,-6486,4496,10555,98,123,817
365262,36958496,37756876,37028970,37848170,3800,3800,4950,11588,-2076,-7092,4572,7745,98,123,817
366263,36959036,37757340,37029714,37848914,3800,3800,4646,13126,-2692,-7859,4491,6152,100,109,815
367273,36959840,37757772,37030474,37849674,3800,3800,4218,14228,-3292,-7948,5449,4760,100,109,815
368265,36960364,37758120,37031218,37850418,3800,3800,3831,14575,-3806,-6774,5496,1746,112,85,816
369266,36961008,37758408,37031962,37851162,3800,3800,3611,14087,-3971,-5229,4181,-444,112,85,816
370266,36961728,37758648,37032706,37851906,3800,3800,3666,12961,-3728,-3338,3177,-2471,129,70,816
371268,36962568,37758840,37033450,37852650,3800,3800,3877,11106,-3211,-2117,2415,-4820,129,70,816
372269,36963296,37759000,37034194,37853394,3800,3800,4180,8795,-1813,-899,-1526,-5934,158,42,815
373270,36964072,37759164,37034938,37854138,3800,3800,4113,6846,230,-583,-3772,-3806,158,42,815
374271,36964944,37759340,37035682,37854882,3800,3800,4008,4706,1477,-622,651,-5994,155,30,814
375272,36965788,37759504,37036426,37855626,3800,3800,4059,1730,1806,-89,2370,-8437,155,30,814
376273,36966664,37759640,37037170,37856370,3800,3800,3608,-695,1948,456,658,-4672,158,48,815
377274,36967748,37759796,37037914,37857114,3800,3800,2430,-2019,2280,597,-164,-2098,158,48,815
378275,36968696,37759976,37038658,37857858,3800,3800,1649,-3885,2475,1002,2233,-6260,181,42,814
379276,36969752,37760204,37039402,37858602,3800,3800,1144,-5890,2477,1661,2511,-4264,181,42,814
380277,36970932,37760416,37040146,37859346,3800,3800,413,-6926,2434,1442,1728,-1165,174,40,815
381278,36972068,37760588,37040890,37860090,3800,3800,-180,-7826,2344,1014,1657,-2376,174,40,815
382279,36973080,37760780,37041634,37860834,3800,3800,-517,-8473,2211,776,1879,-1099,179,49,818
383280,36974232,37760952,37042378,37861578,3800,3800,-802,-8869,1916,468,3193,67,179,49,818
384281,36975188,37761136,37043122,37862322,3800,3800,-1079,-8740,1445,570,3594,1497,210,41,817
385282,36976148,37761340,37043866,37863066,3800,3800,-1496,-7915,1031,963,3502,4155,210,41,817
386283,36977276,37761564,37044610,37863810,3800,3800,-2124,-6186,802,1073,2971,6761,186,56,818
387284,36978168,37761776,37045354,37864554,3800,3800,-2682,-3960,750,472,2001,7314,186,56,818
388285,36979028,37761976,37046098,37865298,3800,3800,-3033,-1868,780,-671,2113,7104,177,62,816
389292,36979952,37762172,37046858,37866058,3800,3800,-3321,123,767,-926,3050,7312,177,62,816
390287,36980784,37762352,37047602,37866802,3800,3800,-3609,2044,738,-302,3696,7219,174,54,816
391288,36981616,37762520,37048346,37867546,3800,3800,-3720,3693,757,-27,3827,5575,174,54,816
392289,36982356,37762684,37049090,37868290,3800,3800,-3727,4926,803,-88,4467,4740,177,53,817
393289,36983164,37762844,37049834,37869034,3800,3800,-3561,5836,934,101,4434,3993,177,53,817
394291,36983856,37762968,37050578,37869778,3800,3800,-3295,6265,980,670,4419,2192,153,42,815
395292,36984472,37763104,37051322,37870522,3800,3800,-2956,6432,898,1323,3807,1398,153,42,815
396293,36985100,37763220,37052066,37871266,3800,3800,-2663,6479,811,1266,2737,1417,144,31,813
397294,36985628,37763308,37052810,37872010,3800,3800,-2387,6277,746,1217,1928,783,144,31,813
398295,36986092,37763380,37053554,37872754,3800,3800,-2076,5851,634,1779,1909,337,114,36,812
399296,36986560,37763460,37054298,37873498,3800,3800,-1693,5317,418,2508,1802,-418,114,36,812
400297,36986912,37763540,37055042,37874242,3800,3800,-1231,4537,140,2753,1348,-993,79,33,809
401297,36987236,37763628,37055786,37874986,3800,3800,-782,3811,-127,2615,803,-459,79,33,809
402298,36987528,37763724,37056530,37875730,3800,3800,-440,3290,-355,2748,-134,138,66,19,807
403300,36987728,37763800,37057274,37876474,3800,3800,-148,2917,-627,2842,-856,288,66,19,807
404301,36987908,37763888,37058018,37877218,3800,3800,145,2496,-1039,2574,-790,229,48,18,808
405301,36988100,37763964,37058762,37877962,3800,3800,431,2009,-1594,2444,-557,360,48,18,808
406303,36988220,37764080,37059506,37878706,3800,3800,546,1699,-2234,2444,-73,1333,47,36,807
407304,36988312,37764260,37060250,37879450,3800,3800,472,1715,-2912,2251,433,1869,47,36,807
408305,36988412,37764416,37060994,37880194,3800,3800,255,1890,-3602,1967,675,2368,19,28,807
409306,36988500,37764588,37061738,37880938,3800,3800,3,2135,-4274,1509,907,2601,19,28,807
410307,36988556,37764736,37062482,37881682,3800,3800,-247,2311,-4890,1161,1080,2449,12,43,804
411315,36988620,37764860,37063242,37882442,3800,3800,-498,2456,-5425,1181,1091,2576,12,43,804
412309,36988692,37765036,37063986,37883186,3800,3800,-710,2563,-5829,1117,778,2494,7,34,803
413310,36988760,37765208,37064730,37883930,3800,3800,-882,2748,-6048,933,111,2995,7,34,803
414311,36988832,37765428,37065474,37884674,3800,3800,-998,2899,-6093,915,-91,2716,18,48,807
415312,36988968,37765656,37066218,37885418,3800,3800,-1005,2815,-6007,797,259,2099,18,48,807
416313,36989060,37765892,37066962,37886162,3800,3800,-919,2431,-5843,497,903,1470,26,49,807
417314,36989160,37766104,37067706,37886906,3800,3800,-815,1859,-5585,265,1064,1465,26,49,807
418315,36989348,37766340,37068450,37887650,3800,3800,-744,1430,-5161,111,876,2106,23,55,808
419316,36989500,37766584,37069194,37888394,3800,3800,-658,1027,-4649,-97,1148,1816,23,55,808
420317,36989668,37766860,37069938,37889138,3800,3800,-550,587,-4154,-585,1380,1808,29,58,808
421318,36989884,37767148,37070682,37889882,3800,3800,-451,173,-3689,-1187,2252,2350,29,58,808
422319,36990136,37767456,37071426,37890626,3800,3800,-410,-109,-3217,-1745,3001,2876,34,53,807
423320,36990380,37767740,37072170,37891370,3800,3800,-441,-351,-2706,-2063,3648,3100,34,53,807
424321,36990648,37768024,37072914,37892114,3800,3800,-489,-433,-2136,-2309,3997,3780,41,70,808
425322,36991000,37768360,37073658,37892858,3800,3800,-540,-377,-1490,-2587,3899,4224,41,70,808
426323,36991296,37768740,37074402,37893602,3800,3800,-620,-62,-782,-2936,3621,5270,69,77,811
427324,36991592,37769084,37075146,37894346,3800,3800,-725,380,-65,-3187,3688,5708,69,77,811
428325,36991972,37769420,37075890,37895090,3800,3800,-774,849,580,-3440,4006,5753,71,78,811
429326,36992328,37769840,37076634,37895834,3800,3800,-805,1189,1099,-3772,4020,5607,71,78,811
430327,36992664,37770292,37077378,37896578,3800,3800,-873,1487,1488,-3869,3522,5759,76,78,811
431328,36993048,37770660,37078122,37897322,3800,3800,-991,1757,1820,-3735,2939,5755,76,78,811
432329,36993416,37771092,37078866,37898066,3800,3800,-1105,2021,2166,-3431,2296,5742,73,79,811
433337,36993804,37771568,37079626,37898826,3800,3800,-1215,2235,2529,-3129,1518,5580,73,79,811
434330,36994196,37771984,37080370,37899570,3800,3800,-1303,2360,2845,-2770,971,5479,85,76,810
435332,36994568,37772484,37081114,37900314,3800,3800,-1332,2297,3093,-2171,616,5222,85,76,810
436333,36994948,37772972,37081858,37901058,3800,3800,-1158,2110,3292,-1248,481,5995,68,98,813
437334,36995308,37773424,37082602,37901802,3800,3800,-471,2121,3409,223,450,10332,68,98,813
438335,36995724,37773852,37083346,37902546,3800,3800,619,2284,3448,1259,424,12368,89,96,813
439336,36996108,37774368,37084090,37903290,3800,3800,1441,2034,3497,1115,693,6120,89,96,813
440337,36996460,37774840,37084834,37904034,3800,3800,1783,1242,3519,1420,1012,2946,68,100,813
441338,36996864,37775348,37085578,37904778,3800,3800,1936,256,3421,1957,1359,2190,68,100,813
442339,36997212,37775908,37086322,37905522,3800,3800,2171,-768,3206,2405,1478,2083,69,104,813
443340,36997604,37776384,37087066,37906266,3800,3800,2433,-1527,2941,2746,928,2758,69,104,813
444341,36998012,37776972,37087810,37907010,3800,3800,2644,-1997,2663,2779,365,3235,73,112,813
445342,36998396,37777532,37088554,37907754,3800,3800,2817,-2232,2359,2602,-160,3744,73,112,813
446343,36998824,37778204,37089298,37908498,3800,3800,2936,-2158,1970,2551,-273,4702,86,108,814
447344,36999312,37778868,37090042,37909242,3800,3800,3065,-1956,1475,2625,281,4606,86,108,814
448345,36999796,37779484,37090786,37909986,3800,3800,3272,-1702,902,2657,757,4578,102,123,816
449346,37000280,37780216,37091530,37910730,3800,3800,3511,-1364,289,2452,1088,4893,102,123,816
450347,37000820,37780960,37092274,37911474,3800,3800,3716,-795,-275,2284,1260,5622,91,136,816
451348,37001356,37781804,37093018,37912218,3800,3800,3850,85,-787,2077,1615,6244,91,136,816
452349,37001888,37782620,37093762,37912962,3800,3800,3953,1053,-1201,2150,1513,6133,93,150,818
453350,37002544,37783408,37094506,37913706,3800,3800,4136,1917,-1555,2039,1812,5442,93,150,818
454351,37003088,37784232,37095250,37914450,3800,3800,4388,2521,-1914,1643,2004,4738,114,154,817
455361,37003716,37785000,37096010,37915210,3800,3800,4610,3085,-2345,1268,2394,4708,114,154,817
456353,37004304,37785800,37096754,37915954,3800,3800,4706,3752,-2832,723,2591,4664,130,148,817
457354,37005040,37786624,37097498,37916698,3800,3800,4654,4413,-3374,206,2814,4406,130,148,817
458355,37005724,37787400,37098242,37917442,3800,3800,4486,5064,-3959,-328,2848,4054,132,147,819
459356,37006388,37788104,37098986,37918186,3800,3800,4247,5621,-4527,-970,2206,3733,132,147,819
460357,37007196,37788776,37099730,37918930,3800,3800,3940,5952,-5069,-1649,1871,2518,132,140,820
461358,37007944,37789368,37100474,37919674,3800,3800,3623,5803,-5675,-2434,1559,957,132,140,820
462359,37008712,37790032,37101218,37920418,3800,3800,3260,5312,-6427,-3293,1419,72,161,139,820
463360,37009572,37790624,37101962,37921162,3800,3800,2931,4663,-7197,-3771,941,-616,161,139,820
464361,37010352,37791284,37102706,37921906,3800,3800,2695,4032,-7775,-3902,-231,-734,159,123,819
465362,37011152,37791876,37103450,37922650,3800,3800,2441,3667,-7951,-3616,-1614,351,159,123,819
466362,37012028,37792500,37104194,37923394,3800,3800,2100,3575,-7618,-2974,-2798,1040,160,121,819
467364,37012780,37793088,37104938,37924138,3800,3800,1709,3398,-6927,-2857,-2919,729,160,121,819
468365,37013532,37793712,37105682,37924882,3800,3800,1338,3244,-6042,-3555,-3170,1201,149,124,819
469366,37014276,37794252,37106426,37925626,3800,3800,1066,2904,-5104,-4280,-3122,730,149,124,819
470367,37014912,37794816,37107170,37926370,3800,3800,893,2374,-4195,-4304,-2749,346,146,107,819
471368,37015524,37795424,37107914,37927114,3800,3800,738,1527,-3278,-3295,-2630,-499,146,107,819
472369,37016072,37795928,37108658,37927858,3800,3800,-175,1287,-2041,-1137,-4747,2674,144,107,818
473370,37016564,37796492,37109402,37928602,3800,3800,-2130,1692,-323,293,-7896,3694,144,107,818
474371,37016956,37797084,37110146,37929346,3800,3800,-4352,1719,1417,1203,-7229,1597,104,108,816
475372,37017292,37797640,37110890,37930090,3800,3800,-5869,221,2603,1669,-5067,-3145,104,108,816
476373,37017584,37798204,37111634,37930834,3800,3800,-6515,-2839,3061,2051,-3142,-6460,79,109,812
477381,37017772,37798752,37112394,37931594,3800,3800,-6655,-6568,3214,2823,-2988,-7741,79,109,812
478375,37017900,37799368,37113138,37932338,3800,3800,-6884,-10030,3335,3811,-3570,-5964,58,104,812
479376,37018012,37799960,37113882,37933082,3800,3800,-7577,-11886,3280,4794,-2844,-586,58,104,812
480377,37018068,37800496,37114626,37933826,3800,3800,-8329,-12915,3223,6068,-2610,430,12,105,812
481378,37018108,37801012,37115370,37934570,3800,3800,-8904,-13722,3391,7020,-5399,1253,12,105,812
482379,37018156,37801512,37116114,37935314,3800,3800,-9224,-14433,3587,7318,-5522,2489,24,106,810
483380,37018192,37802228,37116858,37936058,3800,3800,-9472,-14490,3690,7315,-5848,5291,24,106,810
484381,37018204,37802784,37117602,37936802,3800,3800,-9828,-13898,3719,7588,-6767,6756,9,125,811
485382,37018196,37803584,37118346,37937546,3800,3800,-10130,-13032,3667,7768,-6827,7394,9,125,811
486383,37018204,37804248,37119090,37938290,3800,3800,-9341,-13208,2897,13673,-11458,11226,-2,139,811
487384,37018204,37804984,37119834,37939034,3800,3800,-5623,-16328,-318,30152,-27099,32767,-2,139,811
488385,37018212,37805720,37120578,37939778,3800,3800,-3307,-14648,-1102,13547,-21705,32767,6,130,811
489386,37018204,37806484,37121322,37940522,3800,3800,69,-2382,529,8800,-10343,32767,6,130,811
490387,37018216,37807284,37122066,37941266,3800,3800,3681,9122,1626,7176,-3256,32767,17,144,812
491388,37018208,37808076,37122810,37942010,3800,3800,4833,12419,1521,6056,-418,8406,17,144,812
492389,37018208,37808824,37123554,37942754,3800,3800,4783,11041,881,6442,-628,5070,17,141,812
493390,37018216,37809576,37124298,37943498,3800,3800,4478,9349,433,6046,-1700,4098,17,141,812
494391,37018224,37810412,37125042,37944242,3800,3800,4603,8786,551,4917,-2070,3067,5,152,812
495392,37018204,37811144,37125786,37944986,3800,3800,4877,8160,899,5192,-2491,875,5,152,812
496393,37018220,37811976,37126530,37945730,3800,3800,5168,7296,1298,4506,-2991,417,1,141,812
497394,37018228,37812684,37127274,37946474,3800,3800,5534,6396,1769,2418,-3088,750,1,141,812
498395,37018216,37813380,37128018,37947218,3800,3800,5804,5548,2138,1300,-3572,623,-1,148,811
499402,37018232,37813992,37128778,37947978,3800,3800,6073,4856,2422,-239,-3617,949,-1,148,811
500397,37018228,37814620,37129522,37948722,3800,3800,6213,4394,2756,-1620,-3620,1295,4,127,811
501398,37018240,37815212,37130266,37949466,3800,3800,6054,4474,3112,-2466,-4691,2836,4,127,811
502399,37018236,37815856,37131010,37950210,3800,3800,5682,4825,3436,-4621,-4385,3705,9,123,811
503400,37018248,37816328,37131754,37950954,3800,3800,5065,5828,3591,-5997,-4018,6102,9,123,811
504401,37018248,37816852,37132498,37951698,3800,3800,4292,7350,3569,-6263,-3154,6528,4,110,810
505402,37018252,37817312,37133242,37952442,3800,3800,3542,8606,3500,-7020,-1718,5625,4,110,810
506403,37018268,37817832,37133986,37953186,3800,3800,2895,9380,3296,-7359,-612,4695,15,112,809
507404,37018260,37818356,37134730,37953930,3800,3800,2343,9657,2983,-7348,-177,3146,15,112,809
508405,37018256,37818912,37135474,37954674,3800,3800,1709,9352,2461,-7399,970,1194,14,106,809
509406,37018276,37819416,37136218,37955418,3800,3800,995,8471,1838,-6519,340,-470,14,106,809
510407,37018276,37819900,37136962,37956162,3800,3800,344,7231,1487,-5397,-1456,-1048,19,109,809
511408,37018268,37820404,37137706,37956906,3800,3800,-379,6211,1739,-4276,-3754,62,19,109,809
512409,37018296,37820960,37138450,37957650,3800,3800,-1069,5082,2242,-3570,-4273,-951,18,99,810
513410,37018324,37821548,37139194,37958394,3800,3800,-1512,3439,2656,-2997,-3837,-2361,18,99,810
514411,37018340,37822116,37139938,37959138,3800,3800,-1670,1345,2981,-1976,-3358,-3234,15,107,810
515412,37018404,37822632,37140682,37959882,3800,3800,-1743,-1116,3245,-749,-3147,-3990,15,107,810
516413,37018476,37823132,37141426,37960626,3800,3800,-1844,-3673,3506,-21,-3319,-3899,16,104,810
517414,37018572,37823628,37142170,37961370,3800,3800,-1964,-6083,3784,336,-3439,-3267,16,104,810
518415,37018656,37824088,37142914,37962114,3800,3800,-2056,-8256,3995,744,-3111,-2370,35,101,811
519416,37018780,37824644,37143658,37962858,3800,3800,-2139,-9997,4104,1061,-2716,-799,35,101,811
520417,37018884,37825096,37144402,37963602,3800,3800,-2273,-11235,4093,1481,-2309,849,17,100,809
521424,37019020,37825476,37145162,37964362,3800,3800,-2443,-12009,3974,1635,-1979,2104,17,100,809
522418,37019140,37825896,37145906,37965106,3800,3800,-2581,-12537,3801,1713,-1708,2903,38,99,807
523420,37019316,37826248,37146650,37965850,3800,3800,-2654,-12925,3546,1762,-835,3362,38,99,807
524421,37019464,37826580,37147394,37966594,3800,3800,-2707,-13151,3180,1509,-64,4040,32,80,810
525422,37019680,37826876,37148138,37967338,3800,3800,-2663,-13169,2759,1023,110,4617,32,80,810
526422,37019968,37827180,37148882,37968082,3800,3800,-2668,-12443,2347,809,-79,7802,57,76,809
527424,37020320,37827440,37149626,37968826,3800,3800,-2760,-10839,2007,363,-911,9665,57,76,809
528424,37020776,37827632,37150370,37969570,3800,3800,-2718,-9193,1735,-398,-559,8798,60,52,810
529426,37021212,37827780,37151114,37970314,3800,3800,-2414,-8017,1448,-764,23,7880,60,52,810
530426,37021724,37827968,37151858,37971058,3800,3800,-1984,-7058,1166,-182,471,7943,85,39,810
531428,37022292,37828140,37152602,37971802,3800,3800,-1571,-5981,973,479,455,8282,85,39,810
532429,37022896,37828328,37153346,37972546,3800,3800,-1133,-4887,892,583,157,7664,111,31,810
533430,37023520,37828468,37154090,37973290,3800,3800,-586,-3958,847,-125,491,7339,111,31,810
534431,37024036,37828624,37154834,37974034,3800,3800,60,-3057,796,-842,878,7340,118,47,810
535431,37024668,37828784,37155578,37974778,3800,3800,748,-2275,712,-899,1115,6628,118,47,810
536432,37025304,37828936,37156322,37975522,3800,3800,1448,-1685,677,-137,1348,5947,126,42,812
537434,37025956,37829064,37157066,37976266,3800,3800,2089,-1056,733,633,1984,6103,126,42,812
538435,37026564,37829200,37157810,37977010,3800,3800,2715,-420,811,919,2016,5557,131,31,811
539436,37027512,37829336,37158554,37977754,3800,3800,3339,300,908,850,1964,5862,131,31,811
540437,37028188,37829468,37159298,37978498,3800,3800,3869,1396,866,991,3107,6948,122,40,812
541438,37029068,37829584,37160042,37979242,3800,3800,4240,2541,743,1612,3776,6308,122,40,812
542439,37029900,37829740,37160786,37979986,3800,3800,4506,3581,458,1743,5645,5686,138,32,813
543449,37030940,37829888,37161546,37980746,3800,3800,4705,4559,74,2238,6841,5767,138,32,813
544441,37031772,37830036,37162290,37981490,3800,3800,4765,5602,-234,2837,7219,5670,162,44,813
545442,37032852,37830164,37163034,37982234,3800,3800,4824,6550,-450,2803,7522,4746,162,44,813
546443,37033828,37830272,37163778,37982978,3800,3800,4991,7274,-654,2663,7531,3686,175,41,815
547444,37034828,37830372,37164522,37983722,3800,3800,5209,7851,-835,2771,7244,3120,175,41,815
548445,37035924,37830472,37165266,37984466,3800,3800,5419,8285,-1029,2939,7244,2659,178,28,815
549446,37037052,37830572,37166010,37985210,3800,3800,5593,8737,-1204,3113,6623,2608,178,28,815
550447,37038084,37830660,37166754,37985954,3800,3800,5774,9328,-1328,3006,5775,2538,182,25,815
551448,37039128,37830768,37167498,37986698,3800,3800,5968,9852,-1474,2300,4945,1952,182,25,815
552449,37040188,37830868,37168242,37987442,3800,3800,6186,10281,-1679,1349,3676,1407,179,23,815
553450,37041116,37830960,37168986,37988186,3800,3800,6334,10752,-1890,383,2753,1693,179,23,815
554451,37042096,37831056,37169730,37988930,3800,3800,6424,11225,-2131,-327,2388,1492,184,38,814
555452,37043136,37831136,37170474,37989674,3800,3800,6501,11695,-2415,-788,2536,1333,184,38,814
556453,37043952,37831224,37171218,37990418,3800,3800,6467,12329,-2764,-1124,2790,2139,187,25,815
557454,37044836,37831312,37171962,37991162,3800,3800,6196,13313,-3135,-1188,2525,3178,187,25,815
558455,37045780,37831432,37172706,37991906,3800,3800,5721,14476,-3454,-1257,2379,3591,185,22,815
559456,37046640,37831524,37173450,37992650,3800,3800,5211,15441,-3901,-1512,3435,2645,185,22,815
560457,37047488,37831616,37174194,37993394,3800,3800,4806,15852,-4595,-1781,4431,1181,169,29,815
561458,37048404,37831732,37174938,37994138,3800,3800,4497,16088,-5260,-1756,3663,1272,169,29,815
562459,37049412,37831836,37175682,37994882,3800,3800,4193,16466,-5648,-1806,2980,1935,175,25,816
563460,37050356,37831964,37176426,37995626,3800,3800,3775,16879,-5942,-2330,3804,1708,175,25,816
564461,37051324,37832088,37177170,37996370,3800,3800,3266,17299,-6253,-2947,3907,1847,181,41,815
565469,37052348,37832236,37177930,37997130,3800,3800,2717,17605,-6627,-3718,3600,1573,181,41,815
566463,37053312,37832408,37178674,37997874,3800,3800,2245,17402,-7037,-3868,3283,160,182,34,815
567463,37054248,37832580,37179418,37998618,3800,3800,1912,16635,-7487,-3186,3180,-1211,182,34,815
568465,37055284,37832748,37180162,37999362,3800,3800,1536,15574,-7836,-2161,2789,-1855,188,44,816
569465,37056204,37832936,37180906,38000106,3800,3800,1278,13848,-8063,-1458,2505,-4414,188,44,816
570467,37057216,37833120,37181650,38000850,3800,3800,1130,11454,-8143,-926,1389,-5352,175,45,815
571468,37058244,37833300,37182394,38001594,3800,3800,997,9442,-7878,-1466,3,-3926,175,45,815
572469,37059240,37833476,37183138,38002338,3800,3800,819,7979,-7287,-2643,-1369,-3000,173,51,816
573470,37060256,37833676,37183882,38003082,3800,3800,623,6643,-6508,-3382,-2335,-3281,173,51,816
574471,37061400,37833972,37184626,38003826,3800,3800,419,5230,-5594,-3519,-2947,-3303,186,67,817
575472,37062452,37834228,37185370,38004570,3800,3800,183,3789,-4612,-3419,-3736,-3358,186,67,817
576473,37063532,37834476,37186114,38005314,3800,3800,-79,2403,-3580,-4575,-4318,-3155,211,65,816
577473,37064828,37834696,37186858,38006058,3800,3800,-310,930,-2475,-7048,-4838,-2853,211,65,816
578475,37065960,37834928,37187602,38006802,3800,3800,-417,-1333,-1339,-9523,-4980,-3921,194,54,818
579476,37067192,37835248,37188346,38007546,3800,3800,-521,-3475,-295,-10343,-5079,-1882,194,54,818
580477,37068388,37835580,37189090,38008290,3800,3800,-707,-3898,597,-9556,-5070,1428,203,61,818
581478,37069680,37835888,37189834,38009034,3800,3800,-900,-3000,1445,-9095,-4451,2522,203,61,818
582479,37070732,37836148,37190578,38009778,3800,3800,-918,-1712,2323,-9566,-3929,2758,214,79,820
583480,37071980,37836476,37191322,38010522,3800,3800,-867,-553,3220,-10076,-3552,3457,214,79,820
584481,37073220,37836836,37192066,38011266,3800,3800,-799,807,4197,-10071,-3154,4674,230,74,820
585481,37074480,37837204,37192810,38012010,3800,3800,-751,2352,5266,-9382,-2813,4542,230,74,820
586483,37075612,37837532,37193554,38012754,3800,3800,-656,3746,6341,-9269,-2485,3706,231,75,819
587491,37076848,37837924,37194314,38013514,3800,3800,-529,4821,7368,-9715,-2241,3350,231,75,819
588485,37077940,37838348,37195058,38014258,3800,3800,-343,5558,8340,-9419,-2295,2498,228,86,820
589486,37079008,37838768,37195802,38015002,3800,3800,-150,5924,9279,-8721,-2050,1659,228,86,820
590487,37080068,37839128,37196546,38015746,3800,3800,111,6076,10128,-8364,-1209,1167,207,90,820
591488,37081080,37839640,37197290,38016490,3800,3800,387,5908,10895,-7843,-886,455,207,90,820
592489,37081996,37840092,37198034,38017234,3800,3800,651,5414,11572,-6875,-505,-259,187,92,819
593490,37083016,37840532,37198778,38017978,3800,3800,919,4366,12062,-5777,132,-1996,187,92,819
594491,37083900,37841052,37199522,38018722,3800,3800,1224,2683,12346,-4559,190,-3388,171,103,819
595492,37084792,37841604,37200266,38019466,3800,3800,1486,439,12492,-2946,674,-4346,171,103,819
596493,37085692,37842176,37201010,38020210,3800,3800,1711,-2080,12453,-805,1667,-5111,183,107,819
597494,37086540,37842808,37201754,38020954,3800,3800,1821,-4656,12226,959,2548,-5094,183,107,819
598495,37087328,37843352,37202498,38021698,3800,3800,1935,-7344,11843,1617,3268,-5295,172,109,818
599495,37088072,37844040,37203242,38022442,3800,3800,2018,-10212,11312,2094,3499,-5289,172,109,818
600497,37088900,37844664,37203986,38023186,3800,3800,2037,-12869,10651,2909,3588,-4450,143,124,819
601497,37089536,37845412,37204730,38023930,3800,3800,1945,-15054,9822,3471,3852,-3536,143,124,819
602499,37090256,37846268,37205474,38024674,3800,3800,1789,-17029,8811,3628,3758,-3359,147,151,818
603500,37090956,37847160,37206218,38025418,3800,3800,1483,-18600,7769,3705,3071,-1658,147,151,818
604501,37091632,37847932,37206962,38026162,3800,3800,979,-19534,6882,4202,2596,-2,140,162,819
605502,37092244,37848752,37207706,38026906,3800,3800,410,-20120,6051,4814,2701,169,140,162,819
606503,37092896,37849576,37208450,38027650,3800,3800,-702,-19680,5265,5673,2892,4739,136,170,819
607504,37093436,37850380,37209194,38028394,3800,3800,-3545,-16242,4635,6248,1888,15349,136,170,819
608505,37094016,37851296,37209938,38029138,3800,3800,-6365,-12640,3920,5224,2248,9640,136,175,817
609513,37094572,37852060,37210698,38029898,3800,3800,-7472,-12158,2861,4337,3325,496,136,175,817
610506,37095072,37852812,37211442,38030642,3800,3800,-7741,-12891,1564,3873,3902,1988,101,163,817
611508,37095532,37853448,37212186,38031386,3800,3800,-8480,-12791,458,3840,1284,5503,101,163,817
612509,37096072,37854076,37212930,38032130,3800,3800,-9352,-11872,-343,4698,414,4383,92,128,818
613510,37096472,37854604,37213674,38032874,3800,3800,-9811,-11547,-1150,5289,1307,2119,92,128,818
614511,37096956,37855052,37214418,38033618,3800,3800,-9792,-11897,-2091,5890,1370,1054,100,104,815
615512,37097440,37855488,37215162,38034362,3800,3800,-9729,-12239,-3000,6220,178,2428,100,104,815
616513,37097932,37855836,37215906,38035106,3800,3800,-9852,-11812,-3792,6647,-689,4689,88,84,814
617513,37098444,37856092,37216650,38035850,3800,3800,-10052,-10705,-4685,6225,-332,5885,88,84,814
618514,37098904,37856316,37217394,38036594,3800,3800,-10281,-9011,-5901,5842,1964,8250,93,72,813
619516,37099388,37856608,37218138,38037338,3800,3800,-10569,-6865,-7176,6088,1698,9893,93,72,813
620517,37099852,37856908,37218882,38038082,3800,3800,-10934,-4369,-8383,6933,2516,10731,91,73,811
621518,37100360,37857236,37219626,38038826,3800,3800,-10970,-2322,-9273,6562,-349,8289,91,73,811
622518,37100880,37857656,37220370,38039570,3800,3800,-10790,-741,-9978,7480,-475,7701,89,70,812
623520,37101380,37858120,37221114,38040314,3800,3800,-10555,349,-10668,7894,-322,7115,89,70,812
624521,37101900,37858540,37221858,38041058,3800,3800,-10411,1647,-11373,8392,-71,8593,82,92,813
625522,37102408,37858928,37222602,38041802,3800,3800,-10172,2786,-12097,8709,811,7258,82,92,813
626522,37102932,37859300,37223346,38042546,3800,3800,-7842,5806,-12536,7614,-2224,20215,109,89,814
627524,37103436,37859656,37224090,38043290,3800,3800,-1633,16457,-11979,4712,-9438,32767,109,89,814
628525,37104004,37860016,37224834,38044034,3800,3800,2982,21198,-11965,9708,116,4155,91,69,812
629526,37104464,37860448,37225578,38044778,3800,3800,3948,18935,-12448,11257,920,-1977,91,69,812
630527,37104980,37860976,37226322,38045522,3800,3800,3360,14368,-12726,12591,-295,-3663,111,96,812
631537,37105512,37861504,37227082,38046282,3800,3800,3072,10409,-12325,13061,-2544,-3792,111,96,812
632529,37106000,37862064,37227826,38047026,3800,3800,2726,7586,-11676,11965,-2623,-3020,104,100,812
633529,37106500,37862572,37228570,38047770,3800,3800,1720,5925,-11012,11184,-5425,-662,104,100,812
634530,37106980,37863160,37229314,38048514,3800,3800,-391,5239,-10090,12146,-4200,3131,112,107,815
635532,37107512,37863688,37230058,38049258,3800,3800,-3058,5227,-9270,12047,1237,4532,112,107,815
636533,37107956,37864276,37230802,38050002,3800,3800,-4801,3809,-8962,9841,640,-1153,107,120,815
637534,37108456,37864892,37231546,38050746,3800,3800,-5721,1041,-8963,9043,-375,-3376,107,120,815
638535,37108928,37865504,37232290,38051490,3800,3800,-6220,-2049,-8938,9071,926,-2257,109,116,815
639536,37109276,37866016,37233034,38052234,3800,3800,-6972,-4124,-8743,9854,1161,2979,109,116,815
640537,37109604,37866604,37233778,38052978,3800,3800,-7089,-4757,-8454,9691,-689,9239,86,109,815
641538,37110044,37867328,37234522,38053722,3800,3800,-3501,3977,-7096,5888,-8735,32767,86,109,815
642539,37110412,37868176,37235266,38054466,3800,3800,578,13068,-5900,8100,-2984,32767,89,125,814
643540,37110796,37868924,37236010,38055210,3800,3800,1096,14471,-5835,9157,2973,5424,89,125,814
644541,37111192,37869692,37236754,38055954,3800,3800,144,11035,-6439,6772,2386,-210,100,152,816
645542,37111572,37870320,37237498,38056698,3800,3800,-535,7015,-7016,5671,587,-1413,100,152,816
646543,37111968,37871208,37238242,38057442,3800,3800,-679,4921,-7043,4838,-1062,1020,94,164,817
647544,37112348,37872164,37238986,38058186,3800,3800,-771,4168,-6613,5102,-2391,2315,94,164,817
648545,37112768,37873120,37239730,38058930,3800,3800,-976,3742,-6324,5005,-1667,2004,97,185,819
649545,37113224,37874044,37240474,38059674,3800,3800,-1114,2773,-6380,3335,-439,1197,97,185,819
650546,37113680,37874924,37241218,38060418,3800,3800,-1097,1707,-6645,1782,-869,1927,99,177,819
651548,37114256,37875880,37241962,38061162,3800,3800,-998,1130,-6862,636,-2633,3455,99,177,819
652549,37114768,37876716,37242706,38061906,3800,3800,-896,1359,-6871,-506,-3418,5230,107,169,817
653557,37115348,37877620,37243466,38062666,3800,3800,-889,2368,-6758,-1314,-4249,6805,107,169,817
654551,37115992,37878516,37244210,38063410,3800,3800,-812,3647,-6654,-2837,-4625,7031,129,182,819
655551,37116636,37879332,37244954,38064154,3800,3800,-510,4787,-6632,-4530,-3852,6650,129,182,819
656552,37117256,37880164,37245698,38064898,3800,3800,-145,6160,-6767,-5287,-2895,7292,137,182,819
657553,37117952,37880996,37246442,38065642,3800,3800,174,7835,-6838,-6081,-3185,7609,137,182,819
658554,37118600,37881836,37247186,38066386,3800,3800,502,9282,-6663,-6784,-4409,6649,149,184,820
659555,37119228,37882628,37247930,38067130,3800,3800,898,10503,-6263,-7060,-5772,6099,149,184,820
660557,37119924,37883464,37248674,38067874,3800,3800,1356,11467,-5656,-7035,-6220,4889,135,171,820
661557,37120544,37884232,37249418,38068618,3800,3800,1819,12018,-4988,-6541,-6781,3120,135,171,820
662559,37121156,37885036,37250162,38069362,3800,3800,2368,11937,-4300,-6196,-6886,1082,140,160,820
663559,37121796,37885852,37250906,38070106,3800,3800,2997,11390,-3523,-6002,-6581,68,140,160,820
664561,37122560,37886712,37251650,38070850,3800,3800,3642,10593,-2620,-5133,-6973,-698,142,174,819
665561,37123272,37887532,37252394,38071594,3800,3800,4258,9773,-1613,-4528,-7487,-829,142,174,819
666562,37124036,37888292,37253138,38072338,3800,3800,4843,8978,-604,-4321,-7791,-1019,137,173,820
667563,37124900,37889040,37253882,38073082,3800,3800,5451,8062,351,-3900,-7937,-1524,137,173,820
668565,37125660,37889740,37254626,38073826,3800,3800,6064,7026,1245,-3172,-7549,-1557,155,173,821
669566,37126496,37890436,37255370,38074570,3800,3800,6588,6195,2058,-2416,-7180,-990,155,173,821
670567,37127464,37891020,37256114,38075314,3800,3800,7023,5513,2779,-2167,-7464,-651,185,135,820
671568,37128344,37891580,37256858,38076058,3800,3800,7461,4888,3371,-2139,-7534,-507,185,135,820
672569,37129300,37892064,37257602,38076802,3800,3800,7882,4431,3802,-2156,-7230,259,164,114,820
673570,37130332,37892528,37258346,38077546,3800,3800,8258,4514,4127,-2411,-7378,1669,164,114,820
674571,37131376,37892984,37259090,38078290,3800,3800,8547,4959,4366,-2647,-7380,2488,173,116,817
675579,37132444,37893432,37259850,38079050,3800,3800,8779,5501,4448,-2748,-6045,2805,173,116,817
676573,37133456,37893832,37260594,38079794,3800,3800,8876,6121,4310,-2560,-4779,3460,176,89,818
677574,37134576,37894224,37261338,38080538,3800,3800,8787,6901,3900,-2398,-3567,3840,176,89,818
678575,37135704,37894604,37262082,38081282,3800,3800,8580,7456,3192,-2915,-1963,3092,191,83,819
679576,37136892,37894920,37262826,38082026,3800,3800,8404,7758,2279,-3343,-1141,2465,191,83,819
680577,37138012,37895312,37263570,38082770,3800,3800,8274,7702,1339,-3616,-332,1591,220,76,819
681578,37139092,37895724,37264314,38083514,3800,3800,8128,7397,455,-4008,-198,1071,220,76,819
682579,37140204,37896104,37265058,38084258,3800,3800,7938,6725,-502,-4393,860,306,205,97,819
683580,37141392,37896540,37265802,38085002,3800,3800,7750,5961,-1497,-4886,1147,295,205,97,819
684581,37142416,37897000,37266546,38085746,3800,3800,7510,5139,-2249,-4846,-453,386,220,100,820
685582,37143440,37897416,37267290,38086490,3800,3800,7438,4054,-2666,-4232,-212,-896,220,100,820
686583,37144476,37897928,37268034,38087234,3800,3800,7538,2411,-2894,-4122,374,-2414,228,100,820
687584,37145444,37898440,37268778,38087978,3800,3800,7785,-390,-2937,-5137,218,-4856,228,100,820
688585,37146380,37898944,37269522,38088722,3800,3800,8009,-4167,-2844,-4645,-96,-5796,211,97,820
689586,37147444,37899508,37270266,38089466,3800,3800,8066,-7764,-2705,-4086,-144,-5302,211,97,820
690587,37148384,37900140,37271010,38090210,3800,3800,8036,-10500,-2463,-3123,80,-4336,191,112,819
691588,37149324,37900876,37271754,38090954,3800,3800,7981,-12323,-2082,-2589,-123,-3180,191,112,819
692589,37150420,37901624,37272498,38091698,3800,3800,7946,-13896,-1599,-2567,168,-2968,191,127,821
693590,37151364,37902396,37273242,38092442,3800,3800,7793,-15303,-994,-2449,205,-1540,191,127,821
694591,37152296,37903184,37273986,38093186,3800,3800,7565,-16285,-289,-2431,193,-850,194,169,823
695592,37153356,37904192,37274730,38093930,3800,3800,7337,-17157,457,-2468,277,-839,194,169,823
696593,37154236,37905016,37275474,38094674,3800,3800,7057,-17619,1175,-2471,466,490,204,176,822
697601,37155092,37906164,37276234,38095434,3800,3800,6766,-17837,1951,-2288,367,872,198,193,821
698595,37156028,37907076,37276978,38096178,3800,3800,6448,-17630,2690,-1966,392,1963,198,193,821
699595,37156856,37908088,37277722,38096922,3800,3800,6054,-17008,3269,-2185,1062,2823,165,200,823
700596,37157632,37909096,37278466,38097666,3800,3800,5647,-16117,3774,-1959,1287,3056,165,200,823
701598,37158432,37910156,37279210,38098410,3800,3800,5238,-15194,4148,-1676,1498,3069,176,213,823
702599,37159284,37911240,37279954,38099154,3800,3800,4578,-13902,4427,-696,1911,4797,176,213,823
703600,37159996,37912464,37280698,38099898,3800,3800,3676,-12257,4600,-183,1474,5052,153,216,824
704601,37160716,37913504,37281442,38100642,3800,3800,3260,-11547,4609,-501,749,1081,153,216,824
705602,37161420,37914580,37282186,38101386,3800,3800,3056,-11173,4571,330,20,1968,151,214,823
706603,37162040,37915648,37282930,38102130,3800,3800,2807,-10742,4544,1301,63,1585,151,214,823
707604,37162636,37916676,37283674,38102874,3800,3800,2657,-10597,4448,1746,-95,-184,126,209,821
708605,37163216,37917788,37284418,38103618,3800,3800,2685,-10890,4211,1921,-253,-1260,126,209,821
709606,37163760,37918708,37285162,38104362,3800,3800,2811,-11291,3895,2143,-669,-1371,117,210,821
710607,37164248,37919728,37285906,38105106,3800,3800,3012,-11579,3569,2223,-1099,-1394,117,210,821
711608,37164828,37920796,37286650,38105850,3800,3800,3239,-11824,3250,2322,-1615,-1703,99,201,820
712609,37165308,37921808,37287394,38106594,3800,3800,3531,-12031,3028,3035,-2393,-1587,99,201,820
713610,37165824,37922856,37288138,38107338,3800,3800,3836,-12185,2832,4230,-2011,-1687,120,205,820
714611,37166372,37924044,37288882,38108082,3800,3800,4090,-12331,2663,6039,-2422,-1488,120,205,820
715612,37166900,37925100,37289626,38108826,3800,3800,4115,-11981,2568,7616,-2644,374,112,197,821
716613,37167384,37926144,37290370,38109570,3800,3800,3932,-11125,2365,7830,-1532,1632,112,197,821
717614,37167860,37927144,37291114,38110314,3800,3800,3813,-10506,1793,7826,245,54,116,194,820
718615,37168420,37928024,37291858,38111058,3800,3800,3991,-10559,837,8363,2006,-1980,116,194,820
719625,37168872,37928976,37292618,38111818,3800,3800,4268,-10803,-495,9460,4380,-2167,86,174,816
720617,37169328,37929752,37293362,38112562,3800,3800,4499,-11107,-2085,9963,5725,-3193,86,174,816
721618,37169832,37930576,37294106,38113306,3800,3800,4559,-11470,-3582,9816,6620,-3142,83,172,817
722618,37170248,37931304,37294850,38114050,3800,3800,4298,-11114,-4831,10438,6835,71,83,172,817
723620,37170680,37931972,37295594,38114794,3800,3800,3616,-9814,-5942,11771,7488,2315,101,133,816
724621,37171152,37932796,37296338,38115538,3800,3800,2965,-8497,-7102,11700,8298,872,101,133,816
725622,37171560,37933600,37297082,38116282,3800,3800,2257,-7245,-8250,12449,8849,2479,91,162,817
726623,37171932,37934296,37297826,38117026,3800,3800,1138,-5138,-8856,14853,8005,6791,91,162,817
727624,37172388,37935128,37298570,38117770,3800,3800,-1611,-178,-8161,16669,3586,16645,79,171,818
728625,37172756,37936040,37299314,38118514,3800,3800,-4271,3752,-6872,16017,3614,6705,79,171,818
729626,37173124,37936976,37300058,38119258,3800,3800,-5723,4998,-5759,16511,5179,1155,80,195,816
730627,37173548,37937896,37300802,38120002,3800,3800,-6041,4246,-5392,16391,9327,-2193,80,195,816
731628,37174004,37938868,37301546,38120746,3800,3800,-5932,3143,-5653,16413,12040,-2361,80,200,818
732629,37174432,37939788,37302290,38121490,3800,3800,-6051,2699,-6062,16064,12562,-1021,80,200,818
733630,37174760,37940688,37303034,38122234,3800,3800,-6342,2829,-6444,15057,13343,-347,97,181,818
734631,37175140,37941644,37303778,38122978,3800,3800,-6725,3366,-6792,14117,13453,1094,97,181,818
735632,37175600,37942520,37304522,38123722,3800,3800,-7188,4484,-7064,13039,12516,2922,85,195,819
736633,37176004,37943504,37305266,38124466,3800,3800,-7558,5624,-7481,11254,13459,1916,85,195,819
737634,37176480,37944372,37306010,38125210,3800,3800,-7771,6521,-8131,9292,13620,1654,108,178,819
738635,37176948,37945200,37306754,38125954,3800,3800,-7795,7384,-8701,7616,11648,1823,108,178,819
739636,37177368,37946036,37307498,38126698,3800,3800,-7613,8414,-9004,6082,10251,2016,101,170,817
740637,37177908,37946800,37308242,38127442,3800,3800,-7378,9702,-9140,4727,9523,2300,101,170,817
741645,37178304,37947552,37309002,38128202,3800,3800,-7144,11140,-9131,3387,7960,2483,112,172,817
742639,37178820,37948400,37309746,38128946,3800,3800,-7009,12623,-8916,2211,5909,2767,112,172,817
743640,37179308,37949248,37310490,38129690,3800,3800,-6990,14134,-8614,1714,5159,2844,118,160,819
744641,37179816,37950004,37311234,38130434,3800,3800,-7125,15930,-8365,1439,4930,3841,118,160,819
745641,37180300,37950804,37311978,38131178,3800,3800,-7485,17821,-8164,903,3969,4006,119,177,818
746643,37180836,37951668,37312722,38131922,3800,3800,-7750,19023,-7924,732,3073,1335,119,177,818
747644,37181360,37952528,37313466,38132666,3800,3800,-7880,19445,-7608,775,1988,-83,123,181,818
748645,37181852,37953352,37314210,38133410,3800,3800,-7906,19419,-7201,777,998,-1195,123,181,818
749646,37182428,37954084,37314954,38134154,3800,3800,-7900,19178,-6721,564,49,-1798,123,157,819
750647,37182952,37954772,37315698,38134898,3800,3800,-7871,18719,-6157,205,-1273,-2550,123,157,819
751648,37183476,37955396,37316442,38135642,3800,3800,-7918,18070,-5533,140,-2192,-2839,106,127,816
752649,37184020,37955936,37317186,38136386,3800,3800,-8015,16966,-4946,122,-2643,-4293,106,127,816
753650,37184592,37956352,37317930,38137130,3800,3800,-8105,15414,-4449,-63,-2947,-5459,112,88,815
754651,37185140,37956704,37318674,38137874,3800,3800,-8140,13605,-4020,-580,-3357,-5790,112,88,815
755652,37185700,37957008,37319418,38138618,3800,3800,-8226,11930,-3578,-1018,-4197,-4860,123,67,812
756653,37186244,37957232,37320162,38139362,3800,3800,-8401,10613,-3246,-1624,-4785,-3707,123,67,812
757654,37186764,37957368,37320906,38140106,3800,3800,-8483,9667,-3055,-2335,-5873,-2836,109,31,811
758655,37187244,37957444,37321650,38140850,3800,3800,-8285,8753,-2905,-3353,-7470,-2844,109,31,811
759656,37187736,37957524,37322394,38141594,3800,3800,-7920,7876,-2692,-4478,-9402,-1897,94,29,810
760657,37188164,37957616,37323138,38142338,3800,3800,-7678,7742,-2445,-4973,-10892,1061,94,29,810
761658,37188540,37957716,37323882,38143082,3800,3800,-7525,8392,-2241,-5307,-11694,2232,89,17,808
762659,37188884,37957832,37324626,38143826,3800,3800,-7173,8906,-2130,-6143,-11961,1344,89,17,808
763667,37189232,37957984,37325386,38144586,3800,3800,-6653,9042,-2088,-7084,-12056,1725,53,30,807
764661,37189532,37958152,37326130,38145330,3800,3800,-6117,9257,-2035,-7798,-12285,3009,53,30,807
765662,37189876,37958344,37326874,38146074,3800,3800,-5057,9332,-1935,-9031,-15998,5213,73,52,807
766663,37190260,37958564,37327618,38146818,3800,3800,-246,8311,-1366,-14353,-32768,32767,73,52,807
767664,37190652,37958812,37328362,38147562,3800,3800,3324,6016,-654,-14163,-14750,8876,76,61,809
768665,37191064,37959080,37329106,38148306,3800,3800,4216,1260,-98,-14532,-6580,-2467,76,61,809
769666,37191528,37959380,37329850,38149050,3800,3800,3816,-4211,449,-13806,-5638,-1706,83,60,811
770667,37191980,37959704,37330594,38149794,3800,3800,3343,-7489,928,-11574,-4577,3425,83,60,811
771668,37192508,37960024,37331338,38150538,3800,3800,3067,-7356,1212,-9698,-3842,8839,84,65,812
772669,37193044,37960340,37332082,38151282,3800,3800,2857,-5253,1490,-9647,-3350,10677,84,65,812
773670,37193588,37960632,37332826,38152026,3800,3800,2670,-3156,1818,-8577,-2545,10360,111,84,811
774671,37194124,37961000,37333570,38152770,3800,3800,2441,-2252,2078,-8623,-1194,8639,111,84,811
775672,37194748,37961380,37334314,38153514,3800,3800,2148,-3038,2260,-9753,785,7120,121,82,813
776673,37195316,37961656,37335058,38154258,3800,3800,1617,-4846,2427,-10706,2010,7034,121,82,813
777673,37195932,37961976,37335802,38155002,3800,3800,875,-6415,2423,-9964,2988,7728,135,68,813
778675,37196628,37962284,37336546,38155746,3800,3800,45,-7163,2127,-8095,5242,8490,135,68,813
779676,37197256,37962580,37337290,38156490,3800,3800,-712,-7087,1604,-6398,7436,8802,114,55,812
780677,37197956,37962832,37338034,38157234,3800,3800,-1386,-6384,1002,-4543,8696,9253,114,55,812
781678,37198700,37963096,37338778,38157978,3800,3800,-1845,-5593,451,-3134,9380,8837,122,67,813
782679,37199432,37963364,37339522,38158722,3800,3800,-2027,-5023,-37,-1873,10061,8129,122,67,813
783680,37200180,37963644,37340266,38159466,3800,3800,-2033,-4712,-550,-586,11193,7270,127,56,812
784681,37200992,37963920,37341010,38160210,3800,3800,-1959,-4768,-1154,681,11979,5780,127,56,812
785689,37201852,37964176,37341770,38160970,3800,3800,-1824,-5331,-1786,2014,11468,3949,144,59,813
786683,37202680,37964444,37342514,38161714,3800,3800,-1589,-6421,-2256,3290,10784,2266,144,59,813
787684,37203504,37964696,37343258,38162458,3800,3800,-1353,-7929,-2555,4172,10146,1113,158,62,816
788685,37204480,37965032,37344002,38163202,3800,3800,-1075,-9654,-2638,4663,8817,353,158,62,816
789685,37205352,37965368,37344746,38163946,3800,3800,-755,-11532,-2503,4655,7847,241,170,59,816
790686,37206212,37965664,37345490,38164690,3800,3800,-477,-13147,-2230,3796,5638,1509,170,59,816
791688,37207112,37965944,37346234,38165434,3800,3800,-275,-14200,-1799,2023,3446,2857,169,81,815
792689,37207972,37966360,37346978,38166178,3800,3800,33,-15164,-1326,61,2928,2653,169,81,815
793689,37208824,37966716,37347722,38166922,3800,3800,493,-16184,-934,-995,2404,2648,172,73,817
794690,37209688,37967060,37348466,38167666,3800,3800,934,-17086,-661,-1652,1819,3247,172,73,817
795692,37210448,37967388,37349210,38168410,3800,3800,1251,-17391,-401,-2463,901,5460,172,74,815
796693,37211196,37967796,37349954,38169154,3800,3800,1410,-17052,-3,-2691,-445,7555,172,74,815
797694,37212044,37968228,37350698,38169898,3800,3800,1432,-16111,589,-2879,-1485,8959,166,77,815
798694,37212784,37968572,37351442,38170642,3800,3800,1535,-14881,1293,-3063,-1752,9089,166,77,815
799696,37213532,37968988,37352186,38171386,3800,3800,1738,-13664,1967,-3046,-2226,8865,161,94,815
800697,37214316,37969440,37352930,38172130,3800,3800,1961,-12326,2861,-2595,-4376,9872,161,94,815
801698,37215084,37969868,37353674,38172874,3800,3800,2127,-10532,3767,-2289,-3978,11112,159,89,815
802699,37215816,37970216,37354418,38173618,3800,3800,1979,-7916,4743,-1829,-5890,13597,159,89,815
803700,37216524,37970748,37355162,38174362,3800,3800,1922,-5263,5850,-1131,-6555,11800,142,99,816
804701,37217352,37971224,37355906,38175106,3800,3800,2299,-3740,6458,-548,-4173,8284,142,99,816
805702,37218024,37971628,37356650,38175850,3800,3800,3053,-2608,6606,733,-3105,8423,129,98,815
806703,37218748,37972156,37357394,38176594,3800,3800,3809,-1214,6581,2209,-1964,8736,129,98,815
807713,37219412,37972680,37358154,38177354,3800,3800,4478,304,6689,3762,-2086,8264,139,91,814
808705,37220104,37973220,37358898,38178098,3800,3800,5249,1384,6762,4060,-1491,6033,139,91,814
809706,37220632,37973828,37359642,38178842,3800,3800,6134,2010,6583,4295,-1000,4639,138,108,816
810707,37221376,37974348,37360386,38179586,3800,3800,6999,2465,6131,4573,-534,4277,138,108,816
811708,37221956,37974992,37361130,38180330,3800,3800,7660,2756,5590,4685,-1481,3794,134,117,816
812709,37222644,37975636,37361874,38181074,3800,3800,8117,3116,5060,4841,-1721,3647,134,117,816
813710,37223280,37976280,37362618,38181818,3800,3800,8363,3612,4527,5338,-1081,4137,137,131,817
814711,37223960,37977044,37363362,38182562,3800,3800,8477,4296,3880,5603,-522,4304,137,131,817
815712,37224556,37977824,37364106,38183306,3800,3800,8476,4981,3171,5444,-363,4244,140,145,816
816713,37225276,37978580,37364850,38184050,3800,3800,8382,5957,2462,5607,120,5317,140,145,816
817714,37225896,37979392,37365594,38184794,3800,3800,8148,7062,1879,6149,-303,5220,128,146,817
818715,37226540,37980124,37366338,38185538,3800,3800,7896,8077,1412,6893,203,4238,128,146,817
819716,37227188,37980916,37367082,38186282,3800,3800,7594,8878,841,7813,1518,3536,143,153,818
820717,37227892,37981644,37367826,38187026,3800,3800,7100,9692,116,9095,2533,3561,143,153,818
821718,37228556,37982404,37368570,38187770,3800,3800,6466,10478,-655,9776,2644,3050,140,149,818
822719,37229240,37983032,37369314,38188514,3800,3800,5808,10915,-1498,9405,3034,1764,140,149,818
823720,37229976,37983676,37370058,38189258,3800,3800,5254,10902,-2470,8627,3507,327,132,125,817
824721,37230648,37984208,37370802,38190002,3800,3800,4761,10739,-3516,8249,3422,-296,132,125,817
825722,37231352,37984740,37371546,38190746,3800,3800,4250,10666,-4548,7913,2832,-580,128,102,817
826723,37232156,37985172,37372290,38191490,3800,3800,3695,10728,-5545,7204,2230,-618,128,102,817
827724,37232932,37985556,37373034,38192234,3800,3800,3190,10772,-6590,5714,1268,-1272,133,102,814
828725,37233728,37985872,37373778,38192978,3800,3800,2801,10608,-7724,4368,-315,-1969,133,102,814
829733,37234612,37986204,37374538,38193738,3800,3800,2479,10618,-8783,3877,-950,-1529,154,74,815
830727,37235380,37986504,37375282,38194482,3800,3800,2057,11071,-9818,3268,-112,-674,154,74,815
831728,37236160,37986860,37376026,38195226,3800,3800,1472,11879,-10904,1755,-696,86,169,93,815
832729,37237052,37987320,37376770,38195970,3800,3800,902,12696,-12004,374,-1786,-92,169,93,815
833730,37237848,37987840,37377514,38196714,3800,3800,374,13512,-12954,440,-2404,-18,172,122,817
834731,37238648,37988440,37378258,38197458,3800,3800,-8,14159,-13531,1413,-3268,-813,172,122,817
835732,37239588,37989040,37379002,38198202,3800,3800,-224,14204,-13828,1918,-3363,-2463,171,111,818
836733,37240352,37989616,37379746,38198946,3800,3800,-347,13561,-14023,1767,-2777,-3825,171,111,818
837734,37241116,37990080,37380490,38199690,3800,3800,-367,12436,-14179,1211,-2797,-4965,176,119,818
838735,37241868,37990556,37381234,38200434,3800,3800,-446,10975,-14244,774,-2962,-5740,176,119,818
839735,37242720,37991052,37381978,38201178,3800,3800,-653,9279,-14157,463,-2647,-6307,177,100,817
840737,37243480,37991640,37382722,38201922,3800,3800,-962,7425,-13973,57,-1554,-6530,177,100,817
841738,37244204,37992232,37383466,38202666,3800,3800,-1406,5716,-13647,282,-1533,-6015,156,116,818
842739,37244980,37992948,37384210,38203410,3800,3800,-1744,4122,-12992,545,-2183,-6066,156,116,818
843740,37245720,37993588,37384954,38204154,3800,3800,-2011,2518,-12173,363,-2175,-5730,148,119,818
844741,37246388,37994212,37385698,38204898,3800,3800,-2333,933,-11278,533,-2420,-5277,148,119,818
845742,37247076,37994820,37386442,38205642,3800,3800,-2705,-527,-10279,572,-2417,-4804,134,124,818
846743,37247724,37995432,37387186,38206386,3800,3800,-3268,-1778,-9330,198,-2109,-4101,134,124,818
847744,37248320,37996088,37387930,38207130,3800,3800,-3990,-3000,-8419,-152,-2296,-3721,141,147,817
848745,37248948,37996772,37388674,38207874,3800,3800,-4874,-3807,-7564,64,-1923,-1649,141,147,817
849746,37249448,37997412,37389418,38208618,3800,3800,-7198,-2172,-6554,1629,-1433,8155,113,128,815
850747,37249948,37998204,37390162,38209362,3800,3800,-9918,-117,-5299,1519,-3154,4703,113,128,815
851755,37250464,37999000,37390922,38210122,3800,3800,-11539,247,-4350,475,-1707,-238,110,141,815
852749,37250904,37999836,37391666,38210866,3800,3800,-11922,-936,-3840,-83,-1076,-1753,110,141,815
853750,37251312,38000724,37392410,38211610,3800,3800,-11984,-2081,-3536,229,-988,-149,81,187,817
854751,37251692,38001384,37393154,38212354,3800,3800,-12198,-2332,-3152,153,-2225,2258,81,187,817
855751,37252152,38002360,37393898,38213098,3800,3800,-12710,-1336,-2479,132,-4662,6048,88,191,817
856753,37252548,38003308,37394642,38213842,3800,3800,-13262,-13,-1615,-66,-5952,6210,88,191,817
857753,37252976,38004324,37395386,38214586,3800,3800,-13581,1061,-768,-651,-7106,6651,90,196,818
858755,37253460,38005292,37396130,38215330,3800,3800,-13700,2073,-150,-1195,-7410,7405,90,196,818
859756,37253984,38006336,37396874,38216074,3800,3800,-13742,2988,252,-1644,-7452,7738,98,211,819
860757,37254504,38007320,37397618,38216818,3800,3800,-13364,4025,510,-1516,-6759,9205,98,211,819
861758,37255144,38008316,37398362,38217562,3800,3800,-6617,16025,454,6832,-4743,32767,124,204,818
862759,37255768,38009288,37399106,38218306,3800,3800,4903,-32008,629,7364,-9035,32767,124,204,818
863760,37256440,38010272,37399850,38219050,3800,3800,10733,-32008,497,4148,-1933,3373,136,213,821
864761,37257136,38011360,37400594,38219794,3800,3800,10562,-32008,-27,3960,1336,-4287,136,213,821
865762,37257840,38012344,37401338,38220538,3800,3800,9133,30952,-752,4363,427,-8143,158,209,821
866763,37258560,38013276,37402082,38221282,3800,3800,8867,21523,-1188,2649,-2077,-7691,158,209,821
867764,37259376,38014228,37402826,38222026,3800,3800,9142,17407,-1016,2692,-3671,-8793,162,208,822
868765,37260188,38015096,37403570,38222770,3800,3800,9157,12789,-798,1112,-4583,-8248,162,208,822
869766,37261000,38015948,37404314,38223514,3800,3800,9006,8167,-687,-680,-3522,-7421,166,202,822
870767,37262008,38016892,37405058,38224258,3800,3800,8751,3775,-745,-1845,-3479,-6612,166,202,822
871768,37262880,38017668,37405802,38225002,3800,3800,8442,221,-729,-3023,-4219,-3844,158,173,821
872769,37263796,38018432,37406546,38225746,3800,3800,7908,-2363,-586,-4525,-4038,-1082,158,173,821
873777,37264796,38019112,37407306,38226506,3800,3800,7198,-4067,-547,-6424,-2698,1006,175,165,820
874771,37265872,38019792,37408050,38227250,3800,3800,6388,-5453,-757,-8757,-1745,1899,175,165,820
875772,37266936,38020420,37408794,38227994,3800,3800,5751,-7955,-1026,-17422,-1446,271,210,125,821
876773,37267928,38020920,37409538,38228738,3800,3800,5302,-12488,-1182,-26984,-1568,-658,210,125,821
877774,37268952,38021380,37410282,38229482,3800,3800,4657,-15199,-1660,-21933,-220,4463,210,108,820
878774,37269960,38021764,37411026,38230226,3800,3800,3599,-15035,-2451,-14229,2381,6486,210,108,820
879776,37271028,38022104,37411770,38230970,3800,3800,2442,-14280,-3009,-13793,2667,5870,199,86,819
880776,37272140,38022460,37412514,38231714,3800,3800,1375,-13846,-3039,-15919,1392,6656,199,86,819
881778,37273068,38022784,37413258,38232458,3800,3800,665,-13867,-2556,-16437,509,6448,208,77,818
882778,37274040,38023044,37414002,38233202,3800,3800,250,-13379,-1859,-11668,-394,7022,208,77,818
883780,37275052,38023304,37414746,38233946,3800,3800,-109,-12271,-1048,-8367,-1347,6695,208,70,817
884781,37276008,38023568,37415490,38234690,3800,3800,-350,-11300,-15,-8301,-1493,5109,208,70,817
885782,37276884,38023840,37416234,38235434,3800,3800,-453,-11387,1056,-8780,-1436,2959,209,66,817
886783,37277884,38024084,37416978,38236178,3800,3800,-337,-12183,2077,-8287,-899,1822,209,66,817
887784,37278776,38024328,37417722,38236922,3800,3800,-149,-13020,3072,-7367,207,1608,205,67,817
888785,37279684,38024560,37418466,38237666,3800,3800,21,-13947,3949,-6583,676,898,205,67,817
889786,37280660,38024796,37419210,38238410,3800,3800,204,-15272,4759,-6095,1075,183,193,50,815
890787,37281472,38025024,37419954,38239154,3800,3800,550,-16971,5625,-3764,913,-1201,193,50,815
891788,37282304,38025216,37420698,38239898,3800,3800,1136,-19218,6439,-1158,835,-3903,167,49,815
892789,37283188,38025424,37421442,38240642,3800,3800,1846,-21869,7109,439,1517,-4136,167,49,815
893790,37284040,38025604,37422186,38241386,3800,3800,2449,-24280,7655,1889,1828,-3103,166,42,813
894790,37284724,38025768,37422930,38242130,3800,3800,2895,-26220,8023,3288,2490,-2638,166,42,813
895801,37285516,38025932,37423690,38242890,3800,3800,3409,-27593,8260,3937,2511,-1917,144,41,812
896792,37286200,38026084,37424434,38243634,3800,3800,3912,-28220,8412,3924,1994,353,144,41,812
897794,37286976,38026304,37425178,38244378,3800,3800,4308,-27951,8492,3265,1615,3191,148,57,813
898795,37287596,38026512,37425922,38245122,3800,3800,4658,-26750,8593,3711,658,5449,148,57,813
899796,37288404,38026736,37426666,38245866,3800,3800,4946,-24785,8548,4323,732,6845,134,43,811
900797,37289004,38026924,37427410,38246610,3800,3800,5192,-22475,8189,3653,1605,7607,134,43,811
901798,37289700,38027104,37428154,38247354,3800,3800,5435,-19969,7503,2531,1570,8457,139,48,812
902799,37290400,38027304,37428898,38248098,3800,3800,5685,-17148,6713,1720,367,9114,139,48,812
903800,37291084,38027556,37429642,38248842,3800,3800,5773,-14035,6003,2215,-259,9642,129,56,812
904801,37291756,38027808,37430386,38249586,3800,3800,5647,-10666,5277,2364,331,10019,129,56,812
905802,37292492,38028040,37431130,38250330,3800,3800,5352,-6963,4400,2138,1738,11143,142,46,811
906803,37293152,38028272,37431874,38251074,3800,3800,4985,-3192,3616,2268,1340,10390,142,46,811
907804,37293856,38028488,37432618,38251818,3800,3800,4822,-30,2869,2268,1867,7866,134,59,812
908805,37294688,38028732,37433362,38252562,3800,3800,4842,2269,1987,3217,2767,5215,134,59,812
909806,37295428,38029020,37434106,38253306,3800,3800,4824,3421,963,5164,3314,1716,144,52,813
910807,37296228,38029292,37434850,38254050,3800,3800,4713,3698,-84,7288,3379,-644,144,52,813
911808,37297076,38029580,37435594,38254794,3800,3800,4521,3767,-1024,8850,3372,-1498,151,66,813
912808,37298040,38029840,37436338,38255538,3800,3800,4350,3596,-1770,9382,2865,-2691,151,66,813
913810,37298848,38030096,37437082,38256282,3800,3800,4359,2740,-2439,9076,2392,-4892,162,64,814
914811,37299772,38030424,37437826,38257026,3800,3800,4539,1173,-3136,9094,1841,-6811,162,64,814
915812,37300664,38030764,37438570,38257770,3800,3800,4752,-500,-3786,9652,1025,-7049,158,64,815
916813,37301544,38031108,37439314,38258514,3800,3800,4850,-1907,-4262,9898,149,-6759,158,64,815
917821,37302396,38031396,37440074,38259274,3800,3800,4888,-3021,-4521,9867,-977,-6160,163,74,813
918815,37303348,38031748,37440818,38260018,3800,3800,4881,-3794,-4636,9917,-1611,-5281,163,74,813
919816,37304184,38032168,37441562,38260762,3800,3800,4867,-4179,-4721,9226,-1699,-4564,172,84,816
920817,37305076,38032592,37442306,38261506,3800,3800,4915,-4457,-4788,7833,-1749,-4601,172,84,816
921817,37305920,38032924,37443050,38262250,3800,3800,4973,-4887,-4860,6786,-1435,-4556,172,86,816
922818,37306684,38033388,37443794,38262994,3800,3800,4774,-4638,-5005,5948,-524,-1829,172,86,816
923819,37307448,38033820,37444538,38263738,3800,3800,4157,-3094,-5132,4958,-938,1548,177,89,816
924820,37308288,38034208,37445282,38264482,3800,3800,3206,-484,-4765,4666,-2291,3741,177,89,816
925821,37309056,38034732,37446026,38265226,3800,3800,1875,2542,-4052,3781,-2602,4960,154,98,816
926822,37309820,38035208,37446770,38265970,3800,3800,614,5494,-2931,4264,-3754,4380,154,98,816
927823,37310580,38035664,37447514,38266714,3800,3800,-250,8034,-1638,4271,-3203,2942,164,94,815
928824,37311428,38036148,37448258,38267458,3800,3800,-644,9857,-835,2870,275,1385,164,94,815
929825,37312168,38036720,37449002,38268202,3800,3800,-666,11113,-715,2405,2967,149,147,110,815
930827,37312836,38037316,37449746,38268946,3800,3800,-578,12351,-847,3381,3595,-221,147,110,815
931828,37313564,38038036,37450490,38269690,3800,3800,-573,13615,-806,4525,3697,-692,154,122,817
932829,37314164,38038708,37451234,38270434,3800,3800,-653,14393,-551,5537,3743,-1665,154,122,817
933830,37314720,38039484,37451978,38271178,3800,3800,-880,14768,-208,6590,3192,-1772,141,149,817
934831,37315248,38040204,37452722,38271922,3800,3800,-1237,15069,211,7514,1817,-1597,141,149,817
935832,37315656,38041064,37453466,38272666,3800,3800,-1675,15226,621,8176,980,-1915,91,168,816
936833,37316016,38041992,37454210,38273410,3800,3800,-2097,14987,900,8298,764,-2596,91,168,816
937834,37316332,38042848,37454954,38274154,3800,3800,-2448,14303,992,8509,609,-3531,85,164,816
938835,37316604,38043864,37455698,38274898,3800,3800,-2612,13262,852,8911,448,-4593,85,164,816
939843,37316832,38044712,37456458,38275658,3800,3800,-2652,11832,504,8826,743,-5292,51,161,814
940837,37317076,38045612,37457202,38276402,3800,3800,-2717,10492,28,8916,688,-4177,51,161,814
941838,37317316,38046608,37457946,38277146,3800,3800,-2961,9727,-499,8996,-208,-2029,59,188,816
942839,37317584,38047532,37458690,38277890,3800,3800,-3185,9221,-1150,8679,-618,-2414,59,188,816
943840,37317840,38048444,37459434,38278634,3800,3800,-3337,8698,-2018,8132,-998,-2158,52,172,815
944841,37318132,38049380,37460178,38279378,3800,3800,-3458,8368,-3033,7557,-1793,-1052,52,172,815
945842,37318444,38050216,37460922,38280122,3800,3800,-3727,8720,-4140,7031,-2732,1071,62,171,816
946843,37318776,38051024,37461666,38280866,3800,3800,-4094,9781,-5284,6375,-3781,2383,62,171,816
947844,37319160,38051848,37462410,38281610,3800,3800,-4425,11089,-6392,4784,-5998,2649,65,181,816
948845,37319516,38052696,37463154,38282354,3800,3800,-3493,10302,-6682,-12389,-27849,2757,65,181,816
949846,37319888,38053532,37463898,38283098,3800,3800,-1922,9075,-6489,-11633,-25223,7340,71,168,815
950847,37320328,38054328,37464642,38283842,3800,3800,-1718,9487,-7092,4212,-2766,4328,71,168,815
951848,37320732,38055120,37465386,38284586,3800,3800,-2082,11036,-8479,4452,580,2116,87,161,815
952849,37321176,38055836,37466130,38285330,3800,3800,-2535,11969,-9998,3943,676,2070,87,161,815
953850,37321676,38056584,37466874,38286074,3800,3800,-2657,12697,-11334,3820,1202,1345,97,144,816
954851,37322132,38057336,37467618,38286818,3800,3800,-2938,12832,-12526,3571,1814,1256,97,144,816
955852,37322632,38057984,37468362,38287562,3800,3800,-3005,12725,-13775,2321,2987,-411,106,141,816
956853,37323168,38058672,37469106,38288306,3800,3800,-3075,12130,-15069,1706,3544,-1321,106,141,816
957854,37323668,38059276,37469850,38289050,3800,3800,-3060,11424,-16292,1586,3642,-1810,104,132,815
958855,37324208,38059976,37470594,38289794,3800,3800,-3251,10548,-17222,1962,3741,-1834,104,132,815
959856,37324680,38060664,37471338,38290538,3800,3800,-3449,9704,-17697,2588,3031,-1514,114,139,817
960857,37325272,38061392,37472082,38291282,3800,3800,-3744,8916,-17660,2220,1802,-995,114,139,817
961864,37325804,38062140,37472842,38292042,3800,3800,-3843,8198,-17385,1272,1800,-1011,116,153,816
962859,37326360,38062772,37473586,38292786,3800,3800,-3810,7204,-17049,552,2636,-1732,116,153,816
963860,37327008,38063516,37474330,38293530,3800,3800,-3671,6018,-16604,-480,2839,-1991,105,152,816
964861,37327588,38064384,37475074,38294274,3800,3800,-3563,4687,-15988,-1918,2655,-1917,105,152,816
965862,37328216,38065012,37475818,38295018,3800,3800,-3414,3475,-15145,-3333,1934,-1308,125,150,817
966863,37328932,38065880,37476562,38295762,3800,3800,-3266,2533,-14047,-4497,1748,-101,125,150,817
967864,37329564,38066772,37477306,38296506,3800,3800,-3161,2206,-12803,-5605,1113,1426,132,183,819
968865,37330248,38067688,37478050,38297250,3800,3800,-3077,2262,-11521,-7059,502,2346,132,183,819
969865,37331016,38068688,37478794,38297994,3800,3800,-3042,2353,-10175,-8792,-90,3009,140,198,820
970866,37331700,38069740,37479538,38298738,3800,3800,-3146,2373,-8762,-10145,-697,3738,140,198,820
971868,37332424,38070644,37480282,38299482,3800,3800,-3365,2530,-7296,-11339,-1376,4601,143,205,821
972869,37333224,38071600,37481026,38300226,3800,3800,-3599,2782,-5804,-12459,-2158,5037,143,205,821
973870,37333952,38072620,37481770,38300970,3800,3800,-3823,2386,-4293,-14279,-2824,3955,158,193,819
974871,37334700,38073504,37482514,38301714,3800,3800,-3844,-933,-2576,-17843,-3305,-535,158,193,819
975872,37335508,38074496,37483258,38302458,3800,3800,450,-4991,-639,-16532,-12094,28253,157,187,822
976873,37336352,38075380,37484002,38303202,3800,3800,6421,-1194,1090,-6416,-12838,32767,157,187,822
977874,37337152,38076260,37484746,38303946,3800,3800,4478,8062,2610,-10900,-2171,32767,162,187,822
978874,37337948,38077100,37485490,38304690,3800,3800,110,12452,3475,-16195,-551,12409,162,187,822
979876,37338756,38077920,37486234,38305434,3800,3800,-1336,7456,4082,-17960,-2116,-5524,166,184,822
980877,37339552,38078728,37486978,38306178,3800,3800,-612,-813,4802,-16647,-1584,-6284,166,184,822
981878,37340304,38079680,37487722,38306922,3800,3800,350,-6000,5789,-11903,-1073,-1774,173,188,822
982879,37341116,38080496,37488466,38307666,3800,3800,580,-7291,6971,-8621,-801,1314,173,188,822
983889,37341816,38081276,37489226,38308426,3800,3800,383,-7806,8199,-6876,-1233,1950,176,187,819
984881,37342468,38082136,37489970,38309170,3800,3800,179,-8872,9312,-5441,-1190,3333,176,187,819
985882,37343136,38082980,37490714,38309914,3800,3800,10,-10087,10348,-3033,-1301,4203,152,184,821
986883,37343672,38083856,37491458,38310658,3800,3800,-7,-11539,11260,190,-1095,4363,152,184,821
987884,37344164,38084636,37492202,38311402,3800,3800,35,-13025,11833,2248,-14,3335,124,174,820
988885,37344716,38085408,37492946,38312146,3800,3800,135,-14743,12090,3945,1057,2222,124,174,820
989886,37345124,38086068,37493690,38312890,3800,3800,247,-16733,11994,5749,1489,266,103,137,818
990886,37345492,38086684,37494434,38313634,3800,3800,186,-18607,11628,6166,1286,583,103,137,818
991888,37345876,38087188,37495178,38314378,3800,3800,-809,-18475,11136,6097,1089,9092,86,122,814
992888,37346152,38087636,37495922,38315122,3800,3800,-1829,-17519,10544,5929,266,7611,86,122,814
993890,37346388,38088004,37496666,38315866,3800,3800,-2397,-16843,10043,5387,-1396,6966,54,82,810
994890,37346560,38088256,37497410,38316610,3800,3800,-2551,-16418,9562,5341,-1614,7334,54,82,810
995892,37346668,38088432,37498154,38317354,3800,3800,-2646,-16050,8828,5695,-1517,7183,33,40,807
996893,37346744,38088576,37498898,38318098,3800,3800,-2970,-15253,7752,4897,-1361,8511,33,40,807
997894,37346772,38088724,37499642,38318842,3800,3800,-3270,-14140,6472,4057,-1954,8598,22,31,805
998895,37346796,38088868,37500386,38319586,3800,3800,-3368,-13315,5039,4090,-1957,7496,22,31,805
999896,37346836,38088940,37501130,38320330,3800,3800,-3331,-12482,3551,3351,-2221,7764,21,33,803
1000897,37346856,38089012,37501874,38321074,3800,3800,-3406,-11373,2122,2786,-2487,8757,21,33,803
1001898,37346860,38089096,37502618,38321818,3800,3800,-3492,-10206,817,3501,-4008,8108,14,16,804
1002899,37346968,38089188,37503362,38322562,3800,3800,-3832,-8570,145,4380,-14071,7686,14,16,804
1003900,37347224,38089304,37504106,38323306,3800,3800,-4120,-6567,282,1896,-14921,8341,19,34,805
1004901,37347472,38089472,37504850,38324050,3800,3800,-4160,-4541,491,2015,-8514,10913,19,34,805
1005909,37347820,38089596,37505610,38324810,3800,3800,-3840,-2940,404,1642,-5619,9492,63,29,806
1006903,37348172,38089732,37506354,38325554,3800,3800,-3295,-1822,180,2420,-4292,8139,63,29,806
1007904,37348636,38089876,37507098,38326298,3800,3800,-2662,-1103,-91,3489,-2871,6645,95,46,809
1008905,37349196,38090036,37507842,38327042,3800,3800,-2043,-678,-496,3852,-163,6236,95,46,809
1009906,37349668,38090252,37508586,38327786,3800,3800,-1423,-203,-956,3655,798,6614,108,36,810
1010906,37350124,38090480,37509330,38328530,3800,3800,-921,505,-1147,3904,18,7550,108,36,810
1011907,37350640,38090676,37510074,38329274,3800,3800,-555,1626,-1130,4105,618,8303,96,39,810
1012909,37351120,38090868,37510818,38330018,3800,3800,-172,2797,-1165,3470,1539,7768,96,39,810
1013910,37351580,38091064,37511562,38330762,3800,3800,311,3763,-1345,2641,2304,7006,95,36,810
1014911,37352208,38091280,37512306,38331506,3800,3800,849,4557,-1710,1682,2909,6653,95,36,810
1015912,37352776,38091548,37513050,38332250,3800,3800,1364,5333,-2110,662,2360,6414,105,50,809
1016913,37353496,38091812,37513794,38332994,3800,3800,1875,5925,-2313,177,1097,5457,105,50,809
1017913,37354284,38092204,37514538,38333738,3800,3800,2349,6456,-2351,-54,930,5487,141,80,812
1018915,37354904,38092648,37515282,38334482,3800,3800,2755,7296,-2276,-408,602,6173,141,80,812
1019915,37355740,38093088,37516026,38335226,3800,3800,3090,8187,-2162,-138,456,5332,162,88,815
1020917,37356556,38093596,37516770,38335970,3800,3800,3520,8628,-2010,509,78,3401,162,88,815
1021918,37357432,38094160,37517514,38336714,3800,3800,4026,8731,-1817,1120,131,2642,166,114,817
1022918,37358236,38094744,37518258,38337458,3800,3800,4512,8872,-1611,1488,87,2870,166,114,817
1023919,37359020,38095336,37519002,38338202,3800,3800,4911,8963,-1443,1323,206,2522,150,117,818
1024921,37359992,38095912,37519746,38338946,3800,3800,5248,8997,-1419,1105,314,1829,150,117,818
1025921,37360868,38096624,37520490,38339690,3800,3800,5552,8900,-1517,1286,272,1235,168,123,819
1026922,37361812,38097344,37521234,38340434,3800,3800,5762,8844,-1700,1527,-9,1332,168,123,819
1027930,37362752,38098096,37521994,38341194,3800,3800,5894,8974,-1833,991,-613,1387,179,145,818
1028925,37363648,38098868,37522738,38341938,3800,3800,6019,9053,-1925,271,-1488,563,179,145,818
1029926,37364552,38099696,37523482,38342682,3800,3800,6244,8826,-2046,311,-2238,-431,167,160,820
1030927,37365568,38100596,37524226,38343426,3800,3800,6495,8602,-2082,975,-3235,-78,167,160,820
1031928,37366420,38101468,37524970,38344170,3800,3800,6644,8882,-1986,1231,-4311,1124,157,182,821
1032929,37367288,38102524,37525714,38344914,3800,3800,6748,9548,-1851,475,-4584,1275,157,182,821
1033929,37368232,38103452,37526458,38345658,3800,3800,6937,9869,-1827,63,-4069,97,158,188,822
1034930,37369116,38104384,37527202,38346402,3800,3800,7177,9905,-1921,611,-3573,-653,158,188,822
1035932,37369920,38105400,37527946,38347146,3800,3800,7365,9606,-2069,990,-2836,-1520,178,194,823
1036933,37370856,38106396,37528690,38347890,3800,3800,7456,9221,-2187,1301,-2567,-1462,178,194,823
1037934,37371632,38107460,37529434,38348634,3800,3800,7543,8706,-2191,956,-2576,-1930,178,207,821
1038935,37372500,38108456,37530178,38349378,3800,3800,7623,8212,-2139,888,-2118,-1850,178,207,821
1039936,37373332,38109568,37530922,38350122,3800,3800,7675,7830,-2038,960,-2441,-1820,181,198,822
1040937,37374248,38110500,37531666,38350866,3800,3800,7688,7557,-1855,335,-3093,-1458,181,198,822
1041938,37375100,38111464,37532410,38351610,3800,3800,7670,7603,-1641,-524,-3387,-537,176,201,824
1042938,37375972,38112468,37533154,38352354,3800,3800,7550,7897,-1471,-1057,-3210,144,176,201,824
1043940,37376924,38113504,37533898,38353098,3800,3800,7285,8640,-1405,-1297,-2694,1120,212,207,824
1044941,37377856,38114512,37534642,38353842,3800,3800,6948,9466,-1415,-1469,-2367,671,212,207,824
1045942,37378716,38115472,37535386,38354586,3800,3800,6628,10092,-1473,-1482,-2299,108,197,207,824
1046943,37379616,38116508,37536130,38355330,3800,3800,6338,10422,-1540,-1209,-1976,-558,197,207,824
1047944,37380360,38117540,37536874,38356074,3800,3800,6080,10329,-1638,395,-1591,-2162,181,211,823
1048945,37381080,38118536,37537618,38356818,3800,3800,5827,9634,-1846,2160,-1260,-3987,181,211,823
1049952,37381836,38119488,37538378,38357578,3800,3800,5552,8593,-2076,3239,-1216,-4677,154,199,821
1050947,37382480,38120468,37539122,38358322,3800,3800,5257,7393,-2323,3426,-1240,-5332,154,199,821
1051948,37383148,38121456,37539866,38359066,3800,3800,5049,6020,-2587,2391,-1477,-5816,144,199,821
1052949,37383832,38122468,37540610,38359810,3800,3800,4719,4833,-2877,1907,-552,-4863,144,199,821
1053950,37384488,38123456,37541354,38360554,3800,3800,4203,3723,-3278,2153,-259,-5096,150,194,820
1054951,37385132,38124556,37542098,38361298,3800,3800,3651,2475,-3794,2249,-388,-5439,150,194,820
1055952,37385804,38125512,37542842,38362042,3800,3800,3167,1362,-4366,1868,-103,-4917,149,188,821
1056952,37386448,38126412,37543586,38362786,3800,3800,2640,497,-4952,994,-445,-4100,149,188,821
1057953,37387092,38127444,37544330,38363530,3800,3800,2032,-238,-5398,1062,-2265,-3816,150,202,821
1058954,37387688,38128244,37545074,38364274,3800,3800,1429,-1158,-5667,2000,-2182,-4342,150,202,821
1059955,37388384,38129256,37545818,38365018,3800,3800,777,-2131,-5805,2592,-1972,-3996,116,160,819
1060956,37388904,38130260,37546562,38365762,3800,3800,127,-3202,-5877,1848,-1410,-4245,116,160,819
1061958,37389480,38131248,37547306,38366506,3800,3800,-487,-4071,-5874,1129,-1456,-3344,130,184,818
1062959,37390084,38132284,37548050,38367250,3800,3800,-1011,-4691,-5752,1072,-1376,-3026,130,184,818
1063960,37390548,38133352,37548794,38367994,3800,3800,-1533,-4975,-5529,1475,-1375,-1991,123,203,819
1064961,37391080,38134420,37549538,38368738,3800,3800,-2014,-5209,-5197,1345,-1546,-1880,123,203,819
1065962,37391684,38135464,37550282,38369482,3800,3800,-2388,-5702,-4799,1170,-1294,-2291,107,212,820
1066963,37392276,38136612,37551026,38370226,3800,3800,-2717,-6167,-4419,985,-590,-1715,107,212,820
1067964,37392928,38137720,37551770,38370970,3800,3800,-3062,-6580,-4038,735,-44,-1430,130,239,821
1068965,37393688,38138840,37552514,38371714,3800,3800,-3388,-6951,-3639,841,229,-1199,130,239,821
1069966,37394412,38139964,37553258,38372458,3800,3800,-3745,-7117,-3222,930,484,-216,152,252,822
1070967,37395132,38141136,37554002,38373202,3800,3800,-4161,-6897,-2747,856,190,915,152,252,822
1071977,37395908,38142208,37554762,38373962,3800,3800,-4586,-6591,-2294,549,692,1060,147,223,823
1072969,37396784,38143244,37555506,38374706,3800,3800,-4972,-6282,-1903,274,1482,1505,147,223,823
1073970,37397588,38144200,37556250,38375450,3800,3800,-5307,-5919,-1581,223,1856,2165,152,208,822
1074971,37398376,38145132,37556994,38376194,3800,3800,-5571,-5629,-1287,314,1790,2148,152,208,822
1075972,37399328,38146076,37557738,38376938,3800,3800,-5819,-5307,-1005,152,1958,2803,176,202,823
1076973,37400204,38147024,37558482,38377682,3800,3800,-6148,-4806,-766,-386,2233,3595,176,202,823
1077974,37401072,38147928,37559226,38378426,3800,3800,-6510,-4207,-640,-1235,2763,4003,179,184,822
1078975,37402040,38148768,37559970,38379170,3800,3800,-6855,-3397,-592,-2152,3107,5207,179,184,822
1079976,37402952,38149616,37560714,38379914,3800,3800,-7229,-2382,-622,-3254,3869,6236,185,194,823
1080977,37403776,38150384,37561458,38380658,3800,3800,-7705,-1282,-847,-4775,4787,7118,185,194,823
1081978,37404720,38151116,37562202,38381402,3800,3800,-8488,581,-1142,-5769,4409,10959,164,168,821
1082979,37405588,38151772,37562946,38382146,3800,3800,-9520,2605,-1318,-5967,2927,10105,164,168,821
1083980,37406364,38152308,37563690,38382890,3800,3800,-10357,3675,-1564,-6273,3682,7422,174,110,819
1084981,37407180,38152704,37564434,38383634,3800,3800,-11013,3920,-1881,-6622,3812,8452,174,110,819
1085982,37407884,38152976,37565178,38384378,3800,3800,-11280,4080,-2101,-3889,3059,16108,153,82,818
1086983,37408520,38153244,37565922,38385122,3800,3800,-11031,3879,-1990,-3762,4240,23237,153,82,818
1087984,37409156,38153440,37566666,38385866,3800,3800,-3190,-2366,-1483,-6732,2768,32767,125,38,814
1088985,37409656,38153516,37567410,38386610,3800,3800,8873,-10427,-1331,2511,-4672,32767,125,38,814
1089986,37410148,38153536,37568154,38387354,3800,3800,12885,-10638,-799,-1053,-3948,32767,101,26,810
1090986,37410556,38153536,37568898,38388098,3800,3800,10500,-4512,488,-1097,-8237,32056,101,26,810
1091988,37410928,38153556,37569642,38388842,3800,3800,7686,-834,1614,-4107,-4418,16027,84,8,808
1092989,37411224,38153568,37570386,38389586,3800,3800,6253,52,2403,-4577,-4584,12936,84,8,808
1093997,37411480,38153588,37571146,38390346,3800,3800,5789,-678,3007,-4923,-2200,6114,66,5,805
1094991,37411720,38153580,37571890,38391090,3800,3800,5617,-2179,3621,-4986,-2630,2383,66,5,805
1095992,37411936,38153544,37572634,38391834,3800,3800,5172,-3221,4419,-3020,-2942,2796,58,15,805
1096993,37412100,38153544,37573378,38392578,3800,3800,4634,-4168,5294,-1477,-1679,1135,58,15,805
1097994,37412220,38153572,37574122,38393322,3800,3800,4265,-5103,5787,-772,-1173,1010,36,18,805
1098995,37412320,38153604,37574866,38394066,3800,3800,4003,-6343,5988,-866,-1127,726,36,18,805
1099996,37412352,38153656,37575610,38394810,3800,3800,3691,-7086,6162,-314,-774,2568,15,16,803
1100996,37412348,38153648,37576354,38395554,3800,3800,3343,-7240,6281,1473,-85,2696,15,16,803
1101997,37412364,38153640,37577098,38396298,3800,3800,2936,-7075,6244,2460,1018,3841,5,7,803
1102999,37412368,38153644,37577842,38397042,3800,3800,2503,-6606,6062,2463,1144,4937,5,7,803
1104000,37412356,38153684,37578586,38397786,3800,3800,2093,-5945,5787,2370,389,5100,16,16,802
1105001,37412372,38153784,37579330,38398530,3800,3800,1738,-5068,5403,2111,551,5421,16,16,802
1106001,37412444,38153840,37580074,38399274,3800,3800,1505,-4196,4897,1836,1163,5174,17,15,802
1107002,37412536,38153876,37580818,38400018,3800,3800,1261,-3278,4300,1605,744,5650,17,15,802
1108003,37412772,38153872,37581562,38400762,3800,3800,1012,-2033,3786,1218,-884,6275,35,13,804
1109005,37413052,38153892,37582306,38401506,3800,3800,810,-513,3356,570,-468,6154,35,13,804
1110005,37413408,38153932,37583050,38402250,3800,3800,668,783,2873,307,1397,5297,46,12,802
1111007,37413780,38153976,37583794,38402994,3800,3800,577,1762,2293,686,2514,4281,46,12,802
1112007,37414176,38154040,37584538,38403738,3800,3800,494,2386,1592,1562,3331,3150,80,9,806
1113009,37414736,38154088,37585282,38404482,3800,3800,504,2958,907,1922,2259,2839,80,9,806
1114009,37415260,38154112,37586026,38405226,3800,3800,710,3536,496,1397,348,2690,113,27,808
1115011,37415752,38154156,37586770,38405970,3800,3800,901,4168,282,768,-124,2630,113,27,808
1116018,37416328,38154240,37587530,38406730,3800,3800,1024,4726,115,698,-181,2015,107,30,807
1117013,37416860,38154324,37588274,38407474,3800,3800,1169,5092,-144,740,530,1181,107,30,807
1118013,37417448,38154416,37589018,38408218,3800,3800,1361,5276,-494,542,626,602,105,31,809
1119015,37418040,38154500,37589762,38408962,3800,3800,1622,5068,-888,361,-50,-693,105,31,809
1120016,37418656,38154660,37590506,38409706,3800,3800,1858,4741,-1255,516,-1199,-826,130,21,809
1121017,37419604,38154848,37591250,38410450,3800,3800,2063,4537,-1566,509,-1646,-1077,130,21,809
1122018,37420352,38155148,37591994,38411194,3800,3800,2216,4277,-1884,431,-1834,-1460,132,48,812
1123018,37421112,38155436,37592738,38411938,3800,3800,2270,4088,-2189,253,-2090,-1129,132,48,812
1124019,37421944,38155780,37593482,38412682,3800,3800,2227,4116,-2409,451,-2285,-645,155,79,814
1125021,37422764,38156176,37594226,38413426,3800,3800,2098,4290,-2540,772,-2632,-524,155,79,814
1126021,37423632,38156620,37594970,38414170,3800,3800,1963,4588,-2587,746,-2985,-145,176,83,815
1127023,37424620,38157064,37595714,38414914,3800,3800,1857,4987,-2587,765,-3115,-8,176,83,815
1128024,37425564,38157568,37596458,38415658,3800,3800,1803,5235,-2601,1081,-2906,-754,174,108,816
1129025,37426572,38158108,37597202,38416402,3800,3800,1757,5339,-2656,1164,-1990,-1052,174,108,816
1130026,37427672,38158636,37597946,38417146,3800,3800,1673,5316,-2764,960,-1001,-1748,175,101,818
1131027,37428664,38159232,37598690,38417890,3800,3800,1599,5099,-2844,905,-1558,-2050,175,101,818
1132028,37429748,38159796,37599434,38418634,3800,3800,1498,5095,-2797,1117,-2247,-1191,198,128,819
1133029,37430784,38160456,37600178,38419378,3800,3800,1296,5513,-2595,1448,-3028,106,198,128,819
1134030,37431800,38161168,37600922,38420122,3800,3800,1158,5909,-2353,1631,-2949,-619,181,128,820
1135031,37432800,38161856,37601666,38420866,3800,3800,1133,5939,-2165,1676,-2795,-1345,181,128,820
1136032,37433732,38162568,37602410,38421610,3800,3800,1252,5778,-1990,1947,-2853,-1780,171,139,821
1137033,37434752,38163368,37603154,38422354,3800,3800,1427,5298,-1804,1967,-2947,-2604,171,139,821
1138041,37435692,38164148,37603914,38423114,3800,3800,1650,4697,-1572,1790,-3188,-2757,193,174,820
1139035,37436620,38165140,37604658,38423858,3800,3800,1806,4209,-1358,1649,-2540,-2107,193,174,820
1140036,37437516,38166116,37605402,38424602,3800,3800,1911,3907,-1218,1523,-2037,-1837,176,180,821
1141037,37438376,38166996,37606146,38425346,3800,3800,2031,3699,-1122,1210,-2042,-1631,176,180,821
1142038,37439268,38167984,37606890,38426090,3800,3800,2156,3618,-1079,782,-1590,-1009,180,180,823
1143039,37440236,38168960,37607634,38426834,3800,3800,2247,3684,-1123,434,-1215,-443,180,180,823
1144040,37441104,38169872,37608378,38427578,3800,3800,2218,3991,-1265,43,-827,485,210,196,824
1145041,37442040,38170988,37609122,38428322,3800,3800,2149,4569,-1480,-369,-371,891,210,196,824
1146041,37443076,38171984,37609866,38429066,3800,3800,2054,5160,-1743,-679,-89,1074,201,203,824
1147042,37443972,38172940,37610610,38429810,3800,3800,1979,5781,-1970,-788,168,1513,201,203,824
1148043,37444816,38173960,37611354,38430554,3800,3800,1953,6332,-2180,-577,618,877,206,193,824
1149044,37445660,38175080,37612098,38431298,3800,3800,1941,6836,-2452,-45,1025,309,206,193,824
1150046,37446460,38176168,37612842,38432042,3800,3800,1906,6789,-2825,1218,1525,-1507,161,187,822
1151046,37447176,38177104,37613586,38432786,3800,3800,1827,6048,-3202,3225,1059,-3171,161,187,822
1152048,37447864,38178100,37614330,38433530,3800,3800,1766,4987,-3459,4619,227,-3873,159,193,822
1153048,37448640,38179140,37615074,38434274,3800,3800,1816,3665,-3558,3980,-913,-4256,159,193,822
1154049,37449320,38180164,37615818,38435018,3800,3800,1915,2293,-3555,2711,-1496,-3665,146,213,822
1155050,37450052,38181148,37616562,38435762,3800,3800,1966,1370,-3531,2500,-898,-2775,146,213,822
1156051,37450800,38182344,37617306,38436506,3800,3800,2003,410,-3511,3439,-321,-3710,149,201,822
1157052,37451548,38183448,37618050,38437250,3800,3800,1995,-941,-3534,4248,121,-4404,149,201,822
1158053,37452216,38184492,37618794,38437994,3800,3800,1880,-2073,-3475,3749,-347,-2871,173,221,823
1159054,37452968,38185512,37619538,38438738,3800,3800,1620,-2715,-3330,3179,-1153,-1612,173,221,823
1160065,37453684,38186476,37620298,38439498,3800,3800,1403,-3241,-3233,2889,-699,-2051,147,203,821
1161057,37454420,38187528,37621042,38440242,3800,3800,1166,-3716,-3257,2854,60,-1303,147,203,821
1162057,37455236,38188508,37621786,38440986,3800,3800,879,-3892,-3409,2807,398,-262,144,202,822
1163058,37456008,38189460,37622530,38441730,3800,3800,488,-3734,-3686,1549,1520,620,144,202,822
1164060,37456840,38190336,37623274,38442474,3800,3800,30,-3350,-4214,102,3125,930,164,192,821
1165061,37457756,38191312,37624018,38443218,3800,3800,-514,-2986,-5116,-435,4099,998,164,192,821
1166062,37458604,38192220,37624762,38443962,3800,3800,-1131,-2584,-6231,-229,4894,1444,167,178,821
1167062,37459460,38193280,37625506,38444706,3800,3800,-1754,-2264,-7269,437,5236,1122,167,178,821
1168064,37460404,38194088,37626250,38445450,3800,3800,-2363,-2090,-8014,747,4694,1171,183,175,822
1169064,37461468,38195136,37626994,38446194,3800,3800,-2943,-1767,-8382,406,3987,2012,183,175,822
1170065,37462392,38196132,37627738,38446938,3800,3800,-3473,-1357,-8392,502,2721,1792,191,193,821
1171066,37463384,38197052,37628482,38447682,3800,3800,-3755,-1164,-8191,976,1562,1000,191,193,821
1172068,37464440,38198204,37629226,38448426,3800,3800,-3729,-1272,-7697,1332,794,440,203,197,823
1173069,37465452,38199248,37629970,38449170,3800,3800,-3603,-1660,-7005,1338,1058,46,203,197,823
1174069,37466452,38200268,37630714,38449914,3800,3800,-3504,-2092,-6231,950,972,271,206,220,825
1175070,37467568,38201288,37631458,38450658,3800,3800,-3485,-2399,-5379,204,297,996,206,220,825
1176072,37468580,38202384,37632202,38451402,3800,3800,-3501,-2482,-4512,-789,-493,1829,205,233,827
1177073,37469532,38203564,37632946,38452146,3800,3800,-3606,-2419,-3708,-1970,-417,2761,205,233,827
1178073,37470572,38204740,37633690,38452890,3800,3800,-3679,-2275,-2909,-3069,-602,3377,208,221,827
1179074,37471480,38205792,37634434,38453634,3800,3800,-4239,-1339,-2008,-3809,-1409,7030,208,221,827
1180076,37472336,38206792,37635178,38454378,3800,3800,-5537,557,-954,-5329,-2888,9566,205,209,826
1181077,37473200,38207808,37635922,38455122,3800,3800,-6791,2456,40,-6507,-2555,8791,205,209,826
1182084,37473896,38208760,37636682,38455882,3800,3800,-7636,3388,817,-6673,-1781,7099,156,211,823
1183078,37474564,38209676,37637426,38456626,3800,3800,-7918,3325,1424,-5726,-1203,5230,156,211,823
1184080,37475172,38210540,37638170,38457370,3800,3800,-7978,2836,2076,-3831,-696,5963,136,187,822
1185080,37475700,38211424,37638914,38458114,3800,3800,-8094,2323,2728,-863,-554,9594,136,187,822
1186082,37476120,38212208,37639658,38458858,3800,3800,-8272,2460,3114,2530,1007,14737,116,182,819
1187082,37476496,38213012,37640402,38459602,3800,3800,-8178,3101,3029,5835,4496,21508,116,182,819
1188084,37476792,38213832,37641146,38460346,3800,3800,-5616,6821,2298,16828,3367,32767,72,168,817
1189085,37477088,38214656,37641890,38461090,3800,3800,-232,11614,1162,23052,-2213,32767,72,168,817
1190085,37477332,38215412,37642634,38461834,3800,3800,2759,12170,434,8250,-3912,31473,64,164,815
1191086,37477632,38216048,37643378,38462578,3800,3800,2615,10796,316,-637,672,14491,64,164,815
1192087,37477928,38216608,37644122,38463322,3800,3800,1655,8799,307,-2027,527,6878,74,139,812
1193089,37478232,38217064,37644866,38464066,3800,3800,1091,6460,393,-4149,141,1860,74,139,812
1194090,37478536,38217496,37645610,38464810,3800,3800,936,4402,501,-7504,708,696,69,87,811
1195091,37478848,38217780,37646354,38465554,3800,3800,899,2393,273,-8849,1827,-109,69,87,811
1196092,37479084,38217924,37647098,38466298,3800,3800,853,964,-261,-9046,3452,1959,52,58,810
1197093,37479280,38218016,37647842,38467042,3800,3800,847,115,-668,-9143,3319,2351,52,58,810
1198094,37479432,38218084,37648586,38467786,3800,3800,1265,-1768,-322,-10696,75,-257,47,31,806
1199095,37479524,38218120,37649330,38468530,3800,3800,1821,-3420,140,-12446,986,3722,47,31,806
1200096,37479652,38218152,37650074,38469274,3800,3800,2488,-4003,-159,-11658,5192,4573,21,17,804
1201097,37479816,38218164,37650818,38470018,3800,3800,3179,-3896,-1111,-11295,5915,4585,21,17,804
1202098,37479996,38218128,37651562,38470762,3800,3800,3624,-3632,-1932,-11756,4278,5454,38,10,804
1203099,37480136,38218104,37652306,38471506,3800,3800,3708,-3396,-2238,-11390,1982,6220,38,10,804
1204107,37480268,38218120,37653066,38472266,3800,3800,3421,-2858,-2062,-10295,-295,7603,24,17,803
1205101,37480372,38218144,37653810,38473010,3800,3800,2960,-2024,-1481,-9136,-1962,8101,24,17,803
1206102,37480360,38218208,37654554,38473754,3800,3800,2542,-1727,-920,-7800,-1108,5565,12,2,803
1207103,37480348,38218212,37655298,38474498,3800,3800,2226,-2296,-472,-6151,48,3479,12,2,803
1208104,37480388,38218216,37656042,38475242,3800,3800,2146,-3330,-53,-4403,1385,1875,11,18,802
1209105,37480372,38218196,37656786,38475986,3800,3800,2179,-4678,307,-3069,2440,851,11,18,802
1210106,37480344,38218224,37657530,38476730,3800,3800,2207,-6128,648,-2410,2446,569,2,9,803
1211107,37480352,38218300,37658274,38477474,3800,3800,2205,-7558,1056,-1041,1944,295,2,9,803
1212108,37480384,38218424,37659018,38478218,3800,3800,2093,-8747,1461,126,1919,1076,8,27,803
1213109,37480356,38218500,37659762,38478962,3800,3800,1854,-9679,1783,493,1890,2113,8,27,803
1214110,37480360,38218564,37660506,38479706,3800,3800,1591,-10510,1953,945,1934,1884,16,32,802
1215111,37480392,38218616,37661250,38480450,3800,3800,1325,-11301,2006,1613,1299,2039,16,32,802
1216112,37480376,38218732,37661994,38481194,3800,3800,1065,-11730,1953,2008,1189,3331,16,34,803
1217113,37480356,38218892,37662738,38481938,3800,3800,763,-11741,1777,2133,972,4507,16,34,803
1218114,37480372,38219108,37663482,38482682,3800,3800,478,-11446,1619,2227,134,5229,17,25,803
1219115,37480388,38219280,37664226,38483426,3800,3800,248,-10913,1531,2476,-119,5931,17,25,803
1220116,37480356,38219436,37664970,38484170,3800,3800,67,-10141,1422,2865,280,6504,17,29,804
1221117,37480392,38219580,37665714,38484914,3800,3800,-80,-9239,1229,2998,593,6657,17,29,804
1222118,37480440,38219728,37666458,38485658,3800,3800,-148,-8332,981,2861,676,6445,12,45,804
1223119,37480444,38219948,37667202,38486402,3800,3800,-120,-7461,646,2675,886,6094,12,45,804
1224120,37480520,38220192,37667946,38487146,3800,3800,-10,-6677,274,2517,813,5698,24,56,805
1225121,37480640,38220448,37668690,38487890,3800,3800,164,-5939,-39,2278,214,5419,24,56,805
1226129,37480760,38220684,37669450,38488650,3800,3800,389,-5303,-313,1991,-83,4928,31,51,803
1227123,37480976,38220904,37670194,38489394,3800,3800,684,-4756,-576,1611,-336,4274,31,51,803
1228124,37481164,38221108,37670938,38490138,3800,3800,1063,-4333,-816,1107,-730,3665,30,57,807
1229125,37481488,38221392,37671682,38490882,3800,3800,1521,-3997,-1040,660,-1083,3130,30,57,807
1230126,37481780,38221648,37672426,38491626,3800,3800,2002,-3553,-1179,92,-1787,3417,68,62,808
1231127,37482088,38221904,37673170,38492370,3800,3800,2443,-2953,-1214,-572,-2147,3526,68,62,808
1232128,37482456,38222132,37673914,38493114,3800,3800,2863,-2370,-1178,-1163,-2395,3254,56,52,808
1233129,37482824,38222368,37674658,38493858,3800,3800,3290,-1734,-1090,-1486,-2408,3126,56,52,808
1234130,37483232,38222564,37675402,38494602,3800,3800,3723,-1195,-1007,-1289,-1833,2342,67,59,809
1235130,37483652,38222772,37676146,38495346,3800,3800,4134,-765,-889,-875,-1554,1774,67,59,809
1236132,37484088,38223032,37676890,38496090,3800,3800,4439,-366,-642,-1028,-2055,1946,79,65,809
1237133,37484588,38223316,37677634,38496834,3800,3800,4652,7,-279,-1243,-2403,1721,79,65,809
1238134,37485084,38223564,37678378,38497578,3800,3800,4781,487,53,-1317,-1599,1903,107,58,809
1239135,37485536,38223772,37679122,38498322,3800,3800,4885,850,367,-1057,-1055,1180,107,58,809
1240136,37486048,38224024,37679866,38499066,3800,3800,4974,897,663,-734,-527,295,96,56,809
1241137,37486528,38224296,37680610,38499810,3800,3800,5045,950,973,-754,-87,463,96,56,809
1242138,37487080,38224548,37681354,38500554,3800,3800,5055,1061,1247,-446,274,580,109,63,811
1243139,37487632,38224816,37682098,38501298,3800,3800,4852,1507,1547,361,62,1955,109,63,811
1244140,37488276,38225060,37682842,38502042,3800,3800,4547,2445,1948,774,134,2895,115,64,810
1245141,37488944,38225300,37683586,38502786,3800,3800,4165,3332,2269,1146,766,2657,115,64,810
1246142,37489784,38225604,37684330,38503530,3800,3800,3414,4824,2438,1451,1446,5364,125,51,812
1247143,37490376,38225876,37685074,38504274,3800,3800,2720,5733,2537,958,1352,1601,125,51,812
1248153,37491304,38226156,37685834,38505034,3800,3800,2448,5568,2537,1248,1619,-1226,133,66,811
1249145,37492216,38226412,37686578,38505778,3800,3800,2329,4791,2582,1578,1535,-1646,133,66,811
1250146,37493068,38226652,37687322,38506522,3800,3800,2176,4252,2726,2236,1043,-872,167,62,813
1251147,37494040,38226948,37688066,38507266,3800,3800,1892,4072,2970,2850,403,-92,167,62,813
1252148,37495108,38227296,37688810,38508010,3800,3800,1543,4175,3278,3010,281,719,160,77,815
1253149,37496112,38227624,37689554,38508754,3800,3800,1186,4352,3483,3287,703,619,160,77,815
1254150,37497100,38227924,37690298,38509498,3800,3800,893,4253,3546,3330,1123,-265,167,80,814
1255151,37498132,38228232,37691042,38510242,3800,3800,675,3886,3505,3283,1497,-495,167,80,814
