"Data file recorded 2014/9/24  14:20:22"
"%  Right Stride Frequency         = 11.0"
"%  Left Stride Frequency         = 11.0"
"%  Phase (Fractional)         = 32768.0"
"%  Experiment.py "
"%  Motor Gains    = [1800, 200, 100, 0, 0, 1800, 200, 100, 0, 0]
"% Columns: "
"% time | Right Leg Pos | Left Leg Pos | Commanded Right Leg Pos | Commanded Left Leg Pos | DCR | DCL | GyroX | GryoY | GryoZ | AX | AY | AZ | RBEMF | LBEMF | VBatt "
11173,40830508,40600656,40831028,40601652,859,1168,515,754,-1143,319,-370,4107,-8,-9,847
12168,40830512,40600676,40831772,40602396,1159,1261,518,753,-1141,321,-361,4092,-12,-6,848
13169,40830516,40600676,40832516,40603140,1484,1713,518,750,-1140,328,-388,4098,-12,-6,848
14170,40830520,40600684,40833260,40603884,1810,1987,520,742,-1147,328,-392,4085,-9,9,841
15170,40830572,40600692,40834004,40604628,1815,2311,529,726,-1148,326,-353,4087,-9,9,841
16172,40830636,40600724,40834748,40605372,2039,2475,538,755,-1141,357,-455,4090,19,15,835
17173,40830756,40600760,40835492,40606116,1964,2762,552,758,-1129,410,-646,4049,19,15,835
18174,40830896,40600828,40836236,40606860,2105,2860,576,707,-1134,457,-436,4013,15,17,830
19174,40831072,40600948,40836980,40607604,2131,2811,592,709,-1144,465,-462,4205,15,17,830
20176,40831268,40601104,40837724,40608348,2248,2845,568,835,-1165,514,-317,4543,38,21,827
21177,40831512,40601228,40838468,40609092,2168,3319,561,948,-1184,591,-283,4275,38,21,827
22178,40831800,40601388,40839212,40609836,2096,3352,624,935,-1204,664,-344,3916,49,42,825
23179,40832044,40601600,40839956,40610580,2591,3263,711,889,-1212,665,-465,3951,49,42,825
24180,40832296,40601908,40840700,40611324,2760,2855,756,915,-1209,586,-542,4219,49,40,822
25181,40832700,40602156,40841444,40612068,1960,3450,785,973,-1230,460,-193,4155,49,40,822
26182,40833076,40602424,40842188,40612812,2299,3537,826,1100,-1269,297,-378,4369,55,58,820
27195,40833476,40602668,40842932,40613556,2302,3800,871,1283,-1274,87,-1453,4596,55,58,820
28197,40833884,40602904,40843676,40614300,2402,3800,972,1258,-1268,305,-1433,3596,83,64,824
29198,40834276,40603216,40844420,40615044,2657,3800,1096,977,-1290,685,-564,3007,83,64,824
30198,40834696,40603568,40845164,40615788,2627,3800,1205,729,-1333,1021,-514,3267,82,57,820
31199,40835140,40603924,40845908,40616532,2611,3800,1303,446,-1414,1287,61,2777,82,57,820
32201,40835632,40604204,40846652,40617276,2423,3800,1430,16,-1541,1659,535,2317,76,68,818
33202,40836152,40604568,40847396,40618020,2349,3800,1547,-361,-1687,2069,300,2514,76,68,818
34203,40836728,40604960,40848140,40618764,2076,3800,1556,-451,-1824,2288,730,3299,89,72,819
35203,40837336,40605360,40848884,40619508,1937,3800,1485,-418,-1994,2254,630,3338,89,72,819
36205,40837844,40605756,40849628,40620252,2668,3800,1489,-431,-2178,2075,32,3137,107,78,820
37225,40838412,40606240,40846668,40617292,3800,3800,1593,-441,-2322,2022,47,3195,107,78,820
38219,40839036,40606728,40847412,40618036,3800,3800,1662,-467,-2452,1862,726,3459,96,88,822
39220,40839648,40607180,40848156,40618780,3800,3800,1678,-314,-2571,1671,143,3721,96,88,822
40222,40840276,40607656,40848900,40619524,3800,3800,1711,-233,-2658,1784,-378,3024,113,97,815
41222,40840992,40608196,40849644,40620268,3800,3800,1768,-376,-2745,2404,-33,2400,113,97,815
42223,40841652,40608688,40850388,40621012,3800,3800,1783,-475,-2794,2439,275,2667,132,96,815
43224,40842340,40609256,40851132,40621756,3800,3800,1738,-331,-2788,1586,121,3165,132,96,815
44225,40843068,40609732,40851876,40622500,3800,3800,1673,-165,-2724,795,-175,3100,147,106,817
45226,40843804,40610320,40852620,40623244,3800,3800,1580,-21,-2626,519,-72,3471,147,106,817
46227,40844516,40610832,40853364,40623988,3800,3800,1455,351,-2483,791,15,3716,148,106,817
47228,40845140,40611340,40854108,40624732,3800,3800,1329,649,-2314,471,279,3094,148,106,817
48229,40845796,40611936,40854852,40625476,3800,3800,1225,780,-2113,-93,-77,2874,143,111,815
49230,40846408,40612396,40855596,40626220,3800,3800,1138,848,-1860,-121,-475,2767,143,111,815
50231,40847052,40612912,40856340,40626964,3800,3800,1044,887,-1558,108,-457,2520,123,105,817
51232,40847628,40613384,40857084,40627708,3800,3800,895,919,-1284,212,-247,2507,123,105,817
52233,40848204,40613816,40857828,40628452,3800,3800,741,947,-983,159,-634,2551,138,108,815
53234,40848720,40614352,40858572,40629196,3800,3800,610,975,-665,154,-784,2773,138,108,815
54235,40849196,40614832,40859316,40629940,3800,3800,491,1144,-357,243,-1264,3008,115,89,815
55236,40849656,40615352,40860060,40630684,3800,3800,314,1197,-124,305,-1283,2624,115,89,815
56237,40850092,40615888,40860804,40631428,3800,3800,95,1142,-33,275,-739,2508,103,119,815
57238,40850492,40616460,40861548,40632172,3800,3800,-136,869,-53,531,695,2126,103,119,815
58239,40850820,40617080,40862292,40632916,3800,3800,-411,861,-48,1063,505,3244,77,111,813
59247,40851096,40617836,40863052,40633676,3800,3800,-683,1107,96,1417,-320,3558,77,111,813
60241,40851356,40618312,40863796,40634420,3800,3800,-935,1414,280,1495,-88,3870,71,114,813
61242,40851580,40618868,40864540,40635164,3800,3800,-1115,1857,401,1663,-375,4419,71,114,813
62243,40851760,40619476,40865284,40635908,3800,3800,-1279,2360,444,1765,-805,5000,64,113,812
63244,40851924,40620152,40866028,40636652,3800,3800,-1413,3083,406,1737,-957,5743,64,113,812
64245,40852024,40620916,40866772,40637396,3800,3800,-1295,4182,316,2107,-400,8781,28,125,812
65246,40852088,40621692,40867516,40638140,3800,3800,1132,9932,-74,8748,1829,32767,28,125,812
66247,40852124,40622292,40868260,40638884,3800,3800,4259,16427,-612,7404,1326,32767,12,155,812
67248,40852140,40623164,40869004,40639628,3800,3800,5092,18294,-831,2496,361,4251,12,155,812
68249,40852140,40624112,40869748,40640372,3800,3800,4573,16864,-913,2567,1070,1398,19,165,813
69250,40852148,40624932,40870492,40641116,3800,3800,4041,14859,-1055,2452,950,6,19,165,813
70251,40852144,40625924,40871236,40641860,3800,3800,3898,13469,-1299,1237,997,-97,10,177,811
71252,40852144,40626760,40871980,40642604,3800,3800,3836,12462,-1675,365,454,466,10,177,811
72253,40852152,40627572,40872724,40643348,3800,3800,3586,11793,-2092,170,-649,1301,5,181,813
73254,40852152,40628464,40873468,40644092,3800,3800,3338,10861,-2455,-514,-214,6,5,181,813
74255,40852164,40629256,40874212,40644836,3800,3800,3057,9699,-2952,-1338,1177,-38,21,162,813
75256,40852176,40630060,40874956,40645580,3800,3800,2827,8418,-3631,-2417,2168,-449,21,162,813
76257,40852168,40630836,40875700,40646324,3800,3800,2558,7150,-4312,-3465,3204,81,10,164,812
77258,40852172,40631576,40876444,40647068,3800,3800,2154,6385,-5048,-4050,3983,1347,10,164,812
78259,40852180,40632332,40877188,40647812,3800,3800,1588,5908,-5748,-4864,3905,2328,4,163,811
79260,40852196,40633004,40877932,40648556,3800,3800,1055,5772,-6269,-5378,3302,3137,4,163,811
80261,40852212,40633624,40878676,40649300,3800,3800,610,5488,-6566,-5507,3165,2558,0,137,810
81269,40852244,40634136,40879436,40650060,3800,3800,265,5106,-6662,-5907,2913,2664,0,137,810
82263,40852292,40634648,40880180,40650804,3800,3800,9,4689,-6606,-6294,1916,2491,15,126,809
83264,40852364,40635080,40880924,40651548,3800,3800,-149,4075,-6402,-6455,1457,1957,15,126,809
84265,40852456,40635512,40881668,40652292,3800,3800,-254,3433,-6052,-6754,1938,2136,26,99,809
85267,40852584,40635880,40882412,40653036,3800,3800,-303,2877,-5605,-7213,1697,2426,26,99,809
86267,40852704,40636180,40883156,40653780,3800,3800,-395,2461,-5110,-7694,1192,3101,17,73,808
87268,40852880,40636376,40883900,40654524,3800,3800,-523,2075,-4535,-7962,736,3342,17,73,808
88270,40853068,40636568,40884644,40655268,3800,3800,-613,984,-3785,-9363,157,1998,47,63,807
89271,40853240,40636772,40885388,40656012,3800,3800,-674,-1827,-2874,-10448,-110,-240,47,63,807
90272,40853436,40636976,40886132,40656756,3800,3800,-830,-5298,-1944,-10174,-203,205,39,39,807
91272,40853628,40637140,40886876,40657500,3800,3800,-1124,-7475,-1128,-7782,-145,2907,39,39,807
92274,40853812,40637292,40887620,40658244,3800,3800,-1431,-7775,-384,-6264,-261,5243,36,31,804
93275,40854012,40637356,40888364,40658988,3800,3800,-1647,-7749,309,-6360,-1250,4613,36,31,804
94276,40854192,40637452,40889108,40659732,3800,3800,-1779,-7994,847,-4804,-1414,4613,47,25,806
95276,40854360,40637592,40889852,40660476,3800,3800,-1887,-8094,1373,-3172,-928,5813,47,25,806
96277,40854496,40637732,40890596,40661220,3800,3800,-2037,-7628,1843,-1817,-562,6476,33,36,806
97278,40854668,40637888,40891340,40661964,3800,3800,-2161,-7513,2106,-448,-290,4775,33,36,806
98279,40854808,40638024,40892084,40662708,3800,3800,-2175,-7737,2280,219,134,4688,26,40,803
99280,40854912,40638100,40892828,40663452,3800,3800,-2134,-7962,2429,1700,319,4660,26,40,803
100281,40855048,40638232,40893572,40664196,3800,3800,-2054,-8314,2573,3491,302,3951,22,27,805
101282,40855136,40638404,40894316,40664940,3800,3800,-1919,-8594,2780,4147,97,4352,22,27,805
102283,40855200,40638604,40895060,40665684,3800,3800,-1699,-8975,2972,4916,-155,3840,20,48,804
103293,40855292,40638808,40895820,40666444,3800,3800,-1460,-9451,3045,5706,-276,3724,20,48,804
104286,40855380,40639028,40896564,40667188,3800,3800,-1178,-9831,3035,5956,-207,3970,32,48,804
105286,40855440,40639152,40897308,40667932,3800,3800,-863,-10060,2933,6218,-44,4176,32,48,804
106288,40855516,40639304,40898052,40668676,3800,3800,-580,-10097,2747,6206,165,5095,21,54,805
107288,40855632,40639540,40898796,40669420,3800,3800,154,-8993,2544,7204,-334,14258,21,54,805
108289,40855720,40639752,40899540,40670164,3800,3800,1281,-7198,2187,7213,-209,15660,19,52,806
109290,40855792,40639988,40900284,40670908,3800,3800,1930,-6368,1780,5438,-250,5523,19,52,806
110291,40855924,40640236,40901028,40671652,3800,3800,2072,-6227,1484,4866,-790,5158,29,48,806
111292,40856036,40640408,40901772,40672396,3800,3800,2081,-6057,1171,4728,-886,5150,29,48,806
112293,40856104,40640548,40902516,40673140,3800,3800,2150,-5610,801,4330,-1075,5309,15,57,806
113294,40856244,40640748,40903260,40673884,3800,3800,2322,-4923,389,3647,-1346,5558,15,57,806
114295,40856384,40640948,40904004,40674628,3800,3800,2528,-4248,-70,3328,-1511,5332,18,39,805
115296,40856484,40641196,40904748,40675372,3800,3800,2738,-3593,-528,2814,-1364,5310,18,39,805
116297,40856628,40641376,40905492,40676116,3800,3800,2938,-2940,-980,2294,-1148,5085,19,36,805
117298,40856788,40641516,40906236,40676860,3800,3800,3076,-2239,-1419,2191,-1158,5096,19,36,805
118299,40856964,40641644,40906980,40677604,3800,3800,3107,-1360,-1687,2143,-1103,5740,42,31,806
119300,40857112,40641776,40907724,40678348,3800,3800,3120,-442,-1830,1926,-521,5268,42,31,806
120302,40857324,40641952,40908468,40679092,3800,3800,3191,217,-2022,1509,-27,4464,28,39,804
121302,40857516,40642140,40909212,40679836,3800,3800,3331,662,-2295,1077,428,3928,28,39,804
122303,40857668,40642328,40909956,40680580,3800,3800,3483,1025,-2584,884,624,3678,29,32,806
123304,40857856,40642448,40910700,40681324,3800,3800,3549,1565,-2746,904,180,4287,29,32,806
124305,40858084,40642552,40911444,40682068,3800,3800,3531,2299,-2712,749,-142,4471,33,26,804
125313,40858256,40642676,40912204,40682828,3800,3800,3525,2885,-2618,557,61,3538,33,26,804
126307,40858400,40642848,40912948,40683572,3800,3800,3622,3068,-2589,130,186,2267,44,41,804
127308,40858620,40643064,40913692,40684316,3800,3800,3803,2922,-2579,-247,-53,1560,44,41,804
128310,40858796,40643236,40914436,40685060,3800,3800,3992,2710,-2502,-284,-279,1377,45,32,806
129310,40858944,40643372,40915180,40685804,3800,3800,4126,2679,-2323,-251,-291,1831,45,32,806
130311,40859152,40643500,40915924,40686548,3800,3800,4194,2797,-2133,-275,298,1819,41,31,806
131312,40859356,40643660,40916668,40687292,3800,3800,4250,2841,-2034,-358,1000,1385,41,31,806
132313,40859508,40643836,40917412,40688036,3800,3800,4309,2778,-1974,-511,1257,1265,46,46,806
133314,40859732,40644044,40918156,40688780,3800,3800,4338,2732,-1902,-461,1304,1609,46,46,806
134315,40860004,40644224,40918900,40689524,3800,3800,4307,2864,-1799,-243,1337,2173,38,32,806
135316,40860204,40644368,40919644,40690268,3800,3800,4230,3177,-1663,-118,1308,2545,38,32,806
136318,40860420,40644512,40920388,40691012,3800,3800,4099,3564,-1563,70,1528,2652,38,30,805
137318,40860724,40644624,40921132,40691756,3800,3800,3920,3942,-1509,355,1914,2702,38,30,805
138320,40860920,40644800,40921876,40692500,3800,3800,3633,4355,-1455,660,2156,2975,58,48,806
139320,40861124,40645008,40922620,40693244,3800,3800,3254,4809,-1387,1039,2063,3324,58,48,806
140322,40861368,40645208,40923364,40693988,3800,3800,2833,5272,-1324,1291,2126,3382,36,37,806
141322,40861628,40645424,40924108,40694732,3800,3800,2401,5669,-1275,1550,2366,3127,36,37,806
142323,40861828,40645612,40924852,40695476,3800,3800,1931,5845,-1313,1704,2810,2419,39,41,807
143324,40862056,40645796,40925596,40696220,3800,3800,1438,5872,-1439,1739,3092,2129,39,41,807
144325,40862364,40646032,40926340,40696964,3800,3800,948,5719,-1640,1736,3402,1661,60,51,807
145326,40862592,40646280,40927084,40697708,3800,3800,479,5386,-1908,1850,3663,1249,60,51,807
146327,40862816,40646540,40927828,40698452,3800,3800,38,4916,-2168,1993,3588,924,40,45,806
147335,40863136,40646764,40928588,40699212,3800,3800,-390,4388,-2358,1991,3258,781,40,45,806
148329,40863348,40647016,40929332,40699956,3800,3800,-755,3795,-2489,1903,2740,546,42,45,806
149330,40863572,40647260,40930076,40700700,3800,3800,-1018,3170,-2573,1680,2180,489,42,45,806
150331,40863880,40647532,40930820,40701444,3800,3800,-1211,2511,-2647,1427,1917,379,47,61,808
151332,40864164,40647796,40931564,40702188,3800,3800,-1357,1808,-2734,1037,1874,352,47,61,808
152334,40864424,40648136,40932308,40702932,3800,3800,-1479,1155,-2801,624,1583,709,44,71,809
153334,40864700,40648444,40933052,40703676,3800,3800,-1576,633,-2803,268,1077,1012,44,71,809
154335,40865056,40648708,40933796,40704420,3800,3800,-1675,269,-2739,-79,673,1491,52,66,808
155336,40865380,40649028,40934540,40705164,3800,3800,-1721,-38,-2651,-475,763,1366,52,66,808
156337,40865696,40649432,40935284,40705908,3800,3800,-1729,-403,-2549,-934,651,1430,63,76,809
157338,40866136,40649764,40936028,40706652,3800,3800,-1684,-660,-2417,-1419,429,1802,63,76,809
158339,40866524,40650100,40936772,40707396,3800,3800,-1610,-911,-2234,-1849,284,1791,80,72,809
159340,40866876,40650508,40937516,40708140,3800,3800,-1518,-1153,-1996,-2230,162,1941,80,72,809
160341,40867348,40650912,40938260,40708884,3800,3800,-1412,-1298,-1676,-2550,-133,2220,68,70,809
161342,40867792,40651328,40939004,40709628,3800,3800,-1265,-1424,-1293,-2791,-158,2089,68,70,809
162343,40868204,40651688,40939748,40710372,3800,3800,-1088,-1541,-856,-3005,-144,2302,76,89,810
163344,40868688,40652152,40940492,40711116,3800,3800,-890,-1611,-356,-3045,164,2548,76,89,810
164345,40869188,40652600,40941236,40711860,3800,3800,-680,-1680,140,-3082,707,2585,78,80,812
165346,40869648,40652992,40941980,40712604,3800,3800,-438,-1692,584,-3254,1106,2758,78,80,812
166347,40870168,40653536,40942724,40713348,3800,3800,-154,-1755,989,-3353,1257,2658,93,91,810
167348,40870700,40654076,40943468,40714092,3800,3800,150,-1828,1353,-3200,1427,2772,93,91,810
168350,40871196,40654588,40944212,40714836,3800,3800,432,-1799,1716,-3087,1324,3090,109,97,812
169357,40871820,40655204,40944972,40715596,3800,3800,709,-1784,2049,-2757,971,2991,109,97,812
170351,40872412,40655728,40945716,40716340,3800,3800,1010,-1863,2343,-2626,864,2784,96,101,812
171352,40873028,40656420,40946460,40717084,3800,3800,1269,-2010,2603,-2422,1035,2828,96,101,812
172353,40873644,40657132,40947204,40717828,3800,3800,1522,-2241,2799,-1818,1435,2470,129,123,815
173354,40874396,40657908,40947948,40718572,3800,3800,1734,-2571,3009,-1423,1291,2583,129,123,815
174355,40875096,40658672,40948692,40719316,3800,3800,1872,-2743,3202,-1076,938,3164,155,143,817
175356,40875852,40659516,40949436,40720060,3800,3800,1958,-2879,3347,-1076,467,3181,155,143,817
176357,40876648,40660324,40950180,40720804,3800,3800,1987,-2770,3487,-1326,-469,4221,130,164,818
177358,40877364,40661260,40950924,40721548,3800,3800,1989,-2515,3554,-1460,-584,4304,130,164,818
178359,40878080,40662280,40951668,40722292,3800,3800,1937,-2245,3597,-1623,-1214,4820,146,182,820
179360,40878912,40663176,40952412,40723036,3800,3800,1827,-1755,3735,-1648,-1759,5688,146,182,820
180361,40879600,40664172,40953156,40723780,3800,3800,1640,-1286,3953,-1470,-1658,5750,174,193,819
181362,40880292,40665248,40953900,40724524,3800,3800,1502,-776,4168,-1474,-1382,5919,174,193,819
182363,40881040,40666252,40954644,40725268,3800,3800,1375,-380,4381,-1659,-1340,5968,174,189,821
183364,40881688,40667324,40955388,40726012,3800,3800,1281,-73,4592,-981,-1106,5845,174,189,821
184366,40882324,40668364,40956132,40726756,3800,3800,1158,41,4809,173,-756,5222,151,189,821
185366,40882964,40669344,40956876,40727500,3800,3800,1025,-93,4959,1400,-669,4573,151,189,821
186367,40883548,40670240,40957620,40728244,3800,3800,811,-234,4994,2758,-728,4334,139,197,820
187368,40884100,40671164,40958364,40728988,3800,3800,506,-659,4896,3688,-1174,3259,139,197,820
188369,40884724,40672052,40959108,40729732,3800,3800,168,-1039,4668,4505,-1316,3293,132,177,819
189370,40885300,40672872,40959852,40730476,3800,3800,-235,-1652,4253,4734,-1208,2535,132,177,819
190371,40885860,40673792,40960596,40731220,3800,3800,-786,-1619,3838,5149,-2602,5032,122,181,817
191381,40886440,40674592,40961356,40731980,3800,3800,-1240,-1809,3398,5295,-2026,3228,122,181,817
192373,40887096,40675332,40962100,40732724,3800,3800,-1681,-1389,2728,4920,-1597,6263,131,177,818
193374,40887716,40676176,40962844,40733468,3800,3800,-1982,-912,2090,5275,-2505,5146,131,177,818
194375,40888236,40676976,40963588,40734212,3800,3800,-2119,-612,1459,5905,-1477,5001,118,172,818
195376,40888988,40677736,40964332,40734956,3800,3800,-2228,-209,668,5593,205,5425,118,172,818
196377,40889424,40678440,40965076,40735700,3800,3800,-2296,-130,-498,4692,3057,4275,119,145,818
197378,40890016,40679096,40965820,40736444,3800,3800,-2389,46,-1812,4554,1386,4833,119,145,818
198379,40890572,40679756,40966564,40737188,3800,3800,-2403,281,-2874,4077,-2064,5151,108,143,816
199380,40891216,40680424,40967308,40737932,3800,3800,-2487,1213,-3716,4228,-2083,7182,108,143,816
200381,40891852,40681112,40968052,40738676,3800,3800,-2587,2039,-4534,3863,-1074,5749,131,138,815
201382,40892560,40681816,40968796,40739420,3800,3800,-2599,2749,-5406,2839,846,5647,131,138,815
202383,40893216,40682492,40969540,40740164,3800,3800,-2540,3340,-6268,2242,1453,5127,137,132,815
203384,40893928,40683244,40970284,40740908,3800,3800,-2560,3792,-6958,2106,393,5212,137,132,815
204385,40894696,40683908,40971028,40741652,3800,3800,-2786,4813,-7270,2584,-642,7195,141,145,818
205386,40895392,40684596,40971772,40742396,3800,3800,-3687,6819,-7089,2963,-2118,9990,141,145,818
206387,40896116,40685172,40972516,40743140,3800,3800,-4147,7487,-7077,1658,-1806,2927,148,144,817
207388,40896812,40686012,40973260,40743884,3800,3800,-4040,7155,-7235,1099,-1510,2488,148,144,817
208389,40897584,40686716,40974004,40744628,3800,3800,-3977,6524,-7215,1497,-2156,3069,145,141,818
209390,40898336,40687668,40974748,40745372,3800,3800,-4102,6427,-6834,2000,-2546,3569,145,141,818
210391,40899188,40688332,40975492,40746116,3800,3800,-4302,6088,-6132,1608,-2292,2158,145,178,819
211392,40900156,40689336,40976236,40746860,3800,3800,-4305,5323,-5642,937,-1397,583,145,178,819
212393,40901080,40690264,40976980,40747604,3800,3800,-4195,4193,-5358,465,-1185,163,162,195,819
213401,40902068,40691284,40977740,40748364,3800,3800,-4136,3262,-4962,26,-1315,1386,162,195,819
214395,40903088,40692196,40978484,40749108,3800,3800,-4115,2763,-4406,-634,-1619,1905,162,207,820
215396,40904172,40693116,40979228,40749852,3800,3800,-4051,2403,-3726,-1747,-1849,2597,162,207,820
216398,40905224,40694196,40979972,40750596,3800,3800,-4012,2596,-3029,-2272,-1441,4304,192,206,823
217399,40906296,40695116,40980716,40751340,3800,3800,-3875,2836,-2423,-2439,-923,3922,192,206,823
218400,40907324,40696016,40981460,40752084,3800,3800,-3675,3072,-1971,-2437,-531,4098,207,201,824
219400,40908312,40696912,40982204,40752828,3800,3800,-3408,3233,-1769,-2259,369,3435,207,201,824
220402,40909408,40697808,40982948,40753572,3800,3800,-3173,3077,-1762,-1756,158,2705,205,202,824
221402,40910320,40698680,40983692,40754316,3800,3800,-2976,3164,-1759,-1773,-1281,3661,205,202,824
222403,40911160,40699552,40984436,40755060,3800,3800,-2841,3815,-1605,-3124,-3281,5622,200,184,823
223404,40912048,40700300,40985180,40755804,3800,3800,-2767,4464,-1386,-3902,-4034,5545,200,184,823
224406,40912868,40701048,40985924,40756548,3800,3800,-2672,4879,-1234,-3406,-3888,5075,200,179,821
225406,40913640,40701736,40986668,40757292,3800,3800,-2533,5160,-1154,-2621,-3522,4740,200,179,821
226407,40914360,40702300,40987412,40758036,3800,3800,-2118,5465,-1103,-2448,-4252,5852,186,145,821
227408,40915092,40702924,40988156,40758780,3800,3800,727,9746,-873,311,-10514,32767,186,145,821
228410,40915756,40703420,40988900,40759524,3800,3800,5369,16834,-486,2505,-11112,32767,160,116,817
229410,40916336,40703880,40989644,40760268,3800,3800,7818,19024,-44,1296,-4969,4887,160,116,817
230411,40916896,40704272,40990388,40761012,3800,3800,7890,17033,314,428,-4118,-359,121,98,815
231412,40917388,40704584,40991132,40761756,3800,3800,7324,13822,558,128,-4671,-1773,121,98,815
232413,40917844,40704880,40991876,40762500,3800,3800,7026,11465,762,357,-5110,-857,121,76,810
233414,40918296,40705180,40992620,40763244,3800,3800,7825,9501,865,2258,-6585,7259,121,76,810
234415,40918668,40705440,40993364,40763988,3800,3800,8977,7887,795,2168,-7123,8552,81,56,810
235423,40919016,40705628,40994124,40764748,3800,3800,8995,6114,653,-683,-4782,-144,81,56,810
236417,40919384,40705788,40994868,40765492,3800,3800,7693,5291,390,-146,-2830,3888,69,54,808
237418,40919720,40705912,40995612,40766236,3800,3800,6273,5138,86,-1237,-1955,14062,69,54,808
238419,40920000,40706056,40996356,40766980,3800,3800,5700,5047,-234,-2502,-1017,18619,63,30,805
239420,40920360,40706236,40997100,40767724,3800,3800,4911,4152,-842,-2806,-293,3807,63,30,805
240421,40920688,40706388,40997844,40768468,3800,3800,4100,2201,-1800,-3518,1336,284,69,27,807
241422,40921036,40706516,40998588,40769212,3800,3800,3391,62,-2822,-3700,1966,660,69,27,807
242423,40921400,40706616,40999332,40769956,3800,3800,2675,-1680,-3621,-2326,1844,1334,72,24,807
243424,40921844,40706724,41000076,40770700,3800,3800,2092,-3041,-4111,-1823,1604,2305,72,24,807
244425,40922284,40706872,41000820,40771444,3800,3800,2115,-4269,-4156,-2566,45,7444,76,38,807
245426,40922720,40707020,41001564,40772188,3800,3800,2134,-5046,-3908,-2038,-801,7064,76,38,807
246427,40923276,40707148,41002308,40772932,3800,3800,1734,-5521,-3783,-2624,-785,4599,98,40,807
247428,40923724,40707292,41003052,40773676,3800,3800,867,-6420,-4074,-2711,601,3226,98,40,807
248429,40924192,40707420,41003796,40774420,3800,3800,588,-7011,-4254,-1765,947,3121,100,37,809
249430,40924756,40707544,41004540,40775164,3800,3800,448,-7608,-4263,-1768,807,2796,100,37,809
250431,40925216,40707748,41005284,40775908,3800,3800,346,-8326,-4099,-1649,478,2845,101,43,809
251432,40925684,40707952,41006028,40776652,3800,3800,186,-8824,-3791,-1097,329,3643,101,43,809
252433,40926248,40708180,41006772,40777396,3800,3800,31,-9100,-3332,-889,483,4219,109,49,810
253434,40926740,40708416,41007516,40778140,3800,3800,-85,-9093,-2858,-509,1079,4783,109,49,810
254435,40927268,40708656,41008260,40778884,3800,3800,-160,-9266,-2409,-399,1390,3962,114,58,810
255436,40927732,40708896,41009004,40779628,3800,3800,-175,-9508,-1975,96,1810,4129,114,58,810
256437,40928332,40709204,41009748,40780372,3800,3800,-104,-9681,-1608,708,2218,4070,110,53,809
257445,40928800,40709504,41010508,40781132,3800,3800,49,-9980,-1312,867,2522,3738,110,53,809
258439,40929280,40709780,41011252,40781876,3800,3800,251,-10226,-1076,898,2751,3946,100,67,807
259440,40929852,40710092,41011996,40782620,3800,3800,517,-10453,-899,1219,2940,3813,100,67,807
260441,40930360,40710344,41012740,40783364,3800,3800,771,-10434,-731,1554,3043,4647,98,66,811
261442,40930848,40710720,41013484,40784108,3800,3800,1042,-10066,-506,1608,2778,5251,98,66,811
262443,40931440,40711072,41014228,40784852,3800,3800,1336,-9675,-306,1449,2678,5103,114,65,810
263444,40932012,40711392,41014972,40785596,3800,3800,1675,-9187,-191,1466,2470,5346,114,65,810
264445,40932576,40711764,41015716,40786340,3800,3800,2075,-8717,-135,1477,2437,5034,104,84,812
265446,40933168,40712160,41016460,40787084,3800,3800,2512,-8266,-134,1542,2279,5048,104,84,812
266447,40933764,40712532,41017204,40787828,3800,3800,2951,-7806,-145,1467,2113,4987,116,89,811
267448,40934360,40712972,41017948,40788572,3800,3800,3428,-7293,-161,1392,1838,4890,116,89,811
268449,40935040,40713396,41018692,40789316,3800,3800,3914,-6707,-200,1098,1923,4728,111,81,811
269450,40935768,40713952,41019436,40790060,3800,3800,4484,-6205,-297,503,2181,4272,111,81,811
270451,40936456,40714464,41020180,40790804,3800,3800,5045,-5754,-465,118,2284,4237,113,106,813
271452,40937204,40715084,41020924,40791548,3800,3800,5563,-5198,-636,-188,1307,4490,113,106,813
272453,40937976,40715708,41021668,40792292,3800,3800,6036,-4409,-788,-711,412,4852,133,118,815
273455,40938796,40716408,41022412,40793036,3800,3800,6460,-3580,-1025,-1583,-57,4180,133,118,815
274455,40939600,40717076,41023156,40793780,3800,3800,6851,-2966,-1316,-2093,-608,3536,146,129,818
275456,40940524,40717800,41023900,40794524,3800,3800,7116,-2229,-1458,-2397,-1807,4235,146,129,818
276457,40941352,40718496,41024644,40795268,3800,3800,7250,-1288,-1397,-3019,-2965,4362,175,151,819
277458,40942228,40719340,41025388,40796012,3800,3800,7334,-461,-1150,-3763,-3218,3656,175,151,819
278459,40943100,40720264,41026132,40796756,3800,3800,7460,218,-820,-4374,-3190,2953,192,169,818
279469,40943920,40721184,41026892,40797516,3800,3800,7570,656,-411,-4392,-4077,2567,192,169,818
280461,40944740,40722112,41027636,40798260,3800,3800,7619,1208,160,-4219,-4857,2742,176,184,819
281462,40945596,40723048,41028380,40799004,3800,3800,7616,1584,826,-4112,-5034,1732,176,184,819
282463,40946332,40724164,41029124,40799748,3800,3800,7691,1346,1439,-3208,-4598,-450,164,184,821
283464,40947044,40725260,41029868,40800492,3800,3800,7838,612,2032,-1869,-4346,-1601,164,184,821
284465,40947792,40726304,41030612,40801236,3800,3800,7970,-485,2588,-470,-3464,-2823,153,193,821
285466,40948472,40727276,41031356,40801980,3800,3800,8031,-1831,2984,345,-2433,-3752,153,193,821
286467,40949140,40728332,41032100,40802724,3800,3800,8055,-3194,3214,680,-2140,-3814,155,210,822
287468,40949848,40729456,41032844,40803468,3800,3800,8033,-4285,3402,1445,-2209,-3512,155,210,822
288469,40950516,40730552,41033588,40804212,3800,3800,7819,-5091,3631,2412,-2778,-2373,138,206,821
289470,40951108,40731740,41034332,40804956,3800,3800,7408,-5187,3960,2568,-3617,-445,138,206,821
290471,40951816,40732764,41035076,40805700,3800,3800,6949,-5048,4198,2113,-3548,-390,144,213,820
291472,40952440,40733852,41035820,40806444,3800,3800,6632,-4802,4261,1894,-2920,-515,144,213,820
292473,40953192,40734896,41036564,40807188,3800,3800,6411,-4433,4267,1833,-2769,91,146,207,820
293474,40953772,40735872,41037308,40807932,3800,3800,6094,-3445,4285,2389,-2327,2074,146,207,820
294475,40954612,40736956,41038052,40808676,3800,3800,5583,-1796,4357,2896,-2346,3684,147,195,820
295476,40955168,40737964,41038796,40809420,3800,3800,4989,200,4403,2649,-2574,4102,147,195,820
296477,40955956,40739120,41039540,40810164,3800,3800,4402,1970,4297,2356,-2725,3014,141,217,821
297478,40956700,40740188,41040284,40810908,3800,3800,3914,3403,4109,2144,-3097,2256,141,217,821
298479,40957460,40741344,41041028,40811652,3800,3800,3448,4599,3940,2909,-3306,1858,163,232,822
299480,40958268,40742388,41041772,40812396,3800,3800,2987,5382,3664,4339,-2980,362,163,232,822
300481,40959128,40743520,41042516,40813140,3800,3800,2405,5689,3188,5624,-2270,-763,158,214,821
301489,40959960,40744504,41043276,40813900,3800,3800,1857,5653,2495,6167,-1331,-1897,158,214,821
302483,40960796,40745460,41044020,40814644,3800,3800,1331,5405,1693,6551,-528,-2235,162,194,820
303484,40961868,40746320,41044764,40815388,3800,3800,784,5051,824,6523,-260,-2686,162,194,820
304485,40962676,40747280,41045508,40816132,3800,3800,181,4755,-125,6663,-298,-2612,161,189,821
305486,40963672,40748208,41046252,40816876,3800,3800,-476,4666,-1052,7245,-473,-1964,161,189,821
306487,40964576,40749252,41046996,40817620,3800,3800,-1230,5031,-1858,7966,179,-213,186,191,821
307488,40965672,40750108,41047740,40818364,3800,3800,-2103,5629,-2606,8644,511,107,186,191,821
308489,40966660,40751068,41048484,40819108,3800,3800,-2754,5584,-3545,8164,1910,-2754,198,184,823
309490,40967680,40751828,41049228,40819852,3800,3800,-3190,4764,-4670,8534,2378,-4219,198,184,823
310491,40968800,40752792,41049972,40820596,3800,3800,-3435,3727,-5673,9085,1932,-4721,187,188,823
311492,40969872,40753892,41050716,40821340,3800,3800,-3494,2604,-6267,9052,609,-4868,187,188,823
312493,40970832,40754912,41051460,40822084,3800,3800,-3597,1911,-6473,9623,-673,-3132,205,206,823
313494,40971916,40755984,41052204,40822828,3800,3800,-4036,2502,-6337,9459,-1628,1099,205,206,823
314495,40972852,40757104,41052948,40823572,3800,3800,-4415,3320,-6336,7614,156,-505,206,210,825
315496,40973844,40758176,41053692,40824316,3800,3800,-4452,3433,-6644,5948,847,-2111,206,210,825
316497,40974932,40759268,41054436,40825060,3800,3800,-4337,3752,-6986,4569,1081,-224,207,217,825
317498,40975836,40760384,41055180,40825804,3800,3800,-4277,4845,-7164,3313,878,1664,207,217,825
318499,40976696,40761376,41055924,40826548,3800,3800,-4419,6470,-7150,1939,512,2893,212,204,825
319500,40977632,40762352,41056668,40827292,3800,3800,-4391,8224,-6833,1018,310,2627,212,204,825
320501,40978496,40763268,41057412,40828036,3800,3800,-4318,9926,-6545,351,1873,2569,214,203,824
321502,40979380,40764164,41058156,40828780,3800,3800,-4275,11622,-6319,-388,2509,2767,214,203,824
322503,40980244,40765092,41058900,40829524,3800,3800,-4275,12999,-6107,-1498,3064,1878,204,182,822
323511,40981004,40765896,41059660,40830284,3800,3800,-4242,14081,-5901,-1990,3563,1357,204,182,822
324505,40981760,40766704,41060404,40831028,3800,3800,-4252,14962,-5819,-2066,5122,908,178,185,821
325506,40982372,40767480,41061148,40831772,3800,3800,-4460,15643,-5938,-1994,6763,350,178,185,821
326507,40982968,40768172,41061892,40832516,3800,3800,-4629,16047,-6117,-2195,7118,-409,139,161,820
327508,40983404,40768840,41062636,40833260,3800,3800,-4642,16099,-6361,-2559,7448,-761,139,161,820
328509,40983748,40769536,41063380,40834004,3800,3800,-4647,16117,-6615,-2168,5609,8,106,151,817
329510,40984016,40770120,41064124,40834748,3800,3800,-4784,15977,-6760,-1677,4267,-1036,106,151,817
330511,40984176,40770632,41064868,40835492,3800,3800,-4895,15418,-6804,-2087,3169,-1829,67,117,812
331512,40984256,40771012,41065612,40836236,3800,3800,-4911,14686,-6807,-2622,1793,-1344,67,117,812
332513,40984292,40771392,41066356,40836980,3800,3800,-4965,13909,-6825,-3156,1341,-955,18,95,810
333514,40984292,40771724,41067100,40837724,3800,3800,-5179,13097,-6897,-2865,1138,-552,18,95,810
334515,40984268,40772084,41067844,40838468,3800,3800,-5508,12164,-7085,-2471,1111,-308,-2,76,803
335516,40984320,40772300,41068588,40839212,3800,3800,-5865,11200,-7225,-2607,363,385,-2,76,803
336517,40984324,40772420,41069332,40839956,3800,3800,-6384,10091,-7216,-3850,-590,602,14,57,802
337518,40984308,40772468,41070076,40840700,3800,3800,-6771,6609,-6524,-15087,-1272,-2857,14,57,802
338519,40984312,40772468,41070820,40841444,3800,3800,-6701,-723,-5146,-18964,-2318,-6400,12,23,803
339520,40984352,40772504,41071564,40842188,3800,3800,-2279,-10747,-3351,-17694,-8525,5431,12,23,803
340521,40984384,40772552,41072308,40842932,3800,3800,7573,-12818,-2008,-2307,-16943,32767,4,2,802
341522,40984396,40772580,41073052,40843676,3800,3800,8040,1733,-1502,12111,140,32767,4,2,802
342523,40984492,40772596,41073796,40844420,3800,3800,2561,12432,-2634,4546,9963,32767,9,4,802
343524,40984568,40772540,41074540,40845164,3800,3800,-750,12722,-3778,-3077,1956,6479,9,4,802
344525,40984692,40772512,41075284,40845908,3800,3800,-939,8294,-4029,-2811,214,-894,33,17,801
345533,40984876,40772536,41076044,40846668,3800,3800,-338,4687,-3718,-1754,477,-2324,33,17,801
346527,40985064,40772548,41076788,40847412,3800,3800,-252,1821,-3405,-688,2858,-2296,25,8,801
347528,40985240,40772596,41077532,40848156,3800,3800,-541,-60,-3196,361,2248,-1123,25,8,801
348530,40985452,40772620,41078276,40848900,3800,3800,-694,-2190,-2816,286,536,-3258,48,18,803
349530,40985720,40772608,41079020,40849644,3800,3800,-622,-5019,-2242,286,-16,-4021,48,18,803
350531,40985948,40772568,41079764,40850388,3800,3800,-555,-7174,-1669,711,286,-1535,56,15,804
351532,40986176,40772584,41080508,40851132,3800,3800,-863,-8480,-802,956,-1206,1961,56,15,804
352534,40986480,40772628,41081252,40851876,3800,3800,-1365,-8227,292,559,-2250,5662,61,13,804
353534,40986744,40772676,41081996,40852620,3800,3800,-1774,-8116,990,-952,-697,3792,61,13,804
354535,40986988,40772744,41082740,40853364,3800,3800,-1779,-8520,1133,-2582,266,2487,61,23,804
355537,40987296,40772796,41083484,40854108,3800,3800,-1642,-9186,775,-3851,1611,2806,61,23,804
356538,40987572,40772840,41084228,40854852,3800,3800,-1416,-9407,93,-4849,2148,4327,53,29,803
357539,40987828,40772924,41084972,40855596,3800,3800,-1190,-8958,-562,-5063,1551,5845,53,29,803
358539,40988136,40773092,41085716,40856340,3800,3800,-931,-7894,-1000,-4537,1125,7058,61,31,805
359540,40988440,40773248,41086460,40857084,3800,3800,-713,-6450,-1205,-3999,513,8507,61,31,805
360542,40988724,40773464,41087204,40857828,3800,3800,-542,-4696,-1323,-3673,342,9317,55,42,805
361542,40989000,40773632,41087948,40858572,3800,3800,-365,-3144,-1509,-3586,501,7994,55,42,805
362544,40989308,40773840,41088692,40859316,3800,3800,-104,-2147,-1814,-3377,469,6148,51,51,806
363544,40989580,40774044,41089436,40860060,3800,3800,295,-1827,-2220,-3011,518,4147,51,51,806
364545,40989860,40774280,41090180,40860804,3800,3800,730,-1985,-2561,-2256,325,2873,60,46,806
365546,40990184,40774520,41090924,40861548,3800,3800,1138,-2465,-2694,-1382,-439,1688,60,46,806
366547,40990460,40774792,41091668,40862292,3800,3800,1509,-3135,-2673,-417,-460,1015,65,49,806
367557,40990732,40775052,41092428,40863052,3800,3800,1865,-3966,-2528,551,-381,320,65,49,806
368549,40991052,40775260,41093172,40863796,3800,3800,2255,-5018,-2306,1282,-552,-497,66,45,806
369550,40991400,40775476,41093916,40864540,3800,3800,2703,-6234,-2081,1578,-799,-1154,66,45,806
370551,40991696,40775688,41094660,40865284,3800,3800,3182,-7444,-1834,1748,-1445,-1023,69,41,807
371552,40992036,40775868,41095404,40866028,3800,3800,3639,-8394,-1570,1825,-2154,-320,69,41,807
372553,40992368,40776108,41096148,40866772,3800,3800,4020,-8986,-1301,1714,-2670,676,72,49,807
373554,40992696,40776320,41096892,40867516,3800,3800,4322,-9069,-1060,1493,-3059,1832,72,49,807
374555,40993020,40776520,41097636,40868260,3800,3800,4531,-8699,-873,1169,-3133,2952,65,50,807
375556,40993396,40776716,41098380,40869004,3800,3800,4708,-7959,-703,906,-2974,3780,65,50,807
376557,40993760,40776904,41099124,40869748,3800,3800,4867,-6916,-562,777,-2526,4602,60,54,807
377558,40994092,40777124,41099868,40870492,3800,3800,5035,-5645,-449,495,-2293,5117,60,54,807
378559,40994476,40777352,41100612,40871236,3800,3800,5203,-4209,-351,76,-2295,5598,74,43,806
379560,40994824,40777576,41101356,40871980,3800,3800,5372,-2681,-274,-170,-2160,5786,74,43,806
380562,40995184,40777824,41102100,40872724,3800,3800,5564,-1163,-221,-334,-1874,5647,79,42,808
381562,40995548,40778036,41102844,40873468,3800,3800,5758,337,-201,-340,-1444,5327,79,42,808
382563,40995940,40778268,41103588,40874212,3800,3800,5959,1652,-227,-218,-716,4524,77,51,807
383564,40996308,40778504,41104332,40874956,3800,3800,6161,2683,-321,-10,247,3550,77,51,807
384566,40996724,40778732,41105076,40875700,3800,3800,6327,3406,-473,239,748,2700,64,67,807
385567,40997176,40779052,41105820,40876444,3800,3800,6442,3894,-676,558,1208,1883,64,67,807
386567,40997636,40779376,41106564,40877188,3800,3800,6489,4149,-953,623,1699,1055,89,70,808
387568,40998096,40779640,41107308,40877932,3800,3800,6475,4095,-1297,730,1948,-50,89,70,808
388569,40998592,40779912,41108052,40878676,3800,3800,6410,3721,-1685,866,2480,-1065,82,70,808
389577,40999104,40780232,41108812,40879436,3800,3800,6258,3067,-2084,976,2726,-1745,82,70,808
390571,40999604,40780516,41109556,40880180,3800,3800,6016,2247,-2496,1050,3161,-2271,108,64,806
391572,41000152,40780816,41110300,40880924,3800,3800,5715,1332,-2864,1106,3252,-2381,108,64,806
392573,41000732,40781064,41111044,40881668,3800,3800,5401,482,-3159,1149,3468,-2256,105,69,810
393574,41001264,40781312,41111788,40882412,3800,3800,5069,-291,-3401,1270,3741,-2075,105,69,810
394575,41001872,40781592,41112532,40883156,3800,3800,4680,-870,-3532,1535,3895,-1363,109,66,809
395576,41002480,40781868,41113276,40883900,3800,3800,4236,-1350,-3591,1666,4261,-1089,109,66,809
396578,41003088,40782096,41114020,40884644,3800,3800,3879,-1928,-3660,1464,4774,-1645,121,64,809
397578,41003740,40782368,41114764,40885388,3800,3800,3638,-2571,-3653,1105,5103,-1408,121,64,809
398579,41004392,40782588,41115508,40886132,3800,3800,3379,-3013,-3503,881,4937,-809,129,57,811
399580,41005068,40782840,41116252,40886876,3800,3800,3004,-2957,-3178,586,4459,1052,129,57,811
400581,41005792,40783132,41116996,40887620,3800,3800,2557,-2330,-2695,40,3956,2293,123,61,810
401582,41006492,40783392,41117740,40888364,3800,3800,2141,-1583,-2207,-369,4395,2136,123,61,810
402583,41007208,40783652,41118484,40889108,3800,3800,1759,-952,-1740,-708,4464,2077,142,60,812
403584,41008004,40783888,41119228,40889852,3800,3800,1293,-423,-1273,-839,3555,2152,142,60,812
404585,41008680,40784192,41119972,40890596,3800,3800,826,156,-775,-1068,2905,2369,139,71,811
405586,41009376,40784524,41120716,40891340,3800,3800,362,772,-242,-1419,2581,2442,139,71,811
406587,41010140,40784844,41121460,40892084,3800,3800,-113,1360,340,-1834,2284,2460,151,58,813
407588,41010844,40785148,41122204,40892828,3800,3800,-639,2066,1004,-2269,1837,3140,151,58,813
408589,41011520,40785508,41122948,40893572,3800,3800,-1140,2656,1707,-2698,1772,2629,153,68,813
409590,41012180,40785904,41123692,40894316,3800,3800,-1568,2943,2383,-2731,1967,1929,153,68,813
410591,41012896,40786300,41124436,40895060,3800,3800,-1940,2834,2983,-2286,2403,1012,151,80,812
411599,41013548,40786672,41125196,40895820,3800,3800,-2295,2363,3505,-1528,2734,253,151,80,812
412593,41014168,40787136,41125940,40896564,3800,3800,-2652,1677,4032,-851,2683,-124,148,78,810
413594,41014896,40787592,41126684,40897308,3800,3800,-3051,914,4558,-393,2379,-121,148,78,810
414595,41015448,40788056,41127428,40898052,3800,3800,-3482,320,5107,131,1872,574,133,84,813
415596,41016052,40788516,41128172,40898796,3800,3800,-3889,-300,5589,585,2185,301,109,89,813
416597,41016676,40789028,41128916,40899540,3800,3800,-4243,-920,5943,1160,2420,530,109,89,813
417598,41017280,40789500,41129660,40900284,3800,3800,-4568,-1452,6101,1696,3588,1133,113,107,813
418599,41017888,40790024,41130404,40901028,3800,3800,-4971,-1594,6169,2154,3516,2738,113,107,813
419600,41018564,40790620,41131148,40901772,3800,3800,-5366,-1395,6219,2672,3547,3169,129,116,814
420601,41019156,40791108,41131892,40902516,3800,3800,-5725,-1079,6160,2724,4175,3977,129,116,814
421602,41019756,40791708,41132636,40903260,3800,3800,-6097,-480,5935,2905,4355,4674,118,110,813
422603,41020376,40792320,41133380,40904004,3800,3800,-6398,52,5599,2680,4140,4587,118,110,813
423604,41021052,40792912,41134124,40904748,3800,3800,-6684,700,5201,2699,3550,5202,107,115,813
424605,41021644,40793552,41134868,40905492,3800,3800,-6800,1118,4861,2565,2484,3993,107,115,813
425606,41022312,40794248,41135612,40906236,3800,3800,-6800,1362,4561,2370,1778,3874,123,124,815
426607,41023000,40794948,41136356,40906980,3800,3800,-6715,1711,4124,1824,1474,4273,123,124,815
427608,41023704,40795724,41137100,40907724,3800,3800,-6781,2464,3666,1444,300,5799,133,159,815
428609,41024348,40796500,41137844,40908468,3800,3800,-6854,3448,3228,1824,-5,5681,133,159,815
429610,41025208,40797244,41138588,40909212,3800,3800,-6898,4457,2843,1864,-700,6001,150,140,817
430611,41025948,40798068,41139332,40909956,3800,3800,-6945,5581,2478,1612,-1652,6465,150,140,817
431612,41026692,40798852,41140076,40910700,3800,3800,-6958,6653,2050,1133,-2384,5790,159,159,817
432613,41027588,40799564,41140820,40911444,3800,3800,-6978,7735,1552,817,-3093,6019,159,159,817
433621,41028452,40800268,41141580,40912204,3800,3800,-6998,8936,1042,595,-4062,6277,152,151,818
434615,41029308,40800904,41142324,40912948,3800,3800,-7039,10167,496,588,-4157,6103,152,151,818
435616,41030296,40801508,41143068,40913692,3800,3800,-6980,11192,-95,521,-4256,5026,170,119,817
436617,41031268,40802096,41143812,40914436,3800,3800,-6753,11636,-753,677,-4594,3042,170,119,817
437618,41032172,40802488,41144556,40915180,3800,3800,-6410,11706,-1428,912,-5083,2262,172,110,817
438619,41033324,40802868,41145300,40915924,3800,3800,-6126,11593,-2269,719,-4253,1456,172,110,817
439620,41034280,40803296,41146044,40916668,3800,3800,-5924,11265,-3478,215,-2475,466,178,92,815
440621,41035292,40803616,41146788,40917412,3800,3800,-5750,10862,-4882,20,-1780,428,178,92,815
441622,41036336,40803916,41147532,40918156,3800,3800,-5525,10679,-6068,100,-2993,1306,166,92,816
442623,41037320,40804296,41148276,40918900,3800,3800,-5331,10970,-6925,-387,-4012,2886,166,92,816
443624,41038232,40804732,41149020,40919644,3800,3800,-5210,11470,-7604,-1378,-3227,3442,174,78,814
444625,41039192,40805076,41149764,40920388,3800,3800,-5087,11958,-8142,-1376,-3459,3557,174,78,814
445626,41040164,40805468,41150508,40921132,3800,3800,-4786,12165,-8536,-1189,-3248,2470,174,97,816
446627,41041068,40805956,41151252,40921876,3800,3800,-4432,11981,-8857,-1771,-2692,2052,174,97,816
447628,41041852,40806492,41151996,40922620,3800,3800,-4042,11662,-9122,-2823,-3074,2019,172,110,817
448629,41042812,40806976,41152740,40923364,3800,3800,-3662,11021,-9322,-3802,-3201,1539,172,110,817
449631,41043648,40807460,41153484,40924108,3800,3800,-3387,10435,-9471,-4101,-2820,1911,174,97,817
450631,41044476,40807844,41154228,40924852,3800,3800,-3293,9788,-9643,-4730,-1975,1885,174,97,817
451632,41045360,40808316,41154972,40925596,3800,3800,-3243,8614,-9796,-6243,-2166,831,170,102,817
452633,41046160,40808756,41155716,40926340,3800,3800,-3118,4548,-9943,-9399,-2320,-4237,170,102,817
453634,41046944,40809124,41156460,40927084,3800,3800,-2128,-2216,-9788,-14104,-4345,-1413,175,86,815
454635,41047752,40809580,41157204,40927828,3800,3800,2695,-9398,-8092,-24126,-13675,32767,175,86,815
455645,41048408,40810128,41157964,40928588,3800,3800,6270,-11199,-6447,-11560,-10442,23062,153,102,814
456637,41049040,40810732,41158708,40929332,3800,3800,6212,-8239,-5474,-4800,-7659,10806,153,102,814
457638,41049660,40811340,41159452,40930076,3800,3800,5069,-5520,-4767,-4186,-7093,7282,123,117,814
458639,41050152,40812004,41160196,40930820,3800,3800,4096,-4757,-4215,-2729,-6005,6583,123,117,814
459640,41050604,40812704,41160940,40931564,3800,3800,2186,-2470,-3064,-254,-8388,15794,94,125,815
460641,41050980,40813344,41161684,40932308,3800,3800,552,257,-1143,1908,-13483,16443,94,125,815
461642,41051336,40814056,41162428,40933052,3800,3800,1698,3372,313,7978,-10981,32767,67,133,813
462643,41051648,40814756,41163172,40933796,3800,3800,4424,5707,1021,7483,-8383,32767,67,133,813
463644,41051948,40815440,41163916,40934540,3800,3800,5352,5278,1435,4212,-5236,4670,66,127,812
464645,41052216,40816148,41164660,40935284,3800,3800,4802,2425,1332,4244,-701,-3826,66,127,812
465646,41052472,40816812,41165404,40936028,3800,3800,4349,-1195,777,4518,1369,-5219,51,137,811
466647,41052712,40817516,41166148,40936772,3800,3800,4387,-4342,275,5557,329,-4386,51,137,811
467648,41052960,40818368,41166892,40937516,3800,3800,4410,-6376,194,6806,-1170,-1233,50,176,812
468649,41053192,40819164,41167636,40938260,3800,3800,4498,-7023,568,7893,-2631,4706,50,176,812
469650,41053456,40820124,41168380,40939004,3800,3800,5274,-5368,1040,9279,-4034,20258,47,173,813
470651,41053772,40821092,41169124,40939748,3800,3800,6029,-3935,1484,7329,-4395,9728,47,173,813
471652,41054120,40822116,41169868,40940492,3800,3800,6144,-3822,1777,6010,-2785,3920,73,198,814
472653,41054508,40822976,41170612,40941236,3800,3800,5922,-4175,1617,5525,-101,4200,73,198,814
473654,41054956,40824136,41171356,40941980,3800,3800,5706,-4403,1107,4803,866,4483,83,191,816
474655,41055380,40824992,41172100,40942724,3800,3800,5748,-4296,601,4054,298,4598,83,191,816
475656,41055868,40826088,41172844,40943468,3800,3800,5925,-4034,183,3460,-266,4983,116,190,816
476657,41056380,40827088,41173588,40944212,3800,3800,6054,-3163,-167,2634,-283,6784,116,190,816
477665,41056888,40828088,41174348,40944972,3800,3800,6060,-1912,-464,1322,-614,7411,120,203,817
478659,41057392,40829100,41175092,40945716,3800,3800,6025,-555,-753,561,-497,7419,120,203,817
479660,41057944,40830108,41175836,40946460,3800,3800,5976,661,-1086,224,245,7141,125,214,818
480662,41058512,40831140,41176580,40947204,3800,3800,5978,1878,-1407,-160,737,6735,125,214,818
481662,41059052,40832112,41177324,40947948,3800,3800,6000,2779,-1682,-972,589,5538,125,210,819
482663,41059596,40833104,41178068,40948692,3800,3800,6059,3304,-1903,-1865,417,4464,125,210,819
483664,41060180,40833984,41178812,40949436,3800,3800,6118,3599,-2029,-2232,295,3699,119,200,818
484665,41060708,40834896,41179556,40950180,3800,3800,6123,3820,-2093,-2514,577,3206,119,200,818
485666,41061252,40835772,41180300,40950924,3800,3800,6178,4010,-2041,-3032,674,2902,122,198,818
486667,41061828,40836720,41181044,40951668,3800,3800,6092,4264,-1800,-3083,994,3614,122,198,818
487668,41062340,40837560,41181788,40952412,3800,3800,5917,4698,-1423,-3028,1298,3426,124,183,816
488670,41062976,40838360,41182532,40953156,3800,3800,5726,4607,-1211,-3619,2676,970,124,183,816
489670,41063608,40839120,41183276,40953900,3800,3800,5643,4023,-1107,-3990,3367,-93,123,152,816
490672,41064268,40839816,41184020,40954644,3800,3800,5592,3078,-1113,-4219,4286,-772,123,152,816
491672,41064936,40840472,41184764,40955388,3800,3800,5411,2137,-1155,-4639,5045,-779,144,136,814
492673,41065744,40841056,41185508,40956132,3800,3800,5263,1382,-1113,-5001,5082,-511,144,136,814
493674,41066512,40841512,41186252,40956876,3800,3800,5030,599,-1212,-5411,6028,-647,133,111,815
494676,41067372,40842012,41186996,40957620,3800,3800,4786,-173,-1424,-5633,6111,-834,133,111,815
495676,41068240,40842416,41187740,40958364,3800,3800,4462,-1079,-1549,-5270,5028,-1248,162,95,815
496678,41069072,40842784,41188484,40959108,3800,3800,4150,-2044,-1418,-5276,3203,-1394,162,95,815
497678,41069916,40843196,41189228,40959852,3800,3800,3776,-2995,-945,-5732,2051,-1065,174,81,814
498679,41070832,40843516,41189972,40960596,3800,3800,3342,-3969,-351,-5885,2011,-1528,174,81,814
499687,41071812,40843840,41190732,40961356,3800,3800,2972,-4882,215,-6005,2176,-1247,173,62,812
500681,41072700,40844176,41191476,40962100,3800,3800,2749,-5537,700,-6314,2518,-752,173,62,812
501682,41073628,40844596,41192220,40962844,3800,3800,2550,-6284,1062,-6386,2403,-991,168,90,815
502683,41074528,40845092,41192964,40963588,3800,3800,2352,-6813,1410,-6187,1443,546,168,90,815
503684,41075396,40845580,41193708,40964332,3800,3800,2112,-6866,1878,-6467,83,1897,178,98,816
504685,41076212,40846156,41194452,40965076,3800,3800,1776,-6591,2520,-6840,-1208,3001,178,98,816
505686,41077024,40846712,41195196,40965820,3800,3800,1366,-6196,3358,-7294,-1554,3418,173,112,816
506687,41077756,40847364,41195940,40966564,3800,3800,899,-6004,4254,-6987,-1455,3120,173,112,816
507688,41078412,40848040,41196684,40967308,3800,3800,531,-6202,4993,-5748,-965,1543,161,140,817
508689,41079088,40848828,41197428,40968052,3800,3800,215,-7182,5469,-3927,-678,-37,161,140,817
509690,41079644,40849544,41198172,40968796,3800,3800,-145,-8251,5781,-1609,-1483,393,137,157,815
510691,41080144,40850396,41198916,40969540,3800,3800,-611,-9284,6093,394,-2172,354,137,157,815
511692,41080652,40851176,41199660,40970284,3800,3800,-988,-10352,6445,1688,-3047,159,107,176,815
512693,41081064,40852128,41200404,40971028,3800,3800,-1328,-11489,6745,3197,-3289,58,107,176,815
513694,41081484,40853212,41201148,40971772,3800,3800,-1538,-12672,6979,4498,-3152,-326,98,179,816
514695,41081916,40854124,41201892,40972516,3800,3800,-1750,-13635,7069,5841,-2061,603,98,179,816
515696,41082496,40855132,41202636,40973260,3800,3800,-2227,-13992,7117,6045,-3785,2842,91,206,817
516697,41083076,40856180,41203380,40974004,3800,3800,-2560,-14041,7049,5033,-3836,2576,91,206,817
517698,41083612,40857232,41204124,40974748,3800,3800,-2527,-14072,6863,5478,-3495,2355,127,205,818
518699,41084316,40858252,41204868,40975492,3800,3800,-2275,-14218,6598,6701,-3245,2272,127,205,818
519700,41084972,40859436,41205612,40976236,3800,3800,-1936,-13985,6324,7120,-3114,3700,142,214,818
520701,41085652,40860552,41206356,40976980,3800,3800,-1472,-13142,6077,6757,-3751,5036,142,214,818
521709,41086392,40861664,41207116,40977740,3800,3800,-1409,-11289,4441,15593,-11807,6988,152,234,818
522703,41087052,40862700,41207860,40978484,3800,3800,-2425,-6838,-202,25039,-24074,5806,152,234,818
523704,41087708,40863756,41208604,40979228,3800,3800,-3104,-4057,-2687,6996,-8445,4924,148,220,820
524705,41088476,40864892,41209348,40979972,3800,3800,-2345,-2341,-2647,4407,-4276,4549,148,220,820
525706,41089248,40865912,41210092,40980716,3800,3800,-1615,-2174,-1708,3088,-3558,4523,148,216,819
526707,41090020,40866944,41210836,40981460,3800,3800,-650,-830,-1265,3328,-3020,4220,148,216,819
527708,41090928,40867964,41211580,40982204,3800,3800,-76,-171,-1265,3149,-3006,2606,155,219,821
528709,41091736,40868948,41212324,40982948,3800,3800,734,932,-1041,2756,-4233,3127,155,219,821
529710,41092576,40869984,41213068,40983692,3800,3800,1485,1831,-725,3076,-4221,2774,163,207,822
530711,41093488,40871032,41213812,40984436,3800,3800,2552,2721,-440,2698,-4282,2329,163,207,822
531712,41094412,40872012,41214556,40985180,3800,3800,3542,3771,-55,3467,-4453,3197,181,208,821
532713,41095424,40872992,41215300,40985924,3800,3800,4454,4933,339,5242,-3402,3370,181,208,821
533714,41096364,40873968,41216044,40986668,3800,3800,5012,6978,870,7170,-1882,6103,198,205,822
534715,41097388,40874876,41216788,40987412,3800,3800,5543,8961,1270,6813,-855,4320,198,205,822
535716,41098428,40875820,41217532,40988156,3800,3800,6177,10286,1232,5981,498,2213,202,206,822
536717,41099412,40876920,41218276,40988900,3800,3800,6783,11259,990,5942,955,1817,202,206,822
537718,41100552,40877792,41219020,40989644,3800,3800,7277,12390,850,6225,-679,1350,200,191,821
538719,41101484,40878636,41219764,40990388,3800,3800,7432,13744,860,5653,-1431,2046,200,191,821
539720,41102420,40879564,41220508,40991132,3800,3800,7396,14867,843,4806,-696,1436,210,181,821
540721,41103468,40880412,41221252,40991876,3800,3800,7226,15788,764,5247,-730,1339,210,181,821
541722,41104316,40881308,41221996,40992620,3800,3800,7139,16208,658,5480,380,-989,187,173,820
542723,41105208,40882336,41222740,40993364,3800,3800,7085,16153,402,5123,1192,-1947,187,173,820
543733,41106232,40883280,41223500,40994124,3800,3800,6908,16107,57,3975,924,-1168,187,172,819
544725,41107076,40884280,41224244,40994868,3800,3800,6478,16262,-310,3114,1634,-398,187,172,819
545726,41107904,40885264,41224988,40995612,3800,3800,6074,16442,-743,2978,2425,-1326,175,202,822
546727,41108816,40886312,41225732,40996356,3800,3800,5624,16377,-1349,2129,3912,-1962,175,202,822
547728,41109648,40887432,41226476,40997100,3800,3800,5152,16309,-1966,522,4844,-1639,186,208,824
548729,41110500,40888476,41227220,40997844,3800,3800,4577,16050,-2481,-330,4873,-1595,186,208,824
549730,41111352,40889556,41227964,40998588,3800,3800,3955,15836,-3130,66,5790,-1810,184,236,824
550731,41112260,40890768,41228708,40999332,3800,3800,3409,15173,-3994,479,6657,-3332,184,236,824
551732,41113032,40891824,41229452,41000076,3800,3800,2823,14349,-5141,-224,6841,-2674,165,234,824
552734,41113716,40892956,41230196,41000820,3800,3800,2023,13963,-6408,-1633,7466,-943,165,234,824
553734,41114412,40893972,41230940,41001564,3800,3800,877,14289,-7719,-1712,7897,796,141,216,821
554735,41114928,40894952,41231684,41002308,3800,3800,-236,14502,-9050,-786,8156,-734,141,216,821
555736,41115368,40895920,41232428,41003052,3800,3800,-1142,13869,-10210,65,8383,-2550,121,196,819
556737,41115716,40896816,41233172,41003796,3800,3800,-1875,12572,-11028,521,6804,-3774,121,196,819
557738,41115956,40897732,41233916,41004540,3800,3800,-2497,10709,-11284,665,4601,-4658,76,190,816
558739,41116084,40898676,41234660,41005284,3800,3800,-3018,8945,-10950,1406,2482,-4438,76,190,816
559740,41116116,40899448,41235404,41006028,3800,3800,-3463,7131,-10387,1573,1918,-5007,13,169,812
560741,41116116,40900252,41236148,41006772,3800,3800,-3868,5175,-9826,1258,1851,-5059,13,169,812
561742,41116120,40900968,41236892,41007516,3800,3800,-4375,3113,-9331,1143,1431,-4611,1,161,810
562743,41116104,40901580,41237636,41008260,3800,3800,-5536,2054,-8876,1397,807,-58,1,161,810
563744,41116128,40902156,41238380,41009004,3800,3800,-7822,2938,-8314,1512,-443,5795,10,118,808
564745,41116144,40902616,41239124,41009748,3800,3800,-9881,3617,-7827,458,-516,1727,10,118,808
565753,41116128,40902980,41239884,41010508,3800,3800,-10700,2347,-7479,-1059,50,-3213,14,93,805
566747,41116160,40903268,41240628,41011252,3800,3800,-10753,19,-7200,-2253,345,-3501,14,93,805
567748,41116188,40903496,41241372,41011996,3800,3800,-10895,-2185,-6967,-3358,-124,-2230,-1,39,804
568749,41116228,40903568,41242116,41012740,3800,3800,-11311,-3417,-6768,-4710,-1095,664,-1,39,804
569750,41116292,40903508,41242860,41013484,3800,3800,-11866,-3984,-6337,-9189,-1861,3496,8,8,802
570751,41116408,40903516,41243604,41014228,3800,3800,-12276,-6733,-5097,-20547,-2642,2180,8,8,802
571752,41116536,40903552,41244348,41014972,3800,3800,-4012,-14211,-2623,-28407,-16377,24307,16,14,801
572753,41116656,40903588,41245092,41015716,3800,3800,6911,-10633,-768,-9487,-14739,32767,16,14,801
573754,41116876,40903616,41245836,41016460,3800,3800,5967,3550,-682,-506,8964,32767,46,16,802
574755,41117104,40903616,41246580,41017204,3800,3800,1140,12382,-2176,-5235,8664,16296,46,16,802
575756,41117320,40903544,41247324,41017948,3800,3800,-1121,11010,-3454,-5161,2074,-407,56,18,802
576757,41117576,40903552,41248068,41018692,3800,3800,-925,6605,-3704,-5173,2776,-1278,56,18,802
577758,41117872,40903568,41248812,41019436,3800,3800,-480,2944,-3342,-2369,2405,-968,63,18,803
578759,41118136,40903600,41249556,41020180,3800,3800,-344,947,-2864,-455,1937,-1992,63,18,803
579760,41118448,40903620,41250300,41020924,3800,3800,-241,-1281,-2142,-623,1297,-3018,71,8,803
580761,41118800,40903644,41251044,41021668,3800,3800,89,-3972,-1277,-267,1278,-3942,71,8,803
581762,41119088,40903624,41251788,41022412,3800,3800,526,-6970,-405,843,1475,-4601,54,19,804
582763,41119420,40903628,41252532,41023156,3800,3800,726,-9854,394,2832,482,-3806,54,19,804
583764,41119784,40903724,41253276,41023900,3800,3800,672,-12006,1247,3462,-25,-1452,60,24,804
584766,41120124,40903836,41254020,41024644,3800,3800,323,-13089,2109,3484,-528,2345,60,24,804
585766,41120428,40903952,41254764,41025388,3800,3800,75,-13680,2784,3237,-1092,1168,77,21,804
586767,41120772,40904108,41255508,41026132,3800,3800,102,-14612,3255,2037,-1112,1110,77,21,804
587775,41121104,40904272,41256268,41026892,3800,3800,318,-15090,3446,1103,-459,3195,61,41,804
588769,41121400,40904480,41257012,41027636,3800,3800,605,-15275,3419,516,-341,3477,61,41,804
589770,41121716,40904716,41257756,41028380,3800,3800,1002,-14770,3263,-508,-154,5535,60,58,803
590771,41122048,40904968,41258500,41029124,3800,3800,1199,-13257,2888,-1232,544,8698,60,58,803
591772,41122364,40905280,41259244,41029868,3800,3800,1357,-11250,2287,-1646,1016,9166,60,66,806
592773,41122692,40905540,41259988,41030612,3800,3800,1604,-8996,1719,-2096,586,9681,60,66,806
593774,41123032,40905876,41260732,41031356,3800,3800,1867,-6604,1302,-2152,-75,10150,58,57,807
594775,41123360,40906172,41261476,41032100,3800,3800,1996,-4210,973,-2157,-429,9906,58,57,807
595776,41123668,40906460,41262220,41032844,3800,3800,2147,-2110,648,-2174,-709,8434,68,73,805
596777,41124016,40906760,41262964,41033588,3800,3800,2437,-606,234,-1689,-371,6206,68,73,805
597778,41124344,40907044,41263708,41034332,3800,3800,2890,259,-214,-1071,54,4259,60,66,807
598779,41124688,40907380,41264452,41035076,3800,3800,3436,687,-676,-606,346,2961,60,66,807
599780,41125032,40907672,41265196,41035820,3800,3800,3966,774,-1027,318,-328,1833,65,71,805
600781,41125376,40907940,41265940,41036564,3800,3800,4491,681,-1190,1024,-773,966,65,71,805
601782,41125716,40908208,41266684,41037308,3800,3800,5039,357,-1259,1311,-723,-39,63,70,807
602783,41126040,40908504,41267428,41038052,3800,3800,5610,-256,-1306,1599,-908,-1160,63,70,807
603784,41126428,40908784,41268172,41038796,3800,3800,6150,-1081,-1327,1780,-986,-1719,72,67,807
604785,41126784,40909076,41268916,41039540,3800,3800,6621,-1886,-1278,1962,-1102,-1783,72,67,807
605786,41127148,40909344,41269660,41040284,3800,3800,6989,-2610,-1195,1995,-977,-1652,63,66,807
606787,41127556,40909568,41270404,41041028,3800,3800,7297,-3150,-1138,1760,-701,-1394,63,66,807
607788,41128004,40909800,41271148,41041772,3800,3800,7519,-3497,-1110,1656,-631,-932,81,64,807
608789,41128484,40910104,41271892,41042516,3800,3800,7664,-3581,-1140,1465,-355,-416,81,64,807
609797,41128944,40910368,41272652,41043276,3800,3800,7759,-3479,-1249,952,51,-140,88,57,807
610791,41129472,40910644,41273396,41044020,3800,3800,7846,-3215,-1446,463,486,108,88,57,807
611792,41130020,40910864,41274140,41044764,3800,3800,7888,-2805,-1712,57,1109,584,86,66,807
612793,41130552,40911136,41274884,41045508,3800,3800,7823,-2070,-2087,-300,2113,1520,86,66,807
613794,41131160,40911384,41275628,41046252,3800,3800,7641,-1093,-2444,-429,2006,1844,101,63,809
614795,41131792,40911648,41276372,41046996,3800,3800,7415,-88,-2743,-604,2281,1660,101,63,809
615796,41132360,40911892,41277116,41047740,3800,3800,7177,841,-3019,-716,2672,1369,111,47,809
616797,41133012,40912116,41277860,41048484,3800,3800,6872,1602,-3237,-798,2928,1030,111,47,809
617798,41133688,40912368,41278604,41049228,3800,3800,6565,2324,-3390,-938,3138,760,124,48,809
618800,41134356,40912640,41279348,41049972,3800,3800,6247,2783,-3488,-965,3273,70,124,48,809
619800,41135024,40912892,41280092,41050716,3800,3800,6005,3123,-3506,-772,3245,-299,141,61,809
620801,41135708,40913132,41280836,41051460,3800,3800,5729,3375,-3389,-420,3442,-226,141,61,809
621802,41136500,40913408,41281580,41052204,3800,3800,5461,3667,-3086,36,3444,-346,149,65,810
622803,41137216,40913636,41282324,41052948,3800,3800,5163,3839,-2602,329,3416,-511,149,65,810
623804,41137936,40913928,41283068,41053692,3800,3800,4866,3873,-2025,443,3599,-927,130,73,811
624805,41138772,40914256,41283812,41054436,3800,3800,4544,3678,-1447,531,3878,-1312,130,73,811
625807,41139484,40914572,41284556,41055180,3800,3800,4225,3391,-907,480,4048,-1510,166,66,811
626807,41140188,40914892,41285300,41055924,3800,3800,3829,3005,-379,243,4027,-1639,166,66,811
627808,41141000,40915192,41286044,41056668,3800,3800,3427,2446,155,-65,3961,-2364,160,70,812
628809,41141676,40915580,41286788,41057412,3800,3800,3007,1729,685,-406,3905,-2531,160,70,812
629811,41142348,40915956,41287532,41058156,3800,3800,2511,1011,1203,-590,3916,-2347,132,82,813
630811,41143024,40916300,41288276,41058900,3800,3800,1950,241,1740,-592,3536,-2447,132,82,813
631821,41143616,40916700,41289036,41059660,3800,3800,1284,-490,2292,-374,2864,-2010,120,85,811
632813,41144172,40917164,41289780,41060404,3800,3800,452,-990,2797,58,2522,-1045,120,85,811
633814,41144692,40917584,41290524,41061148,3800,3800,-489,-1443,3220,543,2466,-1169,113,91,811
634815,41145164,40918016,41291268,41061892,3800,3800,-1766,-1436,3645,1208,1587,987,113,91,811
635816,41145560,40918568,41292012,41062636,3800,3800,-3846,-267,4309,1649,-716,4928,92,94,811
636817,41145944,40919040,41292756,41063380,3800,3800,-5786,426,5023,1888,-176,902,92,94,811
637818,41146272,40919536,41293500,41064124,3800,3800,-6648,-937,5345,2369,2346,-4700,72,95,809
638819,41146540,40920088,41294244,41064868,3800,3800,-6873,-3157,5351,2813,2921,-4442,72,95,809
639820,41146732,40920556,41294988,41065612,3800,3800,-7292,-4398,5324,3329,2076,-323,48,110,809
640821,41146924,40921116,41295732,41066356,3800,3800,-8021,-4738,5568,3979,-266,569,48,110,809
641822,41147148,40921696,41296476,41067100,3800,3800,-8692,-5008,5893,3911,-273,169,51,113,806
642823,41147444,40922236,41297220,41067844,3800,3800,-9083,-5251,5984,3432,-11,924,51,113,806
643824,41147864,40922928,41297964,41068588,3800,3800,-9444,-4871,5857,2000,-1487,3604,51,110,808
644825,41148308,40923472,41298708,41069332,3800,3800,-9868,-3504,5789,8,-2225,6054,51,110,808
645826,41148796,40924128,41299452,41070076,3800,3800,-10182,-1847,5818,-632,-1556,6062,93,129,811
646827,41149352,40924720,41300196,41070820,3800,3800,-10240,-640,5669,486,101,4585,93,129,811
647828,41149896,40925380,41300940,41071564,3800,3800,-10087,163,5336,2011,1359,4257,103,122,813
648829,41150532,40926164,41301684,41072308,3800,3800,-9884,1159,4953,2394,1562,5298,103,122,813
649830,41151160,40926992,41302428,41073052,3800,3800,-9615,2152,4524,1091,1547,4807,135,152,814
650831,41151760,40927732,41303172,41073796,3800,3800,-9248,3109,4102,-160,1153,5016,135,152,814
651832,41152348,40928572,41303916,41074540,3800,3800,-8738,4122,3838,30,152,5138,109,137,814
652833,41152920,40929296,41304660,41075284,3800,3800,-8135,5263,3699,10,-903,5513,109,137,814
653841,41153628,40930104,41305420,41076044,3800,3800,-7688,7063,3633,-159,-2010,8170,130,153,815
654835,41154348,40930844,41306164,41076788,3800,3800,-7578,9408,3532,415,-2515,9387,130,153,815
655836,41155224,40931664,41306908,41077532,3800,3800,-7454,11371,3190,676,-615,6814,142,140,816
656837,41156132,40932304,41307652,41078276,3800,3800,-7143,12788,2366,-54,557,5729,142,140,816
657838,41156836,40932956,41308396,41079020,3800,3800,-6771,13636,1350,160,724,4536,154,139,816
658839,41157688,40933464,41309140,41079764,3800,3800,-6442,14422,457,798,-1091,4997,154,139,816
659840,41158660,40933960,41309884,41080508,3800,3800,-6301,15601,-259,1257,-3315,5942,161,120,816
660841,41159540,40934468,41310628,41081252,3800,3800,-6258,16590,-1139,1544,-2367,4145,161,120,816
661842,41160484,40934780,41311372,41081996,3800,3800,-6188,17047,-2278,1584,-1625,2668,161,96,815
662843,41161556,40935108,41312116,41082740,3800,3800,-6088,16836,-3521,1490,-1248,1217,161,96,815
663844,41162508,40935484,41312860,41083484,3800,3800,-6075,16256,-4836,1836,-851,482,182,79,814
664845,41163500,40935840,41313604,41084228,3800,3800,-6053,15448,-6169,2053,153,-700,182,79,814
665846,41164580,40936104,41314348,41084972,3800,3800,-5904,14670,-7379,1760,-594,-522,170,84,814
666847,41165536,40936552,41315092,41085716,3800,3800,-5625,14218,-8265,889,-2401,859,170,84,814
667848,41166520,40937016,41315836,41086460,3800,3800,-5281,13965,-8766,246,-3795,1852,196,104,816
668849,41167560,40937428,41316580,41087204,3800,3800,-4984,13984,-8957,606,-4281,2971,196,104,816
669850,41168488,40937880,41317324,41087948,3800,3800,-4802,14180,-9034,699,-4225,3436,175,91,816
670851,41169360,40938332,41318068,41088692,3800,3800,-4638,14185,-9182,-400,-3770,3185,175,91,816
671852,41170252,40938784,41318812,41089436,3800,3800,-4479,13973,-9461,-2118,-3454,3025,171,100,815
672853,41171192,40939228,41319556,41090180,3800,3800,-4282,13439,-9818,-3629,-3505,2402,171,100,815
673854,41172092,40939732,41320300,41090924,3800,3800,-4071,12235,-10116,-5238,-3665,1079,167,101,815
674856,41172864,40940208,41321044,41091668,3800,3800,-2735,7279,-10166,-11986,-4790,-1103,167,101,815
675863,41173780,40940756,41321804,41092428,3800,3800,2504,-1998,-8861,-25590,-11455,32767,173,121,815
676857,41174612,40941344,41322548,41093172,3800,3800,6346,-8631,-7491,-16900,-6668,12125,173,121,815
677858,41175424,40941924,41323292,41093916,3800,3800,6083,-9523,-6708,-10745,-5124,8825,169,109,816
678859,41176308,40942480,41324036,41094660,3800,3800,4449,-7381,-6057,-9354,-6107,9643,169,109,816
679860,41177052,40943024,41324780,41095404,3800,3800,3366,-4683,-5289,-9960,-5803,10536,179,117,816
680861,41177836,40943644,41325524,41096148,3800,3800,2885,-2655,-4665,-8861,-4716,9935,179,117,816
681862,41178600,40944212,41326268,41096892,3800,3800,2006,-335,-4171,-7210,-4759,12787,157,120,816
682863,41179240,40944968,41327012,41097636,3800,3800,1006,1017,-3744,-6764,-4826,7685,157,120,816
683864,41179864,40945748,41327756,41098380,3800,3800,428,1077,-3474,-6032,-4434,4712,155,136,817
684865,41180504,40946408,41328500,41099124,3800,3800,160,220,-3190,-4799,-4707,2552,155,136,817
685866,41181044,40947192,41329244,41099868,3800,3800,-49,-990,-2855,-2869,-5268,1485,107,146,813
686867,41181496,40947844,41329988,41100612,3800,3800,-162,-2399,-2447,-1301,-6274,54,107,146,813
687868,41181944,40948704,41330732,41101356,3800,3800,-245,-4065,-1824,797,-6582,-199,104,151,814
688869,41182356,40949536,41331476,41102100,3800,3800,-266,-5702,-968,3772,-6821,-121,104,151,814
689870,41182732,40950456,41332220,41102844,3800,3800,656,-7556,-150,7428,-7852,6488,81,175,815
690871,41183076,40951296,41332964,41103588,3800,3800,4555,-9098,9,14152,-9435,32767,81,175,815
691872,41183416,40952212,41333708,41104332,3800,3800,7230,-7628,331,11455,-9600,31381,70,169,815
692873,41183696,40953164,41334452,41105076,3800,3800,7135,-6194,1205,7594,-7704,8669,70,169,815
693874,41183976,40954140,41335196,41105820,3800,3800,6070,-6669,1900,6990,-3751,2034,70,173,815
694875,41184300,40955096,41335940,41106564,3800,3800,5447,-7903,2151,7007,-1683,1984,70,173,815
695876,41184636,40956116,41336684,41107308,3800,3800,5458,-9096,2283,6790,-1750,1850,66,203,814
696877,41184996,40957072,41337428,41108052,3800,3800,5635,-9648,2455,6682,-2037,3066,66,203,814
697885,41185508,40957988,41338188,41108812,3800,3800,5507,-9363,2624,6528,-1232,5448,84,193,814
698879,41185972,40959012,41338932,41109556,3800,3800,5345,-8797,2899,6528,-936,5182,84,193,814
699880,41186416,40959984,41339676,41110300,3800,3800,5220,-8049,3228,6426,-437,6350,116,209,817
700881,41186976,40960884,41340420,41111044,3800,3800,5042,-6895,3489,5260,-412,7973,116,209,817
701882,41187528,40961764,41341164,41111788,3800,3800,5035,-5586,3605,3646,-980,7105,131,203,818
702883,41188112,40962576,41341908,41112532,3800,3800,5272,-4434,3556,2470,-1155,6671,131,203,818
703884,41188756,40963404,41342652,41113276,3800,3800,5630,-3270,3346,1368,-1230,6758,129,173,818
704885,41189368,40964196,41343396,41114020,3800,3800,6016,-2027,2908,272,-61,6479,129,173,818
705886,41190040,40964852,41344140,41114764,3800,3800,6220,-792,2285,-586,1027,6267,144,141,817
706887,41190736,40965444,41344884,41115508,3800,3800,6224,524,1635,-1493,1416,6592,144,141,817
707888,41191520,40966060,41345628,41116252,3800,3800,6229,2022,1095,-2302,1610,7013,143,116,815
708889,41192308,40966620,41346372,41116996,3800,3800,6341,3592,615,-3159,1052,7091,143,116,815
709890,41193056,40967200,41347116,41117740,3800,3800,6484,5287,72,-4329,588,7318,134,116,813
710891,41193908,40967732,41347860,41118484,3800,3800,6366,7024,-632,-5111,1227,7560,134,116,813
711892,41194732,40968272,41348604,41119228,3800,3800,5963,8364,-1509,-5366,2353,5535,173,107,815
712893,41195660,40968788,41349348,41119972,3800,3800,5614,8374,-2754,-5855,3765,923,173,107,815
713894,41196660,40969300,41350092,41120716,3800,3800,5433,7486,-4095,-5777,3077,-810,166,107,816
714895,41197608,40969764,41350836,41121460,3800,3800,5172,6395,-4956,-5077,993,-728,166,107,816
715896,41198616,40970316,41351580,41122204,3800,3800,4785,5283,-5356,-4661,586,-1304,196,105,816
716897,41199652,40970744,41352324,41122948,3800,3800,4302,4250,-5386,-4086,-241,-1097,196,105,816
717898,41200648,40971168,41353068,41123692,3800,3800,3909,2952,-5214,-3913,-346,-2432,190,111,816
718899,41201644,40971624,41353812,41124436,3800,3800,3869,1027,-4899,-4127,-393,-4217,190,111,816
719909,41202720,40971992,41354572,41125196,3800,3800,4172,-1577,-4439,-4089,-528,-5601,190,81,815
720901,41203708,40972340,41355316,41125940,3800,3800,4574,-4295,-3830,-3710,-740,-5573,190,81,815
721902,41204676,40972672,41356060,41126684,3800,3800,4816,-6510,-2932,-3499,-1866,-3852,192,77,816
722903,41205584,40972988,41356804,41127428,3800,3800,4858,-8057,-1797,-3923,-2575,-2081,192,77,816
723904,41206616,40973284,41357548,41128172,3800,3800,4784,-9081,-784,-4290,-2786,-31,182,74,816
724905,41207480,40973512,41358292,41128916,3800,3800,4308,-9234,179,-3972,-3188,3494,182,74,816
725906,41208292,40973752,41359036,41129660,3800,3800,3082,-8216,1360,-4313,-3400,7178,170,68,814
726907,41209164,40973988,41359780,41130404,3800,3800,1584,-6873,2669,-5726,-3229,7269,170,68,814
727908,41209916,40974204,41360524,41131148,3800,3800,571,-6256,3822,-6510,-1404,4991,165,41,813
728909,41210592,40974364,41361268,41131892,3800,3800,409,-6626,4746,-6055,-540,2506,165,41,813
729910,41211376,40974512,41362012,41132636,3800,3800,719,-7780,5570,-4393,304,709,147,40,809
730911,41211992,40974624,41362756,41133380,3800,3800,1231,-9282,6318,-2339,992,-399,147,40,809
731912,41212672,40974756,41363500,41134124,3800,3800,1466,-10475,6965,-331,2202,1067,145,26,809
732913,41213324,40974884,41364244,41134868,3800,3800,1455,-11034,7285,439,3631,2655,145,26,809
733914,41213928,40975004,41364988,41135612,3800,3800,1361,-10976,7452,793,3680,4194,136,27,809
734915,41214544,40975124,41365732,41136356,3800,3800,1381,-10952,7544,1492,3421,3738,136,27,809
735916,41215224,40975236,41366476,41137100,3800,3800,1513,-10944,7444,2781,4470,3878,130,33,809
736917,41215816,40975404,41367220,41137844,3800,3800,1520,-10750,7105,3968,5502,5151,130,33,809
737918,41216448,40975572,41367964,41138588,3800,3800,1436,-9998,6706,4734,4643,6662,123,36,809
738919,41216960,40975740,41368708,41139332,3800,3800,1304,-9038,6402,4824,3391,7269,123,36,809
739920,41217648,40975900,41369452,41140076,3800,3800,1274,-7677,6076,4874,3598,8484,124,46,808
740922,41218196,40976068,41370196,41140820,3800,3800,1247,-6172,5604,5402,3880,8698,124,46,808
741929,41218856,40976228,41370956,41141580,3800,3800,1269,-4482,5041,5262,3708,9098,123,39,808
742923,41219464,40976396,41371700,41142324,3800,3800,1252,-2830,4372,5268,4294,8960,123,39,808
743924,41220116,40976656,41372444,41143068,3800,3800,1273,-1199,3644,5509,4139,8673,126,42,809
744925,41220756,40976888,41373188,41143812,3800,3800,1284,260,2852,5793,4616,8056,126,42,809
745926,41221468,40977132,41373932,41144556,3800,3800,1283,1506,2000,5922,4990,6988,135,49,809
746927,41222176,40977372,41374676,41145300,3800,3800,1263,2581,1103,5831,4891,6512,135,49,809
747928,41222988,40977608,41375420,41146044,3800,3800,1180,3784,151,5827,5056,6742,133,46,811
748929,41223792,40977848,41376164,41146788,3800,3800,1008,4996,-793,5887,4929,6002,133,46,811
749930,41224664,40978132,41376908,41147532,3800,3800,775,6197,-1665,5956,4968,5768,155,68,811
750931,41225496,40978396,41377652,41148276,3800,3800,535,7310,-2413,5770,4716,5207,155,68,811
751932,41226412,40978684,41378396,41149020,3800,3800,228,8377,-3059,5383,4290,4935,165,67,811
752933,41227268,40978932,41379140,41149764,3800,3800,-116,9364,-3657,5023,4034,4151,165,67,811
753934,41228244,40979188,41379884,41150508,3800,3800,-375,10013,-4079,4517,2815,2656,178,59,812
754935,41229192,40979480,41380628,41151252,3800,3800,-468,10174,-4408,4159,2329,960,178,59,812
755936,41230244,40979796,41381372,41151996,3800,3800,-351,9637,-4682,3408,1736,-1238,168,60,814
756937,41231200,40980092,41382116,41152740,3800,3800,29,8630,-4882,2552,766,-2717,168,60,814
757938,41232180,40980372,41382860,41153484,3800,3800,448,7699,-4843,1809,-1039,-2272,160,57,813
758939,41233192,40980624,41383604,41154228,3800,3800,720,7260,-4383,1471,-2638,-414,160,57,813
759940,41234108,40981028,41384348,41154972,3800,3800,660,7761,-3631,1355,-3883,2230,170,65,814
760942,41234968,40981384,41385092,41155716,3800,3800,473,8668,-2927,510,-3818,2221,170,65,814
761942,41235952,40981740,41385836,41156460,3800,3800,429,8952,-2545,-464,-2872,50,174,86,813
762943,41236868,40982064,41386580,41157204,3800,3800,647,8361,-2471,-1315,-1991,-1979,174,86,813
763951,41237764,40982508,41387340,41157964,3800,3800,989,7394,-2433,-1948,-1729,-2204,179,94,812
764945,41238628,40982928,41388084,41158708,3800,3800,1366,6542,-2289,-2087,-1760,-2124,179,94,812
765946,41239484,40983376,41388828,41159452,3800,3800,1702,6009,-2032,-2061,-1754,-1334,168,85,815
766947,41240316,40983860,41389572,41160196,3800,3800,1876,6225,-1443,-2004,-3122,1162,168,85,815
767948,41241256,40984340,41390316,41160940,3800,3800,1777,7297,-578,-2249,-3575,3829,173,97,816
768949,41242104,40984800,41391060,41161684,3800,3800,1680,8677,279,-2956,-2361,3633,173,97,816
769950,41242944,40985264,41391804,41162428,3800,3800,1852,9734,1060,-3650,-1894,2390,170,101,816
770951,41243896,40985792,41392548,41163172,3800,3800,2188,10529,1755,-4083,-1585,2272,170,101,816
771952,41244680,40986284,41393292,41163916,3800,3800,2510,11308,2421,-4157,-606,2540,174,106,816
772953,41245488,40986816,41394036,41164660,3800,3800,2606,12421,2920,-3808,931,3670,174,106,816
773954,41246240,40987332,41394780,41165404,3800,3800,2578,13688,3233,-3589,2359,3300,172,105,814
774955,41247008,40987828,41395524,41166148,3800,3800,2622,14384,3447,-3665,2986,1077,172,105,814
775956,41247656,40988404,41396268,41166892,3800,3800,2784,14386,3565,-3156,3414,-458,150,103,813
776957,41248300,40989004,41397012,41167636,3800,3800,2928,13782,3558,-2211,4340,-1536,150,103,813
777958,41248908,40989560,41397756,41168380,3800,3800,3062,12938,3517,-836,4057,-1871,121,106,813
778959,41249468,40990188,41398500,41169124,3800,3800,3049,11958,3604,661,2621,-1872,121,106,813
779960,41249988,40990744,41399244,41169868,3800,3800,2864,11330,3998,2222,856,-52,117,116,813
780961,41250528,40991404,41399988,41170612,3800,3800,2603,10939,4399,2935,890,-36,117,116,813
781962,41250988,40992056,41400732,41171356,3800,3800,2437,9996,4418,2961,1925,-2381,113,131,813
782963,41251456,40992940,41401476,41172100,3800,3800,2390,8339,4045,3309,2548,-3444,113,131,813
783964,41251932,40993640,41402220,41172844,3800,3800,2230,6822,3473,3693,1852,-1830,102,145,813
784965,41252364,40994452,41402964,41173588,3800,3800,1958,5631,2993,3893,600,-1327,102,145,813
785973,41252800,40995220,41403724,41174348,3800,3800,1754,4527,2664,4181,-429,-1377,95,146,812
786967,41253260,40996000,41404468,41175092,3800,3800,1546,3456,2338,4114,-1251,-642,95,146,812
787968,41253712,40996812,41405212,41175836,3800,3800,1238,2546,1881,4039,-1449,44,89,139,813
788969,41254196,40997564,41405956,41176580,3800,3800,725,1835,1156,4120,-642,687,89,139,813
789970,41254644,40998344,41406700,41177324,3800,3800,152,1160,98,3636,1312,483,94,159,813
790971,41255180,40999020,41407444,41178068,3800,3800,-346,493,-1273,2896,3447,423,94,159,813
791972,41255652,40999732,41408188,41178812,3800,3800,-805,-110,-2762,2505,3821,587,108,140,814
792973,41256164,41000348,41408932,41179556,3800,3800,-1277,-476,-4210,2323,3692,1395,108,140,814
793974,41256672,41001048,41409676,41180300,3800,3800,-1769,-529,-5528,2237,3022,2040,104,137,812
794975,41257112,41001696,41410420,41181044,3800,3800,-2314,-382,-6754,1963,2770,2472,104,137,812
795976,41257608,41002360,41411164,41181788,3800,3800,-2899,-210,-7982,1440,2838,2419,97,124,812
796977,41258116,41002976,41411908,41182532,3800,3800,-3332,-150,-9067,1002,1737,1774,97,124,812
797978,41258628,41003628,41412652,41183276,3800,3800,-3646,-372,-9812,786,-353,1180,97,130,812
798979,41259268,41004276,41413396,41184020,3800,3800,-3803,-764,-10238,547,-797,587,97,130,812
799980,41259936,41004832,41414140,41184764,3800,3800,-3913,-1369,-10421,139,-556,57,109,134,813
800981,41260580,41005440,41414884,41185508,3800,3800,-4037,-2065,-10497,-549,-150,16,109,134,813
801982,41261296,41005952,41415628,41186252,3800,3800,-4235,-2727,-10506,-1624,-874,473,139,117,813
802983,41262072,41006608,41416372,41186996,3800,3800,-4478,-3177,-10359,-2475,-1962,1204,139,117,813
803984,41262900,41007156,41417116,41187740,3800,3800,-4637,-3498,-10032,-3113,-2320,1079,156,121,814
804985,41263732,41007820,41417860,41188484,3800,3800,-4724,-3861,-9583,-3594,-2189,967,156,121,814
805986,41264636,41008396,41418604,41189228,3800,3800,-4715,-4293,-8996,-3866,-2751,870,142,122,816
806987,41265512,41009068,41419348,41189972,3800,3800,-4760,-4888,-8280,-4424,-3011,641,142,122,816
807997,41266392,41009680,41420108,41190732,3800,3800,-4766,-5524,-7459,-5256,-3440,865,167,123,815
808990,41267292,41010380,41420852,41191476,3800,3800,-4728,-5937,-6517,-5973,-4741,2037,167,123,815
809990,41268312,41011200,41421596,41192220,3800,3800,-4690,-6101,-5505,-6669,-5398,2744,190,156,817
810991,41269212,41011776,41422340,41192964,3800,3800,-4670,-6071,-4442,-7127,-5918,3470,190,156,817
811992,41270120,41012400,41423084,41193708,3800,3800,-4542,-6102,-3372,-7737,-6248,3616,170,133,818
812993,41271060,41013192,41423828,41194452,3800,3800,-4328,-6233,-2319,-8019,-6478,3856,170,133,818
813994,41271940,41013936,41424572,41195196,3800,3800,-4058,-6582,-1337,-7672,-6437,3604,176,155,819
814995,41272776,41014732,41425316,41195940,3800,3800,-3787,-7141,-382,-7174,-6719,3795,176,155,819
815996,41273644,41015572,41426060,41196684,3800,3800,-3491,-7492,675,-7064,-6986,5664,178,185,819
816997,41274404,41016344,41426804,41197428,3800,3800,-844,-5310,1679,-2376,-7483,32767,178,185,819
817998,41275140,41017308,41427548,41198172,3800,3800,5523,2758,1936,7240,-8017,32767,159,196,817
818999,41275828,41018208,41428292,41198916,3800,3800,7964,10486,3105,574,-7753,32767,159,196,817
820000,41276404,41019176,41429036,41199660,3800,3800,5293,13660,5169,-1685,-6555,16536,143,198,818
821001,41276912,41020096,41429780,41200404,3800,3800,2578,11402,6615,-345,-3103,3486,143,198,818
822002,41277376,41021128,41430524,41201148,3800,3800,2084,6502,6955,1303,944,-2478,121,191,817
823003,41277708,41022100,41431268,41201892,3800,3800,2619,1179,6873,2446,938,-5656,121,191,817
824004,41278016,41022988,41432012,41202636,3800,3800,2820,-3399,6841,2713,-277,-4641,79,185,815
825005,41278248,41023916,41432756,41203380,3800,3800,2278,-6625,6939,4009,-2059,-1329,79,185,815
826006,41278408,41024772,41433500,41204124,3800,3800,1398,-9196,7099,5053,-3385,50,61,178,814
827007,41278500,41025744,41434244,41204868,3800,3800,459,-11089,7401,7146,-5543,3670,61,178,814
828008,41278528,41026596,41434988,41205612,3800,3800,-395,-12217,7845,9338,-6895,5663,16,171,812
829009,41278532,41027360,41435732,41206356,3800,3800,-1096,-13218,8210,10077,-6807,6248,16,171,812
830017,41278524,41028084,41436492,41207116,3800,3800,-2559,-13050,6392,24949,-15348,3132,2,162,809
831011,41278524,41028748,41437236,41207860,3800,3800,-4402,-12151,2252,32481,-17830,-5637,2,162,809
832012,41278520,41029416,41437980,41208604,3800,3800,-5049,-13018,568,10188,-2740,2933,0,132,809
833013,41278524,41030028,41438724,41209348,3800,3800,-3089,-11811,676,9844,-635,26012,0,132,809
834014,41278552,41030584,41439468,41210092,3800,3800,921,-6366,1302,8752,663,32767,18,133,807
835015,41278560,41031040,41440212,41210836,3800,3800,2865,-3986,1451,6788,99,6255,18,133,807
836016,41278644,41031468,41440956,41211580,3800,3800,3008,-4195,1121,5116,277,5755,24,95,806
837017,41278816,41031836,41441700,41212324,3800,3800,2429,-4926,738,3647,-549,7262,24,95,806
838018,41279040,41032248,41442444,41213068,3800,3800,2083,-4076,315,956,-388,9295,20,74,806
839019,41279276,41032608,41443188,41213812,3800,3800,1885,-2623,-161,-2306,567,10025,20,74,806
840020,41279596,41032952,41443932,41214556,3800,3800,1674,-748,-856,-4329,1869,11025,71,73,806
841021,41279964,41033268,41444676,41215300,3800,3800,1341,1413,-1649,-4281,3734,11133,71,73,806
842022,41280368,41033536,41445420,41216044,3800,3800,1108,2941,-2451,-3640,4159,8012,80,72,805
843023,41280772,41033808,41446164,41216788,3800,3800,995,3486,-3153,-3736,3353,6013,80,72,805
844024,41281160,41034124,41446908,41217532,3800,3800,1111,3525,-3573,-5044,2127,4704,82,71,807
845025,41281568,41034432,41447652,41218276,3800,3800,1409,3153,-3776,-5679,1540,2862,82,71,807
846026,41281904,41034712,41448396,41219020,3800,3800,1736,2890,-3756,-5680,864,3481,69,61,806
847027,41282232,41034956,41449140,41219764,3800,3800,1976,2678,-3488,-6099,394,3316,69,61,806
848028,41282704,41035184,41449884,41220508,3800,3800,2117,2309,-3058,-5816,-703,2424,71,62,807
849029,41283196,41035420,41450628,41221252,3800,3800,2304,1615,-2585,-5314,-375,929,71,62,807
850030,41283732,41035708,41451372,41221996,3800,3800,2476,798,-2000,-4835,-1096,1028,109,48,808
851031,41284304,41035940,41452116,41222740,3800,3800,2617,-62,-1332,-4954,-1810,759,109,48,808
852039,41284980,41036196,41452876,41223500,3800,3800,2647,-823,-526,-5168,-2328,1660,126,61,808
853033,41285568,41036404,41453620,41224244,3800,3800,2561,-1011,340,-4659,-2102,2828,126,61,808
854034,41286296,41036608,41454364,41224988,3800,3800,2462,-1356,982,-4146,-814,1572,133,61,808
855035,41286972,41036832,41455108,41225732,3800,3800,2426,-1926,1413,-3576,-618,1275,133,61,808
856036,41287656,41037044,41455852,41226476,3800,3800,2406,-2687,1832,-2686,-467,622,129,42,810
857037,41288392,41037240,41456596,41227220,3800,3800,2374,-3560,2254,-1724,-164,115,129,42,810
858038,41289076,41037420,41457340,41227964,3800,3800,2311,-4369,2693,-1327,-710,566,144,42,810
859039,41289904,41037600,41458084,41228708,3800,3800,2253,-4986,3110,-1105,-1484,996,144,42,810
860040,41290764,41037736,41458828,41229452,3800,3800,2131,-5198,3465,-548,-1870,2428,154,35,811
861041,41291572,41037900,41459572,41230196,3800,3800,1999,-4924,3723,349,-1736,3542,154,35,811
862042,41292476,41038076,41460316,41230940,3800,3800,1896,-4487,3879,959,-1858,3574,176,43,810
863043,41293448,41038320,41461060,41231684,3800,3800,1908,-4035,3975,1357,-2066,3451,176,43,810
864044,41294516,41038560,41461804,41232428,3800,3800,2057,-3694,4045,1692,-1726,3107,177,56,812
865045,41295464,41038856,41462548,41233172,3800,3800,2236,-3304,4091,2296,-1395,3366,177,56,812
866046,41296524,41039156,41463292,41233916,3800,3800,2391,-2661,4048,2599,-1208,3924,165,72,814
867047,41297692,41039520,41464036,41234660,3800,3800,2496,-1778,3873,2694,-1344,4285,165,72,814
868048,41298624,41039880,41464780,41235404,3800,3800,2655,-902,3598,2656,-1206,3683,179,86,814
869049,41299672,41040260,41465524,41236148,3800,3800,2856,-201,3245,2697,-880,3357,179,86,814
870050,41300704,41040612,41466268,41236892,3800,3800,3120,567,2778,2514,-346,3242,188,81,815
871051,41301664,41040956,41467012,41237636,3800,3800,3450,1202,2304,2223,-599,2732,188,81,815
872053,41302688,41041408,41467756,41238380,3800,3800,3777,1888,1936,2684,-837,2987,195,87,816
873054,41303624,41041788,41468500,41239124,3800,3800,4112,2631,1721,2766,-862,2813,195,87,816
874061,41304472,41042124,41469260,41239884,3800,3800,4520,3255,1548,2146,-701,1872,176,88,814
875056,41305340,41042512,41470004,41240628,3800,3800,5035,3422,1308,1812,-761,553,176,88,814
876056,41306184,41042852,41470748,41241372,3800,3800,5542,3496,1109,2234,-381,820,170,86,815
877057,41307092,41043148,41471492,41242116,3800,3800,5959,3644,1026,2345,-316,687,170,86,815
878058,41307888,41043424,41472236,41242860,3800,3800,6336,3701,949,1762,-229,47,171,62,814
879059,41308692,41043728,41472980,41243604,3800,3800,6665,3840,896,1397,93,577,171,62,814
880060,41309572,41043956,41473724,41244348,3800,3800,6990,4183,943,1664,394,693,173,64,813
881062,41310336,41044172,41474468,41245092,3800,3800,7235,4636,1019,1589,501,848,173,64,813
882063,41311060,41044352,41475212,41245836,3800,3800,7414,5267,1160,974,395,1254,175,41,812
883063,41311796,41044524,41475956,41246580,3800,3800,7506,5910,1265,206,1300,1054,175,41,812
884064,41312432,41044672,41476700,41247324,3800,3800,7467,6539,1293,-162,1915,1201,137,37,809
885065,41312992,41044792,41477444,41248068,3800,3800,7333,7535,1267,-289,2195,1887,137,37,809
886066,41313464,41044928,41478188,41248812,3800,3800,7021,8625,1135,-460,3292,1695,100,33,808
887067,41313888,41045104,41478932,41249556,3800,3800,6672,9467,823,-732,5053,729,100,33,808
888068,41314240,41045260,41479676,41250300,3800,3800,6327,9857,298,-332,6652,-110,81,30,804
889070,41314520,41045480,41480420,41251044,3800,3800,5976,9856,-375,598,6686,-1114,81,30,804
890070,41314760,41045640,41481164,41251788,3800,3800,5494,9776,-1021,1303,6871,-421,70,38,805
891071,41314996,41045808,41481908,41252532,3800,3800,4529,10668,-1588,2665,8466,3496,70,38,805
892072,41315184,41045972,41482652,41253276,3800,3800,3192,12048,-2290,3439,10438,3592,47,46,805
893074,41315356,41046132,41483396,41254020,3800,3800,2134,12491,-3269,3249,11629,-584,47,46,805
894074,41315536,41046404,41484140,41254764,3800,3800,1414,11835,-4288,3395,11160,-2059,43,60,804
895075,41315696,41046712,41484884,41255508,3800,3800,831,10834,-4968,3455,8768,-1954,43,60,804
896085,41315828,41047008,41485644,41256268,3800,3800,324,9550,-5187,3457,6891,-3262,27,53,804
897078,41315984,41047288,41486388,41257012,3800,3800,2,7722,-5285,3285,6767,-5241,27,53,804
898079,41316152,41047552,41487132,41257756,3800,3800,-152,5481,-5459,2880,6287,-6049,25,63,805
899079,41316316,41047900,41487876,41258500,3800,3800,-294,3463,-5600,2432,5536,-4864,25,63,805
900080,41316444,41048312,41488620,41259244,3800,3800,-539,2217,-5525,2001,3849,-2572,29,78,806
901081,41316640,41048700,41489364,41259988,3800,3800,-956,1806,-5233,1432,2429,-211,29,78,806
902082,41316784,41049080,41490108,41260732,3800,3800,-1479,1862,-4955,880,2410,612,26,84,804
903083,41316928,41049540,41490852,41261476,3800,3800,-1965,1767,-4847,410,2978,139,26,84,804
904084,41317112,41049964,41491596,41262220,3800,3800,-2346,1653,-4834,55,3116,725,40,88,806
905086,41317296,41050352,41492340,41262964,3800,3800,-2616,1544,-4816,-364,3225,473,40,88,806
906086,41317468,41050856,41493084,41263708,3800,3800,-2753,1417,-4772,-936,3186,298,50,89,805
907087,41317688,41051388,41493828,41264452,3800,3800,-2800,1484,-4652,-1590,2826,1258,50,89,805
908088,41317896,41051852,41494572,41265196,3800,3800,-2865,1852,-4436,-2078,2592,2282,52,88,806
909090,41318128,41052396,41495316,41265940,3800,3800,-2968,2334,-4124,-2463,2293,2521,52,88,806
910090,41318368,41052932,41496060,41266684,3800,3800,-3057,2862,-3705,-2951,2084,2869,60,112,808
911091,41318632,41053444,41496804,41267428,3800,3800,-3122,3380,-3228,-3280,2452,3031,60,112,808
912092,41318948,41054088,41497548,41268172,3800,3800,-3212,3804,-2742,-3438,2760,2697,54,104,809
913093,41319216,41054608,41498292,41268916,3800,3800,-3264,4152,-2187,-3460,2362,2843,54,104,809
914094,41319536,41055280,41499036,41269660,3800,3800,-3356,4545,-1558,-3338,1967,3317,62,115,810
915095,41319880,41055880,41499780,41270404,3800,3800,-3409,4753,-886,-3205,1847,2513,62,115,810
916096,41320204,41056508,41500524,41271148,3800,3800,-3333,4510,-165,-3157,1875,1424,61,132,810
917097,41320532,41057252,41501268,41271892,3800,3800,-3258,4205,578,-2815,1661,2027,61,132,810
918105,41320892,41058040,41502028,41272652,3800,3800,-3212,3668,2003,-2679,1126,1562,74,129,810
919099,41321248,41058828,41502772,41273396,3800,3800,-3110,3196,2570,-2539,802,1547,74,129,810
920100,41321604,41059648,41503516,41274140,3800,3800,-2986,2711,3058,-2223,572,1964,82,142,812
921102,41321936,41060452,41504260,41274884,3800,3800,-2863,2337,3515,-1837,476,2151,82,142,812
922102,41322324,41061392,41505004,41275628,3800,3800,-2753,1929,3898,-1651,514,2022,81,166,813
923103,41322680,41062220,41505748,41276372,3800,3800,-2657,1542,4167,-1539,410,2419,81,166,813
924104,41323064,41063076,41506492,41277116,3800,3800,-2571,1296,4292,-1332,59,2911,77,172,814
925105,41323480,41063908,41507236,41277860,3800,3800,-2480,1120,4172,-1226,-265,3085,77,172,814
926106,41323872,41064688,41507980,41278604,3800,3800,-2414,1029,3739,-1194,-281,3449,84,167,814
927107,41324280,41065460,41508724,41279348,3800,3800,-2377,752,3010,-996,273,2826,84,167,814
928108,41324772,41066176,41509468,41280092,3800,3800,-2365,440,2074,-784,512,3033,86,158,812
929109,41325232,41067044,41510212,41280836,3800,3800,-2366,295,1038,-857,386,3628,86,158,812
930110,41325728,41067756,41510956,41281580,3800,3800,-2391,358,-45,-1041,155,4169,80,150,812
931111,41326244,41068508,41511700,41282324,3800,3800,-2418,555,-1097,-1078,-206,4579,80,150,812
932112,41326792,41069356,41512444,41283068,3800,3800,-2402,761,-2080,-995,-488,4461,112,161,815
933113,41327316,41070192,41513188,41283812,3800,3800,-2404,829,-2984,-989,-896,4159,112,161,815
934114,41327952,41071116,41513932,41284556,3800,3800,-2446,538,-3867,-992,-572,3120,118,180,815
935115,41328512,41071932,41514676,41285300,3800,3800,-2503,-201,-4852,-948,-85,2011,118,180,815
936116,41329124,41072676,41515420,41286044,3800,3800,-2588,-1292,-5929,-932,-186,1311,127,172,815
937118,41329724,41073484,41516164,41286788,3800,3800,-2546,-2467,-6921,-1101,-379,1010,127,172,815
938118,41330420,41074188,41516908,41287532,3800,3800,-2578,-3722,-7648,-1163,-851,1313,129,151,815
939120,41331108,41074984,41517652,41288276,3800,3800,-2607,-4834,-8076,-1136,-1077,1267,129,151,815
940127,41331744,41075844,41518412,41289036,3800,3800,-2754,-6053,-8181,-1057,-1614,1314,143,167,814
941122,41332528,41076768,41519156,41289780,3800,3800,-2846,-7182,-7996,-1141,-2238,1393,143,167,814
942122,41333284,41077476,41519900,41290524,3800,3800,-3005,-8364,-7464,-1541,-3332,2052,156,164,817
943123,41334000,41078328,41520644,41291268,3800,3800,-3022,-9352,-6659,-2095,-3726,2257,156,164,817
944124,41334864,41079268,41521388,41292012,3800,3800,-3020,-10442,-5777,-2452,-2903,2622,141,168,816
945125,41335616,41080128,41522132,41292756,3800,3800,-2821,-11677,-4917,-1725,-2561,5060,141,168,816
946126,41336360,41081004,41522876,41293500,3800,3800,-2141,-10789,-3632,1676,-4011,24793,152,190,818
947127,41337176,41082036,41523620,41294244,3800,3800,-850,-6691,-1558,4963,-7800,32767,152,190,818
948128,41337912,41082992,41524364,41294988,3800,3800,-405,-2476,778,3333,-7758,32036,176,213,820
949129,41338616,41083920,41525108,41295732,3800,3800,-682,-1442,2486,457,-3096,13256,176,213,820
950130,41339300,41084964,41525852,41296476,3800,3800,-574,-3547,3315,-527,-10,6704,156,210,819
951131,41339880,41086124,41526596,41297220,3800,3800,170,-6740,3828,-1158,-410,4496,156,210,819
952132,41340440,41087132,41527340,41297964,3800,3800,823,-9050,4339,-672,-1036,7239,143,202,817
953133,41340940,41088104,41528084,41298708,3800,3800,754,-9598,4998,1313,-2131,11193,143,202,817
954134,41341304,41088936,41528828,41299452,3800,3800,414,-9560,5854,2429,-3189,10110,105,194,817
955135,41341640,41089828,41529572,41300196,3800,3800,339,-10008,6593,2167,-3068,7765,105,194,817
956136,41341852,41090668,41530316,41300940,3800,3800,424,-10470,7223,3302,-3539,8392,69,170,814
957137,41342040,41091436,41531060,41301684,3800,3800,489,-10659,7838,3200,-3620,7133,69,170,814
958138,41342180,41092220,41531804,41302428,3800,3800,510,-10532,8378,2923,-3885,6361,43,158,811
959139,41342276,41092988,41532548,41303172,3800,3800,619,-10458,8792,3543,-3600,5561,43,158,811
960140,41342392,41093724,41533292,41303916,3800,3800,795,-10236,9069,4760,-3909,6361,31,158,810
961141,41342472,41094364,41534036,41304660,3800,3800,1052,-9718,9136,5957,-3790,6243,31,158,810
962149,41342528,41095088,41534796,41305420,3800,3800,1488,-9358,8908,5798,-3603,5603,25,153,809
963143,41342584,41095660,41535540,41306164,3800,3800,1938,-8627,8505,5185,-3722,7902,25,153,809
964144,41342588,41096220,41536284,41306908,3800,3800,2292,-7354,7972,5225,-3565,9118,23,122,808
965145,41342620,41096736,41537028,41307652,3800,3800,2546,-5523,7377,5822,-3543,10453,23,122,808
966146,41342692,41097156,41537772,41308396,3800,3800,2649,-3052,6701,6073,-4817,11830,20,96,806
967147,41342776,41097524,41538516,41309140,3800,3800,2035,517,5480,6644,-11220,10143,20,96,806
968148,41342868,41097856,41539260,41309884,3800,3800,1001,4379,4100,3142,-11256,9466,28,95,805
969149,41343008,41098208,41540004,41310628,3800,3800,348,7504,3156,1534,-4751,11471,28,95,805
970150,41343116,41098540,41540748,41311372,3800,3800,168,9097,2498,2561,-2573,8395,32,78,806
971151,41343220,41098824,41541492,41312116,3800,3800,22,9744,1618,4128,-1308,6764,32,78,806
972152,41343356,41099060,41542236,41312860,3800,3800,-235,10348,329,3474,1210,5684,23,63,803
973153,41343476,41099244,41542980,41313604,3800,3800,-396,10054,-1020,2351,756,2064,23,63,803
974154,41343580,41099444,41543724,41314348,3800,3800,-442,8886,-2221,2209,-945,94,17,45,802
975155,41343712,41099688,41544468,41315092,3800,3800,-363,7434,-3147,2925,-361,-787,17,45,802
976156,41343856,41099908,41545212,41315836,3800,3800,-377,6240,-3639,4466,-1755,-93,23,51,804
977157,41343992,41100148,41545956,41316580,3800,3800,-596,5211,-3726,4467,-3469,578,23,51,804
978158,41344116,41100324,41546700,41317324,3800,3800,-766,3984,-3585,3500,-3735,-100,21,46,804
979159,41344248,41100460,41547444,41318068,3800,3800,-817,2500,-3512,3603,-3310,-1084,21,46,804
980160,41344360,41100612,41548188,41318812,3800,3800,-839,747,-3549,3146,-3646,-1844,33,41,803
981161,41344468,41100800,41548932,41319556,3800,3800,-758,-1230,-3650,2275,-3438,-2340,33,41,803
982162,41344572,41101016,41549676,41320300,3800,3800,-563,-3237,-3760,2186,-3735,-2176,36,45,803
983163,41344676,41101224,41550420,41321044,3800,3800,-398,-4654,-3744,1932,-4235,-216,36,45,803
984173,41344748,41101424,41551180,41321804,3800,3800,-387,-5105,-3478,1208,-5170,2582,18,44,801
985165,41344828,41101604,41551924,41322548,3800,3800,-459,-5023,-3068,394,-5502,3917,18,44,801
986167,41344964,41101804,41552668,41323292,3800,3800,-572,-4458,-2619,-312,-5404,5635,22,49,803
987168,41345056,41102052,41553412,41324036,3800,3800,-685,-3436,-2168,-903,-5722,6754,22,49,803
988168,41345168,41102316,41554156,41324780,3800,3800,-769,-2301,-1748,-1882,-5936,7121,20,62,804
989169,41345328,41102604,41554900,41325524,3800,3800,-753,-1090,-1320,-3432,-5806,7857,20,62,804
990170,41345412,41102888,41555644,41326268,3800,3800,-599,85,-923,-3948,-5183,7884,39,64,804
991171,41345496,41103128,41556388,41327012,3800,3800,-348,1377,-597,-3731,-4523,8118,39,64,804
992172,41345600,41103340,41557132,41327756,3800,3800,-35,2639,-290,-3884,-3869,7923,14,58,803
993173,41345700,41103584,41557876,41328500,3800,3800,354,3691,74,-3530,-3813,7275,14,58,803
994174,41345736,41103868,41558620,41329244,3800,3800,821,4463,495,-3151,-3393,6548,19,60,802
995175,41345784,41104168,41559364,41329988,3800,3800,1323,5233,970,-2950,-2707,6710,19,60,802
996176,41345836,41104440,41560108,41330732,3800,3800,1825,5815,1467,-2652,-2463,5937,5,59,802
997177,41345864,41104684,41560852,41331476,3800,3800,2381,5913,1983,-2378,-2298,4426,5,59,802
998178,41345884,41104936,41561596,41332220,3800,3800,3006,5668,2491,-1788,-1564,3554,16,65,803
999179,41345932,41105196,41562340,41332964,3800,3800,3672,5197,2932,-1293,-949,2664,16,65,803
1000180,41345956,41105448,41563084,41333708,3800,3800,4339,4506,3337,-1237,-693,2050,17,61,803
1001181,41345956,41105700,41563828,41334452,3800,3800,4991,3701,3759,-1045,-365,1719,17,61,803
1002182,41345992,41105956,41564572,41335196,3800,3800,5603,2880,4178,-584,-138,1536,4,46,803
1003184,41346024,41106152,41565316,41335940,3800,3800,6191,2187,4582,-453,-442,1697,4,46,803
1004184,41346000,41106308,41566060,41336684,3800,3800,6789,1551,4952,-610,-505,1767,7,61,802
1005185,41346008,41106484,41566804,41337428,3800,3800,7343,1054,5265,-691,-384,2103,7,61,802
1006193,41346032,41106684,41567564,41338188,3800,3800,7803,822,5516,-882,-71,2522,-1,56,799
1007187,41346020,41106856,41568308,41338932,3800,3800,8168,796,5727,-1024,165,2842,-1,56,799
1008188,41345996,41107004,41569052,41339676,3800,3800,8437,908,5899,-1272,576,3089,5,26,801
1009190,41346036,41107120,41569796,41340420,3800,3800,8610,1168,6000,-1635,991,3461,5,26,801
1010190,41346036,41107224,41570540,41341164,3800,3800,8687,1673,6029,-1807,1154,3794,5,27,801
1011191,41346000,41107288,41571284,41341908,3800,3800,8684,2299,5969,-2174,1491,3884,5,27,801
1012192,41346008,41107364,41572028,41342652,3800,3800,8627,2978,5808,-2439,1941,3800,-1,19,801
1013193,41346032,41107468,41572772,41343396,3800,3800,8521,3603,5595,-2423,2142,3420,-1,19,801
1014194,41346016,41107572,41573516,41344140,3800,3800,8362,4173,5362,-2349,2465,3049,-3,17,800
1015195,41346000,41107652,41574260,41344884,3800,3800,8091,4565,5016,-2503,3222,2451,-3,17,800
1016196,41346036,41107720,41575004,41345628,3800,3800,7705,4726,4445,-2620,3842,1770,7,24,799
1017197,41346024,41107768,41575748,41346372,3800,3800,7267,4790,3781,-2161,3872,1403,7,24,799
1018198,41345984,41107820,41576492,41347116,3800,3800,6728,4807,3094,-1658,4450,1036,-2,25,799
1019200,41346012,41107860,41577236,41347860,3800,3800,6119,4669,2390,-1177,4741,494,-2,25,799
1020200,41346036,41107936,41577980,41348604,3800,3800,5476,4260,1616,-951,5331,-434,1,23,799
1021201,41346012,41108004,41578724,41349348,3800,3800,4828,3519,780,-492,5526,-1297,1,23,799
1022202,41346012,41108076,41579468,41350092,3800,3800,4132,2709,-3,309,5548,-1146,-2,26,800
1023203,41346032,41108156,41580212,41350836,3800,3800,3274,2095,-689,931,5580,-292,-2,26,800
1024204,41346028,41108192,41580956,41351580,3800,3800,2367,1507,-1350,1120,4755,-787,-1,26,800
1025205,41346000,41108252,41581700,41352324,3800,3800,1527,610,-2026,1319,4155,-1972,-1,26,800
1026206,41346012,41108320,41582444,41353068,3800,3800,764,-574,-2694,1548,3682,-2485,-3,23,800
1027207,41346044,41108384,41583188,41353812,3800,3800,14,-1799,-3208,1751,2583,-2298,-3,23,800
1028215,41346016,41108460,41583948,41354572,3800,3800,-667,-2983,-3490,1634,1258,-2377,4,24,799
1029209,41346012,41108532,41584692,41355316,3800,3800,-1237,-4063,-3569,1515,163,-2239,4,24,799
1030210,41346032,41108580,41585436,41356060,3800,3800,-1698,-4956,-3421,1327,-1202,-1740,-2,12,800
1031211,41346040,41108616,41586180,41356804,3800,3800,-2036,-5745,-3212,761,-1439,-1771,-2,12,800
1032212,41346008,41108664,41586924,41357548,3800,3800,-2220,-6532,-3105,236,-1121,-1790,-4,16,800
1033213,41346032,41108728,41587668,41358292,3800,3800,-2287,-7170,-3093,14,-786,-1157,-4,16,800
1034214,41346044,41108788,41588412,41359036,3800,3800,-2374,-7223,-3032,-260,-1425,1098,8,14,800
1035215,41346000,41108852,41589156,41359780,3800,3800,-2585,-6476,-2849,-596,-1904,3322,8,14,800
1036216,41346016,41108892,41589900,41360524,3800,3800,-2881,-5121,-2567,-774,-2277,4937,-3,18,799
1037217,41346044,41108888,41590644,41361268,3800,3800,-3110,-3652,-2295,-845,-2021,4852,-3,18,799
1038218,41346036,41108888,41591388,41362012,3800,3800,-3223,-2412,-2102,-804,-1822,4410,1,21,799
1039219,41346000,41108884,41592132,41362756,3800,3800,-3290,-1348,-1994,-738,-1644,4483,1,21,799
1040220,41346028,41108896,41592876,41363500,3800,3800,-3366,-356,-1954,-591,-1376,4541,-1,17,798
1041221,41346036,41108908,41593620,41364244,3800,3800,-3447,568,-1965,-303,-1348,4288,-1,17,798
1042222,41346004,41108924,41594364,41364988,3800,3800,-3498,1325,-1957,12,-2033,3901,-1,12,799
1043223,41346020,41108912,41595108,41365732,3800,3800,-3500,1904,-1906,272,-2480,3563,-1,12,799
1044224,41346044,41108884,41595852,41366476,3800,3800,-3466,2229,-1912,721,-1989,3004,0,15,799
1045225,41346012,41108896,41596596,41367220,3800,3800,-3365,2248,-2019,1226,-1480,2295,0,15,799
1046226,41346004,41108896,41597340,41367964,3800,3800,-3206,2002,-2165,1606,-1521,1875,-2,17,799
1047227,41346024,41108928,41598084,41368708,3800,3800,-3035,1630,-2297,1874,-1693,1896,-2,17,799
1048228,41346044,41108940,41598828,41369452,3800,3800,-2874,1279,-2392,2142,-1915,2137,-2,6,799
1049229,41346000,41108944,41599572,41370196,3800,3800,-2721,957,-2404,2371,-2503,2264,-2,6,799
1050237,41346020,41108924,41600332,41370956,3800,3800,-2578,647,-2341,2492,-3009,2391,-3,4,798
1051231,41346048,41108916,41601076,41371700,3800,3800,-2424,252,-2258,2467,-3102,2283,-3,4,798
1052232,41346008,41108916,41601820,41372444,3800,3800,-2262,-157,-2174,2463,-3157,2583,2,17,799
1053233,41346004,41108936,41602564,41373188,3800,3800,-2107,-522,-2075,2553,-3123,2917,2,17,799
1054234,41346024,41108964,41603308,41373932,3800,3800,-1958,-804,-1960,2543,-2949,3148,-3,14,799
1055235,41346036,41108968,41604052,41374676,3800,3800,-1828,-995,-1833,2445,-2800,3546,-3,14,799
1056236,41346004,41108968,41604796,41375420,3800,3800,-1720,-1075,-1688,2374,-2657,3880,-4,12,799
1057237,41346012,41108956,41605540,41376164,3800,3800,-1622,-1077,-1525,2250,-2595,4226,-4,12,799
1058238,41346052,41108960,41606284,41376908,3800,3800,-1512,-1069,-1348,2083,-2451,4244,-2,19,799
1059239,41346000,41108968,41607028,41377652,3800,3800,-1381,-1115,-1162,1822,-2337,4352,-2,19,799
1060240,41346016,41108992,41607772,41378396,3800,3800,-1299,-1041,-951,1529,-2341,4957,3,4,798
1061241,41346036,41108996,41608516,41379140,3800,3800,-1268,-846,-715,1347,-2252,5249,3,4,798
1062242,41346020,41109004,41609260,41379884,3800,3800,-1244,-543,-491,1149,-2051,5526,4,15,798
1063243,41346008,41109000,41610004,41380628,3800,3800,-1195,-234,-284,812,-2110,5609,4,15,798
1064244,41346044,41109000,41610748,41381372,3800,3800,-1151,94,-66,501,-2172,5940,4,19,799
1065245,41346040,41109008,41611492,41382116,3800,3800,-1104,423,163,289,-1769,6046,4,19,799
1066246,41346004,41109044,41612236,41382860,3800,3800,-1032,701,362,181,-1016,5959,3,18,799
1067247,41346012,41109072,41612980,41383604,3800,3800,-968,990,519,302,-585,6191,3,18,799
1068248,41346048,41109088,41613724,41384348,3800,3800,-957,1417,669,722,-31,6732,1,21,799
1069249,41346024,41109080,41614468,41385092,3800,3800,-946,1875,815,829,484,6546,1,21,799
1070250,41346008,41109052,41615212,41385836,3800,3800,-864,2081,859,561,1171,5802,13,18,799
1071251,41346040,41109056,41615956,41386580,3800,3800,-711,2030,807,478,1404,5423,13,18,799
1072261,41346044,41109060,41616716,41387340,3800,3800,-582,1938,771,740,1030,5698,4,17,797
1073253,41346016,41109088,41617460,41388084,3800,3800,-549,2006,733,1048,1413,6355,4,17,797
1074254,41346016,41109104,41618204,41388828,3800,3800,-584,2176,612,1529,2018,7240,5,18,799
1075255,41346056,41109084,41618948,41389572,3800,3800,-557,2299,425,2041,1936,7201,5,18,799
1076257,41346016,41109080,41619692,41390316,3800,3800,-398,2061,145,2464,1551,7131,10,19,798
1077257,41346008,41109072,41620436,41391060,3800,3800,-151,1690,-237,3028,1291,7686,10,19,798
1078258,41346028,41109068,41621180,41391804,3800,3800,80,1325,-623,3356,955,8264,-3,17,798
1079259,41346040,41109084,41621924,41392548,3800,3800,239,1134,-907,3248,-73,8728,-3,17,798
1080260,41345992,41109088,41622668,41393292,3800,3800,359,1025,-1055,2673,-578,8525,0,17,798
1081261,41346020,41109100,41623412,41394036,3800,3800,472,940,-1155,2051,-329,8144,0,17,798
1082262,41346052,41109068,41624156,41394780,3800,3800,589,799,-1317,1669,618,7583,11,16,797
1083263,41346020,41109068,41624900,41395524,3800,3800,740,552,-1541,1349,754,6826,11,16,797
1084264,41346012,41109064,41625644,41396268,3800,3800,935,192,-1748,1088,326,6203,3,16,797
1085265,41346048,41109068,41626388,41397012,3800,3800,1120,-165,-1889,842,88,5765,3,16,797
1086266,41346048,41109084,41627132,41397756,3800,3800,1248,-472,-1959,646,-32,5313,-3,19,798
1087267,41346012,41109100,41627876,41398500,3800,3800,1331,-717,-1972,437,-119,5060,-3,19,798
1088268,41346016,41109080,41628620,41399244,3800,3800,1418,-920,-1965,299,-83,5059,2,17,798
1089269,41346056,41109068,41629364,41399988,3800,3800,1526,-1049,-1976,338,201,5177,2,17,798
1090270,41346020,41109064,41630108,41400732,3800,3800,1654,-1092,-1996,326,448,5357,18,18,798
1091271,41346016,41109052,41630852,41401476,3800,3800,1791,-1100,-2013,282,590,5555,18,18,798
1092272,41346056,41109068,41631596,41402220,3800,3800,1926,-1021,-2029,306,682,5766,17,18,798
1093273,41346024,41109108,41632340,41402964,3800,3800,2066,-802,-2044,443,853,6030,17,18,798
1094281,41346012,41109096,41633100,41403724,3800,3800,2220,-471,-2058,640,1087,6066,12,15,797
1095275,41346040,41109084,41633844,41404468,3800,3800,2379,-158,-2051,799,1158,6070,12,15,797
1096276,41346036,41109072,41634588,41405212,3800,3800,2517,157,-1999,998,1090,6144,-3,7,798
1097277,41346016,41109060,41635332,41405956,3800,3800,2624,467,-1928,1183,1070,6033,-3,7,798
1098278,41346024,41109072,41636076,41406700,3800,3800,2708,755,-1884,1263,1153,5748,-2,19,798
1099279,41346052,41109096,41636820,41407444,3800,3800,2776,964,-1876,1337,1287,5479,-2,19,798
1100280,41346044,41109096,41637564,41408188,3800,3800,2827,1124,-1894,1506,1320,5199,11,19,798
1101281,41346012,41109088,41638308,41408932,3800,3800,2869,1261,-1899,1686,1225,5003,11,19,798
1102282,41346048,41109072,41639052,41409676,3800,3800,2913,1370,-1851,1742,906,4781,0,7,798
1103283,41346052,41109060,41639796,41410420,3800,3800,2965,1382,-1745,1697,524,4492,0,7,798
1104284,41346024,41109064,41640540,41411164,3800,3800,3028,1309,-1623,1584,364,4139,-1,18,796
1105285,41346024,41109080,41641284,41411908,3800,3800,3096,1165,-1515,1523,297,3726,-1,18,796
1106286,41346056,41109096,41642028,41412652,3800,3800,3137,990,-1422,1412,196,3546,18,14,796
1107287,41346028,41109104,41642772,41413396,3800,3800,3132,828,-1328,1337,147,3501,18,14,796
1108288,41346008,41109076,41643516,41414140,3800,3800,3085,684,-1244,1293,309,3428,19,10,798
1109289,41346048,41109072,41644260,41414884,3800,3800,3013,554,-1181,1179,440,3326,19,10,798
1110290,41346044,41109064,41645004,41415628,3800,3800,2925,447,-1120,968,382,3390,-2,19,798
1111291,41346004,41109076,41645748,41416372,3800,3800,2817,401,-1036,724,147,3452,-2,19,798
1112292,41346028,41109096,41646492,41417116,3800,3800,2700,395,-935,504,-15,3346,12,18,798
1113293,41346048,41109100,41647236,41417860,3800,3800,2592,416,-830,258,-44,3178,12,18,798
1114294,41346028,41109104,41647980,41418604,3800,3800,2485,414,-725,59,-95,3119,-2,19,798
1115295,41346016,41109080,41648724,41419348,3800,3800,2367,424,-610,-30,-105,3119,-2,19,798
1116303,41346052,41109064,41649484,41420108,3800,3800,2236,438,-492,-113,34,3080,-1,16,797
1117297,41346040,41109072,41650228,41420852,3800,3800,2102,474,-390,-171,149,2982,-1,16,797
1118298,41346012,41109088,41650972,41421596,3800,3800,1966,512,-304,-245,247,2888,13,9,798
1119299,41346028,41109108,41651716,41422340,3800,3800,1830,574,-218,-233,336,2807,13,9,798
1120300,41346048,41109108,41652460,41423084,3800,3800,1693,628,-128,-210,353,2733,1,13,799
1121301,41346024,41109088,41653204,41423828,3800,3800,1559,661,-43,-209,293,2583,1,13,799
1122302,41346012,41109088,41653948,41424572,3800,3800,1433,631,40,-186,54,2412,0,18,799
1123303,41346052,41109072,41654692,41425316,3800,3800,1310,579,118,-115,-43,2320,0,18,799
1124304,41346056,41109084,41655436,41426060,3800,3800,1184,534,181,-30,-68,2265,8,13,799
1125305,41346008,41109104,41656180,41426804,3800,3800,1057,515,225,90,-65,2196,8,13,799
1126306,41346032,41109120,41656924,41427548,3800,3800,921,498,249,170,-30,2177,13,5,798
1127307,41346056,41109104,41657668,41428292,3800,3800,771,490,260,256,19,2225,13,5,798
1128308,41346028,41109100,41658412,41429036,3800,3800,608,486,252,378,65,2260,14,17,797
1129309,41346020,41109084,41659156,41429780,3800,3800,440,483,223,487,70,2311,14,17,797
1130310,41346036,41109096,41659900,41430524,3800,3800,276,496,175,587,21,2310,8,16,799
1131311,41346036,41109112,41660644,41431268,3800,3800,115,528,112,678,-37,2372,8,16,799
1132312,41346012,41109120,41661388,41432012,3800,3800,-43,584,28,808,-126,2376,11,10,799
1133313,41346028,41109120,41662132,41432756,3800,3800,-195,637,-67,872,-212,2443,11,10,799
1134314,41346052,41109120,41662876,41433500,3800,3800,-343,682,-172,979,-303,2494,2,11,799
1135315,41346012,41109104,41663620,41434244,3800,3800,-481,704,-284,1119,-336,2509,2,11,799
1136316,41346020,41109100,41664364,41434988,3800,3800,-605,740,-408,1263,-289,2515,4,19,799
1137317,41346040,41109140,41665108,41435732,3800,3800,-715,767,-546,1353,-283,2526,4,19,799
1138325,41346044,41109176,41665868,41436492,3800,3800,-808,808,-698,1386,-296,2525,1,16,794
1139319,41346016,41109200,41666612,41437236,3800,3800,-885,836,-853,1457,-368,2559,1,16,794
1140320,41346040,41109224,41667356,41437980,3800,3800,-940,860,-1006,1507,-446,2586,3,7,796
1141321,41346040,41109252,41668100,41438724,3800,3800,-978,851,-1156,1488,-534,2632,3,7,796
1142323,41346004,41109284,41668844,41439468,3800,3800,-1004,841,-1299,1490,-544,2701,7,8,799
1143323,41346024,41109328,41669588,41440212,3800,3800,-1020,842,-1434,1487,-505,2734,7,8,799
1144324,41346052,41109384,41670332,41440956,3800,3800,-1026,885,-1562,1475,-421,2825,2,27,799
1145325,41346024,41109484,41671076,41441700,3800,3800,-1020,940,-1680,1431,-390,2921,2,27,799
1146326,41346028,41109560,41671820,41442444,3800,3800,-1006,1000,-1783,1356,-380,3065,2,14,799
1147327,41346040,41109616,41672564,41443188,3800,3800,-982,1059,-1866,1272,-286,3140,2,14,799
1148328,41346028,41109688,41673308,41443932,3800,3800,-940,1119,-1933,1175,-139,3192,10,16,798
1149329,41346012,41109764,41674052,41444676,3800,3800,-881,1200,-1988,1088,42,3300,10,16,798
1150330,41346024,41109876,41674796,41445420,3800,3800,-801,1317,-2026,957,142,3407,11,25,799
1151331,41346056,41109992,41675540,41446164,3800,3800,-708,1474,-2044,798,151,3512,11,25,799
1152332,41346008,41110100,41676284,41446908,3800,3800,-609,1640,-2045,654,121,3662,9,23,800
1153333,41346036,41110192,41677028,41447652,3800,3800,-509,1812,-2031,515,47,3747,9,23,800
1154335,41346048,41110268,41677772,41448396,3800,3800,-398,1960,-2001,352,78,3766,8,33,800
1155335,41346036,41110380,41678516,41449140,3800,3800,-278,2122,-1956,229,116,3865,8,33,800
1156336,41346016,41110500,41679260,41449884,3800,3800,-162,2281,-1891,116,134,3905,10,26,800
1157337,41346040,41110596,41680004,41450628,3800,3800,-53,2482,-1802,-6,136,3905,10,26,800
1158338,41346044,41110684,41680748,41451372,3800,3800,55,2655,-1698,-101,188,3891,10,15,800
1159339,41346020,41110744,41681492,41452116,3800,3800,160,2795,-1586,-249,204,3911,10,15,800
1160349,41346028,41110768,41682252,41452876,3800,3800,253,2895,-1470,-388,196,3961,17,10,798
1161341,41346056,41110760,41682996,41453620,3800,3800,338,2978,-1347,-502,233,3920,17,10,798
1162342,41346028,41110768,41683740,41454364,3800,3800,391,3071,-1229,-625,271,3996,13,4,799
1163343,41346020,41110792,41684484,41455108,3800,3800,412,3206,-1118,-774,266,4071,13,4,799
1164344,41346040,41110816,41685228,41455852,3800,3800,421,3334,-1016,-965,153,4080,7,19,796
1165345,41346052,41110844,41685972,41456596,3800,3800,393,3486,-919,-1140,53,4225,7,19,796
1166346,41346028,41110816,41686716,41457340,3800,3800,332,3582,-830,-1236,15,4224,12,18,799
1167347,41346032,41110816,41687460,41458084,3800,3800,253,3635,-747,-1276,-67,4169,12,18,799
1168348,41346056,41110784,41688204,41458828,3800,3800,152,3651,-662,-1347,-238,4121,10,14,798
1169349,41346020,41110792,41688948,41459572,3800,3800,26,3638,-576,-1338,-221,4157,10,14,798
1170350,41346016,41110808,41689692,41460316,3800,3800,-122,3612,-506,-1256,-132,4148,7,2,797
1171351,41346044,41110844,41690436,41461060,3800,3800,-289,3512,-449,-1223,-173,3923,7,2,797
1172352,41346048,41110828,41691180,41461804,3800,3800,-465,3315,-412,-1169,-269,3746,17,13,798
1173353,41346016,41110812,41691924,41462548,3800,3800,-643,2997,-406,-1073,-255,3569,17,13,798
1174354,41346020,41110812,41692668,41463292,3800,3800,-816,2614,-429,-966,-364,3438,5,10,799
1175355,41346044,41110796,41693412,41464036,3800,3800,-989,2208,-458,-795,-575,3403,5,10,799
1176356,41346012,41110816,41694156,41464780,3800,3800,-1156,1792,-482,-602,-773,3350,10,19,799
1177357,41346028,41110832,41694900,41465524,3800,3800,-1319,1313,-503,-358,-958,3317,10,19,799
1178358,41346048,41110848,41695644,41466268,3800,3800,-1464,786,-527,-141,-1018,3323,12,19,799
1179359,41346044,41110828,41696388,41467012,3800,3800,-1586,228,-557,114,-1073,3377,12,19,799
1180360,41345996,41110816,41697132,41467756,3800,3800,-1701,-291,-594,388,-1082,3574,11,19,799
1181361,41346024,41110808,41697876,41468500,3800,3800,-1801,-767,-636,635,-971,3805,11,19,799
1182369,41346056,41110812,41698636,41469260,3800,3800,-1876,-1142,-692,932,-762,4111,6,2,798
1183363,41346016,41110836,41699380,41470004,3800,3800,-1920,-1451,-769,1146,-494,4432,6,2,798
1184364,41346032,41110860,41700124,41470748,3800,3800,-1929,-1679,-866,1284,-315,4780,13,19,799
1185365,41346060,41110840,41700868,41471492,3800,3800,-1911,-1843,-974,1361,-299,5116,13,19,799
1186366,41346024,41110828,41701612,41472236,3800,3800,-1890,-1906,-1085,1371,-256,5510,14,18,798
1187367,41346020,41110816,41702356,41472980,3800,3800,-1872,-1870,-1226,1387,-62,6115,14,18,798
1188368,41346052,41110804,41703100,41473724,3800,3800,-1817,-1758,-1401,1732,35,6756,11,17,799
1189369,41346048,41110828,41703844,41474468,3800,3800,-1699,-1547,-1565,2122,-14,7389,11,17,799
1190370,41346020,41110856,41704588,41475212,3800,3800,-1529,-1333,-1716,2447,-133,7945,13,15,799
1191371,41346020,41110852,41705332,41475956,3800,3800,-1319,-1099,-1864,2497,-268,8331,13,15,799
1192372,41346060,41110848,41706076,41476700,3800,3800,-1093,-900,-2001,2163,-584,8240,13,4,798
1193373,41346032,41110836,41706820,41477444,3800,3800,-871,-722,-2110,1734,-820,7943,13,4,798
1194374,41346012,41110808,41707564,41478188,3800,3800,-652,-574,-2198,1460,-679,7576,7,8,797
1195375,41346048,41110820,41708308,41478932,3800,3800,-411,-475,-2262,1274,-482,7026,7,8,797
1196376,41346052,41110852,41709052,41479676,3800,3800,-146,-464,-2297,995,-400,6344,7,17,798
1197377,41346016,41110864,41709796,41480420,3800,3800,143,-531,-2280,712,-495,5707,7,17,798
1198378,41346036,41110848,41710540,41481164,3800,3800,458,-694,-2212,425,-658,5358,9,8,799
1199379,41346060,41110840,41711284,41481908,3800,3800,788,-831,-2114,329,-814,5347,9,8,799
1200380,41346032,41110820,41712028,41482652,3800,3800,1124,-917,-1995,248,-931,5243,4,15,799
1201381,41346024,41110820,41712772,41483396,3800,3800,1460,-953,-1870,19,-1034,5199,4,15,799
1202382,41346056,41110844,41713516,41484140,3800,3800,1775,-1015,-1747,-201,-1111,5198,14,18,798
1203383,41346048,41110868,41714260,41484884,3800,3800,2069,-1031,-1612,-257,-1110,5407,14,18,798
1204391,41346024,41110852,41715020,41485644,3800,3800,2335,-945,-1457,-197,-999,5649,9,7,797
1205385,41346048,41110836,41715764,41486388,3800,3800,2577,-792,-1292,-205,-862,5649,9,7,797
1206386,41346056,41110824,41716508,41487132,3800,3800,2807,-615,-1123,-240,-654,5680,9,8,798
1207387,41346024,41110812,41717252,41487876,3800,3800,3025,-373,-959,-206,-473,5747,9,8,798
1208388,41346032,41110836,41717996,41488620,3800,3800,3228,-78,-804,-150,-409,5736,9,15,798
1209390,41346068,41110856,41718740,41489364,3800,3800,3412,216,-651,-149,-355,5634,9,15,798
1210390,41346048,41110864,41719484,41490108,3800,3800,3566,451,-513,-96,-206,5502,6,5,799
1211391,41346036,41110852,41720228,41490852,3800,3800,3693,665,-411,73,37,5407,6,5,799
1212392,41346056,41110828,41720972,41491596,3800,3800,3790,880,-338,287,263,5196,2,18,799
1213393,41346072,41110824,41721716,41492340,3800,3800,3858,1066,-281,439,354,4964,2,18,799
1214394,41346020,41110828,41722460,41493084,3800,3800,3895,1215,-240,621,456,4732,13,7,797
1215395,41346036,41110860,41723204,41493828,3800,3800,3892,1324,-212,801,498,4515,13,7,797
1216396,41346068,41110860,41723948,41494572,3800,3800,3869,1389,-196,939,465,4252,13,9,798
1217397,41346048,41110868,41724692,41495316,3800,3800,3839,1367,-197,1004,327,4028,13,9,798
1218398,41346020,41110836,41725436,41496060,3800,3800,3780,1317,-217,1069,267,3838,2,19,799
1219399,41346044,41110828,41726180,41496804,3800,3800,3679,1264,-265,1191,305,3664,2,19,799
1220400,41346072,41110824,41726924,41497548,3800,3800,3537,1223,-335,1252,336,3472,15,18,798
1221401,41346024,41110844,41727668,41498292,3800,3800,3373,1142,-420,1285,297,3292,15,18,798
1222402,41346032,41110868,41728412,41499036,3800,3800,3190,1038,-513,1355,296,3216,4,9,798
1223403,41346056,41110868,41729156,41499780,3800,3800,2988,904,-607,1419,326,3060,4,9,798
1224404,41346040,41110864,41729900,41500524,3800,3800,2770,760,-700,1408,395,2833,2,19,798
1225405,41346020,41110840,41730644,41501268,3800,3800,2543,592,-792,1344,375,2732,2,19,798
1226413,41346052,41110828,41731404,41502028,3800,3800,2309,448,-878,1282,414,2656,15,12,797
1227407,41346052,41110832,41732148,41502772,3800,3800,2072,328,-962,1237,482,2625,15,12,797
1228408,41346020,41110860,41732892,41503516,3800,3800,1837,223,-1056,1166,613,2593,13,16,799
1229409,41346044,41110880,41733636,41504260,3800,3800,1610,105,-1149,1093,683,2547,13,16,799
1230410,41346056,41110868,41734380,41505004,3800,3800,1400,18,-1221,1049,600,2587,9,12,798
1231411,41346040,41110840,41735124,41505748,3800,3800,1216,-3,-1267,954,498,2694,9,12,798
1232412,41346028,41110832,41735868,41506492,3800,3800,1057,47,-1291,826,347,2804,12,14,798
1233413,41346048,41110828,41736612,41507236,3800,3800,920,137,-1300,683,177,2812,12,14,798
1234414,41346048,41110828,41737356,41507980,3800,3800,795,237,-1300,583,81,2848,4,16,798
1235415,41346024,41110868,41738100,41508724,3800,3800,670,345,-1289,525,-19,2906,4,16,798
1236416,41346032,41110884,41738844,41509468,3800,3800,548,434,-1269,455,-72,2886,5,2,798
1237417,41346060,41110856,41739588,41510212,3800,3800,439,529,-1254,415,-10,2858,5,2,798
1238418,41346012,41110840,41740332,41510956,3800,3800,350,624,-1244,391,97,2820,6,5,797
1239419,41346028,41110824,41741076,41511700,3800,3800,277,743,-1234,375,149,2776,6,5,797
1240420,41346060,41110840,41741820,41512444,3800,3800,218,850,-1219,358,156,2801,2,13,798
1241421,41346048,41110872,41742564,41513188,3800,3800,175,951,-1196,361,168,2785,2,13,798
1242422,41346012,41110892,41743308,41513932,3800,3800,146,1032,-1172,378,142,2801,2,17,798
1243423,41346036,41110876,41744052,41514676,3800,3800,123,1127,-1149,377,79,2794,2,17,798
1244424,41346060,41110856,41744796,41515420,3800,3800,107,1212,-1135,361,2,2733,2,14,798
1245425,41346020,41110840,41745540,41516164,3800,3800,88,1314,-1131,349,-80,2765,2,14,798
1246426,41346020,41110836,41746284,41516908,3800,3800,69,1418,-1142,376,-192,2828,7,18,798
1247427,41346060,41110860,41747028,41517652,3800,3800,44,1533,-1156,439,-311,2889,7,18,798
1248437,41346016,41110872,41747788,41518412,3800,3800,13,1623,-1166,477,-412,2920,1,7,797
1249429,41346012,41110880,41748532,41519156,3800,3800,-17,1693,-1172,544,-452,2925,1,7,797
1250430,41346048,41110856,41749276,41519900,3800,3800,-43,1751,-1183,598,-414,2885,7,18,799
1251431,41346056,41110852,41750020,41520644,3800,3800,-69,1800,-1200,641,-334,2818,7,18,799
1252432,41346000,41110820,41750764,41521388,3800,3800,-100,1820,-1221,682,-236,2715,-3,12,799
1253433,41346036,41110844,41751508,41522132,3800,3800,-134,1809,-1244,728,-166,2760,-3,12,799
1254434,41346064,41110876,41752252,41522876,3800,3800,-171,1782,-1267,761,-156,2797,-4,18,798
1255435,41346024,41110888,41752996,41523620,3800,3800,-208,1734,-1289,779,-81,2836,-4,18,798
1256436,41346020,41110864,41753740,41524364,3800,3800,-246,1684,-1318,760,-27,2840,-3,19,799
1257437,41346040,41110844,41754484,41525108,3800,3800,-287,1643,-1348,721,-81,2885,-3,19,799
1258438,41346040,41110844,41755228,41525852,3800,3800,-335,1635,-1367,672,-120,2942,0,4,797
1259439,41346012,41110844,41755972,41526596,3800,3800,-391,1621,-1373,656,-179,2998,0,4,797
1260440,41346032,41110868,41756716,41527340,3800,3800,-451,1595,-1375,597,-257,3021,-2,13,797
1261441,41346052,41110900,41757460,41528084,3800,3800,-511,1524,-1373,548,-349,3056,-2,13,797
1262442,41346032,41110892,41758204,41528828,3800,3800,-573,1454,-1369,522,-347,3063,0,16,798
1263443,41346024,41110860,41758948,41529572,3800,3800,-631,1375,-1363,461,-350,3056,0,16,798
1264444,41346048,41110856,41759692,41530316,3800,3800,-682,1313,-1354,432,-385,3100,-3,5,798
1265446,41346040,41110852,41760436,41531060,3800,3800,-724,1232,-1346,400,-307,3148,-3,5,798
1266446,41346008,41110868,41761180,41531804,3800,3800,-758,1136,-1341,374,-210,3118,0,18,799
1267447,41346028,41110892,41761924,41532548,3800,3800,-782,999,-1340,337,-187,3135,0,18,799
1268448,41346072,41110900,41762668,41533292,3800,3800,-801,864,-1335,310,-189,3159,8,18,799
1269449,41346020,41110868,41763412,41534036,3800,3800,-820,742,-1327,278,-171,3261,8,18,799
1270457,41346028,41110868,41764172,41534796,3800,3800,-834,651,-1319,241,-131,3345,7,4,797
1271451,41346048,41110852,41764916,41535540,3800,3800,-849,569,-1310,218,-134,3467,7,4,797
