"Data file recorded 2014/9/24  14:55:33"
"%  Right Stride Frequency         = 7.0"
"%  Left Stride Frequency         = 7.0"
"%  Phase (Fractional)         = 32768.0"
"%  Experiment.py "
"%  Motor Gains    = [1800, 200, 100, 0, 0, 1800, 200, 100, 0, 0]
"% Columns: "
"% time | Right Leg Pos | Left Leg Pos | Commanded Right Leg Pos | Commanded Left Leg Pos | DCR | DCL | GyroX | GryoY | GryoZ | AX | AY | AZ | RBEMF | LBEMF | VBatt "
10777,6112948,6551460,6119688,6545672,3548,-2107,-323,-2883,773,316,-436,4043,9,-6,870
11773,6112976,6551460,6120156,6546140,3468,-1853,-327,-2883,774,317,-427,4053,9,-6,870
12774,6113044,6551456,6120624,6546608,3395,-1622,-328,-2890,777,307,-441,4030,-11,-13,870
13775,6113144,6551452,6121092,6547076,3358,-1416,-326,-2895,778,328,-352,4056,-11,-13,870
14776,6113288,6551420,6121560,6547544,3227,-1021,-323,-2873,769,339,-274,4098,28,-23,849
15777,6113508,6551352,6122028,6548012,2863,-561,-321,-2774,761,413,-268,4200,28,-23,849
16778,6113740,6551300,6122496,6548480,2892,-434,-319,-2718,741,483,-19,4197,42,-19,852
17779,6113992,6551264,6122964,6548948,2864,-312,-301,-2710,701,666,164,4202,42,-19,852
18780,6114260,6551244,6123432,6549416,2854,-199,-262,-2637,686,924,93,4087,60,-5,858
19781,6114548,6551240,6123900,6549884,2809,-91,-218,-2622,702,1044,38,4050,60,-5,858
20782,6114860,6551236,6124368,6550352,2730,116,-191,-2578,724,936,-29,4160,53,8,859
21783,6115196,6551240,6124836,6550820,2640,269,-171,-2497,751,783,-192,4219,53,8,859
22783,6115532,6551240,6125304,6551288,2700,500,-134,-2431,750,685,-26,4332,80,11,859
23785,6115872,6551228,6125772,6551756,2733,786,-63,-2306,736,588,58,4430,80,11,859
24786,6116244,6551220,6126240,6552224,2577,971,30,-2192,679,491,395,4380,75,-1,860
25787,6116580,6551232,6126708,6552692,2862,1046,121,-2123,538,485,950,4289,75,-1,860
26788,6116908,6551212,6127176,6553160,2975,1461,186,-2083,336,665,1360,4143,72,20,858
27789,6117276,6551224,6127644,6553628,2771,1461,211,-2028,106,839,1665,4319,72,20,858
28790,6117628,6551260,6128112,6554096,2924,1502,185,-1836,-94,1071,1374,4715,82,10,857
29791,6117988,6551288,6128580,6554564,2923,1745,122,-1629,-257,1160,747,4705,82,10,857
30791,6118352,6551300,6129048,6555032,2946,2047,19,-1372,-394,1261,478,4962,77,18,856
31793,6118740,6551308,6129516,6555500,2833,2275,-141,-1026,-518,1256,381,5162,77,18,856
32794,6119100,6551296,6129984,6555968,3058,2611,-319,-805,-661,1183,699,4855,83,8,854
33795,6119460,6551344,6130452,6556436,3108,2421,-471,-589,-809,1160,865,4848,83,8,854
34796,6119888,6551348,6130920,6556904,2703,2901,-571,-502,-944,1015,726,4649,68,12,852
35797,6120268,6551388,6131388,6557372,3043,2865,-637,-445,-1074,899,328,4713,68,12,852
36798,6120616,6551400,6131856,6557840,3298,3243,-684,-385,-1198,702,7,4587,72,17,848
37799,6121052,6551472,6132324,6558308,2764,3043,-725,-406,-1326,572,-135,4306,72,17,848
38799,6121448,6551536,6132792,6558776,3048,3271,-750,-536,-1460,576,-192,4100,79,22,847
39800,6121864,6551612,6133260,6559244,2948,3369,-766,-747,-1565,502,9,3976,79,22,847
40802,6122324,6551716,6133728,6559712,2679,3356,-801,-959,-1627,434,-153,4090,82,26,847
41802,6122752,6551828,6134196,6560180,2899,3464,-846,-1145,-1673,322,-266,4100,82,26,847
42803,6123176,6551948,6134664,6560648,2945,3569,-875,-1319,-1714,204,-338,4376,81,37,846
43804,6123700,6552088,6135132,6561116,2297,3590,-899,-1363,-1771,-6,-348,4674,81,37,846
44838,6124164,6552244,6135604,6561588,3800,3800,-908,-1457,-1866,-310,-240,4589,88,25,846
45832,6124688,6552400,6136072,6562056,3800,3800,-744,-1341,-1945,-465,-431,6421,88,25,846
46833,6125224,6552580,6136540,6562524,3800,3800,39,27,-1859,-831,-1427,17488,107,40,846
47834,6125780,6552748,6137008,6562992,3800,3800,881,1090,-1792,-625,-679,9342,107,40,846
48835,6126320,6552964,6137476,6563460,3800,3800,1117,913,-1800,-450,-347,3721,125,41,840
49836,6126924,6553160,6137944,6563928,3800,3800,1078,87,-1800,-536,-820,3374,125,41,840
50824,6127620,6553412,6138412,6564396,3394,3800,933,-660,-1749,-625,-1398,3710,127,48,841
51825,6128296,6553636,6138880,6564864,3430,3800,875,-965,-1645,-961,-1589,4218,127,48,841
52826,6129004,6553844,6139348,6565332,3126,3800,799,-1292,-1592,-1183,-1118,3867,141,47,842
53827,6129740,6554076,6139816,6565800,2835,3800,737,-1669,-1665,-1248,-998,3737,141,47,842
54828,6130472,6554308,6140284,6566268,2746,3800,709,-2215,-1771,-1565,-1408,3439,153,62,843
55829,6131208,6554528,6140752,6566736,2606,3800,692,-2785,-1864,-1616,-2175,3621,153,62,843
56830,6132032,6554788,6141220,6567204,1901,3800,679,-3275,-1923,-1635,-3160,3590,133,58,846
57831,6132812,6555040,6141688,6567672,2041,3800,604,-3729,-1948,-1867,-3862,3801,133,58,846
58832,6133588,6555288,6142156,6568140,1932,3800,566,-4206,-1982,-1808,-4468,3430,135,69,846
59833,6134412,6555540,6142624,6568608,1477,3800,557,-4830,-2049,-1851,-4532,3058,135,69,846
60834,6135196,6555816,6143092,6569076,1589,3800,654,-5441,-2067,-1798,-4572,3222,152,58,849
61835,6135996,6556132,6143560,6569544,1346,3800,791,-6056,-2024,-1623,-4533,3123,152,58,849
62836,6136812,6556396,6144028,6570012,1094,3800,979,-6577,-1947,-1742,-4050,3346,166,60,850
63837,6137496,6556692,6144496,6570480,1826,3800,1200,-7048,-1855,-1893,-2981,3327,166,60,850
64838,6138236,6557000,6144964,6570948,1357,3800,1385,-7605,-1756,-1694,-2847,3316,134,67,851
65839,6138888,6557300,6145432,6571416,1827,3800,1611,-7870,-1575,-2085,-3323,3940,134,67,851
66840,6139612,6557620,6145900,6571884,1267,3800,1767,-8051,-1260,-2960,-3382,4476,126,63,850
67841,6140236,6557912,6146368,6572352,1824,3800,1922,-8161,-879,-3552,-3033,4576,126,63,850
68842,6140872,6558244,6146836,6572820,1676,3800,2028,-8148,-448,-4180,-2224,5123,121,77,848
69843,6141496,6558564,6147304,6573288,1684,3800,2145,-8002,71,-4474,-2059,5289,121,77,848
70844,6142064,6558884,6147772,6573756,1991,3800,2284,-7916,648,-4433,-1945,5156,109,82,849
71845,6142552,6559228,6148240,6574224,2483,3800,2459,-7879,1294,-4653,-1566,5193,109,82,849
72846,6143096,6559568,6148708,6574692,2101,3800,2628,-7843,1963,-4348,-1170,4962,102,69,850
73847,6143544,6559924,6149176,6575160,2711,3800,2769,-8022,2609,-3723,-797,4141,102,69,850
74848,6143976,6560260,6149644,6575628,2828,3800,2967,-8547,3243,-3126,-327,3432,88,70,847
75849,6144492,6560568,6150112,6576096,2283,3800,3129,-9071,3887,-2452,-88,3573,88,70,847
76850,6144876,6560904,6150580,6576564,3146,3800,3325,-9755,4499,-1895,225,2551,109,62,846
77851,6145248,6561224,6151048,6577032,3264,3800,3521,-10612,5055,-1140,287,2489,109,62,846
78852,6145676,6561572,6151516,6577500,2933,3800,3777,-11386,5542,-390,347,2231,91,62,847
79860,6146012,6561864,6151988,6577972,3569,3800,4009,-12318,5951,645,293,1703,91,62,847
80867,6146312,6562152,6152456,6578440,3800,3800,4269,-13116,6299,1628,567,1983,75,73,841
81868,6146624,6562448,6152924,6578908,3800,3800,4505,-13807,6654,1956,720,2275,75,73,841
82869,6146932,6562728,6153392,6579376,3800,3800,4716,-14394,6968,2350,467,2339,77,49,841
83870,6147212,6562984,6153860,6579844,3800,3800,4869,-14848,7223,2913,446,2807,77,49,841
84871,6147516,6563252,6154328,6580312,3800,3800,4913,-15061,7400,3517,837,3162,57,50,839
85872,6147816,6563472,6154796,6580780,3800,3800,4863,-15033,7493,3919,417,3944,57,50,839
86873,6148068,6563684,6155264,6581248,3800,3800,4744,-14670,7565,3648,-220,4935,66,38,838
87874,6148332,6563892,6155732,6581716,3800,3800,4509,-14111,7549,3059,-245,5541,66,38,838
88875,6148636,6564068,6156200,6582184,3800,3800,4182,-13267,7349,3280,282,5980,55,47,838
89876,6148912,6564244,6156668,6582652,3800,3800,3627,-11966,6921,3745,1817,7861,55,47,838
90877,6149172,6564412,6157136,6583120,3800,3800,2850,-9968,6624,4475,1616,9619,66,43,837
91878,6149436,6564560,6157604,6583588,3800,3800,2070,-7942,6383,4694,3002,9273,66,43,837
92879,6149728,6564692,6158072,6584056,3800,3800,1450,-6028,6025,4682,4251,8974,65,27,837
93880,6149996,6564828,6158540,6584524,3800,3800,918,-4351,5544,5066,5012,8145,65,27,837
94881,6150312,6564968,6159008,6584992,3800,3800,350,-2996,4957,5400,5850,7162,50,26,838
95882,6150580,6565112,6159476,6585460,3800,3800,-179,-2025,4369,5020,5964,5818,50,26,838
96883,6150908,6565236,6159944,6585928,3800,3800,-520,-1684,3888,4465,5024,4041,67,35,835
97884,6151200,6565368,6160412,6586396,3800,3800,-712,-1610,3510,4192,3716,3119,67,35,835
98885,6151556,6565504,6160880,6586864,3800,3800,-716,-1920,3097,3901,3798,1454,68,35,837
99886,6151864,6565632,6161348,6587332,3800,3800,-544,-2640,2691,3738,3044,-14,68,35,837
100887,6152204,6565780,6161816,6587800,3800,3800,-147,-3779,2274,2648,2346,-1049,74,35,838
101888,6152644,6565948,6162284,6588268,3800,3800,334,-4800,1948,1982,1590,-262,74,35,838
102889,6153024,6566112,6162752,6588736,3800,3800,629,-4943,1790,2345,711,2179,69,37,836
103890,6153436,6566316,6163220,6589204,3800,3800,698,-4264,1721,1963,332,3597,69,37,836
104891,6153876,6566532,6163688,6589672,3800,3800,697,-3390,1470,923,870,3903,69,36,839
105892,6154360,6566760,6164156,6590140,3800,3800,646,-2420,923,-205,708,4620,69,36,839
106893,6154836,6567036,6164624,6590608,3800,3800,522,-1323,429,-446,-787,5392,106,42,839
107894,6155320,6567284,6165092,6591076,3800,3800,248,73,146,-317,-1521,6431,106,42,839
108895,6155824,6567576,6165560,6591544,3800,3800,-180,1789,-34,-782,-1885,7395,109,68,840
109896,6156344,6567888,6166028,6592012,3800,3800,-581,3364,-203,-1139,-1227,6033,109,68,840
110884,6156960,6568208,6166496,6592480,3433,3800,-849,4011,-445,-383,-199,3445,111,73,841
111885,6157564,6568540,6166964,6592948,3449,3800,-992,4091,-656,641,436,2375,111,73,841
112886,6158160,6568872,6167432,6593416,3445,3800,-1160,3843,-750,1142,1095,1474,124,63,841
113887,6158740,6569240,6167900,6593884,3498,3800,-1282,3208,-792,1700,1218,159,124,63,841
114895,6159440,6569664,6168372,6594356,2650,3800,-1471,2445,-803,1888,1033,233,133,94,843
115889,6160092,6570032,6168840,6594824,2870,3800,-1611,1725,-766,1961,1024,-163,133,94,843
116890,6160796,6570488,6169308,6595292,2443,3800,-1845,917,-737,2360,855,-29,135,89,844
117891,6161524,6570952,6169776,6595760,2181,3800,-2026,194,-687,2098,867,120,135,89,844
118892,6162200,6571452,6170244,6596228,2415,3800,-2165,-562,-649,2221,1056,-46,152,97,847
119893,6162920,6571996,6170712,6596696,2032,3800,-2279,-1112,-602,3069,783,585,152,97,847
120894,6163764,6572524,6171180,6597164,1092,3800,-2576,-1212,-349,3612,542,2153,158,113,850
121895,6164556,6573052,6171648,6597632,1277,3800,-2784,-1465,-174,3342,584,704,158,113,850
122896,6165312,6573652,6172116,6598100,1377,3800,-2850,-1708,-263,2839,483,1096,163,111,849
123897,6166248,6574280,6172584,6598568,47,3800,-2886,-1939,-403,2330,-19,1597,163,111,849
124898,6167012,6574984,6173052,6599036,994,3800,-2965,-1686,-475,2038,-1120,2939,129,134,852
125899,6167672,6575648,6173520,6599504,1560,3800,-3123,-1127,-454,1515,-1924,3832,129,134,852
126900,6168620,6576492,6173988,6599972,-450,3800,-3301,-229,-428,1077,-2192,4697,142,158,856
127901,6169212,6577252,6174456,6600440,1722,3800,-3404,585,-524,662,-1950,3988,142,158,856
128902,6170052,6578124,6174924,6600908,10,3800,-3440,1172,-727,264,-1558,3803,160,160,854
129903,6170736,6579016,6175392,6601376,891,3800,-3408,1795,-925,238,-1572,3844,160,160,854
130904,6171448,6579872,6175860,6601844,609,3800,-3302,2265,-1056,464,-1604,3128,152,163,854
131905,6172160,6580860,6176328,6602312,502,3800,-3078,2700,-1114,764,-1467,2873,152,163,854
132906,6172752,6581800,6176796,6602780,1199,3800,-2774,2912,-1089,806,-1235,2329,150,171,857
133907,6173496,6582716,6177264,6603248,128,3800,-2440,3045,-1028,771,-1005,2041,150,171,857
134908,6174036,6583796,6177732,6603716,1373,3800,-2089,3091,-970,460,-961,1547,124,178,857
135909,6174660,6584760,6178200,6604184,779,3800,-1683,2995,-897,296,-1751,1081,124,178,857
136910,6175360,6585792,6178668,6604652,203,3800,-1247,2774,-786,154,-2430,799,134,185,858
137911,6175912,6586872,6179136,6605120,1092,3800,-848,2587,-656,-99,-2620,978,134,185,858
138912,6176372,6587900,6179604,6605588,1671,3800,-508,2453,-585,-132,-2555,958,137,185,858
139913,6176896,6588896,6180072,6606056,1247,3800,-183,2243,-584,-312,-2426,515,137,185,858
140914,6177396,6589940,6180540,6606524,1384,3800,126,1963,-608,-587,-2031,355,115,190,857
141915,6177864,6590956,6181008,6606992,1584,3800,409,1582,-661,-766,-884,19,115,190,857
142903,6178400,6591976,6181476,6607460,1130,3709,628,1361,-696,-879,-734,578,125,191,857
143904,6178836,6593024,6181944,6607928,1769,3282,762,1294,-686,-1032,-1007,720,125,191,857
144905,6179324,6594008,6182412,6608396,1437,3457,841,1244,-666,-1016,-1135,750,111,199,856
145906,6179752,6595052,6182880,6608864,1830,2832,886,1288,-602,-847,-1322,1063,111,199,856
146908,6180172,6596112,6183348,6609332,1901,2475,930,1441,-518,-543,-1371,1263,95,209,856
147909,6180576,6597156,6183816,6609800,2030,2324,944,1632,-447,-163,-1439,1357,95,209,856
148910,6180968,6598112,6184284,6610268,2139,2662,993,1771,-407,-57,-1316,1056,103,203,858
149920,6181384,6599032,6184756,6610740,2014,2693,958,1835,-436,112,-689,1151,103,203,858
150912,6181780,6599988,6185224,6611208,2172,2255,830,1882,-597,94,-33,1016,105,191,859
151912,6182132,6601016,6185692,6611676,2498,1561,516,1958,-926,-393,666,1038,105,191,859
152914,6182484,6601888,6186160,6612144,2550,2361,20,1917,-1619,-1174,1555,391,88,186,857
153915,6182804,6602728,6186628,6612612,2816,2399,-525,1391,-2625,-1191,2351,-868,88,186,857
154916,6183116,6603528,6187096,6613080,2935,2505,-1037,521,-3610,-450,2754,-1350,74,185,858
155917,6183456,6604436,6187564,6613548,2817,1639,-1501,-485,-4223,623,1993,-1701,74,185,858
156918,6183752,6605240,6188032,6614016,3168,2143,-1951,-1505,-4311,1652,1234,-1475,86,180,854
157919,6184048,6606136,6188500,6614484,3245,1382,-2352,-2410,-4070,2012,1000,-1201,86,180,854
158920,6184324,6607040,6188968,6614952,3455,1141,-2720,-3471,-3795,2219,1087,-1685,71,158,854
159921,6184600,6607888,6189436,6615420,3541,1326,-3027,-4630,-3626,2688,1106,-1866,71,158,854
160922,6184888,6608700,6189904,6615888,3545,1401,-3221,-5853,-3442,2855,1205,-1838,76,169,853
161922,6185220,6609504,6190372,6616356,3331,1305,-3338,-6712,-3089,3159,843,-56,76,169,853
162924,6185540,6610456,6190840,6616824,3472,169,-3561,-6924,-2619,3282,739,1846,82,168,853
163925,6185860,6611272,6191308,6617292,3538,867,-3793,-6947,-2032,3424,458,2059,82,168,853
164926,6186176,6612080,6191776,6617760,3630,769,-3902,-6975,-1428,3866,814,1867,72,181,854
165927,6186588,6612788,6192244,6618228,3056,1289,-4010,-7220,-995,3664,1876,1838,72,181,854
166928,6186960,6613672,6192712,6618696,3350,7,-4221,-7060,-653,3166,1848,3997,69,168,854
167929,6187340,6614488,6193180,6619164,3340,280,-4496,-6368,-308,2669,1386,5011,69,168,854
168930,6187796,6615384,6193648,6619632,2871,-407,-4780,-5349,-10,2101,1474,5952,98,171,856
169931,6188236,6616100,6194116,6620100,2984,610,-5178,-3677,226,1720,1213,8960,98,171,856
170932,6188660,6616780,6194584,6620568,3105,743,-5716,-1378,465,1552,-3,10887,96,146,857
171933,6189160,6617416,6195052,6621036,2617,944,-6215,932,678,1469,-328,10495,96,146,857
172933,6189624,6617996,6195520,6621504,2845,1246,-6525,2713,765,1287,-368,8857,105,137,858
173934,6190092,6618500,6195988,6621972,2821,1706,-6610,3807,724,1034,-981,7462,105,137,858
174935,6190648,6618936,6196456,6622440,2234,2145,-6546,4499,526,605,-1075,6894,104,106,859
175936,6191108,6619328,6196924,6622908,2838,2455,-5638,5731,287,493,-2919,13229,104,106,859
176938,6191588,6619660,6197392,6623376,2709,2891,-1942,12700,413,1623,-9247,32767,113,91,856
177938,6192112,6619968,6197860,6623844,2410,3111,1608,17605,351,1446,-4354,18888,113,91,856
178939,6192640,6620240,6198328,6624312,2360,3423,2594,16790,-274,629,-512,-669,111,62,852
179941,6193112,6620512,6198796,6624780,2709,3510,2337,13314,-1205,199,-1186,-2658,111,62,852
180954,6193672,6620736,6199264,6625248,2120,3800,1931,10061,-2082,-132,-2714,-1699,113,61,848
181955,6194164,6620976,6199732,6625716,2535,3800,1633,8036,-2842,-861,-2496,-704,113,61,848
182956,6194680,6621224,6200200,6626184,2365,3800,1438,5957,-3649,-1021,-2476,-2013,99,61,847
183957,6195164,6621480,6200668,6626652,2559,3800,1402,3508,-4497,-1238,-2621,-2936,99,61,847
184965,6195708,6621748,6201140,6627124,2154,3800,1468,604,-5156,-1761,-2935,-3431,94,47,845
185959,6196216,6621992,6201608,6627592,2362,3800,2122,-2623,-5530,-3035,-3753,25,94,47,845
186960,6196704,6622248,6202076,6628060,2479,3800,5347,-6558,-5131,-8075,-7801,27331,109,48,845
187961,6197304,6622516,6202544,6628528,1722,3800,7716,-8689,-4497,-4165,-5911,11635,109,48,845
188962,6197848,6622796,6203012,6628996,2040,3800,7405,-9269,-4048,-2332,-5222,4485,102,59,846
189963,6198364,6623100,6203480,6629464,2195,3800,6068,-9132,-3845,-2654,-4033,5410,102,59,846
190964,6198964,6623412,6203948,6629932,1613,3800,4866,-9129,-3724,-2644,-1803,5259,97,71,848
191965,6199512,6623724,6204416,6630400,1904,3800,3273,-8268,-3431,-1203,-256,10189,97,71,848
192966,6200036,6624060,6204884,6630868,2030,3800,1096,-6409,-3010,-815,1305,11563,116,62,847
193967,6200592,6624420,6205352,6631336,1792,3800,-478,-6020,-2737,-2037,1560,4918,116,62,847
194968,6201124,6624808,6205820,6631804,1915,3800,-841,-7616,-2745,-2619,861,144,97,74,849
195969,6201620,6625220,6206288,6632272,2129,3800,-696,-10192,-2766,-2450,1049,-783,97,74,849
196958,6202172,6625664,6206756,6632740,1743,3688,-657,-12479,-2575,-1823,1483,69,97,74,850
197971,6202620,6626052,6207224,6633208,2403,3800,-861,-13989,-2119,-768,1427,1369,97,74,850
198960,6203068,6626492,6207692,6633676,2413,3764,-1129,-15082,-1401,-31,1269,2102,88,91,847
199973,6203568,6626908,6208160,6634144,2073,3800,-1468,-15734,-546,408,821,3603,88,91,847
200974,6204068,6627336,6208628,6634612,2060,3800,-1781,-16326,277,579,997,3828,102,89,847
201963,6204532,6627816,6209096,6635080,2288,3553,-2073,-16749,979,584,1229,4817,102,89,847
202963,6204988,6628268,6209564,6635548,2344,3736,-2337,-16971,1504,187,1276,5117,100,79,847
203977,6205512,6628700,6210032,6636016,1896,3800,-2507,-17119,1972,-226,574,5622,100,79,847
204966,6205992,6629172,6210500,6636484,2167,3628,-1902,-15817,2446,601,33,17322,101,103,850
205967,6206404,6629620,6210968,6636952,2617,3788,-26,-11876,2760,2121,275,32767,101,103,850
206980,6206872,6630024,6211436,6637420,2268,3800,1258,-9386,3126,-963,445,12105,93,87,849
207981,6207324,6630468,6211904,6637888,2375,3800,1389,-8858,3610,-1568,1161,7432,93,87,849
208982,6207720,6630900,6212372,6638356,2758,3800,1122,-9260,4098,-1085,1363,6529,80,82,846
209983,6208168,6631276,6212840,6638824,2443,3800,981,-9477,4529,-667,1202,6354,80,82,846
210984,6208580,6631632,6213308,6639292,2693,3800,1089,-9476,4926,-876,1221,5635,84,87,847
211985,6208972,6632040,6213776,6639760,2853,3800,1281,-9592,5298,-787,545,5179,84,87,847
212987,6209356,6632476,6214244,6640228,2941,3800,1505,-9833,5642,-1002,-56,4902,97,73,846
213987,6209744,6632848,6214712,6640696,2952,3800,1717,-10247,5969,-1367,-203,4418,97,73,846
214988,6210168,6633244,6215180,6641164,2747,3800,1937,-10662,6273,-1104,-818,4265,82,79,845
215989,6210560,6633632,6215648,6641632,2981,3800,2196,-11095,6528,-1238,-1058,4055,82,79,845
216990,6210932,6634004,6216116,6642100,3150,3800,2433,-11389,6748,-1191,-984,4584,85,65,844
217991,6211316,6634328,6216584,6642568,3113,3800,2640,-11654,6866,-657,-848,4100,85,65,844
218992,6211660,6634736,6217052,6643036,3418,3800,2894,-11924,6958,-91,-950,4206,69,83,844
220000,6212028,6635140,6217524,6643508,3315,3800,3094,-11868,7036,-15,-949,5011,69,83,844
220994,6212396,6635488,6217992,6643976,3360,3800,3174,-11810,7036,160,-1142,4912,74,78,844
221995,6212768,6635916,6218460,6644444,3378,3800,3173,-11476,6952,422,-1083,6013,74,78,844
222996,6213168,6636364,6218928,6644912,3234,3800,3060,-10800,6764,649,-669,6813,80,69,841
223997,6213504,6636768,6219396,6645380,3693,3800,2910,-10187,6575,1244,-1220,6037,80,69,841
224986,6213852,6637308,6219864,6645848,3671,3772,2844,-9841,6493,1797,-1604,5034,74,81,841
225999,6214224,6637796,6220332,6646316,3565,3800,2817,-9569,6554,2462,-1935,5279,74,81,841
227013,6214560,6638252,6220800,6646784,3800,3800,2794,-9074,6562,2957,-1581,5365,89,93,841
228014,6214900,6638716,6221268,6647252,3800,3800,2830,-8706,6386,2823,-1741,4552,89,93,841
228990,6215284,6639264,6221736,6647720,3645,3693,2943,-8455,6242,3206,-2906,4549,69,95,842
230003,6215640,6639792,6222204,6648188,3800,3792,3096,-8110,6010,3650,-1958,4620,69,95,842
231004,6216008,6640400,6222672,6648656,3800,3233,3259,-7615,5637,3814,-1237,4655,89,111,841
231992,6216432,6640996,6223140,6649124,3511,3253,3452,-7088,5193,4133,-1103,4325,89,111,841
233006,6216788,6641620,6223608,6649592,3800,3011,3653,-6670,4725,4391,-494,4185,88,112,841
233995,6217188,6642268,6224076,6650060,3742,2784,3765,-5873,4278,4368,-403,5726,88,112,841
234996,6217620,6642952,6224544,6650528,3559,2465,3823,-4672,3961,4377,-813,6088,75,128,845
236009,6218000,6643688,6225012,6650996,3800,2024,3956,-3647,3663,4613,-441,5058,75,128,845
236998,6218464,6644372,6225480,6651464,3403,2255,4133,-2760,3298,4630,103,4692,80,141,847
237999,6218916,6645076,6225948,6651932,3486,2027,4314,-1731,2932,4346,104,4984,80,141,847
238999,6219368,6645792,6226416,6652400,3495,1845,4506,-749,2644,4242,-298,4639,99,135,850
240000,6219912,6646540,6226884,6652868,2887,1523,4657,217,2398,4098,-703,4732,99,135,850
241002,6220428,6647268,6227352,6653336,3042,1535,4791,1426,2237,3733,-968,4765,109,145,851
242002,6220924,6647984,6227820,6653804,3157,1502,4930,2423,2088,3435,-914,3731,109,145,851
243003,6221456,6648648,6228288,6654272,2905,1742,5005,3203,1805,3087,-943,3502,98,145,856
244004,6221960,6649416,6228756,6654740,3065,961,5088,4015,1443,2240,-993,3028,98,145,856
245006,6222604,6650088,6229224,6655208,2115,1473,5212,4453,1100,1924,-1493,1553,117,141,854
246007,6223164,6650832,6229692,6655676,2600,902,5294,4737,815,2176,-2016,1425,117,141,854
247008,6223776,6651680,6230160,6656144,2213,86,5353,5023,661,2023,-1939,1138,117,142,856
248008,6224384,6652364,6230628,6656612,2177,1017,5382,5193,562,2215,-2112,274,117,142,856
249010,6224992,6653064,6231096,6657080,2118,816,5368,5287,495,2100,-2475,48,118,133,860
250011,6225656,6653660,6231564,6657548,1683,1411,5289,5548,582,1838,-2875,606,118,133,860
251011,6226308,6654244,6232032,6658016,1678,1435,5081,6131,833,2449,-3580,1151,134,127,861
252012,6226888,6654844,6232500,6658484,2080,1278,4731,6736,1204,2737,-3480,1029,134,127,861
253014,6227512,6655328,6232968,6658952,1737,1997,4417,7218,1487,2630,-2910,242,112,102,862
254015,6228136,6655860,6233436,6659420,1670,1670,4156,7232,1520,2424,-2126,-1429,112,102,862
255022,6228796,6656304,6233908,6659892,1363,2232,3966,6791,1403,2225,-1572,-2354,122,102,860
256016,6229484,6656788,6234376,6660360,1092,1976,3756,6366,1294,2639,-1384,-2408,122,102,860
257018,6230136,6657212,6234844,6660828,1237,2372,3486,6075,1290,2948,-1487,-2172,115,91,859
258019,6230800,6657588,6235312,6661296,1077,2712,3118,6194,1441,3121,-1892,-787,115,91,859
259020,6231472,6658016,6235780,6661764,939,2406,2701,6422,1654,2837,-1870,-676,121,89,861
260020,6231996,6658428,6236248,6662232,1840,2531,2309,6565,1710,2606,-1038,-1207,121,89,861
261022,6232768,6658824,6236716,6662700,156,2663,1925,6604,1523,2507,-28,-1638,127,86,858
262022,6233304,6659188,6237184,6663168,1603,2910,1586,6361,1106,2280,759,-2517,127,86,858
263023,6233944,6659540,6237652,6663636,878,3037,1255,5907,543,2262,1265,-2920,126,79,856
264024,6234648,6659976,6238120,6664104,375,2527,923,5372,-24,2527,1879,-3066,126,79,856
265025,6235232,6660400,6238588,6664572,1074,2622,549,4974,-626,2691,2527,-2764,137,82,855
266027,6235908,6660724,6239056,6665040,409,3310,164,4658,-1227,2487,3229,-2748,137,82,855
267027,6236360,6661112,6239524,6665508,1817,2946,-203,4355,-1825,2003,3910,-2637,117,81,858
268028,6236988,6661540,6239992,6665976,647,2715,-604,4204,-2433,1564,4519,-2197,117,81,858
269029,6237464,6661960,6240460,6666444,1594,2787,-1022,4097,-3077,1072,5063,-2350,98,88,854
270030,6238080,6662416,6240928,6666912,654,2568,-1406,3991,-3731,769,5808,-2284,98,88,854
271031,6238592,6662844,6241396,6667380,1286,2762,-1746,3854,-4339,288,6284,-2365,114,83,858
272032,6239064,6663252,6241864,6667848,1534,2913,-2054,3619,-4878,-94,6205,-2619,114,83,858
273033,6239560,6663664,6242332,6668316,1373,2914,-2331,3240,-5377,-300,5853,-2889,109,77,859
274034,6240104,6664136,6242800,6668784,1039,2538,-2639,2566,-5909,-459,5913,-3699,109,77,859
275035,6240572,6664616,6243268,6669252,1515,2484,-2978,1705,-6474,-717,5276,-3917,114,93,855
276036,6241072,6665124,6243736,6669720,1301,2292,-3339,752,-6937,-871,3844,-3775,114,93,855
277037,6241548,6665668,6244204,6670188,1449,2035,-3686,-152,-7210,-884,2604,-3527,97,95,859
278039,6241880,6666112,6244672,6670656,2408,2671,-4003,-1061,-7361,-980,2601,-3632,97,95,859
279040,6242272,6666628,6245140,6671124,2068,2201,-4362,-2034,-7391,-1058,2998,-3735,77,89,857
280041,6242676,6667108,6245608,6671592,2022,2421,-4724,-3057,-7196,-1137,2939,-3523,77,89,857
281042,6243052,6667536,6246076,6672060,2237,2765,-5016,-4103,-6769,-1299,2477,-3545,83,94,853
282043,6243412,6668052,6246544,6672528,2386,2194,-5227,-5021,-6167,-1285,1459,-3108,83,94,853
283044,6243744,6668508,6247012,6672996,2621,2576,-5418,-5900,-5410,-1185,312,-2900,71,94,856
284045,6244096,6668940,6247480,6673464,2548,2743,-5627,-6856,-4549,-1090,-508,-2954,71,94,856
285045,6244392,6669484,6247948,6673932,2974,2010,-5862,-7832,-3628,-944,-940,-2689,83,105,855
286047,6244676,6670112,6248416,6674400,3130,1416,-6167,-8697,-2681,-902,-1340,-2081,83,105,855
287047,6245004,6670596,6248884,6674868,2918,2309,-6508,-9437,-1723,-928,-1679,-1739,60,112,852
288049,6245292,6671028,6249352,6675336,3248,2651,-6886,-10084,-776,-899,-2038,-1130,60,112,852
289050,6245560,6671544,6249820,6675804,3461,2106,-7326,-10475,91,-861,-2567,78,73,79,852
290060,6245860,6672184,6250292,6676276,3337,1258,-7821,-10669,892,-832,-2768,497,73,79,852
291052,6246152,6672752,6250760,6676744,3466,1665,-8252,-10877,1728,-630,-3014,471,57,120,847
292052,6246448,6673316,6251228,6677212,3517,1648,-8611,-11045,2581,-619,-3312,1185,57,120,847
293054,6246780,6673868,6251696,6677680,3353,1687,-8981,-11023,3368,-544,-3351,2131,76,125,853
294055,6247104,6674476,6252164,6678148,3467,1276,-9349,-10692,4033,-274,-3361,3445,76,125,853
295056,6247440,6675108,6252632,6678616,3451,1054,-9811,-9636,4599,-64,-3614,6459,64,128,851
296056,6247808,6675624,6253100,6679084,3296,1759,-10338,-8107,5053,139,-3544,7389,64,128,851
297058,6248148,6676356,6253568,6679552,3528,294,-10658,-7025,5320,304,-2689,6041,80,136,853
298059,6248516,6676980,6254036,6680020,3398,900,-10835,-6039,5498,830,-2470,7571,80,136,853
299060,6248920,6677652,6254504,6680488,3202,512,-10944,-4628,5699,1698,-2441,9267,94,131,853
300061,6249396,6678252,6254972,6680956,2750,905,-11048,-3013,5800,2317,-1118,9750,94,131,853
301061,6249800,6678868,6255440,6681424,3229,740,-7281,4413,4633,20363,5942,32767,83,136,854
302063,6250252,6679472,6255908,6681892,2937,756,2079,24385,373,32767,13900,32767,83,136,854
303064,6250760,6680044,6256376,6682360,2570,910,7518,29896,-2034,11649,587,9555,102,127,858
304065,6251208,6680680,6256844,6682828,2955,436,7637,29896,-2372,6563,1502,-1494,102,127,858
305066,6251696,6681104,6257312,6683296,2697,1782,6358,25025,-2295,6112,1194,-6534,106,126,858
306067,6252192,6681544,6257780,6683764,2636,1694,5822,19629,-2579,5458,305,-7804,106,126,858
307067,6252704,6681960,6258248,6684232,2518,1868,6021,15932,-2971,4102,-259,-7342,110,84,858
308068,6253128,6682296,6258716,6684700,3088,2426,6130,12802,-3253,3343,-432,-6776,110,84,858
309069,6253700,6682612,6259184,6685168,2119,2619,5844,10029,-3597,2179,-479,-5018,106,81,856
310070,6254164,6682860,6259652,6685636,2797,3140,5306,7746,-3981,-47,-1365,-2747,106,81,856
311072,6254636,6683088,6260120,6686104,2746,3372,4277,6281,-4374,-1425,-2567,-51,103,55,850
312072,6255172,6683292,6260588,6686572,2318,3638,2786,5556,-4618,-3375,-5227,1672,103,55,850
313086,6255656,6683484,6261056,6687040,2637,3800,1330,4494,-4857,-6061,-5943,-562,93,37,847
314087,6256204,6683672,6261524,6687508,2202,3800,317,2877,-5499,-7518,-5113,-1719,93,37,847
315088,6256656,6683896,6261992,6687976,2810,3800,-275,1083,-6398,-8871,-4625,-1953,97,41,847
316077,6257208,6684148,6262460,6688444,2150,3787,-767,-816,-7287,-10044,-4934,-2184,97,41,847
317077,6257708,6684428,6262928,6688912,2461,3696,-1334,-2314,-7963,-10793,-6764,-575,113,63,846
318091,6258252,6684684,6263396,6689380,2154,3800,-2026,-2988,-8212,-11766,-8581,2391,113,63,846
319079,6258780,6684988,6263864,6689848,2229,3713,-2717,-3016,-8066,-12331,-8937,4030,99,59,847
320080,6259320,6685324,6264332,6690316,2123,3571,-3400,-2982,-7716,-12820,-8497,4782,99,59,847
321082,6259828,6685668,6264800,6690784,2306,3577,-3896,-2999,-7152,-13142,-8220,5238,113,78,847
322082,6260392,6686044,6265268,6691252,1915,3418,-4237,-3434,-6417,-12907,-8360,4684,113,78,847
323096,6260880,6686360,6265736,6691720,2382,3800,-4362,-4438,-5493,-13029,-8516,3672,101,75,848
324084,6261436,6686752,6266204,6692188,1919,3420,-4277,-6698,-4351,-13538,-8208,1486,101,75,848
325092,6262000,6687136,6266676,6692660,1829,3510,-4251,-8629,-3175,-10919,-7350,3137,110,77,851
326086,6262528,6687568,6267144,6693128,2029,3228,-4328,-10115,-2011,-9443,-6059,3106,110,77,851
327088,6263080,6687980,6267612,6693596,1843,3378,-3333,-12053,-945,-7693,-4882,9264,114,78,851
328088,6263636,6688368,6268080,6694064,1780,3565,535,-14621,-362,-2717,-2293,32767,114,78,851
329089,6264192,6688784,6268548,6694532,1743,3413,3152,-16514,253,-4325,-2379,8242,106,81,852
330090,6264748,6689176,6269016,6695000,1705,3598,3298,-17976,1052,-4335,-2051,1952,106,81,852
331091,6265272,6689616,6269484,6695468,1880,3311,2691,-18611,1825,-3548,-894,3558,113,102,851
332092,6265852,6690080,6269952,6695936,1482,3164,2340,-19168,2421,-2593,559,3745,113,102,851
333093,6266372,6690564,6270420,6696404,1835,3033,2253,-19457,2805,-1562,920,5054,103,95,850
334094,6266876,6691016,6270888,6696872,1921,3241,2329,-19482,3183,-818,1409,5675,103,95,850
335095,6267456,6691464,6271356,6697340,1397,3276,2412,-19324,3606,597,2312,6216,107,100,852
336096,6267948,6691920,6271824,6697808,1937,3233,2450,-18920,3944,1743,3198,6693,107,100,852
337098,6268456,6692352,6272292,6698276,1820,3400,2529,-18465,4324,2272,3474,6658,106,105,852
338098,6268952,6692820,6272760,6698744,1884,3176,2621,-18235,4743,3000,3525,5967,106,105,852
339100,6269448,6693268,6273228,6699212,1873,3311,2727,-18201,5079,3676,4026,5357,105,94,852
340100,6269904,6693724,6273696,6699680,2128,3267,2815,-18190,5355,4060,4435,5433,105,94,852
341101,6270428,6694140,6274164,6700148,1679,3541,2913,-18111,5610,4404,4037,5212,108,87,851
342102,6270884,6694588,6274632,6700616,2111,3351,3020,-18031,5785,3945,3706,4970,108,87,851
343104,6271340,6695068,6275100,6701084,2116,3146,3172,-17950,5869,3278,3703,4879,103,78,851
344105,6271864,6695480,6275568,6701552,1667,3598,3415,-17804,5872,2757,3530,4962,103,78,851
345119,6272284,6695836,6276036,6702020,2339,3800,3642,-17464,5863,1780,2909,5649,96,80,850
346107,6272712,6696260,6276504,6702488,2308,3593,3875,-16772,5936,777,1758,6252,96,80,850
347108,6273164,6696660,6276972,6702956,2165,3774,4050,-15954,5998,474,1590,6392,95,90,851
348121,6273596,6697016,6277440,6703424,2307,3800,4229,-15012,5993,422,1882,6548,95,90,851
349110,6274008,6697464,6277908,6703892,2457,3535,4342,-14025,5972,223,1823,6330,103,75,847
350111,6274360,6697892,6278376,6704360,2883,3679,4441,-13100,5928,9,1592,5949,103,75,847
351124,6274808,6698284,6278844,6704828,2293,3800,4506,-12238,5851,-38,1576,5707,93,86,847
352112,6275172,6698740,6279312,6705296,2865,3545,4532,-11213,5748,138,1676,5786,93,86,847
353114,6275584,6699172,6279780,6705764,2590,3711,4512,-10164,5604,272,1408,5465,102,89,845
354114,6275980,6699636,6280248,6706232,2723,3515,4519,-9379,5475,355,886,4471,102,89,845
355128,6276332,6700012,6280716,6706700,3049,3800,4584,-8951,5366,429,788,3227,76,77,845
356116,6276704,6700508,6281184,6707168,2967,3345,4705,-8935,5167,319,1186,1540,76,77,845
357117,6277092,6700936,6281652,6707636,2903,3790,4908,-9431,4898,623,1146,140,76,92,846
358118,6277416,6701440,6282120,6708104,3368,3300,4986,-9734,4782,1197,-205,1743,76,92,846
359119,6277740,6701940,6282588,6708572,3432,3312,4583,-8940,5006,2189,-1779,5112,90,106,847
360127,6278072,6702460,6283060,6709044,3444,3167,3748,-7236,5658,3205,-3731,6779,90,106,847
361122,6278404,6702996,6283528,6709512,3505,3039,2748,-5452,6406,3723,-3697,6596,67,107,845
362123,6278724,6703544,6283996,6709980,3646,2930,2030,-4658,6734,3230,-1605,2785,67,107,845
363123,6279068,6703996,6284464,6710448,3552,3538,1855,-5551,6422,2547,375,-2041,77,97,845
364124,6279404,6704540,6284932,6710916,3661,2930,2041,-7198,5748,2655,539,-3174,77,97,845
365138,6279720,6705132,6285400,6711384,3800,2578,2090,-8114,5475,3250,-2014,-123,75,114,845
366139,6280052,6705672,6285868,6711852,3800,2872,1873,-7794,5784,3817,-3499,2095,75,114,845
367127,6280424,6706260,6286336,6712320,3608,2521,1580,-6864,6207,3853,-3151,2518,84,114,844
368128,6280788,6706812,6286804,6712788,3704,2710,1426,-6070,6421,3655,-2433,2346,84,114,844
369130,6281160,6707460,6287272,6713256,3697,2032,1403,-5540,6254,3291,-1323,1891,86,130,845
370130,6281560,6708056,6287740,6713724,3553,2301,1502,-5144,5825,2780,-703,1405,86,130,845
371131,6281972,6708792,6288208,6714192,3505,1310,1701,-4682,5294,2491,8,1332,91,115,847
372132,6282352,6709420,6288676,6714660,3745,1915,1964,-4208,4769,2304,-627,1212,91,115,847
373133,6282784,6710028,6289144,6715128,3436,1980,2150,-3370,4450,2271,-1936,2574,97,124,849
374134,6283220,6710696,6289612,6715596,3426,1518,2257,-2009,4312,2366,-1881,3537,97,124,849
375135,6283644,6711312,6290080,6716064,3522,1779,2368,-889,4134,2342,-1456,2304,99,128,850
376136,6284164,6711972,6290548,6716532,2901,1420,2451,-66,3868,2305,-1762,2033,99,128,850
377138,6284624,6712684,6291016,6717000,3280,989,2505,783,3618,2339,-1583,2002,91,121,851
378139,6285152,6713352,6291484,6717468,2830,1177,2637,1412,3333,2448,-953,916,91,121,851
379139,6285672,6713880,6291952,6717936,2858,2027,2790,1957,2970,2470,-946,976,105,144,854
380141,6286144,6714604,6292420,6718404,3158,689,2952,2652,2700,2469,-1201,1313,105,144,854
381141,6286696,6715220,6292888,6718872,2623,1300,3058,3239,2483,2912,-962,801,103,137,857
382142,6287256,6715904,6293356,6719340,2533,781,3111,3634,2241,3072,-909,248,103,137,857
383143,6287836,6716656,6293824,6719808,2360,233,3198,3685,1960,2817,-457,-1035,120,141,856
384144,6288404,6717360,6294292,6720276,2392,429,3266,3300,1600,3243,-352,-1893,120,141,856
385146,6288972,6717952,6294760,6720744,2349,1075,3261,2780,1202,3550,-416,-1854,105,138,859
386146,6289628,6718500,6295228,6721212,1717,1315,3082,2619,947,4485,-714,-371,105,138,859
387147,6290196,6719052,6295696,6721680,2224,1254,2702,2919,794,5499,-649,411,115,113,861
388148,6290832,6719556,6296164,6722148,1727,1539,2230,3193,715,5420,-623,364,115,113,861
389150,6291488,6720136,6296632,6722616,1521,1015,1874,3186,584,5048,-492,-609,115,121,861
390150,6292116,6720624,6297100,6723084,1626,1582,1664,3066,370,4970,-586,-994,115,121,861
391151,6292748,6720996,6297568,6723552,1530,2350,1505,2878,181,4533,-647,-1167,127,105,861
392152,6293364,6721392,6298036,6724020,1566,2231,1276,2932,-14,4289,-533,-319,127,105,861
393154,6293920,6721796,6298504,6724488,1903,2211,925,3434,-190,4255,-418,1008,120,84,860
394155,6294512,6722192,6298972,6724956,1624,2292,502,4175,-392,4122,-167,1336,120,84,860
395162,6295100,6722588,6299444,6725428,1599,2327,124,4869,-734,3750,651,715,125,77,858
396156,6295752,6722928,6299912,6725896,1120,2733,-231,5551,-1122,3438,751,1107,125,77,858
397157,6296392,6723260,6300380,6726364,1120,2844,-680,6427,-1474,3223,426,2065,114,80,857
398158,6296968,6723584,6300848,6726832,1473,2957,-1199,7264,-1894,2701,1074,1465,114,80,857
399159,6297604,6723924,6301316,6727300,1025,2914,-1649,7896,-2379,2485,1812,873,103,70,856
400160,6298220,6724320,6301784,6727768,1086,2597,-2013,8299,-2929,2241,2345,263,103,70,856
401162,6298832,6724676,6302252,6728236,1047,2896,-2337,8529,-3532,2001,2922,-38,118,81,853
402162,6299436,6725024,6302720,6728704,1039,3000,-2693,8787,-4139,1850,3193,20,118,81,853
403163,6300048,6725408,6303188,6729172,926,2813,-3083,8929,-4710,1688,3452,-545,119,82,857
404164,6300552,6725804,6303656,6729640,1586,2769,-3465,8951,-5201,1598,3807,-582,119,82,857
405165,6301212,6726148,6304124,6730108,527,3150,-3854,8860,-5632,1492,3789,-833,124,79,856
406166,6301748,6726580,6304592,6730576,1272,2617,-4194,8545,-6021,1395,3848,-1284,124,79,856
407167,6302256,6727016,6305060,6731044,1431,2607,-4506,8277,-6321,1280,3865,-869,112,95,856
408168,6302780,6727464,6305528,6731512,1307,2540,-4782,8048,-6583,1038,4046,-1026,112,95,856
409170,6303288,6727872,6305996,6731980,1390,2818,-5023,7594,-6861,929,4314,-1384,115,102,857
410171,6303828,6728324,6306464,6732448,1159,2551,-5193,7060,-7168,754,4436,-1453,115,102,857
411172,6304360,6728800,6306932,6732916,1181,2398,-5325,6439,-7500,530,4343,-1750,92,94,856
412173,6304876,6729200,6307400,6733384,1261,2904,-5429,5564,-7853,274,3828,-2402,92,94,856
413174,6305336,6729664,6307868,6733852,1614,2506,-5553,4474,-8184,11,2690,-2733,99,81,857
414175,6305772,6730120,6308336,6734320,1779,2562,-5694,3318,-8475,-137,1709,-2642,99,81,857
415176,6306336,6730600,6308804,6734788,937,2408,-5841,2129,-8698,-252,1466,-2652,107,95,856
416177,6306804,6731104,6309272,6735256,1538,2243,-6021,957,-8772,-462,1564,-2318,107,95,856
417178,6307156,6731604,6309740,6735724,2314,2255,-6242,-159,-8614,-874,1636,-2040,95,101,856
418178,6307484,6732128,6310208,6736192,2526,2080,-6449,-1162,-8199,-1514,1492,-1562,95,101,856
419180,6307864,6732624,6310676,6736660,2240,2244,-6562,-1862,-7602,-2299,671,-726,93,107,858
420180,6308216,6733028,6311144,6737128,2467,2848,-6616,-2513,-6875,-2941,-506,-553,93,107,858
421182,6308572,6733508,6311612,6737596,2491,2369,-6603,-3203,-6064,-3120,-1343,-734,81,85,854
422182,6308900,6733972,6312080,6738064,2729,2471,-6614,-3999,-5194,-3149,-2069,-437,81,85,854
423184,6309220,6734428,6312548,6738532,2844,2527,-6668,-4734,-4283,-3304,-2818,252,81,90,850
424184,6309572,6734940,6313016,6739000,2696,2159,-6779,-5367,-3321,-3525,-3268,656,81,90,850
425186,6309872,6735496,6313484,6739468,3096,1846,-6959,-5893,-2293,-3577,-3645,1265,77,105,852
426187,6310160,6735964,6313952,6739936,3250,2396,-7196,-6337,-1240,-3533,-3821,1747,77,105,852
427188,6310472,6736376,6314420,6740404,3169,2772,-7455,-6793,-243,-3375,-3950,1814,65,105,853
428189,6310800,6736900,6314888,6740872,3132,2048,-7632,-7311,677,-3250,-4314,1912,65,105,853
429190,6311092,6737428,6315356,6741340,3434,1998,-7758,-7786,1544,-3108,-4725,2591,71,97,850
430200,6311384,6738040,6315828,6741812,3514,1412,-7897,-8096,2392,-2859,-4787,3382,71,97,850
431191,6311744,6738524,6316296,6742280,3138,2205,-8088,-8204,3248,-2585,-4518,4341,82,100,851
432192,6312084,6738952,6316764,6742748,3320,2574,-8233,-7953,4141,-2160,-4271,5490,82,100,851
433194,6312424,6739516,6317232,6743216,3377,1682,-8384,-7610,4911,-2030,-3605,6072,73,114,850
434195,6312824,6740200,6317700,6743684,3033,838,-5469,-2346,5182,6334,-1679,32767,73,114,850
435196,6313212,6740876,6318168,6744152,3144,797,3016,16427,3768,25755,3409,32767,78,141,849
436196,6313588,6741476,6318636,6744620,3261,1215,8931,27558,2903,8677,-2155,24511,78,141,849
437198,6314008,6742164,6319104,6745088,3008,568,9282,26992,3230,2543,-1723,810,80,134,856
438199,6314432,6742748,6319572,6745556,3003,1168,7615,21632,3899,2851,-968,-3200,80,134,856
439200,6314876,6743464,6320040,6746024,2890,235,6450,17008,4160,3065,-653,-3888,90,115,854
440200,6315340,6744044,6320508,6746492,2768,1036,5945,14242,4131,2336,441,-3455,90,115,854
441201,6315780,6744580,6320976,6746960,2931,1281,5506,11993,3971,2345,876,-3392,107,116,856
442203,6316216,6745100,6321444,6747428,2971,1360,4830,9586,3530,2028,1167,-3538,107,116,856
443203,6316700,6745536,6321912,6747896,2665,1899,4067,6793,2879,578,1650,-3922,103,108,857
444205,6317160,6745972,6322380,6748364,2819,1914,3156,4123,2125,250,479,-2860,103,108,857
445205,6317596,6746384,6322848,6748832,2985,2088,2073,1608,1275,-463,117,-2591,82,98,854
446206,6318052,6746692,6323316,6749300,2866,2810,1005,-442,367,-1886,780,-1201,82,98,854
447207,6318556,6746988,6323784,6749768,2551,2960,-109,-1972,-584,-2748,32,-99,107,69,854
448208,6319000,6747272,6324252,6750236,2938,3117,-1119,-3275,-1510,-3871,-1700,805,107,69,854
449210,6319444,6747524,6324720,6750704,2949,3412,-2088,-3907,-2360,-5064,-2422,3283,95,62,850
450211,6319964,6747796,6325188,6751172,2452,3374,-2944,-4323,-3304,-5597,-2326,2730,95,62,850
451212,6320424,6748048,6325656,6751640,2832,3594,-3527,-5094,-4368,-6357,-2293,1883,79,47,847
452212,6320916,6748320,6326124,6752108,2622,3556,-3785,-5919,-5285,-6853,-3024,2504,79,47,847
453213,6321428,6748584,6326592,6752576,2479,3697,-3884,-6561,-6021,-6621,-3493,2667,106,58,847
454214,6321920,6748860,6327060,6753044,2594,3707,-3920,-7127,-6478,-6667,-3937,2658,106,58,847
455215,6322400,6749136,6327528,6753512,2665,3792,-3995,-7681,-6599,-6590,-4773,2959,91,61,844
456216,6322944,6749436,6327996,6753980,2232,3716,-4049,-8298,-6466,-6495,-5196,2629,91,61,844
457217,6323436,6749756,6328464,6754448,2547,3657,-4017,-9106,-6114,-6602,-5101,2328,108,57,846
458219,6323924,6750080,6328932,6754916,2564,3697,-3877,-10054,-5613,-6357,-5031,2044,108,57,846
459220,6324520,6750408,6329400,6755384,1834,3734,-3700,-11213,-5015,-5961,-4759,1429,94,79,847
460221,6324984,6750748,6329868,6755852,2662,3716,-3434,-12544,-4332,-5698,-4179,878,94,79,847
461222,6325540,6751096,6330336,6756320,2049,3720,-3136,-14138,-3586,-5250,-4245,372,113,83,846
462223,6326072,6751492,6330804,6756788,2172,3453,-2818,-15879,-2853,-4941,-3727,66,113,83,846
463223,6326596,6751852,6331272,6757256,2198,3726,-1693,-17643,-2193,-3730,-2793,7269,94,72,846
464237,6327120,6752200,6331740,6757724,2175,3800,1796,-18676,-1935,-114,-1017,32767,94,72,846
465232,6327672,6752588,6332212,6758196,1966,3643,4481,-19032,-1699,-1726,-776,14830,114,79,849
466227,6328236,6752964,6332680,6758664,1849,3759,4733,-19311,-1155,-2816,-1063,4991,114,79,849
467228,6328764,6753392,6333148,6759132,2049,3453,3943,-19229,-477,-2209,-1178,6058,119,83,847
468228,6329320,6753824,6333616,6759600,1835,3445,3395,-19058,211,-1904,-1044,5874,119,83,847
469229,6329920,6754248,6334084,6760068,1503,3515,3361,-18724,821,-1644,-861,6385,100,83,849
470230,6330480,6754640,6334552,6760536,1714,3750,3421,-18121,1306,-1281,-367,7352,100,83,849
471231,6330968,6755108,6335020,6761004,2156,3276,3371,-17340,1668,-899,186,7714,125,92,851
472232,6331588,6755572,6335488,6761472,1265,3304,3214,-16371,1883,-458,866,8104,125,92,851
473233,6332104,6756148,6335956,6761940,1894,2558,3077,-15481,1994,126,1288,7631,103,114,850
474235,6332640,6756632,6336424,6762408,1740,3127,2921,-14633,2008,946,2024,7661,103,114,850
475236,6333196,6757112,6336892,6762876,1578,3148,2806,-13784,1981,1800,2212,7427,103,95,854
476237,6333692,6757612,6337360,6763344,1940,3009,2646,-13071,2011,2752,2027,7003,103,95,854
477238,6334132,6758084,6337828,6763812,2304,3184,2522,-12358,2135,3644,1555,6668,92,111,852
478239,6334724,6758588,6338296,6764280,1300,2969,2410,-11871,2295,4111,1623,5884,92,111,852
479239,6335196,6759084,6338764,6764748,2048,3008,2414,-11686,2389,4452,1890,4757,115,105,853
480241,6335680,6759576,6339232,6765216,1967,3023,2473,-11844,2418,4641,1720,3773,115,105,853
481242,6336144,6760056,6339700,6765684,2095,3094,2591,-12081,2408,4510,1451,3302,95,97,855
482243,6336680,6760552,6340168,6766152,1616,2983,2632,-12470,2445,4331,663,3050,95,97,855
483244,6337144,6760964,6340636,6766620,2068,3534,2681,-12688,2593,3883,-195,3239,85,94,853
484244,6337592,6761404,6341104,6767088,2178,3372,2637,-12673,2771,2793,-624,4100,85,94,853
485245,6338084,6761848,6341572,6767556,1893,3359,2617,-12487,2883,2136,-673,3929,84,91,853
486246,6338520,6762268,6342040,6768024,2257,3531,2610,-12353,2947,1844,-407,3999,84,91,853
487260,6338916,6762640,6342508,6768492,2540,3800,2658,-12019,3045,1963,-150,4495,99,94,849
488248,6339388,6763092,6342976,6768960,2064,3382,2725,-11688,3169,2048,133,4173,99,94,849
489249,6339768,6763516,6343444,6769428,2678,3578,2817,-11253,3282,1587,258,4681,90,75,847
490250,6340148,6763996,6343912,6769896,2718,3223,2946,-10783,3406,1137,324,4442,90,75,847
491252,6340556,6764444,6344380,6770364,2570,3433,2997,-10221,3522,1230,566,4918,99,91,850
492252,6340968,6764880,6344848,6770832,2570,3524,2879,-8975,3592,899,1131,7187,99,91,850
493253,6341368,6765300,6345316,6771300,2675,3646,2569,-7268,3721,616,601,8102,86,93,848
494268,6341736,6765692,6345784,6771768,2920,3800,2269,-5737,3882,609,214,6883,81,91,847
495255,6342092,6766220,6346252,6772236,3046,2980,2132,-4728,4052,326,264,5357,81,91,847
496256,6342456,6766636,6346720,6772704,3041,3704,2200,-4351,4184,235,231,3472,90,97,845
497258,6342792,6767116,6347188,6773172,3275,3300,2381,-4529,4240,436,122,2039,90,97,845
498258,6343148,6767608,6347656,6773640,3201,3215,2563,-4678,4329,413,-426,2276,75,82,843
499260,6343468,6768060,6348124,6774108,3492,3474,2703,-4592,4530,518,-1129,2349,75,82,843
500267,6343792,6768572,6348596,6774580,3533,3083,2810,-4571,4761,934,-1420,1787,63,95,846
501262,6344168,6769108,6349064,6775048,3249,2904,2896,-4505,5060,1137,-2103,2165,63,95,846
502262,6344484,6769512,6349532,6775516,3692,3758,2931,-4306,5428,1604,-2618,2602,73,104,845
503263,6344816,6770056,6350000,6775984,3653,2851,2916,-4019,5764,2276,-2604,2531,73,104,845
504264,6345172,6770580,6350468,6776452,3553,2952,2997,-3932,6002,2383,-1859,1445,65,107,841
505266,6345528,6771036,6350936,6776920,3603,3383,3203,-4140,6021,2407,-957,801,65,107,841
506279,6345856,6771680,6351404,6777388,3800,2133,3412,-4293,5790,2555,-305,929,68,102,845
507267,6346256,6772192,6351872,6777856,3421,2940,3573,-4105,5517,2547,-314,1928,68,102,845
508281,6346588,6772808,6352340,6778324,3800,2226,3681,-3601,5300,2603,-286,2773,90,105,846
509282,6346940,6773412,6352808,6778792,3800,2242,3731,-2798,5085,2648,11,3503,90,105,846
510270,6347360,6774056,6353276,6779260,3431,1915,3764,-1655,4817,2691,73,4082,78,123,847
511271,6347740,6774676,6353744,6779728,3721,2000,3826,-628,4552,2992,-205,3502,78,123,847
512272,6348196,6775320,6354212,6780196,3252,1773,3865,292,4283,2935,-400,3571,90,109,851
513274,6348696,6775964,6354680,6780664,2964,1697,3818,1350,4034,2584,-513,4090,90,109,851
514274,6349092,6776584,6355148,6781132,3648,1781,3714,2443,3797,2823,-666,3932,103,114,852
515276,6349608,6777252,6355616,6781600,2878,1393,3550,3310,3490,3308,-246,3093,103,114,852
516276,6350088,6777856,6356084,6782068,3098,1734,3385,4213,3161,3563,-270,3315,90,116,850
517278,6350600,6778540,6356552,6782536,2880,1141,3232,4921,2823,3386,-282,2418,90,116,850
518278,6351120,6779184,6357020,6783004,2808,1314,3133,5293,2473,3372,-318,1545,106,119,854
519279,6351556,6779864,6357488,6783472,3348,997,3042,5643,2157,3445,-162,1419,106,119,854
520280,6352180,6780512,6357956,6783940,2106,1118,2958,5776,1858,3345,-639,423,112,126,856
521281,6352704,6781140,6358424,6784408,2707,1174,2837,5709,1538,3402,-1009,70,112,126,856
522282,6353204,6781800,6358892,6784876,2845,889,2674,5653,1228,3102,-860,239,125,125,859
523284,6353864,6782572,6359360,6785344,1762,57,2515,5536,922,3019,-713,-284,125,125,859
524284,6354404,6783220,6359828,6785812,2481,754,2334,5215,611,3199,-781,-686,110,133,858
525286,6354996,6783820,6360296,6786280,2103,996,2142,4898,322,3131,-782,-691,110,133,858
526286,6355640,6784376,6360764,6786748,1701,1233,1899,4673,102,3255,-1255,-528,116,121,860
527288,6356268,6784880,6361232,6787216,1732,1542,1597,4564,44,3423,-1904,20,116,121,860
528288,6356864,6785444,6361700,6787684,1877,1125,1253,4651,116,3181,-1706,527,114,106,861
529289,6357532,6785968,6362168,6788152,1340,1351,952,4838,95,3148,-803,58,114,106,861
530290,6358176,6786380,6362636,6788620,1412,2076,729,4859,-21,3009,-560,-405,132,82,859
531291,6358740,6786816,6363104,6789088,1871,1941,504,4844,-163,2809,-239,-93,132,82,859
532292,6359344,6787180,6363572,6789556,1563,2437,238,5013,-266,2651,-277,251,113,94,858
533293,6360024,6787516,6364040,6790024,995,2671,-49,5250,-337,2319,-198,224,113,94,858
534294,6360580,6787872,6364508,6790492,1733,2595,-369,5601,-458,2063,276,531,121,72,857
535302,6361172,6788244,6364980,6790964,1455,2540,-698,6067,-644,1824,872,814,121,72,857
536296,6361824,6788584,6365448,6791432,1000,2796,-1061,6560,-912,1475,1562,876,118,63,854
537297,6362460,6788888,6365916,6791900,1027,3094,-1426,7027,-1319,999,1994,632,118,63,854
538298,6363024,6789196,6366384,6792368,1436,3139,-1740,7283,-1845,649,2166,74,126,64,856
539299,6363664,6789520,6366852,6792836,885,3104,-2007,7357,-2401,796,2522,-362,126,64,856
540301,6364288,6789892,6367320,6793304,918,2846,-2280,7324,-3002,779,3642,-645,120,64,853
541302,6364924,6790232,6367788,6793772,769,3103,-2576,7245,-3627,752,4398,-682,120,64,853
542303,6365580,6790576,6368256,6794240,562,3134,-2914,7122,-4253,854,4531,-976,117,74,854
543303,6366100,6790952,6368724,6794708,1390,2974,-3278,6831,-4788,941,4114,-1254,117,74,854
544305,6366680,6791340,6369192,6795176,966,2935,-3643,6453,-5180,917,3649,-1411,112,74,856
545306,6367256,6791696,6369660,6795644,944,3185,-3996,5933,-5522,715,3349,-1791,112,74,856
546306,6367796,6792096,6370128,6796112,1138,2941,-4289,5281,-5919,122,3403,-2094,111,78,856
547308,6368352,6792544,6370596,6796580,1000,2650,-4496,4382,-6372,-365,3340,-2701,111,78,856
548309,6368824,6792976,6371064,6797048,1524,2767,-4592,3217,-6831,-559,3212,-3483,110,86,855
549310,6369344,6793396,6371532,6797516,1201,2864,-4616,1972,-7235,-669,3034,-3558,110,86,855
550311,6369852,6793840,6372000,6797984,1259,2726,-4612,802,-7553,-818,2676,-3298,102,101,856
551311,6370324,6794336,6372468,6798452,1483,2389,-4636,-284,-7716,-963,1251,-3047,102,101,856
552312,6370836,6794784,6372936,6798920,1213,2698,-4684,-1212,-7667,-1295,-401,-2258,103,101,855
553313,6371260,6795280,6373404,6799388,1784,2387,-4759,-1871,-7443,-1833,-828,-1428,103,101,855
554314,6371736,6795736,6373872,6799856,1455,2643,-4845,-2548,-7193,-2469,-539,-1578,87,105,856
555315,6372280,6796200,6374340,6800324,998,2596,-4950,-3248,-6998,-3065,-57,-1352,87,105,856
556317,6372668,6796736,6374808,6800792,2008,2116,-5096,-3915,-6770,-3546,2,-1193,81,107,856
557317,6372972,6797232,6375276,6801260,2605,2355,-5187,-4615,-6422,-4008,696,-1309,81,107,856
558319,6373400,6797732,6375744,6801728,1849,2317,-5247,-5268,-5882,-4461,785,-740,84,90,856
559319,6373744,6798212,6376212,6802196,2428,2437,-5323,-5654,-5155,-4836,-41,117,84,90,856
560320,6374084,6798588,6376680,6802664,2510,3129,-5453,-5932,-4335,-5033,-597,330,93,100,856
561322,6374452,6799100,6377148,6803132,2379,2259,-5604,-6252,-3459,-4804,-1452,521,93,100,856
562322,6374760,6799576,6377616,6803600,2826,2482,-5839,-6663,-2543,-4152,-2170,771,83,95,850
563323,6375064,6800084,6378084,6804068,2923,2265,-6105,-7218,-1602,-3580,-2896,656,83,95,850
564324,6375356,6800620,6378552,6804536,3076,2061,-6341,-7938,-619,-3070,-3306,660,80,108,851
565326,6375664,6801268,6379020,6805004,3046,1282,-6601,-8667,383,-2462,-3474,878,80,108,851
566326,6375956,6801652,6379488,6805472,3225,2970,-6864,-9485,1376,-1718,-3572,752,72,102,851
567327,6376236,6802076,6379956,6805940,3383,2741,-7098,-10410,2328,-948,-3566,737,72,102,851
568328,6376540,6802612,6380424,6806408,3306,2012,-7328,-11372,3165,-296,-3594,1104,71,81,847
569330,6376828,6803220,6380892,6806876,3485,1500,-7622,-12225,3864,305,-3440,1862,71,81,847
570340,6377104,6803684,6381364,6807348,3648,2405,-8034,-12535,4580,1341,-3271,3768,70,117,850
571331,6377428,6804148,6381832,6807816,3412,2407,-9217,-11513,5354,2137,-3722,9006,70,117,850
572333,6377756,6804660,6382300,6808284,3449,2088,-10106,-10452,6036,2153,-3463,6503,84,116,847
573334,6378100,6805208,6382768,6808752,3405,1829,-7425,-5243,6206,11064,-1196,32767,84,116,847
574334,6378476,6805964,6383236,6809220,3245,403,2041,15086,4464,32767,3458,32767,85,126,849
575335,6378820,6806596,6383704,6809688,3501,1106,8778,26855,3320,14022,-1281,22005,85,126,849
576336,6379176,6807300,6384172,6810156,3476,554,9531,25715,3443,6212,-542,-2019,72,142,854
577338,6379592,6807908,6384640,6810624,3125,1092,7702,19155,3794,5892,772,-5784,72,142,854
578338,6380016,6808540,6385108,6811092,3095,871,6571,13612,3764,5786,588,-6478,95,121,854
579339,6380432,6809212,6385576,6811560,3169,531,5991,10362,3472,5075,911,-4237,95,121,854
580340,6380904,6809744,6386044,6812028,2818,1379,5588,7935,3062,4163,1481,-4740,99,133,855
581342,6381316,6810308,6386512,6812496,3219,1137,4916,5376,2487,3673,1396,-4165,99,133,855
582342,6381764,6810792,6386980,6812964,3004,1631,4212,2839,1842,2325,1594,-3189,99,108,856
583343,6382216,6811272,6387448,6813432,2987,1651,3455,784,1146,1559,2220,-973,99,108,856
584344,6382712,6811676,6387916,6813900,2700,2155,2651,-771,430,1449,2678,-593,95,89,854
585345,6383164,6812036,6388384,6814368,2983,2477,1998,-2162,-400,-179,3554,-265,95,89,854
586346,6383616,6812340,6388852,6814836,2991,2899,1270,-3072,-1313,-1545,2919,2164,102,72,852
587347,6384128,6812640,6389320,6815304,2598,2999,557,-3653,-2352,-3038,2617,2083,102,72,852
588348,6384568,6812924,6389788,6815772,3061,3180,-95,-4229,-3516,-4515,2036,2332,100,53,847
589350,6385024,6813168,6390256,6816240,2968,3530,-767,-4382,-4743,-5383,304,3610,100,53,847
590363,6385544,6813380,6390724,6816708,2546,3800,-1553,-4323,-5948,-6250,-201,3885,97,47,846
591351,6386012,6813648,6391192,6817176,2872,3581,-2203,-4284,-6987,-7078,-1085,3303,97,47,846
592365,6386516,6813868,6391660,6817644,2632,3800,-2660,-4298,-7724,-7248,-2768,3457,99,60,845
593366,6387036,6814120,6392128,6818112,2510,3800,-2983,-4118,-8063,-7272,-4748,4266,99,60,845
594367,6387556,6814360,6392596,6818580,2488,3800,-3362,-3610,-8025,-7373,-6410,5498,89,49,844
595368,6388028,6814596,6393064,6819048,2788,3800,-3792,-3032,-7769,-7309,-7088,5574,89,49,844
596369,6388584,6814848,6393532,6819516,2225,3800,-4150,-2574,-7398,-7182,-6853,5123,97,50,843
597370,6389060,6815156,6394000,6819984,2722,3800,-4391,-2460,-6902,-7014,-6470,4278,97,50,843
598371,6389564,6815468,6394468,6820452,2533,3800,-4444,-2902,-6325,-6772,-5685,2796,98,72,845
599359,6390048,6815820,6394936,6820920,2652,3754,-4445,-3736,-5681,-6348,-5176,1868,98,72,845
600373,6390624,6816172,6395404,6821388,2030,3800,-4390,-4955,-4963,-5866,-4711,691,101,85,846
601361,6391136,6816588,6395872,6821856,2412,3430,-4347,-6449,-4169,-5195,-4120,264,101,85,846
602362,6391656,6817036,6396340,6822324,2339,3239,-4273,-8069,-3277,-4580,-3538,-102,97,81,846
603363,6392200,6817460,6396808,6822792,2157,3410,-4198,-9812,-2334,-3787,-2874,-140,97,81,846
604364,6392732,6817904,6397276,6823260,2204,3296,-4105,-11418,-1478,-3029,-2057,422,99,101,850
605373,6393284,6818376,6397748,6823732,2045,3122,-4017,-12895,-768,-2590,-1621,1099,99,101,850
606367,6393880,6818828,6398216,6824200,1715,3255,-3827,-14279,-190,-2115,-1824,1514,120,111,850
607367,6394396,6819368,6398684,6824668,2195,2675,-3243,-15523,291,-1012,-1924,3995,120,111,850
608368,6394924,6819812,6399152,6825136,2095,3286,-130,-15843,394,3353,-1464,32055,122,109,852
609370,6395548,6820276,6399620,6825604,1426,3164,4145,-14581,191,3541,-736,32767,122,109,852
610370,6396108,6820756,6400088,6826072,1787,3060,5954,-13670,286,320,-173,9843,112,111,851
611372,6396676,6821236,6400556,6826540,1694,3055,5735,-13650,636,122,-73,5576,112,111,851
612372,6397280,6821772,6401024,6827008,1410,2676,5135,-13818,977,379,196,6226,102,116,853
613374,6397804,6822308,6401492,6827476,1885,2648,4869,-13492,1188,331,558,7356,102,116,853
614374,6398340,6822776,6401960,6827944,1781,3074,4794,-12804,1304,396,98,7376,105,96,856
615376,6398912,6823252,6402428,6828412,1512,3021,4789,-12122,1418,575,-131,7140,105,96,856
616376,6399396,6823724,6402896,6828880,2055,3045,4672,-11535,1518,948,197,7091,100,102,852
617378,6399892,6824168,6403364,6829348,1968,3232,4518,-10923,1548,1415,413,6853,100,102,852
618379,6400420,6824664,6403832,6829816,1743,2896,4362,-10599,1528,1639,379,5818,103,101,851
619379,6400964,6825164,6404300,6830284,1610,2858,4300,-10504,1495,1842,327,5167,103,101,851
620380,6401444,6825636,6404768,6830752,2005,3032,4240,-10554,1465,2103,210,4648,107,106,853
621381,6401944,6826108,6405236,6831220,1867,3031,4200,-10664,1482,1863,-30,4062,107,106,853
622382,6402460,6826552,6405704,6831688,1746,3218,4147,-10807,1613,1327,-745,4196,94,96,852
623383,6402956,6826936,6406172,6832156,1860,3630,4089,-10968,1864,842,-1433,3839,94,96,852
624384,6403372,6827416,6406640,6832624,2384,3026,4059,-11130,2147,327,-1591,3706,86,83,852
625385,6403896,6827848,6407108,6833092,1684,3343,4015,-11288,2735,-778,-1490,3476,86,83,852
626386,6404316,6828216,6407576,6833560,2356,3788,3982,-11440,2972,-813,-973,3256,88,87,850
627387,6404724,6828640,6408044,6834028,2457,3458,3925,-11575,3255,-643,-528,3246,88,87,850
628388,6405152,6829092,6408512,6834496,2351,3291,3888,-11621,3562,-553,-113,2973,98,81,847
629389,6405576,6829512,6408980,6834964,2396,3513,3843,-11889,3846,-606,125,2275,98,81,847
630390,6405948,6830004,6409448,6835432,2764,3054,3856,-12198,4150,-625,302,2183,78,80,848
631391,6406340,6830428,6409916,6835900,2673,3499,3771,-12150,4448,-450,850,3129,78,80,848
632392,6406760,6830832,6410384,6836368,2520,3653,3590,-11835,4766,-170,737,3484,82,92,847
633393,6407096,6831224,6410852,6836836,3103,3763,3426,-11505,5123,6,616,3463,82,92,847
634394,6407468,6831692,6411320,6837304,2921,3289,3296,-11069,5348,-125,1216,3883,87,105,847
635395,6407864,6832160,6411788,6837772,2804,3290,3115,-10404,5376,58,1658,4522,87,105,847
636396,6408192,6832640,6412256,6838240,3291,3210,2812,-9420,5371,523,1447,5417,69,97,846
637397,6408508,6833140,6412724,6838708,3433,3072,2411,-8280,5489,752,713,5722,69,97,846
638399,6408860,6833584,6413192,6839176,3260,3434,2030,-7267,5666,1115,794,4825,87,103,845
639399,6409200,6834100,6413660,6839644,3392,2964,1855,-6852,5756,1255,918,2699,87,103,845
640407,6409512,6834608,6414132,6840116,3639,2999,1880,-6983,5792,1239,253,1427,82,104,844
641401,6409860,6835096,6414600,6840584,3468,3116,1958,-7194,5870,1591,-799,1448,82,104,844
642402,6410200,6835624,6415068,6841052,3575,2841,1930,-7072,6091,2089,-2091,2272,65,106,843
643403,6410524,6836136,6415536,6841520,3739,2923,1887,-6660,6414,2316,-2532,2465,65,106,843
644404,6410900,6836624,6416004,6841988,3454,3066,1928,-6222,6625,2227,-1944,2193,65,96,845
645405,6411260,6837208,6416472,6842456,3603,2416,2142,-6036,6577,2213,-1319,1152,65,96,845
646406,6411608,6837760,6416940,6842924,3732,2580,2533,-6130,6323,2274,-1000,379,77,109,845
647407,6412020,6838388,6417408,6843392,3357,2036,2940,-6233,5943,2310,-556,672,77,109,845
648408,6412428,6838996,6417876,6843860,3410,2099,3236,-5817,5613,2366,-771,2258,77,109,846
649409,6412808,6839612,6418344,6844328,3625,1985,3465,-4875,5363,2465,-971,3157,77,109,846
650411,6413252,6840212,6418812,6844796,3237,2028,3707,-3847,5103,2631,-962,3012,82,130,850
651411,6413708,6840796,6419280,6845264,3168,2078,3915,-2684,4780,2500,-893,3653,82,130,850
652412,6414160,6841496,6419748,6845732,3201,1252,4061,-1385,4442,2396,-881,4052,80,121,849
653413,6414568,6842052,6420216,6846200,3504,2114,4154,-268,4085,2474,-818,3382,80,121,849
654414,6415096,6842716,6420684,6846668,2728,1354,4168,794,3704,2712,-699,3527,98,125,853
655415,6415608,6843340,6421152,6847136,2810,1536,4126,2019,3370,2902,-596,3665,98,125,853
656416,6416072,6843996,6421620,6847604,3113,1254,4036,3071,3055,3184,-496,3083,94,132,854
657418,6416660,6844648,6422088,6848072,2286,1199,3918,4005,2744,3383,-399,2826,94,132,854
658418,6417124,6845276,6422556,6848540,3064,1279,3824,4768,2449,3400,-216,1994,100,122,855
659419,6417708,6845952,6423024,6849008,2264,888,3737,5204,2117,3545,-394,1098,100,122,855
660420,6418308,6846524,6423492,6849476,2107,1494,3653,5381,1831,3758,-781,643,116,134,856
661421,6418812,6847216,6423960,6849944,2692,645,3555,5354,1574,3780,-621,55,116,134,856
662422,6419428,6847840,6424428,6850412,1928,1003,3456,5095,1238,3834,-468,-929,118,128,859
663423,6420048,6848560,6424896,6850880,1837,292,3311,4583,853,3833,-368,-1384,118,128,859
664424,6420632,6849140,6425364,6851348,2012,1119,3053,4032,482,4257,-492,-1341,135,123,859
665425,6421220,6849756,6425832,6851816,1935,829,2636,3674,248,5048,-1082,-655,135,123,859
666426,6421876,6850316,6426300,6852284,1429,1138,2123,3522,155,5182,-983,-293,120,100,860
667427,6422452,6850820,6426768,6852752,1882,1474,1654,3311,6,5015,-126,-842,120,100,860
668428,6423072,6851356,6427236,6853220,1540,1244,1296,3000,-205,4953,86,-1070,118,101,862
669429,6423612,6851772,6427704,6853688,2010,2017,957,2785,-380,4938,82,-736,118,101,862
670430,6424268,6852180,6428172,6854156,1203,2094,592,2792,-493,4793,-11,-374,119,76,860
671432,6424848,6852584,6428640,6854624,1630,2147,192,2907,-539,4443,-33,51,119,76,860
672433,6425424,6852956,6429108,6855092,1607,2390,-208,3194,-618,4039,228,311,125,91,858
673434,6426016,6853292,6429576,6855560,1454,2673,-594,3634,-768,3555,528,578,125,91,858
674435,6426592,6853656,6430044,6856028,1507,2545,-965,4206,-963,2926,883,948,121,65,856
675443,6427196,6854036,6430516,6856500,1274,2485,-1343,4845,-1197,2241,1016,1137,121,65,856
676437,6427872,6854372,6430984,6856968,734,2818,-1719,5597,-1484,1691,1299,1319,101,59,855
677438,6428396,6854648,6431452,6857436,1660,3279,-2057,6328,-1874,1298,1897,1175,101,59,855
678439,6429008,6854964,6431920,6857904,1047,3095,-2340,6965,-2405,940,2583,650,120,64,856
679440,6429664,6855300,6432388,6858372,691,3030,-2598,7356,-3029,650,2847,26,120,64,856
680441,6430184,6855672,6432856,6858840,1518,2848,-2843,7666,-3616,739,2618,2,121,65,853
681442,6430760,6856028,6433324,6859308,1121,2997,-3105,7848,-4123,824,2597,-501,121,65,853
682443,6431336,6856416,6433792,6859776,1074,2833,-3397,7816,-4549,907,2696,-905,104,69,854
683444,6431924,6856796,6434260,6860244,947,2922,-3672,7691,-4921,879,2825,-1261,104,69,854
684445,6432448,6857160,6434728,6860712,1322,3068,-3932,7314,-5233,761,2716,-1742,97,74,855
685445,6432984,6857504,6435196,6861180,1219,3249,-4148,6766,-5530,553,2942,-2133,97,74,855
686446,6433520,6857980,6435664,6861648,1189,2421,-4303,6150,-5887,319,3877,-2341,121,93,852
687448,6434056,6858436,6436132,6862116,1160,2552,-4363,5228,-6303,293,4503,-3310,121,93,852
688449,6434556,6858888,6436600,6862584,1371,2585,-4373,3964,-6699,438,4150,-3913,86,85,856
689450,6435092,6859320,6437068,6863052,1116,2727,-4420,2770,-6949,253,2819,-3536,86,85,856
690451,6435524,6859760,6437536,6863520,1783,2689,-4507,1619,-7054,-23,1940,-3556,97,82,856
691452,6436012,6860200,6438004,6863988,1424,2702,-4599,414,-7136,-483,2649,-3511,97,82,856
692453,6436464,6860692,6438472,6864456,1656,2368,-4756,-707,-7184,-865,2829,-2995,83,109,855
693454,6436880,6861176,6438940,6864924,1905,2411,-4955,-1858,-7187,-935,2916,-3163,83,109,855
694455,6437360,6861644,6439408,6865392,1500,2512,-5181,-3123,-7117,-1017,2922,-3196,90,101,856
695456,6437840,6862104,6439876,6865860,1495,2566,-5411,-4206,-6902,-1266,2715,-2585,90,101,856
696456,6438188,6862580,6440344,6866328,2373,2464,-5631,-5156,-6471,-1683,1710,-2016,95,97,855
697458,6438472,6863048,6440812,6866796,2854,2514,-5861,-5817,-5898,-2310,618,-1109,95,97,855
698459,6438792,6863608,6441280,6867264,2695,1899,-6106,-6152,-5221,-2829,-335,-223,68,101,854
699460,6439196,6864052,6441748,6867732,2198,2636,-6411,-6300,-4459,-3011,-1414,336,68,101,854
700461,6439536,6864480,6442216,6868200,2655,2753,-6814,-6348,-3663,-3019,-2330,972,90,105,853
701462,6439888,6865000,6442684,6868668,2631,2156,-7232,-6476,-2856,-3003,-3016,1052,90,105,853
702462,6440232,6865440,6443152,6869136,2737,2670,-7590,-6729,-2034,-2939,-3495,1060,72,96,851
703464,6440536,6866032,6443620,6869604,3059,1666,-7899,-7062,-1201,-2887,-3672,1028,72,96,851
704465,6440820,6866624,6444088,6870072,3266,1612,-8196,-7458,-384,-2658,-3686,1106,77,113,851
705466,6441132,6867080,6444556,6870540,3160,2468,-8472,-7932,420,-2148,-3925,1076,77,113,851
706467,6441464,6867520,6445024,6871008,3095,2581,-8721,-8413,1218,-1697,-4329,1512,67,85,851
707468,6441748,6867992,6445492,6871476,3477,2380,-8983,-8811,1985,-1360,-4833,2333,67,85,851
708468,6442076,6868564,6445960,6871944,3264,1710,-9267,-8902,2760,-850,-5296,3467,79,105,847
709470,6442364,6869164,6446428,6872412,3593,1478,-9522,-8725,3635,-224,-5437,4644,79,105,847
710479,6442696,6869544,6446900,6872884,3381,2893,-10111,-7695,4372,0,-4404,8077,77,113,850
711471,6443040,6870100,6447368,6873352,3361,1756,-10544,-6852,4899,94,-3756,6270,77,113,850
712472,6443380,6870652,6447836,6873820,3444,1744,-9765,-4798,5186,3505,-2464,14862,76,127,847
713474,6443732,6871320,6448304,6874288,3421,932,-1934,11999,3981,27173,2030,32767,76,127,847
714475,6444112,6872020,6448772,6874756,3284,631,7618,29390,2633,19310,-1638,32767,91,117,851
715475,6444520,6872660,6449240,6875224,3137,930,10354,29896,2542,6294,-2040,-978,91,117,851
716477,6444896,6873324,6449708,6875692,3378,695,9186,26253,2878,5824,62,-4539,76,137,854
717478,6445312,6873916,6450176,6876160,3152,1091,7592,19607,2905,5876,-84,-7498,76,137,854
718478,6445760,6874532,6450644,6876628,2962,876,7009,15530,2591,5094,120,-5710,91,111,854
719479,6446212,6875088,6451112,6877096,2945,1213,6752,12514,2237,4083,969,-5866,91,111,854
720481,6446636,6875660,6451580,6877564,3140,1067,6308,9507,1657,3926,720,-6128,100,107,855
721482,6447088,6876180,6452048,6878032,2973,1370,5679,6306,961,2822,1141,-5524,100,107,855
722483,6447564,6876572,6452516,6878500,2821,2204,4811,3659,488,2100,77,-2155,92,90,854
723484,6448016,6876960,6452984,6878968,2979,2264,3848,1579,-94,1354,1327,-2231,92,90,854
724484,6448508,6877300,6453452,6879436,2719,2621,2949,-524,-899,-30,4243,-2167,106,83,853
725486,6448992,6877624,6453920,6879904,2763,2784,2002,-1870,-1770,-1633,4098,551,106,83,853
726486,6449436,6877864,6454388,6880372,3025,3411,1155,-3410,-3067,-3812,5522,-1218,101,54,851
727487,6449920,6878128,6454856,6880840,2769,3350,384,-4848,-4615,-5878,6344,522,101,54,851
728489,6450392,6878384,6455324,6881308,2843,3494,-659,-5142,-6083,-6512,4880,4233,100,65,845
729490,6450832,6878636,6455792,6881776,3055,3614,-1836,-4425,-7263,-7061,2816,5307,100,65,845
730490,6451364,6878880,6456260,6882244,2453,3764,-2900,-3997,-7881,-8077,-333,4788,103,50,844
731491,6451824,6879160,6456728,6882712,2908,3621,-3572,-3920,-8100,-8239,-2646,4117,103,50,844
732505,6452284,6879424,6457196,6883180,2912,3800,-3880,-4317,-8296,-8569,-2163,2844,92,49,844
733506,6452768,6879696,6457664,6883648,2756,3800,-4098,-4876,-8487,-8936,-2755,3062,92,49,844
734507,6453268,6879956,6458132,6884116,2643,3800,-4402,-5342,-8508,-8753,-3675,3244,83,50,843
735508,6453768,6880228,6458600,6884584,2630,3800,-4644,-5777,-8200,-8630,-4512,3594,83,50,843
736509,6454232,6880512,6459068,6885052,2858,3800,-4693,-5958,-7536,-8218,-5587,4044,95,55,843
737498,6454780,6880880,6459536,6885520,2299,3555,-4570,-6392,-6606,-7548,-6357,3335,95,55,843
738499,6455276,6881232,6460004,6885988,2612,3707,-4431,-6985,-5540,-7222,-6253,3240,98,74,843
739500,6455776,6881620,6460472,6886456,2574,3518,-4355,-7926,-4449,-6530,-5792,2206,98,74,843
740501,6456328,6882028,6460940,6886924,2213,3420,-4447,-8863,-3395,-5489,-5170,2981,94,84,845
741502,6456884,6882436,6461408,6887392,2151,3447,-4673,-9645,-2363,-4838,-4369,3440,94,84,845
742503,6457352,6882904,6461876,6887860,2701,3073,-3184,-11173,-1584,-1650,-4374,16664,108,90,847
743504,6457968,6883324,6462344,6888328,1712,3395,1243,-13065,-1357,2194,-3949,32767,108,90,847
744505,6458500,6883784,6462812,6888796,2209,3149,3444,-14284,-839,-1710,-2935,6452,111,96,849
745513,6459040,6884248,6463284,6889268,2131,3129,3237,-15170,-99,-2263,-2831,3065,111,96,849
746507,6459628,6884708,6463752,6889736,1779,3158,2433,-15723,555,-2285,-2409,3708,111,109,850
747508,6460168,6885192,6464220,6890204,2047,3002,2133,-16533,1053,-1944,-1907,3270,111,109,850
748509,6460740,6885688,6464688,6890672,1802,2916,2211,-17082,1415,-1423,-2044,3983,127,100,851
749510,6461316,6886148,6465156,6891140,1731,3145,2296,-17326,1662,-1630,-1225,5002,127,100,851
750511,6461924,6886640,6465624,6891608,1470,2936,2155,-17064,1734,-1144,-527,7021,120,93,851
751511,6462472,6887168,6466092,6892076,1810,2685,1969,-16411,1734,-364,-81,6791,120,93,851
752512,6463020,6887692,6466560,6892544,1776,2687,1893,-15855,1723,22,529,6645,100,107,852
753514,6463612,6888144,6467028,6893012,1448,3145,1809,-15088,1640,670,580,7697,100,107,852
754514,6464124,6888696,6467496,6893480,1928,2484,1684,-14268,1521,1112,737,7764,114,99,854
755516,6464636,6889200,6467964,6893948,1910,2769,1608,-13459,1456,1605,391,7457,114,99,854
756516,6465172,6889640,6468432,6894416,1731,3182,1530,-12866,1389,2165,21,6319,111,110,853
757518,6465728,6890148,6468900,6894884,1567,2741,1577,-12670,1298,2197,24,4992,111,110,853
758518,6466192,6890644,6469368,6895352,2145,2804,1676,-12917,1209,2340,96,4267,90,101,854
759519,6466760,6891176,6469836,6895820,1452,2551,1912,-13206,1110,2552,3,3611,90,101,854
760520,6467216,6891692,6470304,6896288,2158,2631,2146,-13573,1058,2449,-14,3353,108,102,855
761522,6467724,6892136,6470772,6896756,1816,3093,2411,-13763,1126,2155,-501,3635,108,102,855
762523,6468244,6892552,6471240,6897224,1718,3292,2612,-13996,1302,1816,-1211,3485,112,83,855
763523,6468720,6893016,6471708,6897692,1991,2994,2840,-14151,1541,1380,-1379,3506,112,83,855
764524,6469164,6893456,6472176,6898160,2201,3158,3049,-14123,1796,736,-1777,4102,108,86,851
765525,6469644,6893888,6472644,6898628,1972,3225,3256,-14003,2015,107,-2031,3868,108,86,851
766526,6470068,6894356,6473112,6899096,2342,3001,3434,-13937,2209,-88,-1880,3953,110,91,851
767527,6470492,6894800,6473580,6899564,2362,3162,3639,-13577,2462,-105,-1707,4527,110,91,851
768528,6470856,6895260,6474048,6900032,2783,3066,3742,-13120,2783,-42,-1583,4549,95,87,851
769530,6471288,6895724,6474516,6900500,2374,3043,3888,-12748,3097,44,-1083,3870,95,87,851
770531,6471672,6896208,6474984,6900968,2712,2912,4078,-12596,3387,155,-502,3263,79,83,849
771532,6472076,6896568,6475452,6901436,2616,3736,4304,-12480,3603,335,0,2967,79,83,849
772533,6472488,6897048,6475920,6901904,2591,2981,4531,-12290,3820,353,-126,3029,91,98,849
773534,6472828,6897500,6476388,6902372,3098,3165,4687,-11886,4134,515,-713,3942,91,98,849
774534,6473172,6897952,6476856,6902840,3128,3173,4733,-11092,4517,808,-981,4516,81,93,845
775535,6473564,6898440,6477324,6903308,2862,2940,4694,-10135,4886,1267,-501,4770,81,93,845
776536,6473888,6898928,6477792,6903776,3351,2932,4616,-9044,5135,1676,89,5195,85,91,846
777538,6474188,6899460,6478260,6904244,3576,2630,4450,-7976,5305,1826,163,5234,85,91,846
778539,6474528,6899948,6478728,6904712,3383,2897,4261,-6860,5588,1931,-1051,5108,81,89,848
779540,6474828,6900412,6479196,6905180,3707,3050,4135,-5923,5899,1889,-1501,4308,81,89,848
780547,6475164,6900896,6479668,6905652,3543,2920,4105,-5141,6050,1915,-986,3976,64,89,845
781542,6475472,6901400,6480136,6906120,3789,2780,4021,-4082,6372,2590,-2851,5061,64,89,845
782542,6475812,6901900,6480604,6906588,3646,2792,3964,-3029,6644,3081,-1723,3907,68,93,843
783556,6476124,6902480,6481072,6907056,3800,2243,4055,-2388,6672,3073,-960,2784,68,93,843
784544,6476484,6903032,6481540,6907524,3639,2383,4254,-2011,6510,3132,-769,2237,79,96,844
785546,6476864,6903596,6482008,6907992,3554,2266,4421,-1515,6347,3357,-1183,2524,79,96,844
786547,6477236,6904216,6482476,6908460,3647,1851,4476,-845,6166,3280,-951,2928,69,106,846
787548,6477604,6904816,6482944,6908928,3717,1919,4458,-16,5909,3282,-631,3314,69,106,846
788548,6478032,6905440,6483412,6909396,3361,1700,4408,961,5594,3375,-785,3410,94,124,848
789550,6478456,6906004,6483880,6909864,3406,2034,4389,1889,5254,3499,-832,2836,94,124,848
790550,6478856,6906592,6484348,6910332,3587,1832,4421,2461,4868,3615,-747,1847,81,106,849
791551,6479380,6907212,6484816,6910800,2788,1566,4496,2801,4447,3548,-885,1342,81,106,849
792552,6479844,6907776,6485284,6911268,3166,1874,4548,3258,4127,3649,-1246,1591,93,112,850
793554,6480304,6908508,6485752,6911736,3196,709,4578,3718,3831,3824,-965,1301,93,112,850
794555,6480848,6909044,6486220,6912204,2638,1905,4553,4089,3437,4021,-507,1161,105,111,855
795556,6481300,6909716,6486688,6912672,3221,966,4544,4339,3016,4070,-502,600,105,111,855
796556,6481856,6910312,6487156,6913140,2534,1385,4536,4304,2579,4139,-590,-259,96,127,854
797557,6482388,6910920,6487624,6913608,2656,1249,4511,4116,2094,3941,-323,-648,96,127,854
798558,6482872,6911560,6488092,6914076,2950,974,4496,3814,1650,3638,-437,-1082,115,132,855
799559,6483464,6912156,6488560,6914544,2222,1193,4476,3405,1209,3519,-579,-1566,115,132,855
800560,6483992,6912824,6489028,6915012,2597,656,4433,2916,819,3549,-543,-1563,113,129,857
801561,6484580,6913460,6489496,6915480,2170,782,4353,2501,479,3821,-365,-1572,113,129,857
802563,6485156,6914084,6489964,6915948,2198,789,4167,2235,204,4317,-525,-995,119,131,859
803564,6485728,6914600,6490432,6916416,2179,1444,3931,2089,-23,4281,-420,-772,119,131,859
804565,6486404,6915236,6490900,6916884,1438,620,3702,1911,-273,4238,-215,-1039,123,115,860
805566,6486956,6915764,6491368,6917352,2177,1268,3444,1851,-528,4397,94,-634,123,115,860
806567,6487540,6916252,6491836,6917820,1926,1511,3139,1959,-758,4116,316,-306,122,93,858
807568,6488208,6916748,6492304,6918288,1315,1448,2773,2280,-980,3780,157,55,122,93,858
808568,6488820,6917188,6492772,6918756,1602,1811,2384,2753,-1157,3217,-267,258,131,81,858
809570,6489396,6917520,6493240,6919224,1781,2546,2005,3260,-1271,2962,-392,344,131,81,858
810571,6490040,6917932,6493708,6919692,1278,2071,1609,3916,-1320,2918,-429,674,99,85,861
811572,6490600,6918324,6494176,6920160,1764,2229,1149,4629,-1377,2812,252,881,99,85,861
812573,6491188,6918660,6494644,6920628,1537,2638,651,5445,-1527,2818,933,938,105,78,855
813573,6491808,6918988,6495112,6921096,1270,2750,149,6108,-1787,2458,1616,170,105,78,855
814575,6492424,6919348,6495580,6921564,1231,2597,-355,6708,-2142,2174,2218,-125,110,66,856
815582,6493012,6919680,6496052,6922036,1356,2835,-862,7110,-2531,1715,2404,-677,110,66,856
816576,6493600,6920016,6496520,6922504,1304,2868,-1366,7382,-2938,1548,2700,-903,118,74,855
817578,6494228,6920308,6496988,6922972,984,3221,-1830,7539,-3401,1297,3378,-1402,118,74,855
818579,6494824,6920604,6497456,6923440,1128,3272,-2241,7466,-3973,824,4216,-2174,129,75,854
819580,6495368,6920956,6497924,6923908,1421,2974,-2667,7218,-4614,576,4974,-2451,129,75,854
820580,6495996,6921272,6498392,6924376,825,3266,-3145,6853,-5233,481,5137,-2684,96,80,853
821582,6496576,6921644,6498860,6924844,1077,2959,-3671,6397,-5748,743,4572,-2855,96,80,853
822583,6497084,6922048,6499328,6925312,1510,2788,-4177,5906,-6087,899,3672,-2854,122,73,853
823584,6497728,6922428,6499796,6925780,583,2977,-4625,5395,-6317,761,3104,-2686,122,73,853
824584,6498248,6922792,6500264,6926248,1335,3123,-5027,4821,-6563,324,3138,-2663,118,87,855
825586,6498784,6923176,6500732,6926716,1206,3036,-5373,4181,-6900,-77,3366,-3044,118,87,855
826587,6499296,6923596,6501200,6927184,1337,2832,-5639,3255,-7265,-32,3029,-3812,89,83,856
827588,6499820,6924088,6501668,6927652,1238,2373,-5839,2107,-7529,250,1727,-4150,89,83,856
828589,6500284,6924512,6502136,6928120,1615,2818,-6048,883,-7632,197,1060,-3920,84,85,853
829589,6500760,6924936,6502604,6928588,1537,2837,-6288,-170,-7600,-119,951,-3618,84,85,853
830590,6501188,6925384,6503072,6929056,1854,2697,-6544,-1128,-7430,-633,730,-3056,106,96,856
831591,6501636,6925860,6503540,6929524,1739,2520,-6787,-1955,-7134,-932,865,-2521,106,96,856
832592,6502024,6926344,6504008,6929992,2149,2463,-7005,-2757,-6801,-888,1389,-2606,81,94,854
833594,6502520,6926864,6504476,6930460,1462,2216,-7194,-3694,-6461,-979,1767,-2720,81,94,854
834595,6502972,6927344,6504944,6930928,1745,2462,-7422,-4538,-6082,-1248,1750,-2045,78,92,855
835596,6503376,6927844,6505412,6931396,2073,2322,-7708,-5148,-5609,-1800,1331,-1224,78,92,855
836597,6503756,6928272,6505880,6931864,2262,2791,-7995,-5579,-5036,-2482,765,-445,82,93,857
837598,6504036,6928784,6506348,6932332,2971,2248,-8277,-5717,-4392,-2983,86,378,82,93,857
838599,6504392,6929328,6506816,6932800,2545,2014,-8638,-5653,-3762,-3521,-265,1152,84,88,855
839600,6504784,6929732,6507284,6933268,2354,2918,-9087,-5461,-3156,-3887,-812,1599,84,88,855
840600,6505128,6930232,6507752,6933736,2709,2305,-9501,-5357,-2563,-3945,-1630,1416,72,100,851
841601,6505476,6930720,6508220,6934204,2737,2372,-9845,-5447,-1953,-3736,-2590,1489,72,100,851
842602,6505816,6931212,6508688,6934672,2844,2337,-10129,-5574,-1294,-3485,-3348,1828,87,113,851
843603,6506120,6931740,6509156,6935140,3142,2087,-10368,-5730,-581,-3302,-3787,1971,87,113,851
844604,6506420,6932416,6509624,6935608,3241,1070,-10611,-5960,154,-3018,-4234,2208,66,106,851
845605,6506764,6932844,6510092,6936076,3021,2639,-10824,-6252,873,-2537,-4505,2346,66,106,851
846606,6507068,6933280,6510560,6936544,3344,2604,-10967,-6602,1553,-1924,-4803,2443,72,87,851
847607,6507372,6933824,6511028,6937012,3416,1895,-11017,-7141,2151,-1415,-4928,2409,72,87,851
848608,6507680,6934428,6511496,6937480,3462,1462,-11071,-7642,2662,-1017,-4752,3176,78,104,848
849610,6508004,6935000,6511964,6937948,3427,1616,-11189,-7800,3229,-369,-5123,4547,78,104,848
850619,6508324,6935312,6512436,6938420,3519,3312,-11279,-7581,3806,9,-5035,5825,64,117,848
851612,6508664,6935928,6512904,6938888,3451,1348,-7722,-1966,4034,8191,-4031,32767,64,117,848
852612,6509024,6936528,6513372,6939356,3374,1390,2775,19249,2787,27458,-428,32767,72,123,850
853614,6509380,6937200,6513840,6939824,3449,852,10003,29896,2001,11151,-3263,19549,72,123,850
854614,6509736,6937808,6514308,6940292,3500,1190,10748,29457,2130,5919,-1526,-2434,71,136,851
855615,6510132,6938548,6514776,6940760,3282,247,8804,22341,2413,5860,-336,-7004,71,136,851
856616,6510532,6939120,6515244,6941228,3287,1251,7645,16324,2429,5892,-804,-7434,77,138,853
857618,6510932,6939744,6515712,6941696,3318,857,7153,12781,2399,5427,-606,-4879,77,138,853
858618,6511384,6940304,6516180,6942164,3001,1218,6808,10160,2322,4931,206,-5028,95,115,856
859620,6511804,6940824,6516648,6942632,3223,1445,5790,7861,1978,4655,889,-2555,95,115,856
860620,6512240,6941412,6517116,6943100,3138,968,4329,5786,1389,2840,1722,-1308,90,107,854
861622,6512712,6941868,6517584,6943568,2913,1799,3031,3719,691,1572,912,-1571,90,107,854
862622,6513172,6942344,6518052,6944036,2992,1670,2195,1043,-57,999,1095,-3890,102,88,851
863623,6513600,6942740,6518520,6944504,3211,2203,1758,-1655,-763,-288,1601,-3061,102,88,851
864624,6514120,6943076,6518988,6944972,2614,2636,1319,-3703,-1412,-1241,1658,-737,87,81,853
865625,6514604,6943368,6519456,6945440,2833,2988,850,-5214,-2204,-3120,2687,-129,87,81,853
866626,6515064,6943676,6519924,6945908,2987,2959,317,-6278,-3209,-5007,3940,1800,91,59,850
867628,6515584,6943964,6520392,6946376,2590,3163,-304,-6361,-4421,-5785,4498,4505,91,59,850
868629,6516088,6944208,6520860,6946844,2676,3537,-937,-5924,-5665,-6716,4970,5333,98,63,847
869642,6516576,6944424,6521328,6947312,2767,3800,-1371,-5382,-6782,-7897,4847,5549,98,63,847
870643,6517076,6944656,6521796,6947780,2679,3800,-1719,-4823,-7487,-8235,2342,6320,108,47,847
871644,6517632,6944892,6522264,6948248,2291,3800,-2114,-4129,-7573,-8422,-584,6766,108,47,847
872645,6518156,6945104,6522732,6948716,2467,3800,-2538,-3448,-7373,-9106,-1117,6465,93,48,843
873646,6518664,6945316,6523200,6949184,2551,3800,-2742,-3243,-7362,-9561,-608,4919,93,48,843
874647,6519180,6945524,6523668,6949652,2481,3800,-2901,-3526,-7580,-9819,-417,4235,114,56,843
875648,6519700,6945732,6524136,6950120,2434,3800,-3049,-3957,-7697,-9586,-989,3819,114,56,843
876649,6520172,6945940,6524604,6950588,2733,3800,-3252,-4621,-7475,-8968,-1994,3061,111,45,843
877650,6520752,6946236,6525072,6951056,2009,3800,-3403,-5426,-6938,-8350,-2638,2763,111,45,843
878651,6521260,6946520,6525540,6951524,2442,3800,-3550,-6400,-6165,-7398,-2922,2513,118,55,845
879652,6521800,6946860,6526008,6951992,2212,3800,-3722,-7588,-5238,-6335,-3415,2172,118,55,845
880653,6522336,6947224,6526476,6952460,2208,3800,-2925,-9332,-4234,-4284,-3802,8223,102,84,846
881642,6522856,6947620,6526944,6952928,2286,3772,794,-11732,-3610,408,-4086,32767,102,84,846
882642,6523368,6948060,6527412,6953396,2317,3510,3157,-13274,-2802,-2235,-3263,9700,109,86,847
883644,6523932,6948524,6527880,6953864,1950,3363,2893,-14122,-1788,-2672,-2147,3393,109,86,847
884645,6524448,6949024,6528348,6954332,2230,3125,1748,-14426,-917,-2501,-1824,4066,112,101,846
885653,6525028,6949540,6528820,6954804,1784,3007,1069,-15376,-290,-2297,-1736,1916,112,101,846
886646,6525592,6950056,6529288,6955272,1842,2987,826,-16608,114,-1700,-1821,2311,108,103,851
887647,6526156,6950608,6529756,6955740,1801,2726,699,-17643,403,-1328,-1704,2838,108,103,851
888648,6526744,6951156,6530224,6956208,1599,2717,552,-18577,683,-769,-1840,2430,106,116,853
889649,6527296,6951668,6530692,6956676,1787,2923,350,-19112,933,-95,-1493,3950,106,116,853
890650,6527872,6952212,6531160,6957144,1590,2690,132,-19466,1119,353,-736,4614,115,108,854
891651,6528432,6952788,6531628,6957612,1651,2443,-5,-19471,1182,1109,-664,5035,115,108,854
892652,6528928,6953336,6532096,6958080,2039,2584,-68,-19377,1168,1347,-979,5059,98,124,854
893653,6529496,6953844,6532564,6958548,1546,2818,-157,-19036,1151,1742,-1160,6603,98,124,854
894654,6530028,6954440,6533032,6959016,1744,2212,-311,-18090,1108,2160,-1144,7886,121,116,855
895655,6530516,6954920,6533500,6959484,2010,2933,-416,-17151,1124,2418,-1410,7420,121,116,855
896656,6531032,6955444,6533968,6959952,1815,2635,-382,-16282,1198,2642,-1973,7190,88,94,854
897657,6531552,6955928,6534436,6960420,1767,2879,-253,-15629,1258,2850,-1871,6672,88,94,854
898658,6532004,6956432,6534904,6960888,2200,2739,-3,-15234,1241,2878,-1323,5815,103,101,852
899659,6532544,6956952,6535372,6961356,1618,2616,321,-14906,1129,2974,-954,5466,103,101,852
900661,6533012,6957424,6535840,6961824,2069,2915,712,-14651,1016,2685,-987,4998,110,99,853
901662,6533492,6957856,6536308,6962292,1989,3182,1082,-14255,1016,2529,-1267,5818,110,99,853
902662,6533996,6958284,6536776,6962760,1824,3225,1423,-13610,1138,2316,-1639,6025,106,77,855
903663,6534460,6958720,6537244,6963228,2076,3191,1790,-13130,1322,2081,-1821,5338,106,77,855
904664,6534908,6959128,6537712,6963696,2186,3393,2262,-12643,1512,1257,-1926,5293,86,83,851
905666,6535356,6959580,6538180,6964164,2196,3126,2723,-12432,1684,591,-2106,4475,86,83,851
906667,6535784,6960024,6538648,6964632,2338,3187,3258,-12249,1817,500,-1916,4277,89,96,849
907667,6536200,6960444,6539116,6965100,2437,3359,3742,-11958,2036,597,-1814,4502,89,96,849
908668,6536576,6960916,6539584,6965568,2727,3033,4228,-11666,2360,1218,-1940,3866,95,95,850
909669,6537000,6961364,6540052,6966036,2448,3193,4628,-11353,2814,1609,-2008,3963,95,95,850
910670,6537364,6961800,6540520,6966504,2868,3283,4971,-10945,3291,1348,-1675,4197,81,84,847
911671,6537776,6962180,6540988,6966972,2594,3672,5273,-10506,3673,1227,-1368,3555,81,84,847
912672,6538168,6962680,6541456,6967440,2753,2909,5598,-10304,3978,1149,-1210,2901,96,101,848
913674,6538520,6963124,6541924,6967908,3054,3271,5922,-9894,4340,1150,-1672,3762,96,101,848
914674,6538876,6963604,6542392,6968376,3080,3042,6074,-9120,4778,1271,-2257,4497,71,100,846
915675,6539228,6964104,6542860,6968844,3156,2904,6165,-8319,5210,1332,-2233,4143,71,100,846
916676,6539532,6964636,6543328,6969312,3529,2675,6242,-7532,5562,1408,-1900,4059,90,97,845
917678,6539844,6965144,6543796,6969780,3548,2809,6327,-6840,5812,1557,-1540,3380,90,97,845
918678,6540180,6965664,6544264,6970248,3457,2712,6366,-6179,6061,1728,-2036,3450,70,90,846
919679,6540492,6966100,6544732,6970716,3676,3252,6366,-5345,6418,1851,-2690,4114,70,90,846
920687,6540812,6966624,6545204,6971188,3694,2680,6257,-4284,6686,2002,-2059,4446,62,95,845
921694,6541108,6967144,6545672,6971656,3800,2683,5986,-2774,7043,2713,-3368,5627,62,95,845
922682,6541456,6967704,6546140,6972124,3649,2394,5717,-1377,7314,3234,-2338,4514,73,98,843
923696,6541780,6968268,6546608,6972592,3800,2328,5678,-647,7263,3224,-1108,2618,73,98,843
924685,6542128,6968768,6547076,6973060,3767,2714,5772,-187,6972,3009,-726,2399,76,121,844
925685,6542492,6969384,6547544,6973528,3714,1925,5782,427,6666,3264,-885,2689,76,121,844
926686,6542868,6969984,6548012,6973996,3680,1968,5656,1218,6393,3436,-973,2889,66,103,846
927700,6543200,6970628,6548480,6974464,3800,1616,5444,2054,6066,3390,-535,3079,66,103,846
928688,6543596,6971244,6548948,6974932,3648,1726,5210,2989,5627,3592,-279,3076,92,116,847
929690,6544004,6971756,6549416,6975400,3601,2358,5076,3747,5203,3901,-523,1865,92,116,847
930703,6544384,6972404,6549884,6975868,3800,1430,5024,4053,4783,3949,-582,895,72,107,849
931691,6544856,6973016,6550352,6976336,3240,1591,4972,4108,4348,3917,-723,461,72,107,849
932692,6545308,6973628,6550820,6976804,3373,1529,4875,4287,3953,3867,-890,708,80,133,847
933694,6545728,6974252,6551288,6977272,3595,1387,4774,4421,3571,4098,-651,111,80,133,847
934695,6546280,6974884,6551756,6977740,2734,1265,4611,4348,3106,4228,-189,-317,83,115,852
935696,6546744,6975516,6552224,6978208,3287,1194,4442,4166,2588,4176,-186,-601,83,115,852
936696,6547244,6976060,6552692,6978676,3049,1710,4327,3813,2047,4063,-202,-1338,90,127,851
937698,6547740,6976752,6553160,6979144,3062,688,4226,3326,1483,3938,-208,-1684,90,127,851
938699,6548256,6977296,6553628,6979612,2917,1579,4147,2872,1009,3887,-560,-1503,118,121,853
939700,6548820,6978036,6554096,6980080,2576,236,4030,2590,665,4014,-758,-1017,118,121,853
940701,6549392,6978656,6554564,6980548,2481,919,3881,2461,359,3981,-727,-795,120,125,856
941702,6549924,6979356,6555032,6981016,2704,317,3756,2399,45,3705,-356,-871,120,125,856
942703,6550516,6979948,6555500,6981484,2276,939,3630,2212,-332,3884,-145,-1056,108,136,859
943703,6551092,6980520,6555968,6981952,2329,1018,3448,2004,-695,4035,-292,-1006,108,136,859
944704,6551736,6981084,6556436,6982420,1828,1026,3209,1860,-1002,3884,-471,-918,108,104,858
945706,6552312,6981604,6556904,6982888,2206,1279,2936,1860,-1273,3922,-436,-590,108,104,858
946707,6552956,6982112,6557372,6983356,1705,1336,2600,2096,-1521,3749,-137,299,120,104,859
947708,6553612,6982572,6557840,6983824,1549,1640,2167,2768,-1743,3649,33,1298,120,104,859
948708,6554244,6982928,6558308,6984292,1626,2339,1709,3617,-1919,3264,37,1194,120,85,858
949710,6554856,6983300,6558776,6984760,1689,2282,1302,4449,-2049,2999,140,1158,120,85,858
950711,6555464,6983708,6559244,6985228,1654,2083,906,5283,-2123,2949,78,1185,128,75,858
951712,6556036,6984048,6559712,6985696,1834,2565,497,6064,-2181,2745,273,919,128,75,858
952712,6556656,6984364,6560180,6986164,1467,2782,47,6807,-2267,2813,673,910,113,65,856
953714,6557280,6984684,6560648,6986632,1375,2823,-419,7436,-2418,2771,1371,273,113,65,856
954715,6557876,6985000,6561116,6987100,1494,2914,-908,7963,-2683,2442,2237,-244,110,55,854
955722,6558540,6985308,6561588,6987572,985,3037,-1380,8209,-3071,1931,2670,-1097,110,55,854
956716,6559136,6985628,6562056,6988040,1355,3027,-1811,8147,-3492,1576,2739,-1651,111,77,854
957718,6559796,6985944,6562524,6988508,870,3119,-2214,8017,-3897,1341,2968,-1777,111,77,854
958718,6560396,6986236,6562992,6988976,1188,3348,-2577,7803,-4307,986,3334,-2193,117,72,854
959719,6560968,6986572,6563460,6989444,1318,3131,-2943,7448,-4712,885,3589,-2298,117,72,854
960720,6561560,6986896,6563928,6989912,1139,3270,-3331,7089,-5081,810,3924,-2328,112,66,852
961722,6562092,6987232,6564396,6990380,1486,3254,-3710,6622,-5422,719,4054,-2786,112,66,852
962723,6562664,6987632,6564864,6990848,1191,2884,-4050,6026,-5764,415,3961,-3052,117,85,852
963724,6563276,6988028,6565332,6991316,878,2941,-4323,5297,-6122,-16,3810,-3022,117,85,852
964724,6563824,6988372,6565800,6991784,1244,3321,-4523,4424,-6528,-127,3762,-3632,96,83,852
965726,6564352,6988760,6566268,6992252,1342,3082,-4688,3380,-6895,-180,2887,-3890,96,83,852
966727,6564808,6989180,6566736,6992720,1798,2904,-4856,2225,-7137,-225,2305,-3975,102,85,855
967728,6565384,6989660,6567204,6993188,1001,2524,-5038,1159,-7257,-360,2042,-3530,102,85,855
968728,6565828,6990064,6567672,6993656,1837,3028,-5231,297,-7218,-614,1673,-3005,102,100,852
969730,6566272,6990536,6568140,6994124,1847,2602,-5424,-422,-7069,-894,1630,-2563,102,100,852
970731,6566760,6991004,6568608,6994592,1565,2627,-5622,-1228,-6873,-1419,2031,-2531,91,100,857
971732,6567176,6991460,6569076,6995060,2037,2709,-5817,-1990,-6647,-1685,2160,-2237,91,100,857
972733,6567596,6991996,6569544,6995528,2034,2180,-6000,-2727,-6360,-1869,2099,-2217,81,106,853
973734,6568096,6992468,6570012,6995996,1520,2579,-6172,-3413,-6010,-2446,1964,-1892,81,106,853
974735,6568560,6992992,6570480,6996464,1747,2229,-6337,-3904,-5561,-3189,1031,-1200,98,107,853
975735,6568936,6993424,6570948,6996932,2339,2821,-6538,-4221,-4992,-3794,-43,-347,98,107,853
976736,6569312,6993892,6571416,6997400,2379,2597,-6802,-4241,-4351,-4240,-492,912,82,106,855
977737,6569592,6994376,6571884,6997868,3062,2490,-7136,-3989,-3732,-4712,-804,1619,82,106,855
978738,6569980,6994832,6572352,6998336,2423,2671,-7510,-3704,-3225,-5300,-306,1775,93,90,851
979739,6570380,6995296,6572820,6998804,2378,2624,-7949,-3577,-2865,-5647,-293,1799,93,90,851
980740,6570732,6995812,6573288,6999272,2730,2278,-8406,-3603,-2546,-5322,-681,1621,96,85,849
981741,6571076,6996256,6573756,6999740,2834,2740,-8839,-3853,-2089,-4900,-1440,1205,96,85,849
982742,6571416,6996740,6574224,7000208,2916,2484,-9197,-4254,-1411,-4509,-2455,1255,85,112,851
983743,6571772,6997272,6574692,7000676,2866,2155,-9488,-4704,-575,-4085,-3012,1461,85,112,851
984744,6572076,6997932,6575160,7001144,3264,1272,-9804,-5233,260,-3475,-2936,1557,85,100,848
985745,6572384,6998364,6575628,7001612,3309,2713,-10172,-5910,986,-2862,-2728,1466,85,100,848
986746,6572732,6998796,6576096,7002080,3113,2730,-10519,-6788,1576,-2427,-2626,1240,81,86,851
987747,6573036,6999332,6576564,7002548,3461,2051,-10787,-7813,2128,-1860,-3018,1299,81,86,851
988748,6573352,6999904,6577032,7003016,3453,1780,-10949,-8762,2727,-1154,-3636,1865,64,109,847
989749,6573700,7000444,6577500,7003484,3306,1949,-11069,-9726,3376,-412,-3854,2085,64,109,847
990760,6574012,7000824,6577972,7003956,3603,2990,-11138,-10429,3991,224,-3944,3470,77,107,849
991751,6574336,7001436,6578440,7004424,3591,1478,-11050,-10645,4522,1540,-3398,6123,77,107,849
992752,6574704,7002048,6578908,7004892,3361,1415,-5074,90,4450,16588,-2013,32767,77,121,849
993754,6575052,7002760,6579376,7005360,3540,683,5616,21150,3404,24906,-1256,32767,77,121,849
994754,6575392,7003356,6579844,7005828,3647,1353,10650,28689,3076,7470,-1721,4490,63,130,849
995756,6575768,7004092,6580312,7006296,3463,360,9709,24696,3283,5666,312,-2931,63,130,849
996756,6576108,7004676,6580780,7006764,3746,1260,7773,17472,3340,5621,778,-7975,72,123,853
997757,6576508,7005296,6581248,7007232,3401,968,6812,11805,3017,5355,904,-7890,72,123,853
998759,6576932,7005900,6581716,7007700,3271,1009,6189,8787,2579,4781,1547,-3849,99,131,854
999760,6577348,7006400,6582184,7008168,3345,1645,4976,7003,2046,5210,2496,-1631,99,131,854
1000760,6577752,7006980,6582652,7008636,3449,1096,3333,5320,1243,5104,3083,-1249,79,111,853
1001762,6578180,7007520,6583120,7009104,3317,1315,2059,2829,409,3657,3053,-3246,79,111,853
1002763,6578668,7007980,6583588,7009572,2935,1819,1258,-132,-320,3476,2923,-3847,82,106,851
1003764,6579108,7008388,6584056,7010040,3248,2170,698,-3198,-971,2697,2108,-4237,82,106,851
1004765,6579576,7008752,6584524,7010508,3074,2491,157,-5788,-1564,862,766,-2441,86,75,852
1005765,6580084,7009068,6584992,7010976,2807,2859,-244,-7575,-2250,-935,-125,-1099,86,75,852
1006767,6580544,7009360,6585460,7011444,3112,3086,-610,-8955,-3105,-3076,618,619,99,75,847
1007767,6581024,7009672,6585928,7011912,2983,3030,-986,-9382,-4018,-4699,1016,4060,99,75,847
1008768,6581520,7009916,6586396,7012380,2871,3554,-1398,-8862,-4965,-5452,1572,5982,95,65,848
1009782,6582004,7010116,6586864,7012848,2940,3800,-1666,-7835,-6042,-6828,3241,6694,95,65,848
1010783,6582484,7010320,6587332,7013316,2961,3800,-1887,-6673,-7016,-8143,2610,8071,100,50,846
1011784,6582996,7010532,6587800,7013784,2742,3800,-2062,-5467,-7715,-8505,1288,8189,100,50,846
1012785,6583504,7010740,6588268,7014252,2750,3800,-2176,-4223,-8179,-9260,505,8411,108,53,841
1013786,6583996,7010912,6588736,7014720,2841,3800,-2285,-3029,-8425,-9916,-871,8405,108,53,841
1014787,6584536,7011088,6589204,7015188,2510,3800,-2398,-2031,-8523,-10008,-2117,8014,95,34,842
1015788,6585008,7011264,6589672,7015656,2934,3800,-2473,-1253,-8437,-9944,-2770,7457,95,34,842
1016789,6585524,7011436,6590140,7016124,2639,3800,-2544,-726,-8202,-9470,-2857,6655,93,38,839
1017790,6586012,7011660,6590608,7016592,2806,3800,-2622,-660,-7824,-8788,-2875,5404,93,38,839
1018792,6586576,7011948,6591076,7017060,2290,3800,-2768,-1000,-7227,-8065,-2395,4591,105,65,842
1019792,6587072,7012232,6591544,7017528,2704,3800,-2838,-1706,-6441,-6880,-2024,3300,105,65,842
1020793,6587632,7012564,6592012,7017996,2263,3800,-2855,-2796,-5484,-5469,-2004,2370,116,78,843
1021794,6588168,7012936,6592480,7018464,2384,3800,-542,-4992,-4610,-2129,-1292,20220,116,78,843
1022795,6588696,7013328,6592948,7018932,2409,3800,3372,-7634,-3954,-25,-833,25662,98,75,844
1023783,6589236,7013812,6593416,7019400,2303,3439,4801,-9795,-3115,-2477,-804,1268,98,75,844
1024784,6589808,7014244,6593884,7019868,2059,3781,4120,-11238,-2206,-1986,-410,1687,114,96,846
1025792,6590348,7014780,6594356,7020340,2229,3104,3138,-12382,-1469,-1605,-199,1511,114,96,846
1026786,6590904,7015272,6594824,7020808,2091,3369,2552,-13922,-976,-1410,-358,677,128,114,848
1027787,6591520,7015828,6595292,7021276,1652,2932,2306,-15502,-584,-777,-617,849,128,114,848
1028788,6592088,7016396,6595760,7021744,1909,2814,2016,-16910,-194,-131,-596,1510,103,117,850
1029789,6592664,7016968,6596228,7022212,1812,2744,1600,-17914,166,484,-868,2622,103,117,850
1030790,6593276,7017516,6596696,7022680,1524,2860,1098,-18617,479,986,-1120,3310,103,118,854
1031792,6593828,7018124,6597164,7023148,1864,2424,637,-18957,756,1355,-900,4532,103,118,854
1032792,6594388,7018736,6597632,7023616,1773,2337,146,-18938,907,1527,-842,5472,123,117,855
1033794,6594956,7019292,6598100,7024084,1680,2649,-290,-18654,930,1612,-994,5729,123,117,855
1034795,6595504,7019916,6598568,7024552,1771,2157,-683,-18262,889,1597,-1115,6333,108,109,856
1035796,6595992,7020476,6599036,7025020,2137,2517,-1049,-17672,811,1680,-1087,6917,108,109,856
1036796,6596476,7021024,6599504,7025488,2156,2558,-1447,-16914,762,2161,-991,7426,102,107,856
1037797,6597040,7021568,6599972,7025956,1614,2551,-1702,-16160,770,2530,-960,6817,102,107,856
1038798,6597508,7022084,6600440,7026424,2215,2705,-1797,-15721,801,2646,-965,6091,117,122,853
1039800,6598008,7022620,6600908,7026892,2001,2551,-1741,-15366,824,2501,-806,6004,117,122,853
1040800,6598532,7023184,6601376,7027360,1827,2335,-1595,-14957,838,1733,-703,6072,91,104,856
1041802,6598976,7023632,6601844,7027828,2338,3069,-1415,-14485,940,598,-1214,6203,91,104,856
1042802,6599456,7024120,6602312,7028296,2109,2812,-1147,-13929,1138,-54,-1560,6227,86,97,854
1043803,6599900,7024548,6602780,7028764,2345,3204,-840,-13579,1434,-250,-1778,5647,86,97,854
1044804,6600300,7024944,6603248,7029232,2650,3437,-443,-13221,1743,-683,-1913,5431,79,102,850
1045805,6600728,7025432,6603716,7029700,2494,2854,4,-13216,1972,-940,-1897,4087,79,102,850
1046806,6601144,7025900,6604184,7030168,2591,2980,547,-13508,2135,-693,-2041,3431,98,91,849
1047807,6601500,7026360,6604652,7030636,3017,3035,1172,-13688,2414,-455,-2485,3564,98,91,849
1048808,6601780,7026820,6605120,7031104,3574,3039,1764,-13709,2838,-180,-3077,3671,66,90,849
1049810,6602160,7027236,6605588,7031572,2989,3337,2372,-13705,3327,23,-3483,3506,66,90,849
1050810,6602484,7027620,6606056,7032040,3403,3575,2944,-13721,3825,335,-3164,3581,77,84,845
1051812,6602792,7028116,6606524,7032508,3574,2864,3515,-13575,4236,691,-2618,3408,77,84,845
1052812,6603112,7028564,6606992,7032976,3565,3173,4088,-13424,4610,804,-2808,3251,67,103,845
1053813,6603412,7028992,6607460,7033444,3764,3317,4656,-13196,5080,867,-3746,3590,67,103,845
1054827,6603668,7029496,6607928,7033912,3800,2827,5132,-12683,5565,1275,-3745,4298,77,86,844
1055828,6603884,7029956,6608396,7034380,3800,3106,5520,-11885,5957,1553,-3253,4654,77,86,844
1056829,6604104,7030448,6608864,7034848,3800,2896,5882,-11125,6209,1629,-2819,4192,42,104,840
1057830,6604260,7030996,6609332,7035316,3800,2512,6230,-10397,6365,1866,-2844,4048,42,104,840
1058831,6604444,7031448,6609800,7035784,3800,3120,6562,-9563,6502,2110,-2480,4267,51,99,841
1059832,6604600,7031920,6610268,7036252,3800,2994,6796,-8536,6560,2499,-1897,4757,51,99,841
1060840,6604752,7032424,6610740,7036724,3800,2781,6877,-7106,6545,2955,-1894,5718,51,92,842
1061834,6604876,7032892,6611208,7037192,3800,3006,6808,-5323,6609,3167,-2470,6571,51,92,842
1062835,6604988,7033472,6611676,7037660,3800,2258,6743,-3578,6589,3331,-1505,5736,30,108,841
1063836,6605056,7034020,6612144,7038128,3800,2424,6747,-2261,6390,3486,-986,4684,30,108,841
1064837,6605108,7034560,6612612,7038596,3800,2443,6823,-1198,6088,3503,-965,3861,11,103,840
1065838,6605168,7035204,6613080,7039064,3800,1717,6919,-379,5739,3628,-1060,2847,11,103,840
1066839,6605184,7035696,6613548,7039532,3800,2656,7013,288,5419,3725,-1602,2240,16,113,842
1067840,6605204,7036328,6614016,7040000,3800,1710,7120,859,5166,3577,-2043,1847,16,113,842
1068841,6605224,7036948,6614484,7040468,3800,1719,7236,1364,4970,3642,-2471,1323,23,116,844
1069842,6605236,7037516,6614952,7040936,3800,2000,7338,1683,4788,3802,-2654,630,23,116,844
1070843,6605236,7038108,6615420,7041404,3800,1797,7452,1788,4567,3881,-2669,-135,10,112,844
1071844,6605224,7038660,6615888,7041872,3800,2011,7563,1702,4294,3906,-2654,-772,10,112,844
1072845,6605220,7039324,6616356,7042340,3800,1225,7620,1578,4030,3916,-2561,-767,18,118,842
1073846,6605216,7039924,6616824,7042808,3800,1568,7519,1640,3797,4052,-2600,-228,18,118,842
1074847,6605216,7040564,6617292,7043276,3800,1242,7280,1876,3637,4241,-2850,40,15,119,843
1075848,6605220,7041216,6617760,7043744,3800,1087,6981,2182,3474,4386,-2486,-18,15,119,843
1076849,6605228,7041696,6618228,7044212,3800,2157,6682,2417,3242,4547,-2076,-234,-2,106,844
1077850,6605216,7042376,6618696,7044680,3800,815,6396,2555,2932,4436,-1628,-400,-2,106,844
1078851,6605208,7042884,6619164,7045148,3800,1872,6102,2625,2569,4507,-1273,-541,14,110,846
1079852,6605208,7043608,6619632,7045616,3800,411,5774,2754,2235,4710,-1299,-571,14,110,846
1080853,6605200,7044240,6620100,7046084,3800,914,5436,2946,1973,4758,-1429,-348,18,122,847
1081854,6605208,7044936,6620568,7046552,3800,414,5131,3200,1760,4701,-1323,-409,18,122,847
1082855,6605200,7045512,6621036,7047020,3800,1117,4853,3472,1557,4727,-1181,-362,2,107,846
1083856,6605192,7046024,6621504,7047488,3800,1498,4558,3859,1367,4927,-847,-40,2,107,846
1084857,6605200,7046616,6621972,7047956,3800,943,4230,4297,1185,4999,-564,-26,-3,118,847
1085858,6605204,7047164,6622440,7048424,3800,1184,3875,4765,977,4875,-145,-22,-3,118,847
1086859,6605200,7047744,6622908,7048892,3800,935,3521,5254,736,4522,68,55,4,104,845
1087860,6605200,7048212,6623376,7049360,3800,1635,3223,5724,443,4163,214,-356,4,104,845
1088861,6605188,7048608,6623844,7049828,3800,2117,2978,6148,141,3800,428,-569,12,80,845
1089862,6605196,7049036,6624312,7050296,3800,1934,2734,6624,-124,3529,583,-407,12,80,845
1090863,6605188,7049400,6624780,7050764,3800,2381,2442,7152,-377,3227,1025,-399,16,87,843
1091864,6605184,7049784,6625248,7051232,3800,2293,2083,7675,-711,2885,1720,-448,16,87,843
1092865,6605192,7050152,6625716,7051700,3800,2437,1710,8120,-1141,2615,2265,-817,9,68,842
1093866,6605188,7050488,6626184,7052168,3800,2696,1323,8435,-1627,2341,2600,-1146,9,68,842
1094867,6605188,7050808,6626652,7052636,3800,2861,891,8645,-2145,2018,2904,-1542,-5,58,841
1095875,6605188,7051128,6627124,7053108,3800,2928,423,8625,-2692,1712,3225,-2300,-5,58,841
1096869,6605184,7051468,6627592,7053576,3800,2860,-45,8368,-3267,1540,3489,-2909,12,69,839
1097870,6605176,7051816,6628060,7054044,3800,2863,-508,7859,-3814,1326,3762,-3404,12,69,839
1098871,6605184,7052148,6628528,7054512,3800,3022,-978,7186,-4321,1281,3954,-3967,14,57,839
1099872,6605176,7052488,6628996,7054980,3800,3030,-1452,6337,-4731,1257,3905,-4184,14,57,839
1100873,6605188,7052788,6629464,7055448,3800,3353,-1923,5489,-5016,1087,3565,-4040,15,73,839
1101874,6605172,7053160,6629932,7055916,3800,2947,-2350,4564,-5230,892,3666,-4361,15,73,839
1102875,6605180,7053548,6630400,7056384,3800,2882,-2752,3556,-5418,609,3679,-4389,15,65,837
1103876,6605168,7053900,6630868,7056852,3800,3159,-3164,2515,-5598,314,3635,-4235,15,65,837
1104877,6605168,7054176,6631336,7057320,3800,3718,-3519,1391,-5781,54,3896,-4625,14,61,837
1105878,6605176,7054544,6631804,7057788,3800,3188,-3809,212,-5899,-130,3775,-4416,14,61,837
1106879,6605168,7054920,6632272,7058256,3800,3180,-4140,-723,-5848,-154,2992,-3362,15,80,837
1107880,6605164,7055280,6632740,7058724,3800,3327,-4534,-1393,-5624,-219,2567,-2722,15,80,837
1108881,6605172,7055684,6633208,7059192,3800,3081,-4937,-1951,-5322,-438,2699,-2499,17,73,837
1109882,6605180,7056108,6633676,7059660,3800,2976,-5347,-2387,-5001,-879,2661,-1814,17,73,837
1110883,6605160,7056512,6634144,7060128,3800,3130,-5719,-2620,-4639,-1489,2692,-1075,14,81,836
1111884,6605176,7056852,6634612,7060596,3800,3587,-6042,-2766,-4256,-2086,2790,-834,14,81,836
1112885,6605172,7057236,6635080,7061064,3800,3350,-6346,-2813,-3868,-2474,2715,-265,11,80,838
1113886,6605164,7057704,6635548,7061532,3800,2825,-6680,-2597,-3414,-2841,2192,758,11,80,838
1114887,6605176,7058084,6636016,7062000,3800,3414,-7062,-2280,-2924,-3133,1761,1135,-4,84,835
1115888,6605172,7058520,6636484,7062468,3800,3079,-7453,-2015,-2479,-3400,1872,1117,-4,84,835
1116889,6605176,7058980,6636952,7062936,3800,2934,-7839,-1879,-2086,-3421,1560,1220,13,79,838
1117890,6605176,7059384,6637420,7063404,3800,3312,-8246,-1936,-1756,-3316,1359,937,13,79,838
1118891,6605172,7059844,6637888,7063872,3800,2967,-8631,-2220,-1440,-3317,1074,626,16,81,838
1119892,6605176,7060372,6638356,7064340,3800,2516,-8992,-2638,-1085,-3348,796,597,16,81,838
1120893,6605180,7060780,6638824,7064808,3800,3294,-9356,-3170,-705,-3302,345,735,15,79,837
1121894,6605176,7061240,6639292,7065276,3800,2972,-9707,-3729,-318,-3222,-19,890,15,79,837
1122895,6605172,7061724,6639760,7065744,3800,2816,-10008,-4409,58,-3127,-181,1007,12,87,841
1123896,6605184,7062140,6640228,7066212,3800,3265,-10307,-5188,386,-2836,-353,1251,12,87,841
1124897,6605176,7062672,6640696,7066680,3800,2513,-10582,-6029,675,-2525,-670,1426,-2,92,839
1125898,6605176,7063288,6641164,7067148,3800,1924,-10789,-6865,981,-2260,-1166,1711,-2,92,839
1126899,6605188,7063768,6641632,7067616,3800,2769,-10935,-7653,1300,-1989,-1448,2330,14,119,837
1127900,6605184,7064208,6642100,7068084,3800,3032,-11034,-8404,1633,-1463,-1477,2983,14,119,837
1128901,6605188,7064684,6642568,7068552,3800,2804,-11150,-8843,1978,-932,-1547,4592,16,81,843
1129903,6605180,7065260,6643036,7069020,3800,2132,-11281,-8924,2378,-627,-2091,6025,16,81,843
1130912,6605184,7065764,6643508,7069492,3800,2569,-11361,-8828,2802,-360,-1908,6596,15,111,838
1131904,6605184,7066228,6643976,7069960,3800,2822,-11396,-8759,3140,-5,-1110,7125,15,111,838
1132905,6605184,7066840,6644444,7070428,3800,1834,-11387,-8586,3351,660,-39,8252,-1,118,843
1133906,6605180,7067460,6644912,7070896,3800,1717,-6563,-266,2655,16091,2530,32767,-1,118,843
1134907,6605188,7068088,6645380,7071364,3800,1598,2948,18198,1161,25122,1526,32767,20,134,840
1135908,6605192,7068760,6645848,7071832,3800,1235,7527,23714,762,5595,814,6041,20,134,840
1136909,6605196,7069512,6646316,7072300,3800,610,7216,19662,971,4660,1626,2308,20,130,843
1137910,6605200,7070180,6646784,7072768,3800,1048,5917,13172,1238,3922,813,-2635,20,130,843
1138911,6605188,7070812,6647252,7073236,3800,1201,5137,8754,1589,2825,-502,-1643,4,128,844
1139912,6605200,7071448,6647720,7073704,3800,1103,4952,6402,2062,1831,-1427,-1032,4,128,844
1140913,6605196,7071968,6648188,7074172,3800,1805,4570,3928,2572,1482,-1638,-2137,7,125,846
1141914,6605200,7072624,6648656,7074640,3800,873,3921,1637,2942,673,-738,-736,7,125,846
1142915,6605200,7073088,6649124,7075108,3800,2075,3247,-942,3143,-311,-126,-1286,19,108,846
1143916,6605220,7073536,6649592,7075576,3800,2184,2645,-3484,3129,-735,23,-1528,19,108,846
1144917,6605208,7073924,6650060,7076044,3800,2595,2166,-5937,2908,-1772,498,-1417,9,82,846
1145918,6605204,7074252,6650528,7076512,3800,3032,1688,-8026,2553,-2792,496,-30,9,82,846
1146919,6605208,7074556,6650996,7076980,3800,3254,1032,-9319,1992,-3879,1368,2265,2,61,842
1147920,6605216,7074896,6651464,7077448,3800,3086,217,-9871,1301,-5504,2082,4662,2,61,842
1148921,6605216,7075216,6651932,7077916,3800,3276,-733,-9662,568,-6526,1854,6899,15,61,837
1149922,6605212,7075500,6652400,7078384,3800,3583,-1762,-8647,-167,-7140,927,9094,15,61,837
1150936,6605212,7075732,6652868,7078852,3800,3800,-2755,-7248,-840,-7728,-478,9572,16,55,837
1151924,6605232,7076016,6653336,7079320,3800,3768,-3605,-6207,-1513,-7880,-1347,8487,16,55,837
1152925,6605224,7076324,6653804,7079788,3800,3690,-4198,-5516,-2104,-7909,-2320,7720,16,59,835
1153938,6605220,7076604,6654272,7080256,3800,3800,-4539,-5147,-2479,-7684,-2659,6580,16,59,835
1154940,6605236,7076884,6654740,7080724,3800,3800,-4751,-4949,-2670,-7156,-3257,6259,12,58,833
1155941,6605240,7077156,6655208,7081192,3800,3800,-4969,-4610,-2621,-6943,-3998,6751,12,58,833
1156942,6605232,7077456,6655676,7081660,3800,3800,-5154,-4361,-2318,-6154,-4413,6147,16,55,834
1157943,6605232,7077800,6656144,7082128,3800,3800,-5281,-4436,-1930,-5041,-4127,4838,16,55,834
1158944,6605232,7078144,6656612,7082596,3800,3800,-5303,-5015,-1537,-4544,-3682,3486,12,63,833
1159945,6605252,7078500,6657080,7083064,3800,3800,-5259,-6018,-1157,-4032,-3477,2071,12,63,833
1160933,6605252,7078876,6657548,7083532,3800,3795,-5143,-7556,-793,-3331,-3115,679,13,83,833
1161934,6605264,7079272,6658016,7084000,3800,3702,-4969,-9306,-414,-2501,-2806,224,13,83,833
1162948,6605260,7079604,6658484,7084468,3800,3800,-4794,-11067,-33,-1518,-2874,35,17,78,834
1163936,6605256,7080012,6658952,7084936,3800,3715,-4570,-12794,392,-685,-3290,203,17,78,834
1164937,6605272,7080448,6659420,7085404,3800,3555,-4279,-14311,845,-234,-3839,841,14,77,835
1165945,6605268,7080856,6659892,7085876,3800,3760,-3905,-15690,1250,186,-4469,1221,14,77,835
1166952,6605260,7081240,6660360,7086344,3800,3800,-3400,-16892,1584,478,-5298,1807,16,76,835
1167953,6605264,7081620,6660828,7086812,3800,3800,-2783,-17935,1816,536,-5840,2528,16,76,835
1168954,6605264,7082000,6661296,7087280,3800,3800,-2099,-18756,1937,741,-6081,3202,17,94,835
1169955,6605276,7082404,6661764,7087748,3800,3800,-1413,-19236,1994,1124,-5956,4318,17,94,835
1170956,6605280,7082812,6662232,7088216,3800,3800,-757,-19280,2070,1593,-5867,5480,15,87,833
1171957,6605284,7083212,6662700,7088684,3800,3800,-171,-18838,2127,2075,-5238,7237,15,87,833
1172958,6605276,7083648,6663168,7089152,3800,3800,357,-17938,2077,2503,-4144,8275,15,82,834
1173946,6605280,7084108,6663636,7089620,3800,3659,929,-16946,1985,2868,-3738,8333,15,82,834
1174960,6605284,7084520,6664104,7090088,3800,3800,1489,-15812,1909,3307,-2974,9074,15,93,834
1175948,6605296,7084968,6664572,7090556,3800,3769,1984,-14512,1840,3499,-2088,9687,15,93,834
1176961,6605288,7085368,6665040,7091024,3800,3800,2435,-13140,1799,3657,-1811,9507,17,84,835
1177962,6605288,7085796,6665508,7091492,3800,3800,2845,-11776,1743,3875,-1281,9405,17,84,835
1178964,6605300,7086204,6665976,7091960,3800,3800,3195,-10486,1676,4261,-577,9013,16,76,835
1179965,6605304,7086620,6666444,7092428,3800,3800,3502,-9378,1629,4547,-170,8260,16,76,835
1180966,6605300,7087064,6666912,7092896,3800,3800,3772,-8485,1595,4745,238,7588,12,82,833
1181967,6605308,7087468,6667380,7093364,3800,3800,4055,-7851,1573,5063,712,6440,12,82,833
1182968,6605316,7087892,6667848,7093832,3800,3800,4366,-7435,1543,5317,1225,5745,17,77,834
1183969,6605312,7088292,6668316,7094300,3800,3800,4589,-6886,1576,5694,1554,6304,17,77,834
1184970,6605320,7088680,6668784,7094768,3800,3800,4645,-6250,1724,5775,1504,6149,17,68,834
1185971,6605332,7089032,6669252,7095236,3800,3800,4591,-5631,1750,5459,2804,5697,17,68,834
1186972,6605320,7089488,6669720,7095704,3800,3800,4466,-4984,1552,5134,3634,6061,16,88,834
1187973,6605332,7089892,6670188,7096172,3800,3800,4256,-4228,1363,5074,3107,6193,16,88,834
1188974,6605328,7090260,6670656,7096640,3800,3800,3990,-3445,1301,4585,2253,5983,17,83,834
1189975,6605328,7090668,6671124,7097108,3800,3800,3773,-2816,1348,3894,1610,5088,17,83,834
1190976,6605332,7091088,6671592,7097576,3800,3800,3656,-2512,1459,3356,972,4061,6,68,834
1191977,6605332,7091524,6672060,7098044,3800,3800,3595,-2395,1622,2734,198,3395,6,68,834
1192965,6605336,7092036,6672528,7098512,3800,3778,3571,-2473,1810,2154,-200,2748,0,83,833
1193979,6605332,7092496,6672996,7098980,3800,3800,3587,-2597,1991,1696,-557,2281,0,83,833
1194980,6605336,7092948,6673464,7099448,3800,3800,3628,-2644,2165,925,-1105,2388,-3,95,835
1195981,6605336,7093392,6673932,7099916,3800,3800,3677,-2586,2334,146,-1714,2314,-3,95,835
1196970,6605324,7093924,6674400,7100384,3800,3651,3787,-2572,2487,-469,-1994,1845,18,94,835
1197970,6605332,7094476,6674868,7100852,3800,3490,3933,-2475,2561,-1017,-1794,2231,18,94,835
1198971,6605344,7095044,6675336,7101320,3800,3349,4053,-2164,2533,-1244,-1649,2756,6,109,835
1199972,6605336,7095600,6675804,7101788,3800,3386,4161,-1697,2497,-1333,-1638,2966,6,109,835
1200980,6605336,7096204,6676276,7102260,3800,3029,4267,-1049,2485,-1786,-1820,3403,0,116,837
1201974,6605340,7096788,6676744,7102728,3800,3104,4382,-339,2459,-1943,-1996,3281,0,116,837
1202975,6605356,7097344,6677212,7103196,3800,3241,4495,259,2474,-1625,-2241,2953,6,108,836
1203976,6605360,7098048,6677680,7103664,3800,2213,4569,772,2542,-1181,-2300,2653,6,108,836
1204977,6605368,7098616,6678148,7104132,3800,3022,4594,1120,2587,-719,-1978,2069,18,119,839
1205978,6605368,7099296,6678616,7104600,3800,2229,4585,1192,2569,-562,-1777,1380,18,119,839
1206979,6605388,7099912,6679084,7105068,3800,2565,4520,1149,2502,-210,-1693,1082,15,132,842
1207980,6605392,7100680,6679552,7105536,3800,1484,4395,988,2380,556,-1093,826,15,132,842
1208981,6605392,7101424,6680020,7106004,3800,1513,4182,1034,2272,1442,-841,1343,8,131,843
1209982,6605408,7102160,6680488,7106472,3800,1446,3933,1063,2209,2120,-401,999,8,131,843
1210983,6605416,7102772,6680956,7106940,3800,2159,3698,976,2155,2605,68,812,20,142,844
1211984,6605424,7103512,6681424,7107408,3800,1241,3474,860,2067,3031,431,846,20,142,844
1212985,6605460,7104228,6681892,7107876,3800,1283,3272,679,1943,3415,636,506,17,122,845
1213986,6605484,7104920,6682360,7108344,3800,1334,3075,391,1787,3645,640,338,17,122,845
1214987,6605532,7105736,6682828,7108812,3800,407,2893,102,1630,3600,414,152,23,125,844
1215988,6605572,7106296,6683296,7109280,3800,1968,2727,-176,1479,3616,321,171,23,125,844
1216989,6605656,7107068,6683764,7109748,3800,509,2591,-392,1335,3636,306,328,18,143,845
1217990,6605740,7107680,6684232,7110216,3800,1447,2483,-504,1180,3495,377,534,18,143,845
1218991,6605868,7108412,6684700,7110684,3800,581,2394,-524,996,3345,203,659,31,139,844
1219992,6606032,7109096,6685168,7111152,3800,787,2300,-365,817,3194,-169,1155,31,139,844
1220993,6606180,7109736,6685636,7111620,3800,986,2188,11,670,3003,-418,1600,46,132,846
1221994,6606336,7110500,6686104,7112088,3800,81,2093,428,541,2678,-584,1367,46,132,846
1222995,6606464,7111132,6686572,7112556,3800,835,2029,808,408,2324,-803,1211,44,131,847
1223996,6606600,7111784,6687040,7113024,3800,629,1992,1156,263,2099,-1110,1083,44,131,847
1224997,6606756,7112400,6687508,7113492,3800,789,1922,1602,161,2027,-1940,1473,49,116,847
1225998,6606944,7113028,6687976,7113960,3800,644,1817,2280,162,1822,-2795,1785,49,116,847
1226999,6607136,7113616,6688444,7114428,3800,842,1724,2948,242,1527,-3279,1464,53,115,847
1228000,6607364,7114032,6688912,7114896,3800,1940,1688,3532,287,1363,-2929,1134,53,115,847
1229001,6607596,7114572,6689380,7115364,3800,1134,1730,3952,246,1082,-2551,556,43,104,848
1230002,6607804,7115028,6689848,7115832,3800,1664,1818,4385,158,922,-2657,388,43,104,848
1231003,6608012,7115420,6690316,7116300,3800,2097,1920,4611,106,501,-2567,-146,38,87,845
1232004,6608268,7115920,6690784,7116768,3800,1408,1962,4893,130,552,-2481,317,38,87,845
1233005,6608480,7116288,6691252,7117236,3800,2278,1909,5412,151,911,-2004,624,47,82,846
1234006,6608732,7116644,6691720,7117704,3800,2402,1813,5770,116,970,-1605,-223,47,82,846
1235007,6609016,7116972,6692188,7118172,3800,2639,1725,5980,-9,852,-1241,-469,69,74,847
1236015,6609244,7117300,6692660,7118644,3800,2702,1678,6031,-200,335,-521,-919,69,74,847
1237009,6609512,7117628,6693128,7119112,3800,2764,1664,5708,-414,270,-184,-1765,50,64,843
1238010,6609788,7117928,6693596,7119580,3800,3013,1605,5326,-644,521,58,-1714,50,64,843
1239011,6610072,7118200,6694064,7120048,3800,3275,1476,4993,-842,647,380,-1763,48,59,841
1240012,6610368,7118492,6694532,7120516,3800,3227,1305,4575,-1002,904,579,-1931,48,59,841
1241013,6610616,7118808,6695000,7120984,3800,3145,1084,4180,-1204,613,1615,-1746,55,65,840
1242014,6610908,7119128,6695468,7121452,3800,3185,889,3494,-1462,331,2666,-2662,55,65,840
1243015,6611188,7119448,6695936,7121920,3800,3251,623,2549,-1774,552,3330,-2940,46,72,838
1244016,6611468,7119712,6696404,7122388,3800,3690,282,1599,-2119,494,4422,-2764,46,72,838
1245017,6611760,7120044,6696872,7122856,3800,3326,-130,606,-2457,720,5101,-2995,59,64,840
1246018,6612008,7120376,6697340,7123324,3800,3386,-583,-228,-2698,669,4909,-2229,59,64,840
1247019,6612272,7120704,6697808,7123792,3800,3474,-983,-1045,-2756,25,4833,-2121,41,69,836
1248020,6612564,7121020,6698276,7124260,3800,3615,-1410,-1603,-2791,31,5159,-1223,41,69,836
1249021,6612872,7121328,6698744,7124728,3800,3737,-1896,-2105,-2902,167,6564,-1469,57,61,837
1250022,6613160,7121664,6699212,7125196,3800,3621,-2402,-2602,-3025,181,7107,-970,57,61,837
1251036,6613508,7121980,6699680,7125664,3800,3800,-2969,-3005,-3125,-183,7379,-724,60,61,837
1252037,6613776,7122248,6700148,7126132,3800,3800,-3568,-3530,-3153,-754,7478,-425,60,61,837
1253025,6614160,7122596,6700616,7126600,3800,3755,-4253,-3534,-3137,-563,6842,1156,60,63,835
1254026,6614588,7122984,6701084,7127068,3800,3540,-5007,-3378,-3048,-483,6294,1148,60,63,835
1255027,6614976,7123356,6701552,7127536,3800,3683,-5836,-3137,-2962,-735,5652,1984,82,76,837
1256041,6615388,7123688,6702020,7128004,3800,3800,-6722,-3014,-2926,-1257,4642,1724,82,76,837
1257029,6615872,7124128,6702488,7128472,3800,3332,-7512,-3341,-2873,-1314,3430,925,99,74,839
1258030,6616324,7124588,6702956,7128940,3800,3212,-8280,-3577,-2817,-833,2569,1473,99,74,839
1259031,6616856,7125044,6703424,7129408,3800,3242,-8963,-4075,-2729,-576,1867,454,80,94,838
1260032,6617384,7125560,6703892,7129876,3800,2847,-9594,-4730,-2585,-196,711,640,80,94,838
1261033,6617920,7126044,6704360,7130344,3800,3041,-10397,-5061,-2060,474,-1135,2285,115,93,841
1262034,6618484,7126472,6704828,7130812,3800,3410,-11090,-5543,-1360,215,-1986,1052,115,93,841
1263035,6619112,7126984,6705296,7131280,3800,2866,-11485,-6168,-1144,-651,-523,1132,124,90,844
1264036,6619740,7127508,6705764,7131748,3800,2768,-11703,-6952,-1288,-1594,-438,1471,124,90,844
1265037,6620388,7128044,6706232,7132216,3800,2663,-11958,-7530,-1446,-1433,-1115,2713,131,101,843
1266038,6621128,7128612,6706700,7132684,3800,2420,-12250,-7820,-1387,-1150,-1991,3279,131,101,843
1267039,6621928,7129180,6707168,7133152,3800,2377,-12398,-8036,-1121,-1322,-2530,3457,137,107,846
1268040,6622628,7129600,6707636,7133620,3800,3324,-12451,-8329,-833,-908,-2625,3825,137,107,846
1269041,6623472,7130076,6708104,7134088,3800,2971,-12554,-8537,-623,-178,-1554,4884,137,95,847
1270042,6624416,7130680,6708572,7134556,3800,2112,-12917,-8053,-491,1144,-449,7120,137,95,847
1271052,6625264,7131364,6709044,7135028,3800,1520,-13021,-8263,-456,1078,-1092,3460,166,111,844
1272044,6626232,7131756,6709512,7135496,3800,3379,-12674,-9030,-373,1110,-1144,3148,166,111,844
1273045,6627300,7132392,6709980,7135964,3800,1780,-10896,-8764,-166,2949,-572,9922,170,120,850
1274046,6628256,7132964,6710448,7136432,3800,2136,-3184,4995,75,8549,-2364,32767,170,120,850
1275047,6629200,7133680,6710916,7136900,3800,1128,4938,17287,515,3989,-4007,28099,196,133,847
1276048,6630180,7134456,6711384,7137368,3800,617,7187,17020,870,4092,-197,-3570,196,133,847
1277049,6631132,7135208,6711852,7137836,3800,643,6584,11034,1030,5623,989,-5906,187,152,851
1278050,6632032,7135856,6712320,7138304,3800,1214,5611,4814,1029,7153,1171,-6895,187,152,851
1279051,6632968,7136536,6712788,7138772,3800,922,5590,1072,1122,6995,813,-5419,180,137,855
1280052,6633824,7137196,6713256,7139240,3800,963,5583,-1603,1453,6197,-237,-3318,180,137,855
1281053,6634708,7137768,6713724,7139708,3800,1468,5144,-3291,1873,5759,-1289,-714,172,134,853
1282054,6635400,7138440,6714192,7140176,3800,753,4360,-4966,2283,5157,-1344,-763,172,134,853
1283055,6636292,7139040,6714660,7140644,3800,1145,3863,-6768,2404,5033,924,-1881,183,131,854
1284056,6637048,7139640,6715128,7141112,3800,1088,3578,-8641,2193,4273,2189,-1457,183,131,854
1285057,6637768,7140128,6715596,7141580,3800,1780,3279,-9992,1931,2416,1979,1415,163,112,854
1286058,6638584,7140684,6716064,7142048,3800,1316,2799,-10209,1736,1487,1657,4536,163,112,854
1287059,6639260,7141124,6716532,7142516,3800,2053,2024,-9234,1403,965,2049,7553,156,117,853
1288060,6639968,7141576,6717000,7142984,3800,1986,953,-6754,1277,413,576,12165,156,117,853
1289061,6640748,7141956,6717468,7143452,3800,2475,-477,-3141,1100,420,3703,15625,155,86,852
1290062,6641388,7142252,6717936,7143920,3800,3076,-2054,1102,590,-351,4108,16538,155,86,852
1291063,6642016,7142504,6718404,7144388,3800,3446,-2935,3920,90,-1151,2896,10746,124,67,848
1292064,6642684,7142732,6718872,7144856,3800,3702,-3215,5594,-314,-1210,1528,9208,124,67,848
1293065,6643260,7142968,6719340,7145324,3800,3754,-3389,6688,-573,-1604,17,8260,119,63,842
1294079,6643792,7143164,6719808,7145792,3800,3800,-3541,7569,-751,-2349,-854,7265,119,63,842
1295080,6644400,7143364,6720276,7146260,3800,3800,-3684,8364,-1019,-2790,-965,6147,125,56,838
1296081,6644932,7143548,6720744,7146728,3800,3800,-3706,8918,-1393,-3711,-1345,5075,125,56,838
1297082,6645472,7143724,6721212,7147196,3800,3800,-3664,8991,-1910,-4653,-1566,3740,120,38,837
1298083,6645992,7143904,6721680,7147664,3800,3800,-3661,8649,-2601,-5215,-1968,2605,120,38,837
1299084,6646556,7144120,6722148,7148132,3800,3800,-3631,8005,-3474,-5621,-1535,1800,119,37,838
1300085,6647072,7144272,6722616,7148600,3800,3800,-3540,7041,-4521,-5854,-1157,744,119,37,838
1301086,6647612,7144456,6723084,7149068,3800,3800,-3391,5677,-5573,-6052,-1771,5,104,36,835
1302087,6648196,7144656,6723552,7149536,3800,3800,-3245,4300,-6323,-5929,-3326,413,104,36,835
1303088,6648736,7144868,6724020,7150004,3800,3800,-3164,3145,-6641,-5350,-5053,1177,105,56,837
1304089,6649284,7145060,6724488,7150472,3800,3800,-3199,2258,-6446,-4911,-7250,2030,105,56,837
1305090,6649880,7145364,6724956,7150940,3800,3800,-3222,1398,-5911,-4539,-7611,2071,113,66,837
1306098,6650472,7145656,6725428,7151412,3800,3800,-2750,-63,-5407,-4476,-6256,1790,113,66,837
1307092,6651076,7145956,6725896,7151880,3800,3800,2470,-2996,-4807,-5039,-7978,32767,133,62,838
1308093,6651752,7146272,6726364,7152348,3800,3800,8449,-4988,-4383,-1787,-7455,32767,133,62,838
1309094,6652380,7146608,6726832,7152816,3800,3800,9858,-6123,-3929,-3094,-5456,3140,134,66,839
1310095,6653064,7147028,6727300,7153284,3800,3800,8385,-6344,-3478,-2539,-4571,4529,134,66,839
1311096,6653844,7147392,6727768,7153752,3800,3800,6248,-5843,-3032,-1583,-3021,6828,135,75,840
1312097,6654564,7147748,6728236,7154220,3800,3800,3997,-4545,-2680,285,835,10198,135,75,840
1313098,6655332,7148160,6728704,7154688,3800,3800,2196,-3565,-2636,410,2441,6923,157,77,840
1314099,6656132,7148608,6729172,7155156,3800,3800,1387,-7222,-2388,-1090,-1602,-2734,157,77,840
1315100,6657084,7149100,6729640,7155624,3800,3800,1645,-10304,-2093,-796,-1949,-3291,155,96,840
1316088,6657980,7149652,6730108,7156092,3800,3596,1745,-12872,-1760,-500,-1091,-1660,155,96,840
