"Data file recorded 2014/9/22  15:31:0"
"%  Right Stride Frequency         = 3.0"
"%  Left Stride Frequency         = 3.0"
"%  Phase (Fractional)         = 32768.0"
"%  Experiment.py "
"%  Motor Gains    = [1800, 200, 100, 0, 0, 1800, 200, 100, 0, 0]
"% Columns: "
"% time | Right Leg Pos | Left Leg Pos | Commanded Right Leg Pos | Commanded Left Leg Pos | DCR | DCL | GyroX | GryoY | GryoZ | AX | AY | AZ | RBEMF | LBEMF | VBatt "
11554,1206060,1180360,1193216,1225984,-3800,3800,6,131,241,-62,-396,4077,3,6,912
12548,1206056,1180368,1193413,1226181,-3800,3800,7,130,241,-45,-380,4063,-9,6,911
13537,1205984,1180392,1193610,1226378,-3762,3800,8,130,233,-47,-395,4083,-9,6,911
14537,1205832,1180464,1193807,1226575,-3112,3800,8,131,237,-61,-407,4079,-14,-6,871
15538,1205588,1180540,1194004,1226772,-2345,3800,4,99,236,-74,-423,4063,-14,-6,871
16540,1205292,1180628,1194201,1226969,-1805,3800,-1,116,238,-85,-550,4056,-58,0,871
17540,1204988,1180740,1194398,1227166,-1537,3800,-13,117,256,-46,-580,4030,-58,0,871
18541,1204676,1180832,1194595,1227363,-1266,3800,-37,132,291,-18,-740,4166,-59,8,879
19542,1204404,1180956,1194792,1227560,-1312,3800,-78,165,347,-122,-924,4313,-59,8,879
20543,1204164,1181084,1194989,1227757,-1321,3800,-138,250,412,-230,-1017,4519,-64,23,884
21544,1203920,1181216,1195186,1227954,-1105,3800,-225,399,478,-277,-1083,4599,-64,23,884
22545,1203720,1181324,1195383,1228151,-1207,3800,-308,519,551,-248,-1044,4421,-39,16,884
23546,1203540,1181440,1195580,1228348,-1168,3800,-383,615,637,-294,-997,4296,-39,16,884
24547,1203344,1181588,1195777,1228545,-897,3800,-434,574,715,-530,-1023,3890,-25,25,885
25549,1203192,1181736,1195974,1228742,-1019,3800,-464,435,775,-723,-1195,3602,-25,25,885
26549,1203028,1181844,1196171,1228939,-787,3800,-502,262,838,-774,-1290,3734,-40,22,881
27550,1202872,1181992,1196368,1229136,-684,3800,-549,149,920,-902,-1159,3822,-40,22,881
28551,1202740,1182112,1196565,1229333,-690,3800,-613,68,1017,-945,-898,3910,-36,14,885
29552,1202596,1182256,1196762,1229530,-466,3800,-675,-40,1097,-948,-563,3755,-36,14,885
30553,1202488,1182344,1196959,1229727,-558,3800,-723,-163,1153,-927,-249,3759,-34,22,887
31554,1202392,1182456,1197156,1229924,-505,3800,-744,-346,1164,-954,-96,3512,-34,22,887
32556,1202320,1182596,1197353,1230121,-538,3800,-720,-699,1143,-956,-253,3228,-8,17,887
33556,1202256,1182696,1197550,1230318,-475,3800,-668,-1022,1130,-889,-558,3324,-8,17,887
34557,1202224,1182836,1197747,1230515,-575,3800,-600,-1387,1133,-852,-591,3250,-5,22,887
35558,1202200,1182948,1197944,1230712,-529,3800,-521,-1750,1124,-727,-437,3209,-5,22,887
36559,1202196,1183052,1198141,1230909,-566,3800,-444,-2091,1077,-682,-115,3393,-12,12,885
37560,1202200,1183160,1198338,1231106,-533,3800,-373,-2407,1003,-610,175,3481,-12,12,885
38561,1202208,1183292,1198535,1231303,-475,3800,-313,-2669,928,-471,225,3780,-4,26,885
39562,1202200,1183408,1198732,1231500,-286,3800,-261,-2873,878,-356,260,3947,-4,26,885
40563,1202196,1183528,1198929,1231697,-223,3800,-222,-3018,864,-228,265,4183,0,14,886
41564,1202192,1183644,1199126,1231894,-135,3800,-202,-3060,873,-102,292,4420,0,14,886
42565,1202192,1183764,1199323,1232091,-74,3800,-197,-3063,889,9,320,4484,1,23,887
43566,1202200,1183928,1199520,1232288,-42,3800,-209,-3045,905,139,395,4654,1,23,887
44567,1202188,1184068,1199717,1232485,175,3800,-239,-2938,895,363,674,4871,2,33,888
45568,1202192,1184252,1199914,1232682,158,3800,-295,-2857,857,567,734,4977,2,33,888
46569,1202188,1184420,1200111,1232879,297,3800,-365,-2743,815,739,664,5024,12,34,889
47570,1202200,1184620,1200308,1233076,278,3800,-448,-2603,792,965,596,5185,12,34,889
48571,1202192,1184804,1200505,1233273,492,3800,-543,-2404,785,1223,705,5284,-5,33,888
49572,1202192,1185024,1200702,1233470,529,3800,-641,-2217,773,1406,790,5341,-5,33,888
50573,1202204,1185220,1200899,1233667,535,3800,-739,-2023,724,1509,825,5334,-1,48,888
51574,1202200,1185444,1201096,1233864,722,3800,-815,-1870,617,1485,546,5281,-1,48,888
52575,1202200,1185668,1201293,1234061,784,3800,-867,-1732,470,1386,182,5180,-1,37,888
53576,1202224,1185860,1201490,1234258,710,3800,-893,-1607,332,1263,48,5251,-1,37,888
54577,1202276,1186076,1201687,1234455,599,3800,-926,-1465,239,1422,0,5260,21,31,887
55578,1202320,1186260,1201884,1234652,716,3800,-964,-1256,196,1540,-72,5390,21,31,887
56579,1202376,1186440,1202081,1234849,703,3800,-985,-1081,148,1349,-60,5204,18,46,887
57580,1202444,1186612,1202278,1235046,685,3800,-965,-1062,75,1280,-45,4871,18,46,887
58581,1202480,1186796,1202475,1235243,955,3800,-918,-1035,16,1253,-45,4972,25,33,886
59582,1202540,1186940,1202672,1235440,866,3800,-837,-1008,-22,899,38,4919,25,33,886
60583,1202604,1187100,1202869,1235637,899,3800,-711,-974,-61,629,224,4906,15,36,885
61584,1202676,1187244,1203066,1235834,904,3800,-566,-904,-114,450,457,4968,15,36,885
62585,1202740,1187376,1203263,1236031,1012,3800,-408,-857,-147,216,581,4977,25,26,885
63586,1202784,1187520,1203460,1236228,1205,3800,-241,-785,-152,55,466,4981,25,26,885
64587,1202864,1187652,1203657,1236425,1031,3800,-40,-792,-114,-247,221,4872,23,37,885
65588,1202964,1187832,1203854,1236622,949,3800,154,-674,-48,-765,-338,5533,23,37,885
66589,1203068,1187988,1204051,1236819,964,3800,291,-292,41,-1257,-1265,6305,30,27,884
67590,1203152,1188180,1204248,1237016,1139,3800,378,295,161,-1620,-1838,6485,30,27,884
68591,1203244,1188380,1204445,1237213,1136,3800,454,817,332,-1588,-2197,6266,13,42,885
69592,1203328,1188568,1204642,1237410,1236,3800,527,1266,502,-1705,-2525,6018,13,42,885
70593,1203420,1188788,1204839,1237607,1232,3800,611,1623,609,-2152,-2579,5600,26,32,884
71594,1203504,1189020,1205036,1237804,1332,3800,730,1740,660,-2438,-2399,4763,26,32,884
72595,1203588,1189216,1205233,1238001,1382,3800,860,1699,703,-2346,-2331,4603,12,45,885
73596,1203684,1189436,1205430,1238198,1352,3800,984,1734,751,-2341,-2110,4657,12,45,885
74597,1203764,1189708,1205627,1238395,1503,3800,1075,1744,758,-2274,-1732,4490,33,53,884
75598,1203844,1189940,1205824,1238592,1556,3800,1115,1693,690,-2086,-1158,4306,33,53,884
76599,1203948,1190204,1206021,1238789,1446,3800,1127,1517,580,-1839,-558,3904,21,48,884
77600,1204032,1190428,1206218,1238986,1621,3800,1142,1234,502,-1376,-307,3602,21,48,884
78601,1204116,1190644,1206415,1239183,1672,3800,1167,860,498,-979,-281,3324,35,41,883
79602,1204212,1190860,1206612,1239380,1641,3800,1208,386,572,-775,-416,3016,35,41,883
80603,1204336,1191104,1206809,1239577,1499,3800,1278,-128,669,-583,-455,2754,22,56,882
81604,1204432,1191340,1207006,1239774,1719,3800,1381,-719,724,-567,-317,2581,22,56,882
82605,1204512,1191576,1207203,1239971,1871,3800,1525,-1364,694,-580,108,2438,35,36,881
83606,1204620,1191784,1207400,1240168,1735,3800,1654,-1922,592,-407,451,2740,35,36,881
84607,1204688,1191976,1207597,1240365,2043,3800,1718,-2300,500,-62,547,3294,17,33,882
85608,1204776,1192148,1207794,1240562,1966,3800,1714,-2481,472,162,229,3832,17,33,882
86609,1204852,1192364,1207991,1240759,2095,3800,1678,-2508,522,28,-257,3983,28,47,882
87610,1204948,1192592,1208188,1240956,2015,3800,1633,-2487,634,-257,-550,4256,28,47,882
88611,1205036,1192788,1208385,1241153,2113,3800,1609,-2423,735,-354,-485,4228,30,41,881
89612,1205132,1192988,1208582,1241350,2109,3800,1637,-2418,766,-472,-233,3992,30,41,881
90613,1205244,1193204,1208779,1241547,2046,3800,1669,-2332,750,-387,254,4286,13,39,880
91614,1205352,1193396,1208976,1241744,2111,3800,1687,-2197,726,-68,827,4309,13,39,880
92615,1205440,1193632,1209173,1241941,2285,3800,1630,-1856,741,262,1064,4986,15,45,878
93623,1205552,1193860,1209600,1242368,2274,3800,1479,-1326,851,350,772,5518,15,45,878
94616,1205640,1194052,1209797,1242565,2472,3800,1351,-832,982,244,925,4982,29,45,879
95618,1205736,1194220,1209994,1242762,2468,3800,1305,-525,1081,210,1299,4433,29,45,879
96619,1205832,1194372,1210191,1242959,2513,3800,1312,-377,1166,333,1301,4079,14,24,878
97620,1205940,1194548,1210388,1243156,2478,3800,1343,-313,1253,560,1327,3685,14,24,878
98621,1206032,1194728,1210585,1243353,2625,3800,1383,-319,1305,814,2295,3377,32,37,877
99622,1206136,1194900,1210782,1243550,2591,3800,1440,-400,1281,816,2662,2990,32,37,877
100623,1206256,1195088,1210979,1243747,2526,3800,1537,-576,1236,895,2528,2540,27,41,878
101624,1206344,1195328,1211176,1243944,2775,3800,1622,-746,1179,613,2378,2677,27,41,878
102625,1206440,1195588,1211373,1244141,2770,3800,1646,-828,1081,230,2219,2954,28,56,876
103626,1206548,1195836,1211570,1244338,2735,3800,1594,-744,970,135,1966,3288,28,56,876
104627,1206656,1196072,1211767,1244535,2776,3800,1493,-529,910,339,2029,3613,30,44,875
105628,1206760,1196388,1211964,1244732,2842,3800,1333,-136,886,367,1950,4050,30,44,875
106629,1206860,1196736,1212161,1244929,2911,3800,1132,278,839,377,2002,3982,35,65,877
107630,1206980,1197080,1212358,1245126,2821,3800,916,589,760,317,1862,3635,35,65,877
108631,1207096,1197420,1212555,1245323,2882,3800,684,852,677,286,1444,3684,17,64,877
109632,1207224,1197860,1212752,1245520,2839,3800,429,1104,579,178,1240,3515,17,64,877
110633,1207336,1198300,1212949,1245717,2977,3800,217,1178,469,199,1270,2788,22,71,877
111634,1207472,1198756,1213146,1245914,2855,3800,45,1056,345,489,1319,2257,22,71,877
112635,1207628,1199192,1213343,1246111,2749,3800,-96,862,241,824,1315,1972,22,91,877
113636,1207760,1199788,1213540,1246308,2929,3800,-204,495,172,1084,1202,1383,22,91,877
114637,1207900,1200340,1213737,1246505,2905,3800,-283,23,79,1186,760,1298,26,97,878
115638,1208064,1201000,1213934,1246702,2771,3800,-357,-386,-42,1276,231,1574,26,97,878
116639,1208200,1201644,1214131,1246899,2974,3800,-421,-724,-145,1490,-157,1531,27,126,878
117640,1208344,1202404,1214328,1247096,2948,3800,-487,-1024,-224,1698,-566,1735,27,126,878
118641,1208500,1203104,1214525,1247293,2892,3800,-570,-1210,-280,2015,-601,2107,49,139,881
119642,1208652,1203968,1214722,1247490,2938,3800,-645,-1350,-321,2253,-537,2255,49,139,881
120643,1208776,1204812,1214919,1247687,3146,3800,-705,-1419,-390,2461,-578,2385,48,156,880
121644,1208940,1205712,1215116,1247884,2912,3800,-735,-1494,-494,2624,-497,2407,48,156,880
122645,1209076,1206576,1215313,1248081,3115,3800,-720,-1558,-645,2935,-256,2398,32,176,881
123646,1209268,1207468,1215510,1248278,2769,3800,-661,-1597,-866,3436,210,2466,32,176,881
124647,1209468,1208400,1215707,1248475,2718,3800,-547,-1622,-1161,3867,779,2404,42,172,881
125648,1209672,1209404,1215904,1248672,2691,3800,-405,-1603,-1520,4107,983,2710,42,172,881
126649,1209848,1210296,1216101,1248869,2876,3800,-271,-1382,-1835,4182,146,3296,39,178,882
127650,1210112,1211284,1216298,1249066,2299,3800,-198,-953,-2022,4489,-746,3956,39,178,882
128651,1210324,1212296,1216495,1249263,2618,3800,-173,-307,-2218,4420,-1038,4482,61,183,885
129652,1210564,1213196,1216692,1249460,2425,3800,-128,333,-2460,4154,-1478,4054,61,183,885
130653,1210816,1214180,1216889,1249657,2327,3800,-52,877,-2713,3985,-1972,3883,59,187,887
131654,1211096,1215288,1217086,1249854,2117,3800,65,1411,-2983,4099,-1845,3737,59,187,887
132655,1211332,1216156,1217283,1250051,2376,3800,202,1913,-3252,4006,-2007,3529,56,188,887
133656,1211544,1217152,1217480,1250248,2521,3800,386,2370,-3473,3920,-2370,3267,56,188,887
134657,1211816,1218124,1217677,1250445,2114,3800,594,2789,-3603,4072,-2576,3089,67,181,888
135658,1212056,1219060,1217874,1250642,2296,3800,796,3204,-3639,4257,-2922,3120,67,181,888
136659,1212284,1219984,1218071,1250839,2359,3800,973,3518,-3628,4374,-3135,2620,71,186,885
137660,1212572,1220916,1218268,1251036,1945,3800,1190,3703,-3597,4229,-3143,1928,71,186,885
138661,1212828,1221740,1218465,1251233,2120,3800,1413,3738,-3558,3887,-2917,1595,56,185,887
139661,1213056,1222640,1218662,1251430,2282,3800,1637,3703,-3547,3846,-2295,1397,56,185,887
140663,1213336,1223516,1218859,1251627,1922,3800,1814,3672,-3605,3675,-1271,1531,61,182,888
141664,1213576,1224352,1219056,1251824,2154,3800,2004,3633,-3737,3099,-895,1200,61,182,888
142664,1213800,1225360,1219253,1252021,2243,3800,2129,3917,-3987,2416,-533,2225,66,190,887
143665,1214044,1226232,1219450,1252218,2098,3800,2169,4374,-4288,1568,-52,2494,66,190,887
144667,1214268,1227092,1219647,1252415,2212,3800,2153,4833,-4582,1365,216,2694,50,174,887
145668,1214496,1227888,1219844,1252612,2175,3800,2077,5265,-4934,1114,540,2374,50,174,887
146669,1214736,1228716,1220041,1252809,2082,3800,1956,5512,-5273,625,695,2151,43,166,886
147670,1214980,1229552,1220238,1253006,2037,3800,1812,5712,-5495,496,646,1967,43,166,886
148671,1215192,1230428,1220435,1253203,2232,3800,1643,5718,-5566,255,799,1611,62,163,886
149672,1215428,1231264,1220632,1253400,2065,3800,1496,5812,-5466,-84,1003,2046,62,163,886
150673,1215680,1232084,1220829,1253597,1942,3800,1247,5863,-5300,-655,1378,1718,41,170,888
151674,1215912,1233020,1221026,1253794,2053,3800,1004,5518,-5141,-1397,979,646,41,170,888
152675,1216136,1234000,1221223,1253991,2092,3800,726,5098,-4980,-1995,608,981,65,180,887
153676,1216440,1235088,1221420,1254188,1546,3800,411,4719,-4774,-2340,444,866,65,180,887
154677,1216696,1235976,1221617,1254385,1821,3800,92,4095,-4495,-2463,931,249,56,196,888
155678,1216924,1236972,1221814,1254582,1983,3800,-242,3429,-4070,-2257,896,785,56,196,888
156666,1217212,1238004,1222011,1254779,1569,3353,-634,2904,-3543,-2120,578,1117,59,206,892
157667,1217472,1239048,1222208,1254976,1718,2909,-1064,2267,-2973,-2163,354,1207,59,206,892
158668,1217708,1240220,1222405,1255173,1852,1684,-1539,1908,-2325,-2193,344,2431,60,223,889
159669,1217968,1241300,1222602,1255370,1675,1874,-2578,2313,-1337,-1624,-1086,5633,60,223,889
160671,1218212,1242208,1222799,1255567,1755,2638,-4124,2932,-224,-1455,-1004,5186,62,203,895
161671,1218444,1243072,1222996,1255764,1816,2623,-5371,2884,554,-2016,799,2468,62,203,895
162672,1218700,1243924,1223193,1255961,1640,2412,-5712,1369,798,-2389,2689,-1188,65,180,899
163673,1218920,1244724,1223390,1256158,1856,2475,-5551,-827,749,-2306,2843,-1572,65,180,899
164674,1219092,1245568,1223587,1256355,2168,1918,-5432,-2920,814,-2444,2180,-624,43,179,894
165675,1219324,1246356,1223784,1256552,1778,2010,-5607,-4400,1136,-2337,1207,1605,43,179,894
166676,1219508,1247112,1223981,1256749,2085,1967,-6017,-5292,1656,-1918,391,3426,47,167,895
167678,1219692,1247908,1224178,1256946,2092,1455,-5838,-6448,2246,-627,-277,6746,47,156,896
168679,1219888,1248628,1224375,1257143,2018,1701,-2256,-8418,2294,6562,-1199,32767,47,156,896
169679,1220076,1249388,1224572,1257340,2072,1206,224,-7444,2767,4535,-4454,32767,51,165,895
170680,1220280,1250084,1224769,1257537,1970,1389,-436,-5267,3675,-97,-2495,10896,51,165,895
171681,1220480,1250760,1224966,1257734,1995,1304,-1683,-4030,4136,-868,883,6298,35,146,898
172682,1220712,1251432,1225163,1257931,1781,1122,-1958,-4236,4087,-965,1969,4018,35,146,898
173683,1220928,1251948,1225360,1258128,1873,1958,-1638,-4996,3882,-929,1815,4282,37,118,898
174684,1221192,1252464,1225557,1258325,1545,1819,-1387,-4463,3738,-1432,1460,7277,37,118,898
175685,1221372,1252924,1225754,1258522,2078,2055,-1322,-3477,3781,-2300,637,7635,39,95,895
176694,1221572,1253264,1225984,1258752,1966,2757,-1408,-2062,3985,-2396,-625,9394,39,95,895
177687,1221756,1253544,1226181,1258949,2073,3097,-1563,-379,4224,-3490,-1277,9761,52,70,893
178689,1221976,1253812,1226378,1259146,1839,3142,-1603,876,4261,-4985,-54,8350,52,70,893
179689,1222196,1254036,1226575,1259343,1830,3406,-1452,1740,3766,-6109,-274,7120,41,45,886
180691,1222408,1254228,1226772,1259540,1874,3609,-1236,2058,2858,-6820,-1462,6087,41,45,886
181704,1222636,1254388,1226969,1259737,1762,3800,-1036,2371,1963,-5918,-672,6005,54,36,885
182705,1222852,1254512,1227166,1259934,1828,3800,-813,2285,1174,-5822,1413,3883,54,36,885
183706,1223060,1254640,1227363,1260131,1874,3800,-486,1738,672,-5707,897,3200,35,38,881
184707,1223248,1254796,1227560,1260328,2004,3800,-169,1350,569,-4957,-320,3977,35,38,881
185708,1223476,1254944,1227757,1260525,1742,3800,151,823,682,-4750,-546,2720,49,24,881
186696,1223692,1255140,1227954,1260722,1809,3709,413,-14,843,-4513,-83,2084,49,24,881
187710,1223928,1255308,1228151,1260919,1667,3800,583,-980,943,-4154,0,1809,53,43,878
188711,1224176,1255476,1228348,1261116,1571,3800,650,-2157,940,-3940,182,1187,53,43,878
189699,1224396,1255668,1228545,1261313,1737,3765,681,-3433,811,-3793,-303,1055,58,37,881
190700,1224636,1255880,1228742,1261510,1594,3635,717,-4742,630,-3424,-614,1174,58,37,881
191701,1224876,1256096,1228939,1261707,1576,3602,720,-5971,451,-2884,-51,1810,53,38,881
192702,1225112,1256304,1229136,1261904,1584,3648,637,-6958,396,-2383,537,2584,53,38,881
193703,1225344,1256528,1229333,1262101,1594,3538,501,-7755,517,-1738,667,2779,40,40,885
194704,1225588,1256764,1229530,1262298,1500,3446,349,-8500,801,-1003,645,2889,40,40,885
195705,1225800,1256956,1229727,1262495,1694,3725,102,-8900,1199,-639,430,4617,49,40,885
196706,1226032,1257156,1229924,1262692,1554,3674,-239,-8928,1564,-707,140,5700,49,40,885
197707,1226228,1257368,1230121,1262889,1780,3594,-511,-8854,1793,-772,323,5912,39,47,883
198721,1226428,1257516,1230318,1263086,1755,3800,-576,-8609,1921,-223,661,8354,39,47,883
199722,1226660,1257688,1230515,1263283,1541,3800,-10,-7507,1948,1072,671,17325,50,30,883
200710,1226868,1257884,1230712,1263480,1686,3730,1028,-5186,1936,1722,168,23554,50,30,883
201724,1227056,1258040,1230909,1263677,1816,3800,1378,-3518,2046,503,288,11097,36,34,881
202712,1227244,1258244,1231106,1263874,1821,3697,973,-2909,2309,765,182,7333,36,34,881
203726,1227440,1258416,1231303,1264071,1772,3800,312,-2752,2624,1395,256,6836,54,28,881
204727,1227624,1258588,1231500,1264268,1853,3800,-204,-2592,2902,1878,251,6264,54,28,881
205728,1227792,1258756,1231697,1264465,1967,3800,-519,-2433,3179,2186,-484,5772,47,44,881
206716,1227976,1259004,1231894,1264662,1873,3439,-686,-2402,3426,2429,-835,5267,47,44,881
207717,1228160,1259260,1232091,1264859,1880,3364,-771,-2466,3604,2592,-1028,4960,51,52,880
208718,1228324,1259552,1232288,1265056,2019,3098,-802,-2655,3739,2748,-1330,4642,51,52,880
209719,1228512,1259864,1232485,1265253,1874,2924,-809,-2867,3848,2848,-1954,4501,31,50,885
210721,1228660,1260148,1232682,1265450,2147,3061,-812,-3072,3943,2550,-2449,4550,31,50,885
211721,1228804,1260416,1232879,1265647,2196,3131,-757,-3239,3998,2108,-2479,4501,35,70,888
212722,1228980,1260716,1233076,1265844,2006,2887,-637,-3372,3967,2220,-1848,4229,35,70,888
213723,1229164,1261088,1233273,1266041,1962,2361,-412,-3560,3879,2569,-1198,3844,42,57,884
214724,1229332,1261404,1233470,1266238,2076,2660,-113,-3745,3780,2571,-1115,3953,42,57,884
215725,1229488,1261708,1233667,1266435,2170,2689,204,-3752,3704,2349,-1412,4328,32,68,890
216726,1229624,1262064,1233864,1266632,2322,2295,520,-3680,3672,1903,-1458,4431,32,68,890
217727,1229760,1262412,1234061,1266829,2350,2279,844,-3384,3624,1152,-1132,4844,23,78,888
218728,1229908,1262764,1234258,1267026,2297,2186,1185,-2840,3492,286,-970,5348,23,78,888
219729,1230052,1263112,1234455,1267223,2346,2146,1532,-2151,3253,-625,-755,5569,43,77,890
220730,1230216,1263468,1234652,1267420,2237,2027,1884,-1361,2981,-1243,-727,5659,43,77,890
221731,1230400,1263800,1234849,1267617,2119,2119,2192,-412,2750,-1386,-792,5934,41,76,890
222732,1230588,1264140,1235046,1267814,2098,2006,2435,545,2565,-1655,-809,5729,41,76,890
223733,1230756,1264428,1235243,1268011,2236,2292,2676,1386,2414,-2028,-775,4908,46,73,891
224734,1230932,1264796,1235440,1268208,2197,1718,2966,2043,2336,-1983,-812,4374,46,73,891
225736,1231124,1265160,1235637,1268405,2100,1670,3222,2756,2328,-1769,-901,4279,51,76,891
226737,1231288,1265520,1235834,1268602,2290,1624,3433,3380,2367,-1689,-884,3638,51,76,891
227737,1231472,1265832,1236031,1268799,2172,1874,3614,3702,2429,-1387,-708,2588,35,68,894
228738,1231676,1266204,1236228,1268996,2045,1422,3749,3676,2562,-577,-587,1568,35,68,894
229739,1231888,1266600,1236425,1269193,1988,1186,3799,3630,2789,-217,-1103,1582,54,80,893
230740,1232108,1267000,1236622,1269390,1929,1072,3777,3575,3079,-249,-1730,1229,54,80,893
231741,1232352,1267344,1236819,1269587,1760,1358,3757,3322,3341,-301,-1670,209,51,85,897
232742,1232564,1267720,1237016,1269784,1954,1080,3772,2863,3553,67,-1555,-470,51,85,897
233743,1232776,1268108,1237213,1269981,1948,921,3831,2218,3760,530,-1625,-949,56,63,897
234744,1233020,1268416,1237410,1270178,1729,1373,3858,1546,3980,1061,-2066,-1062,56,63,897
235745,1233252,1268792,1237607,1270375,1789,869,3831,983,4191,1484,-2104,-908,43,77,897
236746,1233496,1269144,1237804,1270572,1694,951,3746,524,4373,1840,-2202,-734,43,77,897
237747,1233736,1269460,1238001,1270769,1701,1125,3578,286,4507,2076,-2646,-108,51,56,899
238748,1233952,1269772,1238198,1270966,1843,1099,3046,374,4645,1457,-3111,635,51,56,899
239749,1234172,1270032,1238395,1271163,1809,1397,2779,625,4603,1715,-2995,1109,54,52,899
240750,1234424,1270316,1238592,1271360,1586,1208,2481,994,4445,1873,-2702,1464,54,52,899
241751,1234644,1270644,1238789,1271557,1776,877,2210,1353,4135,1792,-2366,943,56,50,898
242752,1234888,1270916,1238986,1271754,1606,1194,1986,1603,3695,1665,-1945,832,56,50,898
243753,1235132,1271160,1239183,1271951,1587,1348,1745,2025,3231,1927,-2231,1645,61,57,900
244754,1235360,1271392,1239380,1272148,1674,1408,1449,2702,2818,2278,-2327,2078,61,57,900
245755,1235572,1271636,1239577,1272345,1769,1312,1218,3184,2433,2319,-1969,1132,46,46,898
246756,1235844,1271916,1239774,1272542,1361,1051,1020,3411,2084,2829,-1755,1079,46,46,898
247757,1236064,1272156,1239971,1272739,1676,1283,809,3702,1809,3312,-1531,1272,49,49,898
248758,1236264,1272368,1240168,1272936,1801,1451,607,3856,1561,3372,-1239,708,49,49,898
249759,1236512,1272608,1240365,1273133,1480,1257,458,3807,1229,3292,-693,63,38,47,899
250760,1236716,1272828,1240562,1273330,1752,1372,362,3603,826,3429,-258,-249,38,47,899
251761,1236916,1273084,1240759,1273527,1776,1121,312,3275,421,3842,-104,-685,48,41,899
252762,1237140,1273328,1240956,1273724,1615,1176,298,2770,37,3987,-97,-1033,48,41,899
253763,1237388,1273584,1241153,1273921,1443,1075,315,2252,-247,3947,-245,-828,47,49,899
254764,1237588,1273820,1241350,1274118,1743,1182,320,1928,-429,3927,-222,-416,47,49,899
255765,1237776,1274036,1241547,1274315,1823,1299,292,1653,-596,3764,86,-547,49,54,899
256766,1237956,1274268,1241744,1274512,1881,1184,268,1262,-780,3749,453,-995,49,54,899
257767,1238112,1274544,1241941,1274709,2049,874,201,805,-1006,3803,690,-958,40,56,896
258768,1238272,1274800,1242138,1274906,2041,973,119,316,-1278,3488,706,-1021,40,56,896
259778,1238460,1275056,1242368,1275136,1886,962,15,-40,-1563,3041,434,-312,30,47,898
260770,1238676,1275276,1242565,1275333,1704,1177,-74,-147,-1807,2644,222,140,30,47,898
261771,1238884,1275476,1242762,1275530,1749,1300,-166,-43,-2013,2074,185,757,37,52,898
262772,1239116,1275728,1242959,1275727,1584,951,-304,357,-2187,1687,-141,1726,37,52,898
263773,1239296,1275992,1243156,1275924,1918,847,-503,961,-2345,1286,-407,2131,35,44,898
264774,1239500,1276200,1243353,1276121,1766,1192,-756,1624,-2522,1102,-313,2345,35,44,898
265775,1239716,1276436,1243550,1276318,1682,1000,-1027,2258,-2741,749,-296,2441,53,46,899
266776,1239936,1276632,1243747,1276515,1648,1250,-1233,2677,-2993,384,-273,1720,53,46,899
267777,1240180,1276828,1243944,1276712,1479,1251,-1364,2923,-3281,246,-106,1396,40,41,898
268778,1240444,1277024,1244141,1276909,1324,1251,-1514,3138,-3518,109,-484,1556,40,41,898
269779,1240660,1277204,1244338,1277106,1617,1358,-1751,3274,-3633,146,-1171,1442,34,35,899
270780,1240868,1277408,1244535,1277303,1663,1205,-2054,3399,-3658,322,-1553,1446,34,35,899
271781,1241096,1277588,1244732,1277500,1525,1363,-2349,3347,-3660,394,-1650,1076,57,41,899
272782,1241316,1277736,1244929,1277697,1565,1584,-2576,2961,-3709,246,-1542,367,57,41,899
273783,1241572,1277908,1245126,1277894,1315,1445,-2748,2336,-3840,-221,-1563,3,48,36,899
274784,1241820,1278056,1245323,1278091,1344,1617,-2907,1665,-3998,-685,-1760,146,48,36,899
275785,1242028,1278172,1245520,1278288,1589,1852,-3074,945,-4123,-932,-1843,197,33,34,899
276786,1242244,1278292,1245717,1278485,1532,1861,-3273,261,-4179,-835,-2083,672,33,34,899
277787,1242480,1278396,1245914,1278682,1391,2002,-3523,-274,-4115,-617,-2607,1340,44,28,895
278788,1242716,1278508,1246111,1278879,1373,1990,-3826,-679,-3951,-622,-3130,2291,44,28,895
279789,1242932,1278664,1246308,1279076,1491,1733,-4192,-799,-3751,-1030,-3418,3531,44,25,895
280790,1243152,1278832,1246505,1279273,1457,1670,-4634,-774,-3529,-1397,-3455,3983,44,25,895
281791,1243356,1278972,1246702,1279470,1554,1871,-5483,-224,-3122,-853,-3505,6335,50,22,897
282792,1243564,1279108,1246899,1279667,1525,1923,-6128,-224,-2938,-1012,-1967,3171,50,22,897
283793,1243748,1279260,1247096,1279864,1681,1843,-6390,-974,-3061,-900,-1134,2271,33,35,896
284794,1244012,1279392,1247293,1280061,1152,1996,-6689,-1719,-3096,-667,-2359,3927,33,35,896
285795,1244220,1279516,1247490,1280258,1499,2079,-7182,-1950,-2912,-652,-3352,5207,57,31,895
286796,1244428,1279644,1247687,1280455,1494,2084,-7659,-1853,-2656,-532,-2218,6123,57,31,895
287797,1244636,1279772,1247884,1280652,1490,2114,-5560,1036,-2510,2364,-1061,17846,49,23,895
288798,1244816,1279876,1248081,1280849,1673,2305,954,13484,-2606,8681,-191,32767,49,23,895
289799,1245020,1280000,1248278,1281046,1520,2213,5005,19304,-2317,3452,-2447,2957,28,19,894
290800,1245272,1280148,1248475,1281243,1197,2085,5231,17279,-2018,2796,-415,-1105,28,19,894
291801,1245464,1280304,1248672,1281440,1574,2053,3817,11637,-1788,2941,-736,-4784,40,37,893
292802,1245656,1280424,1248869,1281637,1577,2312,3101,7230,-1451,2822,-2347,-3771,40,37,893
293803,1245856,1280548,1249066,1281834,1527,2319,2709,4241,-1010,1671,-1950,-2744,47,24,895
294804,1246076,1280680,1249263,1282031,1392,2298,2557,1877,-713,1782,-1542,-2761,47,24,895
295805,1246272,1280800,1249460,1282228,1543,2407,2130,-179,-507,2402,-1668,-381,44,24,893
296806,1246472,1280932,1249657,1282425,1517,2361,1587,-2034,-258,1420,-1019,253,44,24,893
297807,1246708,1281056,1249854,1282622,1276,2444,1148,-3657,-190,701,-628,1908,30,35,892
298808,1246884,1281164,1250051,1282819,1661,2583,742,-4438,-226,-195,-1952,4002,30,35,892
299809,1247104,1281288,1250248,1283016,1376,2515,458,-4823,-169,-1468,-2491,5253,47,28,891
300810,1247308,1281404,1250445,1283213,1474,2600,234,-4522,-218,-1748,-2321,7156,47,28,891
301811,1247524,1281560,1250642,1283410,1391,2369,148,-4041,-479,-2348,-1232,6859,45,25,892
302812,1247788,1281700,1250839,1283607,1062,2495,161,-3504,-829,-2991,-506,7941,45,25,892
303813,1247964,1281828,1251036,1283804,1623,2601,156,-2562,-1198,-2957,-145,8592,56,18,892
304814,1248224,1281948,1251233,1284001,1070,2685,147,-1633,-1474,-3267,-185,8328,56,18,892
305815,1248484,1282056,1251430,1284198,1043,2799,139,-423,-1617,-3531,-83,9285,58,30,891
306816,1248728,1282168,1251627,1284395,1122,2812,90,784,-1704,-3275,402,8963,58,30,891
307817,1249020,1282280,1251824,1284592,782,2850,79,1878,-1783,-3118,744,8697,54,19,891
308818,1249256,1282392,1252021,1284789,1115,2888,144,2893,-1868,-3201,774,8186,54,19,891
309819,1249540,1282520,1252218,1284986,777,2818,308,3448,-2001,-3095,807,6595,52,34,892
310820,1249784,1282640,1252415,1285183,1007,2902,504,3639,-2147,-2764,1041,5727,52,34,892
311821,1250044,1282800,1252612,1285380,880,2669,751,3379,-2257,-2229,1399,3958,39,28,891
312822,1250320,1282972,1252809,1285577,745,2605,1054,2601,-2323,-1331,1403,2415,39,28,891
313823,1250528,1283148,1253006,1285774,1166,2591,1360,1584,-2260,-461,1120,1651,57,41,892
314824,1250792,1283312,1253203,1285971,787,2680,1643,346,-2048,23,866,720,57,41,892
315825,1251084,1283536,1253400,1286168,571,2294,1838,-983,-1806,439,336,589,36,39,893
316826,1251284,1283732,1253597,1286365,1145,2470,1955,-2147,-1626,556,374,938,36,39,893
317827,1251520,1283964,1253794,1286562,904,2230,2015,-3168,-1485,486,464,1065,56,37,896
318828,1251760,1284172,1253991,1286759,860,2375,2039,-4096,-1391,512,441,1158,56,37,896
319829,1251944,1284384,1254188,1286956,1217,2345,2051,-4893,-1316,466,147,1332,51,35,896
320830,1252152,1284580,1254385,1287153,1062,2445,2052,-5585,-1238,380,-343,1625,51,35,896
321831,1252436,1284808,1254582,1287350,549,2233,2035,-6218,-1173,382,-777,1565,34,46,894
322832,1252624,1285012,1254779,1287547,1154,2380,1987,-6779,-1100,284,-868,1853,34,46,894
323833,1252820,1285272,1254976,1287744,1104,2003,1879,-7121,-1022,355,-917,2351,30,46,895
324834,1253012,1285480,1255173,1287941,1132,2323,1699,-7285,-934,532,-1186,2892,30,46,895
325835,1253200,1285708,1255370,1288138,1161,2185,1484,-7218,-803,508,-1447,3373,41,45,896
326836,1253376,1285940,1255567,1288335,1246,2145,1283,-7117,-680,509,-1471,3232,41,45,896
327837,1253552,1286156,1255764,1288532,1256,2238,1096,-7094,-611,680,-1315,3148,32,49,895
328838,1253708,1286368,1255961,1288729,1399,2256,938,-7062,-593,745,-957,3176,32,49,895
329839,1253896,1286572,1256158,1288926,1204,2304,799,-7003,-614,893,-545,3176,47,36,895
330840,1254068,1286756,1256355,1289123,1315,2435,652,-6870,-647,1258,-171,3262,47,36,895
331841,1254272,1286980,1256552,1289320,1112,2174,485,-6687,-664,1593,276,3331,24,54,894
332842,1254432,1287208,1256749,1289517,1404,2135,274,-6465,-665,2097,624,3357,24,54,894
333843,1254588,1287452,1256946,1289714,1448,2015,43,-6257,-656,2670,942,3348,21,50,895
334844,1254764,1287700,1257143,1289911,1332,1968,-189,-6109,-648,3117,1291,2977,21,50,895
335845,1254900,1287900,1257340,1290108,1609,2267,-387,-6069,-642,3638,1529,2653,26,52,895
336846,1255068,1288080,1257537,1290305,1423,2400,-583,-6063,-650,4008,1902,2428,26,52,895
337847,1255228,1288328,1257734,1290502,1489,1953,-821,-6015,-643,4224,1922,2639,41,54,894
338848,1255392,1288556,1257931,1290699,1479,2065,-1345,-5508,-494,4401,1217,4199,41,54,894
339849,1255528,1288796,1258128,1290896,1681,1971,-1785,-5293,-420,3859,1573,2019,19,54,894
340850,1255700,1289028,1258325,1291093,1468,2006,-1973,-5438,-515,3789,1945,1403,19,54,894
341851,1255828,1289260,1258522,1291290,1773,1992,-2067,-5731,-664,4075,1835,1571,39,45,895
342859,1255980,1289460,1258752,1291520,1659,2205,-2167,-5906,-772,4153,1291,1884,39,45,895
343853,1256152,1289668,1258949,1291717,1545,2150,-2322,-5716,-790,3982,617,2799,36,57,894
344854,1256304,1289916,1259146,1291914,1690,1879,-2495,-5305,-738,3689,19,3103,36,57,894
345855,1256476,1290172,1259343,1292111,1576,1803,-2649,-4844,-674,3346,-517,3346,22,55,892
346856,1256656,1290380,1259540,1292308,1535,2099,-2745,-4306,-615,2840,-968,3480,22,55,892
347857,1256832,1290600,1259737,1292505,1570,2014,-2775,-3777,-569,2336,-1148,3415,43,38,895
348858,1257016,1290796,1259934,1292702,1526,2164,-2756,-3192,-529,2022,-1238,3742,43,38,895
349859,1257220,1290996,1260131,1292899,1399,2139,-2714,-2496,-464,1777,-1418,4073,40,35,895
350860,1257388,1291252,1260328,1293096,1636,1763,-2658,-1627,-367,1597,-1672,4343,40,35,895
351861,1257588,1291476,1260525,1293293,1436,1951,-2595,-607,-238,1385,-1991,4607,49,40,895
352862,1257788,1291700,1260722,1293490,1435,1940,-2513,363,-93,1084,-2307,4591,49,40,895
353863,1257976,1291916,1260919,1293687,1515,1982,-2405,1278,48,979,-2414,4375,51,39,896
354864,1258164,1292116,1261116,1293884,1519,2080,-2273,2071,187,987,-2367,4065,51,39,896
355865,1258380,1292340,1261313,1294081,1336,1920,-2127,2830,327,873,-2394,4001,39,48,895
356866,1258600,1292536,1261510,1294278,1302,2095,-1967,3609,488,704,-2427,3987,39,48,895
357867,1258808,1292744,1261707,1294475,1372,2015,-1768,4327,651,637,-2280,3764,37,32,895
358868,1259008,1292936,1261904,1294672,1422,2118,-1551,4967,791,812,-1990,3693,37,32,895
359869,1259212,1293112,1262101,1294869,1394,2228,-1353,5620,939,812,-1777,3607,53,37,895
360871,1259380,1293292,1262298,1295066,1633,2210,-1157,6189,1143,710,-1896,3564,53,37,895
361871,1259600,1293488,1262495,1295263,1298,2112,-963,6718,1352,630,-1766,3489,51,43,894
362872,1259812,1293676,1262692,1295460,1342,2165,-781,7128,1535,524,-1472,3107,51,43,894
363873,1260020,1293892,1262889,1295657,1362,1982,-615,7482,1667,477,-1230,2978,40,40,895
364874,1260192,1294128,1263086,1295854,1599,1841,-488,7805,1758,230,-1145,3137,40,40,895
365875,1260376,1294336,1263283,1296051,1530,2011,-392,8175,1864,-56,-1278,3486,40,49,895
366876,1260524,1294536,1263480,1296248,1778,2060,-331,8666,1974,-151,-1318,3744,40,49,895
367877,1260684,1294768,1263677,1296445,1720,1845,-279,9050,2065,-218,-1044,3515,30,42,894
368878,1260816,1294984,1263874,1296642,1923,1937,-196,9343,2135,-395,-723,3403,30,42,894
369879,1260948,1295224,1264071,1296839,1953,1768,-103,9588,2185,-543,-460,3355,43,57,894
370880,1261080,1295472,1264268,1297036,1981,1697,-11,9809,2230,-683,-417,3399,43,57,894
371881,1261176,1295716,1264465,1297233,2252,1701,72,10060,2287,-727,-369,3716,45,56,894
372882,1261312,1296008,1264662,1297430,2030,1359,131,10299,2267,-819,-439,3827,45,56,894
373883,1261476,1296208,1264859,1297627,1869,1934,177,10509,2165,-1022,-474,3847,46,37,893
374884,1261640,1296360,1265056,1297824,1885,2254,200,10627,2024,-1171,-498,3777,46,37,893
375885,1261772,1296468,1265253,1298021,2114,2568,183,10652,1877,-1257,-522,3838,44,24,894
376886,1261908,1296616,1265450,1298218,2116,2340,153,10705,1749,-1326,-429,3791,44,24,894
377887,1262028,1296768,1265647,1298415,2251,2335,166,10688,1649,-1445,-339,3686,42,27,888
378888,1262172,1296976,1265844,1298612,2125,1980,241,10532,1569,-1567,-382,3569,42,27,888
379889,1262284,1297196,1266041,1298809,2363,1895,352,10257,1470,-1720,-351,3416,42,35,889
380890,1262424,1297464,1266238,1299006,2214,1565,452,9978,1321,-1826,-359,3439,42,35,889
381891,1262536,1297764,1266435,1299203,2427,1320,524,9604,1124,-1945,-617,3329,17,54,891
382892,1262640,1297972,1266632,1299400,2518,1890,578,9161,926,-2190,-723,3372,17,54,891
383893,1262760,1298320,1266829,1299597,2453,949,631,8655,769,-2415,-525,3230,20,65,893
384894,1262872,1298612,1267026,1299794,2541,1258,660,8151,666,-2540,-463,3454,20,65,893
385895,1263000,1298888,1267223,1299991,2472,1323,680,7633,623,-2631,-691,3580,21,49,893
386896,1263104,1299148,1267420,1300188,2664,1396,723,7052,619,-2733,-970,3406,21,49,893
387897,1263224,1299440,1267617,1300385,2598,1154,2207,5021,891,-6124,-3352,12079,36,69,891
388898,1263312,1299748,1267814,1300582,2847,1006,4715,2542,1416,-6878,-3677,16915,36,69,891
389899,1263420,1300064,1268011,1300779,2762,904,5472,1524,1728,-3270,-1146,5319,26,70,891
390900,1263540,1300356,1268208,1300976,2722,1012,5060,1507,1812,-3073,-657,5041,26,70,891
391901,1263660,1300672,1268405,1301173,2757,810,4449,1758,1792,-3438,-194,5577,38,61,892
392902,1263800,1300980,1268602,1301370,2658,811,4163,1791,1694,-3545,940,5195,38,61,892
393903,1263916,1301276,1268799,1301567,2844,842,3992,1589,1576,-3438,1381,5237,21,54,892
394904,1264060,1301588,1268996,1301764,2694,692,3860,1333,1479,-3414,1567,4535,21,54,892
395905,1264180,1301876,1269193,1301961,2878,802,3632,1122,1440,-3207,1522,4941,22,57,892
396906,1264324,1302188,1269390,1302158,2752,601,3383,1000,1455,-2815,1707,4661,22,57,892
397907,1264432,1302504,1269587,1302355,3017,524,3168,780,1487,-2479,1953,4095,20,51,892
398908,1264576,1302768,1269784,1302552,2816,820,2994,474,1538,-2268,1896,3904,20,51,892
399909,1264712,1302968,1269981,1302749,2894,1218,2834,39,1588,-2026,1673,3342,37,45,891
400910,1264848,1303220,1270178,1302946,2922,869,2670,-566,1599,-1766,1739,2954,37,45,891
401911,1264972,1303456,1270375,1303143,3030,952,2530,-1248,1570,-1652,1955,2487,39,48,890
402912,1265120,1303652,1270572,1303340,2902,1202,2372,-1908,1517,-1523,2379,2532,39,48,890
403913,1265288,1303832,1270769,1303537,2791,1310,2191,-2508,1463,-1438,2452,2603,24,46,890
404914,1265428,1304012,1270966,1303734,2993,1317,1945,-2934,1418,-1396,2476,3165,24,46,890
405915,1265568,1304188,1271163,1303931,3019,1352,1627,-3106,1333,-1303,2687,3815,23,35,890
406917,1265724,1304348,1271360,1304128,2938,1468,1222,-3150,1164,-1435,2742,3996,23,35,890
407917,1265860,1304492,1271557,1304325,3091,1591,778,-3109,958,-1441,2671,4202,44,42,887
408919,1265992,1304648,1271754,1304522,3146,1534,291,-3012,751,-1118,2717,4296,44,42,887
409920,1266116,1304820,1271951,1304719,3229,1445,-222,-2915,536,-753,3099,4271,19,30,887
410921,1266248,1304992,1272148,1304916,3208,1456,-734,-2858,319,-683,3032,4006,19,30,887
411922,1266352,1305176,1272345,1305113,3425,1387,-1216,-2931,109,-520,2787,3569,16,41,885
412923,1266448,1305316,1272542,1305310,3521,1687,-1681,-3044,-84,-217,2665,3548,16,41,885
413924,1266564,1305456,1272739,1305507,3432,1712,-2143,-3179,-233,60,2526,3539,31,26,884
414925,1266680,1305620,1272936,1305704,3470,1576,-2604,-3263,-336,290,2319,3421,31,26,884
415926,1266788,1305760,1273133,1305901,3560,1751,-3034,-3390,-413,427,2047,3283,36,28,883
416927,1266900,1305940,1273330,1306098,3573,1509,-3368,-3661,-468,469,1841,2895,36,28,883
417927,1266992,1306076,1273527,1306295,3745,1811,-3593,-4030,-531,545,1649,2641,26,43,883
418929,1267088,1306228,1273724,1306492,3766,1731,-3724,-4416,-572,582,1270,2462,26,43,883
419929,1267196,1306384,1273921,1306689,3732,1724,-3796,-4815,-573,505,879,2509,13,26,882
420931,1267316,1306548,1274118,1306886,3692,1688,-3817,-5114,-547,564,420,2698,13,26,882
421931,1267452,1306700,1274315,1307083,3619,1783,-3787,-5269,-499,583,-65,3071,21,34,877
422933,1267608,1306864,1274512,1307280,3514,1722,-3706,-5332,-454,662,-437,3508,21,34,877
423933,1267760,1307016,1274709,1307477,3560,1817,-3592,-5304,-431,820,-634,3809,45,25,880
424935,1267928,1307128,1274906,1307674,3474,2104,-3451,-5184,-440,934,-531,4067,45,25,880
425943,1268076,1307264,1275136,1307904,3637,1996,-3294,-4983,-501,1005,-288,4398,45,24,882
426937,1268220,1307396,1275333,1308101,3686,2049,-3134,-4634,-615,1201,-80,4835,45,24,882
427950,1268348,1307580,1275530,1308298,3800,1730,-2995,-4110,-747,1530,49,5545,31,40,881
428938,1268492,1307752,1275727,1308495,3743,1817,-2867,-3460,-866,1953,232,6034,31,40,881
429952,1268616,1307916,1275924,1308692,3800,1882,-2763,-2677,-978,2444,510,6445,39,47,879
430953,1268756,1308076,1276121,1308889,3800,1923,-2678,-1832,-1100,2646,708,6924,39,47,879
431954,1268888,1308256,1276318,1309086,3800,1805,-2428,-751,-1223,2968,451,9126,32,39,880
432955,1269008,1308412,1276515,1309283,3800,1973,-937,2904,-1410,5757,-529,32315,32,39,880
433956,1269148,1308592,1276712,1309480,3800,1831,715,6007,-1576,4981,126,16640,40,39,878
434957,1269292,1308764,1276909,1309677,3800,1893,1268,6593,-1624,3985,758,4365,40,39,878
435958,1269440,1308940,1277106,1309874,3800,1877,1218,5670,-1648,4085,715,3072,32,32,879
436959,1269596,1309108,1277303,1310071,3800,1940,1108,4611,-1698,4159,398,2734,32,32,879
437960,1269760,1309284,1277500,1310268,3800,1899,1163,4056,-1781,4022,451,3015,25,40,880
438949,1269940,1309460,1277697,1310465,3761,1908,1285,3514,-1895,3676,358,2366,25,40,880
439962,1270100,1309620,1277894,1310662,3800,2024,1360,3045,-2094,3507,362,2821,43,45,879
440951,1270292,1309764,1278091,1310859,3708,2149,1395,2566,-2323,2848,435,2653,43,45,879
441964,1270440,1309892,1278288,1311056,3800,2279,1366,1994,-2522,2421,316,2715,44,44,880
442965,1270604,1310056,1278485,1311253,3800,2069,1300,1663,-2697,2284,30,3368,44,44,880
443966,1270788,1310224,1278682,1311450,3800,2056,1167,1484,-2830,1732,-290,3914,47,30,878
444967,1270960,1310372,1278879,1311647,3800,2204,999,1644,-2965,1222,-510,4710,47,30,878
445968,1271136,1310536,1279076,1311844,3800,2118,801,1859,-3127,670,-668,4657,40,44,877
446969,1271324,1310684,1279273,1312041,3800,2240,646,2090,-3284,92,-778,4659,40,44,877
447970,1271500,1310800,1279470,1312238,3800,2475,505,2339,-3392,-223,-929,4789,48,28,877
448972,1271676,1310928,1279667,1312435,3800,2432,403,2450,-3425,-580,-1005,4147,48,28,877
449972,1271860,1311048,1279864,1312632,3800,2516,360,2404,-3383,-892,-972,3846,44,39,877
450961,1272060,1311196,1280061,1312829,3762,2362,368,2335,-3309,-1164,-1016,3632,44,39,877
451974,1272236,1311336,1280258,1313026,3800,2437,409,2204,-3225,-1443,-1110,3349,47,23,877
452975,1272408,1311460,1280455,1313223,3800,2570,460,2151,-3083,-1685,-1242,3591,47,23,877
453963,1272628,1311592,1280652,1313420,3652,2549,506,2086,-2877,-1892,-1339,3454,48,41,877
454977,1272808,1311732,1280849,1313617,3800,2524,542,2062,-2640,-1911,-1375,3516,48,41,877
455965,1273008,1311892,1281046,1313814,3786,2416,577,2067,-2408,-1999,-1164,3469,29,43,875
456979,1273196,1312024,1281243,1314011,3800,2620,638,1937,-2192,-2059,-856,3096,29,43,875
457968,1273396,1312172,1281440,1314208,3791,2542,737,1731,-1990,-2060,-638,2837,33,32,876
458968,1273600,1312316,1281637,1314405,3764,2591,865,1518,-1791,-2182,-473,2636,33,32,876
459970,1273812,1312456,1281834,1314602,3710,2641,1011,1273,-1596,-2396,-492,2592,55,27,875
460971,1274032,1312588,1282031,1314799,3651,2720,1137,1054,-1424,-2575,-610,2762,55,27,875
461984,1274228,1312760,1282228,1314996,3800,2481,1259,897,-1257,-2736,-668,2768,49,47,876
462985,1274420,1312920,1282425,1315193,3800,2573,1372,739,-1112,-2599,-568,2689,49,47,876
463986,1274600,1313092,1282622,1315390,3800,2509,1478,565,-977,-2500,-439,2592,44,48,877
464975,1274800,1313268,1282819,1315587,3790,2494,1557,405,-836,-2441,-251,2666,44,48,877
465988,1274996,1313440,1283016,1315784,3800,2531,1610,245,-703,-2348,-138,2666,41,50,873
466989,1275168,1313632,1283213,1315981,3800,2408,1634,98,-569,-2214,-198,2673,41,50,873
467990,1275344,1313816,1283410,1316178,3800,2464,1648,-46,-424,-2114,-154,2638,47,48,875
468991,1275524,1314016,1283607,1316375,3800,2363,1654,-283,-294,-1889,-61,2408,47,48,875
469992,1275704,1314220,1283804,1316572,3800,2336,1643,-582,-196,-1633,143,2225,50,47,877
470993,1275888,1314416,1284001,1316769,3800,2387,1617,-911,-100,-1334,399,2186,50,47,877
471982,1276112,1314616,1284198,1316966,3681,2361,1568,-1232,-4,-1034,590,2112,54,35,876
472995,1276312,1314820,1284395,1317163,3800,2333,1491,-1582,90,-799,699,2149,54,35,876
473996,1276508,1314976,1284592,1317360,3800,2651,1396,-1921,189,-581,752,2120,35,42,878
474985,1276716,1315172,1284789,1317557,3780,2403,1263,-2234,288,-352,783,2233,35,42,878
475998,1276920,1315392,1284986,1317754,3800,2242,1107,-2525,391,-192,820,2274,32,42,877
476999,1277120,1315616,1285183,1317951,3800,2207,931,-2844,485,14,862,2329,32,42,877
478000,1277300,1315840,1285380,1318148,3800,2195,737,-3125,567,254,894,2399,33,45,876
479001,1277476,1316072,1285577,1318345,3800,2130,521,-3384,644,343,1010,2487,33,45,876
479990,1277684,1316312,1285774,1318542,3796,2061,286,-3633,709,460,1084,2505,53,62,878
481004,1277872,1316544,1285971,1318739,3800,2097,31,-3868,751,607,1098,2541,53,62,878
482004,1278060,1316812,1286168,1318936,3800,1841,-244,-4097,786,675,1108,2699,51,55,879
483005,1278228,1317084,1286365,1319133,3800,1783,-535,-4227,816,744,1033,2806,51,55,879
484006,1278392,1317332,1286562,1319330,3800,1912,-831,-4394,839,825,952,2833,48,45,879
485007,1278584,1317544,1286759,1319527,3800,2130,-1115,-4498,859,920,1067,2928,48,45,879
486008,1278748,1317808,1286956,1319724,3800,1776,-1385,-4632,871,997,1050,2837,45,63,880
487009,1278912,1318048,1287153,1319921,3800,1908,-1636,-4819,879,995,1019,2791,45,63,880
488010,1279096,1318312,1287350,1320118,3800,1728,-1885,-5005,880,993,1112,2966,36,58,877
489012,1279244,1318540,1287547,1320315,3800,1941,-2149,-5023,848,1108,1177,3404,36,58,877
490012,1279412,1318764,1287744,1320512,3800,1954,-2430,-4969,837,1236,889,3546,43,48,878
491013,1279580,1318980,1287941,1320709,3800,1995,-2689,-4873,886,1269,514,3724,43,48,878
492014,1279768,1319188,1288138,1320906,3800,2041,-2941,-4776,952,1256,404,3773,47,44,879
493015,1279956,1319424,1288335,1321103,3800,1849,-3156,-4704,971,1111,452,3580,47,44,879
494004,1280188,1319648,1288532,1321300,3778,1912,-3299,-4748,945,867,332,3222,49,45,880
495004,1280428,1319844,1288729,1321497,3711,2089,-3370,-4912,897,761,218,2981,49,45,880
496005,1280684,1320052,1288926,1321694,3587,2009,-3380,-5097,828,719,270,2808,47,51,880
497007,1280920,1320248,1289123,1321891,3696,2085,-3315,-5319,697,626,584,2656,47,51,880
498007,1281196,1320428,1289320,1322088,3414,2192,-3189,-5530,519,610,830,2622,50,52,880
499008,1281460,1320644,1289517,1322285,3460,1960,-3070,-5717,362,708,818,2991,50,52,880
500009,1281748,1320860,1289714,1322482,3272,1951,-2958,-5756,259,705,866,3382,50,51,879
501010,1282060,1321052,1289911,1322679,3073,2103,-2804,-5747,169,645,1039,3395,50,51,879
502011,1282368,1321248,1290108,1322876,3051,2080,-2610,-5694,86,641,1004,3701,52,45,883
503012,1282692,1321440,1290305,1323073,2896,2107,-2424,-5496,48,687,818,4185,52,45,883
504013,1283044,1321644,1290502,1323270,2655,2029,-2236,-5171,62,677,496,4512,51,39,885
505015,1283332,1321852,1290699,1323467,3016,2000,-2052,-4773,120,629,138,4955,51,39,885
506016,1283648,1322080,1290896,1323664,2791,1862,-1858,-4237,202,521,-51,5110,52,42,886
507016,1283984,1322272,1291093,1323861,2606,2089,-1643,-3731,286,438,-265,5204,52,42,886
508017,1284280,1322484,1291290,1324058,2813,1958,-1400,-3191,350,360,-292,5249,72,49,886
509025,1284612,1322704,1291520,1324288,2545,1913,-1109,-2728,395,283,-150,4971,72,49,886
510019,1284964,1322940,1291717,1324485,2353,1795,-801,-2293,425,346,-99,5163,53,39,887
511020,1285304,1323136,1291914,1324682,2366,2046,-522,-1748,467,359,-430,5602,53,39,887
512021,1285616,1323360,1292111,1324879,2493,1860,-273,-1196,519,344,-1014,5514,71,43,888
513023,1285964,1323600,1292308,1325076,2202,1741,-49,-658,568,572,-1163,5384,71,43,888
514024,1286292,1323836,1292505,1325273,2271,1749,131,-128,629,655,-1184,5480,64,51,890
515025,1286628,1324100,1292702,1325470,2161,1546,280,345,712,838,-1163,5461,64,51,890
516025,1286988,1324352,1292899,1325667,1940,1596,428,765,830,1180,-1108,5169,64,58,893
517027,1287312,1324600,1293096,1325864,2110,1599,564,1135,954,1173,-962,5089,64,58,893
518027,1287624,1324840,1293293,1326061,2137,1630,686,1415,1062,1088,-1134,4711,75,52,894
519028,1287932,1325096,1293490,1326258,2114,1505,796,1557,1151,968,-1293,4425,75,52,894
520029,1288288,1325320,1293687,1326455,1745,1693,926,1555,1250,812,-1322,3993,62,61,894
521031,1288608,1325576,1293884,1326652,1917,1467,1073,1443,1361,757,-1334,3698,62,61,894
522032,1288920,1325780,1294081,1326849,1918,1789,1215,1322,1475,722,-1465,3658,60,57,894
523032,1289232,1325996,1294278,1327046,1868,1706,1319,1264,1601,463,-1746,3850,60,57,894
524033,1289564,1326180,1294475,1327243,1685,1913,1398,1222,1706,139,-2065,3902,52,45,895
525035,1289868,1326440,1294672,1327440,1814,1410,1472,1186,1790,-174,-2327,4044,52,45,895
526035,1290204,1326688,1294869,1327637,1554,1463,1535,1173,1848,-353,-2182,4099,61,53,895
527036,1290508,1326924,1295066,1327834,1707,1520,1581,1118,1876,-234,-1930,3953,61,53,895
528037,1290832,1327120,1295263,1328031,1527,1771,1620,1017,1887,16,-1878,3800,62,38,897
529039,1291172,1327320,1295460,1328228,1365,1746,1635,916,1934,99,-2159,3913,62,38,897
530039,1291452,1327536,1295657,1328425,1704,1637,1636,806,1995,38,-2487,3919,53,48,896
531041,1291732,1327764,1295854,1328622,1669,1549,1645,613,2029,-62,-2619,3533,53,48,896
532041,1292012,1328032,1296051,1328819,1633,1267,1659,282,2054,7,-2646,3419,42,39,896
533043,1292264,1328216,1296248,1329016,1784,1798,1678,-78,2081,243,-2742,3431,42,39,896
534043,1292516,1328416,1296445,1329213,1761,1697,1677,-459,2111,342,-2914,3442,58,33,895
535044,1292768,1328580,1296642,1329410,1738,1936,1670,-712,2151,370,-3044,3600,58,33,895
536045,1292984,1328796,1296839,1329607,1956,1604,1610,-962,2185,547,-3049,3732,45,51,894
537047,1293192,1329012,1297036,1329804,2001,1596,1524,-1260,2207,775,-2988,3765,45,51,894
538048,1293388,1329224,1297233,1330001,2077,1614,1398,-1513,2250,1014,-2918,4022,54,47,894
539049,1293568,1329432,1297430,1330198,2186,1634,1252,-1709,2290,1195,-2766,4082,54,47,894
540050,1293752,1329636,1297627,1330395,2166,1656,1085,-1906,2301,1410,-2423,4245,31,34,894
541050,1293960,1329800,1297824,1330592,2013,1921,908,-2029,2303,1507,-2193,4310,31,34,894
542052,1294108,1329988,1298021,1330789,2410,1776,704,-2090,2319,1396,-2450,4601,40,44,893
543052,1294240,1330232,1298218,1330986,2540,1405,456,-2070,2350,1370,-2610,5085,40,44,893
544053,1294368,1330476,1298415,1331183,2595,1384,157,-1927,2354,1430,-2300,5414,42,49,891
545055,1294484,1330724,1298612,1331380,2707,1337,-127,-1848,2310,1714,-1673,4919,42,49,891
546056,1294616,1330952,1298809,1331577,2636,1448,-345,-2016,2239,2152,-1071,4332,24,44,890
547057,1294752,1331180,1299006,1331774,2639,1435,-541,-2220,2168,2632,-636,4455,24,44,890
548057,1294900,1331372,1299203,1331971,2586,1662,-780,-2229,2123,2643,-625,4812,32,53,890
549059,1295028,1331664,1299400,1332168,2742,995,-1051,-2159,2083,2322,-808,5104,32,53,890
550060,1295132,1331928,1299597,1332365,2934,1142,-1313,-2071,2041,2122,-740,5182,19,60,891
551060,1295252,1332188,1299794,1332562,2868,1139,-1520,-2024,1970,2042,-362,5036,19,60,891
552061,1295344,1332448,1299991,1332759,3091,1111,-1664,-2025,1807,1980,2,4786,27,47,891
553062,1295420,1332672,1300188,1332956,3245,1324,-1743,-2122,1564,1952,151,4444,27,47,891
554064,1295496,1333000,1300385,1333153,3299,617,-1768,-2261,1311,1805,-79,4358,22,46,889
555065,1295568,1333276,1300582,1333350,3380,907,-1773,-2231,1133,1659,-760,4756,22,46,889
556066,1295644,1333548,1300779,1333547,3409,899,-1747,-2142,1069,1623,-1106,4741,17,62,885
557066,1295740,1333800,1300976,1333744,3329,1000,-1665,-2125,1064,1705,-1030,4545,17,62,885
558068,1295848,1334012,1301173,1333941,3295,1243,-1532,-2064,1055,1743,-1131,4598,30,51,886
559068,1295996,1334272,1301370,1334138,3067,916,-1361,-1972,1021,1433,-1240,4506,30,51,886
560069,1296160,1334568,1301567,1334335,2983,647,-1140,-1844,962,834,-1328,4508,22,57,887
561071,1296340,1334824,1301764,1334532,2891,871,-891,-1622,926,311,-1817,4914,22,57,887
562072,1296480,1335056,1301961,1334729,3167,1006,-652,-1212,1004,-98,-2408,5509,40,45,890
563072,1296648,1335280,1302158,1334926,3006,1044,-422,-637,1182,-493,-2400,5699,40,45,890
564073,1296780,1335496,1302355,1335123,3260,1086,-186,-136,1362,-575,-1977,5563,41,44,891
565074,1296908,1335720,1302552,1335320,3317,1023,53,327,1470,-220,-1379,5460,41,44,891
566075,1297040,1335956,1302749,1335517,3321,931,323,735,1490,255,-585,4974,38,56,888
567076,1297196,1336176,1302946,1335714,3190,1020,633,1080,1511,525,-624,4620,38,56,888
568077,1297396,1336388,1303143,1335911,2915,1064,939,1451,1616,530,-1032,4798,42,45,887
569078,1297624,1336588,1303340,1336108,2727,1138,1220,1956,1826,501,-1260,5130,42,45,887
570080,1297832,1336780,1303537,1336305,2849,1190,1504,2481,2035,349,-1080,4983,51,50,889
571081,1298048,1337004,1303734,1336502,2791,978,1809,3041,2202,125,-962,4976,51,50,889
572082,1298236,1337216,1303931,1336699,2972,1046,2108,3556,2358,81,-968,4890,33,50,891
573083,1298448,1337460,1304128,1336896,2817,826,2390,4007,2490,440,-997,4577,33,50,891
574084,1298680,1337712,1304325,1337093,2677,751,2644,4432,2546,662,-839,4086,48,53,890
575084,1298936,1337940,1304522,1337290,2502,887,2914,4636,2540,722,-881,3365,48,53,890
576085,1299196,1338160,1304719,1337487,2451,927,3148,4819,2535,694,-1098,3482,62,51,892
577087,1299416,1338320,1304916,1337684,2691,1318,3328,5160,2598,224,-1636,4008,62,51,892
578088,1299632,1338452,1305113,1337881,2709,1522,3442,5527,2669,-47,-1610,3880,54,45,893
579089,1299900,1338648,1305310,1338078,2354,1122,3550,5883,2618,201,-1053,3293,54,45,893
580089,1300156,1338900,1305507,1338275,2404,748,3665,6003,2467,720,-899,2553,60,37,891
581091,1300396,1339152,1305704,1338472,2486,724,3733,6101,2295,1261,-1059,2750,60,37,891
582092,1300672,1339384,1305901,1338669,2227,833,3713,6354,2185,855,-1555,3184,66,50,894
583093,1300904,1339592,1306098,1338866,2488,978,3653,6627,2163,-18,-2080,3152,66,50,894
584093,1301136,1339764,1306295,1339063,2474,1213,3551,6850,2090,83,-1702,2937,36,51,894
585094,1301412,1339984,1306492,1339260,2165,903,3431,7012,1869,802,-832,2413,36,51,894
586095,1301668,1340212,1306689,1339457,2265,840,3223,7068,1531,1041,-857,2145,45,49,894
587096,1301936,1340448,1306886,1339654,2160,773,2994,7003,1176,680,-1348,2039,45,49,894
588097,1302196,1340648,1307083,1339851,2183,996,2709,6958,891,75,-1543,2293,59,44,895
589098,1302444,1340824,1307280,1340048,2237,1155,2406,7042,647,37,-1294,2612,59,44,895
590099,1302692,1340984,1307477,1340245,2215,1271,2067,7078,341,523,-902,1972,63,30,897
591100,1303004,1341136,1307674,1340442,1766,1341,1779,6778,-32,738,-757,925,63,30,897
592110,1303228,1341344,1307904,1340672,2319,1000,1539,6227,-379,480,-810,575,57,36,895
593103,1303436,1341556,1308101,1340869,2415,969,1292,5735,-643,-194,-1086,960,57,36,895
594103,1303648,1341748,1308298,1341066,2384,1096,962,5299,-908,-888,-953,1067,47,31,896
595105,1303836,1341936,1308495,1341263,2539,1125,610,4865,-1207,-226,-228,671,47,31,896
596105,1304036,1342116,1308692,1341460,2464,1182,272,4197,-1517,302,309,50,39,31,894
597106,1304308,1342284,1308889,1341657,1982,1270,-32,3282,-1788,43,-272,-42,39,31,894
598107,1304516,1342440,1309086,1341854,2378,1362,-362,2603,-1956,-727,-1057,1052,58,40,892
599108,1304712,1342612,1309283,1342051,2454,1273,-777,2239,-2039,-1726,-1315,1840,58,40,892
600109,1304884,1342788,1309480,1342248,2616,1257,-1180,1882,-2116,-1663,-887,1560,47,30,895
601110,1305112,1342972,1309677,1342445,2253,1213,-1520,1364,-2271,-924,69,1012,47,30,895
602111,1305320,1343136,1309874,1342642,2374,1352,-1771,583,-2441,-378,326,643,52,29,892
603113,1305576,1343280,1310071,1342839,2049,1501,-2012,-105,-2558,-498,-470,1363,52,29,892
604114,1305856,1343464,1310268,1343036,1863,1256,-2266,-528,-2580,-1475,-1746,2220,63,29,894
605115,1306100,1343596,1310465,1343233,2069,1610,-2555,-640,-2505,-2402,-2375,3085,63,29,894
606116,1306300,1343716,1310662,1343430,2343,1719,-2840,-729,-2411,-2288,-2173,2976,48,30,894
607116,1306540,1343828,1310859,1343627,2075,1806,-3053,-1175,-2388,-1465,-1518,1897,48,30,894
608117,1306764,1343932,1311056,1343824,2164,1897,-3188,-1735,-2389,-745,-1222,2075,39,37,893
609119,1307032,1344060,1311253,1344021,1858,1777,-3302,-2374,-2372,-530,-1370,2143,39,37,893
610119,1307296,1344236,1311450,1344218,1855,1487,-3401,-2813,-2332,-1010,-1968,2904,57,37,891
611121,1307532,1344416,1311647,1344415,2014,1469,-3495,-3045,-2260,-1680,-2206,3341,57,37,891
612121,1307744,1344564,1311844,1344612,2158,1691,-3549,-3305,-2181,-1327,-1931,3173,35,35,894
613123,1308024,1344720,1312041,1344809,1697,1659,-3538,-3779,-2149,-372,-1495,2603,35,35,894
614123,1308280,1344880,1312238,1345006,1822,1650,-3456,-4455,-2123,47,-1481,2438,60,23,895
615125,1308528,1345020,1312435,1345203,1850,1800,-3340,-5133,-2081,424,-1728,2661,60,23,895
616125,1308792,1345148,1312632,1345400,1722,1905,-3211,-5561,-2039,150,-1995,3479,54,22,895
617127,1309016,1345244,1312829,1345597,1960,2150,-3011,-5892,-2004,-172,-1716,3592,54,22,895
618127,1309236,1345364,1313026,1345794,1976,2033,-2795,-6107,-2016,339,-1492,4197,57,19,894
619129,1309496,1345492,1313223,1345991,1699,2014,-2585,-6244,-2093,1096,-1160,4392,57,19,894
620130,1309760,1345640,1313420,1346188,1645,1910,-2394,-6309,-2164,1590,-875,5013,42,24,890
621131,1309984,1345784,1313617,1346385,1884,1959,-2231,-6168,-2221,1912,-842,5885,42,24,890
622131,1310208,1345900,1313814,1346582,1873,2169,-2033,-5946,-2282,1709,-735,5800,55,20,892
623132,1310476,1346020,1314011,1346779,1568,2178,-1835,-5646,-2366,1788,-437,6281,55,20,892
624133,1310680,1346148,1314208,1346976,1965,2158,-1616,-5337,-2534,2357,-43,6193,55,20,892
625135,1310908,1346300,1314405,1347173,1802,2029,-1406,-5095,-2777,2877,373,6200,55,20,892
626135,1311168,1346424,1314602,1347370,1576,2236,-1160,-4723,-3013,3275,386,7187,58,18,893
627137,1311372,1346532,1314799,1347567,1923,2375,190,-2352,-3249,4925,57,25541,58,18,893
628138,1311620,1346664,1314996,1347764,1626,2254,1958,478,-3461,4346,191,21602,42,28,893
629138,1311844,1346776,1315193,1347961,1765,2416,2819,1322,-3569,2966,449,5121,42,28,893
630139,1312048,1346916,1315390,1348158,1887,2267,2854,465,-3662,3294,622,3626,51,32,890
631140,1312320,1347096,1315587,1348355,1430,2025,2824,-656,-3758,3841,733,3159,51,32,890
632141,1312576,1347292,1315784,1348552,1504,1925,2809,-1257,-3789,3739,389,4185,39,35,889
633142,1312788,1347460,1315981,1348749,1774,2113,2868,-1462,-3738,3131,-365,4275,39,35,889
634143,1313044,1347624,1316178,1348946,1474,2152,2861,-1497,-3603,2838,-743,4874,52,29,894
635144,1313276,1347792,1316375,1349143,1608,2141,2837,-1512,-3435,2353,-617,4347,52,29,894
636145,1313476,1347980,1316572,1349340,1808,2020,2801,-1872,-3318,2070,-410,3563,36,32,892
637146,1313720,1348132,1316769,1349537,1512,2265,2764,-2214,-3272,1981,-420,3744,36,32,892
638147,1313960,1348328,1316966,1349734,1519,1991,2684,-2449,-3200,1615,-715,3986,57,31,893
639148,1314156,1348488,1317163,1349931,1796,2233,2569,-2436,-3088,1379,-868,4533,57,31,893
640149,1314392,1348688,1317360,1350128,1529,1981,2404,-2229,-2954,1167,-814,4983,52,29,893
641150,1314620,1348852,1317557,1350325,1566,2221,2182,-1856,-2779,1005,-901,5625,52,29,893
642151,1314832,1349044,1317754,1350522,1660,2049,1893,-1302,-2591,1220,-941,5821,40,29,890
643152,1315080,1349220,1317951,1350719,1413,2158,1604,-919,-2394,1540,-538,4922,40,29,890
644153,1315376,1349396,1318148,1350916,1070,2167,1383,-774,-2192,1893,164,4386,44,43,892
645155,1315612,1349552,1318345,1351113,1429,2310,1203,-767,-1994,1984,506,3860,44,43,892
646155,1315856,1349748,1318542,1351310,1358,2062,1067,-978,-1785,1752,442,3222,39,35,894
647156,1316064,1349920,1318739,1351507,1579,2223,876,-1110,-1513,1616,0,3455,39,35,894
648157,1316316,1350096,1318936,1351704,1280,2207,621,-1111,-1226,1630,-64,3550,48,44,893
649158,1316548,1350256,1319133,1351901,1390,2324,363,-1074,-995,1924,624,3587,48,44,893
650159,1316768,1350408,1319330,1352098,1455,2394,191,-1096,-818,2123,977,3363,53,42,892
651160,1317020,1350580,1319527,1352295,1232,2280,69,-1187,-660,2268,1255,3309,53,42,892
652161,1317276,1350756,1319724,1352492,1181,2265,-52,-1163,-487,2409,1596,3721,38,30,893
653162,1317492,1350916,1319921,1352689,1424,2382,-186,-1043,-296,2228,1713,3797,38,30,893
654163,1317760,1351088,1320118,1352886,1068,2318,-308,-903,-108,1992,1473,3763,37,45,893
655164,1317984,1351232,1320315,1353083,1332,2517,-415,-735,57,1937,1502,3810,37,45,893
656165,1318212,1351396,1320512,1353280,1293,2406,-500,-534,169,1847,1640,3755,48,26,892
657166,1318468,1351564,1320709,1353477,1093,2394,-568,-360,198,1812,1779,3650,48,26,892
658167,1318676,1351752,1320906,1353674,1388,2274,-600,-201,196,1949,1710,3476,30,30,892
659168,1318864,1351928,1321103,1353871,1517,2358,-620,10,218,2101,1636,3631,30,30,892
660169,1319060,1352104,1321300,1354068,1469,2368,-651,333,272,2240,1579,3778,32,30,893
661170,1319256,1352240,1321497,1354265,1469,2645,-675,589,339,2253,1563,3563,32,30,893
662171,1319456,1352400,1321694,1354462,1444,2512,-696,857,372,2114,1633,3497,29,35,891
663172,1319660,1352580,1321891,1354659,1416,2395,-734,1056,338,1918,1712,3289,29,35,891
664173,1319852,1352808,1322088,1354856,1494,2082,-805,1206,249,1827,1716,3151,42,37,889
665174,1320036,1353004,1322285,1355053,1550,2282,-897,1381,136,1747,1443,3373,42,37,889
666175,1320248,1353192,1322482,1355250,1368,2337,-1007,1696,45,1668,1024,3648,29,37,891
667176,1320440,1353392,1322679,1355447,1496,2261,-1126,2073,1,1506,460,3892,29,37,891
668178,1320616,1353584,1322876,1355644,1606,2314,-1221,2465,9,1145,-96,3723,47,45,892
669179,1320780,1353828,1323073,1355841,1696,1968,-1282,2829,45,858,-456,3731,47,45,892
670180,1321004,1354028,1323270,1356038,1309,2242,-1329,3186,70,723,-478,3540,47,40,892
671181,1321180,1354220,1323467,1356235,1620,2295,-1347,3383,69,588,-551,3077,47,40,892
672182,1321380,1354428,1323664,1356432,1468,2190,-1355,3441,46,555,-806,2743,34,37,893
673183,1321584,1354604,1323861,1356629,1440,2399,-1387,3470,25,516,-1178,2686,34,37,893
674183,1321748,1354812,1324058,1356826,1706,2196,-1467,3555,39,376,-1657,2932,42,42,892
675191,1321944,1355012,1324288,1357056,1521,2259,-1602,3754,77,82,-2076,3325,42,42,892
676185,1322112,1355192,1324485,1357253,1709,2392,-1776,3925,132,-122,-2205,3225,43,35,891
677187,1322324,1355380,1324682,1357450,1428,2346,-1933,4033,205,-95,-2265,2948,43,35,891
678187,1322520,1355568,1324879,1357647,1529,2350,-2047,3979,290,-131,-2082,2591,35,47,892
679188,1322744,1355760,1325076,1357844,1342,2328,-2130,3821,349,-216,-1705,2397,35,47,892
680189,1322932,1355964,1325273,1358041,1572,2250,-2200,3662,339,-371,-1570,2362,48,48,891
681191,1323124,1356152,1325470,1358238,1549,2355,-2234,3515,299,-572,-1667,2259,48,48,891
682192,1323324,1356332,1325667,1358435,1498,2413,-2254,3322,259,-555,-1692,2390,47,33,893
683192,1323520,1356492,1325864,1358632,1525,2554,-2285,3167,264,-438,-1761,2511,47,33,893
684193,1323716,1356680,1326061,1358829,1525,2384,-2323,3051,332,-477,-2038,2886,46,37,892
685195,1323944,1356852,1326258,1359026,1312,2495,-2370,3118,437,-727,-2277,3444,46,37,892
686195,1324160,1357052,1326455,1359223,1379,2320,-2409,3217,521,-1162,-2225,3568,52,37,890
687196,1324344,1357236,1326652,1359420,1586,2425,-2427,3342,553,-1403,-1952,3691,52,37,890
688197,1324548,1357400,1326849,1359617,1458,2565,-2418,3361,573,-1415,-1723,3622,39,44,891
689199,1324760,1357576,1327046,1359814,1402,2500,-2403,3428,647,-1466,-1548,3805,39,44,891
690199,1324960,1357800,1327243,1360011,1476,2188,-2378,3451,770,-1623,-1466,3879,50,33,891
691201,1325180,1358004,1327440,1360208,1341,2311,-2317,3461,928,-1734,-1487,4052,50,33,891
692201,1325396,1358220,1327637,1360405,1358,2228,-2223,3488,1077,-1876,-1325,4207,30,51,891
693203,1325616,1358436,1327834,1360602,1323,2220,-2101,3526,1190,-1989,-1256,4105,30,51,891
694203,1325804,1358672,1328031,1360799,1528,2078,-1957,3473,1270,-1897,-1217,3958,39,51,893
695205,1325980,1358912,1328228,1360996,1612,2034,-1801,3288,1334,-1715,-1148,3863,39,51,893
696205,1326136,1359120,1328425,1361193,1756,2230,-1680,3104,1405,-1479,-984,4025,28,44,894
697206,1326280,1359392,1328622,1361390,1855,1798,-1573,2902,1493,-1346,-893,4347,28,44,894
698207,1326416,1359628,1328819,1361587,1932,2006,-1462,2802,1595,-1320,-637,4684,39,58,892
699208,1326552,1359884,1329016,1361784,1959,1855,-1323,2726,1698,-1320,-378,4653,39,58,892
700209,1326660,1360104,1329213,1361981,2173,2070,-1049,2667,1785,-1404,-453,5518,23,40,893
701211,1326820,1360332,1329410,1362178,1866,2008,125,3783,1983,-1764,-1351,18928,23,40,893
702212,1326980,1360596,1329607,1362375,1882,1753,1849,5513,2243,-1820,-1658,19886,27,54,892
703213,1327148,1360872,1329804,1362572,1846,1644,2731,5784,2327,-1195,-691,5044,27,54,892
704213,1327292,1361152,1330001,1362769,2019,1583,2780,4908,2285,-862,-663,3090,27,54,893
705215,1327448,1361412,1330198,1362966,1963,1680,2587,3910,2260,-495,-1159,3220,27,54,893
706216,1327576,1361712,1330395,1363163,2168,1385,2470,3326,2306,-305,-954,3816,34,45,895
707217,1327724,1361872,1330592,1363360,2066,2276,2445,2848,2416,-383,-513,3458,34,45,895
708217,1327848,1362016,1330789,1363557,2248,2401,2433,2359,2498,-340,-453,3394,30,38,892
709219,1327968,1362164,1330986,1363754,2308,2397,2423,1734,2525,-527,-511,3111,30,38,892
710219,1328092,1362328,1331183,1363951,2316,2312,2425,975,2475,-728,-230,2855,32,26,888
711221,1328204,1362536,1331380,1364148,2428,2033,2440,338,2320,-773,-41,3140,32,26,888
712221,1328316,1362764,1331577,1364345,2467,1894,2443,-204,2130,-902,-154,3336,19,53,887
713223,1328424,1363096,1331774,1364542,2531,1185,2395,-469,1991,-950,-595,4275,19,53,887
714224,1328548,1363404,1331971,1364739,2464,1287,2304,-532,1907,-1037,-1217,4743,38,62,888
715225,1328640,1363656,1332168,1364936,2711,1613,2221,-495,1854,-1179,-1537,4862,38,62,888
716225,1328748,1363980,1332365,1365133,2650,1107,2164,-410,1804,-1324,-1380,4908,23,63,892
717227,1328844,1364300,1332562,1365330,2770,1078,2145,-533,1696,-1613,-691,4198,23,63,892
718228,1328940,1364576,1332759,1365527,2816,1318,2149,-722,1530,-1738,-577,4153,35,60,889
719228,1329028,1364916,1332956,1365724,2914,857,2176,-883,1377,-1721,-1137,3970,35,60,889
720229,1329136,1365228,1333153,1365921,2829,981,2222,-1060,1264,-1645,-1346,3890,18,59,889
721230,1329272,1365512,1333350,1366118,2682,1118,2257,-1102,1191,-1617,-1168,4251,18,59,889
722231,1329396,1365772,1333547,1366315,2790,1240,2279,-1131,1148,-1724,-700,4080,38,56,891
723232,1329536,1366096,1333744,1366512,2716,784,2277,-1189,1106,-1549,-185,3982,38,56,891
724233,1329660,1366444,1333941,1366709,2848,568,2264,-1257,1056,-1409,134,3702,22,59,891
725234,1329780,1366792,1334138,1366906,2908,502,2264,-1477,1025,-1306,521,3220,22,59,891
726235,1329916,1367072,1334335,1367103,2835,890,2266,-1768,1022,-1071,801,2952,29,61,892
727236,1330056,1367360,1334532,1367300,2836,800,2270,-2024,1047,-999,1050,2992,29,61,892
728237,1330184,1367676,1334729,1367497,2943,573,2260,-2173,1061,-932,1408,3401,35,58,892
729238,1330332,1368016,1334926,1367694,2840,360,2225,-2243,1059,-633,1644,3411,35,58,892
730239,1330480,1368324,1335123,1367891,2862,511,2184,-2241,1035,-648,1748,3465,23,50,891
731240,1330620,1368544,1335320,1368088,2938,1051,2114,-2158,967,-608,1709,3783,23,50,891
732241,1330784,1368808,1335517,1368285,2803,747,1986,-1951,887,-239,1946,4181,26,49,891
733242,1330932,1369056,1335714,1368482,2926,824,1808,-1669,858,156,2083,4405,26,49,891
734244,1331084,1369264,1335911,1368679,2922,1069,1595,-1199,901,476,1888,4638,28,45,890
735244,1331236,1369476,1336108,1368876,2943,1038,1372,-791,921,702,1975,4371,28,45,890
736245,1331392,1369644,1336305,1369073,2937,1326,1148,-411,854,712,2097,4453,29,41,891
737247,1331560,1369816,1336502,1369270,2875,1311,951,7,720,605,2166,4380,29,41,891
738248,1331688,1369976,1336699,1369467,3157,1402,794,410,532,550,2199,4175,27,37,890
739249,1331824,1370140,1336896,1369664,3134,1391,627,859,290,574,2228,4499,27,37,890
740249,1331944,1370316,1337093,1369861,3269,1326,445,1427,46,544,2215,4617,27,30,889
741250,1332056,1370524,1337290,1370058,3358,1121,232,1942,-161,681,2033,4376,27,30,889
742251,1332188,1370708,1337487,1370255,3262,1276,41,2396,-307,838,1878,4095,37,34,885
743252,1332316,1370888,1337684,1370452,3318,1309,-102,2604,-417,949,2124,3465,37,34,885
744253,1332444,1371036,1337881,1370649,3350,1530,-202,2717,-545,1189,2084,3125,39,44,886
745255,1332536,1371204,1338078,1370846,3622,1418,-297,2749,-696,1246,1935,2883,39,44,886
746256,1332648,1371364,1338275,1371043,3535,1484,-392,2706,-854,1424,1880,2708,17,27,885
747256,1332752,1371524,1338472,1371240,3627,1501,-514,2644,-1028,1781,1990,2678,17,27,885
748257,1332888,1371676,1338669,1371437,3455,1570,-651,2513,-1204,1892,2107,2403,28,44,882
749258,1333008,1371864,1338866,1371634,3590,1349,-795,2353,-1354,2017,2062,2495,28,44,882
750260,1333140,1372048,1339063,1371831,3544,1379,-948,2254,-1492,2079,1916,2666,37,45,882
751260,1333292,1372232,1339260,1372028,3440,1385,-1113,2225,-1619,1995,1709,2963,37,45,882
752261,1333444,1372396,1339457,1372225,3461,1524,-1298,2349,-1732,1824,1368,3371,41,33,883
753263,1333564,1372552,1339654,1372422,3697,1592,-1482,2492,-1866,1468,1152,3431,41,33,883
754264,1333708,1372696,1339851,1372619,3571,1691,-1662,2591,-2049,1123,963,3604,21,45,883
755265,1333828,1372864,1340048,1372816,3756,1553,-1847,2764,-2274,903,817,3791,21,45,883
756278,1333940,1373044,1340245,1373013,3800,1486,-2033,2926,-2505,610,656,3750,36,49,881
757279,1334064,1373248,1340442,1373210,3800,1333,-2205,3076,-2728,296,371,3755,36,49,881
758287,1334172,1373444,1340672,1373440,3800,1398,-2371,3136,-2934,103,220,3512,29,52,881
759281,1334268,1373648,1340869,1373637,3800,1345,-2521,3116,-3109,24,116,3496,29,52,881
760282,1334408,1373820,1341066,1373834,3800,1556,-2648,2987,-3222,-13,-101,3517,32,38,881
761283,1334508,1373960,1341263,1374031,3800,1781,-2760,2823,-3264,-18,-443,3471,32,38,881
762284,1334596,1374164,1341460,1374228,3800,1378,-2868,2676,-3269,-50,-563,3674,25,31,881
763285,1334744,1374312,1341657,1374425,3800,1749,-2974,2537,-3296,-159,-494,3726,25,31,881
764286,1334872,1374472,1341854,1374622,3800,1690,-3062,2321,-3336,-89,-441,3528,29,45,878
765287,1335016,1374632,1342051,1374819,3800,1707,-3109,1998,-3342,35,-326,3436,29,45,878
766288,1335160,1374756,1342248,1375016,3800,1964,-3111,1524,-3310,125,-142,3099,39,32,879
767289,1335324,1374892,1342445,1375213,3800,1916,-3084,981,-3262,165,-59,3181,39,32,879
768290,1335504,1375036,1342642,1375410,3800,1889,-3061,503,-3191,54,-225,3454,46,27,879
769291,1335680,1375168,1342839,1375607,3800,1993,-3041,112,-3090,-86,-506,3758,46,27,879
770292,1335856,1375268,1343036,1375804,3800,2236,-3027,-189,-2977,-176,-745,4181,47,39,877
771293,1336024,1375392,1343233,1376001,3800,2118,-2581,-317,-2794,-405,-1193,8540,47,39,877
772294,1336204,1375508,1343430,1376198,3800,2204,-459,453,-2422,-1099,-2615,27507,45,25,878
773283,1336408,1375660,1343627,1376395,3693,1998,2243,1699,-2039,-91,-3321,25058,45,25,878
774296,1336588,1375776,1343824,1376592,3800,2259,3320,2044,-1793,215,-1308,7452,44,23,876
775297,1336764,1375892,1344021,1376789,3800,2295,3017,1596,-1682,242,-585,4211,44,23,876
776298,1336952,1376036,1344218,1376986,3800,2143,2452,1131,-1647,319,-316,4093,44,23,878
777299,1337136,1376160,1344415,1377183,3800,2301,2146,762,-1593,194,-127,3940,44,23,878
778300,1337304,1376292,1344612,1377380,3800,2280,2006,497,-1530,225,-192,3970,35,28,877
779288,1337504,1376412,1344809,1377577,3765,2388,1901,214,-1483,35,-313,3762,35,28,877
780302,1337688,1376520,1345006,1377774,3800,2503,1763,-73,-1409,-178,-412,3804,43,30,877
781303,1337876,1376632,1345203,1377971,3800,2515,1581,-262,-1305,-189,-727,3950,43,30,877
782291,1338092,1376740,1345400,1378168,3670,2580,1405,-505,-1163,-242,-904,3622,47,24,876
783292,1338288,1376868,1345597,1378365,3796,2485,1249,-682,-1008,-329,-808,3893,47,24,876
784293,1338508,1376980,1345794,1378562,3638,2623,1118,-800,-868,-409,-610,3812,43,37,874
785295,1338716,1377104,1345991,1378759,3710,2581,998,-958,-756,-682,-418,3682,43,37,874
786295,1338932,1377200,1346188,1378956,3652,2800,891,-1067,-671,-921,-260,3684,56,34,876
787296,1339140,1377340,1346385,1379153,3699,2550,818,-1258,-599,-1098,-268,3191,56,34,876
788297,1339344,1377448,1346582,1379350,3722,2790,780,-1494,-539,-1277,-394,3060,43,37,876
789298,1339576,1377568,1346779,1379547,3534,2749,751,-1684,-464,-1426,-616,3102,43,37,876
790299,1339772,1377692,1346976,1379744,3760,2756,724,-1807,-364,-1432,-768,3239,33,24,876
791313,1339952,1377796,1347173,1379941,3800,2923,699,-1808,-251,-1414,-679,3540,33,24,876
792301,1340148,1377908,1347370,1380138,3771,2910,690,-1785,-129,-1401,-552,3509,50,36,876
793315,1340316,1378012,1347567,1380335,3800,3002,716,-1787,-23,-1358,-317,3280,50,36,876
794316,1340500,1378140,1347764,1380532,3800,2883,782,-1833,23,-1414,-124,3017,49,38,872
795317,1340676,1378288,1347961,1380729,3800,2779,889,-1884,9,-1457,43,2901,49,38,872
796318,1340848,1378432,1348158,1380926,3800,2828,1004,-1931,-30,-1365,160,2917,29,30,871
797319,1341016,1378576,1348355,1381123,3800,2852,1138,-1977,-59,-1239,258,2796,29,30,871
798320,1341180,1378708,1348552,1381320,3800,2956,1266,-1996,-63,-1038,461,2812,27,31,872
799321,1341344,1378860,1348749,1381517,3800,2851,1383,-2045,-51,-815,774,2625,27,31,872
800322,1341532,1379004,1348946,1381714,3800,2925,1480,-2137,-26,-580,1058,2449,27,35,872
801324,1341724,1379188,1349143,1381911,3800,2681,1537,-2181,15,-304,1195,2621,27,35,872
802324,1341912,1379348,1349340,1382108,3800,2848,1553,-2201,63,-102,1415,2530,50,34,874
803325,1342080,1379552,1349537,1382305,3800,2570,1547,-2269,102,106,1584,2410,50,34,874
804326,1342284,1379724,1349734,1382502,3800,2782,1515,-2271,127,256,1690,2553,50,32,874
805327,1342456,1379924,1349931,1382699,3800,2606,1465,-2270,158,391,1749,2620,50,32,874
806328,1342632,1380132,1350128,1382896,3800,2552,1388,-2208,184,552,1765,2708,47,37,875
807329,1342828,1380312,1350325,1383093,3800,2736,1292,-2142,217,649,1550,2646,47,37,875
808330,1342988,1380496,1350522,1383290,3800,2716,1173,-2059,254,715,1253,2702,46,34,874
809331,1343160,1380664,1350719,1383487,3800,2830,1023,-1957,282,837,997,2806,46,34,874
810332,1343348,1380896,1350916,1383684,3800,2415,832,-1830,313,958,764,2971,50,55,874
811333,1343524,1381128,1351113,1383881,3800,2400,608,-1645,336,1079,586,3137,50,55,874
812334,1343676,1381392,1351310,1384078,3800,2171,367,-1481,330,1181,492,2916,42,51,874
813335,1343844,1381632,1351507,1384275,3800,2303,106,-1331,286,1225,434,2958,42,51,874
814336,1344028,1381888,1351704,1384472,3800,2177,-178,-1224,221,1331,309,2912,47,57,876
815337,1344180,1382140,1351901,1384669,3800,2179,-487,-1171,178,1467,163,2819,47,57,876
816338,1344352,1382384,1352098,1384866,3800,2208,-792,-1127,144,1496,178,2644,39,57,876
817339,1344512,1382660,1352295,1385063,3800,1975,-1071,-1216,95,1439,229,2335,39,57,876
818340,1344688,1382932,1352492,1385260,3800,1967,-1325,-1401,30,1511,208,2191,33,61,876
819341,1344864,1383156,1352689,1385457,3800,2256,-1571,-1609,-26,1554,151,2159,33,61,876
820342,1345056,1383408,1352886,1385654,3800,2057,-1805,-1863,-69,1525,240,2031,46,49,877
821343,1345216,1383664,1353083,1385851,3800,2006,-1999,-2093,-113,1469,336,2036,46,49,877
822344,1345416,1383916,1353280,1386048,3800,2007,-2140,-2410,-179,1367,549,1917,50,47,877
823345,1345632,1384176,1353477,1386245,3800,1930,-2251,-2708,-236,1316,562,2136,50,47,877
824333,1345872,1384396,1353674,1386442,3797,2171,-2360,-2914,-263,1132,438,2470,56,44,879
825334,1346128,1384624,1353871,1386639,3672,2107,-2463,-3019,-273,848,442,2636,56,44,879
826336,1346408,1384868,1354068,1386836,3488,1986,-2538,-3096,-273,629,526,2887,37,55,879
827336,1346640,1385100,1354265,1387033,3773,2047,-2566,-3133,-265,385,661,2924,37,55,879
828337,1346896,1385336,1354462,1387230,3599,2005,-2552,-3175,-276,63,724,2990,43,47,879
829338,1347236,1385540,1354659,1387427,3013,2202,-2530,-3163,-308,-243,696,3268,43,47,879
830339,1347544,1385736,1354856,1387624,3165,2253,-2501,-3047,-325,-489,707,3675,58,51,878
831340,1347856,1385944,1355053,1387821,3091,2173,-2455,-2883,-333,-726,731,3747,58,51,878
832341,1348208,1386144,1355250,1388018,2774,2223,-2385,-2717,-325,-966,468,3848,67,39,884
833343,1348500,1386364,1355447,1388215,3109,2088,-2293,-2558,-282,-1191,376,3864,67,39,884
834344,1348800,1386592,1355644,1388412,3015,2024,-2157,-2525,-232,-1319,617,3579,52,41,884
835344,1349164,1386812,1355841,1388609,2543,2065,-2004,-2472,-192,-1361,673,3661,52,41,884
836345,1349480,1387024,1356038,1388806,2791,2109,-1844,-2439,-142,-1424,675,3740,53,50,884
837347,1349796,1387228,1356235,1389003,2741,2156,-1698,-2416,-67,-1358,652,3658,53,50,884
838347,1350096,1387440,1356432,1389200,2797,2100,-1539,-2397,23,-1323,599,3578,60,56,888
839348,1350404,1387696,1356629,1389397,2699,1799,-1335,-2561,133,-1275,673,3139,60,56,888
840349,1350712,1387928,1356826,1389594,2651,1934,-1137,-2705,276,-1061,694,3471,51,50,885
841357,1351036,1388188,1357056,1389824,2512,1746,-991,-2779,469,-902,479,3679,51,50,885
842351,1351360,1388432,1357253,1390021,2457,1826,-832,-2889,664,-822,645,3294,49,41,887
843352,1351676,1388636,1357450,1390218,2456,2073,-646,-3103,803,-732,920,3230,49,41,887
844353,1352004,1388864,1357647,1390415,2324,1910,-472,-3300,907,-458,997,3542,60,44,889
845354,1352368,1389144,1357844,1390612,2027,1549,-361,-3329,1037,-212,446,3917,60,44,889
846355,1352696,1389388,1358041,1390809,2195,1753,-280,-3356,1194,-29,118,3957,74,58,889
847356,1353024,1389664,1358238,1391006,2139,1518,-220,-3328,1345,113,-16,4264,74,58,889
848358,1353376,1389900,1358435,1391203,1922,1752,-191,-3186,1472,261,-127,4477,66,50,893
849359,1353692,1390176,1358632,1391400,2095,1467,-189,-3026,1594,424,-323,4624,66,50,893
850360,1354048,1390456,1358829,1391597,1777,1406,-220,-2843,1703,530,-446,4823,57,60,893
851361,1354404,1390692,1359026,1391794,1708,1664,-287,-2624,1810,514,-986,5072,57,60,893
852361,1354780,1390944,1359223,1391991,1505,1541,-414,-2227,1935,655,-1543,5545,68,59,893
853362,1355160,1391172,1359420,1392188,1401,1677,-559,-1905,2077,758,-2059,5194,68,59,893
854363,1355588,1391376,1359617,1392385,999,1824,-666,-1752,2210,644,-2412,4821,84,59,895
855364,1355944,1391580,1359814,1392582,1380,1821,-718,-1674,2323,470,-2455,4475,84,59,895
856365,1356300,1391804,1360011,1392779,1311,1684,-688,-1849,2389,414,-1947,3658,82,49,897
857366,1356672,1392052,1360208,1392976,1135,1512,-600,-2210,2421,724,-1849,3546,82,49,897
858367,1356996,1392292,1360405,1393173,1380,1544,-527,-2344,2504,961,-2473,4511,74,57,896
859368,1357308,1392524,1360602,1393370,1405,1578,-500,-2207,2682,781,-3488,5104,74,57,896
860369,1357628,1392696,1360799,1393567,1302,1964,-428,-2104,2926,609,-4020,4601,65,49,898
861370,1357884,1392936,1360996,1393764,1676,1520,-309,-2299,3132,781,-4061,4260,65,49,898
862371,1358152,1393172,1361193,1393961,1571,1528,-195,-2481,3257,1206,-4039,4278,72,51,896
863372,1358404,1393400,1361390,1394158,1647,1565,-78,-2702,3316,1361,-3917,3952,72,51,896
864373,1358660,1393624,1361587,1394355,1597,1579,71,-3023,3305,1308,-3629,3866,49,56,895
865375,1358864,1393816,1361784,1394552,1919,1781,172,-3168,3251,1380,-3693,4744,49,56,895
866375,1359068,1393992,1361981,1394749,1917,1890,211,-2996,3235,1547,-4302,5423,54,37,895
867377,1359292,1394192,1362178,1394946,1781,1739,224,-2774,3259,1771,-4617,5564,54,37,895
868377,1359476,1394408,1362375,1395143,2036,1630,244,-2625,3280,1903,-4632,5653,49,47,893
869379,1359648,1394616,1362572,1395340,2123,1676,276,-2454,3273,2070,-4321,5691,49,47,893
870379,1359792,1394820,1362769,1395537,2322,1698,326,-2172,3231,2580,-4002,6417,31,45,893
871380,1359936,1395012,1362966,1395734,2346,1776,898,-1144,2829,7248,-2252,14810,31,45,893
872381,1360052,1395236,1363163,1395931,2557,1564,1818,456,2186,7957,-2148,16574,24,36,892
873383,1360204,1395424,1363360,1396128,2352,1793,2186,1182,1944,3212,-3280,6318,24,36,892
874383,1360348,1395616,1363557,1396325,2427,1770,2055,988,1998,2756,-3067,4621,19,43,889
875384,1360460,1395848,1363754,1396522,2664,1505,1794,541,2066,2476,-2934,4408,19,43,889
876385,1360600,1396092,1363951,1396719,2515,1409,1609,289,2070,2045,-2923,4637,33,52,890
877386,1360720,1396340,1364148,1396916,2674,1362,1496,211,2038,1606,-2574,4593,33,52,890
878387,1360824,1396584,1364345,1397113,2816,1366,1415,156,2021,1546,-2099,4589,28,39,889
879388,1360916,1396784,1364542,1397310,2938,1641,1336,37,2022,1716,-1657,4350,28,39,889
880389,1360984,1397000,1364739,1397507,3145,1532,1232,-150,1988,1978,-924,4400,15,56,889
881391,1361052,1397260,1364936,1397704,3202,1230,1102,-204,1875,2075,-319,4610,15,56,889
882391,1361148,1397532,1365133,1397901,3073,1122,961,-186,1731,1862,-368,4492,15,48,886
883393,1361228,1397800,1365330,1398098,3225,1115,853,-157,1565,1486,-11,4570,15,48,886
884393,1361304,1398032,1365527,1398295,3303,1325,777,-107,1362,1318,453,4657,7,45,883
885395,1361440,1398244,1365724,1398492,2956,1443,714,-25,1165,1260,332,4522,7,45,883
886395,1361600,1398508,1365921,1398689,2823,1089,694,114,1000,917,148,4371,22,55,885
887396,1361752,1398764,1366118,1398886,2894,1113,719,143,880,655,38,4226,22,55,885
888397,1361920,1399036,1366315,1399083,2808,980,765,206,824,387,-405,4302,45,58,887
889399,1362088,1399296,1366512,1399280,2822,1027,837,269,851,-134,-811,4134,45,58,887
890400,1362236,1399496,1366709,1399477,2968,1401,939,357,920,-643,-983,4033,37,51,890
891400,1362372,1399732,1366906,1399674,3071,1159,1032,440,985,-771,-941,4072,37,51,890
892401,1362556,1399984,1367103,1399871,2778,1035,1113,546,1055,-461,-743,4121,38,47,890
893402,1362700,1400224,1367300,1400068,3052,1091,1192,700,1122,83,-428,3884,38,47,890
894403,1362892,1400488,1367497,1400265,2755,912,1239,886,1215,547,-595,3934,26,50,888
895404,1363132,1400704,1367694,1400462,2437,1203,1210,1127,1372,564,-975,4363,26,50,888
896405,1363344,1400908,1367891,1400659,2607,1275,1124,1509,1580,290,-1344,4621,58,54,887
897406,1363552,1401116,1368088,1400856,2627,1245,1040,1969,1774,-122,-1461,4526,58,54,887
898407,1363744,1401376,1368285,1401053,2730,893,1027,2341,1916,-339,-1209,4161,47,38,893
899408,1363940,1401632,1368482,1401250,2706,892,1111,2421,1989,-92,-691,3275,47,38,893
900409,1364188,1401892,1368679,1401447,2360,839,1269,2422,1993,254,-505,2971,38,44,891
901410,1364468,1402116,1368876,1401644,2125,1052,1461,2471,1975,325,-630,2823,38,44,891
902411,1364684,1402320,1369073,1401841,2517,1174,1619,2573,2017,425,-1145,3219,43,51,892
903412,1364908,1402528,1369270,1402038,2456,1143,1696,2916,2157,321,-1741,3972,43,51,892
904413,1365136,1402760,1369467,1402235,2418,978,1714,3438,2347,-18,-1883,4032,49,54,895
905414,1365352,1403016,1369664,1402432,2485,802,1736,3867,2413,135,-1433,3511,49,54,895
906415,1365616,1403248,1369861,1402629,2157,936,1782,3988,2351,723,-1362,2644,40,39,891
907416,1365884,1403444,1370058,1402826,2102,1162,1882,3917,2279,1325,-1389,1966,40,39,891
908417,1366112,1403672,1370255,1403023,2339,948,2020,3911,2242,1268,-1670,2160,65,50,893
909418,1366332,1403868,1370452,1403220,2379,1149,2177,3979,2222,380,-1942,2328,65,50,893
910419,1366564,1404080,1370649,1403417,2290,1042,2324,4075,2150,-57,-1782,2539,53,52,895
911420,1366828,1404340,1370846,1403614,2061,714,2419,4338,1955,526,-1460,2704,53,52,895
912421,1367088,1404560,1371043,1403811,2060,953,2481,4621,1689,1265,-1274,2392,39,44,893
913422,1367332,1404796,1371240,1404008,2140,836,2551,4684,1437,1435,-1190,1891,39,44,893
914423,1367584,1405016,1371437,1404205,2066,926,2634,4742,1251,922,-1480,2309,63,56,897
915424,1367812,1405192,1371634,1404402,2203,1210,2682,4990,1129,182,-1678,2788,63,56,897
916425,1368032,1405424,1371831,1404599,2244,845,2697,5396,969,199,-1271,2912,51,52,896
917426,1368316,1405672,1372028,1404796,1806,723,2689,5668,683,860,-705,2200,51,52,896
918427,1368568,1405884,1372225,1404993,1983,940,2731,5558,-8,1180,86,1486,60,40,894
919428,1368804,1406116,1372422,1405190,2066,800,2681,5549,-315,291,108,1688,60,40,894
920429,1369008,1406308,1372619,1405387,2264,1052,2531,5650,-597,-67,432,2023,40,52,898
921430,1369220,1406484,1372816,1405584,2208,1161,2316,5851,-900,537,974,1860,40,52,898
922431,1369416,1406692,1373013,1405781,2309,956,2090,5851,-1213,898,1036,1042,32,37,896
923432,1369668,1406888,1373210,1405978,1936,1032,1905,5508,-1479,688,729,447,32,37,896
924442,1369900,1407096,1373440,1406208,2060,965,1750,5031,-1688,79,383,572,51,50,894
925434,1370112,1407284,1373637,1406405,2180,1094,1520,4823,-1850,-761,86,1388,51,50,894
926435,1370316,1407488,1373834,1406602,2227,991,1275,4605,-2011,-850,518,724,39,47,895
927436,1370520,1407676,1374031,1406799,2224,1095,1062,4136,-2213,-313,992,-23,39,47,895
928437,1370724,1407832,1374228,1406996,2222,1313,872,3484,-2418,-125,1060,-302,28,33,894
929438,1370960,1407988,1374425,1407193,2006,1331,630,2838,-2580,-595,504,82,28,33,894
930440,1371216,1408156,1374622,1407390,1855,1268,318,2345,-2649,-1403,-583,764,35,31,893
931441,1371448,1408356,1374819,1407587,1991,1067,-40,2046,-2620,-2298,-1107,1272,35,31,893
932442,1371684,1408528,1375016,1407784,1950,1253,-387,1788,-2575,-2501,-933,1341,54,26,894
933443,1371904,1408720,1375213,1407981,2040,1130,-676,1280,-2608,-2079,-307,413,54,26,894
934444,1372112,1408868,1375410,1408178,2111,1426,-924,636,-2676,-1701,-111,389,55,38,896
935445,1372364,1409000,1375607,1408375,1812,1555,-1179,-19,-2701,-1750,-642,725,55,38,896
936445,1372608,1409152,1375804,1408572,1842,1450,-1468,-501,-2649,-2303,-1511,1442,43,24,895
937447,1372872,1409276,1376001,1408769,1689,1656,-1764,-781,-2545,-2934,-1470,2018,43,24,895
938448,1373112,1409412,1376198,1408966,1820,1608,-2047,-979,-2427,-2939,-1330,2199,44,21,894
939449,1373360,1409516,1376395,1409163,1748,1848,-2299,-1320,-2328,-2087,-912,1691,44,21,894
940450,1373580,1409664,1376592,1409360,1913,1595,-2535,-1764,-2251,-1287,-184,1857,36,25,894
941450,1373836,1409824,1376789,1409557,1663,1536,-2785,-2304,-2211,-976,-97,1916,36,25,894
942451,1374100,1409984,1376986,1409754,1585,1552,-3051,-2775,-2181,-1285,-875,2448,49,35,893
943452,1374356,1410140,1377183,1409951,1609,1595,-3323,-3187,-2097,-1542,-1040,2745,49,35,893
944453,1374568,1410300,1377380,1410148,1878,1587,-3587,-3585,-2004,-989,-720,2919,55,30,895
945455,1374800,1410428,1377577,1410345,1738,1817,-3789,-4152,-2006,-50,49,2207,55,30,895
946455,1375024,1410556,1377774,1410542,1777,1847,-3909,-4893,-2081,629,511,2053,37,38,895
947457,1375300,1410692,1377971,1410739,1417,1824,-4031,-5524,-2142,981,-153,3058,37,38,895
948457,1375556,1410824,1378168,1410936,1517,1878,-4179,-5959,-2144,828,-929,3648,42,31,894
949459,1375776,1410940,1378365,1411133,1732,2013,-4311,-6137,-2087,695,-1251,4438,42,31,894
950459,1375992,1411068,1378562,1411330,1750,1969,-4425,-6213,-2064,1192,-1159,4692,39,21,893
951461,1376180,1411216,1378759,1411527,1929,1865,-4474,-6412,-2109,2109,-714,4351,39,21,893
952461,1376444,1411356,1378956,1411724,1425,1940,-4455,-6613,-2191,2812,-402,4623,52,38,892
953462,1376676,1411504,1379153,1411921,1610,1912,-4419,-6633,-2312,3038,-688,5351,52,38,892
954463,1376896,1411636,1379350,1412118,1676,2040,-4373,-6487,-2434,3040,-1096,5903,58,20,891
955465,1377156,1411804,1379547,1412315,1398,1828,-4283,-6238,-2534,3144,-953,6171,58,20,891
956465,1377380,1411924,1379744,1412512,1612,2162,-3713,-5650,-2660,4386,-744,9853,32,32,893
957466,1377580,1412076,1379941,1412709,1761,1983,-603,-434,-3208,11510,-841,32767,32,32,893
958467,1377820,1412200,1380138,1412906,1492,2190,2619,3627,-3790,7195,-526,22395,50,40,894
959468,1378060,1412332,1380335,1413103,1474,2168,3614,3619,-4050,4098,8,2260,50,40,894
960469,1378304,1412508,1380532,1413300,1429,1903,3372,1419,-4092,4117,-198,1225,48,28,892
961471,1378540,1412688,1380729,1413497,1462,1885,3060,-431,-4008,4293,-974,2038,48,28,892
962471,1378772,1412860,1380926,1413694,1472,1946,2992,-1151,-3856,4011,-1118,3209,37,28,892
963473,1378984,1413044,1381123,1413891,1591,1877,3096,-1611,-3679,3611,-1439,2697,37,28,892
964473,1379228,1413204,1381320,1414088,1371,2044,3086,-1967,-3584,3557,-1435,3447,52,28,894
965475,1379440,1413364,1381517,1414285,1564,2060,3021,-2469,-3542,2922,-1266,2753,52,28,894
966475,1379656,1413540,1381714,1414482,1532,1969,2903,-3213,-3493,2469,-1429,2464,49,42,894
967477,1379932,1413676,1381911,1414679,1122,2246,2749,-3637,-3463,2290,-1419,3321,49,42,894
968477,1380140,1413848,1382108,1414876,1543,2032,2362,-3685,-3311,2039,-2019,4624,34,44,893
969479,1380372,1414012,1382305,1415073,1378,2098,1718,-3081,-3027,2061,-2421,5929,34,44,893
970479,1380640,1414204,1382502,1415270,1122,1925,1201,-2657,-2863,2014,-818,4400,47,27,894
971481,1380872,1414356,1382699,1415467,1332,2195,882,-2460,-2771,1707,-462,4438,47,27,894
972482,1381112,1414512,1382896,1415664,1263,2188,565,-2231,-2603,1341,-1126,4584,37,37,893
973483,1381356,1414688,1383093,1415861,1218,2072,271,-2144,-2368,1153,-757,3756,37,37,893
974483,1381588,1414844,1383290,1416058,1278,2216,43,-2111,-2117,1121,173,3726,48,26,892
975484,1381828,1415008,1383487,1416255,1210,2180,-136,-2026,-1893,1286,812,3688,48,26,892
976485,1382088,1415144,1383684,1416452,1057,2382,-276,-1963,-1670,1448,1086,3454,33,32,894
977487,1382304,1415288,1383881,1416649,1325,2356,-414,-1753,-1427,1456,1402,4065,33,32,894
978487,1382536,1415444,1384078,1416846,1209,2300,-532,-1411,-1179,1287,1528,4027,41,38,893
979489,1382796,1415596,1384275,1417043,1006,2344,-633,-1072,-938,1166,1475,4018,41,38,893
980489,1383004,1415744,1384472,1417240,1327,2391,-685,-753,-713,745,1385,3786,37,37,892
981491,1383228,1415916,1384669,1417437,1216,2252,-688,-616,-509,537,1356,3308,37,37,892
982491,1383480,1416100,1384866,1417634,1017,2184,-693,-337,-311,708,1309,3733,53,33,893
983493,1383688,1416280,1385063,1417831,1287,2216,-668,-51,-94,726,1349,3435,53,33,893
984493,1383864,1416420,1385260,1418028,1497,2491,-588,152,114,1024,1340,2920,30,37,892
985494,1384068,1416596,1385457,1418225,1319,2276,-504,282,290,1429,1261,2815,30,37,892
986495,1384252,1416748,1385654,1418422,1450,2446,-455,424,452,1517,1197,2879,38,31,893
987496,1384444,1416948,1385851,1418619,1402,2145,-474,647,585,1575,1063,3149,38,31,893
988497,1384632,1417120,1386048,1418816,1432,2331,-541,1010,701,1507,957,3448,29,31,892
989498,1384816,1417308,1386245,1419013,1462,2236,-603,1404,808,1191,1131,3648,29,31,892
990499,1384992,1417528,1386442,1419210,1522,2026,-644,1863,847,1079,1290,3520,24,33,893
991500,1385160,1417692,1386639,1419407,1584,2390,-683,2175,853,1063,925,3336,24,33,893
992501,1385356,1417848,1386836,1419604,1411,2459,-741,2478,912,1243,410,3450,47,40,892
993502,1385520,1418020,1387033,1419801,1625,2370,-802,2721,1022,1483,-33,3134,47,40,892
994503,1385688,1418208,1387230,1419998,1613,2274,-884,2911,1136,1455,-544,3206,28,43,890
995504,1385852,1418404,1387427,1420195,1654,2226,-984,3111,1223,1380,-713,3245,28,43,890
996506,1386012,1418596,1387624,1420392,1695,2253,-1109,3270,1257,1348,-860,2910,42,37,889
997507,1386196,1418788,1387821,1420589,1551,2255,-1255,3423,1244,1256,-1057,3097,42,37,889
998507,1386376,1418980,1388018,1420786,1583,2258,-1425,3598,1216,1017,-1163,3285,21,49,891
999508,1386552,1419168,1388215,1420983,1618,2287,-1587,3757,1191,919,-1284,3190,21,49,891
1000509,1386708,1419380,1388412,1421180,1761,2131,-1741,3921,1176,961,-1412,3233,30,49,892
1001511,1386908,1419564,1388609,1421377,1485,2312,-1861,4084,1190,913,-1478,3133,30,49,892
1002512,1387076,1419760,1388806,1421574,1699,2238,-1976,4186,1224,937,-1542,3077,30,31,891
1003512,1387252,1419944,1389003,1421771,1658,2319,-2067,4287,1260,866,-1657,2968,30,31,891
1004514,1387440,1420152,1389200,1421968,1587,2165,-2142,4334,1265,650,-1663,2923,47,41,891
1005515,1387624,1420352,1389397,1422165,1619,2213,-2212,4310,1231,418,-1922,2757,47,41,891
1006516,1387804,1420548,1389594,1422362,1651,2240,-2265,4233,1193,237,-2272,2806,27,49,889
1007523,1388032,1420716,1389824,1422592,1352,2442,-2333,4288,1169,-64,-2478,3370,27,49,889
1008517,1388232,1420900,1390021,1422789,1527,2348,-2437,4461,1142,-317,-2856,3835,43,34,892
1009518,1388404,1421112,1390218,1422986,1713,2167,-2551,4682,1090,-730,-2855,3889,43,34,892
1010519,1388628,1421284,1390415,1423183,1376,2428,-2639,4819,1052,-1067,-2732,3779,41,48,891
1011520,1388824,1421472,1390612,1423380,1552,2332,-2680,4835,1018,-1158,-2258,3430,41,48,891
1012522,1389040,1421660,1390809,1423577,1419,2337,-2640,4612,998,-1272,-1934,2876,51,38,891
1013523,1389244,1421840,1391006,1423774,1491,2394,-2530,4257,942,-1514,-1612,2673,51,38,891
1014523,1389460,1422056,1391203,1423971,1408,2161,-2402,3888,879,-1645,-1781,2973,36,47,891
1015524,1389672,1422268,1391400,1424168,1427,2180,-2312,3714,864,-1757,-2088,3620,36,47,891
1016525,1389868,1422448,1391597,1424365,1527,2388,-2258,3778,926,-1976,-2376,4317,51,40,890
1017527,1390064,1422644,1391794,1424562,1529,2289,-2225,3805,1050,-2103,-2406,4348,51,40,890
1018528,1390260,1422820,1391991,1424759,1529,2424,-2197,3698,1177,-2022,-1946,4169,31,41,892
1019528,1390436,1423024,1392188,1424956,1663,2246,-2163,3477,1313,-2128,-1646,4093,31,41,892
1020529,1390628,1423220,1392385,1425153,1567,2297,-2077,3099,1475,-2429,-1544,3675,49,48,891
1021530,1390820,1423428,1392582,1425350,1569,2217,-1449,3049,1709,-2921,-1896,8932,49,48,891
1022531,1391032,1423616,1392779,1425547,1437,2346,1065,5315,2311,-4913,-3495,32767,36,38,891
1023532,1391212,1423808,1392976,1425744,1646,2324,4024,7181,2958,-4045,-2576,22853,36,38,891
1024533,1391376,1424020,1393173,1425941,1760,2193,5171,6904,3231,-1836,-562,4115,45,44,892
1025535,1391512,1424220,1393370,1426138,1962,2266,4935,5294,3233,-1447,-246,1477,45,44,892
1026535,1391672,1424448,1393567,1426335,1829,2079,4477,3963,3242,-942,-532,2193,32,49,891
1027536,1391796,1424620,1393764,1426532,2086,2440,4227,3150,3378,-963,-669,2680,32,49,891
1028538,1391908,1424816,1393961,1426729,2200,2291,4109,2551,3615,-848,-797,2804,39,37,889
1029539,1392064,1425028,1394158,1426926,1943,2185,3965,2065,3848,-831,-789,3062,39,37,889
1030539,1392172,1425252,1394355,1427123,2282,2098,3797,1415,4020,-1293,-569,2795,41,40,888
1031540,1392276,1425484,1394552,1427320,2349,2033,3633,725,4085,-1458,-428,2946,41,40,888
1032541,1392448,1425684,1394749,1427517,1935,2232,3503,121,4055,-1297,-126,2943,25,36,890
1033542,1392636,1425900,1394946,1427714,1840,2124,3415,-315,4004,-1272,-105,3449,25,36,890
1034543,1392776,1426132,1395143,1427911,2165,2009,3270,-508,3946,-1084,-258,4176,47,54,889
1035544,1392920,1426392,1395340,1428108,2164,1807,3077,-586,3883,-847,-240,4376,47,54,889
1036545,1393052,1426652,1395537,1428305,2268,1779,2865,-505,3823,-828,29,5012,46,52,891
1037546,1393184,1426924,1395734,1428502,2296,1672,2659,-428,3718,-976,494,4669,46,52,891
1038547,1393320,1427232,1395931,1428699,2299,1398,2472,-521,3549,-1025,870,4304,36,61,890
1039548,1393440,1427376,1396128,1428896,2433,2446,2344,-629,3369,-1054,876,4188,36,61,890
1040549,1393560,1427516,1396325,1429093,2468,2497,2274,-723,3210,-1117,538,4018,34,34,889
1041551,1393668,1427664,1396522,1429290,2582,2469,2239,-788,3054,-1203,154,3981,34,34,889
1042551,1393788,1427844,1396719,1429487,2542,2277,2228,-871,2915,-1336,-218,4016,23,31,885
1043552,1393896,1428056,1396916,1429684,2657,2070,2227,-946,2747,-1186,95,3725,23,31,885
1044553,1394000,1428264,1397113,1429881,2723,2091,2226,-1103,2537,-926,730,3361,37,47,884
1045555,1394124,1428560,1397310,1430078,2631,1498,2235,-1296,2335,-820,488,3090,37,47,884
1046555,1394236,1428908,1397507,1430275,2743,1106,2281,-1619,2188,-665,74,2718,36,49,886
1047556,1394312,1429112,1397704,1430472,3022,2004,2340,-1963,2078,-553,27,2589,36,49,886
1048557,1394424,1429484,1397901,1430669,2835,877,2415,-2273,2003,-651,277,2409,32,58,889
1049559,1394524,1429828,1398098,1430866,2953,988,2506,-2623,1919,-713,426,2163,32,58,889
1050559,1394640,1430108,1398295,1431063,2890,1351,2581,-2908,1779,-795,486,2430,26,62,883
1051560,1394772,1430440,1398492,1431260,2819,967,2636,-3122,1583,-904,508,2574,26,62,883
1052561,1394904,1430756,1398689,1431457,2848,1016,2686,-3198,1371,-950,354,2719,36,66,889
1053562,1395048,1431092,1398886,1431654,2797,829,2705,-3161,1200,-904,479,3027,36,66,889
1054563,1395204,1431368,1399083,1431851,2741,1170,2647,-2925,1084,-829,681,3596,25,73,890
1055564,1395328,1431692,1399280,1432048,2974,814,2499,-2552,981,-724,1132,3832,25,73,890
1056565,1395484,1432032,1399477,1432245,2792,651,2298,-2211,893,-711,1525,3573,30,69,891
1057567,1395636,1432348,1399674,1432442,2838,749,2065,-1896,827,-515,1850,3456,30,69,891
1058567,1395788,1432668,1399871,1432639,2859,670,1832,-1620,773,-336,2069,3428,27,73,890
1059568,1395932,1433004,1400068,1432836,2933,509,1585,-1306,735,-54,2235,3617,27,73,890
1060569,1396092,1433336,1400265,1433033,2849,474,1310,-895,720,236,2434,3776,48,71,890
1061571,1396264,1433636,1400462,1433230,2786,629,1010,-472,706,512,2587,3756,48,71,890
1062572,1396436,1433896,1400659,1433427,2798,851,701,-24,673,754,2511,3747,34,55,890
1063573,1396580,1434080,1400856,1433624,2998,1332,404,311,635,1018,2539,3386,34,55,890
1064573,1396764,1434336,1401053,1433821,2754,856,114,520,596,1363,2609,3119,29,52,892
1065575,1396920,1434536,1401250,1434018,2947,1205,-179,781,548,1588,2795,3292,29,52,892
1066576,1397092,1434740,1401447,1434215,2859,1176,-466,1054,454,1646,2986,3224,50,44,886
1067577,1397276,1434952,1401644,1434412,2791,1119,-737,1328,303,1777,3021,3208,50,44,886
1068578,1397412,1435140,1401841,1434609,3119,1273,-1005,1678,131,1841,3086,3425,36,50,889
1069579,1397556,1435324,1402038,1434806,3093,1304,-1275,2030,-49,1939,3100,3321,36,50,889
1070580,1397700,1435508,1402235,1435003,3117,1310,-1519,2300,-236,2109,3077,3176,40,33,890
1071581,1397848,1435660,1402432,1435200,3114,1529,-1714,2437,-429,2057,2987,2757,40,33,890
1072581,1397980,1435836,1402629,1435397,3244,1389,-1866,2499,-628,2104,2861,2606,21,32,885
1073583,1398124,1436036,1402826,1435594,3193,1237,-1999,2604,-847,2152,2569,2725,21,32,885
1074583,1398228,1436220,1403023,1435791,3485,1343,-2115,2721,-1096,2089,2213,2866,22,29,885
1075584,1398368,1436400,1403220,1435988,3286,1375,-2226,2925,-1387,2131,1960,3137,22,29,885
1076585,1398496,1436580,1403417,1436185,3392,1383,-2341,3082,-1699,2090,2044,3035,19,30,886
1077586,1398664,1436740,1403614,1436382,3156,1523,-2481,3240,-1994,2061,2007,3123,19,30,886
1078587,1398824,1436900,1403811,1436579,3223,1539,-2619,3394,-2251,2056,1707,3074,47,32,885
1079588,1399004,1437064,1404008,1436776,3107,1529,-2723,3503,-2487,1943,1454,2988,47,32,885
1080589,1399148,1437276,1404205,1436973,3356,1222,-2818,3658,-2713,1757,1229,3379,49,31,885
1081590,1399316,1437460,1404402,1437170,3220,1403,-2902,3847,-2932,1607,890,3340,49,31,885
1082592,1399464,1437660,1404599,1437367,3367,1302,-2984,3970,-3145,1434,464,3424,22,37,884
1083592,1399604,1437836,1404796,1437564,3443,1461,-3058,4132,-3335,1182,114,3479,22,37,884
1084593,1399724,1437992,1404993,1437761,3603,1604,-3125,4169,-3506,983,-1,3210,27,29,884
1085594,1399864,1438140,1405190,1437958,3504,1676,-3196,4183,-3661,834,261,3179,27,29,884
1086595,1400016,1438304,1405387,1438155,3450,1590,-3264,4147,-3780,656,338,3128,39,38,883
1087596,1400156,1438460,1405584,1438352,3551,1658,-3291,4034,-3854,527,143,3100,39,38,883
1088597,1400308,1438628,1405781,1438549,3497,1596,-3278,3878,-3895,299,-278,3149,39,41,882
1089598,1400480,1438824,1405978,1438746,3384,1421,-3241,3732,-3923,-70,-592,3202,39,41,882
1090606,1400668,1438996,1406208,1438976,3303,1597,-3196,3535,-3950,-421,-760,3264,43,36,882
1091600,1400828,1439192,1406405,1439173,3495,1447,-3152,3320,-3958,-729,-888,3253,43,36,882
1092601,1401020,1439344,1406602,1439370,3299,1742,-3095,3044,-3924,-980,-1017,3333,42,46,884
1093602,1401208,1439480,1406799,1439567,3328,1869,-3039,2798,-3872,-1187,-1070,3453,42,46,884
1094604,1401372,1439624,1406996,1439764,3494,1842,-2980,2529,-3821,-1504,-1171,3538,48,26,882
1095605,1401540,1439772,1407193,1439961,3483,1839,-2908,2255,-3738,-1762,-1506,3798,48,26,882
1096605,1401716,1439912,1407390,1440158,3443,1914,-2812,1970,-3610,-1877,-1555,3751,24,25,882
1097606,1401888,1440064,1407587,1440355,3480,1858,-2699,1638,-3455,-1980,-1525,3834,24,25,882
1098607,1402092,1440200,1407784,1440552,3278,1985,-2571,1222,-3298,-2048,-1450,3800,27,24,880
1099608,1402284,1440344,1407981,1440749,3356,1958,-1740,569,-3035,-3321,-2005,8859,27,24,880
1100609,1402452,1440460,1408178,1440946,3521,2169,1510,-502,-2394,-6138,-4210,31490,43,32,881
1101610,1402656,1440592,1408375,1441143,3294,2098,4375,-817,-1865,-2473,-3321,18855,43,32,881
1102611,1402836,1440716,1408572,1441340,3452,2180,4821,-615,-1539,-1809,-1450,6491,37,36,882
1103612,1403028,1440832,1408769,1441537,3380,2266,4002,-41,-1409,-1694,-766,6678,37,36,882
1104613,1403232,1440964,1408966,1441734,3303,2195,3271,397,-1384,-1638,108,5740,48,31,879
1105615,1403420,1441072,1409163,1441931,3408,2384,2946,365,-1394,-1317,872,5039,48,31,879
1106615,1403608,1441200,1409360,1442128,3413,2289,2726,463,-1466,-689,1344,5442,50,24,877
1107617,1403832,1441348,1409557,1442325,3177,2186,2449,393,-1520,-562,1448,4821,50,24,877
1108617,1404052,1441492,1409754,1442522,3193,2234,2073,488,-1481,30,1167,5424,51,24,879
1109618,1404236,1441616,1409951,1442719,3425,2392,1663,556,-1358,563,873,4742,51,24,879
1110619,1404432,1441748,1410148,1442916,3351,2371,1301,314,-1202,677,737,3900,41,25,880
1111620,1404672,1441848,1410345,1443113,3060,2613,979,-11,-1081,1044,657,3501,41,25,880
1112621,1404888,1441944,1410542,1443310,3202,2683,724,-740,-1008,1027,543,2155,49,22,879
1113622,1405100,1442056,1410739,1443507,3222,2620,537,-1610,-950,1066,337,1997,49,22,879
1114624,1405332,1442160,1410936,1443704,3082,2712,373,-2386,-895,1060,160,1876,53,18,880
1115624,1405520,1442256,1411133,1443901,3362,2806,222,-3196,-851,916,-25,1617,53,18,880
1116625,1405692,1442368,1411330,1444098,3474,2744,49,-3771,-804,886,-244,2329,31,33,877
1117626,1405892,1442476,1411527,1444295,3299,2809,-125,-4236,-726,674,-372,2302,31,33,877
1118628,1406080,1442600,1411724,1444492,3379,2741,-278,-4653,-663,576,-354,2574,48,33,876
1119628,1406264,1442720,1411921,1444689,3410,2800,-415,-4852,-612,301,-343,3119,48,33,876
1120629,1406468,1442852,1412118,1444886,3283,2754,-511,-4958,-538,-82,-463,3123,30,26,877
1121630,1406632,1442984,1412315,1445083,3549,2783,-590,-4884,-464,-252,-533,3717,30,26,877
1122631,1406836,1443088,1412512,1445280,3297,3000,-640,-4685,-380,-479,-490,3878,43,33,875
1123632,1407032,1443204,1412709,1445477,3348,2960,-654,-4365,-295,-595,-370,4245,43,33,875
1124633,1407232,1443324,1412906,1445674,3324,2969,-636,-3904,-211,-676,-318,4493,32,22,874
1125634,1407440,1443444,1413103,1445871,3270,3004,-591,-3458,-132,-913,-213,4338,32,22,874
1126635,1407664,1443552,1413300,1446068,3159,3118,-515,-2969,-58,-971,-180,4484,37,23,875
1127637,1407860,1443648,1413497,1446265,3336,3239,-401,-2491,6,-1166,-102,4113,37,23,875
1128637,1408080,1443796,1413694,1446462,3177,2935,-246,-2116,59,-1344,-82,3832,34,23,874
1129639,1408292,1443936,1413891,1446659,3221,3011,-74,-1726,116,-1224,-186,3924,34,23,874
1130639,1408508,1444096,1414088,1446856,3189,2902,109,-1339,188,-1050,-131,3764,50,39,872
1131640,1408712,1444232,1414285,1447053,3262,3080,289,-953,243,-866,106,3601,50,39,872
1132641,1408916,1444376,1414482,1447250,3259,3053,462,-658,264,-732,296,3119,57,41,875
1133642,1409156,1444528,1414679,1447447,3017,3024,634,-518,278,-663,210,2821,57,41,875
1134643,1409344,1444688,1414876,1447644,3347,2991,785,-426,299,-577,148,2575,36,33,876
1135644,1409544,1444884,1415073,1447841,3271,2767,919,-444,325,-376,332,2305,36,33,876
1136645,1409784,1445080,1415270,1448038,3003,2768,1031,-399,347,-196,414,2343,44,33,877
1137647,1409984,1445268,1415467,1448235,3253,2822,1123,-446,346,-83,484,2108,44,33,877
1138647,1410188,1445488,1415664,1448432,3226,2613,1180,-527,307,79,438,2072,51,41,876
1139649,1410412,1445684,1415861,1448629,3090,2764,1200,-596,240,111,246,2053,51,41,876
1140649,1410608,1445876,1416058,1448826,3267,2792,1207,-709,153,79,60,1948,34,53,877
1141650,1410796,1446080,1416255,1449023,3322,2714,1193,-845,46,157,-4,1837,34,53,877
1142651,1411004,1446292,1416452,1449220,3194,2658,1142,-974,-53,175,-6,1940,34,52,879
1143652,1411232,1446520,1416649,1449417,3056,2546,1042,-1063,-135,337,-91,2241,34,52,879
1144653,1411472,1446744,1416846,1449614,2963,2559,890,-1060,-211,408,-263,2523,51,44,878
1145654,1411748,1446992,1417043,1449811,2704,2387,710,-1034,-285,381,-354,2543,51,44,878
1146655,1411992,1447256,1417240,1450008,2885,2258,497,-943,-361,395,-386,2733,58,59,881
1147656,1412220,1447532,1417437,1450205,2972,2149,259,-872,-431,421,-458,2706,58,59,881
1148657,1412488,1447772,1417634,1450402,2692,2355,-1,-872,-480,503,-549,2660,41,51,883
1149658,1412768,1448056,1417831,1450599,2581,2043,-283,-845,-509,510,-663,2790,41,51,883
1150659,1413048,1448312,1418028,1450796,2546,2192,-558,-922,-521,409,-613,2510,62,65,882
1151660,1413364,1448560,1418225,1450993,2270,2221,-820,-1072,-552,449,-380,2341,62,65,882
1152661,1413652,1448840,1418422,1451190,2405,1984,-1070,-1232,-607,465,-113,2437,68,50,886
1153662,1413944,1449132,1418619,1451387,2339,1868,-1312,-1467,-657,388,29,2307,68,50,886
1154663,1414256,1449408,1418816,1451584,2164,1934,-1530,-1761,-700,347,-62,2177,49,59,888
1155664,1414572,1449648,1419013,1451781,2088,2140,-1733,-2053,-714,272,-179,2156,49,59,888
1156665,1414860,1449912,1419210,1451978,2224,1961,-1901,-2416,-688,232,-139,2051,67,50,890
1157666,1415156,1450208,1419407,1452175,2132,1718,-2061,-2871,-660,310,-53,1845,67,50,890
1158667,1415444,1450452,1419604,1452372,2143,2023,-2195,-3353,-632,259,-136,2021,50,50,890
1159669,1415732,1450664,1419801,1452569,2103,2217,-2325,-3718,-590,123,-192,2392,50,50,890
1160669,1416020,1450900,1419998,1452766,2064,2050,-2424,-3995,-539,-1,-148,2491,56,57,891
1161671,1416336,1451116,1420195,1452963,1837,2167,-2490,-4278,-489,-114,106,2587,56,57,891
1162672,1416632,1451316,1420392,1453160,1920,2266,-2545,-4525,-430,-98,201,2998,43,40,889
1163672,1416888,1451548,1420589,1453357,2144,2050,-2584,-4738,-362,142,459,2997,43,40,889
1164673,1417180,1451764,1420786,1453554,1878,2143,-2574,-5050,-269,295,712,2718,45,50,890
1165674,1417500,1451988,1420983,1453751,1650,2081,-2525,-5498,-146,364,56,2818,45,50,890
1166675,1417772,1452164,1421180,1453948,1917,2390,-2526,-5665,20,533,-948,3700,63,49,890
1167676,1418112,1452368,1421377,1454145,1430,2213,-2503,-5683,220,246,-1003,3680,63,49,890
1168677,1418372,1452592,1421574,1454342,1904,2077,-2429,-5831,440,443,-1214,3627,58,47,892
1169678,1418640,1452780,1421771,1454539,1822,2305,-2378,-5800,631,944,-1546,4321,61,39,891
1170679,1418924,1452964,1421968,1454736,1685,2337,-2312,-5768,828,738,-1338,4271,61,39,891
1171680,1419204,1453180,1422165,1454933,1675,2129,-2228,-5732,1009,875,-1396,4661,54,39,889
1172681,1419448,1453408,1422362,1455130,1879,2040,-2140,-5588,1128,1279,-1273,4568,54,39,889
1173689,1419720,1453624,1422592,1455360,1687,2122,-2011,-5546,1253,1575,-1096,4331,66,33,891
1174683,1419960,1453860,1422789,1455557,1868,1980,-1934,-5286,1402,1977,-1376,5373,66,33,891
1175684,1420228,1454056,1422986,1455754,1663,2231,-1927,-5040,1586,1926,-1864,5163,57,46,891
1176685,1420544,1454236,1423183,1455951,1310,2339,-1895,-4846,1787,1762,-1880,5231,57,46,891
1177686,1420828,1454432,1423380,1456148,1473,2240,-1818,-4486,1938,1998,-1590,5641,50,39,891
1178687,1421108,1454668,1423577,1456345,1462,1972,-1628,-4204,2046,2180,-1558,6176,50,39,891
1179688,1421392,1454928,1423774,1456542,1399,1796,-398,-1635,2021,4553,-1377,26165,50,45,892
1180689,1421656,1455144,1423971,1456739,1495,2062,1007,1180,1926,3347,-1470,17620,50,45,892
1181690,1421948,1455356,1424168,1456936,1279,2081,1490,1921,1995,1504,-1815,4798,67,48,894
1182691,1422216,1455576,1424365,1457133,1398,2022,1308,1465,2176,1546,-1738,4543,67,48,894
1183692,1422488,1455788,1424562,1457330,1340,2065,1079,832,2329,1696,-1547,3877,45,47,893
1184693,1422740,1456000,1424759,1457527,1442,2059,941,644,2428,1757,-1682,4466,45,47,893
1185695,1422964,1456236,1424956,1457724,1605,1891,878,599,2521,1346,-1801,4036,39,42,893
1186695,1423236,1456448,1425153,1457921,1273,2036,810,377,2592,1184,-1958,3905,39,42,893
1187696,1423464,1456636,1425350,1458118,1534,2190,758,146,2613,916,-1846,3727,42,52,893
1188697,1423664,1456832,1425547,1458315,1708,2140,729,-373,2614,645,-1740,3099,42,52,893
1189698,1423880,1457012,1425744,1458512,1601,2249,740,-843,2569,733,-1929,3315,58,50,892
1190699,1424104,1457216,1425941,1458709,1539,2096,730,-1322,2522,579,-2092,3255,58,50,892
1191700,1424288,1457460,1426138,1458906,1794,1825,728,-1628,2501,501,-2199,3800,32,40,890
1192701,1424464,1457704,1426335,1459103,1855,1804,673,-1759,2468,675,-2441,4245,32,40,890
1193703,1424624,1457916,1426532,1459300,1971,1999,643,-1843,2403,589,-2384,4218,42,37,891
1194704,1424808,1458096,1426729,1459497,1827,2206,606,-1856,2308,424,-2302,4742,42,37,891
1195705,1424972,1458296,1426926,1459694,1967,2080,585,-1854,2187,326,-2297,4677,41,36,891
1196706,1425112,1458528,1427123,1459891,2142,1864,562,-1788,2109,301,-2254,4939,41,36,891
1197706,1425236,1458780,1427320,1460088,2275,1716,549,-1655,2067,444,-1988,4940,21,55,890
1198707,1425372,1459004,1427517,1460285,2227,1879,562,-1647,2018,584,-2003,4620,21,55,890
1199708,1425468,1459216,1427714,1460482,2522,1948,605,-1597,1974,794,-1881,4743,30,39,890
1200710,1425572,1459396,1427911,1460679,2513,2155,671,-1521,1939,934,-1740,4637,30,39,890
1201711,1425704,1459600,1428108,1460876,2367,2003,736,-1415,1921,1141,-1795,4867,24,45,887
1202712,1425832,1459824,1428305,1461073,2423,1866,785,-1152,1945,1223,-1959,5309,24,45,887
1203713,1425948,1460040,1428502,1461270,2534,1908,837,-854,2012,1189,-2085,5296,17,43,886
1204714,1426080,1460240,1428699,1461467,2463,2007,892,-511,2101,1157,-2174,5487,17,43,886
1205715,1426180,1460472,1428896,1461664,2706,1792,958,-170,2213,1031,-2032,5426,15,33,887
1206715,1426268,1460676,1429093,1461861,2830,1964,1046,103,2302,962,-1574,5123,15,33,887
1207717,1426352,1460888,1429290,1462058,2905,1908,1147,319,2321,1183,-1058,4949,19,39,886
1208717,1426424,1461084,1429487,1462255,3036,2008,1261,452,2266,1513,-480,4700,19,39,886
1209718,1426488,1461328,1429684,1462452,3144,1688,1373,616,2174,1949,-280,4797,23,40,884
1210719,1426540,1461568,1429881,1462649,3284,1695,1458,838,2097,2128,-444,4749,23,40,884
1211720,1426628,1461816,1430078,1462846,3108,1622,1517,1057,2064,2160,-651,4841,21,44,883
1212721,1426704,1462060,1430275,1463043,3236,1626,1546,1345,2050,2311,-794,4903,21,44,883
1213722,1426784,1462256,1430472,1463240,3263,1927,1580,1558,2029,2345,-767,4301,20,46,881
1214723,1426908,1462436,1430669,1463437,3021,2035,1646,1627,1982,2248,-634,3891,20,46,881
1215724,1427060,1462704,1430866,1463634,2866,1454,1707,1615,1877,2177,-339,3902,38,43,881
1216725,1427200,1462956,1431063,1463831,2967,1530,1753,1678,1743,1899,-388,3823,38,43,881
1217727,1427388,1463196,1431260,1464028,2672,1586,1802,1805,1634,1427,-648,3929,48,60,887
1218727,1427540,1463428,1431457,1464225,2918,1621,1843,1928,1574,952,-964,3827,48,60,887
1219728,1427704,1463620,1431654,1464422,2857,1873,1850,2073,1543,582,-1125,3900,31,43,888
1220729,1427844,1463824,1431851,1464619,3033,1796,1821,2221,1514,444,-1003,3766,31,43,888
1221730,1427992,1464060,1432048,1464816,3006,1579,1814,2171,1460,711,-545,2967,34,53,886
1222731,1428140,1464264,1432245,1465013,3028,1776,1846,1950,1375,1163,-16,2345,34,53,886
1223732,1428308,1464480,1432442,1465210,2916,1692,1901,1679,1286,1371,347,2152,46,44,885
1224733,1428524,1464668,1432639,1465407,2609,1871,1909,1483,1233,1315,209,2426,46,44,885
1225735,1428724,1464848,1432836,1465604,2709,1929,1857,1438,1235,989,-201,2774,50,49,884
1226736,1428960,1465008,1433033,1465801,2467,2070,1758,1446,1273,627,-499,2956,50,49,884
1227737,1429156,1465188,1433230,1465998,2718,1953,1651,1546,1316,369,-437,2922,33,34,886
1228737,1429332,1465420,1433427,1466195,2853,1613,1590,1447,1284,262,234,2128,33,34,886
1229739,1429504,1465664,1433624,1466392,2890,1517,1579,1187,1164,463,820,1763,37,48,886
1230739,1429760,1465876,1433821,1466589,2340,1711,1586,934,1028,674,871,1644,37,48,886
1231740,1430012,1466072,1434018,1466786,2342,1811,1574,759,967,652,626,1822,42,33,887
1232741,1430224,1466240,1434215,1466983,2585,1999,1516,807,989,190,96,2507,42,33,887
1233743,1430472,1466400,1434412,1467180,2339,2065,1431,988,1054,-524,-321,2678,41,40,890
1234743,1430684,1466604,1434609,1467377,2558,1788,1370,1043,1093,-635,41,2153,41,40,890
1235745,1430900,1466784,1434806,1467574,2526,1946,1344,1012,1048,-224,423,1744,38,33,887
1236745,1431172,1467008,1435003,1467771,2143,1659,1339,829,999,301,331,1241,38,33,887
1237746,1431408,1467208,1435200,1467968,2352,1807,1357,609,1036,694,-5,1143,47,51,887
1238747,1431628,1467424,1435397,1468165,2443,1699,1309,667,1187,361,-631,2169,47,51,887
1239748,1431852,1467592,1435594,1468362,2406,2012,1224,974,1417,-431,-981,2759,45,48,890
1240749,1432060,1467804,1435791,1468559,2502,1730,1109,1287,1575,-358,-682,2700,45,48,890
1241751,1432284,1467976,1435988,1468756,2391,1992,995,1551,1579,375,-198,2324,46,34,888
1242751,1432536,1468148,1436185,1468953,2193,2003,885,1632,1525,1134,112,1790,46,34,888
1243752,1432784,1468396,1436382,1469150,2196,1506,771,1650,1451,1159,193,1893,59,46,888
1244753,1433024,1468608,1436579,1469347,2228,1724,658,1822,1421,354,-178,2470,59,46,888
1245754,1433240,1468844,1436776,1469544,2370,1557,566,2096,1430,-147,-110,2514,33,38,891
1246755,1433444,1469044,1436973,1469741,2442,1781,487,2313,1391,313,6,2092,33,38,891
1247756,1433668,1469248,1437170,1469938,2306,1753,414,2359,1298,1158,160,1548,37,45,888
1248757,1433924,1469424,1437367,1470135,2082,1937,337,2234,1209,1671,183,1235,37,45,888
1249759,1434156,1469664,1437564,1470332,2216,1519,270,2154,1152,1394,-191,1526,61,44,890
1250759,1434364,1469932,1437761,1470529,2362,1313,188,2300,1177,472,-713,2312,61,44,890
1251761,1434540,1470208,1437958,1470726,2573,1228,99,2551,1214,252,-389,2528,43,39,891
1252761,1434728,1470468,1438155,1470923,2502,1300,-4,2749,1126,903,386,2024,43,39,891
1253762,1434912,1470676,1438352,1471120,2533,1621,-74,2752,988,1651,437,1459,30,42,890
1254763,1435132,1470904,1438549,1471317,2299,1482,-113,2602,915,2039,263,1236,30,42,890
1255764,1435408,1471176,1438746,1471514,1914,1174,-201,2681,885,1438,-115,2412,61,52,889
1256774,1435616,1471468,1438976,1471744,2350,1022,-337,3031,881,394,-535,2958,61,52,889
1257766,1435808,1471728,1439173,1471941,2453,1194,-510,3464,822,49,-222,3094,51,51,894
1258768,1436028,1471960,1439370,1472138,2268,1354,-644,3663,609,555,1123,2012,51,51,894
1259768,1436224,1472148,1439567,1472335,2420,1633,-768,3685,199,862,2085,2047,39,49,890
1260769,1436444,1472408,1439764,1472532,2259,1155,-913,3710,-242,957,1873,2389,39,49,890
1261770,1436744,1472656,1439961,1472729,1715,1208,-1096,3800,-538,481,892,2753,64,57,890
1262771,1436988,1472956,1440158,1472926,2046,837,-1342,4255,-699,-478,-388,3943,64,57,890
1263772,1437220,1473180,1440355,1473123,2105,1300,-1625,4779,-813,-1088,-429,3744,48,54,895
1264773,1437480,1473388,1440552,1473320,1904,1396,-1939,5014,-1035,-877,714,3109,48,54,895
1265774,1437732,1473592,1440749,1473517,1929,1418,-2165,4935,-1417,-550,1305,1985,44,50,894
1266775,1437980,1473836,1440946,1473714,1933,1147,-2350,4580,-1818,-414,1188,1852,44,50,894
1267776,1438280,1474100,1441143,1473911,1564,992,-2556,4380,-2130,-616,208,2668,62,33,894
1268777,1438560,1474304,1441340,1474108,1652,1364,-2890,4438,-2306,-1577,-933,3668,62,33,894
1269778,1438792,1474504,1441537,1474305,1938,1388,-3252,4649,-2370,-2248,-1563,3570,45,31,896
1270779,1439072,1474672,1441734,1474502,1601,1601,-3574,4452,-2446,-2048,-1493,2283,45,31,896
1271780,1439368,1474832,1441931,1474699,1459,1667,-3741,3747,-2586,-1573,-1070,1270,63,27,894
1272781,1439632,1474988,1442128,1474896,1629,1710,-3859,2883,-2706,-1427,-1321,1653,63,27,894
1273782,1439912,1475152,1442325,1475093,1494,1675,-3980,2247,-2723,-1751,-2540,2377,67,29,895
1274784,1440176,1475348,1442522,1475290,1564,1475,-4088,1705,-2631,-2321,-3202,2470,67,29,895
1275784,1440396,1475552,1442719,1475487,1830,1422,-4143,1183,-2491,-2603,-3377,2553,65,37,895
1276785,1440688,1475732,1442916,1475684,1339,1579,-4187,594,-2387,-2094,-2976,2759,65,37,895
1277786,1440972,1475900,1443113,1475881,1350,1667,-4181,-77,-2311,-1572,-2520,2602,45,37,895
1278787,1441240,1476060,1443310,1476078,1420,1733,-4125,-897,-2230,-1511,-2408,2625,45,37,895
1279788,1441520,1476196,1443507,1476275,1309,1910,-4051,-1717,-2149,-1448,-2391,2878,44,38,894
1280789,1441744,1476320,1443704,1476472,1648,2017,-3985,-2388,-2070,-1287,-2314,3459,44,38,894
1281790,1442008,1476444,1443901,1476669,1368,2049,-3912,-2915,-1992,-867,-2085,3813,50,22,894
1282791,1442220,1476576,1444098,1476866,1687,2028,-3795,-3398,-1960,-531,-1698,4154,50,22,894
1283792,1442480,1476740,1444295,1477063,1360,1842,-3673,-3733,-1992,-395,-1486,5108,61,29,892
1284793,1442724,1476920,1444492,1477260,1439,1750,-3538,-3859,-2051,-398,-1516,5717,61,29,892
1285794,1442984,1477032,1444689,1477457,1312,2212,-2404,-2922,-2125,969,-2403,14147,44,34,894
1286795,1443220,1477176,1444886,1477654,1446,2036,982,2898,-2476,6234,-4055,32767,44,34,894
1287796,1443500,1477320,1445083,1477851,1134,2060,3700,6214,-2793,1710,-1672,10794,53,35,893
1288797,1443684,1477440,1445280,1478048,1740,2244,4155,5559,-2916,1073,-701,3343,53,35,893
1289798,1443972,1477612,1445477,1478245,1051,1930,3722,3316,-2959,1338,-850,2274,52,29,893
1290800,1444196,1477752,1445674,1478442,1439,2155,3413,1706,-2897,1889,-1480,3328,52,29,893
1291800,1444504,1477892,1445871,1478639,865,2180,3340,1128,-2747,2070,-1295,4166,36,41,893
1292801,1444768,1478016,1446068,1478836,1111,2312,3419,444,-2619,2549,-941,3007,36,41,893
1293802,1445020,1478216,1446265,1479033,1163,1836,3463,-392,-2610,3172,-230,2806,52,42,894
1294804,1445144,1478404,1446462,1479230,1995,1914,3468,-1635,-2702,2770,81,1552,52,42,894
1295804,1445444,1478608,1446659,1479427,849,1812,3443,-3025,-2855,2509,-567,1717,49,29,895
1296805,1445716,1478784,1446856,1479624,991,1997,3343,-4064,-3003,2334,-1186,2313,49,29,895
1297806,1446132,1478924,1447053,1479821,-4,2247,3229,-4918,-3056,2151,-1600,2595,49,30,896
1298807,1446300,1479088,1447250,1480018,1559,2111,3025,-5388,-3052,2486,-1924,3930,49,30,896
1299808,1446556,1479224,1447447,1480215,983,2313,2757,-5556,-3041,2411,-2074,4338,44,45,895
1300809,1446840,1479408,1447644,1480412,770,2019,2502,-5616,-3007,1976,-2025,4583,44,45,895
1301810,1447064,1479596,1447841,1480609,1133,1999,2257,-5479,-2980,1800,-1747,4875,62,38,891
1302811,1447348,1479752,1448038,1480806,720,2217,2066,-5619,-2989,1680,-1286,3814,62,38,891
1303812,1447616,1479904,1448235,1481003,790,2261,1883,-5796,-3024,1840,-1083,3863,44,39,893
1304813,1447844,1480056,1448432,1481200,1026,2281,1676,-5947,-3073,1889,-900,3592,44,39,893
1305814,1448104,1480212,1448629,1481397,798,2275,1409,-6053,-3024,1836,-1410,3712,40,32,894
1306815,1448348,1480376,1448826,1481594,878,2240,1058,-5829,-2845,1937,-1600,4328,40,32,894
1307816,1448536,1480536,1449023,1481791,1232,2281,813,-5623,-2713,2180,-143,3670,54,27,894
1308817,1448736,1480684,1449220,1481988,1155,2378,645,-5556,-2683,2487,488,3452,54,27,894
1309818,1448968,1480844,1449417,1482185,940,2319,489,-5539,-2643,2682,276,3019,48,24,892
1310819,1449172,1480988,1449614,1482382,1112,2443,223,-5491,-2458,2754,-179,3263,48,24,892
1311820,1449396,1481144,1449811,1482579,975,2386,-115,-5193,-2278,2578,144,3451,36,27,893
1312821,1449572,1481276,1450008,1482776,1284,2565,-439,-4938,-2154,2274,16,3023,36,27,893
1313822,1449736,1481416,1450205,1482973,1375,2541,-715,-4733,-1997,2084,-405,2951,43,31,891
1314823,1449920,1481552,1450402,1483170,1255,2593,-869,-4571,-1803,2010,195,2646,43,31,891
1315824,1450084,1481684,1450599,1483367,1395,2646,-971,-4401,-1619,1898,930,2799,23,27,889
1316825,1450244,1481848,1450796,1483564,1436,2461,-1070,-4100,-1449,1873,1044,3179,23,27,889
1317826,1450404,1481984,1450993,1483761,1452,2663,-1186,-3583,-1241,1866,835,3554,29,31,889
1318827,1450584,1482128,1451190,1483958,1335,2637,-1293,-3013,-990,1821,756,3486,29,31,889
1319828,1450752,1482272,1451387,1484155,1423,2660,-1354,-2523,-745,1641,457,3123,24,37,889
1320829,1450920,1482428,1451584,1484352,1435,2604,-1351,-2159,-510,1477,140,2758,24,37,889
1321830,1451100,1482576,1451781,1484549,1368,2676,-1320,-1784,-257,1241,-171,2840,26,24,888
1322831,1451260,1482728,1451978,1484746,1509,2671,-1311,-1285,30,978,-725,3190,26,24,888
1323833,1451428,1482900,1452175,1484943,1473,2557,-1290,-667,347,765,-906,3483,36,33,887
1324834,1451572,1483064,1452372,1485140,1646,2622,-1248,39,668,611,-1040,3745,36,33,887
1325834,1451712,1483232,1452569,1485337,1696,2611,-1198,812,962,535,-1120,3964,37,35,887
1326835,1451852,1483376,1452766,1485534,1721,2784,-1134,1578,1226,526,-1157,3811,37,35,887
1327836,1452048,1483536,1452963,1485731,1372,2701,-1057,2211,1463,540,-1114,3423,40,34,888
1328837,1452212,1483736,1453160,1485928,1586,2450,-987,2766,1670,571,-1245,3494,40,34,888
1329839,1452364,1483912,1453357,1486125,1682,2609,-956,3353,1864,541,-1565,3646,27,41,888
1330839,1452528,1484096,1453554,1486322,1621,2566,-958,3955,2059,472,-1906,3677,27,41,888
1331841,1452696,1484284,1453751,1486519,1609,2545,-973,4553,2241,524,-1949,3753,28,45,888
1332841,1452844,1484476,1453948,1486716,1756,2523,-1022,5125,2381,679,-1656,3887,28,45,888
1333843,1453032,1484684,1454145,1486913,1510,2418,-1075,5637,2480,1002,-1363,3788,46,34,888
1334843,1453176,1484880,1454342,1487110,1809,2493,-1130,6081,2545,1184,-1069,3660,46,34,888
1335845,1453364,1485060,1454539,1487307,1538,2602,-1163,6336,2564,1296,-974,3315,45,32,888
1336845,1453556,1485252,1454736,1487504,1515,2529,-1202,6618,2550,1321,-1158,3583,45,32,888
1337846,1453744,1485464,1454933,1487701,1544,2399,-1249,6867,2541,1255,-1660,3534,46,34,888
1338847,1453904,1485668,1455130,1487898,1736,2445,-1300,7125,2558,1140,-2179,3728,46,34,888
1339856,1454096,1485896,1455360,1488128,1553,2297,-1377,7405,2592,1001,-2347,3989,47,52,888
1340850,1454260,1486084,1455557,1488325,1742,2551,-1470,7679,2607,875,-2151,4011,47,52,888
1341850,1454452,1486292,1455754,1488522,1570,2421,-1559,7873,2614,714,-2187,4048,48,42,890
1342851,1454652,1486496,1455951,1488719,1518,2444,-1621,7979,2627,423,-2255,4025,48,42,890
1343852,1454832,1486724,1456148,1488916,1652,2281,-1655,8068,2626,155,-2113,4024,43,45,889
1344853,1455024,1486956,1456345,1489113,1579,2241,-1645,8099,2549,-218,-1706,3918,43,45,889
1345854,1455228,1487148,1456542,1489310,1501,2494,-1603,8010,2302,-509,-1458,3869,44,42,889
1346855,1455412,1487332,1456739,1489507,1632,2550,-1598,7885,1938,-600,-1318,4137,44,42,889
1347856,1455576,1487552,1456936,1489704,1772,2315,-1646,7828,1614,-677,-1559,4500,33,50,888
1348857,1455736,1487768,1457133,1489901,1813,2332,-1723,7729,1407,-762,-1603,4630,33,50,888
