"Data file recorded 2014/9/24  18:12:12"
"%  Right Stride Frequency         = 3.0"
"%  Left Stride Frequency         = 3.0"
"%  Phase (Fractional)         = 32768.0"
"%  Experiment.py "
"%  Motor Gains    = [1800, 200, 100, 0, 0, 1800, 200, 100, 0, 0]
"% Columns: "
"% time | Right Leg Pos | Left Leg Pos | Commanded Right Leg Pos | Commanded Left Leg Pos | DCR | DCL | GyroX | GryoY | GryoZ | AX | AY | AZ | RBEMF | LBEMF | VBatt "
11917,9460836,9957672,9479888,9971408,3800,3800,-137,-709,308,372,-521,4013,-8,-1,882
12911,9460856,9957688,9480085,9971605,3800,3800,-139,-709,309,359,-515,4053,-8,-1,882
13912,9460908,9957676,9480282,9971802,3800,3800,-135,-695,306,345,-543,4104,-4,-2,883
14913,9461024,9957804,9480479,9971999,3800,3800,-109,-626,281,616,-363,4410,-4,-2,883
15914,9461220,9958028,9480676,9972196,3800,3800,-74,-591,236,775,-509,4299,30,48,837
16915,9461460,9958308,9480873,9972393,3800,3800,-2,-540,182,434,-209,4848,30,48,837
17916,9461732,9958648,9481070,9972590,3800,3800,138,-503,134,-50,252,5553,46,56,842
18917,9462104,9958964,9481267,9972787,3800,3800,245,-565,35,55,297,4966,46,56,842
19918,9462448,9959292,9481464,9972984,3800,3800,314,-735,-56,-561,1050,4599,79,67,844
20919,9462800,9959684,9481661,9973181,3800,3800,369,-1017,-178,-129,742,4884,79,67,844
21920,9463224,9960000,9481858,9973378,3800,3800,415,-1431,-314,-361,107,4144,76,69,845
22921,9463668,9960304,9482055,9973575,3800,3800,461,-2060,-439,-669,686,3800,76,69,845
23922,9464124,9960576,9482252,9973772,3800,3800,496,-2669,-494,-1194,880,3808,101,57,844
24923,9464596,9960828,9482449,9973969,3800,3800,462,-3141,-517,-1354,922,3362,101,57,844
25924,9465132,9961108,9482646,9974166,3800,3800,381,-3173,-704,-14,755,4923,87,54,843
26925,9465684,9961340,9482843,9974363,3800,3800,286,-2913,-1118,694,1068,5261,87,54,843
27926,9466216,9961544,9483040,9974560,3800,3800,189,-2588,-1556,144,1271,4771,111,61,844
28927,9466832,9961764,9483237,9974757,3800,3800,157,-2435,-1902,-122,1263,5407,111,61,844
29928,9467452,9961976,9483434,9974954,3800,3800,214,-2408,-2201,317,1021,5137,104,42,845
30929,9468024,9962200,9483631,9975151,3800,3800,288,-2684,-2413,502,339,4216,104,42,845
31918,9468712,9962420,9483828,9975348,3642,3800,345,-3186,-2533,620,-145,4049,120,42,845
32918,9469360,9962644,9484025,9975545,3697,3800,480,-3572,-2526,-98,-93,4807,120,42,845
33920,9470040,9962852,9484222,9975742,3288,3800,516,-4064,-2507,72,-283,3580,143,56,846
34920,9470824,9963048,9484419,9975939,2382,3800,534,-4397,-2555,-45,253,3786,143,56,846
35922,9471548,9963252,9484616,9976136,2528,3800,475,-4638,-2605,-620,142,4201,124,60,847
36922,9472252,9963512,9484813,9976333,2433,3800,314,-4779,-2721,84,-173,3075,124,60,847
37923,9473032,9963740,9485010,9976530,1704,3800,132,-4905,-2846,-143,-914,3377,143,59,852
38924,9473744,9963940,9485207,9976727,1905,3800,-4,-4999,-2911,-267,-1042,4010,143,59,852
39925,9474516,9964176,9485404,9976924,1279,3800,-157,-5304,-2956,410,-1929,1738,134,51,852
40926,9475264,9964384,9485601,9977121,1189,3800,-281,-5607,-3016,1053,-1779,3192,134,51,852
41928,9476056,9964620,9485798,9977318,655,3800,-406,-5810,-3050,969,-2930,2591,135,51,855
42929,9476724,9964900,9485995,9977515,1225,3800,-588,-6053,-3015,867,-1836,1502,135,51,855
43930,9477420,9965156,9486192,9977712,832,3800,-765,-6190,-2845,143,-2078,2615,146,48,858
44931,9478144,9965388,9486389,9977909,428,3800,-955,-6191,-2642,229,-1991,2225,146,48,858
45932,9478808,9965640,9486586,9978106,599,3800,-1120,-5921,-2417,404,-3023,3615,140,54,858
46933,9479392,9965932,9486783,9978303,930,3800,-1235,-5365,-2271,1411,-3216,4741,140,54,858
47934,9480008,9966264,9486980,9978500,547,3800,-1475,-5099,-2145,609,-978,1310,116,74,858
48934,9480532,9966588,9487177,9978697,981,3800,-1682,-4704,-1926,-113,-838,4177,116,74,858
49935,9481052,9966904,9487374,9978894,865,3800,-1549,-4088,-1673,-172,-1037,6671,122,74,858
50936,9481520,9967276,9487571,9979091,1072,3800,-1365,-3529,-1341,-678,26,4992,122,74,858
51937,9481940,9967668,9487768,9979288,1275,3800,-1432,-3854,-996,-263,118,-1351,86,82,859
52938,9482368,9968024,9487965,9979485,1124,3800,-1403,-4135,-607,302,-958,5020,86,82,859
53939,9482788,9968420,9488162,9979682,1077,3800,-996,-3934,-237,631,-929,6202,76,68,859
54928,9483156,9968828,9488359,9979879,1328,3643,-845,-4470,-33,2188,906,-931,76,68,859
55929,9483468,9969224,9488556,9980076,1628,3632,-870,-5287,-47,4044,1820,-245,70,73,858
56930,9483804,9969592,9488753,9980273,1418,3734,-665,-5529,190,1152,-1364,6207,70,73,858
57931,9484128,9969980,9488950,9980470,1439,3527,-71,-5194,641,510,-2505,7245,79,71,859
58932,9484400,9970420,9489147,9980667,1732,3098,477,-4916,1101,1000,189,5619,79,71,859
59933,9484648,9970804,9489344,9980864,1860,3367,678,-4874,708,10105,2898,3148,76,87,857
60934,9484916,9971168,9489541,9981061,1705,3421,794,-4384,280,6265,-727,7469,76,87,857
61935,9485148,9971524,9489738,9981258,1916,3403,1030,-3814,529,164,-212,6502,45,78,861
62936,9485356,9971860,9489935,9981455,2062,3468,1098,-3706,984,2168,485,2657,45,78,861
63937,9485560,9972152,9490132,9981652,2085,3703,992,-3812,1301,2158,752,2927,39,65,858
64938,9485744,9972428,9490329,9981849,2215,3771,863,-3514,1594,1285,-1295,5192,39,65,858
65951,9485952,9972668,9490526,9982046,2062,3800,759,-3063,1885,1161,-5140,4517,54,59,855
66940,9486136,9972948,9490723,9982243,2218,3694,710,-2508,2086,1341,-3801,5178,54,59,855
67941,9486320,9973212,9490920,9982440,2225,3766,605,-1939,2238,796,-1327,4548,39,53,852
68954,9486472,9973464,9491117,9982637,2446,3800,415,-1396,2394,1057,-305,4550,39,53,852
69955,9486676,9973664,9491314,9982834,2119,3800,220,-882,2411,2402,-1212,5166,35,53,851
70956,9486836,9973908,9491511,9983031,2411,3800,125,-642,2344,1514,-2441,4358,35,53,851
71957,9487000,9974140,9491708,9983228,2401,3800,120,-646,2464,-1007,-3047,3935,46,40,848
72958,9487144,9974368,9491905,9983425,2550,3800,197,-838,2554,-18,-2305,4426,46,40,848
73959,9487288,9974592,9492102,9983622,2574,3800,314,-835,2525,841,-1462,5783,44,38,847
74961,9487416,9974776,9492299,9983819,2705,3800,354,-699,2407,1191,475,4916,44,38,847
75962,9487544,9974980,9492496,9984016,2737,3800,336,-576,2258,786,205,5011,42,46,847
76962,9487680,9975164,9492693,9984213,2714,3800,366,-622,2009,1260,-642,5039,42,46,847
77963,9487792,9975356,9492890,9984410,2903,3800,337,-952,1825,495,-1020,3624,33,48,847
78964,9487928,9975528,9493087,9984607,2781,3800,230,-1139,1732,164,-229,4454,40,40,847
79966,9488076,9975680,9493284,9984804,2728,3800,185,-840,1592,936,216,7423,40,40,847
80967,9488212,9975840,9493481,9985001,2831,3800,158,-433,1441,911,-1269,6369,23,34,844
81967,9488360,9976024,9493678,9985198,2779,3800,90,-474,1366,359,-1174,4208,23,34,844
82968,9488496,9976176,9493875,9985395,2881,3800,89,-726,1345,464,-1008,5037,44,40,845
83970,9488644,9976324,9494072,9985592,2829,3800,182,-1093,1206,1792,-1176,4508,44,40,845
84970,9488772,9976484,9494269,9985789,2985,3800,279,-1486,1067,1203,-931,3664,44,43,846
85971,9488916,9976652,9494466,9985986,2909,3800,319,-1636,1084,256,-673,4645,44,43,846
86972,9489036,9976828,9494663,9986183,3094,3800,311,-1527,1075,1383,-864,4602,39,45,845
87973,9489184,9977040,9494860,9986380,2942,3800,225,-1373,994,1254,-385,3781,39,45,845
88975,9489356,9977264,9495057,9986577,2804,3800,91,-1096,921,784,719,4731,28,43,844
89975,9489524,9977484,9495254,9986774,2844,3800,-52,-724,900,911,130,4909,28,43,844
90977,9489696,9977688,9495451,9986971,2831,3800,-167,-411,894,1125,-1544,4913,29,51,846
91978,9489876,9977920,9495648,9987168,2789,3800,-220,-156,816,1494,-2003,5073,29,51,846
92966,9490004,9978252,9495845,9987365,3145,3334,-263,-185,752,938,-906,3725,23,53,846
93973,9490132,9978568,9496272,9987792,3278,3485,-315,-433,738,619,248,2701,23,53,846
94967,9490280,9978868,9496469,9987989,3175,3542,-273,-608,766,318,1335,4455,42,55,848
95969,9490404,9979144,9496666,9988186,3358,3658,-221,-793,747,1399,426,2922,42,55,848
96970,9490584,9979512,9496863,9988383,3017,3010,-200,-953,664,1982,196,2838,28,75,847
97971,9490752,9979932,9497060,9988580,3107,2589,-112,-925,691,605,-313,4462,28,75,847
98971,9490964,9980284,9497257,9988777,2826,2947,-40,-1036,740,705,-194,2884,34,72,852
99973,9491148,9980620,9497454,9988974,3008,2988,-10,-1104,926,-909,-693,3450,34,72,852
100973,9491328,9980960,9497651,9989171,3041,2902,-32,-1163,1036,219,355,3251,30,68,854
101975,9491508,9981372,9497848,9989368,3050,2358,-107,-1271,997,833,-267,2431,30,68,854
102975,9491668,9981768,9498045,9989565,3193,2373,-141,-1336,944,132,192,3235,28,82,851
103977,9491864,9982144,9498242,9989762,2969,2420,-134,-1361,923,341,1070,2928,28,82,851
104977,9492080,9982588,9498439,9989959,2837,1889,-151,-1441,893,1542,-189,1993,54,68,855
105978,9492308,9983024,9498636,9990156,2749,1835,-45,-1270,853,1618,-832,4704,54,68,855
106979,9492516,9983400,9498833,9990353,2872,2132,154,-857,898,303,-1436,5045,56,76,858
107981,9492752,9983860,9499030,9990550,2680,1493,266,-682,966,761,-975,2506,56,76,858
108982,9492972,9984348,9499227,9990747,2771,1192,262,-743,861,3106,-877,1911,39,84,859
109983,9493208,9984740,9499424,9990944,2655,1707,245,-571,830,1101,-966,3707,39,84,859
110984,9493468,9985200,9499621,9991141,2478,1167,245,-447,956,-32,471,2159,62,77,864
111985,9493752,9985648,9499818,9991338,2291,1134,204,-486,1034,1203,-258,576,62,77,864
112986,9494028,9986036,9500015,9991535,2309,1426,221,-301,1111,219,-1198,3233,50,69,865
113987,9494284,9986408,9500212,9991732,2409,1450,369,314,1197,1877,-984,5250,50,69,865
114988,9494540,9986888,9500409,9991929,2384,652,365,803,1224,3505,-1108,2248,64,71,865
115989,9494844,9987292,9500606,9992126,2038,1037,183,1155,1230,1010,87,2038,64,71,865
116990,9495124,9987684,9500803,9992323,2152,1027,47,1567,1234,214,461,2545,50,80,867
117991,9495436,9988084,9501000,9992520,1903,888,65,1785,1261,-904,470,1239,50,80,867
118992,9495728,9988536,9501197,9992717,1987,452,189,2045,1199,-113,877,1910,64,72,869
119993,9495996,9988920,9501394,9992914,2107,796,248,2621,1023,1491,636,3371,64,72,869
120994,9496356,9989300,9501591,9993111,1461,741,156,3317,880,850,1222,2475,52,75,872
121995,9496648,9989740,9501788,9993308,1845,260,4,3701,772,555,2009,368,52,75,872
122996,9496916,9990120,9501985,9993505,1965,555,-69,3883,696,-361,1954,984,63,78,874
123997,9497232,9990456,9502182,9993702,1614,770,-18,4065,599,183,1333,1544,63,78,874
124998,9497516,9990812,9502379,9993899,1777,576,17,4247,444,1505,-15,728,51,72,871
125999,9497856,9991264,9502576,9994096,1365,-136,42,4396,437,895,-5850,530,51,72,871
127000,9498180,9991600,9502773,9994293,1410,529,178,4639,362,1599,-1303,2553,69,64,873
128001,9498496,9991856,9502970,9994490,1409,1003,228,4666,429,-775,17,-11,69,64,873
129002,9498784,9992176,9503167,9994687,1545,550,167,4491,613,-279,-1288,-110,63,53,875
130003,9499120,9992456,9503364,9994884,1185,763,241,4654,698,1185,-1063,3958,63,53,875
131004,9499448,9992716,9503561,9995081,1177,862,469,4886,737,95,-539,3854,74,40,874
132005,9499760,9992984,9503758,9995278,1227,781,673,4780,889,-1548,-81,2419,74,40,874
133006,9500052,9993156,9503955,9995475,1312,1392,804,4267,1010,-831,108,1628,57,52,875
134007,9500388,9993376,9504152,9995672,977,1082,909,3725,1048,-109,-854,2916,57,52,875
135008,9500688,9993604,9504349,9995869,1156,1019,1063,3295,1106,-699,-1607,3902,57,44,871
136009,9500968,9993836,9504546,9996066,1246,979,1110,2834,1223,-1296,-2691,2572,57,44,871
137010,9501284,9994072,9504743,9996263,970,937,965,2971,1286,-903,-677,4647,54,34,872
138010,9501560,9994248,9504940,9996460,1185,1323,630,3681,1315,-1168,1381,4681,54,34,872
139012,9501868,9994400,9505137,9996657,937,1492,295,4258,1370,-1456,-892,4496,62,29,875
140012,9502172,9994536,9505334,9996854,916,1619,159,4221,1338,-509,-2342,4480,62,29,875
141014,9502432,9994684,9505531,9997051,1163,1567,173,3709,1216,292,-1771,3529,58,38,872
142015,9502676,9994884,9505728,9997248,1244,1240,293,3143,1129,-32,-562,4949,58,38,872
143016,9502988,9995120,9505925,9997445,768,999,354,2593,1070,-722,-753,3878,46,27,872
144017,9503244,9995328,9506122,9997642,1093,1169,322,2047,942,-860,1458,3662,46,27,872
145018,9503488,9995512,9506319,9997839,1149,1326,409,998,781,-1170,-133,3107,40,38,875
146019,9503744,9995696,9506516,9998036,1048,1332,579,-155,597,-706,-1827,4270,40,38,875
147020,9503956,9995864,9506713,9998233,1317,1446,593,-904,316,-1071,1823,4949,51,35,872
148021,9504212,9996040,9506910,9998430,1016,1405,566,-1633,0,-2037,3040,4098,51,35,872
149022,9504456,9996224,9507107,9998627,1071,1361,601,-2856,-302,-1473,1185,4366,56,38,872
150023,9504684,9996448,9507304,9998824,1158,1100,712,-4140,-541,-442,-423,4830,56,38,872
151024,9504900,9996636,9507501,9999021,1226,1329,608,-5115,-751,-119,370,4333,40,32,873
152025,9505120,9996840,9507698,9999218,1190,1227,270,-5374,-913,-60,834,4601,40,32,873
153026,9505352,9997004,9507895,9999415,1101,1491,-199,-4977,-1024,-158,525,4693,52,27,872
154027,9505604,9997212,9508092,9999612,952,1212,-659,-4398,-1106,-9,303,4489,52,27,872
155028,9505816,9997356,9508289,9999809,1196,1635,-1003,-3989,-1208,716,507,4194,56,24,872
156029,9506048,9997488,9508486,10000006,1056,1740,-1200,-3933,-1224,168,-433,3834,56,24,872
157030,9506256,9997624,9508683,10000203,1202,1742,-1233,-4041,-1232,737,802,4054,44,34,870
158031,9506456,9997836,9508880,10000400,1251,1261,-1288,-4277,-1340,2233,2142,3143,44,34,870
159032,9506660,9998036,9509077,10000597,1223,1335,-1476,-4616,-1528,2487,1795,1170,28,41,869
160033,9506836,9998236,9509274,10000794,1408,1335,-1736,-4851,-1714,2667,1361,2008,28,41,869
161034,9507036,9998412,9509471,10000991,1257,1494,-1891,-4655,-1835,3120,1159,4113,38,25,872
162035,9507248,9998580,9509668,10001188,1176,1558,-1989,-4203,-1892,3470,1116,4502,38,25,872
163036,9507448,9998724,9509865,10001385,1250,1731,-2105,-3920,-1839,2805,602,3070,46,39,871
164037,9507628,9998856,9510062,10001582,1383,1835,-2198,-3924,-1785,3639,1574,2874,46,39,871
165038,9507820,9999100,9510259,10001779,1310,1115,-2177,-3962,-1714,3686,2969,4282,31,34,870
166039,9508016,9999288,9510456,10001976,1287,1470,-2275,-4052,-1543,2938,-375,2298,31,34,870
167040,9508200,9999480,9510653,10002173,1367,1447,-2480,-4178,-1411,3681,1217,2324,22,23,872
168041,9508376,9999636,9510850,10002370,1428,1691,-2616,-4203,-1359,4646,1099,3619,22,23,872
169042,9508564,9999796,9511047,10002567,1357,1682,-2661,-4146,-1321,4627,-3,3720,21,32,869
170043,9508728,9999940,9511244,10002764,1522,1807,-2698,-4179,-1188,3921,1633,3041,21,32,869
171044,9508872,10000112,9511441,10002961,1670,1643,-2762,-4481,-969,3391,1559,2122,34,39,869
172045,9509036,10000252,9511638,10003158,1561,1869,-2734,-4671,-679,3322,1435,4001,34,39,869
173046,9509192,10000396,9511835,10003355,1629,1867,-2601,-4482,-432,4445,-1938,5741,19,22,868
174047,9509316,10000556,9512032,10003552,1862,1784,-2325,-3929,-221,4500,-1466,7343,19,22,868
175048,9509456,10000700,9512229,10003749,1787,1907,-1955,-3135,-36,4918,96,8489,18,24,867
176049,9509620,10000848,9512426,10003946,1653,1905,-1807,-2470,-221,9412,-3940,4923,18,24,867
177057,9509744,10000972,9512656,10004176,1949,2103,-1653,-1754,-346,7178,1085,7811,38,22,865
178051,9509936,10001104,9512853,10004373,1527,2081,-1571,-1202,-11,3704,-2895,5088,38,22,865
179052,9510076,10001236,9513050,10004570,1877,2111,-1539,-607,546,2889,-4694,5509,28,15,863
180053,9510216,10001348,9513247,10004767,1903,2274,-1355,381,930,3853,-1809,8214,28,15,863
181054,9510384,10001480,9513444,10004964,1741,2178,-1143,1370,1090,4155,-3023,6843,37,21,863
182055,9510528,10001600,9513641,10005161,1916,2287,-918,2171,1212,4002,-2565,6862,37,21,863
183055,9510688,10001720,9513838,10005358,1833,2321,-677,2642,1383,3524,-2302,5788,38,32,864
184057,9510848,10001820,9514035,10005555,1849,2490,-378,2671,1584,2770,-2257,5129,38,32,864
185058,9510992,10001936,9514232,10005752,1973,2426,33,2372,1771,2334,-3118,5060,20,18,863
186059,9511144,10002048,9514429,10005949,1943,2490,559,2100,1848,2534,-2672,6611,20,18,863
187060,9511312,10002176,9514626,10006146,1857,2420,1100,2221,1853,1899,-1872,8424,28,17,861
188061,9511508,10002272,9514823,10006343,1683,2666,1442,2556,1839,1241,-1115,7265,28,17,861
189062,9511704,10002384,9515020,10006540,1684,2604,1498,2835,1772,894,-372,5527,25,29,862
190063,9511904,10002504,9515217,10006737,1658,2589,1515,3443,1728,110,-885,8288,25,29,862
191064,9512112,10002620,9515414,10006934,1605,2649,1473,4291,1675,-932,-523,7917,46,23,860
192065,9512284,10002756,9515611,10007131,1841,2552,802,3164,1465,-2632,-1075,-6469,46,23,860
193066,9512464,10002908,9515808,10007328,1799,2473,551,2201,1117,-1301,-1510,7724,30,30,861
194067,9512668,10003032,9516005,10007525,1646,2681,914,2011,740,-328,-978,10081,30,30,861
195068,9512884,10003212,9516202,10007722,1564,2339,1179,1034,376,-676,-536,-265,41,34,862
196069,9513056,10003432,9516399,10007919,1851,2080,1337,-69,41,400,-259,6690,41,34,862
197070,9513256,10003652,9516596,10008116,1674,2071,1329,-669,-332,1720,-65,4098,37,36,864
198071,9513420,10003912,9516793,10008313,1915,1794,894,-906,-661,1676,42,1841,37,36,864
199071,9513628,10004172,9516990,10008510,1636,1767,421,-291,-750,604,-1216,5778,33,43,866
200073,9513828,10004428,9517187,10008707,1685,1767,-21,591,-580,-494,-1512,3512,33,43,866
201074,9514052,10004688,9517384,10008904,1524,1715,-407,942,-302,388,-1622,2167,52,47,867
202075,9514284,10004940,9517581,10009101,1459,1742,-556,1228,-108,1955,-1860,4858,52,47,867
203076,9514548,10005208,9517778,10009298,1230,1611,-594,995,24,1749,-1332,2041,33,42,867
204077,9514768,10005476,9517975,10009495,1496,1581,-509,413,169,1519,-652,3125,33,42,867
205077,9514992,10005680,9518172,10009692,1459,1979,-415,-275,282,2002,-361,2860,48,55,871
206079,9515200,10005924,9518369,10009889,1555,1709,-374,-833,279,2872,464,3155,48,55,871
207080,9515432,10006180,9518566,10010086,1391,1609,-377,-1050,293,922,-585,4356,51,43,868
208081,9515644,10006408,9518763,10010283,1509,1770,-378,-1056,218,-17,8,4571,51,43,868
209082,9515876,10006692,9518960,10010480,1370,1383,-453,-940,18,-228,1438,4281,48,53,870
210083,9516124,10006908,9519157,10010677,1247,1801,-608,-691,-185,-148,1388,4243,48,53,870
211084,9516324,10007132,9519354,10010874,1547,1739,-792,-480,-248,-270,-13,4350,56,54,871
212085,9516540,10007368,9519551,10011071,1440,1648,-895,-422,-175,-292,63,3942,56,54,871
213086,9516764,10007608,9519748,10011268,1378,1605,-891,-601,-69,-389,457,3684,53,49,868
214087,9516948,10007836,9519945,10011465,1635,1667,-785,-782,49,-61,-320,4538,53,49,868
215088,9517140,10008056,9520142,10011662,1587,1707,-592,-864,187,517,-364,4355,42,29,870
216089,9517336,10008244,9520339,10011859,1563,1912,-425,-948,323,614,0,3309,42,29,870
217090,9517552,10008412,9520536,10012056,1430,2051,-270,-1005,429,426,106,3626,39,28,869
218091,9517732,10008600,9520733,10012253,1663,1930,-66,-1002,556,120,-437,3637,39,28,869
219092,9517916,10008776,9520930,10012450,1644,2015,131,-996,698,310,-1228,3062,25,37,867
220093,9518060,10008944,9521127,10012647,1918,2079,237,-1030,823,787,-617,2564,25,37,867
221094,9518216,10009132,9521324,10012844,1862,1958,247,-937,978,803,-172,3269,40,39,866
222095,9518368,10009308,9521521,10013041,1907,2043,183,-781,1120,997,-1319,3108,40,39,866
223096,9518520,10009452,9521718,10013238,1928,2267,96,-568,1185,1189,-907,3666,22,21,864
224097,9518632,10009600,9521915,10013435,2215,2265,16,-326,1255,-134,-2136,4077,22,21,864
225098,9518752,10009728,9522112,10013632,2200,2420,-53,32,1321,-20,-800,4961,26,24,863
226099,9518924,10009916,9522309,10013829,1887,2050,-215,512,1359,769,-1005,4211,26,24,863
227099,9519112,10010100,9522506,10014026,1791,2082,-417,930,1366,709,-988,3469,35,28,860
228101,9519292,10010308,9522703,10014223,1849,1928,-526,1188,1396,286,-1617,3546,35,28,860
229101,9519456,10010492,9522900,10014420,1965,2084,-523,1412,1351,1148,-1048,3579,40,38,865
230102,9519620,10010696,9523097,10014617,1979,1957,-447,1677,1393,498,-1158,4191,40,38,865
231103,9519784,10010884,9523294,10014814,1995,2062,-400,1878,1477,1035,-1037,3637,45,32,864
232105,9519964,10011112,9523491,10015011,1903,1799,-449,2001,1549,1237,-658,3217,45,32,864
233106,9520124,10011312,9523688,10015208,2045,1973,-485,2139,1671,460,-648,3817,34,46,864
234106,9520280,10011544,9523885,10015405,2089,1758,-415,2239,1810,47,-854,3797,34,46,864
235108,9520436,10011784,9524082,10015602,2108,1690,-291,2290,1955,-236,-2129,3585,27,39,864
236109,9520612,10012040,9524279,10015799,1992,1564,-153,2359,2048,-91,-356,3962,27,39,864
237110,9520760,10012404,9524476,10015996,2190,817,-159,2235,2114,-877,-423,2487,40,60,865
238110,9520928,10012616,9524673,10016193,2078,1761,-237,1823,2102,-538,-428,1530,40,60,865
239112,9521052,10012796,9524870,10016390,2385,1970,-144,1618,1979,290,-1007,5092,23,43,868
240113,9521212,10012988,9525067,10016587,2178,1897,-8,1527,1821,-265,-959,3955,23,43,868
241114,9521368,10013188,9525264,10016784,2222,1847,25,1280,1664,-179,462,2822,38,34,863
242115,9521548,10013432,9525461,10016981,2080,1552,55,1312,1518,299,1844,4889,38,34,863
243116,9521712,10013748,9525658,10017178,2195,1050,11,1337,1449,-794,131,3302,49,53,864
244117,9521880,10014088,9525855,10017375,2183,838,55,1513,1435,-585,169,5075,49,53,864
245118,9522052,10014460,9526052,10017572,2170,562,168,1667,1471,-660,-628,4702,27,63,866
246119,9522216,10014720,9526249,10017769,2236,1234,229,1576,1549,-966,-1700,2632,27,63,866
247120,9522392,10014908,9526446,10017966,2170,1689,282,1372,1558,439,-1178,3477,29,74,868
248121,9522584,10015224,9526643,10018163,2073,837,384,1294,1532,330,-218,4088,29,74,868
249122,9522748,10015560,9526840,10018360,2264,652,390,1111,1593,-487,-21,2062,37,75,866
250123,9522944,10015888,9527037,10018557,2065,644,251,951,1679,-319,-2062,2173,37,75,866
251124,9523140,10016188,9527234,10018754,2067,775,214,1222,1626,553,-3304,5498,45,64,869
252125,9523312,10016448,9527431,10018951,2228,997,241,1460,1532,-189,-2387,4714,45,64,869
253126,9523492,10016704,9527628,10019148,2186,998,298,1293,1495,-1066,-2190,3648,46,56,870
254127,9523692,10017000,9527825,10019345,2061,704,448,1098,1428,-673,-1772,6450,46,56,870
255128,9523868,10017276,9528022,10019542,2221,795,581,665,1250,-693,-827,4209,28,51,868
256129,9524028,10017512,9528219,10019739,2338,1028,625,8,922,-549,-226,4496,28,51,868
257130,9524200,10017752,9528416,10019936,2274,985,652,-463,566,-1099,-592,5944,30,52,867
258131,9524396,10017964,9528613,10020133,2126,1154,591,-789,263,-1309,-69,4599,30,52,867
259132,9524552,10018200,9528810,10020330,2395,987,440,-787,-74,-176,850,5710,47,50,867
260142,9524708,10018468,9529040,10020560,2428,771,250,-601,-351,-190,407,5524,47,50,867
261134,9524864,10018716,9529237,10020757,2447,873,89,-273,-473,-231,-884,5782,45,51,867
262135,9525032,10018920,9529434,10020954,2385,1146,71,-45,-425,-337,-1092,5789,45,51,867
263136,9525184,10019100,9529631,10021151,2506,1304,125,-149,-381,802,-960,4228,49,32,867
264137,9525384,10019256,9529828,10021348,2205,1472,274,-429,-401,1637,-1509,4774,49,32,867
265138,9525560,10019432,9530025,10021545,2366,1357,484,-692,-460,1028,-1514,5110,29,37,865
266139,9525744,10019632,9530222,10021742,2322,1206,602,-997,-517,-378,-721,3885,29,37,865
267140,9525912,10019812,9530419,10021939,2436,1339,589,-1185,-678,123,-68,4291,45,26,864
268141,9526080,10020000,9530616,10022136,2449,1293,498,-1183,-932,-300,64,4772,45,26,864
269142,9526248,10020160,9530813,10022333,2463,1484,359,-1093,-1168,-531,420,4784,40,31,864
270143,9526408,10020308,9531010,10022530,2530,1582,177,-902,-1388,814,276,5003,40,31,864
271144,9526556,10020480,9531207,10022727,2627,1443,-37,-709,-1477,-92,-606,4831,33,22,864
272145,9526724,10020620,9531404,10022924,2516,1669,-172,-651,-1530,209,-266,5262,33,22,864
273146,9526864,10020752,9531601,10023121,2717,1748,-203,-709,-1628,1133,-489,5457,23,34,863
274147,9527028,10020872,9531798,10023318,2583,1857,-162,-795,-1697,993,-453,5519,23,34,863
275148,9527200,10021040,9531995,10023515,2545,1570,-138,-976,-1732,615,427,4121,32,30,861
276149,9527356,10021216,9532192,10023712,2664,1530,-97,-1242,-1701,-76,833,3990,32,30,861
277149,9527560,10021380,9532389,10023909,2361,1620,-44,-1414,-1622,-275,534,4200,33,38,862
278151,9527740,10021512,9532586,10024106,2519,1848,-55,-1360,-1596,775,-185,4161,33,38,862
279151,9527904,10021660,9532783,10024303,2635,1771,-77,-964,-1684,1937,-662,5265,25,36,861
280153,9528108,10021788,9532980,10024500,2383,1926,-89,-574,-1872,2480,-644,4584,25,36,861
281154,9528280,10021928,9533177,10024697,2595,1877,-99,-335,-1943,1108,-473,4770,31,19,860
282155,9528464,10022088,9533374,10024894,2526,1770,-116,-247,-1939,1043,-774,3805,31,19,860
283155,9528648,10022200,9533571,10025091,2533,2107,-129,-219,-1861,770,-342,3884,35,28,860
284157,9528836,10022320,9533768,10025288,2513,2092,-129,-323,-1751,67,-217,3134,35,28,860
285158,9529024,10022452,9533965,10025485,2518,2045,-100,-318,-1719,474,227,4323,47,34,860
286159,9529240,10022576,9534162,10025682,2335,2128,-119,-194,-1709,262,-959,3693,47,34,860
287159,9529444,10022716,9534359,10025879,2408,2053,-117,-176,-1751,957,-1166,3778,29,19,858
288161,9529636,10022880,9534556,10026076,2487,1919,-37,-148,-1765,222,-1642,4684,29,19,858
289162,9529868,10022992,9534753,10026273,2222,2282,35,-272,-1804,673,-1339,3458,43,19,860
290163,9530100,10023140,9534950,10026470,2208,2079,99,-318,-1822,831,-1088,4570,43,19,860
291164,9530336,10023228,9535147,10026667,2167,2503,144,-404,-1789,-39,-572,3521,39,17,860
292165,9530564,10023352,9535344,10026864,2203,2310,112,-509,-1769,447,-272,3426,39,17,860
293166,9530832,10023464,9535541,10027061,1923,2423,45,-470,-1694,250,-981,4176,42,27,860
294166,9531068,10023576,9535738,10027258,2107,2462,-19,-416,-1606,-14,-687,3967,42,27,860
295167,9531320,10023704,9535935,10027455,1984,2393,-35,-412,-1622,730,-1109,3942,47,31,862
296169,9531600,10023832,9536132,10027652,1773,2423,66,-443,-1699,974,-1388,4848,47,31,862
297170,9531864,10023980,9536329,10027849,1845,2321,183,-625,-1683,-272,-539,3718,64,20,861
298171,9532136,10024124,9536526,10028046,1763,2370,241,-1046,-1612,-662,-254,2240,64,20,861
299172,9532424,10024244,9536723,10028243,1624,2554,250,-1310,-1520,-646,-736,3803,51,21,862
300173,9532700,10024364,9536920,10028440,1664,2589,215,-1398,-1499,92,-1095,2918,51,21,862
301174,9532968,10024500,9537117,10028637,1684,2517,153,-1331,-1527,532,-927,3893,51,24,861
302174,9533288,10024612,9537314,10028834,1306,2705,159,-1179,-1570,316,-1071,4004,51,24,861
303175,9533564,10024740,9537511,10029031,1547,2636,164,-1174,-1580,-125,-737,3477,66,22,862
304177,9533820,10024892,9537708,10029228,1647,2506,164,-1326,-1524,-564,-384,3063,66,22,862
305178,9534136,10025012,9537905,10029425,1220,2741,156,-1564,-1478,-184,-375,2813,63,35,862
306179,9534424,10025156,9538102,10029622,1356,2615,131,-1793,-1480,-15,-222,3172,63,35,862
307180,9534700,10025296,9538299,10029819,1397,2666,142,-1945,-1523,-128,-253,3260,55,38,862
308181,9534992,10025464,9538496,10030016,1255,2505,123,-2156,-1571,-194,-18,2917,55,38,862
309182,9535292,10025604,9538693,10030213,1161,2706,112,-2319,-1649,39,-119,3091,66,25,862
310183,9535572,10025748,9538890,10030410,1251,2705,100,-2414,-1682,-223,-162,3287,66,25,862
311184,9535828,10025888,9539087,10030607,1375,2755,81,-2527,-1697,385,-321,2564,52,37,862
312185,9536148,10026012,9539284,10030804,922,2888,77,-2658,-1687,249,361,2814,52,37,862
313186,9536416,10026152,9539481,10031001,1216,2814,46,-2833,-1597,-269,291,2082,43,22,861
314187,9536696,10026308,9539678,10031198,1105,2733,57,-2894,-1527,267,178,2678,43,22,861
315188,9536944,10026484,9539875,10031395,1284,2619,38,-2931,-1476,253,-8,2515,39,44,862
316188,9537192,10026660,9540072,10031592,1261,2629,67,-2948,-1441,436,266,2103,39,44,862
317190,9537432,10026840,9540269,10031789,1293,2612,90,-2971,-1406,453,424,3058,53,37,863
318190,9537712,10027008,9540466,10031986,1007,2701,140,-2980,-1354,467,-19,2263,53,37,863
319191,9537960,10027196,9540663,10032183,1185,2581,179,-3076,-1300,392,434,2778,48,31,864
320193,9538212,10027388,9540860,10032380,1136,2559,198,-3181,-1208,171,802,2377,48,31,864
321194,9538480,10027580,9541057,10032577,1006,2562,169,-3372,-1129,594,1415,2269,40,32,864
322195,9538720,10027784,9541254,10032774,1162,2485,125,-3475,-1045,208,534,2836,40,32,864
323196,9538972,10027972,9541451,10032971,1064,2590,92,-3495,-996,490,722,3341,56,49,862
324197,9539248,10028168,9541648,10033168,879,2542,46,-3534,-978,905,744,2878,56,49,862
325198,9539492,10028400,9541845,10033365,1060,2302,-37,-3654,-958,880,752,2772,43,40,864
326199,9539708,10028616,9542042,10033562,1226,2394,-54,-3742,-885,403,676,3919,43,40,864
327199,9539960,10028824,9542239,10033759,978,2440,-30,-3873,-748,-129,642,3365,41,43,866
328201,9540220,10029036,9542436,10033956,900,2410,-37,-3863,-670,1041,1227,4168,41,43,866
329202,9540472,10029276,9542633,10034153,927,2217,-145,-3800,-674,1696,541,3185,43,53,865
330203,9540700,10029472,9542830,10034350,1064,2493,-297,-3599,-562,212,1207,3999,43,53,865
331204,9540928,10029664,9543027,10034547,1050,2521,-409,-3340,-363,339,1464,3950,38,34,866
332205,9541160,10029880,9543224,10034744,1011,2364,-465,-3158,-252,1545,848,3670,38,34,866
333206,9541380,10030076,9543421,10034941,1075,2490,-492,-3127,-169,1509,1072,3500,40,34,865
334206,9541640,10030296,9543618,10035138,799,2331,-483,-3194,-59,1488,735,3482,40,34,865
335207,9541812,10030496,9543815,10035335,1360,2456,-430,-3292,-11,2170,463,4059,31,38,865
336209,9542012,10030712,9544012,10035532,1183,2349,-338,-3362,47,1687,549,4132,31,38,865
337210,9542192,10030944,9544209,10035729,1317,2234,-314,-3440,154,1483,449,3546,49,40,867
338211,9542384,10031120,9544406,10035926,1244,2595,-284,-3289,243,1949,155,5423,49,40,867
339212,9542560,10031320,9544603,10036123,1353,2444,-278,-3015,276,2218,-483,4741,46,32,865
340213,9542756,10031516,9544800,10036320,1230,2470,-324,-2772,297,2339,-252,4789,46,32,865
341214,9542944,10031708,9544997,10036517,1284,2498,-422,-2510,396,1867,-811,4999,44,48,864
342215,9543120,10031920,9545194,10036714,1369,2367,-523,-2272,530,1623,-761,4668,44,48,864
343222,9543292,10032136,9545424,10036944,1419,2349,-583,-2175,734,866,-1149,4949,46,49,865
344217,9543472,10032340,9545621,10037141,1377,2422,-577,-2223,894,1485,-1124,4988,46,49,865
345218,9543644,10032540,9545818,10037338,1439,2447,-529,-2344,974,1513,-1132,5072,31,50,864
346219,9543820,10032748,9546015,10037535,1423,2393,-497,-2557,1027,1006,-1385,4806,31,50,864
347220,9543972,10032924,9546212,10037732,1594,2603,-494,-2749,1053,1405,-1663,4877,44,29,864
348221,9544144,10033128,9546409,10037929,1480,2426,-540,-2750,1083,1225,-1224,5509,44,29,864
349222,9544300,10033324,9546606,10038126,1598,2478,-622,-2575,1099,804,-1434,5175,28,29,864
350222,9544464,10033484,9546803,10038323,1563,2720,-703,-2449,1132,443,-1429,5252,28,29,864
351223,9544596,10033652,9547000,10038520,1792,2684,-712,-2239,1208,434,-2084,6099,21,32,864
352225,9544744,10033804,9547197,10038717,1714,2804,-718,-2233,1208,1348,-2220,4621,21,32,864
353226,9544924,10033948,9547394,10038914,1522,2878,-669,-2320,1166,1360,-2137,5245,41,35,861
354227,9545088,10034116,9547591,10039111,1637,2742,-546,-2423,1128,1228,-2213,5262,41,35,861
355228,9545228,10034284,9547788,10039308,1813,2755,-404,-2531,1131,958,-2016,4994,33,28,860
356229,9545396,10034428,9547985,10039505,1651,2930,-286,-2533,1138,1093,-1558,5057,33,28,860
357230,9545524,10034576,9548182,10039702,1932,2927,-189,-2564,1193,471,-1540,4712,19,22,860
358231,9545672,10034744,9548379,10039899,1829,2816,-109,-2488,1185,1236,-1649,4770,19,22,860
359232,9545864,10034908,9548576,10040096,1556,2856,-63,-2387,1139,1224,-908,4422,25,35,859
360233,9546028,10035032,9548773,10040293,1747,3139,-70,-2225,1119,1007,-1640,4232,25,35,859
361233,9546196,10035212,9548970,10040490,1735,2798,-41,-2003,1079,1489,-1689,4668,26,30,859
362234,9546356,10035356,9549167,10040687,1802,3047,30,-1785,998,1776,-1593,4936,26,30,859
363235,9546536,10035528,9549364,10040884,1684,2884,97,-1630,1001,656,-1444,4231,26,37,857
364236,9546672,10035680,9549561,10041081,1987,3030,174,-1553,1020,984,-1381,4354,26,37,857
365237,9546848,10035840,9549758,10041278,1746,2997,278,-1564,1033,661,-885,4156,24,24,857
366238,9547012,10035980,9549955,10041475,1837,3148,385,-1713,1062,529,-1375,3902,24,24,857
367239,9547216,10036144,9550152,10041672,1585,3014,475,-1720,1004,1379,-1165,4445,33,35,856
368241,9547384,10036292,9550349,10041869,1822,3136,507,-1579,910,1150,-1459,4408,33,35,856
369241,9547584,10036416,9550546,10042066,1622,3319,460,-1316,849,764,-1668,4347,43,21,856
370243,9547764,10036564,9550743,10042263,1755,3192,431,-1014,856,486,-1113,4997,43,21,856
371244,9547936,10036724,9550940,10042460,1817,3135,441,-830,850,865,-1579,4018,28,26,857
372245,9548128,10036868,9551137,10042657,1694,3259,450,-938,825,769,-1085,3563,28,26,857
373246,9548324,10037016,9551334,10042854,1670,3257,504,-1209,875,-74,-509,3351,29,34,857
374247,9548520,10037160,9551531,10043051,1672,3306,568,-1431,930,260,-115,4120,29,34,857
375248,9548716,10037308,9551728,10043248,1672,3304,579,-1479,962,402,-474,3651,48,17,856
376249,9548896,10037460,9551925,10043445,1781,3300,527,-1305,1002,-7,-536,4236,48,17,856
377250,9549068,10037600,9552122,10043642,1842,3401,527,-889,1064,-457,-106,5776,46,29,856
378251,9549244,10037720,9552319,10043839,1827,3561,521,-608,1165,-579,-700,4172,46,29,856
379252,9549408,10037880,9552516,10044036,1916,3329,500,-580,1254,-450,-887,3896,39,23,853
380253,9549596,10038032,9552713,10044233,1771,3400,504,-690,1282,41,-604,4010,39,23,853
381254,9549764,10038196,9552910,10044430,1910,3340,515,-903,1120,1740,753,3168,45,38,853
382255,9549936,10038384,9553107,10044627,1896,3195,538,-905,799,2686,1172,4841,45,38,853
383256,9550092,10038556,9553304,10044824,2015,3307,537,-748,764,-986,-549,4400,46,42,856
384257,9550260,10038732,9553501,10045021,1953,3293,494,-729,863,-1091,428,4143,46,42,856
385258,9550428,10038876,9553698,10045218,1967,3518,444,-744,799,671,450,4308,43,23,856
386259,9550580,10039040,9553895,10045415,2087,3408,353,-721,647,764,-127,4279,43,23,856
387260,9550716,10039208,9554092,10045612,2214,3397,218,-663,611,-262,-114,4165,38,29,855
388261,9550872,10039352,9554289,10045809,2108,3571,74,-669,640,-829,6,3505,38,29,855
389262,9551000,10039492,9554486,10046006,2314,3623,24,-643,703,-1175,-225,4607,29,25,850
390263,9551148,10039680,9554683,10046203,2211,3328,-8,-668,671,-6,68,3933,29,25,850
391264,9551348,10039844,9554880,10046400,1886,3494,-106,-660,594,769,49,4220,35,23,850
392265,9551516,10040024,9555077,10046597,2099,3402,-274,-569,593,-2,463,3700,35,23,850
393266,9551656,10040176,9555274,10046794,2299,3599,-460,-561,673,-393,417,2967,42,33,853
394267,9551824,10040336,9555471,10046991,2138,3566,-488,-644,743,102,-323,3822,42,33,853
395268,9551980,10040480,9555668,10047188,2232,3690,-368,-726,806,-147,-549,4635,46,23,853
396269,9552140,10040628,9555865,10047385,2223,3688,-262,-1030,810,547,-266,2673,46,23,853
397270,9552324,10040808,9556062,10047582,2080,3497,-215,-1360,779,582,178,3723,47,42,851
398271,9552472,10040988,9556259,10047779,2328,3506,-190,-1537,769,460,-389,4037,47,42,851
399272,9552620,10041152,9556456,10047976,2349,3621,-216,-1535,809,159,-355,4069,45,29,849
400273,9552756,10041308,9556653,10048173,2452,3691,-294,-1352,902,-162,109,4313,45,29,849
401274,9552912,10041496,9556850,10048370,2346,3496,-426,-1218,922,784,131,3593,44,32,849
402275,9553044,10041640,9557047,10048567,2526,3796,-495,-1092,920,380,85,4516,44,32,849
403276,9553180,10041820,9557244,10048764,2527,3579,-515,-1119,951,76,-628,3937,42,28,848
404277,9553312,10042012,9557441,10048961,2582,3508,-502,-1355,934,1082,-736,3248,42,28,848
405278,9553432,10042188,9557638,10049158,2692,3618,-469,-1569,953,592,-1066,3879,20,32,847
406279,9553576,10042368,9557835,10049355,2566,3602,-407,-1586,1009,605,-592,4593,20,32,847
407280,9553724,10042608,9558032,10049552,2564,3210,-396,-1564,997,1482,-499,3644,20,44,850
408281,9553872,10042880,9558229,10049749,2585,2978,-415,-1587,963,1027,-588,3105,20,44,850
409282,9553992,10043104,9558426,10049946,2795,3267,-359,-1514,1020,-118,41,4882,31,48,850
410283,9554148,10043360,9558623,10050143,2589,3043,-312,-1493,1081,688,46,3456,31,48,850
411284,9554272,10043620,9558820,10050340,2822,2992,-360,-1616,944,2854,-163,2387,26,59,853
412285,9554392,10043908,9559017,10050537,2882,2778,-404,-1651,867,1235,-1316,3953,26,59,853
413286,9554528,10044212,9559214,10050734,2810,2633,-369,-1502,975,146,-2023,4407,22,66,851
414287,9554652,10044504,9559411,10050931,2918,2667,-283,-1317,1026,1293,-1114,4186,22,66,851
415288,9554788,10044796,9559608,10051128,2871,2626,-216,-1266,971,1623,-469,3477,20,57,853
416289,9554960,10045136,9559805,10051325,2657,2264,-161,-1182,884,2073,125,4357,20,57,853
417290,9555128,10045456,9560002,10051522,2695,2336,-115,-1189,815,2275,-262,3316,36,65,855
418291,9555272,10045768,9560199,10051719,2870,2338,-101,-1258,875,552,-474,3631,36,65,855
419292,9555452,10046052,9560396,10051916,2653,2475,-98,-1322,1023,-138,-463,3174,44,64,858
420293,9555592,10046304,9560593,10052113,2929,2652,-119,-1470,1069,1118,-214,2909,44,64,858
421294,9555728,10046688,9560790,10052310,2982,1746,-109,-1500,998,1838,-418,3614,42,74,856
422295,9555876,10047048,9560987,10052507,2930,1825,-101,-1470,947,1297,-655,3178,42,74,856
423296,9556048,10047356,9561184,10052704,2792,2103,-62,-1442,1006,357,-467,3324,23,55,853
424297,9556220,10047636,9561381,10052901,2804,2242,-30,-1398,1122,-63,56,3378,23,55,853
425298,9556436,10048008,9561578,10053098,2521,1591,-77,-1481,1169,488,-56,1951,34,64,859
426306,9556640,10048400,9561808,10053328,2609,1396,-143,-1475,1129,944,-413,2934,34,64,859
427300,9556824,10048716,9562005,10053525,2740,1820,-142,-1215,1145,-434,-747,4185,44,59,858
428301,9556992,10049024,9562202,10053722,2854,1822,-90,-1030,1169,-191,-372,3152,44,59,858
429302,9557192,10049372,9562399,10053919,2654,1507,-64,-968,1034,1886,18,2625,31,73,863
430302,9557364,10049740,9562596,10054116,2841,1308,-4,-729,870,1836,-344,3990,31,73,863
431304,9557580,10050044,9562793,10054313,2558,1661,79,-496,773,1641,-551,3116,46,55,859
432305,9557828,10050344,9562990,10054510,2337,1641,164,-429,787,656,-495,2225,46,55,859
433306,9558020,10050704,9563187,10054707,2690,1196,220,-416,855,617,-517,2620,43,67,861
434307,9558216,10051016,9563384,10054904,2667,1446,251,-151,919,690,-881,3246,43,67,861
435308,9558432,10051344,9563581,10055101,2534,1290,322,157,860,1756,-747,3213,40,69,864
436309,9558664,10051624,9563778,10055298,2420,1553,397,414,775,1195,-1158,2838,40,69,864
437310,9558916,10051928,9563975,10055495,2272,1357,411,490,798,749,-2072,1184,57,58,863
438311,9559160,10052268,9564172,10055692,2302,1070,456,606,849,1698,-2077,2420,57,58,863
439312,9559400,10052612,9564369,10055889,2309,981,540,975,877,1658,-1957,3291,44,70,864
440313,9559628,10052916,9564566,10056086,2372,1185,551,1336,920,-616,-460,2327,44,70,864
441314,9559880,10053196,9564763,10056283,2198,1299,495,1819,1009,807,-621,3008,48,49,867
442315,9560132,10053496,9564960,10056480,2175,1129,376,2234,969,2959,-595,2351,48,49,867
443316,9560396,10053896,9565157,10056677,2071,416,251,2452,907,1305,-93,1129,57,52,866
444317,9560672,10054244,9565354,10056874,1962,674,278,2532,913,-7,214,1559,57,52,866
445318,9560964,10054540,9565551,10057071,1821,957,481,2725,901,-336,535,2435,60,53,866
446319,9561228,10054844,9565748,10057268,1968,860,619,2860,814,215,-56,1157,60,53,866
447320,9561460,10055168,9565945,10057465,2153,680,691,3101,626,1598,168,2757,40,70,871
448321,9561752,10055540,9566142,10057662,1738,303,776,3615,475,1632,89,3891,40,70,871
449322,9562008,10055860,9566339,10057859,1938,575,764,3762,412,703,284,1145,63,58,869
450323,9562268,10056096,9566536,10058056,1886,1083,789,3656,427,-342,768,1720,63,58,869
451323,9562540,10056440,9566733,10058253,1778,343,946,3600,341,1063,-142,3033,42,69,873
452325,9562760,10056772,9566930,10058450,2094,360,1179,3752,168,1706,-48,4146,42,69,873
453326,9562984,10057032,9567127,10058647,2058,782,1268,3830,131,1034,509,2061,40,46,869
454327,9563280,10057300,9567324,10058844,1566,701,1131,3658,206,1424,111,1035,40,46,869
455327,9563572,10057540,9567521,10059041,1550,858,1070,3616,278,1121,-1090,3482,42,55,869
456329,9563836,10057764,9567718,10059238,1695,946,1029,3630,303,706,-1310,3288,42,55,869
457330,9564076,10057968,9567915,10059435,1828,1068,1068,3460,385,-959,-559,3470,54,35,871
458331,9564340,10058204,9568112,10059632,1649,851,1141,3111,469,-442,-239,4237,54,35,871
459332,9564620,10058380,9568309,10059829,1513,1236,1117,2626,383,1109,-339,3824,49,30,871
460333,9564920,10058572,9568506,10060026,1343,1138,1016,2334,380,-507,-2874,5489,49,30,871
461334,9565212,10058712,9568703,10060223,1353,1489,873,2351,348,-85,-1479,5596,57,33,871
462335,9565468,10058908,9568900,10060420,1552,1140,562,2503,312,-774,524,4720,57,33,871
463335,9565732,10059084,9569097,10060617,1473,1274,243,2781,308,-788,529,5487,43,36,872
464337,9566040,10059284,9569294,10060814,1150,1123,-14,2811,200,534,545,5639,43,36,872
465338,9566300,10059468,9569491,10061011,1423,1229,-26,2124,103,-249,-1275,4610,46,27,871
466339,9566548,10059640,9569688,10061208,1476,1316,162,869,65,-38,-3225,4831,46,27,871
467339,9566824,10059792,9569885,10061405,1268,1460,190,52,38,664,-1500,5610,41,33,872
468341,9567060,10059944,9570082,10061602,1501,1480,7,-136,-61,699,3799,4323,41,33,872
469342,9567328,10060068,9570279,10061799,1270,1688,-172,-458,-183,-147,2440,4236,60,32,870
470343,9567556,10060204,9570476,10061996,1507,1640,-16,-1269,-265,-107,-323,4952,60,32,870
471344,9567800,10060376,9570673,10062193,1387,1426,362,-2566,-337,644,-855,4469,46,30,870
472345,9568036,10060608,9570870,10062390,1420,1037,575,-3864,-436,1185,-139,4196,46,30,870
473346,9568208,10060800,9571067,10062587,1832,1289,561,-4626,-549,1006,182,4137,43,32,869
474347,9568420,10060996,9571264,10062784,1576,1264,236,-4705,-654,160,812,4654,43,32,869
475348,9568600,10061180,9571461,10062981,1784,1346,-147,-4043,-760,250,1006,5692,42,40,872
476349,9568744,10061348,9571658,10063178,2033,1459,-651,-3420,-915,1426,928,4171,42,40,872
477350,9568884,10061540,9571855,10063375,2083,1311,-1082,-2879,-1133,2746,496,4561,40,28,868
478351,9569044,10061720,9572052,10063572,1975,1394,-1309,-2332,-1326,3400,1070,6757,40,28,868
479352,9569196,10061940,9572249,10063769,2045,1134,-1410,-2088,-1397,2789,1052,4515,42,33,865
480353,9569392,10062124,9572446,10063966,1772,1365,-1414,-2337,-1274,1292,589,4115,42,33,865
481354,9569548,10062332,9572643,10064163,2040,1211,-1313,-2782,-1156,1833,1046,4064,38,32,867
482355,9569688,10062536,9572840,10064360,2166,1233,-1200,-3155,-1112,2475,1585,3903,38,32,867
483355,9569868,10062712,9573037,10064557,1924,1417,-1164,-3321,-1025,2226,1761,4052,34,35,868
484357,9570024,10062860,9573234,10064754,2092,1615,-1228,-3230,-923,3097,1889,4054,34,35,868
485358,9570160,10063000,9573431,10064951,2245,1690,-1326,-3059,-871,3658,1771,4249,21,38,866
486359,9570304,10063144,9573628,10065148,2218,1688,-1453,-2901,-872,3586,1861,4036,21,38,866
487360,9570472,10063304,9573825,10065345,2082,1605,-1660,-2802,-833,2782,85,3612,32,31,865
488361,9570628,10063528,9574022,10065542,2176,1194,-1835,-2645,-738,2450,1054,4159,32,31,865
489362,9570808,10063688,9574219,10065739,2033,1611,-1933,-2497,-614,2884,373,3867,44,37,863
490363,9570980,10063836,9574416,10065936,2095,1707,-1959,-2473,-465,2960,547,3589,44,37,863
491364,9571172,10063996,9574613,10066133,1974,1649,-1712,-2527,-118,2579,404,4198,27,21,867
492365,9571328,10064136,9574810,10066330,2217,1800,-1505,-2621,-1,2619,-138,4055,27,21,867
493366,9571524,10064252,9575007,10066527,1968,1985,-1340,-2692,84,2888,-340,3525,29,17,865
494366,9571696,10064372,9575204,10066724,2130,1995,-1264,-2687,161,3148,-336,3284,29,17,865
495367,9571896,10064508,9575401,10066921,1954,1922,-1217,-2494,209,3346,-798,3838,27,23,864
496369,9572112,10064652,9575598,10067118,1846,1896,-1140,-2108,224,3156,-1634,4941,27,23,864
497369,9572296,10064780,9575795,10067315,2053,2027,-1034,-1442,225,2735,-794,5969,32,15,862
498371,9572504,10064892,9575992,10067512,1898,2165,-980,-607,286,2007,-2097,5712,32,15,862
499371,9572728,10064984,9576189,10067709,1787,2336,-953,221,290,2491,-1791,5931,33,28,863
500372,9572964,10065092,9576386,10067906,1696,2276,-926,988,301,1819,-2182,5528,33,28,863
501374,9573156,10065208,9576583,10068103,1974,2262,-893,1682,349,1723,-2192,5265,29,22,862
502375,9573388,10065328,9576780,10068300,1709,2272,-873,2233,333,2850,-2732,4580,29,22,862
503376,9573632,10065412,9576977,10068497,1614,2546,-830,2649,272,2770,-2513,4425,52,20,863
504377,9573840,10065520,9577174,10068694,1835,2436,-758,2865,342,1257,-2125,3846,52,20,863
505378,9574108,10065620,9577371,10068891,1429,2529,-791,2582,415,1806,-2150,782,33,21,864
506379,9574324,10065732,9577568,10069088,1747,2492,-779,1846,446,1482,-1831,806,33,21,864
507380,9574564,10065848,9577765,10069285,1578,2504,-392,1476,529,926,-1649,6699,42,20,862
508381,9574804,10065984,9577962,10069482,1560,2406,93,1108,590,991,-1532,4660,42,20,862
509389,9575092,10066128,9578192,10069712,1235,2395,303,306,606,454,-1062,1986,53,35,862
510383,9575336,10066280,9578389,10069909,1490,2365,368,-293,657,-433,-919,5096,53,35,862
511384,9575564,10066396,9578586,10070106,1578,2626,367,-542,733,-737,-951,5551,57,17,862
512385,9575864,10066536,9578783,10070303,1082,2502,275,-593,774,-217,-468,4691,57,17,862
513386,9576076,10066672,9578980,10070500,1627,2555,126,-555,807,-534,-517,5716,38,15,864
514387,9576328,10066800,9579177,10070697,1353,2635,0,-361,793,239,-1085,6307,38,15,864
515388,9576580,10066932,9579374,10070894,1329,2640,-44,-159,742,760,-1914,6447,53,34,864
516389,9576792,10067064,9579571,10071091,1573,2669,-5,-40,658,421,-1858,6578,53,34,864
517390,9577020,10067176,9579768,10071288,1460,2833,86,-221,595,-146,-1175,5767,56,27,861
518391,9577284,10067316,9579965,10071485,1206,2684,246,-457,611,-123,-1347,6249,56,27,861
519392,9577540,10067440,9580162,10071682,1231,2816,316,-757,707,-47,-1508,4295,35,29,861
520393,9577768,10067588,9580359,10071879,1392,2688,306,-949,850,-205,-997,4576,35,29,861
521394,9578004,10067732,9580556,10072076,1326,2737,313,-768,995,-104,-1542,5813,53,21,862
522395,9578220,10067868,9580753,10072273,1443,2815,310,-583,1106,-210,-1143,4248,53,21,862
523396,9578452,10068012,9580950,10072470,1328,2790,307,-380,1147,167,-1163,4793,31,31,861
524397,9578644,10068152,9581147,10072667,1580,2840,376,-221,1154,380,-1257,4913,31,31,861
525398,9578884,10068304,9581344,10072864,1263,2785,460,-366,1140,535,-640,3567,53,36,861
526399,9579092,10068472,9581541,10073061,1458,2699,501,-793,1244,-971,-1164,2746,53,36,861
527400,9579284,10068624,9581738,10073258,1561,2820,552,-1189,1314,-296,-672,3446,34,28,860
528401,9579504,10068804,9581935,10073455,1376,2653,507,-1533,1261,365,694,1819,34,28,860
529402,9579700,10069028,9582132,10073652,1527,2368,264,-1785,1070,990,1287,982,31,37,862
530403,9579928,10069284,9582329,10073849,1314,2143,-72,-1489,741,2527,2090,3376,31,37,862
531404,9580168,10069568,9582526,10074046,1221,1930,-510,-928,347,3152,3167,2185,45,57,863
532405,9580360,10069884,9582723,10074243,1523,1678,-972,-417,69,2445,813,2104,45,57,863
533406,9580564,10070196,9582920,10074440,1445,1654,-1169,344,132,419,-2831,4831,47,53,865
534407,9580756,10070500,9583117,10074637,1523,1658,-1084,806,403,-24,-1107,3534,47,53,865
535408,9580956,10070808,9583314,10074834,1472,1585,-896,567,653,3,-616,1582,33,66,868
536409,9581136,10071104,9583511,10075031,1605,1617,-602,185,805,362,-74,3877,33,66,868
537410,9581348,10071376,9583708,10075228,1399,1734,-328,-260,869,1197,69,2439,32,57,868
538411,9581548,10071720,9583905,10075425,1473,1221,-117,-787,726,2549,456,2808,32,57,868
539411,9581744,10072008,9584102,10075622,1499,1532,64,-1167,433,2004,-136,4635,50,67,868
540413,9581928,10072296,9584299,10075819,1580,1493,184,-1412,211,287,65,3992,50,67,868
541413,9582076,10072564,9584496,10076016,1827,1586,365,-1468,93,-224,156,5462,46,65,870
542415,9582256,10072864,9584693,10076213,1634,1342,568,-1391,-54,-20,419,5228,46,65,870
543416,9582396,10073172,9584890,10076410,1910,1243,561,-1439,-309,295,1202,2870,30,58,867
544417,9582556,10073456,9585087,10076607,1802,1356,411,-1363,-609,432,1703,4080,30,58,867
545418,9582724,10073668,9585284,10076804,1766,1801,218,-1019,-827,356,1604,5339,33,52,868
546419,9582872,10073892,9585481,10077001,1912,1714,68,-632,-974,997,2281,4761,33,52,868
547419,9583052,10074136,9585678,10077198,1721,1569,-34,-388,-995,1140,1524,4163,23,38,868
548421,9583212,10074340,9585875,10077395,1862,1816,-73,-382,-863,1822,365,2880,23,38,868
549421,9583364,10074556,9586072,10077592,1933,1734,-103,-588,-715,2260,909,1991,36,46,866
550423,9583512,10074740,9586269,10077789,1979,1940,-99,-641,-484,2160,996,3262,36,46,866
551423,9583644,10074928,9586466,10077986,2109,1919,-84,-430,-53,1910,-542,3857,26,36,865
552425,9583772,10075092,9586663,10078183,2164,2085,-105,-5,418,2675,-62,3742,26,36,865
553426,9583916,10075252,9586860,10078380,2088,2126,-206,372,799,3348,-419,3278,18,31,864
554427,9584052,10075436,9587057,10078577,2166,1983,-323,627,1120,3133,-821,3415,18,31,864
555428,9584160,10075624,9587254,10078774,2380,1963,-389,920,1426,2570,-1365,4188,41,35,861
556429,9584272,10075808,9587451,10078971,2394,1993,-386,1302,1714,2211,-3021,4974,41,35,861
557430,9584444,10075996,9587648,10079168,2030,1973,-367,1962,1900,2196,-1640,6236,26,32,863
558431,9584628,10076204,9587845,10079365,1961,1844,-456,2733,2036,1435,-1683,5793,26,32,863
559432,9584808,10076396,9588042,10079562,1995,1947,-687,3466,2080,1616,-1222,4755,36,45,861
560433,9584980,10076604,9588239,10079759,2056,1843,-992,4042,1940,967,-548,4325,36,45,861
561433,9585144,10076808,9588436,10079956,2121,1865,-1225,4299,1681,-301,-684,3883,31,40,865
562435,9585296,10077024,9588633,10080153,2216,1783,-1425,3789,1419,-953,-806,29,31,40,865
563435,9585464,10077276,9588830,10080350,2130,1533,-1486,2818,1209,-524,-759,401,38,51,864
564437,9585624,10077532,9589027,10080547,2197,1483,-1195,2360,1042,-110,-82,5350,38,51,864
565437,9585764,10077892,9589224,10080744,2347,763,-998,1771,939,-948,-80,861,43,56,862
566439,9585952,10078120,9589421,10080941,2052,1574,-961,1183,850,-908,-227,2344,43,56,862
567440,9586104,10078292,9589618,10081138,2298,1936,-943,1092,763,-703,-558,5382,25,51,864
568441,9586256,10078452,9589815,10081335,2318,2027,-970,1291,684,-524,-622,4187,25,51,864
569442,9586412,10078640,9590012,10081532,2312,1857,-999,1594,624,320,1043,5213,41,28,866
570443,9586548,10078844,9590209,10081729,2464,1754,-987,1956,670,512,726,4830,41,28,866
571444,9586684,10079096,9590406,10081926,2491,1431,-1018,2079,774,142,381,3212,40,37,861
572445,9586848,10079384,9590603,10082123,2332,1166,-937,2225,879,118,-113,5144,40,37,861
573446,9587008,10079692,9590800,10082320,2374,993,-739,2320,958,243,-444,4769,46,45,862
574447,9587180,10079948,9590997,10082517,2311,1292,-562,2102,1059,-75,-361,2868,46,45,862
575448,9587336,10080192,9591194,10082714,2429,1348,-427,1715,1134,267,-588,2844,33,52,866
576449,9587512,10080492,9591391,10082911,2314,953,-285,1486,1118,312,-680,4171,33,52,866
577450,9587660,10080808,9591588,10083108,2512,801,-290,1185,1108,-510,-2734,2428,34,69,864
578451,9587820,10081104,9591785,10083305,2453,883,-294,1070,1057,-165,-2894,4451,34,69,864
579452,9587988,10081396,9591982,10083502,2417,867,-213,1130,1062,-1487,-2945,5570,47,60,867
580453,9588152,10081676,9592179,10083699,2457,906,-98,1074,1090,-2019,-2919,5190,47,60,867
581454,9588344,10081912,9592376,10083896,2285,1163,54,865,1057,-1666,-2732,5883,32,54,866
582455,9588524,10082128,9592573,10084093,2369,1281,156,305,858,-1570,-2196,4329,32,54,866
583455,9588704,10082348,9592770,10084290,2376,1246,285,-211,529,-1499,-1738,6942,36,46,865
584457,9588848,10082572,9592967,10084487,2626,1210,370,-670,132,-1216,-1253,5998,36,46,865
585458,9589040,10082800,9593164,10084684,2329,1171,314,-956,-389,-472,-165,6348,27,51,864
586458,9589212,10083016,9593361,10084881,2466,1238,133,-823,-803,-715,-514,7059,27,51,864
587460,9589376,10083240,9593558,10085078,2530,1177,-143,-440,-1042,-59,-168,6033,29,43,863
588461,9589532,10083448,9593755,10085275,2599,1272,-343,11,-1169,-69,-130,6890,29,43,863
589461,9589704,10083660,9593952,10085472,2511,1241,-327,250,-1120,-645,-2335,6206,40,33,864
590462,9589856,10083888,9594149,10085669,2657,1128,-137,102,-1067,804,-2225,5029,40,33,864
591464,9590032,10084096,9594346,10085866,2517,1248,116,-377,-1067,1633,-2838,4209,38,47,864
592474,9590192,10084324,9594576,10086096,2648,1124,395,-799,-1071,1409,-1953,5006,38,47,864
593466,9590340,10084512,9594773,10086293,2746,1379,549,-1098,-1077,863,-975,3855,30,49,864
594467,9590476,10084692,9594970,10086490,2848,1437,540,-1160,-1103,983,-1020,3808,30,49,864
595467,9590672,10084848,9595167,10086687,2475,1605,491,-817,-1169,1312,-900,5363,46,44,864
596469,9590848,10085016,9595364,10086884,2610,1543,391,-390,-1319,1380,-208,4510,46,44,864
597469,9591036,10085240,9595561,10087081,2540,1182,247,-19,-1488,1039,-68,4413,50,43,861
598470,9591228,10085428,9595758,10087278,2518,1410,161,288,-1607,493,-683,5420,50,43,861
599472,9591424,10085636,9595955,10087475,2494,1282,154,341,-1679,164,-386,5006,48,32,861
600473,9591600,10085828,9596152,10087672,2629,1384,183,32,-1722,325,-545,3979,48,32,861
601474,9591776,10086024,9596349,10087869,2639,1359,250,-292,-1758,730,-559,5317,46,48,864
602475,9591960,10086208,9596546,10088066,2596,1441,285,-526,-1801,810,-58,4918,46,48,864
603476,9592120,10086372,9596743,10088263,2763,1581,265,-673,-1823,599,-159,4630,40,36,863
604477,9592308,10086592,9596940,10088460,2593,1221,268,-661,-1879,1545,-211,5626,40,36,863
605478,9592488,10086776,9597137,10088657,2652,1452,223,-598,-1931,1367,338,4599,46,44,863
606478,9592684,10086952,9597334,10088854,2553,1511,112,-541,-1980,1242,521,4015,46,44,863
607480,9592880,10087088,9597531,10089051,2553,1789,19,-383,-2025,1354,-68,4578,48,39,864
608481,9593072,10087252,9597728,10089248,2582,1629,-11,-243,-2009,570,-154,4107,48,39,864
609482,9593264,10087372,9597925,10089445,2585,1937,3,-143,-1996,710,310,4023,52,27,862
610483,9593468,10087516,9598122,10089642,2508,1812,9,-74,-1998,826,-190,3841,52,27,862
611483,9593680,10087652,9598319,10089839,2452,1889,35,-103,-2008,764,-172,3735,36,29,860
612485,9593872,10087772,9598516,10090036,2580,2023,74,-171,-1967,172,-779,3844,36,29,860
613485,9594080,10087896,9598713,10090233,2476,2031,100,-220,-1971,657,160,3940,49,17,861
614486,9594304,10088040,9598910,10090430,2366,1929,47,-206,-2017,683,698,3726,49,17,861
615488,9594508,10088192,9599107,10090627,2489,1900,-32,-137,-2070,433,-20,3907,36,24,860
616489,9594728,10088316,9599304,10090824,2378,2107,-99,-18,-2110,244,162,4516,36,24,860
617490,9594976,10088464,9599501,10091021,2182,1979,-184,-41,-2125,524,-534,3142,52,21,862
618491,9595176,10088592,9599698,10091218,2482,2135,-184,-43,-2154,1084,-1260,5016,52,21,862
619492,9595404,10088724,9599895,10091415,2294,2139,-112,-101,-2154,483,-707,4477,46,20,861
620493,9595672,10088832,9600092,10091612,2014,2328,-106,-399,-2090,-172,-386,2687,46,20,861
621494,9595932,10088952,9600289,10091809,2037,2288,-110,-542,-2044,231,-725,4399,39,25,858
622494,9596180,10089076,9600486,10092006,2091,2295,-114,-512,-2036,311,-1034,3946,39,25,858
623496,9596456,10089220,9600683,10092203,1881,2194,-135,-553,-2075,791,-846,3423,46,34,861
624497,9596732,10089372,9600880,10092400,1847,2165,-126,-625,-2128,848,-709,3642,46,34,861
625498,9597012,10089480,9601077,10092597,1787,2479,-81,-739,-2133,149,-710,3431,46,19,861
626499,9597316,10089632,9601274,10092794,1591,2225,-26,-897,-2070,-247,-440,3140,46,19,861
627499,9597592,10089764,9601471,10092991,1731,2379,-8,-1093,-1971,-313,-745,2263,66,36,864
628500,9597896,10089904,9601668,10093188,1510,2355,-58,-1213,-1848,-344,-861,2882,66,36,864
629501,9598168,10090024,9601865,10093385,1678,2515,-83,-1196,-1793,153,-1096,3091,66,36,862
630502,9598500,10090132,9602062,10093582,1245,2629,-115,-1187,-1814,133,-720,3079,66,36,862
631503,9598804,10090276,9602259,10093779,1373,2428,-101,-1211,-1884,269,-443,3191,66,20,861
632505,9599080,10090412,9602456,10093976,1514,2505,-64,-1313,-1915,-179,-624,3144,66,20,861
633506,9599392,10090564,9602653,10094173,1240,2425,-64,-1446,-1892,-377,-738,2955,68,30,862
634507,9599696,10090716,9602850,10094370,1243,2446,-35,-1608,-1892,-88,-419,2909,68,30,862
635508,9599988,10090836,9603047,10094567,1277,2681,-20,-1796,-1901,-202,-282,2714,70,33,862
636509,9600300,10090996,9603244,10094764,1101,2447,7,-2020,-1898,-281,-382,2522,70,33,862
637510,9600588,10091136,9603441,10094961,1212,2598,82,-2104,-1867,-523,-480,3308,70,30,864
638511,9600880,10091300,9603638,10095158,1147,2464,154,-2269,-1852,-178,-316,2093,70,30,864
639511,9601196,10091420,9603835,10095355,944,2773,220,-2478,-1856,-17,101,2433,49,37,865
640513,9601460,10091568,9604032,10095552,1241,2620,286,-2616,-1782,-623,-138,2480,49,37,865
641514,9601708,10091696,9604229,10095749,1318,2777,341,-2704,-1714,31,-256,2354,64,25,865
642515,9602008,10091848,9604426,10095946,949,2647,378,-2760,-1658,-82,304,2541,64,25,865
643516,9602288,10092020,9604623,10096143,1038,2533,406,-2893,-1620,27,361,1682,44,26,860
644517,9602524,10092196,9604820,10096340,1295,2519,418,-2968,-1567,140,552,2892,44,26,860
645518,9602760,10092368,9605017,10096537,1279,2556,458,-2986,-1471,150,289,2523,40,45,863
646519,9603024,10092532,9605214,10096734,1075,2621,427,-3136,-1403,671,361,2012,40,45,863
647519,9603264,10092712,9605411,10096931,1207,2530,406,-3162,-1342,594,719,2925,59,43,864
648521,9603500,10092872,9605608,10097128,1215,2671,397,-3232,-1280,617,308,2618,59,43,864
649522,9603784,10093084,9605805,10097325,878,2340,387,-3319,-1221,834,842,3115,43,30,864
650523,9604004,10093276,9606002,10097522,1268,2468,350,-3489,-1135,454,1028,2326,43,30,864
651524,9604264,10093460,9606199,10097719,990,2525,259,-3673,-1002,120,1209,2577,59,30,863
652525,9604512,10093648,9606396,10097916,1043,2505,197,-3715,-900,771,1061,3548,59,30,863
653526,9604760,10093828,9606593,10098113,1021,2564,105,-3798,-858,1053,1136,2721,43,29,864
654527,9605024,10094044,9606790,10098310,892,2330,16,-3840,-811,770,1322,3060,43,29,864
655528,9605284,10094216,9606987,10098507,890,2617,-62,-3918,-752,812,1301,3326,52,48,864
656529,9605488,10094400,9607184,10098704,1237,2549,-128,-3998,-665,655,1103,2917,52,48,864
657530,9605728,10094620,9607381,10098901,993,2315,-163,-4005,-505,318,744,3968,52,38,867
658531,9605988,10094828,9607578,10099098,841,2386,-183,-3773,-437,1625,1277,4444,52,38,867
659532,9606200,10095020,9607775,10099295,1135,2488,-329,-3641,-401,1258,1149,2823,57,42,864
660533,9606420,10095220,9607972,10099492,1075,2438,-461,-3406,-236,411,1190,4249,57,42,864
661533,9606672,10095400,9608169,10099689,851,2571,-546,-3119,-89,1483,878,4535,48,32,867
662535,9606896,10095588,9608366,10099886,1014,2526,-610,-2935,-1,1663,918,3728,48,32,867
663535,9607112,10095804,9608563,10100083,1056,2344,-688,-2953,113,1362,985,3429,41,29,865
664537,9607308,10096004,9608760,10100280,1182,2443,-681,-2998,208,1725,925,4541,41,29,865
665538,9607508,10096220,9608957,10100477,1156,2335,-617,-3087,264,1768,550,4344,28,39,863
666539,9607692,10096436,9609154,10100674,1262,2328,-562,-3201,322,1408,580,4127,28,39,863
667540,9607856,10096632,9609351,10100871,1401,2454,-530,-3276,427,951,125,4527,27,34,865
668541,9608056,10096820,9609548,10101068,1175,2509,-474,-3112,478,1963,207,6096,27,34,865
669542,9608236,10097020,9609745,10101265,1309,2434,-477,-2899,428,2698,-662,4748,47,34,865
670543,9608416,10097240,9609942,10101462,1316,2299,-555,-2736,449,1884,-70,4772,47,34,865
671544,9608604,10097484,9610139,10101659,1270,2129,-608,-2465,561,1608,-455,5672,33,43,864
672545,9608776,10097696,9610336,10101856,1382,2324,-624,-2259,702,1422,-1130,5098,33,43,864
673546,9608948,10097896,9610533,10102053,1393,2398,-627,-2111,846,1423,-882,5308,48,41,865
674547,9609136,10098100,9610730,10102250,1297,2371,-572,-2104,932,1684,-1161,5339,48,41,865
675554,9609324,10098312,9610960,10102480,1316,2329,-516,-2231,970,1300,-1699,4859,47,37,864
676549,9609480,10098532,9611157,10102677,1534,2270,-429,-2411,1012,668,-1066,5206,47,37,864
677550,9609680,10098732,9611354,10102874,1258,2395,-396,-2542,1048,1105,-1666,5002,34,30,862
678550,9609844,10098912,9611551,10103071,1498,2528,-453,-2627,1057,1391,-1838,4648,34,30,862
679551,9609980,10099092,9611748,10103268,1700,2536,-523,-2515,1069,402,-1613,5901,36,45,864
680553,9610128,10099272,9611945,10103465,1647,2544,-584,-2396,1074,386,-2376,5051,36,45,864
681554,9610276,10099460,9612142,10103662,1669,2499,-617,-2257,1073,623,-2378,6150,23,37,862
682555,9610432,10099652,9612339,10103859,1638,2477,-651,-2208,1038,1197,-2717,4965,23,37,862
683556,9610568,10099844,9612536,10104056,1789,2480,-645,-2284,1026,585,-2172,5127,38,46,862
684557,9610744,10100020,9612733,10104253,1550,2590,-560,-2396,1035,601,-2133,5772,38,46,862
685558,9610884,10100184,9612930,10104450,1800,2680,-452,-2628,1057,630,-2461,4421,36,30,862
686558,9611040,10100344,9613127,10104647,1718,2722,-363,-2734,1020,1438,-2114,5417,36,30,862
687560,9611200,10100512,9613324,10104844,1710,2686,-297,-2790,1013,737,-2135,4730,39,40,861
688561,9611372,10100684,9613521,10105041,1646,2673,-266,-2711,979,1324,-2236,5065,39,40,861
689562,9611540,10100828,9613718,10105238,1685,2872,-257,-2604,966,1066,-2000,4446,32,38,860
690563,9611720,10100972,9613915,10105435,1617,2896,-229,-2407,981,1063,-1902,4909,32,38,860
691564,9611872,10101132,9614112,10105632,1812,2813,-174,-2182,960,1556,-1819,4517,24,37,861
692565,9612048,10101300,9614309,10105829,1672,2777,-60,-1944,937,1324,-800,4988,24,37,861
693566,9612204,10101480,9614506,10106026,1815,2710,15,-1889,955,1107,-1415,3439,33,34,859
694567,9612364,10101616,9614703,10106223,1807,3013,119,-1917,931,1651,-908,4021,33,34,859
695567,9612544,10101768,9614900,10106420,1690,2934,247,-1862,912,1195,-1583,3915,33,35,859
696568,9612732,10101912,9615097,10106617,1645,3008,348,-1828,924,758,-1797,3375,33,35,859
697570,9612892,10102052,9615294,10106814,1836,3058,456,-1703,949,717,-1549,4164,26,24,856
698571,9613092,10102204,9615491,10107011,1585,3004,534,-1592,954,767,-1531,3149,26,24,856
699572,9613280,10102344,9615688,10107208,1665,3105,623,-1472,933,839,-976,3771,26,18,857
700573,9613448,10102476,9615885,10107405,1802,3185,687,-1320,918,812,-1321,3921,26,18,857
701574,9613620,10102608,9616082,10107602,1789,3214,706,-1212,885,830,-595,2988,29,30,858
702575,9613820,10102740,9616279,10107799,1613,3244,700,-1156,869,592,-795,3424,29,30,858
703576,9614016,10102888,9616476,10107996,1640,3166,706,-1021,832,719,-878,3785,49,32,856
704577,9614208,10103056,9616673,10108193,1667,3055,729,-843,822,394,-966,3978,49,32,856
705578,9614392,10103212,9616870,10108390,1723,3149,708,-705,851,283,-827,3725,45,37,856
706579,9614564,10103344,9617067,10108587,1809,3329,693,-660,949,-347,-502,3622,45,37,856
707580,9614736,10103496,9617264,10108784,1821,3224,666,-598,1103,-647,-383,4018,41,22,857
708581,9614896,10103628,9617461,10108981,1913,3379,642,-619,1242,-423,-198,3609,41,22,857
709582,9615092,10103852,9617658,10109178,1689,2793,604,-647,1346,-206,-26,3864,24,30,853
710583,9615256,10104060,9617855,10109375,1904,2889,578,-569,1384,212,277,4659,24,30,853
711583,9615432,10104236,9618052,10109572,1839,3099,540,-510,1105,2776,1434,3763,31,41,854
712585,9615600,10104392,9618249,10109769,1902,3243,502,-414,773,1957,689,5107,31,41,854
713586,9615780,10104524,9618446,10109966,1835,3423,501,-430,685,-183,103,4207,38,37,858
714587,9615936,10104692,9618643,10110163,2003,3212,456,-599,683,524,406,3644,38,37,858
715588,9616112,10104868,9618840,10110360,1888,3172,400,-706,642,767,454,4160,35,34,855
716589,9616264,10105016,9619037,10110557,2058,3370,249,-731,643,214,331,3640,35,34,855
717589,9616380,10105192,9619234,10110754,2320,3205,66,-631,706,-402,453,3627,42,25,855
718590,9616512,10105368,9619431,10110951,2248,3215,-56,-441,787,-527,-59,4765,42,25,855
719591,9616704,10105532,9619628,10111148,1876,3305,-97,-347,827,-849,-134,4297,33,40,852
720593,9616868,10105672,9619825,10111345,2066,3483,-132,-475,822,-484,-269,3739,33,40,852
721593,9617044,10105852,9620022,10111542,2001,3241,-173,-665,723,517,53,4058,45,32,852
722595,9617200,10106000,9620219,10111739,2144,3464,-193,-844,598,651,-545,3751,45,32,852
723595,9617364,10106136,9620416,10111936,2110,3566,-251,-1010,528,203,-306,3367,42,37,852
724597,9617512,10106288,9620613,10112133,2232,3487,-324,-1007,566,-421,458,3762,42,37,852
725597,9617692,10106424,9620810,10112330,2040,3615,-419,-1030,609,11,328,3048,29,24,852
726599,9617844,10106584,9621007,10112527,2235,3482,-439,-935,641,-199,319,4461,29,24,852
727599,9617996,10106736,9621204,10112724,2255,3553,-430,-876,716,-434,-565,3857,45,24,851
728600,9618156,10106872,9621401,10112921,2223,3681,-441,-964,760,185,-694,3155,45,24,851
729601,9618288,10107028,9621598,10113118,2427,3576,-386,-1072,768,515,-321,4116,43,20,850
730603,9618424,10107160,9621795,10113315,2429,3755,-309,-1211,711,1006,152,3593,43,20,850
731604,9618564,10107312,9621992,10113512,2430,3651,-304,-1365,670,783,351,3139,41,23,847
732605,9618700,10107496,9622189,10113709,2483,3458,-342,-1451,722,229,-93,3533,41,23,847
733606,9618828,10107644,9622386,10113906,2563,3705,-367,-1353,729,906,-529,4328,19,28,847
734607,9618952,10107800,9622583,10114103,2621,3674,-389,-1204,691,689,-695,4081,19,28,847
735608,9619104,10108008,9622780,10114300,2467,3347,-469,-1078,652,699,-313,3885,23,42,850
736609,9619224,10108232,9622977,10114497,2701,3236,-583,-976,678,212,-450,3602,23,42,850
737610,9619360,10108472,9623174,10114694,2629,3118,-625,-886,773,-227,-566,4374,42,51,846
738611,9619520,10108680,9623371,10114891,2496,3314,-575,-842,811,477,-935,4437,42,51,846
739611,9619660,10108876,9623568,10115088,2646,3390,-547,-952,688,2006,-724,3560,40,37,851
740613,9619784,10109116,9623765,10115285,2779,3098,-564,-1038,589,1378,-806,4122,40,37,851
741613,9619920,10109384,9623962,10115482,2732,2893,-563,-1061,675,381,-1325,4050,39,46,850
742615,9620052,10109632,9624159,10115679,2786,2997,-471,-1135,738,1476,-264,4158,39,46,850
743615,9620176,10109908,9624356,10115876,2869,2788,-359,-1304,717,1954,-132,3340,19,41,849
744617,9620320,10110148,9624553,10116073,2768,2995,-290,-1460,658,2344,-144,3602,19,41,849
745617,9620484,10110412,9624750,10116270,2658,2817,-238,-1423,654,2109,-576,4203,21,59,852
746619,9620648,10110712,9624947,10116467,2674,2548,-235,-1316,748,1517,-2226,3576,21,59,852
747620,9620808,10111020,9625144,10116664,2716,2451,-227,-1148,875,1100,-2092,4170,49,61,852
748621,9620964,10111304,9625341,10116861,2760,2564,-133,-958,1043,102,-371,4774,49,61,852
749622,9621100,10111572,9625538,10117058,2912,2633,-94,-1074,1066,1704,-609,2488,43,52,855
750622,9621236,10111820,9625735,10117255,2940,2737,-147,-1281,1003,1946,-1157,2658,43,52,855
751623,9621384,10112140,9625932,10117452,2887,2234,-177,-1236,1015,1061,-299,4042,28,59,855
752625,9621504,10112484,9626129,10117649,3097,2020,-185,-1232,1046,1019,57,2780,28,59,855
753625,9621708,10112796,9626326,10117846,2570,2171,-194,-1320,1110,126,257,2638,44,58,851
754627,9621920,10113104,9626523,10118043,2514,2148,-181,-1242,1181,65,518,3757,44,58,851
755628,9622092,10113464,9626720,10118240,2776,1752,-240,-1203,1206,732,-88,2468,50,65,856
756629,9622288,10113796,9626917,10118437,2627,1869,-335,-1109,1196,852,-383,3060,50,65,856
757629,9622464,10114136,9627114,10118634,2762,1756,-291,-835,1184,430,-281,5012,43,55,859
758638,9622632,10114440,9627344,10118864,2840,1950,-204,-594,1126,1133,141,3703,43,55,859
759631,9622784,10114816,9627541,10119061,2961,1422,-155,-545,1015,1986,486,2629,39,59,860
760633,9623012,10115184,9627738,10119258,2473,1398,-115,-489,899,2318,176,3687,39,59,860
761633,9623208,10115508,9627935,10119455,2675,1618,-10,-298,924,720,-248,3854,41,56,858
762634,9623416,10115808,9628132,10119652,2596,1723,139,-199,1094,-184,-376,3150,41,56,858
763636,9623632,10116140,9628329,10119849,2539,1464,204,-196,1195,552,-755,2247,44,55,862
764637,9623828,10116504,9628526,10120046,2665,1192,181,-201,1125,2136,-3531,2257,44,55,862
765638,9624032,10116860,9628723,10120243,2613,1173,261,181,940,2056,-3482,4589,34,58,860
766639,9624284,10117172,9628920,10120440,2289,1398,395,501,842,116,510,2848,34,58,860
767640,9624524,10117452,9629117,10120637,2346,1562,398,199,850,890,267,-763,51,55,863
768641,9624768,10117804,9629314,10120834,2301,1044,458,145,811,2180,-140,3423,51,55,863
769642,9625028,10118148,9629511,10121031,2175,1030,607,455,891,-411,-2207,3648,57,51,865
770643,9625256,10118464,9629708,10121228,2362,1154,709,647,945,686,-3053,1569,57,51,865
771644,9625480,10118764,9629905,10121425,2376,1209,742,908,866,2928,-1775,2946,53,70,866
772645,9625708,10119092,9630102,10121622,2338,977,556,1319,766,1081,67,2539,53,70,866
773646,9626004,10119456,9630299,10121819,1870,679,332,1690,759,358,-4,1502,63,57,866
774647,9626244,10119780,9630496,10122016,2202,874,358,2023,698,357,7,3078,63,57,866
775647,9626520,10120080,9630693,10122213,1943,979,598,2185,524,-216,-89,1990,49,58,865
776649,9626776,10120408,9630890,10122410,2043,746,808,2248,280,1085,-54,1927,49,58,865
777650,9627000,10120772,9631087,10122607,2233,449,837,2512,51,2090,517,2848,55,57,867
778650,9627248,10121120,9631284,10122804,2060,483,745,2744,-16,727,511,1261,55,57,867
779652,9627544,10121396,9631481,10123001,1718,898,667,2833,44,81,668,1599,52,72,869
780653,9627796,10121656,9631678,10123198,1969,971,758,2919,44,1092,-683,2229,52,72,869
781654,9628032,10121992,9631875,10123395,2053,435,990,3171,-109,2030,-805,4037,52,60,870
782655,9628284,10122372,9632072,10123592,1929,80,1213,3518,-175,1019,-49,3507,52,60,870
783656,9628516,10122644,9632269,10123789,2040,723,1172,3435,-130,1260,479,431,62,59,869
784657,9628796,10122868,9632466,10123986,1704,1011,1039,3279,-40,1552,-669,1834,62,59,869
785658,9629096,10123120,9632663,10124183,1535,812,1032,3457,50,933,-1619,4814,64,46,871
786659,9629376,10123364,9632860,10124380,1624,841,1131,3583,77,341,-511,3338,64,46,871
787660,9629612,10123616,9633057,10124577,1882,767,1153,3222,133,-785,373,2228,53,52,869
788661,9629892,10123816,9633254,10124774,1572,1091,1190,2840,140,419,100,4449,53,52,869
789661,9630196,10124000,9633451,10124971,1375,1197,1167,2425,81,1204,-746,4389,67,31,871
790663,9630476,10124160,9633648,10125168,1489,1363,1215,1935,117,-922,-1833,4026,67,31,871
791663,9630748,10124328,9633845,10125365,1506,1326,1231,1718,138,-523,-1016,5685,54,26,870
792665,9631020,10124512,9634042,10125562,1475,1232,1050,1965,154,-823,1018,5305,54,26,870
793666,9631316,10124708,9634239,10125759,1282,1157,728,2225,156,-686,898,4375,62,38,869
794666,9631584,10124908,9634436,10125956,1426,1132,452,2374,125,-186,-990,6029,62,38,869
795668,9631876,10125104,9634633,10126153,1235,1157,326,2193,94,-440,-1065,5216,45,26,871
796669,9632112,10125244,9634830,10126350,1568,1533,290,1475,34,45,-187,3775,45,26,871
797670,9632348,10125396,9635027,10126547,1552,1477,304,751,-35,313,-879,5624,60,32,870
798671,9632604,10125564,9635224,10126744,1401,1391,331,355,-194,1076,2424,4764,60,32,870
799672,9632840,10125692,9635421,10126941,1510,1671,324,-289,-323,-302,2941,3370,53,30,868
800673,9633032,10125856,9635618,10127138,1787,1461,563,-1286,-344,-611,380,4506,53,30,868
801674,9633232,10126048,9635815,10127335,1737,1288,824,-2678,-382,1177,-63,3414,50,28,869
802675,9633384,10126272,9636012,10127532,2056,1076,855,-3679,-525,2315,599,3817,50,28,869
803676,9633564,10126436,9636209,10127729,1890,1467,654,-3854,-709,2362,626,5396,46,29,867
804677,9633728,10126660,9636406,10127926,2004,1080,195,-3345,-861,1639,1483,5559,46,29,867
805678,9633912,10126836,9636603,10128123,1886,1389,-297,-2501,-897,630,1274,5822,25,41,868
806678,9634092,10127028,9636800,10128320,1919,1291,-680,-1785,-845,950,525,6298,25,41,868
807679,9634236,10127204,9636997,10128517,2168,1402,-897,-1480,-767,1801,-306,5031,39,46,867
808681,9634404,10127432,9637194,10128714,2031,1063,-946,-1631,-702,2513,524,5433,39,46,867
809681,9634564,10127684,9637391,10128911,2098,889,-945,-2040,-608,2251,1050,4537,31,29,866
810682,9634692,10127888,9637588,10129108,2328,1186,-977,-2539,-497,2123,1415,3815,31,29,866
811683,9634860,10128072,9637785,10129305,2092,1317,-1081,-2789,-434,2742,1762,4474,22,26,868
812685,9635020,10128248,9637982,10129502,2158,1377,-1237,-2793,-447,3079,1908,4422,22,26,868
813686,9635160,10128412,9638179,10129699,2309,1466,-1456,-2692,-423,2354,1904,4345,21,35,865
814686,9635348,10128552,9638376,10129896,2014,1641,-1640,-2458,-319,2180,784,5185,21,35,865
815687,9635524,10128712,9638573,10130093,2098,1533,-1757,-2163,-187,2555,-482,5331,24,30,865
816689,9635700,10128920,9638770,10130290,2109,1229,-1837,-1954,-55,2448,902,5033,24,30,865
817689,9635868,10129112,9638967,10130487,2171,1331,-1920,-1934,108,1710,1106,3889,28,28,865
818691,9636060,10129292,9639164,10130684,2025,1413,-2003,-2080,185,2284,709,3209,28,28,865
819691,9636268,10129460,9639361,10130881,1921,1502,-2009,-2126,223,2358,454,4209,41,24,865
820693,9636464,10129592,9639558,10131078,1996,1756,-1937,-2017,251,2706,1025,4795,41,24,865
821693,9636664,10129744,9639755,10131275,1971,1650,-1842,-1973,293,2880,905,4066,38,23,866
822695,9636856,10129876,9639952,10131472,2023,1804,-1709,-2011,372,2119,-246,3848,38,23,866
823695,9637056,10130024,9640149,10131669,1973,1726,-1560,-2078,446,1748,-128,3993,30,30,865
824697,9637272,10130156,9640346,10131866,1864,1855,-1420,-2008,536,1353,275,3635,30,30,865
825698,9637500,10130308,9640543,10132063,1777,1750,-1398,-1809,547,2543,126,3494,50,29,864
826699,9637716,10130460,9640740,10132260,1844,1771,-1434,-1454,434,3253,67,3702,50,29,864
827699,9637928,10130592,9640937,10132457,1863,1924,-1449,-1079,345,2121,-204,4092,33,33,865
828701,9638188,10130728,9641134,10132654,1536,1926,-1390,-751,303,1518,-100,4115,33,33,865
829702,9638428,10130860,9641331,10132851,1642,1980,-1273,-402,291,1124,-513,4559,54,18,865
830703,9638656,10130968,9641528,10133048,1705,2170,-1115,-14,295,1243,-1077,4897,54,18,865
831703,9638888,10131080,9641725,10133245,1664,2183,-945,370,281,1729,-639,5000,36,32,864
832705,9639128,10131192,9641922,10133442,1596,2220,-864,582,266,1649,-929,3483,36,32,864
833706,9639368,10131296,9642119,10133639,1577,2311,-917,316,263,1206,-1444,919,52,17,864
834707,9639616,10131416,9642316,10133836,1506,2246,-857,42,287,918,-1074,3928,52,17,864
835707,9639844,10131556,9642513,10134033,1618,2146,-632,-66,266,1477,-2187,4845,44,34,864
836709,9640088,10131684,9642710,10134230,1498,2252,-452,-266,196,1422,-1901,3154,44,34,864
837710,9640320,10131828,9642907,10134427,1558,2176,-374,-492,170,899,-1058,4031,55,18,864
838711,9640576,10131944,9643104,10134624,1382,2387,-393,-517,187,724,-1622,4653,55,18,864
839711,9640832,10132056,9643301,10134821,1358,2450,-538,-564,194,577,-1164,3725,52,26,864
840713,9641076,10132192,9643498,10135018,1412,2327,-699,-536,251,407,-1565,4958,52,26,864
841721,9641280,10132300,9643728,10135248,1673,2556,-796,-479,293,610,-1279,5426,50,14,862
842715,9641492,10132420,9643925,10135445,1618,2516,-883,-674,296,586,-1256,3872,50,14,862
843716,9641728,10132572,9644122,10135642,1451,2336,-881,-902,210,1743,-1023,5220,47,22,864
844717,9641940,10132716,9644319,10135839,1595,2410,-808,-952,-6,3559,-1306,5824,47,22,864
845718,9642128,10132860,9644516,10136036,1749,2434,-809,-838,-203,3233,-872,5152,44,24,861
846719,9642336,10133020,9644713,10136233,1620,2350,-887,-617,-96,321,-1376,4877,44,24,861
847720,9642572,10133204,9644910,10136430,1428,2207,-888,-167,73,817,-1247,6820,33,27,863
848721,9642796,10133404,9645107,10136627,1492,2106,-906,50,131,1101,689,4195,33,27,863
849722,9643024,10133620,9645304,10136824,1453,1999,-1106,30,184,1084,817,2639,31,40,864
850723,9643256,10133804,9645501,10137021,1414,2205,-1250,69,286,1120,110,4531,31,40,864
851723,9643460,10134000,9645698,10137218,1586,2131,-1267,193,249,2455,905,4230,35,30,864
852724,9643688,10134180,9645895,10137415,1422,2239,-1332,-64,204,1596,601,1307,35,30,864
853725,9643880,10134400,9646092,10137612,1651,1980,-1342,-118,186,2093,-149,4289,47,40,864
854726,9644076,10134644,9646289,10137809,1626,1809,-1252,190,175,2387,-416,4999,47,40,864
855727,9644292,10134892,9646486,10138006,1494,1763,-1141,344,151,2237,-602,2765,34,47,865
856728,9644480,10135096,9646683,10138203,1673,2035,-998,488,172,1717,-517,4346,34,47,865
857730,9644660,10135320,9646880,10138400,1730,1899,-897,516,299,372,-937,2946,49,43,866
858730,9644852,10135580,9647077,10138597,1658,1647,-884,452,349,1022,-218,2178,49,43,866
859731,9645020,10135816,9647274,10138794,1821,1780,-809,684,344,971,-359,4491,29,42,865
860732,9645208,10136092,9647471,10138991,1701,1496,-719,1015,279,1523,-986,3961,29,42,865
861734,9645400,10136332,9647668,10139188,1678,1703,-719,1149,207,1362,-249,3052,35,39,867
862734,9645604,10136564,9647865,10139385,1601,1738,-694,1197,244,719,774,3731,35,39,867
863735,9645784,10136772,9648062,10139582,1759,1883,-664,1209,248,1467,-770,3433,46,39,867
864737,9645964,10136976,9648259,10139779,1766,1906,-563,1225,206,727,-496,4589,46,39,867
865738,9646160,10137216,9648456,10139976,1667,1662,-453,1077,268,-868,-946,3610,40,46,867
866739,9646316,10137432,9648653,10140173,1936,1805,-377,752,301,-259,-841,3267,40,46,867
867739,9646500,10137652,9648850,10140370,1767,1770,-217,618,186,340,665,5455,29,52,865
868741,9646704,10137864,9649047,10140567,1639,1814,-149,372,79,-602,-163,3244,29,52,865
869742,9646880,10138056,9649244,10140764,1824,1942,-214,78,69,-639,-649,3150,31,35,864
870743,9647072,10138260,9649441,10140961,1727,1864,-322,-45,207,-761,-1371,4562,31,35,864
871743,9647272,10138480,9649638,10141158,1676,1754,-373,80,383,-379,-1458,5208,44,35,866
872745,9647452,10138688,9649835,10141355,1809,1826,-423,225,488,302,-1176,4604,44,35,866
873745,9647608,10138880,9650032,10141552,1977,1929,-473,294,573,438,-626,4565,36,36,864
874746,9647796,10139080,9650229,10141749,1782,1877,-460,339,596,1706,-349,4762,36,36,864
875747,9647948,10139248,9650426,10141946,2026,2091,-467,317,625,2117,-641,4221,43,39,864
876748,9648132,10139420,9650623,10142143,1833,2077,-476,300,759,1707,-1948,4013,43,39,864
877750,9648312,10139624,9650820,10142340,1866,1875,-369,326,1005,1123,-2263,5189,25,31,865
878750,9648528,10139800,9651017,10142537,1633,2059,-184,346,1281,713,-1149,5356,25,31,865
879751,9648712,10139968,9651214,10142734,1839,2123,-95,232,1513,1190,-2070,3815,45,27,864
880753,9648880,10140120,9651411,10142931,1953,2243,-58,156,1751,511,-1433,5220,45,27,864
881754,9649068,10140292,9651608,10143128,1832,2130,-43,-63,1941,290,-2347,3495,25,29,865
882755,9649240,10140472,9651805,10143325,1944,2087,-11,-254,1989,104,-1341,5168,25,29,865
883755,9649372,10140628,9652002,10143522,2222,2256,42,-205,1968,-316,-1574,5696,25,24,862
884756,9649524,10140768,9652199,10143719,2118,2381,-72,-301,1899,272,-575,3511,25,24,862
885757,9649652,10140916,9652396,10143916,2298,2354,-223,-253,1825,-77,-1006,4863,25,40,861
886758,9649760,10141104,9652593,10144113,2463,2108,-304,-3,1731,87,-546,5658,25,40,861
887759,9649940,10141336,9652790,10144310,2021,1818,-408,226,1681,218,-1167,4028,34,39,860
888761,9650124,10141532,9652987,10144507,2003,2045,-507,305,1710,482,-2148,4058,34,39,860
889762,9650292,10141732,9653184,10144704,2115,2019,-445,440,1814,295,-2042,5329,45,48,860
890762,9650480,10141928,9653381,10144901,1995,2045,-297,443,1929,63,-903,4235,45,48,860
891763,9650632,10142132,9653578,10145098,2240,1992,-184,276,2035,173,-1091,3482,39,41,863
892764,9650792,10142340,9653775,10145295,2207,1963,-55,242,2109,441,-1047,4947,39,41,863
893766,9650956,10142580,9653972,10145492,2198,1744,53,115,2133,491,-653,3256,35,51,863
894767,9651124,10142832,9654169,10145689,2186,1646,143,30,2139,370,-1717,3602,35,51,863
895768,9651268,10143096,9654366,10145886,2360,1542,283,214,2110,450,-718,5520,27,50,861
896769,9651412,10143424,9654563,10146083,2383,1085,311,366,2058,-38,-401,3487,27,50,861
897770,9651564,10143656,9654760,10146280,2354,1671,247,304,2023,-535,-1332,3359,34,59,863
898771,9651720,10143860,9654957,10146477,2348,1843,285,352,1985,-569,-1355,5204,34,59,863
899772,9651844,10144040,9655154,10146674,2580,2001,287,400,1914,-606,-1434,4018,22,41,865
900773,9651980,10144224,9655351,10146871,2533,1982,298,531,1818,-257,-945,4584,22,41,865
901774,9652096,10144436,9655548,10147068,2693,1801,357,764,1747,402,-234,5490,27,32,862
902775,9652232,10144688,9655745,10147265,2596,1527,377,694,1749,69,-240,2888,27,32,862
903776,9652392,10144988,9655942,10147462,2464,1183,490,513,1830,-209,-1224,4811,39,38,859
904777,9652552,10145296,9656139,10147659,2480,1084,759,485,1877,622,-1054,6195,39,38,859
905778,9652696,10145504,9656336,10147856,2604,1704,930,337,1894,381,-1151,3404,24,50,861
906779,9652880,10145844,9656533,10148053,2361,817,943,164,1884,728,-2533,3136,24,50,861
907780,9653020,10146164,9656730,10148250,2661,888,976,290,1794,970,-833,5451,46,72,864
908781,9653188,10146456,9656927,10148447,2500,1022,913,369,1775,-688,-1829,2780,46,72,864
909782,9653372,10146788,9657124,10148644,2406,713,800,333,1705,-59,-1439,2836,48,70,866
910783,9653544,10147136,9657321,10148841,2493,547,759,583,1622,-383,-2139,5384,48,70,866
911784,9653716,10147416,9657518,10149038,2504,936,751,829,1510,106,-1731,4395,43,54,865
912785,9653900,10147648,9657715,10149235,2436,1221,695,730,1381,-92,-1181,3233,43,54,865
913786,9654092,10147920,9657912,10149432,2389,938,728,603,1291,-625,-1780,5457,35,52,867
914787,9654272,10148200,9658109,10149629,2473,852,837,501,1173,-103,-1113,5302,35,52,867
915788,9654440,10148508,9658306,10149826,2560,629,899,212,913,411,-296,4049,54,54,865
916789,9654648,10148780,9658503,10150023,2307,821,989,-56,603,268,-102,5591,54,54,865
917789,9654848,10149024,9658700,10150220,2356,975,1058,-176,361,-205,235,5450,49,57,864
918791,9655028,10149284,9658897,10150417,2489,848,1038,-139,112,898,1538,4601,49,57,864
919792,9655220,10149556,9659094,10150614,2417,740,894,-18,-96,1039,1100,3610,40,44,866
920793,9655404,10149804,9659291,10150811,2474,868,684,144,-163,40,-399,3195,40,44,866
921794,9655584,10150040,9659488,10151008,2507,926,509,450,-214,566,-285,4203,50,51,866
922795,9655788,10150220,9659685,10151205,2354,1283,402,806,-363,829,37,4079,50,51,866
923796,9655984,10150380,9659882,10151402,2405,1426,310,927,-534,201,386,3655,40,47,866
924806,9656172,10150532,9660112,10151632,2475,1510,308,925,-626,-573,-410,4990,40,47,866
925798,9656364,10150700,9660309,10151829,2453,1423,377,786,-767,-255,12,5006,54,43,865
926799,9656572,10150900,9660506,10152026,2348,1221,384,475,-1066,295,725,4322,54,43,865
927800,9656772,10151052,9660703,10152223,2398,1541,325,214,-1362,-577,317,5195,53,34,862
928801,9656988,10151204,9660900,10152420,2291,1562,229,114,-1627,-433,733,6062,53,34,862
929802,9657192,10151348,9661097,10152617,2364,1635,53,43,-1815,-815,1297,4632,51,29,864
930803,9657372,10151484,9661294,10152814,2521,1712,-137,30,-1904,-510,1027,5327,51,29,864
931804,9657560,10151632,9661491,10153011,2476,1659,-239,107,-1966,388,917,5850,46,26,864
932805,9657744,10151796,9661688,10153208,2508,1574,-306,76,-1996,469,488,4205,46,26,864
933806,9657948,10151956,9661885,10153405,2381,1615,-281,122,-1995,883,639,5254,27,41,861
934807,9658120,10152148,9662082,10153602,2592,1417,-169,268,-1949,816,597,4835,27,41,861
935808,9658312,10152324,9662279,10153799,2470,1527,-31,291,-1840,377,-257,3496,50,44,862
936809,9658520,10152516,9662476,10153996,2366,1430,175,191,-1770,994,-668,4482,50,44,862
937810,9658708,10152684,9662673,10154193,2496,1593,369,0,-1771,1279,-918,3843,36,39,862
938811,9658920,10152840,9662870,10154390,2339,1686,452,-166,-1804,1100,-300,3207,36,39,862
939812,9659116,10152968,9663067,10154587,2441,1892,434,-215,-1821,452,-266,3871,44,35,862
940813,9659316,10153092,9663264,10154784,2415,1949,354,-165,-1868,-109,-36,3631,44,35,862
941814,9659532,10153216,9663461,10154981,2308,1981,244,-133,-1928,-496,-15,3690,36,25,862
942814,9659736,10153344,9663658,10155178,2380,1987,143,-26,-2001,-166,-270,4328,36,25,862
943816,9659948,10153492,9663855,10155375,2324,1884,22,2,-2136,304,-98,4174,33,22,860
944817,9660184,10153628,9664052,10155572,2158,1986,-133,26,-2281,353,-170,4418,33,22,860
945818,9660404,10153756,9664249,10155769,2249,2067,-308,-7,-2343,-34,-718,4199,34,19,861
946819,9660616,10153924,9664446,10155966,2293,1830,-454,-128,-2319,374,-1423,3858,34,19,861
947820,9660848,10154072,9664643,10156163,2153,1976,-539,-284,-2227,592,-1527,3964,44,22,862
948821,9661104,10154220,9664840,10156360,1978,1999,-585,-475,-2179,868,-222,3665,44,22,862
949822,9661356,10154356,9665037,10156557,1980,2101,-610,-659,-2162,626,-76,3683,56,23,862
950823,9661592,10154492,9665234,10156754,2063,2129,-573,-832,-2093,56,-1137,3926,56,23,862
951824,9661868,10154612,9665431,10156951,1779,2262,-511,-983,-2061,505,-562,3409,59,21,861
952825,9662092,10154744,9665628,10157148,2093,2217,-489,-1142,-2034,44,-374,3170,59,21,861
953826,9662380,10154880,9665825,10157345,1653,2219,-480,-1112,-2041,534,-719,3918,62,27,862
954827,9662652,10155020,9666022,10157542,1721,2219,-447,-932,-2076,512,-769,4134,62,27,862
955828,9662908,10155156,9666219,10157739,1797,2272,-427,-844,-2071,-110,-222,3390,47,38,861
956829,9663172,10155308,9666416,10157936,1717,2191,-409,-870,-2056,28,-528,3306,47,38,861
957830,9663448,10155448,9666613,10158133,1608,2292,-386,-926,-2027,144,-618,3483,63,36,863
958830,9663720,10155584,9666810,10158330,1600,2344,-312,-1021,-2017,295,-866,2956,63,36,863
959832,9663984,10155696,9667007,10158527,1622,2533,-247,-1184,-2010,96,-769,3070,55,37,864
960833,9664280,10155836,9667204,10158724,1379,2383,-141,-1351,-1965,-259,-575,2955,55,37,864
961834,9664524,10155968,9667401,10158921,1684,2462,-80,-1497,-1889,-460,-907,3088,55,31,862
962835,9664796,10156108,9667598,10159118,1477,2438,7,-1565,-1871,155,-734,2835,55,31,862
963836,9665064,10156248,9667795,10159315,1471,2463,66,-1609,-1915,486,-340,3101,62,20,862
964837,9665376,10156380,9667992,10159512,1146,2543,150,-1608,-1937,231,-441,2840,62,20,862
965838,9665636,10156524,9668189,10159709,1443,2491,206,-1632,-1913,269,-242,2940,46,21,863
966839,9665892,10156656,9668386,10159906,1443,2596,257,-1689,-1810,-392,-349,2513,46,21,863
967840,9666192,10156780,9668583,10160103,1123,2679,311,-1851,-1698,-319,-306,2182,63,19,864
968841,9666452,10156924,9668780,10160300,1347,2577,351,-1971,-1673,384,-412,2748,63,19,864
969842,9666720,10157048,9668977,10160497,1265,2735,416,-2013,-1646,49,-141,2743,48,35,862
970843,9667020,10157164,9669174,10160694,1021,2821,417,-2105,-1621,352,-165,2330,48,35,862
971844,9667272,10157328,9669371,10160891,1297,2536,440,-2125,-1625,573,-652,3216,50,37,863
972845,9667536,10157472,9669568,10161088,1192,2686,502,-2179,-1585,-185,-256,2905,50,37,863
973846,9667816,10157616,9669765,10161285,1057,2710,476,-2422,-1540,276,24,2026,52,34,861
974847,9668060,10157808,9669962,10161482,1261,2412,530,-2565,-1474,-39,183,3309,52,34,861
975848,9668292,10157976,9670159,10161679,1321,2576,506,-2758,-1387,-109,0,2708,38,45,862
976849,9668548,10158148,9670356,10161876,1146,2563,506,-2883,-1312,158,116,2791,38,45,862
977850,9668776,10158336,9670553,10162073,1307,2467,445,-3013,-1249,293,499,3200,49,29,864
978851,9669036,10158528,9670750,10162270,1080,2445,367,-3070,-1206,348,482,2582,49,29,864
979852,9669312,10158696,9670947,10162467,946,2609,279,-3148,-1168,529,492,3689,61,46,864
980853,9669544,10158892,9671144,10162664,1206,2434,214,-3186,-1155,839,666,3110,61,46,864
981854,9669800,10159108,9671341,10162861,1030,2302,121,-3354,-1121,522,836,2894,47,32,864
982855,9670020,10159304,9671538,10163058,1246,2428,52,-3476,-1021,149,744,3617,47,32,864
983856,9670312,10159516,9671735,10163255,754,2323,-25,-3645,-929,432,789,2914,44,40,863
984857,9670564,10159704,9671932,10163452,980,2477,-115,-3809,-880,706,931,2912,44,40,863
985858,9670808,10159884,9672129,10163649,1010,2535,-178,-3882,-822,674,1161,3810,56,38,864
986859,9671064,10160120,9672326,10163846,909,2169,-245,-3981,-756,728,1167,2979,56,38,864
987859,9671348,10160336,9672523,10164043,696,2286,-324,-4056,-668,635,797,3239,52,36,865
988861,9671576,10160552,9672720,10164240,1032,2278,-351,-4103,-514,27,799,3640,52,36,865
989862,9671824,10160752,9672917,10164437,885,2378,-336,-4002,-381,673,983,4292,42,43,867
990862,9672048,10160948,9673114,10164634,1024,2404,-381,-3921,-362,1857,49,3342,42,43,867
991863,9672284,10161144,9673311,10164831,932,2405,-424,-3711,-275,722,813,4186,35,48,866
992865,9672532,10161360,9673508,10165028,834,2272,-505,-3555,-143,1142,889,3665,35,48,866
993866,9672732,10161584,9673705,10165225,1133,2212,-549,-3343,-46,1764,644,4088,57,35,865
994867,9672936,10161760,9673902,10165422,1105,2521,-570,-3204,83,1288,1333,4040,57,35,865
995867,9673128,10162000,9674099,10165619,1183,2103,-598,-3241,239,1433,751,3144,52,40,866
996869,9673332,10162184,9674296,10165816,1105,2460,-581,-3333,368,1710,379,4267,52,40,866
997870,9673516,10162376,9674493,10166013,1236,2412,-521,-3430,470,1522,7,4018,39,51,864
998871,9673700,10162560,9674690,10166210,1242,2469,-482,-3445,501,2006,-52,4273,39,51,864
999871,9673896,10162808,9674887,10166407,1167,2047,-462,-3373,526,2088,-484,4770,39,35,865
1000873,9674076,10163040,9675084,10166604,1275,2133,-436,-3127,553,2246,435,5387,39,35,865
1001874,9674240,10163232,9675281,10166801,1390,2385,-473,-2968,595,2240,-337,4236,47,35,864
1002875,9674420,10163424,9675478,10166998,1297,2388,-504,-2861,730,1495,-544,4867,47,35,864
1003876,9674588,10163644,9675675,10167195,1385,2204,-478,-2674,842,1789,-1024,5554,45,46,866
1004877,9674768,10163892,9675872,10167392,1318,2007,-457,-2535,867,1992,-683,4973,45,46,866
1005878,9674932,10164100,9676069,10167589,1433,2253,-465,-2424,926,1513,-1249,4866,28,37,864
1006878,9675080,10164288,9676266,10167786,1555,2383,-492,-2337,944,2247,-1445,5162,28,37,864
1007886,9675228,10164464,9676496,10168016,1591,2481,-506,-2336,934,2049,-1838,5015,34,44,865
1008881,9675384,10164636,9676693,10168213,1559,2518,-524,-2351,943,1540,-1057,4788,34,44,865
1009882,9675552,10164820,9676890,10168410,1496,2450,-545,-2343,996,1420,-1933,4980,40,34,863
1010883,9675672,10165000,9677087,10168607,1831,2483,-568,-2261,1007,1675,-1778,5250,40,34,863
1011884,9675836,10165168,9677284,10168804,1571,2571,-568,-2241,993,1160,-2282,4912,19,30,862
1012885,9675988,10165340,9677481,10169001,1666,2558,-542,-2154,1004,777,-2052,5612,19,30,862
1013886,9676120,10165492,9677678,10169198,1820,2703,-513,-2123,993,1203,-1778,4998,21,25,861
1014887,9676284,10165664,9677875,10169395,1635,2590,-481,-2091,983,1025,-1847,5126,21,25,861
1015887,9676436,10165832,9678072,10169592,1729,2629,-429,-2088,932,1439,-1963,4937,39,26,861
1016889,9676572,10165996,9678269,10169789,1856,2668,-338,-2063,889,1187,-1707,5371,39,26,861
1017890,9676720,10166144,9678466,10169986,1804,2791,-277,-2028,837,1739,-2186,4577,40,38,860
1018891,9676912,10166284,9678663,10170183,1531,2867,-215,-2007,795,1541,-1907,4699,40,38,860
1019892,9677072,10166412,9678860,10170380,1747,2973,-150,-1930,776,1439,-2206,4695,24,31,859
1020893,9677240,10166572,9679057,10170577,1711,2790,-83,-1872,775,1054,-1694,4340,24,31,859
1021894,9677396,10166728,9679254,10170774,1804,2834,-7,-1753,770,1458,-1838,4565,39,32,859
1022895,9677572,10166864,9679451,10170971,1688,2986,113,-1513,764,1485,-1161,5172,39,32,859
1023895,9677736,10167012,9679648,10171168,1779,2934,192,-1396,756,1407,-1510,3750,35,36,859
1024897,9677912,10167148,9679845,10171365,1713,3037,237,-1385,679,1958,-614,3702,35,36,859
1025898,9678068,10167304,9680042,10171562,1857,2930,310,-1363,665,1003,-1540,4287,28,36,857
1026899,9678240,10167436,9680239,10171759,1768,3109,400,-1220,718,403,-1913,4269,28,36,857
1027900,9678432,10167572,9680436,10171956,1645,3112,507,-1077,721,893,-1294,4393,40,35,856
1028901,9678624,10167708,9680633,10172153,1648,3140,589,-1019,716,269,-1817,3968,40,35,856
1029902,9678804,10167832,9680830,10172350,1731,3248,658,-981,656,969,-1017,4246,45,23,855
1030903,9679012,10167996,9681027,10172547,1551,3013,752,-814,628,837,-1396,5198,45,23,855
1031903,9679192,10168128,9681224,10172744,1734,3242,728,-858,588,904,-360,2870,31,20,857
1032905,9679376,10168280,9681421,10172941,1715,3138,686,-1130,668,-595,-250,3015,31,20,857
1033906,9679588,10168412,9681618,10173138,1535,3292,702,-1146,678,747,-925,4809,32,24,857
1034907,9679784,10168544,9681815,10173335,1635,3322,756,-1045,617,940,-346,4215,32,24,857
1035908,9679972,10168692,9682012,10173532,1689,3244,698,-981,596,741,-628,3471,51,17,856
1036909,9680144,10168844,9682209,10173729,1801,3240,644,-952,608,579,-627,4008,51,17,856
1037910,9680352,10168980,9682406,10173926,1571,3368,679,-769,620,657,-394,5097,42,25,855
1038911,9680524,10169140,9682603,10174123,1808,3235,668,-709,642,712,-193,3918,42,25,855
1039912,9680712,10169304,9682800,10174320,1712,3226,607,-697,727,199,121,4391,47,38,854
1040913,9680896,10169468,9682997,10174517,1743,3241,529,-614,843,-24,-184,4783,47,38,854
1041914,9681072,10169644,9683194,10174714,1803,3177,468,-598,940,-506,-469,4347,47,25,855
1042915,9681232,10169844,9683391,10174911,1919,3026,413,-566,1037,-926,6,4930,47,25,855
1043916,9681412,10169996,9683588,10175108,1803,3347,336,-618,951,710,950,3846,28,42,855
1044917,9681592,10170152,9683785,10175305,1810,3341,254,-577,789,1129,992,5062,28,42,855
1045918,9681728,10170296,9683982,10175502,2112,3440,193,-655,709,504,322,3891,43,25,856
1046919,9681904,10170444,9684179,10175699,1872,3438,92,-890,706,100,441,3361,43,25,856
1047920,9682044,10170584,9684376,10175896,2122,3514,-6,-993,792,-469,137,3916,29,28,854
1048921,9682188,10170768,9684573,10176093,2122,3246,-83,-993,896,-705,147,3994,29,28,854
1049922,9682376,10170960,9684770,10176290,1851,3199,-164,-987,1045,-1187,-242,3844,28,23,852
1050923,9682540,10171132,9684967,10176487,2016,3336,-134,-893,1259,-2067,-307,5094,28,23,852
1051924,9682696,10171284,9685164,10176684,2084,3482,-125,-918,1500,-1991,-425,4020,30,28,852
1052925,9682836,10171428,9685361,10176881,2210,3556,-254,-1241,1573,-209,49,1794,30,28,852
1053926,9683012,10171568,9685558,10177078,1994,3607,-386,-1565,1110,4878,684,3287,46,25,853
1054927,9683180,10171736,9685755,10177275,2058,3446,-332,-1342,768,1738,-805,7316,46,25,853
1055928,9683344,10171904,9685952,10177472,2098,3459,-343,-1294,785,-631,917,2668,30,25,851
1056929,9683496,10172040,9686149,10177669,2192,3687,-485,-1490,921,-414,645,2614,30,25,851
1057930,9683656,10172212,9686346,10177866,2160,3474,-495,-1428,988,-97,-137,5773,40,34,852
1058931,9683792,10172364,9686543,10178063,2337,3620,-469,-1324,1043,-328,-700,3791,40,34,852
1059932,9683944,10172540,9686740,10178260,2257,3480,-529,-1439,1046,468,336,2539,44,34,849
1060933,9684068,10172704,9686937,10178457,2465,3571,-575,-1469,1023,689,583,4234,44,34,849
1061934,9684200,10172876,9687134,10178654,2444,3533,-587,-1420,1044,-91,-240,3825,38,30,847
1062935,9684336,10173036,9687331,10178851,2447,3625,-570,-1447,1049,563,-1059,3458,38,30,847
1063936,9684456,10173196,9687528,10179048,2581,3642,-513,-1459,990,924,-1013,4075,38,26,846
1064937,9684596,10173344,9687725,10179245,2482,3741,-455,-1444,988,4,-692,4065,38,26,846
1065938,9684732,10173596,9687922,10179442,2533,3068,-422,-1355,993,234,-89,4163,40,49,848
1066939,9684876,10173840,9688119,10179639,2508,3098,-455,-1340,911,779,-548,3294,40,49,848
1067940,9684996,10174060,9688316,10179836,2692,3239,-459,-1249,903,-429,-384,4289,43,52,847
1068941,9685124,10174268,9688513,10180033,2673,3310,-474,-1179,958,-316,-107,3750,43,52,847
1069942,9685280,10174460,9688710,10180230,2517,3413,-566,-1221,860,1586,-742,2474,28,52,852
1070943,9685396,10174744,9688907,10180427,2803,2801,-611,-1148,725,1049,-1065,4250,28,52,852
1071944,9685520,10175028,9689104,10180624,2786,2764,-590,-1070,752,-107,-2027,3442,21,46,849
1072945,9685652,10175312,9689301,10180821,2765,2726,-465,-1117,816,711,-941,3566,21,46,849
1073945,9685780,10175580,9689498,10181018,2821,2796,-290,-1272,864,761,-717,3203,18,45,851
1074947,9685928,10175828,9689695,10181215,2718,2900,-164,-1515,817,1715,-169,2748,18,45,851
1075947,9686092,10176148,9689892,10181412,2633,2397,-50,-1833,766,1572,31,2786,36,52,852
1076949,9686280,10176500,9690089,10181609,2488,2130,12,-2175,829,455,-482,2500,36,52,852
1077949,9686420,10176788,9690286,10181806,2813,2491,57,-2328,990,-586,-858,3300,28,51,853
1078951,9686592,10177092,9690483,10182003,2625,2345,41,-2367,1115,-547,-777,3316,27,64,859
1079951,9686736,10177340,9690680,10182200,2825,2673,-56,-2367,1058,957,-712,2698,27,64,859
1080953,9686872,10177700,9690877,10182397,2903,1903,-155,-2228,940,842,-670,3532,25,69,857
1081954,9687048,10178040,9691074,10182594,2662,1966,-220,-2050,890,329,-348,3741,25,69,857
1082955,9687224,10178384,9691271,10182791,2672,1877,-272,-1928,862,489,-159,3101,49,54,856
1083956,9687404,10178668,9691468,10182988,2655,2215,-281,-1739,867,605,-153,4047,49,54,856
1084956,9687628,10179028,9691665,10183185,2370,1669,-269,-1576,813,1615,-93,3600,49,64,859
1085957,9687812,10179372,9691862,10183382,2626,1705,-245,-1414,715,1660,-374,3365,49,64,859
1086958,9687984,10179724,9692059,10183579,2712,1588,-206,-1164,722,237,-802,4308,32,70,862
1087959,9688168,10180024,9692256,10183776,2644,1868,-171,-966,779,284,-598,3754,32,70,862
1088961,9688364,10180368,9692453,10183973,2570,1530,-197,-867,736,1486,61,2726,49,69,861
1089961,9688568,10180732,9692650,10184170,2518,1331,-235,-859,573,2416,193,2689,49,69,861
1090970,9688756,10181032,9692880,10184400,2637,1702,-221,-762,485,1324,-538,3218,35,61,862
1091964,9688980,10181296,9693077,10184597,2401,1898,-131,-662,595,189,-1450,3006,35,61,862
1092965,9689188,10181612,9693274,10184794,2497,1521,-67,-688,715,1023,-2698,1626,55,56,860
1093966,9689356,10181992,9693471,10184991,2761,1041,2,-674,716,1653,-3601,2291,55,56,860
1094967,9689560,10182292,9693668,10185188,2534,1496,176,-436,589,2027,-2519,4014,50,54,861
1095967,9689780,10182592,9693865,10185385,2424,1452,315,-232,547,138,-456,2204,50,54,861
1096969,9689996,10182852,9694062,10185582,2441,1675,296,-525,561,525,313,-882,48,49,862
1097970,9690228,10183152,9694259,10185779,2327,1380,351,-532,501,1379,478,2951,48,49,862
1098971,9690428,10183496,9694456,10185976,2527,1041,511,-124,388,699,-657,3872,56,55,861
1099972,9690640,10183856,9694653,10186173,2445,870,598,164,314,-468,-1140,1483,56,55,861
1100973,9690868,10184148,9694850,10186370,2332,1253,669,409,164,1418,-826,3051,48,56,864
1101974,9691072,10184428,9695047,10186567,2480,1292,722,939,38,1593,-989,4084,48,56,864
1102975,9691312,10184780,9695244,10186764,2237,774,630,1320,-23,1567,-196,1456,41,56,865
1103976,9691592,10185112,9695441,10186961,1951,841,443,1636,32,1590,-153,1852,41,56,865
1104977,9691856,10185472,9695638,10187158,2023,594,373,2062,64,1312,302,3252,60,67,865
1105978,9692116,10185716,9695835,10187355,2021,1299,443,2371,-19,295,825,1946,60,67,865
1106979,9692352,10186028,9696032,10187552,2155,824,520,2387,-205,922,-31,1200,52,55,869
1107980,9692572,10186384,9696229,10187749,2245,479,626,2560,-433,2160,-986,3276,52,55,869
1108981,9692836,10186720,9696426,10187946,1941,543,676,2961,-534,1753,123,3346,61,67,868
1109982,9693088,10186988,9696623,10188143,1993,937,615,3130,-392,78,725,1383,61,67,868
1110983,9693344,10187288,9696820,10188340,1942,693,555,3271,-213,1106,-247,2816,40,67,870
1111984,9693556,10187640,9697017,10188537,2211,300,761,3546,-238,3031,-1276,4813,40,67,870
1112985,9693776,10187980,9697214,10188734,2152,312,1071,3687,-307,1580,-540,3764,49,48,869
1113986,9694004,10188240,9697411,10188931,2089,784,1108,3283,-307,839,791,-80,49,48,869
1114987,9694288,10188448,9697608,10189128,1701,1104,968,2900,-220,1003,325,1949,43,61,868
1115988,9694524,10188712,9697805,10189325,1985,725,945,3012,-161,1658,-1593,4895,43,61,868
1116989,9694824,10188952,9698002,10189522,1540,857,1104,3239,-154,646,-879,4553,43,38,867
1117990,9695056,10189196,9698199,10189719,1951,811,1266,2826,-178,592,-227,1914,43,38,867
1118990,9695308,10189380,9698396,10189916,1802,1192,1437,2208,-182,518,307,3622,41,48,871
1119991,9695580,10189580,9698593,10190113,1645,1091,1559,1592,-218,1598,238,2958,41,48,871
1120993,9695848,10189740,9698790,10190310,1639,1357,1681,1171,-198,274,-456,3957,62,46,868
1121993,9696096,10189944,9698987,10190507,1742,1079,1705,892,-150,-369,-617,4318,62,46,868
1122994,9696324,10190140,9699184,10190704,1854,1129,1681,886,-41,-1202,-1182,4495,55,31,869
1123996,9696544,10190332,9699381,10190901,1894,1157,1490,1004,-6,-944,249,4751,55,31,869
1124997,9696736,10190520,9699578,10191098,2072,1186,1176,1369,-308,1205,2660,4553,32,42,869
1125998,9696952,10190708,9699775,10191295,1914,1189,727,1674,-591,-64,1320,4920,32,42,869
1126999,9697168,10190884,9699972,10191492,1907,1275,452,1923,-722,399,65,6133,41,28,866
1128000,9697384,10191044,9700169,10191689,1898,1391,354,1931,-825,1290,-98,5666,41,28,866
1129001,9697568,10191180,9700366,10191886,2105,1568,338,1625,-813,363,713,4834,31,36,867
1130002,9697788,10191320,9700563,10192083,1870,1568,385,1125,-734,1025,-16,4962,31,36,867
1131002,9698012,10191516,9700760,10192280,1834,1218,471,682,-548,1904,-945,5477,48,43,864
1132004,9698220,10191724,9700957,10192477,1930,1138,498,680,-408,1406,1716,5759,48,43,864
1133005,9698444,10191948,9701154,10192674,1818,1027,335,654,-282,449,1904,4567,35,29,867
1134006,9698632,10192160,9701351,10192871,2048,1096,259,250,-262,2430,1286,5304,35,29,867
1135006,9698808,10192328,9701548,10193068,2133,1384,328,-785,-339,2276,816,4448,34,32,868
1136008,9698976,10192512,9701745,10193265,2196,1289,415,-2024,-455,1940,868,4701,34,32,868
1137009,9699140,10192684,9701942,10193462,2236,1375,282,-2737,-512,2478,752,6046,34,45,864
1138010,9699288,10192900,9702139,10193659,2358,1092,-152,-2661,-469,2327,1523,6849,34,45,864
1139011,9699500,10193120,9702336,10193856,1952,1057,-701,-2171,-324,1271,1762,6793,42,37,864
1140012,9699676,10193300,9702533,10194053,2187,1314,-1159,-1789,-190,1605,909,5865,42,37,864
1141013,9699836,10193488,9702730,10194250,2303,1269,-1456,-1761,-92,1415,328,5005,39,23,867
1142013,9699992,10193660,9702927,10194447,2347,1380,-1580,-1864,19,1120,718,6098,39,23,867
1143014,9700180,10193820,9703124,10194644,2151,1472,-1615,-1965,95,1823,1120,5368,42,28,864
1144015,9700364,10193980,9703321,10194841,2183,1488,-1688,-2098,135,2315,1205,4983,42,28,864
1145017,9700544,10194112,9703518,10195038,2216,1691,-1803,-2079,207,2499,842,5461,39,33,865
1146018,9700740,10194252,9703715,10195235,2117,1666,-1936,-2165,244,2521,947,4409,39,33,865
1147018,9700936,10194412,9703912,10195432,2118,1558,-1951,-2318,301,2204,-63,4537,26,35,863
1148020,9701156,10194608,9704109,10195629,1958,1334,-1860,-2493,339,2429,582,4752,26,35,863
1149021,9701340,10194760,9704306,10195826,2190,1629,-1768,-2557,352,2144,333,4386,29,32,863
1150022,9701528,10194932,9704503,10196023,2169,1515,-1799,-2613,370,2156,-702,3430,29,32,863
1151022,9701728,10195040,9704700,10196220,2094,1954,-1824,-2398,448,1407,796,4810,49,21,864
1152023,9701964,10195160,9704897,10196417,1851,1914,-1792,-2186,572,926,623,4515,49,21,864
1153025,9702148,10195312,9705094,10196614,2183,1734,-1727,-2103,659,1347,-440,4015,34,19,862
1154025,9702356,10195412,9705291,10196811,2029,2101,-1683,-2058,691,1863,-1689,4027,34,19,862
1155026,9702572,10195556,9705488,10197008,1971,1850,-1651,-1885,682,1855,-607,4087,32,27,863
1156028,9702812,10195684,9705685,10197205,1803,1981,-1624,-1708,692,1338,-1075,3234,32,27,863
1157029,9703064,10195792,9705882,10197402,1704,2145,-1560,-1593,704,1636,-1384,3566,34,27,864
1158030,9703312,10195900,9706079,10197599,1707,2184,-1440,-1398,635,2412,-1108,4268,34,27,864
1159031,9703592,10196032,9706276,10197796,1471,2063,-1304,-1144,618,1368,-1296,4262,47,21,862
1160032,9703828,10196148,9706473,10197993,1730,2199,-1180,-918,681,812,-1024,3820,47,21,862
1161033,9704092,10196264,9706670,10198190,1525,2235,-1081,-756,727,1199,-1200,3714,52,25,864
1162034,9704380,10196380,9706867,10198387,1336,2271,-963,-519,729,1547,-1440,4299,52,25,864
1163035,9704616,10196504,9707064,10198584,1644,2254,-848,-222,735,1519,-676,4336,54,21,864
1164036,9704868,10196612,9707261,10198781,1521,2393,-787,-46,748,1410,-726,3022,54,21,864
1165037,9705156,10196728,9707458,10198978,1256,2379,-765,-76,804,841,-1020,2691,44,34,864
1166038,9705368,10196856,9707655,10199175,1726,2335,-672,-151,901,510,-1134,3593,44,34,864
1167039,9705608,10196992,9707852,10199372,1532,2312,-496,-236,975,717,-1432,3980,38,30,864
1168040,9705884,10197132,9708049,10199569,1273,2312,-279,-363,1062,336,-765,3920,38,30,864
1169041,9706140,10197272,9708246,10199766,1372,2337,-112,-523,1097,1098,-1311,3722,60,25,864
1170042,9706384,10197400,9708443,10199963,1426,2444,-33,-677,1049,1325,-426,3537,60,25,864
1171043,9706664,10197528,9708640,10200160,1166,2474,-5,-822,1056,314,-810,3531,49,28,863
1172044,9706908,10197680,9708837,10200357,1370,2345,7,-873,1048,694,-671,3870,49,28,863
1173045,9707108,10197816,9709034,10200554,1644,2472,26,-828,1045,359,-842,4559,42,19,863
1174052,9707348,10197936,9709264,10200784,1390,2621,-28,-819,1075,-15,-647,3648,42,19,863
1175047,9707616,10198060,9709461,10200981,1184,2629,-119,-903,1124,199,-580,3701,51,33,861
1176047,9707832,10198180,9709658,10201178,1502,2688,-154,-982,1217,97,-1166,4283,51,33,861
1177049,9708052,10198340,9709855,10201375,1467,2455,-180,-1099,1233,952,-1018,3875,38,34,862
1178050,9708296,10198484,9710052,10201572,1296,2579,-235,-1212,1156,987,-588,3664,38,34,862
1179051,9708524,10198664,9710249,10201769,1384,2362,-260,-1048,1035,1277,-1070,5730,51,38,862
1180052,9708696,10198840,9710446,10201966,1745,2396,-306,-738,888,1676,-1093,4941,51,38,862
1181053,9708932,10199024,9710643,10202163,1327,2353,-411,-542,799,1459,758,4550,28,28,862
1182054,9709152,10199212,9710840,10202360,1418,2333,-571,-439,770,1964,575,3701,28,28,862
1183055,9709340,10199456,9711037,10202557,1622,1962,-1045,-308,769,2620,2250,2547,46,46,863
1184056,9709572,10199652,9711234,10202754,1332,2264,-1380,-220,663,3315,2412,1713,46,46,863
1185057,9709768,10199888,9711431,10202951,1558,1997,-1585,65,686,1692,-501,3822,34,42,865
1186058,9709944,10200140,9711628,10203148,1693,1873,-1485,421,749,1521,-1393,4808,34,42,865
1187059,9710180,10200376,9711825,10203345,1300,1957,-1240,306,730,2150,-955,2767,34,52,864
1188059,9710352,10200624,9712022,10203542,1711,1860,-995,-110,732,1370,-389,2760,34,52,864
1189061,9710536,10200888,9712219,10203739,1643,1731,-770,-435,834,369,-811,3926,27,44,866
1190062,9710700,10201188,9712416,10203936,1783,1461,-566,-478,750,1702,320,4755,27,44,866
1191063,9710924,10201436,9712613,10204133,1396,1765,-503,-395,398,2722,-471,3855,43,53,866
1192064,9711096,10201676,9712810,10204330,1733,1796,-548,-192,31,2076,362,4017,43,53,866
1193065,9711268,10201932,9713007,10204527,1744,1671,-623,-4,-69,1061,290,3648,42,42,866
1194066,9711436,10202188,9713204,10204724,1781,1645,-614,347,-28,1134,70,4676,42,42,866
1195067,9711596,10202420,9713401,10204921,1849,1781,-529,688,-112,1779,88,4637,31,52,865
1196068,9711764,10202640,9713598,10205118,1811,1845,-444,791,-252,1326,422,3753,31,52,865
1197069,9711940,10202860,9713795,10205315,1771,1836,-413,602,-290,696,121,2559,33,37,865
1198070,9712092,10203084,9713992,10205512,1941,1799,-326,408,-282,878,-104,3626,33,37,865
1199071,9712272,10203300,9714189,10205709,1774,1842,-137,375,-340,895,519,4488,29,40,865
1200072,9712452,10203520,9714386,10205906,1781,1807,-5,264,-379,748,-666,3081,29,40,865
1201073,9712636,10203700,9714583,10206103,1763,2065,-36,58,-289,860,-567,2281,39,37,865
1202074,9712792,10203892,9714780,10206300,1956,1993,-140,-81,-43,1145,-621,2598,39,37,865
1203075,9712976,10204092,9714977,10206497,1788,1941,-167,-70,310,1083,-842,3608,43,42,862
1204076,9713132,10204276,9715174,10206694,1981,2048,-108,194,603,1750,-851,5286,43,42,862
1205077,9713288,10204496,9715371,10206891,1999,1813,-27,664,726,2854,-1439,5806,27,36,862
1206078,9713460,10204680,9715568,10207088,1911,2045,-17,1305,831,2558,-698,6242,27,36,862
1207079,9713608,10204860,9715765,10207285,2082,2077,-127,1905,987,2451,-1090,5099,24,36,863
1208079,9713792,10205016,9715962,10207482,1864,2246,-278,2318,1170,2310,-1003,4642,24,36,863
1209081,9713936,10205208,9716159,10207679,2137,2023,-321,2507,1379,1787,-2104,4544,32,27,861
1210082,9714156,10205380,9716356,10207876,1652,2160,-290,2203,1584,1029,-2014,2731,32,27,861
1211083,9714340,10205572,9716553,10208073,1884,2038,-200,1689,1748,954,-902,3558,37,28,862
1212084,9714500,10205748,9716750,10208270,2050,2148,-26,1257,1926,351,-2368,5051,37,28,862
1213084,9714668,10205916,9716947,10208467,2014,2211,76,819,1985,661,-1061,4321,43,34,863
1214086,9714816,10206068,9717144,10208664,2161,2331,57,383,1981,-412,-1449,4052,43,34,863
1215086,9714960,10206224,9717341,10208861,2210,2324,20,81,1898,-442,-1008,5697,39,26,859
1216087,9715116,10206384,9717538,10209058,2153,2317,-91,28,1744,-549,-504,5297,39,26,859
1217089,9715224,10206552,9717735,10209255,2492,2279,-325,47,1568,-657,-35,4472,45,40,859
1218090,9715372,10206748,9717932,10209452,2265,2106,-562,340,1446,-366,-631,5742,45,40,859
1219090,9715540,10206940,9718129,10209649,2152,2133,-767,558,1388,-451,-1152,4506,37,48,858
1220091,9715736,10207132,9718326,10209846,1979,2136,-881,772,1399,-237,-1103,5265,37,48,858
1221092,9715892,10207340,9718523,10210043,2247,2031,-900,844,1410,295,-422,5096,46,45,861
1222094,9716088,10207576,9718720,10210240,1998,1840,-908,784,1439,499,-502,3638,46,45,861
1223095,9716244,10207756,9718917,10210437,2266,2198,-868,711,1521,942,-478,4704,36,44,861
1224096,9716420,10208000,9719114,10210634,2151,1778,-787,616,1639,1258,-244,4018,36,44,861
1225097,9716548,10208244,9719311,10210831,2482,1757,-707,478,1805,775,-1166,3276,46,56,860
1226098,9716724,10208496,9719508,10211028,2192,1684,-511,398,1971,462,-959,4395,46,56,860
1227099,9716892,10208772,9719705,10211225,2255,1499,-331,254,2070,401,-321,3466,33,39,860
1228100,9717036,10209116,9719902,10211422,2429,1011,-228,75,2127,-148,-822,3444,33,39,860
1229101,9717192,10209312,9720099,10211619,2373,1936,-145,19,2153,-358,-1117,4308,27,56,864
1230102,9717336,10209476,9720296,10211816,2471,2151,-99,143,2088,-135,-662,4297,27,56,864
1231103,9717464,10209644,9720493,10212013,2603,2140,-37,317,1975,-123,-287,4407,33,28,861
1232104,9717604,10209844,9720690,10212210,2553,1938,3,536,1855,186,785,4816,33,28,861
1233105,9717720,10210068,9720887,10212407,2739,1777,-63,654,1802,-437,337,3704,40,32,857
1234106,9717864,10210352,9721084,10212604,2588,1364,-96,762,1904,-1185,-1845,5157,40,32,857
1235107,9718032,10210616,9721281,10212801,2451,1461,48,947,2037,-578,-1507,6154,45,46,859
1236108,9718196,10210820,9721478,10212998,2492,1833,176,802,2077,-338,-398,3617,45,46,859
1237109,9718340,10211140,9721675,10213195,2640,1055,222,417,2062,-278,-1434,3450,27,67,862
1238110,9718516,10211456,9721872,10213392,2450,1027,277,209,1965,729,-1774,4909,27,67,862
1239111,9718664,10211800,9722069,10213589,2648,788,255,27,1907,-2,-2499,3389,47,70,863
1240112,9718820,10212084,9722266,10213786,2616,1125,253,-139,1872,197,-2822,4085,47,70,863
1241113,9718988,10212372,9722463,10213983,2555,1060,333,-138,1822,-181,-2286,5644,28,64,864
1242114,9719176,10212684,9722660,10214180,2435,860,415,-4,1730,-732,-2168,5253,28,64,864
1243115,9719344,10212944,9722857,10214377,2572,1158,424,104,1563,-374,-1397,5374,30,51,864
1244116,9719508,10213180,9723054,10214574,2613,1291,341,72,1286,28,-1091,4495,30,51,864
1245117,9719684,10213472,9723251,10214771,2548,899,287,114,941,305,-589,6004,29,46,864
1246118,9719860,10213756,9723448,10214968,2557,911,329,191,594,-48,-697,6423,29,46,864
1247119,9720036,10214024,9723645,10215165,2567,981,412,105,219,-274,-12,5089,32,49,863
1248120,9720244,10214284,9723842,10215362,2364,1003,422,-19,-93,-99,257,4784,32,49,863
1249121,9720416,10214536,9724039,10215559,2600,1029,341,17,-284,277,704,4250,48,45,864
1250122,9720588,10214812,9724236,10215756,2612,844,234,182,-334,142,840,4669,48,45,864
1251123,9720768,10215072,9724433,10215953,2570,917,228,381,-293,193,-1310,4388,30,49,864
1252123,9720952,10215332,9724630,10216150,2551,890,336,450,-273,424,-940,4825,30,49,864
1253124,9721136,10215516,9724827,10216347,2558,1371,402,360,-370,1383,-865,3647,38,51,864
1254125,9721336,10215700,9725024,10216544,2457,1376,484,348,-466,840,-1189,5959,38,51,864
1255127,9721516,10215856,9725221,10216741,2590,1569,563,381,-601,878,-1549,5154,36,44,863
1256127,9721704,10216008,9725418,10216938,2545,1614,571,251,-753,-180,-47,4059,36,44,863
1257138,9721912,10216172,9725648,10217168,2430,1568,556,132,-968,-276,461,5702,33,43,862
1258130,9722104,10216356,9725845,10217365,2533,1450,491,118,-1235,-441,877,5250,33,43,862
1259131,9722316,10216548,9726042,10217562,2402,1402,333,45,-1486,-506,1370,4695,32,37,861
1260132,9722516,10216732,9726239,10217759,2477,1458,189,5,-1681,98,926,5557,32,37,861
1261133,9722740,10216928,9726436,10217956,2316,1383,94,-95,-1745,41,244,4940,51,33,863
1262134,9722940,10217116,9726633,10218153,2464,1437,62,-194,-1785,1104,303,4711,51,33,863
1263134,9723124,10217268,9726830,10218350,2571,1682,74,-297,-1800,1080,-125,4622,51,37,864
1264135,9723328,10217444,9727027,10218547,2444,1542,97,-371,-1758,313,-37,3952,51,37,864
1265137,9723524,10217636,9727224,10218744,2495,1444,118,-426,-1708,217,-436,3926,32,30,861
1266137,9723716,10217832,9727421,10218941,2523,1420,123,-367,-1732,629,-755,3968,32,30,861
1267139,9723924,10218028,9727618,10219138,2419,1420,113,-277,-1741,71,-662,4053,36,40,862
1268139,9724132,10218192,9727815,10219335,2415,1636,103,-149,-1783,584,-913,3989,36,40,862
1269141,9724344,10218336,9728012,10219532,2383,1784,131,-144,-1907,859,-575,3959,32,21,862
1270141,9724552,10218472,9728209,10219729,2405,1861,156,-260,-2019,194,-368,3483,32,21,862
1271143,9724756,10218592,9728406,10219926,2428,1995,95,-421,-2066,-367,169,3122,28,35,860
1272144,9724928,10218732,9728603,10220123,2638,1895,-1,-498,-2050,-685,-689,3784,28,35,860
1273145,9725164,10218864,9728800,10220320,2222,1974,-80,-535,-2059,-433,-716,3743,30,20,860
1274146,9725376,10218988,9728997,10220517,2367,2056,-154,-574,-2191,475,-132,3901,30,20,860
1275147,9725596,10219128,9729194,10220714,2308,1981,-222,-494,-2350,500,-729,4495,36,35,861
1276147,9725828,10219284,9729391,10220911,2217,1900,-277,-472,-2473,649,-990,4303,36,35,861
1277148,9726044,10219460,9729588,10221108,2310,1785,-290,-569,-2514,354,-879,3877,49,30,861
1278149,9726272,10219628,9729785,10221305,2222,1847,-292,-850,-2470,37,-863,3330,49,30,861
1279151,9726480,10219780,9729982,10221502,2342,1968,-308,-1079,-2406,-35,-415,3712,45,29,862
1280151,9726740,10219916,9730179,10221699,1991,2095,-340,-1207,-2358,-44,-446,3503,45,29,862
1281153,9726984,10220052,9730376,10221896,2071,2122,-364,-1162,-2316,-138,-360,3816,56,22,859
1282153,9727224,10220184,9730573,10222093,2077,2176,-392,-1030,-2325,163,-275,3636,56,22,859
1283155,9727500,10220352,9730770,10222290,1819,1964,-394,-885,-2392,762,-474,3634,60,24,861
1284155,9727760,10220496,9730967,10222487,1891,2137,-326,-758,-2440,596,-670,3913,60,24,861
1285157,9728012,10220652,9731164,10222684,1918,2081,-224,-821,-2432,146,-686,3305,60,26,863
1286157,9728288,10220800,9731361,10222881,1734,2153,-101,-923,-2378,-45,-250,3398,60,26,863
1287159,9728576,10220956,9731558,10223078,1619,2121,-38,-1178,-2315,-34,-368,2249,42,25,862
1288160,9728828,10221080,9731755,10223275,1821,2354,-1,-1414,-2272,62,-367,2427,42,25,862
1289161,9729132,10221220,9731952,10223472,1449,2279,53,-1487,-2205,-265,-783,3190,45,36,863
1290162,9729380,10221340,9732149,10223669,1777,2439,69,-1474,-2159,153,-214,2767,45,36,863
1291163,9729664,10221472,9732346,10223866,1514,2393,73,-1434,-2133,383,-265,2564,43,21,862
1292164,9729964,10221604,9732543,10224063,1370,2422,45,-1407,-2095,251,-547,3075,43,21,862
1293165,9730232,10221728,9732740,10224260,1539,2504,111,-1324,-2038,41,-661,3352,59,34,860
1294166,9730500,10221880,9732937,10224457,1508,2350,142,-1410,-1981,144,-423,2542,59,34,860
1295167,9730796,10221992,9733134,10224654,1290,2637,171,-1600,-1949,601,197,2184,67,22,861
1296168,9731076,10222120,9733331,10224851,1354,2569,203,-1769,-1884,108,162,2850,67,22,861
1297169,9731356,10222260,9733528,10225048,1318,2519,161,-1959,-1797,-208,158,2135,52,30,862
1298170,9731624,10222400,9733725,10225245,1363,2545,108,-1982,-1754,296,237,2742,52,30,862
1299171,9731928,10222544,9733922,10225442,1091,2543,12,-1926,-1756,487,118,2942,60,31,862
1300172,9732204,10222688,9734119,10225639,1231,2567,-35,-1807,-1762,410,-484,3010,60,31,862
1301173,9732444,10222824,9734316,10225836,1438,2644,3,-1839,-1739,88,-78,3328,49,26,863
1302173,9732748,10222996,9734513,10226033,991,2431,74,-2011,-1697,144,-89,2234,49,26,863
1303174,9733004,10223164,9734710,10226230,1266,2469,128,-2312,-1610,241,-71,2596,63,31,860
1304176,9733280,10223340,9734907,10226427,1106,2429,239,-2464,-1484,-66,50,3077,63,31,860
1305177,9733516,10223524,9735104,10226624,1339,2386,236,-2708,-1345,-22,221,2088,48,42,863
1306178,9733768,10223704,9735301,10226821,1215,2418,245,-2737,-1237,6,696,3061,48,42,863
1307179,9733984,10223876,9735498,10227018,1433,2480,119,-2713,-1165,24,274,2733,40,36,864
1308180,9734232,10224060,9735695,10227215,1210,2411,25,-2590,-1110,243,548,3181,40,36,864
1309181,9734468,10224248,9735892,10227412,1268,2391,-57,-2576,-1083,519,399,3382,42,44,862
1310182,9734732,10224432,9736089,10227609,1065,2423,-80,-2679,-1085,555,751,3127,42,44,862
1311182,9734960,10224648,9736286,10227806,1276,2214,-63,-2882,-1066,280,796,3687,47,34,863
1312184,9735212,10224828,9736483,10228003,1102,2448,-65,-3178,-989,-18,292,3014,47,34,863
1313185,9735436,10225040,9736680,10228200,1265,2241,-62,-3399,-892,141,829,3702,56,52,863
1314186,9735672,10225236,9736877,10228397,1174,2343,-122,-3623,-815,253,931,2896,56,52,863
1315187,9735956,10225424,9737074,10228594,836,2398,-174,-3768,-719,-6,868,3374,54,37,863
1316188,9736204,10225644,9737271,10228791,1038,2187,-174,-3880,-642,318,816,3961,54,37,863
1317189,9736464,10225888,9737468,10228988,936,2018,-205,-4009,-605,371,917,2858,62,51,865
1318189,9736748,10226084,9737665,10229185,747,2318,-260,-4086,-530,135,912,3565,62,51,865
1319190,9736960,10226280,9737862,10229382,1192,2320,-327,-4141,-449,392,590,3353,38,45,867
1320192,9737196,10226464,9738059,10229579,1025,2401,-360,-4186,-383,487,386,3269,38,45,867
1321193,9737456,10226652,9738256,10229776,847,2380,-352,-4184,-245,-38,67,3999,39,37,865
1322194,9737684,10226892,9738453,10229973,1033,2037,-352,-4015,-178,1471,279,4476,39,37,865
1323195,9737920,10227104,9738650,10230170,966,2206,-439,-3903,-175,1607,242,3224,52,51,865
1324196,9738180,10227324,9738847,10230367,789,2147,-508,-3685,27,-304,501,4462,52,51,865
1325197,9738356,10227544,9739044,10230564,1323,2137,-514,-3486,215,1087,470,4677,54,36,866
1326198,9738572,10227720,9739241,10230761,1065,2422,-505,-3302,270,2004,-47,4249,54,36,866
1327198,9738780,10227908,9739438,10230958,1111,2352,-525,-3320,367,1071,366,3548,50,36,865
1328200,9738972,10228132,9739635,10231155,1213,2115,-550,-3458,478,1440,-166,3730,50,36,865
1329201,9739140,10228352,9739832,10231352,1376,2131,-545,-3537,525,2185,-606,4252,46,50,864
1330202,9739312,10228564,9740029,10231549,1362,2174,-537,-3595,606,1393,-410,4100,46,50,864
1331203,9739536,10228780,9740226,10231746,1025,2142,-518,-3589,720,1244,-159,4468,41,53,865
1332204,9739712,10228988,9740423,10231943,1334,2187,-488,-3356,745,2458,-551,5655,41,53,865
1333205,9739872,10229240,9740620,10232140,1450,1889,-509,-3099,723,2653,-1317,4720,40,50,863
1334206,9740080,10229440,9740817,10232337,1146,2214,-521,-2833,783,1898,-1136,5241,40,50,863
1335207,9740236,10229660,9741014,10232534,1489,2078,-510,-2631,850,2256,-1109,5129,25,31,864
1336208,9740396,10229856,9741211,10232731,1481,2230,-486,-2558,908,2087,-2083,4522,25,31,864
1337209,9740564,10230032,9741408,10232928,1443,2364,-470,-2539,959,2307,-1807,4896,28,45,862
1338210,9740728,10230200,9741605,10233125,1483,2428,-468,-2426,1002,2320,-2096,4825,28,45,862
1339211,9740876,10230384,9741802,10233322,1604,2334,-513,-2348,1031,2089,-1851,4204,29,29,864
1340219,9741032,10230564,9742032,10233552,1588,2382,-561,-2247,1088,1638,-1974,4662,29,29,864
1341212,9741168,10230724,9742229,10233749,1740,2523,-573,-2080,1120,1733,-1864,5013,20,33,862
1342213,9741304,10230920,9742426,10233946,1767,2299,-558,-1931,1135,1558,-2173,4888,20,33,862
