"Data file recorded 2014/9/22  16:5:2"
"%  Right Stride Frequency         = 3.0"
"%  Left Stride Frequency         = 3.0"
"%  Phase (Fractional)         = 32768.0"
"%  Experiment.py "
"%  Motor Gains    = [1800, 200, 100, 0, 0, 1800, 200, 100, 0, 0]
"% Columns: "
"% time | Right Leg Pos | Left Leg Pos | Commanded Right Leg Pos | Commanded Left Leg Pos | DCR | DCL | GyroX | GryoY | GryoZ | AX | AY | AZ | RBEMF | LBEMF | VBatt "
10966,5289004,5641328,5268566,5694550,-3800,3800,-27,185,-229,256,-118,4120,5,7,832
11959,5289008,5641364,5268763,5694747,-3800,3800,-29,185,-231,242,-88,4171,1,-6,832
12960,5289016,5641352,5268960,5694944,-3800,3800,-28,179,-226,254,-65,4084,1,-6,832
13961,5288900,5641416,5269157,5695141,-3800,3800,-27,161,-227,269,-78,4085,-1,18,794
14962,5288648,5641572,5269354,5695338,-3800,3800,-33,183,-239,214,-28,4119,-1,18,794
15963,5288488,5641716,5269551,5695535,-3800,3800,-60,194,-264,158,64,4064,-30,22,794
16964,5288136,5641888,5269748,5695732,-3800,3800,-109,197,-284,144,150,4070,-30,22,794
17965,5287712,5642020,5269945,5695929,-3800,3800,-165,166,-293,100,255,3993,-54,15,795
18954,5287288,5642148,5270142,5696126,-3684,3800,-228,113,-277,290,422,4017,-54,15,795
19955,5286836,5642308,5270339,5696323,-3227,3800,-278,-22,-241,632,649,3734,-86,27,796
20956,5286336,5642512,5270536,5696520,-2624,3800,-339,-137,-161,1094,233,3815,-86,27,796
21957,5285780,5642676,5270733,5696717,-1946,3800,-393,-268,-39,1357,-101,3635,-101,23,798
22957,5285276,5642836,5270930,5696914,-1966,3800,-436,-375,109,1566,-31,3798,-101,23,798
23958,5284792,5643024,5271127,5697111,-1795,3800,-459,-491,233,1748,163,3762,-91,32,803
24960,5284272,5643232,5271324,5697308,-1258,3800,-471,-652,313,1972,265,3672,-91,32,803
25960,5283792,5643376,5271521,5697505,-1212,3800,-505,-755,333,2061,756,3870,-91,18,804
26962,5283384,5643548,5271718,5697702,-1399,3800,-589,-744,277,1828,1102,4267,-91,18,804
27963,5282960,5643676,5271915,5697899,-1028,3800,-696,-581,167,1511,1163,4546,-83,15,807
28964,5282596,5643820,5272112,5698096,-1159,3800,-761,-371,14,1291,1475,4645,-83,15,807
29965,5282292,5643936,5272309,5698293,-1316,3800,-794,-53,-158,1292,1334,5052,-47,20,807
30966,5282040,5644048,5272506,5698490,-1445,3800,-805,286,-275,1341,510,5210,-47,20,807
31966,5281796,5644160,5272703,5698687,-1303,3800,-823,689,-268,1338,-422,5557,-39,13,807
32968,5281600,5644236,5272900,5698884,-1432,3800,-842,1088,-179,1327,-733,5409,-39,13,807
33969,5281448,5644320,5273097,5699081,-1555,3800,-869,1472,-34,1424,-859,5390,-21,19,806
34969,5281272,5644388,5273294,5699278,-1243,3800,-899,1864,155,1513,-766,5290,-21,19,806
35970,5281152,5644480,5273491,5699475,-1455,3800,-960,2163,392,1484,-619,5095,-15,18,802
36971,5281080,5644576,5273688,5699672,-1639,3800,-1016,2441,662,1343,-445,5155,-15,18,802
37972,5280968,5644620,5273885,5699869,-1254,3800,-1070,2637,908,1127,123,4829,-28,15,805
38973,5280888,5644668,5274082,5700066,-1333,3800,-1111,2830,1053,868,895,4865,-28,15,805
39974,5280864,5644724,5274279,5700263,-1588,3800,-1152,3041,1108,566,1066,4789,-19,15,804
40975,5280812,5644780,5274476,5700460,-1305,3800,-1187,3247,1135,397,725,4886,-19,15,804
41976,5280784,5644868,5274673,5700657,-1357,3800,-1222,3514,1160,199,446,5074,4,1,805
42977,5280764,5644940,5274870,5700854,-1313,3800,-1244,3784,1171,0,220,5129,4,1,805
43979,5280768,5644972,5275067,5701051,-1379,3800,-1256,4108,1151,-187,-194,5487,-10,3,805
44980,5280740,5645016,5275264,5701248,-1081,3800,-1253,4468,1092,-365,-561,5561,-10,3,805
45980,5280736,5645076,5275461,5701445,-1145,3800,-1222,4851,969,-579,-588,5632,-1,0,805
46981,5280736,5645136,5275658,5701642,-1084,3800,-1170,5222,756,-746,-539,5473,-1,0,805
47982,5280736,5645204,5275855,5701839,-997,3800,-1114,5454,470,-868,-576,5337,-7,16,805
48983,5280716,5645276,5276052,5702036,-778,3800,-1068,5584,140,-937,-511,5068,-7,16,805
49985,5280736,5645332,5276249,5702233,-951,3800,-1020,5518,-181,-871,-387,4633,4,18,806
50985,5280732,5645400,5276446,5702430,-714,3800,-1002,5363,-444,-818,-372,4499,4,18,806
51986,5280736,5645456,5276643,5702627,-680,3800,-1023,5108,-664,-765,-261,4206,5,19,807
52987,5280732,5645544,5276840,5702824,-543,3800,-1061,4781,-862,-768,-171,3981,5,19,807
53988,5280732,5645648,5277037,5703021,-482,3800,-1057,4302,-1043,-751,-31,3491,-8,20,807
54989,5280744,5645744,5277234,5703218,-476,3800,-981,3645,-1202,-787,-3,3065,-8,20,807
55990,5280744,5645836,5277431,5703415,-315,3800,-832,2816,-1323,-903,51,2681,9,12,808
56992,5280740,5645932,5277628,5703612,-203,3800,-637,1911,-1391,-1007,24,2432,9,12,808
57992,5280744,5646044,5277825,5703809,-168,3800,-422,990,-1378,-1177,-224,2530,7,26,807
58993,5280744,5646172,5278022,5704006,-58,3800,-224,102,-1273,-1593,-378,2613,7,26,807
59995,5280768,5646252,5278219,5704203,-132,3800,-7,-1610,-1027,-3574,-466,1150,14,11,808
60995,5280776,5646388,5278416,5704400,50,3800,231,-4150,-678,-4088,-725,1165,14,11,808
61996,5280788,5646512,5278613,5704597,107,3800,382,-5220,-317,-2707,-916,4994,10,16,810
62997,5280816,5646648,5278810,5704794,80,3800,495,-4934,52,-2162,-613,5800,10,16,810
63998,5280844,5646816,5279007,5704991,154,3800,639,-4277,380,-2248,-335,6122,15,38,810
64999,5280876,5646960,5279204,5705188,202,3800,836,-3805,625,-2738,-100,6134,15,38,810
66000,5280932,5647124,5279401,5705385,113,3800,1105,-3671,836,-2961,203,5710,7,31,810
67001,5280984,5647296,5279598,5705582,201,3800,1368,-3404,1019,-2707,385,6041,7,31,810
68003,5281076,5647472,5279795,5705779,-2,3800,1616,-3142,1171,-2731,620,5561,22,42,810
69003,5281116,5647676,5279992,5705976,392,3800,1822,-2808,1294,-2917,508,6129,22,42,810
70004,5281196,5647844,5280189,5706173,192,3800,2005,-2535,1410,-2629,254,5651,11,39,809
71005,5281292,5648008,5280386,5706370,136,3800,2211,-2333,1564,-2044,231,5301,11,39,809
72006,5281364,5648172,5280583,5706567,341,3800,2417,-2195,1747,-1611,29,4820,9,26,810
73007,5281480,5648324,5280780,5706764,102,3800,2606,-2249,1933,-1426,-163,4381,9,26,810
74008,5281584,5648500,5280977,5706961,218,3800,2780,-2309,2113,-1171,-323,4267,12,26,810
75009,5281704,5648680,5281174,5707158,152,3800,2943,-2463,2252,-642,-237,3822,12,26,810
76010,5281824,5648860,5281371,5707355,184,3800,3085,-2583,2330,-344,-138,3817,29,45,810
77011,5281912,5649032,5281568,5707552,432,3800,3224,-2793,2350,-284,-32,3407,29,45,810
78012,5282020,5649216,5281765,5707749,346,3800,3343,-2984,2317,-18,81,3513,32,40,810
79013,5282140,5649396,5281962,5707946,305,3800,3441,-3072,2254,250,297,3587,32,40,810
80014,5282264,5649588,5282159,5708143,312,3800,3503,-3068,2163,375,389,3713,33,27,809
81015,5282404,5649760,5282356,5708340,237,3800,3534,-3039,2051,329,478,3728,33,27,809
82016,5282540,5649956,5282553,5708537,289,3800,3527,-2987,1942,314,252,3909,21,41,809
83017,5282664,5650160,5282750,5708734,396,3800,3486,-2804,1813,473,138,4020,21,41,809
84018,5282792,5650328,5282947,5708931,402,3800,3420,-2607,1630,512,38,3902,24,27,811
85019,5282932,5650532,5283144,5709128,352,3800,3327,-2305,1431,430,-290,4114,24,27,811
86020,5283056,5650748,5283341,5709325,484,3800,3213,-2021,1259,416,-524,4003,40,32,810
87021,5283192,5650932,5283538,5709522,436,3800,3093,-1666,1138,481,-770,4125,40,32,810
88022,5283312,5651116,5283735,5709719,569,3800,2987,-1292,1080,566,-1008,3962,36,32,810
89023,5283472,5651292,5283932,5709916,337,3800,2885,-930,1044,495,-983,3775,36,32,810
90024,5283588,5651484,5284129,5710113,647,3800,2765,-615,1005,402,-1069,3624,40,35,811
91025,5283748,5651724,5284326,5710310,389,3800,2618,-319,956,386,-1136,3317,40,35,811
92026,5283880,5651972,5284523,5710507,592,3800,2458,-114,892,392,-1176,2946,41,42,809
93034,5284032,5652192,5284950,5710934,588,3800,2303,47,828,344,-1266,2706,41,42,809
94028,5284172,5652404,5285147,5711131,688,3800,2164,136,785,257,-1391,2446,25,50,810
95029,5284304,5652620,5285344,5711328,767,3800,2031,178,761,194,-1459,2167,25,50,810
96030,5284464,5652900,5285541,5711525,608,3800,1887,244,741,207,-1585,2137,25,57,810
97031,5284588,5653192,5285738,5711722,866,3800,1724,305,716,121,-1654,1909,25,57,810
98032,5284736,5653448,5285935,5711919,737,3800,1545,353,701,19,-1744,1907,22,50,809
99033,5284888,5653712,5286132,5712116,732,3800,1369,420,734,14,-1783,1859,22,50,809
100034,5285008,5653976,5286329,5712313,966,3800,1219,438,795,27,-1587,1668,22,60,808
101035,5285164,5654300,5286526,5712510,760,3800,1091,452,858,77,-1533,1711,22,60,808
102036,5285292,5654616,5286723,5712707,965,3800,981,416,933,131,-1633,1481,28,49,809
103037,5285420,5654980,5286920,5712904,996,3800,868,350,993,166,-1135,1433,28,49,809
104038,5285560,5655300,5287117,5713101,946,3800,758,280,1042,296,-852,1323,31,72,809
105039,5285656,5655660,5287314,5713298,1266,3800,669,183,1110,405,-759,1334,31,72,809
106040,5285804,5656080,5287511,5713495,963,3800,589,111,1186,553,-586,1473,42,63,810
107041,5285936,5656476,5287708,5713692,1091,3800,475,56,1249,676,-382,1762,42,63,810
108042,5286108,5656932,5287905,5713889,853,3800,325,23,1301,849,-313,1742,28,87,809
109043,5286216,5657456,5288102,5714086,1292,3800,176,-55,1363,1127,-344,1628,28,87,809
110044,5286368,5657940,5288299,5714283,1037,3800,52,-187,1431,1335,-307,1483,30,102,811
111045,5286492,5658516,5288496,5714480,1245,3800,-66,-354,1497,1587,-405,1465,30,102,811
112046,5286648,5659072,5288693,5714677,1063,3800,-195,-518,1568,1739,-665,1533,50,91,811
113047,5286768,5659672,5288890,5714874,1323,3800,-337,-756,1605,1791,-583,1493,50,91,811
114048,5286948,5660444,5289087,5715071,955,3800,-478,-969,1527,1911,108,1565,31,114,810
115049,5287108,5661056,5289284,5715268,1097,3800,-603,-1154,1371,1959,386,1669,31,114,810
116050,5287268,5661800,5289481,5715465,1114,3800,-729,-1232,1196,1917,431,2077,51,126,811
117051,5287452,5662452,5289678,5715662,970,3800,-854,-1172,1022,1948,380,2509,51,126,811
118052,5287628,5663268,5289875,5715859,1030,3800,-998,-1014,857,1946,455,2839,33,126,814
119053,5287780,5664100,5290072,5716056,1200,3800,-1151,-780,718,2053,60,3187,33,126,814
120054,5287964,5664884,5290269,5716253,1005,3800,-1305,-483,581,2027,184,3508,30,156,813
121055,5288116,5665708,5290466,5716450,1226,3800,-1433,-129,421,1903,657,3690,30,156,813
122056,5288272,5666520,5290663,5716647,1219,3800,-1527,251,260,1910,581,3811,54,167,814
123057,5288456,5667424,5290860,5716844,1051,3800,-1597,706,110,1933,705,4083,54,167,814
124058,5288628,5668264,5291057,5717041,1137,3800,-1689,1231,-22,1973,811,4429,39,158,813
125059,5288776,5669288,5291254,5717238,1309,3800,-1779,1773,-142,2010,676,4449,39,158,813
126060,5288952,5670136,5291451,5717435,1144,3800,-1840,2260,-239,2081,300,4344,53,166,814
127061,5289116,5670980,5291648,5717632,1234,3800,-1887,2674,-336,2305,303,4193,53,166,814
128062,5289276,5671832,5291845,5717829,1275,3800,-1909,2972,-468,2467,50,3777,37,162,813
129063,5289460,5672544,5292042,5718026,1132,3800,-1879,3059,-618,2426,-160,3164,37,162,813
130064,5289640,5673476,5292239,5718223,1165,3800,-1804,3021,-770,2456,-185,2865,33,160,814
131065,5289796,5674260,5292436,5718420,1334,3800,-1699,2886,-948,2257,-8,2542,33,160,814
132066,5290008,5674984,5292633,5718617,977,3800,-1569,2742,-1194,1948,472,2575,37,151,814
133067,5290156,5675740,5292830,5718814,1400,3800,-1463,2659,-1497,1672,548,2795,37,151,814
134068,5290332,5676448,5293027,5719011,1234,3800,-1335,2701,-1805,1424,74,3086,49,148,813
135069,5290496,5677164,5293224,5719208,1324,3800,-1232,2863,-2061,1200,-500,3432,49,148,813
136070,5290700,5677904,5293421,5719405,1071,3800,-1147,3137,-2261,967,-721,3698,44,146,812
137071,5290848,5678604,5293618,5719602,1444,3800,-1123,3459,-2399,797,-1180,3852,44,146,812
138072,5290996,5679292,5293815,5719799,1465,3800,-1147,3720,-2539,448,-288,3678,35,143,813
139073,5291160,5679968,5294012,5719996,1381,3800,-1228,3944,-2683,149,76,3642,35,143,813
140074,5291336,5680600,5294209,5720193,1315,3800,-1341,4028,-2816,-207,432,3210,45,128,812
141075,5291472,5681280,5294406,5720390,1593,3800,-1485,3956,-3057,-699,1384,2833,45,128,812
142076,5291656,5681848,5294603,5720587,1299,3800,-1660,3778,-3516,-1288,2046,2574,51,125,812
143077,5291768,5682488,5294800,5720784,1787,3800,-1836,3493,-4147,-1759,2320,2372,51,125,812
144078,5291908,5683112,5294997,5720981,1638,3800,-2013,3184,-4758,-1811,1946,2600,44,112,810
145079,5292052,5683752,5295194,5721178,1636,3800,-2201,2955,-5037,-1441,1005,3057,44,112,810
146080,5292156,5684344,5295391,5721375,1928,3800,-2366,2720,-4822,-954,-231,2890,25,104,808
147081,5292296,5684984,5295588,5721572,1728,3800,-2474,2393,-4120,-622,-961,2903,25,104,808
148082,5292432,5685588,5295785,5721769,1781,3800,-2531,1825,-3148,-521,-389,2126,35,108,808
149083,5292528,5686192,5295982,5721966,2076,3800,-2462,973,-2073,-555,-205,1449,35,108,808
150084,5292632,5686860,5296179,5722163,2067,3800,-2293,-24,-935,-666,-666,1396,39,110,809
151085,5292720,5687460,5296376,5722360,2216,3800,-2030,-1107,207,-833,-1084,1387,39,110,809
152086,5292800,5688068,5296573,5722557,2319,3800,-1768,-2140,1274,-874,-1061,1640,31,108,808
153087,5292860,5688728,5296770,5722754,2504,3800,-1615,-3020,2239,-839,-1202,2334,31,108,808
154088,5292952,5689488,5296967,5722951,2351,3800,-1597,-3682,3107,-805,-1487,3159,13,120,806
155089,5293020,5690072,5297164,5723148,2559,3800,-1687,-4133,3883,-677,-1470,3866,13,120,806
156090,5293100,5690800,5297361,5723345,2536,3800,-1858,-4494,4573,-313,-1226,4314,32,146,806
157091,5293208,5691540,5297558,5723542,2400,3800,-2038,-4802,5147,123,-913,4714,32,146,806
158092,5293316,5692488,5297755,5723739,2440,3800,-2287,-4841,5604,346,-938,5833,20,167,806
159093,5293412,5693412,5297952,5723936,2561,3800,-2815,-4207,6100,473,-1925,8329,20,167,806
160094,5293552,5694256,5298149,5724133,2312,3800,-3174,-3696,6541,418,-1543,7095,24,172,808
161095,5293700,5695200,5298346,5724330,2284,3800,-3256,-3299,6759,456,-462,7591,24,172,808
162096,5293788,5696124,5298543,5724527,2708,3800,-3249,-2869,6719,469,955,8313,39,183,808
163097,5293932,5697100,5298740,5724724,2382,3800,-3254,-2208,6513,687,1813,9279,39,183,808
164098,5294068,5698092,5298937,5724921,2460,3800,-3295,-1451,6192,809,2068,9525,45,200,810
165099,5294196,5698992,5299134,5725118,2542,3800,-2597,532,5706,2358,2578,20117,45,200,810
166100,5294348,5699924,5299331,5725315,2411,3800,456,7944,4641,8766,4467,32767,48,190,810
167101,5294512,5700808,5299528,5725512,2352,3800,3217,14167,3492,5743,3660,32237,48,190,810
168102,5294672,5701676,5299725,5725709,2394,3800,3513,14939,2674,2720,3589,6050,49,187,807
169103,5294836,5702628,5299922,5725906,2385,3800,2660,12315,2016,3161,2974,2289,49,187,807
170104,5295036,5703428,5300119,5726103,2159,3800,2027,9615,1307,2859,2823,1632,48,179,809
171105,5295236,5704244,5300316,5726300,2159,3800,1951,7367,597,2456,3196,454,48,179,809
172106,5295428,5704988,5300513,5726497,2212,3800,1998,5433,24,2799,3287,882,40,171,809
173107,5295648,5705716,5300710,5726694,2028,3800,2001,3976,-244,3178,2788,2003,40,171,809
174108,5295848,5706428,5300907,5726891,2153,3800,1955,2674,-194,3092,2157,2861,57,155,810
175109,5296044,5707092,5301104,5727088,2179,3800,1800,1806,-31,2537,1357,4263,57,155,810
176117,5296292,5707772,5301334,5727318,1847,3800,1589,970,79,1324,1155,4304,61,125,809
177111,5296532,5708376,5301531,5727515,1879,3800,1278,447,2,302,1044,5286,61,125,809
178112,5296732,5708940,5301728,5727712,2129,3800,919,69,-283,-774,911,5318,62,124,808
179113,5296968,5709460,5301925,5727909,1888,3800,561,-71,-590,-2209,461,6249,62,124,808
180114,5297200,5710004,5302122,5728106,1898,3800,268,34,-880,-3243,623,6666,57,107,807
181115,5297420,5710516,5302319,5728303,1964,3800,30,367,-1149,-3966,933,7432,57,107,807
182116,5297640,5710988,5302516,5728500,1955,3800,-84,841,-1432,-4894,1414,7154,61,103,807
183117,5297876,5711400,5302713,5728697,1839,3800,-101,1035,-1710,-5697,1114,6614,61,103,807
184118,5298064,5711772,5302910,5728894,2144,3800,-32,-276,-1686,-12434,131,4458,40,79,807
185119,5298252,5712136,5303107,5729091,2149,3800,233,-3899,-1120,-16427,-1727,2368,40,79,807
186120,5298432,5712472,5303304,5729288,2207,3800,385,-5632,-398,-8239,-1995,6929,35,63,806
187121,5298608,5712764,5303501,5729485,2242,3800,343,-4776,388,-4794,-1684,7940,35,63,806
188122,5298796,5713080,5303698,5729682,2172,3800,275,-3450,1176,-4027,-1145,6536,45,58,805
189123,5299008,5713356,5303895,5729879,2016,3800,402,-3484,1877,-5109,-884,4233,45,58,805
190124,5299196,5713580,5304092,5730076,2171,3800,751,-4667,2537,-5416,-446,3041,36,58,802
191125,5299356,5713844,5304289,5730273,2363,3800,1161,-5572,3146,-4176,20,3069,36,58,802
192126,5299532,5714068,5304486,5730470,2274,3800,1542,-6287,3658,-4202,-74,2091,44,52,803
193127,5299660,5714332,5304683,5730667,2605,3800,1923,-7322,4091,-5213,-479,2121,44,52,803
194128,5299792,5714580,5304880,5730864,2609,3800,2223,-8216,4440,-4275,-889,3097,40,60,801
195129,5299960,5714840,5305077,5731061,2398,3800,2401,-8456,4777,-2477,-1314,3877,40,60,801
196130,5300096,5715124,5305274,5731258,2626,3800,2519,-8316,5160,-2190,-2118,4250,23,55,801
197131,5300268,5715412,5305471,5731455,2413,3800,2542,-8425,5548,-2568,-3132,4478,23,55,801
198132,5300480,5715744,5305668,5731652,2157,3800,2528,-8411,5855,-2096,-3018,4957,33,65,802
199133,5300640,5716076,5305865,5731849,2500,3800,2524,-8176,5953,-1102,-2363,4454,33,65,802
200134,5300780,5716432,5306062,5732046,2651,3800,2555,-7903,5829,-1137,-2195,4205,48,62,802
201135,5300956,5716760,5306259,5732243,2436,3800,2636,-8068,5615,-1504,-2176,3673,48,62,802
202136,5301100,5717124,5306456,5732440,2660,3800,2727,-8246,5368,-478,-2090,3694,32,80,801
203137,5301256,5717544,5306653,5732637,2604,3800,2771,-8108,5098,647,-1840,3673,32,80,801
204138,5301420,5717936,5306850,5732834,2570,3800,2756,-7939,4822,630,-1859,3544,35,86,803
205139,5301584,5718364,5307047,5733031,2585,3800,2714,-7983,4579,472,-2301,3545,35,86,803
206140,5301776,5718856,5307244,5733228,2413,3800,2663,-7923,4442,1105,-2545,4036,34,88,802
207141,5302004,5719316,5307441,5733425,2176,3800,2597,-7588,4346,1715,-2375,4114,34,88,802
208142,5302208,5719824,5307638,5733622,2324,3800,2533,-7265,4214,1615,-2247,3861,36,89,803
209143,5302400,5720348,5307835,5733819,2402,3800,2508,-7115,4070,1325,-2138,3837,36,89,803
210144,5302596,5720836,5308032,5734016,2378,3800,2486,-6939,3956,1873,-1867,3949,35,86,806
211145,5302852,5721392,5308229,5734213,1978,3800,2409,-6493,3866,2655,-1607,4124,35,86,806
212146,5303084,5721984,5308426,5734410,2114,3800,2302,-6003,3805,2693,-1392,4017,41,105,804
213147,5303364,5722644,5308623,5734607,1779,3800,2214,-5663,3747,2291,-1301,3805,41,105,804
214148,5303648,5723296,5308820,5734804,1716,3800,2146,-5227,3724,2307,-1324,4169,48,131,806
215136,5303932,5724008,5309017,5735001,1679,3287,2099,-4585,3733,2551,-1222,4109,48,131,806
216137,5304192,5724712,5309214,5735198,1802,3117,2070,-3851,3729,2595,-974,4019,72,127,809
217138,5304464,5725520,5309411,5735395,1695,2200,2041,-3106,3693,2307,-920,4073,72,127,809
218139,5304788,5726372,5309608,5735592,1316,1639,2007,-2211,3632,2117,-792,4415,74,149,814
219140,5305092,5727136,5309805,5735789,1395,1942,1976,-1186,3520,2119,-606,4344,74,149,814
220141,5305404,5727904,5310002,5735986,1295,1668,1933,-227,3311,1958,-375,4022,75,147,818
221142,5305656,5728632,5310199,5736183,1647,1686,1889,622,3028,1648,-792,3639,75,147,818
222143,5305984,5729392,5310396,5736380,1115,1240,1874,1362,2710,1554,-1082,3298,56,131,820
223144,5306276,5730100,5310593,5736577,1299,1342,1873,2066,2399,1542,-1221,2989,56,131,820
224145,5306568,5730816,5310790,5736774,1258,1065,1884,2781,2155,1635,-1409,2843,62,132,819
225146,5306848,5731548,5310987,5736971,1297,731,1901,3527,2025,1732,-1704,2851,62,132,819
226147,5307124,5732168,5311184,5737168,1289,1246,1977,5074,2105,1586,-1639,2840,74,132,823
227148,5307444,5732796,5311381,5737365,961,1007,2090,5792,2226,1687,-1422,2346,74,132,823
228149,5307720,5733412,5311578,5737562,1201,899,2277,6293,2337,1771,-1097,1564,71,118,824
229150,5307984,5734088,5311775,5737759,1247,315,2516,6521,2378,1783,-789,688,71,118,824
230151,5308292,5734672,5311972,5737956,925,721,2788,6476,2345,1731,-649,-5,50,111,825
231152,5308592,5735108,5312169,5738153,930,1541,3014,6333,2294,1812,-524,-257,50,111,825
232153,5308848,5735620,5312366,5738350,1179,928,3205,6256,2298,2167,-579,-36,71,91,825
233155,5309104,5736060,5312563,5738547,1155,1271,3405,6084,2332,1982,-752,-689,71,91,825
234155,5309392,5736460,5312760,5738744,916,1433,3622,5848,2397,2167,-439,-698,47,84,822
235156,5309596,5736892,5312957,5738941,1438,1130,3792,5604,2535,2554,-182,-874,47,84,822
236157,5309880,5737236,5313154,5739138,900,1616,3974,5200,2636,2139,-68,-1682,41,67,823
237158,5310072,5737592,5313351,5739335,1477,1471,4173,4795,2579,1828,587,-1712,41,67,823
238159,5310272,5737840,5313548,5739532,1427,2124,4342,4411,2454,2089,814,-1899,32,61,822
239160,5310484,5738160,5313745,5739729,1347,1621,4408,4043,2311,2050,737,-1916,32,61,822
240161,5310692,5738436,5313942,5739926,1367,1861,4331,3921,2063,1468,657,-1140,52,52,821
241162,5310900,5738708,5314139,5740123,1363,1853,4144,4122,1713,1125,752,-574,52,52,821
242163,5311116,5738944,5314336,5740320,1306,2062,3878,4487,1281,861,1123,-72,35,50,820
243164,5311304,5739172,5314533,5740517,1484,2099,3566,4874,757,602,1464,-213,35,50,820
244165,5311492,5739412,5314730,5740714,1489,2005,3206,5103,155,608,1957,-636,39,49,819
245166,5311672,5739668,5314927,5740911,1547,1879,2873,5126,-489,701,2520,-1200,39,49,819
246167,5311884,5739900,5315124,5741108,1341,2014,2593,4957,-1099,771,2564,-1723,49,38,817
247168,5312100,5740096,5315321,5741305,1309,2240,2344,4689,-1601,1042,2362,-1919,49,38,817
248169,5312264,5740304,5315518,5741502,1648,2160,2052,4417,-1997,1263,2250,-1849,45,49,818
249170,5312444,5740508,5315715,5741699,1557,2182,1705,4024,-2278,1506,1620,-2255,45,49,818
250171,5312620,5740736,5315912,5741896,1591,2018,1358,3373,-2454,1602,1136,-3017,26,51,817
251172,5312768,5740952,5316109,5742093,1789,2086,1058,2421,-2541,1745,981,-3507,26,51,817
252173,5312912,5741148,5316306,5742290,1838,2211,791,1329,-2552,2007,745,-3770,42,50,816
253174,5313052,5741368,5316503,5742487,1888,2051,531,239,-2443,2237,484,-3672,42,50,816
254175,5313176,5741564,5316700,5742684,2021,2202,273,-771,-2207,2510,353,-3608,39,49,816
255176,5313292,5741788,5316897,5742881,2108,2016,-48,-1783,-1907,2669,379,-3501,39,49,816
256178,5313424,5741980,5317094,5743078,2036,2218,-442,-2751,-1565,2770,240,-3094,36,38,815
257179,5313564,5742196,5317291,5743275,2012,2060,-897,-3548,-1162,3023,-295,-2464,36,38,815
258179,5313668,5742416,5317488,5743472,2279,2025,-1420,-4122,-670,3175,-686,-1834,18,52,813
259190,5313824,5742664,5317718,5743702,1988,1842,-1963,-4530,-136,3164,-1026,-1301,18,52,813
260181,5313968,5742892,5317915,5743899,2086,1954,-2679,-4496,451,3194,-1766,518,21,48,814
261183,5314048,5743100,5318112,5744096,2538,2074,-4358,-2932,1171,3131,-3767,6274,21,48,814
262183,5314192,5743264,5318309,5744293,2163,2364,-5983,-1645,1863,2893,-4352,2242,22,44,815
263184,5314336,5743452,5318506,5744490,2187,2218,-7107,-1409,2226,3413,-2335,872,22,44,815
264185,5314428,5743640,5318703,5744687,2558,2222,-8075,-1568,2324,3614,-2290,1279,14,47,811
265187,5314552,5743852,5318900,5744884,2391,2065,-9023,-2038,2232,3636,-1956,51,14,47,811
266187,5314700,5744068,5319097,5745081,2264,2033,-9486,-3272,1985,3832,-793,-2650,17,36,813
267189,5314828,5744264,5319294,5745278,2420,2158,-9482,-5147,1692,4374,-818,-3615,17,36,813
268189,5314956,5744428,5319491,5745475,2451,2373,-9528,-6707,1503,5037,-1702,-1463,19,44,811
269190,5315112,5744580,5319688,5745672,2295,2467,-9726,-7565,1450,5254,-2524,174,19,44,811
270191,5315232,5744740,5319885,5745869,2554,2434,-9922,-7876,1467,5281,-3279,1580,39,42,811
271192,5315380,5744916,5320082,5746066,2402,2344,-10063,-7817,1509,5253,-3930,3117,39,42,811
272193,5315560,5745084,5320279,5746263,2210,2407,-10188,-7222,1533,5397,-3903,5333,27,32,810
273195,5315776,5745240,5320476,5746460,1978,2500,-10517,-5694,1516,5562,-3553,8782,27,32,810
274196,5315932,5745408,5320673,5746657,2372,2437,-10742,-4091,1421,4899,-3599,7991,32,36,810
275197,5316152,5745572,5320870,5746854,1963,2478,-10748,-2567,1172,4167,-2810,8742,32,36,810
276197,5316332,5745748,5321067,5747051,2221,2412,-10576,-1151,738,3786,-1911,8982,43,37,811
277199,5316528,5745900,5321264,5747248,2123,2582,-10221,127,138,3518,-1012,8522,43,37,811
278200,5316740,5746052,5321461,5747445,2017,2602,-9776,1181,-606,3389,92,8055,27,48,811
279200,5316956,5746212,5321658,5747642,1985,2569,-9334,2205,-1394,3543,869,8405,27,48,811
280201,5317188,5746392,5321855,5747839,1869,2451,-8888,3236,-2146,3616,1267,8673,44,27,810
281203,5317396,5746576,5322052,5748036,2016,2432,-8403,4211,-2793,3658,1363,8511,44,27,810
282203,5317620,5746724,5322249,5748233,1905,2679,-7873,5044,-3311,3788,1303,8051,48,25,811
283204,5317852,5746908,5322446,5748430,1840,2460,-7356,5713,-3726,3811,1478,7916,48,25,811
284205,5318052,5747076,5322643,5748627,2040,2573,-6874,6219,-4106,3820,1958,7529,42,46,812
285207,5318256,5747284,5322840,5748824,2013,2318,-6428,6562,-4466,3738,2172,7151,42,46,812
286207,5318424,5747496,5323037,5749021,2252,2288,-5405,7433,-4635,3360,1133,13191,32,31,813
287208,5318604,5747700,5323234,5749218,2185,2335,-1240,14944,-4011,994,-4060,32767,32,31,813
288209,5318780,5747880,5323431,5749415,2219,2492,3764,23253,-3292,2116,-1554,32767,37,35,813
289211,5318968,5748120,5323628,5749612,2149,2098,5687,24557,-3386,4237,4266,3700,37,35,813
290212,5319108,5748336,5323825,5749809,2475,2241,5548,21423,-3930,3561,4645,308,46,37,811
291212,5319280,5748576,5324022,5750006,2287,2072,5296,17709,-4392,2979,3177,-451,46,37,811
292213,5319428,5748804,5324219,5750203,2460,2133,5499,15397,-4415,1948,1493,858,38,44,813
293215,5319588,5749000,5324416,5750400,2402,2335,5573,14420,-3733,1265,-3217,3449,38,44,813
294215,5319724,5749212,5324613,5750597,2580,2228,4833,14482,-2501,328,-7185,6258,44,35,813
295216,5319888,5749444,5324810,5750794,2420,2088,3854,14558,-1525,-1496,-4795,5504,44,35,813
296217,5320052,5749640,5325007,5750991,2436,2313,3439,12431,-1232,-5706,-1422,436,31,41,811
297219,5320180,5749856,5325204,5751188,2692,2181,3445,6767,-917,-11553,-912,-3191,31,41,811
298220,5320336,5750052,5325401,5751385,2536,2306,3101,308,-74,-14631,-2067,-461,27,51,811
299221,5320492,5750260,5325598,5751582,2555,2226,2336,-4096,1084,-14473,-1987,4015,27,51,811
300221,5320616,5750492,5325795,5751779,2788,2061,1701,-5836,1996,-12053,-2021,6788,24,53,809
301223,5320784,5750720,5325992,5751976,2527,2073,1464,-6201,2441,-10116,-2576,7501,24,53,809
302223,5320940,5750960,5326189,5752173,2621,1980,1548,-6039,2719,-9022,-2495,8513,22,36,809
303224,5321136,5751172,5326386,5752370,2373,2148,1674,-5005,2923,-7431,-2110,10164,22,36,809
304225,5321280,5751388,5326583,5752567,2722,2115,1909,-3572,3039,-7337,-780,9857,27,50,811
305226,5321448,5751616,5326780,5752764,2586,2027,2357,-2534,3002,-5921,-403,8347,27,50,811
306228,5321668,5751868,5326977,5752961,2252,1853,2893,-1803,2882,-5023,-932,7682,27,54,812
307228,5321828,5752128,5327174,5753158,2644,1775,3437,-1406,2972,-4671,-915,6842,27,54,812
308229,5321988,5752420,5327371,5753355,2661,1533,3938,-1137,3256,-3482,-974,6383,27,48,811
309230,5322184,5752668,5327568,5753552,2438,1786,4324,-996,3662,-2506,-668,5719,27,48,811
310231,5322364,5752852,5327765,5753749,2546,2192,4577,-947,4193,-1875,-170,5274,26,41,812
311232,5322532,5753028,5327962,5753946,2635,2252,4817,-1107,4712,-757,-38,4243,26,41,812
312233,5322712,5753208,5328159,5754143,2568,2234,5138,-1556,5135,-360,595,3594,24,41,812
313234,5322884,5753404,5328356,5754340,2630,2135,5497,-2110,5420,-96,1592,3113,24,41,812
314235,5323076,5753644,5328553,5754537,2508,1841,5835,-2870,5459,403,2144,2298,27,38,810
315236,5323256,5753924,5328750,5754734,2592,1554,6129,-3511,5284,562,2585,2729,27,38,810
316237,5323444,5754204,5328947,5754931,2547,1519,6386,-4016,4945,846,2741,2784,29,61,810
317238,5323588,5754544,5329144,5755128,2846,1081,6554,-4359,4538,1121,2469,3188,29,61,810
318239,5323732,5754812,5329341,5755325,2870,1500,6588,-4389,4189,1016,2242,4035,37,51,814
319240,5323904,5755136,5329538,5755522,2707,1094,6462,-4219,3838,939,2080,4165,37,51,814
320241,5324024,5755444,5329735,5755719,3067,1145,6187,-3926,3466,714,1789,4605,32,59,813
321242,5324168,5755776,5329932,5755916,2942,936,5824,-3502,3102,436,1875,4870,32,59,813
322244,5324304,5756104,5330129,5756113,3019,903,5423,-2901,2689,296,1936,5092,37,63,813
323245,5324408,5756408,5330326,5756310,3261,1006,5051,-2268,2197,-72,2122,4917,37,63,813
324246,5324580,5756672,5330523,5756507,2849,1227,4703,-1671,1646,-397,2290,4742,47,67,812
325246,5324776,5757032,5330720,5756704,2701,555,4369,-1040,1100,-437,2151,4624,47,67,812
326247,5324936,5757360,5330917,5756901,2943,698,4023,-441,660,-537,1809,4410,51,73,811
327248,5325112,5757712,5331114,5757098,2853,480,3644,182,325,-528,1443,4330,51,73,811
328249,5325252,5757988,5331311,5757295,3104,920,3296,701,80,-470,1131,3728,40,56,816
329251,5325428,5758292,5331508,5757492,2889,698,3029,1099,-59,-271,954,3343,40,56,816
330251,5325584,5758648,5331705,5757689,3033,302,2821,1358,-76,34,787,2708,45,74,816
331253,5325716,5758964,5331902,5757886,3214,500,2600,1439,3,229,928,2251,45,74,816
332253,5325860,5759236,5332099,5758083,3163,742,2364,1460,122,256,1211,1880,30,64,814
333254,5325996,5759432,5332296,5758280,3241,1217,2137,1373,185,215,1481,1467,30,64,814
334255,5326132,5759652,5332493,5758477,3269,1057,1944,1294,212,185,1394,1335,24,40,812
335256,5326296,5759880,5332690,5758674,3109,993,1748,1161,249,131,1662,1187,24,40,812
336257,5326428,5760096,5332887,5758871,3340,1059,1505,1070,224,-9,1948,1042,43,38,810
337258,5326552,5760288,5333084,5759068,3423,1211,1210,957,107,-220,2193,923,43,38,810
338260,5326704,5760472,5333281,5759265,3269,1267,878,903,-62,-275,2297,990,30,46,812
339261,5326844,5760640,5333478,5759462,3370,1379,519,941,-221,-206,1994,1159,30,46,812
340262,5327004,5760776,5333675,5759659,3263,1606,106,1077,-338,-105,1615,1445,40,44,809
341262,5327168,5760968,5333872,5759856,3254,1258,-354,1254,-409,123,1179,1629,40,44,809
342270,5327352,5761128,5334102,5760086,3150,1489,-819,1523,-452,360,976,1781,47,27,808
343264,5327516,5761284,5334299,5760283,3290,1532,-1248,1855,-470,576,670,2003,47,27,808
344265,5327708,5761452,5334496,5760480,3120,1468,-1619,2155,-486,708,601,1829,47,38,809
345267,5327900,5761620,5334693,5760677,3123,1481,-1932,2363,-555,822,742,1744,47,38,809
346267,5328080,5761780,5334890,5760874,3206,1547,-2184,2534,-682,966,916,1695,32,37,808
347268,5328296,5761976,5335087,5761071,2975,1323,-2384,2688,-813,1298,840,1663,32,37,808
348269,5328508,5762140,5335284,5761268,2994,1537,-2581,2823,-990,1436,1408,1590,53,43,810
349270,5328728,5762284,5335481,5761465,2935,1685,-2787,2954,-1215,1543,1550,1545,53,43,810
350271,5328928,5762424,5335678,5761662,3060,1735,-2999,3046,-1457,1731,1676,1566,46,27,812
351272,5329188,5762548,5335875,5761859,2659,1867,-3206,3154,-1691,1862,1383,1673,46,27,812
352273,5329416,5762772,5336072,5762056,2847,1230,-3417,3263,-1927,1900,1123,1873,54,24,811
353274,5329656,5762912,5336269,5762253,2754,1780,-3614,3399,-2208,1928,751,1979,54,24,811
354275,5329916,5763052,5336466,5762450,2603,1805,-3820,3537,-2555,1819,633,2123,52,31,812
355276,5330152,5763180,5336663,5762647,2737,1910,-4038,3755,-2955,1718,544,2388,52,31,812
356277,5330376,5763348,5336860,5762844,2801,1673,-4296,3986,-3406,1469,598,2596,61,29,811
357278,5330636,5763464,5337057,5763041,2549,2033,-4562,4271,-3944,1095,608,2862,61,29,811
358279,5330876,5763620,5337254,5763238,2656,1801,-4832,4633,-4583,720,562,3247,39,21,810
359280,5331116,5763756,5337451,5763435,2639,1952,-5091,5092,-5257,435,339,3688,39,21,810
360281,5331372,5763868,5337648,5763632,2515,2140,-5320,5596,-5878,273,-153,3805,43,34,811
361282,5331608,5764000,5337845,5763829,2623,2043,-5495,6019,-6393,124,-583,3627,43,34,811
362283,5331824,5764148,5338042,5764026,2741,1965,-5652,6347,-6796,29,-1066,3585,59,31,811
363285,5332056,5764352,5338239,5764223,2627,1612,-5781,6552,-7103,-167,-1290,3249,59,31,811
364285,5332260,5764524,5338436,5764420,2801,1823,-5852,6573,-7312,-400,-1476,2842,56,46,811
365286,5332448,5764672,5338633,5764617,2906,1994,-5868,6472,-7417,-613,-1792,2669,56,46,811
366287,5332656,5764764,5338830,5764814,2777,2390,-5836,6272,-7416,-942,-2101,2513,53,39,811
367288,5332888,5764868,5339027,5765011,2612,2356,-5778,6078,-7333,-1355,-2329,2613,53,39,811
368289,5333076,5765080,5339224,5765208,2892,1675,-5689,5817,-7190,-1835,-2656,2548,48,29,808
369290,5333292,5765232,5339421,5765405,2711,2070,-5581,5596,-6970,-2260,-3215,2980,48,29,808
370291,5333536,5765412,5339618,5765602,2516,1902,-5468,5397,-6665,-2738,-3686,3071,57,41,809
371292,5333720,5765528,5339815,5765799,2898,2338,-5364,5174,-6308,-3320,-3747,3238,57,41,809
372293,5333920,5765656,5340012,5765996,2798,2293,-5244,4937,-5911,-3757,-3957,3337,42,28,810
373294,5334164,5765836,5340209,5766193,2503,1975,-5088,4588,-5476,-4018,-4080,3170,42,28,810
374295,5334380,5766016,5340406,5766390,2671,1983,-4920,4186,-5033,-4266,-4118,3278,53,36,807
375296,5334588,5766156,5340603,5766587,2717,2258,-4769,3795,-4587,-4552,-4122,3591,53,36,807
376297,5334872,5766288,5340800,5766784,2206,2337,-4628,3415,-4160,-4822,-3884,3740,53,36,811
377298,5335080,5766396,5340997,5766981,2677,2527,-4488,3091,-3768,-4968,-3503,4239,53,36,811
378299,5335296,5766540,5341194,5767178,2619,2325,-4353,2820,-3401,-4943,-3305,4616,56,40,808
379301,5335584,5766728,5341391,5767375,2130,2054,-4232,2575,-3025,-4789,-3335,4854,56,40,808
380301,5335836,5766912,5341588,5767572,2332,2085,-4124,2303,-2630,-4551,-2969,4980,56,40,808
381302,5336088,5767092,5341785,5767769,2309,2117,-4026,1976,-2233,-4240,-2542,5083,56,40,808
382303,5336404,5767228,5341982,5767966,1858,2419,-3920,1479,-1850,-3957,-2183,4807,59,31,813
383304,5336684,5767380,5342179,5768163,2047,2339,-3781,817,-1508,-3694,-1965,4847,59,31,813
384305,5336956,5767488,5342376,5768360,2065,2653,-2144,46,-1341,-1366,-2134,18150,49,41,812
385306,5337236,5767660,5342573,5768557,1980,2265,1795,1,-1547,1732,-2000,32767,49,41,812
386307,5337580,5767820,5342770,5768754,1516,2356,3695,-325,-1472,-1915,-1780,7423,71,41,812
387309,5337876,5767984,5342967,5768951,1774,2345,3564,-737,-1067,-1905,-1714,5848,71,41,812
388310,5338140,5768160,5343164,5769148,1945,2280,2856,-1208,-604,-1775,-1625,5690,52,30,812
389311,5338496,5768308,5343361,5769345,1301,2476,2539,-1623,-300,-1685,-1177,5293,52,30,812
390312,5338796,5768436,5343558,5769542,1607,2633,2557,-2113,-165,-1562,-844,4879,57,30,813
391312,5339104,5768592,5343755,5769739,1509,2476,2661,-2640,-164,-1369,-509,4318,57,30,813
392313,5339408,5768724,5343952,5769936,1488,2654,2687,-3193,-255,-1141,-199,4334,73,42,815
393314,5339728,5768888,5344149,5770133,1335,2469,2705,-3753,-389,-963,-58,4254,73,42,815
394315,5340052,5769032,5344346,5770330,1256,2617,2686,-4192,-505,-640,-90,4783,66,27,814
395316,5340368,5769208,5344543,5770527,1254,2427,2693,-4471,-583,-158,-355,4839,66,27,814
396317,5340680,5769388,5344740,5770724,1229,2410,2665,-4670,-592,139,-782,4996,65,44,815
397318,5340968,5769560,5344937,5770921,1340,2471,2690,-4862,-549,188,-992,4770,65,44,815
398319,5341252,5769696,5345134,5771118,1327,2722,2759,-5144,-503,198,-962,4500,73,28,815
399320,5341528,5769856,5345331,5771315,1344,2590,2886,-5462,-506,146,-723,4140,73,28,815
400321,5341796,5770012,5345528,5771512,1363,2633,3067,-5848,-571,4,-574,3825,70,40,814
401322,5342100,5770168,5345725,5771709,1092,2651,3272,-6218,-671,-237,-468,3791,70,40,814
402323,5342392,5770340,5345922,5771906,1126,2563,3490,-6516,-757,-422,-441,3845,61,43,814
403324,5342636,5770492,5346119,5772103,1405,2707,3685,-6662,-801,-501,-467,4083,61,43,814
404325,5342856,5770628,5346316,5772300,1546,2834,3883,-6661,-764,-683,-765,4264,56,40,815
405326,5343100,5770796,5346513,5772497,1376,2648,4088,-6536,-639,-905,-1124,4575,56,40,815
406327,5343328,5770948,5346710,5772694,1463,2768,4288,-6298,-459,-1145,-1323,4724,54,36,813
407328,5343540,5771120,5346907,5772891,1557,2654,4499,-5970,-244,-1358,-1400,4620,54,36,813
408329,5343804,5771268,5347104,5773088,1204,2826,4705,-5588,-29,-1622,-1289,4553,59,35,813
409331,5344028,5771408,5347301,5773285,1442,2901,4912,-5239,179,-1945,-928,4316,59,35,813
410331,5344268,5771552,5347498,5773482,1324,2900,5109,-4856,399,-2135,-730,4281,37,40,812
411332,5344508,5771748,5347695,5773679,1306,2576,5303,-4490,639,-2106,-641,3927,37,40,812
412333,5344748,5771940,5347892,5773876,1287,2603,5468,-4094,906,-2085,-392,3803,52,48,810
413334,5345004,5772168,5348089,5774073,1162,2365,5589,-3712,1175,-2093,-202,3659,52,48,810
414335,5345264,5772364,5348286,5774270,1110,2566,5668,-3371,1446,-1968,-124,3397,37,42,814
415336,5345516,5772560,5348483,5774467,1136,2567,5703,-3035,1727,-1698,-106,3232,37,42,814
416337,5345748,5772804,5348680,5774664,1247,2246,5704,-2758,2010,-1373,-9,2787,63,51,816
417338,5346032,5773008,5348877,5774861,884,2494,5661,-2595,2293,-1054,165,2413,63,51,816
418339,5346300,5773248,5349074,5775058,954,2250,5581,-2552,2554,-755,357,1917,54,41,815
419340,5346540,5773464,5349271,5775255,1110,2392,5469,-2606,2782,-390,571,1559,54,41,815
420342,5346812,5773676,5349468,5775452,878,2411,5316,-2763,2988,22,786,1083,43,50,817
421342,5347084,5773876,5349665,5775649,845,2485,5134,-3015,3157,411,908,817,43,50,817
422343,5347324,5774076,5349862,5775846,1027,2483,4924,-3347,3285,690,1074,481,43,35,816
423344,5347548,5774316,5350059,5776043,1115,2215,4688,-3742,3353,933,1290,218,43,35,816
424345,5347768,5774536,5350256,5776240,1131,2330,4410,-4139,3355,1177,1523,119,40,38,817
425353,5347976,5774760,5350486,5776470,1216,2308,4077,-4569,3296,1461,1711,29,40,38,817
426347,5348168,5774964,5350683,5776667,1319,2431,3681,-4962,3199,1761,1660,28,52,49,817
427348,5348396,5775124,5350880,5776864,1080,2722,3219,-5289,3127,2039,1419,240,52,49,817
428349,5348576,5775324,5351077,5777061,1389,2471,2745,-5542,3098,2264,1059,404,48,45,816
429351,5348792,5775520,5351274,5777258,1155,2497,2269,-5681,3112,2469,847,591,48,45,816
430351,5348992,5775696,5351471,5777455,1254,2631,1786,-5732,3148,2657,876,875,43,32,815
431352,5349180,5775856,5351668,5777652,1334,2748,1304,-5709,3159,2764,923,1101,43,32,815
432353,5349356,5776020,5351865,5777849,1418,2738,849,-5611,3116,2802,1099,1240,34,31,814
433354,5349544,5776172,5352062,5778046,1348,2833,423,-5450,3027,2880,1146,1415,34,31,814
434356,5349696,5776308,5352259,5778243,1593,2960,-2,-5272,2911,3016,968,1517,47,37,812
435356,5349892,5776480,5352456,5778440,1319,2747,-430,-5062,2764,3102,946,1582,47,37,812
436357,5350080,5776592,5352653,5778637,1373,3159,-841,-4804,2587,3181,980,1774,30,32,812
437358,5350228,5776700,5352850,5778834,1646,3224,-1244,-4476,2407,3252,845,2082,30,32,812
438359,5350392,5776788,5353047,5779031,1560,3397,-1652,-4055,2249,3286,748,2420,22,18,812
439360,5350588,5776900,5353244,5779228,1362,3285,-2058,-3523,2108,3363,587,2760,22,18,812
440361,5350736,5777028,5353441,5779425,1683,3216,-2466,-2944,1971,3474,490,2986,33,29,808
441362,5350928,5777156,5353638,5779622,1411,3246,-2850,-2324,1820,3533,467,3225,33,29,808
442363,5351100,5777224,5353835,5779819,1547,3679,-3210,-1724,1659,3580,612,3348,43,18,808
443364,5351248,5777312,5354032,5780016,1720,3602,-3528,-1137,1458,3667,726,3279,43,18,808
444365,5351408,5777404,5354229,5780213,1661,3624,-3796,-616,1218,3678,891,3239,22,24,807
445366,5351604,5777536,5354426,5780410,1438,3402,-4013,-165,925,3701,1130,3164,22,24,807
446367,5351764,5777660,5354623,5780607,1679,3486,-4187,205,577,3683,1281,3050,32,28,805
447368,5351928,5777804,5354820,5780804,1669,3384,-4326,559,209,3682,1402,3254,32,28,805
448369,5352112,5777944,5355017,5781001,1551,3435,-4486,957,-158,3586,1226,3645,26,35,807
449370,5352300,5778064,5355214,5781198,1530,3595,-4631,1421,-504,3470,922,3711,26,35,807
450371,5352436,5778220,5355411,5781395,1883,3388,-4726,1819,-814,3353,570,3639,29,21,807
451372,5352664,5778396,5355608,5781592,1294,3273,-4770,2179,-1095,3234,443,3728,29,21,807
452373,5352876,5778568,5355805,5781789,1389,3309,-4766,2476,-1358,3053,523,3655,34,27,806
453375,5353028,5778748,5356002,5781986,1783,3267,-4707,2671,-1583,2839,408,3521,34,27,806
454375,5353252,5778912,5356199,5782183,1323,3383,-4627,2827,-1751,2671,221,3566,35,41,808
455376,5353452,5779096,5356396,5782380,1472,3264,-4541,2970,-1867,2390,355,3621,35,41,808
456377,5353652,5779260,5356593,5782577,1471,3404,-4473,3101,-1956,2070,655,3570,30,30,807
457379,5353816,5779448,5356790,5782774,1711,3259,-4432,3238,-2030,1684,649,3778,30,30,807
458379,5354060,5779636,5356987,5782971,1191,3263,-4389,3367,-2074,1203,525,3798,49,29,809
459380,5354268,5779844,5357184,5783168,1412,3134,-4320,3434,-2110,642,615,3865,49,29,809
460381,5354440,5780076,5357381,5783365,1648,2969,-4222,3529,-2136,95,392,4031,32,45,808
461382,5354680,5780296,5357578,5783562,1205,3035,-4107,3619,-2127,-425,85,4117,32,45,808
462383,5354864,5780552,5357775,5783759,1561,2785,-3953,3777,-2067,-991,-99,4280,36,45,810
463384,5355044,5780788,5357972,5783956,1594,2893,-3769,3900,-1956,-1581,-293,4383,36,45,810
464385,5355260,5781032,5358169,5784153,1362,2823,-3577,4037,-1806,-2098,-626,4585,38,55,811
465386,5355472,5781288,5358366,5784350,1380,2722,-3380,4208,-1626,-2533,-946,4750,38,55,811
466387,5355672,5781552,5358563,5784547,1455,2644,-3164,4356,-1431,-2986,-1130,4817,36,39,810
467388,5355828,5781784,5358760,5784744,1748,2829,-2918,4453,-1209,-3366,-1288,4830,36,39,810
468389,5356052,5782052,5358957,5784941,1312,2573,-2638,4503,-934,-3628,-1445,4902,50,52,813
469390,5356216,5782312,5359154,5785138,1702,2596,-2340,4562,-597,-3815,-1652,5025,50,52,813
470391,5356368,5782548,5359351,5785335,1797,2729,-2063,4636,-198,-3912,-1882,5240,51,49,811
471392,5356556,5782840,5359548,5785532,1576,2339,-1832,4741,229,-3960,-1961,5610,42,57,813
472393,5356704,5783156,5359745,5785729,1849,2136,-1630,4768,638,-3913,-1912,5253,42,57,813
473395,5356880,5783432,5359942,5785926,1684,2352,-1407,4634,1029,-3786,-1866,4916,27,59,815
474395,5357064,5783684,5360139,5786123,1640,2478,-1163,4343,1414,-3611,-1670,4638,27,59,815
475396,5357224,5783980,5360336,5786320,1807,2161,-919,3888,1764,-3479,-1439,4158,34,64,813
476397,5357352,5784252,5360533,5786517,2037,2278,-687,3247,2064,-3296,-1299,3732,34,64,813
477399,5357500,5784548,5360730,5786714,1935,2085,-490,2542,2322,-3078,-1172,3778,45,47,814
478399,5357652,5784804,5360927,5786911,1931,2309,-340,1855,2537,-2838,-1064,4009,45,47,814
479400,5357788,5785076,5361124,5787108,2058,2176,-225,1261,2694,-2505,-878,4269,25,60,814
480401,5357992,5785364,5361321,5787305,1630,2037,-124,697,2813,-2069,-641,4413,25,60,814
481402,5358112,5785624,5361518,5787502,2189,2185,-33,122,2898,-1650,-389,4348,23,43,813
482403,5358240,5785896,5361715,5787699,2171,2078,49,-493,2952,-1202,-258,4312,23,43,813
483404,5358372,5786140,5361912,5787896,2175,2232,145,-1183,2960,-778,-117,4134,33,45,812
484405,5358484,5786392,5362109,5788093,2338,2158,265,-1922,2902,-468,219,4109,33,45,812
485406,5358596,5786632,5362306,5788290,2376,2215,406,-2607,2786,-228,553,4209,37,62,812
486407,5358720,5786908,5362503,5788487,2334,1955,575,-3236,2658,122,570,4326,37,62,812
487408,5358876,5787212,5362700,5788684,2153,1733,752,-3794,2557,499,411,4543,32,56,810
488409,5359004,5787472,5362897,5788881,2358,1981,933,-4267,2486,734,426,4635,32,56,810
489410,5359148,5787724,5363094,5789078,2283,2008,1090,-4665,2422,854,590,4973,27,50,814
490411,5359320,5788020,5363291,5789275,2120,1689,1224,-4944,2347,901,666,5310,27,50,814
491412,5359468,5788336,5363488,5789472,2292,1512,1343,-5099,2247,892,558,5579,25,51,812
492413,5359616,5788636,5363685,5789669,2314,1566,1434,-5078,2121,807,617,6007,25,51,812
493414,5359768,5788912,5363882,5789866,2309,1683,1498,-4938,1984,746,727,6334,28,48,815
494415,5359928,5789168,5364079,5790063,2277,1782,1551,-4663,1875,674,714,6662,28,48,815
495416,5360060,5789552,5364276,5790260,2481,900,1619,-4312,1801,564,684,6713,37,64,814
496417,5360220,5789880,5364473,5790457,2322,1192,1695,-3895,1756,514,548,6870,37,64,814
497418,5360384,5790164,5364670,5790654,2313,1429,1790,-3429,1752,415,575,6952,31,56,815
498419,5360568,5790424,5364867,5790851,2195,1551,1909,-2939,1756,250,592,6823,31,56,815
499420,5360768,5790740,5365064,5791048,2094,1149,2055,-2445,1781,47,572,6657,51,56,815
500421,5360968,5791076,5365261,5791245,2094,963,2217,-1925,1803,-135,520,6472,51,56,815
501422,5361144,5791412,5365458,5791442,2254,902,2389,-1465,1806,-300,456,6232,33,62,817
502423,5361340,5791704,5365655,5791639,2130,1135,2556,-1061,1821,-360,136,5925,33,62,817
503424,5361524,5791956,5365852,5791836,2211,1361,2712,-674,1851,-354,-97,5736,35,54,818
504425,5361712,5792220,5366049,5792033,2191,1256,2876,-291,1868,-436,-161,5618,35,54,818
505426,5361924,5792492,5366246,5792230,2036,1173,3043,91,1866,-499,-339,5518,56,62,816
506427,5362140,5792780,5366443,5792427,2003,1033,3200,574,1850,-563,-385,5592,56,62,816
507428,5362328,5793072,5366640,5792624,2182,967,3325,1098,1818,-577,-355,5510,55,45,818
508436,5362540,5793292,5366870,5792854,2041,1421,3416,1590,1768,-393,-365,5416,55,45,818
509430,5362744,5793508,5367067,5793051,2089,1438,3470,2090,1722,-96,-332,5164,34,51,817
510431,5362944,5793764,5367264,5793248,2114,1162,3493,2536,1678,194,-323,4905,34,51,817
511432,5363168,5794016,5367461,5793445,1953,1163,3499,2914,1656,488,-422,4663,55,46,817
512433,5363400,5794264,5367658,5793642,1889,1165,3505,3232,1666,737,-526,4348,55,46,817
513434,5363600,5794492,5367855,5793839,2087,1277,3506,3542,1688,985,-684,4020,52,39,818
514435,5363792,5794680,5368052,5794036,2141,1530,3497,3624,1688,1253,-636,3343,52,39,818
515436,5364016,5794864,5368249,5794233,1930,1560,3450,3529,1629,1531,-530,2755,55,46,818
516437,5364224,5795068,5368446,5794430,2026,1432,3354,3263,1522,1685,-391,2101,55,46,818
517438,5364416,5795296,5368643,5794627,2129,1269,3211,2858,1359,1742,-33,1642,45,35,817
518440,5364640,5795532,5368840,5794824,1917,1201,3025,2372,1134,1648,475,1379,45,35,817
519441,5364832,5795736,5369037,5795021,2120,1398,2801,1934,863,1426,853,1295,46,30,815
520442,5365008,5795912,5369234,5795218,2231,1583,2550,1532,577,1290,880,1378,46,30,815
521443,5365224,5796076,5369431,5795415,1973,1672,2287,1149,302,1341,436,1330,46,36,816
522444,5365400,5796240,5369628,5795612,2234,1687,2009,832,65,1364,158,1465,46,36,816
523445,5365572,5796476,5369825,5795809,2269,1218,1707,558,-148,1262,88,1431,30,39,816
524446,5365760,5796700,5370022,5796006,2174,1282,1393,279,-354,1058,145,1408,30,39,816
525447,5365956,5796916,5370219,5796203,2126,1323,1069,63,-545,852,23,1506,37,45,816
526447,5366168,5797116,5370416,5796400,2020,1422,749,-112,-681,714,-302,1614,37,45,816
527449,5366352,5797292,5370613,5796597,2202,1581,444,-250,-769,557,-569,1658,42,28,817
528449,5366524,5797440,5370810,5796794,2288,1778,164,-386,-819,410,-808,1645,42,28,817
529451,5366688,5797636,5371007,5796991,2353,1478,-106,-582,-859,357,-928,1632,23,39,815
530452,5366860,5797860,5371204,5797188,2315,1290,-379,-764,-891,374,-896,1693,23,39,815
531453,5367020,5798076,5371401,5797385,2408,1332,-667,-876,-905,302,-765,1855,39,45,812
532454,5367188,5798284,5371598,5797582,2371,1377,-960,-923,-892,205,-772,2082,39,45,812
533455,5367360,5798500,5371795,5797779,2358,1319,-1250,-894,-829,50,-881,2356,36,43,815
534456,5367564,5798684,5371992,5797976,2155,1524,-1530,-793,-712,39,-972,2488,36,43,815
535457,5367756,5798852,5372189,5798173,2234,1637,-1811,-756,-580,183,-938,2405,28,28,815
536457,5367928,5799072,5372386,5798370,2371,1302,-2087,-753,-447,305,-931,2395,28,28,815
537459,5368104,5799228,5372583,5798567,2356,1720,-2363,-843,-348,464,-911,2302,34,43,815
538460,5368292,5799408,5372780,5798764,2286,1576,-2633,-883,-298,542,-969,2522,34,43,815
539461,5368472,5799584,5372977,5798961,2344,1611,-2877,-941,-287,599,-1032,2536,40,37,813
540462,5368676,5799760,5373174,5799158,2192,1620,-3093,-977,-326,773,-895,2733,40,37,813
541463,5368948,5799940,5373371,5799355,1734,1602,-3286,-1030,-399,978,-713,2830,45,21,813
542463,5369136,5800116,5373568,5799552,2264,1637,-3469,-1058,-473,1303,-698,2964,45,21,813
543465,5369392,5800240,5373765,5799749,1814,1994,-3648,-1118,-538,1632,-717,3028,32,19,816
544465,5369608,5800360,5373962,5799946,2057,2053,-3810,-1171,-610,1929,-642,3184,32,19,816
545467,5369824,5800476,5374159,5800143,2050,2113,-3997,-1113,-699,2218,-618,3795,38,28,815
546468,5370076,5800624,5374356,5800340,1801,1935,-4193,-985,-795,2302,-740,4038,38,28,815
547468,5370348,5800796,5374553,5800537,1643,1796,-4372,-857,-910,2405,-749,4265,61,25,813
548469,5370596,5800972,5374750,5800734,1772,1779,-4532,-738,-1065,2623,-523,4506,61,25,813
549470,5370824,5801136,5374947,5800931,1884,1868,-4663,-659,-1260,2831,-373,4355,57,38,817
550471,5371088,5801292,5375144,5801128,1631,1936,-4721,-735,-1490,2972,-416,3886,57,38,817
551473,5371328,5801436,5375341,5801325,1763,2035,-4715,-982,-1716,3053,-611,3691,48,21,816
552474,5371600,5801572,5375538,5801522,1530,2112,-4658,-1220,-1878,3073,-769,3922,48,21,816
553475,5371860,5801712,5375735,5801719,1578,2112,-4538,-1489,-1971,3188,-836,3773,60,33,814
554476,5372120,5801832,5375932,5801916,1552,2270,-4354,-1821,-2018,3265,-942,3720,60,33,814
555477,5372364,5801952,5376129,5802113,1632,2304,-4148,-2065,-2021,3241,-1293,4183,40,18,815
556478,5372624,5802096,5376326,5802310,1504,2178,-3951,-2173,-2018,3125,-1445,4633,40,18,815
557479,5372888,5802224,5376523,5802507,1451,2308,-3740,-2085,-2018,2833,-1434,5172,52,24,814
558479,5373156,5802360,5376720,5802704,1396,2285,-3506,-1911,-2017,2511,-1351,5557,52,24,814
559481,5373396,5802516,5376917,5802901,1552,2179,-3247,-1653,-2012,2305,-1261,5763,41,28,814
560481,5373640,5802680,5377114,5803098,1507,2143,-2969,-1410,-1991,2105,-1223,5877,41,28,814
561483,5373840,5802804,5377311,5803295,1782,2425,-2657,-1081,-1950,1899,-1253,6171,42,31,815
562484,5374088,5802928,5377508,5803492,1459,2457,-2331,-675,-1903,1676,-1070,6501,42,31,815
563485,5374296,5803080,5377705,5803689,1706,2302,-1997,-206,-1856,1424,-709,6661,56,33,812
564486,5374520,5803216,5377902,5803886,1595,2429,-1677,337,-1770,1345,-601,6990,56,33,812
565487,5374716,5803352,5378099,5804083,1770,2456,-1353,920,-1650,1239,-102,7068,35,26,813
566488,5374892,5803500,5378296,5804280,1905,2402,-1035,1458,-1530,1108,458,6998,35,26,813
567489,5375104,5803672,5378493,5804477,1675,2263,-721,1970,-1418,1032,751,6870,41,37,813
568490,5375268,5803832,5378690,5804674,1989,2356,-404,2381,-1294,938,744,6573,41,37,813
569491,5375492,5803988,5378887,5804871,1603,2399,-95,2746,-1155,875,621,6415,34,39,814
570491,5375668,5804172,5379084,5805068,1913,2229,186,2991,-1028,963,664,5946,34,39,814
571492,5375844,5804348,5379281,5805265,1923,2288,433,3138,-897,1022,525,5646,30,39,813
572493,5376048,5804500,5379478,5805462,1746,2458,664,3202,-773,1045,431,5428,30,39,813
573495,5376244,5804668,5379675,5805659,1796,2371,888,3236,-665,1107,346,5327,32,32,811
574495,5376472,5804832,5379872,5805856,1584,2412,1094,3308,-559,1065,70,5274,32,32,811
575496,5376676,5805004,5380069,5806053,1732,2372,1268,3386,-451,1011,-202,5218,30,35,811
576497,5376868,5805188,5380266,5806250,1809,2303,1427,3445,-359,1022,-159,5073,30,35,811
577499,5377056,5805364,5380463,5806447,1839,2362,1573,3464,-288,1081,-89,4855,48,29,813
578500,5377272,5805540,5380660,5806644,1656,2372,1691,3440,-255,1146,-66,4649,48,29,813
579500,5377456,5805712,5380857,5806841,1862,2409,1794,3262,-275,1261,200,4252,36,40,813
580501,5377692,5805848,5381054,5807038,1521,2660,1884,3037,-352,1454,281,3989,36,40,813
581502,5377916,5805984,5381251,5807235,1585,2687,1934,2694,-463,1619,306,3495,36,26,813
582503,5378084,5806176,5381448,5807432,1948,2339,1938,2303,-594,1652,513,3346,36,26,813
583504,5378312,5806376,5381645,5807629,1560,2289,1897,1918,-708,1596,466,3336,49,43,811
584506,5378500,5806564,5381842,5807826,1815,2368,1857,1594,-756,1622,163,3352,49,43,811
585507,5378704,5806696,5382039,5808023,1712,2747,1796,1327,-720,1687,-109,3525,30,25,812
586508,5378904,5806868,5382236,5808220,1737,2508,1700,1054,-661,1690,81,3358,30,25,812
587509,5379068,5807048,5382433,5808417,1976,2466,1592,768,-613,1745,254,3304,25,28,810
588510,5379244,5807244,5382630,5808614,1911,2367,1506,463,-569,1775,379,3096,25,28,810
589511,5379460,5807424,5382827,5808811,1654,2474,1422,160,-490,1781,109,3012,47,49,812
590512,5379648,5807580,5383024,5809008,1833,2642,1321,-89,-370,1647,-147,3178,47,49,812
591522,5379812,5807760,5383254,5809238,2013,2515,1215,-250,-238,1352,-396,3322,43,31,813
592513,5379976,5807916,5383451,5809435,2029,2683,1100,-295,-104,1121,-794,3520,43,31,813
593515,5380164,5808108,5383648,5809632,1883,2460,981,-239,21,884,-1055,3729,47,28,811
594516,5380316,5808288,5383845,5809829,2128,2543,857,-97,106,676,-744,4002,47,28,811
595517,5380488,5808512,5384042,5810026,2015,2257,740,110,155,590,-902,3963,42,27,812
596518,5380648,5808656,5384239,5810223,2107,2780,641,289,213,621,-1186,3894,42,27,812
597518,5380788,5808796,5384436,5810420,2258,2830,554,455,242,665,-895,3858,43,38,811
598520,5380956,5808960,5384633,5810617,2096,2696,483,585,249,749,-1136,3747,43,38,811
599520,5381148,5809164,5384830,5810814,1949,2443,427,804,275,740,-1393,3873,25,48,807
600522,5381300,5809384,5385027,5811011,2219,2332,380,1035,302,521,-1056,3866,25,48,807
601523,5381456,5809568,5385224,5811208,2213,2564,323,1311,304,225,-557,4016,35,31,811
602524,5381644,5809764,5385421,5811405,2018,2490,239,1593,315,119,-258,4037,35,31,811
603525,5381800,5809928,5385618,5811602,2236,2704,132,1865,339,41,11,3977,22,40,809
604526,5381964,5810108,5385815,5811799,2202,2612,27,2081,381,-89,234,3821,22,40,809
605527,5382128,5810288,5386012,5811996,2217,2620,-76,2197,430,-117,235,3576,31,45,808
606528,5382312,5810532,5386209,5812193,2098,2199,-189,2290,473,-133,203,3533,31,45,808
607529,5382472,5810696,5386406,5812390,2265,2714,-313,2328,512,-164,146,3377,27,42,808
608529,5382636,5810892,5386603,5812587,2256,2515,-449,2375,562,-32,-166,3345,27,42,808
609531,5382852,5811084,5386800,5812784,1923,2543,-583,2385,623,-41,-145,3292,46,37,808
610532,5383028,5811296,5386997,5812981,2183,2411,-701,2486,675,-186,-134,3528,46,37,808
611533,5383192,5811504,5387194,5813178,2273,2432,-808,2487,690,-298,-390,3241,28,42,810
612534,5383376,5811672,5387391,5813375,2155,2695,-912,2431,658,-393,-925,3355,28,42,810
613534,5383516,5811884,5387588,5813572,2456,2413,-1008,2409,586,-469,-1252,3358,33,44,810
614535,5383664,5812084,5387785,5813769,2427,2488,-1106,2339,477,-551,-1509,3152,33,44,810
615536,5383832,5812260,5387982,5813966,2316,2647,-1207,2227,379,-798,-1623,3220,27,43,808
616537,5383988,5812480,5388179,5814163,2410,2362,-1309,2077,347,-920,-1615,3227,27,43,808
617539,5384148,5812688,5388376,5814360,2403,2433,-1419,2004,378,-988,-1165,3459,39,37,808
618540,5384312,5812896,5388573,5814557,2393,2428,-1503,1904,439,-1189,-575,3345,39,37,808
619541,5384484,5813088,5388770,5814754,2354,2531,-1575,1782,509,-1334,-703,3449,31,38,808
620541,5384608,5813316,5388967,5814951,2687,2293,-1638,1626,576,-1563,-844,3416,31,38,808
621543,5384776,5813536,5389164,5815148,2426,2333,-1676,1505,623,-1697,-1095,3689,27,39,809
622543,5384964,5813764,5389361,5815345,2306,2269,-1679,1382,688,-1754,-1680,3607,27,39,809
623545,5385096,5814008,5389558,5815542,2685,2150,-1648,1246,841,-1762,-1982,3842,47,49,809
624545,5385272,5814272,5389755,5815739,2421,1995,-1607,1153,1068,-1836,-1498,3987,47,49,809
625547,5385460,5814500,5389952,5815936,2350,2207,-1578,1043,1280,-2131,-401,4038,27,40,809
626548,5385612,5814736,5390149,5816133,2595,2139,-1569,979,1444,-2313,-50,4288,27,40,809
627548,5385756,5814980,5390346,5816330,2670,2070,-1543,906,1603,-2236,-97,4290,22,58,811
628549,5385948,5815244,5390543,5816527,2373,1915,-1501,806,1798,-2165,-415,4412,22,58,811
629551,5386072,5815476,5390740,5816724,2831,2100,-1424,675,2053,-2151,-1026,4361,37,43,809
630551,5386236,5815704,5390937,5816921,2596,2111,-1309,523,2354,-2145,-1291,4420,37,43,809
631552,5386396,5815952,5391134,5817118,2639,1965,-1180,390,2659,-2229,-927,4554,27,48,809
632553,5386612,5816208,5391331,5817315,2281,1889,-1062,266,2907,-2273,-270,4646,27,48,809
633555,5386776,5816456,5391528,5817512,2622,1917,-948,116,3094,-2190,43,4676,30,42,810
634556,5386952,5816704,5391725,5817709,2556,1894,-830,-41,3241,-2167,41,4894,30,42,810
635557,5387180,5816928,5391922,5817906,2218,2032,-696,-234,3362,-2076,9,4867,31,51,811
636557,5387372,5817176,5392119,5818103,2447,1861,-551,-401,3473,-1855,76,5035,31,51,811
637559,5387536,5817432,5392316,5818300,2637,1785,-380,-614,3598,-1577,-106,4892,45,44,812
638559,5387740,5817712,5392513,5818497,2385,1598,-209,-795,3777,-1348,-465,5062,45,44,812
639560,5387932,5818060,5392710,5818694,2463,1107,-59,-976,3969,-1219,60,5026,29,47,812
640561,5388096,5818256,5392907,5818891,2654,2058,78,-1196,4107,-1076,850,5069,29,47,812
641563,5388312,5818404,5393104,5819088,2321,2379,222,-1421,4189,-944,934,5133,27,46,813
642563,5388460,5818556,5393301,5819285,2769,2374,404,-1682,4239,-819,462,5147,27,46,813
643564,5388668,5818728,5393498,5819482,2390,2261,652,-1887,4277,-659,-291,5282,46,34,809
644565,5388864,5818928,5393695,5819679,2466,2085,930,-2028,4334,-549,-242,5523,46,34,809
645567,5389032,5819156,5393892,5819876,2654,1896,1226,-2124,4373,-486,409,5559,33,34,809
646567,5389168,5819436,5394089,5820073,2882,1534,1539,-2191,4410,-243,-304,5731,33,34,809
647568,5389332,5819712,5394286,5820270,2723,1525,1897,-2228,4457,-83,-573,5837,45,47,811
648569,5389488,5820088,5394483,5820467,2792,821,2241,-2181,4472,43,432,6007,45,47,811
649571,5389628,5820372,5394680,5820664,2918,1358,2524,-2122,4436,130,1281,6010,25,59,812
650572,5389776,5820616,5394877,5820861,2890,1587,2749,-2018,4358,91,1403,6228,25,59,812
651573,5389916,5820916,5395074,5821058,2966,1192,2983,-1814,4246,17,1170,6428,42,57,811
652574,5390076,5821224,5395271,5821255,2858,1093,3208,-1509,4131,99,734,6684,42,57,811
653575,5390272,5821592,5395468,5821452,2635,643,3389,-1137,4042,119,534,6847,41,76,810
654576,5390468,5821952,5395665,5821649,2636,621,3521,-652,3938,31,491,7073,41,76,810
655577,5390644,5822300,5395862,5821846,2772,630,3634,-241,3757,-15,610,6799,48,62,815
656578,5390808,5822700,5396059,5822043,2862,216,3704,116,3515,94,621,6586,48,62,815
657579,5391004,5823104,5396256,5822240,2664,100,3726,476,3254,270,513,6401,46,69,815
658580,5391172,5823416,5396453,5822437,2852,624,3714,804,2977,291,626,6264,46,69,815
659580,5391336,5823636,5396650,5822634,2893,1189,3705,1063,2671,135,782,5975,36,75,816
660581,5391504,5823972,5396847,5822831,2881,403,3705,1208,2357,238,439,5443,36,75,816
661583,5391652,5824388,5397044,5823028,3029,-194,3688,1309,2044,537,450,5198,45,58,813
662584,5391800,5824664,5397241,5823225,3052,646,3634,1331,1709,674,1389,4793,45,58,813
663584,5391952,5824904,5397438,5823422,3047,852,3494,1292,1317,674,1735,4644,39,48,813
664585,5392076,5825132,5397635,5823619,3255,914,3291,1296,865,529,1764,4637,39,48,813
665587,5392212,5825368,5397832,5823816,3208,845,3070,1314,382,484,1798,4526,22,43,812
666588,5392352,5825596,5398029,5824013,3209,882,2828,1477,-75,437,1698,4768,22,43,812
667589,5392492,5825800,5398226,5824210,3235,1029,2577,1685,-435,348,1270,4756,31,40,811
668590,5392632,5825976,5398423,5824407,3262,1212,2329,1920,-652,341,701,4805,31,40,811
669591,5392812,5826140,5398620,5824604,3021,1302,2069,2083,-786,430,717,4485,41,40,811
670591,5392968,5826300,5398817,5824801,3190,1343,1799,2138,-934,538,1133,3938,41,40,811
671592,5393128,5826396,5399014,5824998,3182,1786,1512,2144,-1134,630,1327,3729,42,32,810
672593,5393292,5826524,5399211,5825195,3173,1616,1250,2141,-1274,823,1053,3747,42,32,810
673595,5393452,5826688,5399408,5825392,3215,1406,1015,2321,-1308,1014,955,4121,48,30,807
674603,5393628,5826860,5399638,5825622,3140,1381,818,2526,-1266,1152,928,4061,48,30,807
675596,5393812,5827008,5399835,5825819,3096,1552,647,2724,-1217,1213,959,3897,44,23,807
676598,5393988,5827164,5400032,5826016,3158,1520,521,2822,-1220,1177,1167,3396,44,23,807
677598,5394200,5827300,5400229,5826213,2927,1672,389,2842,-1294,1244,1424,3166,50,32,809
678600,5394400,5827460,5400426,5826410,3002,1538,262,2802,-1394,1343,1422,3016,50,32,809
679600,5394588,5827628,5400623,5826607,3082,1501,124,2746,-1534,1266,1761,2776,43,40,810
680601,5394784,5827768,5400820,5826804,3033,1700,-19,2711,-1717,1272,1755,2866,43,40,810
681602,5394980,5827928,5401017,5827001,3034,1591,-152,2667,-1897,1297,1542,2740,54,33,810
682604,5395204,5828052,5401214,5827198,2849,1848,-278,2678,-2044,1478,948,3000,54,33,810
683605,5395396,5828204,5401411,5827395,3053,1693,-405,2779,-2170,1517,518,3016,42,35,809
684606,5395588,5828360,5401608,5827592,3056,1686,-551,3007,-2303,1424,480,3454,42,35,809
685607,5395800,5828564,5401805,5827789,2925,1383,-724,3325,-2437,1341,-440,3689,32,38,808
686607,5395968,5828720,5402002,5827986,3214,1700,-905,3692,-2577,1107,-814,3802,32,38,808
687609,5396168,5828884,5402199,5828183,3014,1664,-1113,4072,-2814,678,-829,3807,32,37,810
688609,5396352,5828992,5402396,5828380,3121,2054,-1329,4378,-3221,207,-787,3650,32,37,810
689611,5396544,5829120,5402593,5828577,3074,1959,-1513,4693,-3751,-209,-762,3620,47,35,809
690612,5396748,5829252,5402790,5828774,2998,1962,-1643,4969,-4277,-421,-1064,3401,47,35,809
691613,5396964,5829444,5402987,5828971,2915,1590,-1773,5307,-4707,-547,-1592,3652,52,39,807
692613,5397144,5829608,5403184,5829168,3149,1779,-1919,5608,-5000,-627,-2177,3426,52,39,807
693614,5397340,5829744,5403381,5829365,3050,1981,-2070,5796,-5195,-733,-2584,3299,30,37,809
694616,5397520,5829868,5403578,5829562,3159,2088,-2211,5882,-5308,-894,-2786,2997,30,37,809
695616,5397720,5830020,5403775,5829759,3033,1933,-2304,5816,-5335,-1095,-2983,2612,29,42,807
696617,5397900,5830188,5403972,5829956,3168,1845,-2347,5676,-5289,-1304,-3111,2441,29,42,807
697619,5398084,5830340,5404169,5830153,3150,1964,-2360,5345,-5192,-1524,-3003,2013,39,24,806
698620,5398288,5830468,5404366,5830350,3022,2145,-2354,4950,-5062,-1647,-3009,1854,39,24,806
699621,5398500,5830572,5404563,5830547,2967,2336,-2302,4420,-4880,-1802,-3006,1558,39,21,807
700622,5398688,5830700,5404760,5830744,3122,2216,-2204,3836,-4624,-1931,-3052,1591,39,21,807
701623,5398932,5830856,5404957,5830941,2752,2059,-2096,3174,-4295,-2049,-2821,1473,57,24,806
702623,5399156,5830996,5405154,5831138,2866,2184,-2018,2564,-3925,-2177,-2275,1771,57,24,806
703624,5399360,5831180,5405351,5831335,2990,1915,-1990,2024,-3550,-2312,-1730,2210,40,23,807
704625,5399568,5831324,5405548,5831532,2961,2188,-1970,1603,-3178,-2514,-1326,2663,40,23,807
705626,5399804,5831408,5405745,5831729,2770,2613,-1955,1259,-2782,-2570,-1124,2917,42,33,808
706627,5400040,5831544,5405942,5831926,2754,2315,-1938,863,-2356,-2488,-938,2961,42,33,808
707628,5400288,5831664,5406139,5832123,2658,2449,-1918,546,-1931,-2504,-667,3266,47,38,805
708629,5400508,5831816,5406336,5832320,2824,2269,-1919,188,-1557,-2607,-273,3231,47,38,805
709630,5400756,5831944,5406533,5832517,2627,2449,-1985,-99,-1241,-2584,-265,3756,58,40,807
710631,5401024,5832076,5406730,5832714,2472,2453,-2074,-257,-932,-2506,-249,4140,58,40,807
711632,5401276,5832168,5406927,5832911,2550,2749,-2203,-265,-653,-2361,-111,4730,53,39,807
712633,5401552,5832336,5407124,5833108,2366,2287,-2363,-194,-451,-2323,46,5024,53,39,807
713635,5401856,5832484,5407321,5833305,2145,2433,-2519,-95,-346,-2231,217,5213,67,26,807
714635,5402144,5832640,5407518,5833502,2206,2401,-2655,-32,-318,-1908,299,5145,67,26,807
715637,5402448,5832784,5407715,5833699,2060,2501,-2733,-45,-318,-1533,210,4990,62,25,810
716637,5402772,5832904,5407912,5833896,1880,2684,-2752,-160,-304,-1140,149,4844,62,25,810
717639,5403068,5833004,5408109,5834093,2013,2852,-2713,-322,-306,-805,322,4699,67,39,811
718639,5403376,5833156,5408306,5834290,1890,2547,-2645,-532,-344,-512,470,4713,67,39,811
719641,5403692,5833288,5408503,5834487,1789,2700,-2558,-770,-423,-238,653,4589,53,23,808
720641,5404032,5833440,5408700,5834684,1577,2596,-2447,-1096,-561,3,868,4321,53,23,808
721643,5404376,5833592,5408897,5834881,1487,2616,-2295,-1492,-727,279,655,4221,66,31,811
722644,5404696,5833752,5409094,5835078,1584,2582,-2116,-1935,-862,607,18,4093,66,31,811
723645,5405024,5833904,5409291,5835275,1478,2652,-1911,-2397,-956,851,-469,4088,72,44,812
724646,5405368,5834056,5409488,5835472,1314,2673,-1686,-2873,-1030,994,-656,4035,72,44,812
725646,5405676,5834200,5409685,5835669,1491,2746,-1436,-3337,-1093,1096,-762,4037,74,26,812
726647,5406032,5834328,5409882,5835866,1122,2876,-1149,-3774,-1139,1136,-773,4117,74,26,812
727648,5406348,5834488,5410079,5836063,1320,2693,-833,-4183,-1165,1033,-827,4128,56,39,812
728649,5406644,5834668,5410276,5836260,1403,2576,-500,-4538,-1188,801,-791,4312,56,39,812
729651,5406972,5834840,5410473,5836457,1146,2637,-150,-4770,-1213,587,-798,4684,54,35,810
730651,5407260,5835016,5410670,5836654,1356,2621,220,-4826,-1222,306,-1082,5115,54,35,810
731653,5407572,5835172,5410867,5836851,1156,2765,588,-4722,-1215,-58,-1479,5589,49,44,812
732653,5407868,5835320,5411064,5837048,1214,2837,960,-4474,-1192,-347,-1738,5931,49,44,812
733655,5408132,5835488,5411261,5837245,1385,2725,1337,-4132,-1131,-616,-1969,6139,54,42,813
734655,5408380,5835664,5411458,5837442,1463,2685,1735,-3701,-1030,-857,-2112,6249,54,42,813
735657,5408664,5835836,5411655,5837639,1200,2721,2141,-3299,-889,-1114,-1988,6131,60,45,812
736657,5408884,5836024,5411852,5837836,1591,2625,2539,-2898,-737,-1303,-1398,5967,60,45,812
737659,5409112,5836156,5412049,5838033,1528,3004,2942,-2526,-625,-1561,-742,5721,50,26,812
738659,5409408,5836360,5412246,5838230,1060,2551,3347,-2214,-533,-1786,-449,5484,50,26,812
739661,5409624,5836544,5412443,5838427,1552,2682,3734,-1968,-428,-1836,-546,5180,59,39,811
740662,5409844,5836732,5412640,5838624,1517,2662,4074,-1778,-272,-1757,-846,4946,59,39,811
741663,5410100,5836876,5412837,5838821,1267,2960,4353,-1633,-47,-1674,-1122,4661,58,43,813
742663,5410368,5837052,5413034,5839018,1161,2769,4560,-1584,208,-1602,-1122,4184,58,43,813
743664,5410596,5837256,5413231,5839215,1398,2592,4730,-1619,444,-1557,-921,3844,54,35,812
744665,5410852,5837448,5413428,5839412,1198,2670,4898,-1708,639,-1471,-662,3450,54,35,812
745667,5411120,5837672,5413625,5839609,1092,2459,5045,-1902,790,-1353,-509,3128,49,42,813
746667,5411404,5837912,5413822,5839806,954,2340,5162,-2164,910,-1323,-472,2905,49,42,813
747669,5411664,5838104,5414019,5840003,1077,2642,5241,-2378,1016,-1220,-468,2850,57,54,814
748669,5411948,5838348,5414216,5840200,889,2297,5262,-2552,1120,-1088,-373,2772,57,54,814
749670,5412208,5838580,5414413,5840397,1012,2357,5216,-2753,1206,-957,-167,2693,55,56,816
750671,5412448,5838836,5414610,5840594,1119,2181,5125,-2937,1265,-795,-43,2567,55,56,816
751672,5412728,5839068,5414807,5840791,832,2317,4982,-3130,1326,-641,-113,2470,53,50,816
752673,5412988,5839304,5415004,5840988,930,2275,4827,-3328,1399,-525,-119,2291,53,50,816
753674,5413200,5839500,5415201,5841185,1224,2525,4632,-3549,1476,-352,-47,2192,40,40,816
754675,5413436,5839708,5415398,5841382,1058,2446,4404,-3786,1544,-224,-36,2046,40,40,816
755676,5413640,5839948,5415595,5841579,1255,2227,4144,-3987,1596,-207,103,2055,33,50,817
756677,5413840,5840168,5415792,5841776,1278,2342,3871,-4180,1649,-52,124,1966,33,50,817
757685,5414064,5840372,5416022,5842006,1132,2455,3542,-4363,1711,242,161,1988,51,32,815
758679,5414264,5840552,5416219,5842203,1281,2612,3187,-4462,1791,435,149,2142,51,32,815
759680,5414456,5840720,5416416,5842400,1333,2700,2819,-4506,1912,653,187,2167,39,28,815
760681,5414668,5840904,5416613,5842597,1202,2606,2430,-4506,2084,854,429,2400,39,28,815
761682,5414836,5841072,5416810,5842794,1490,2719,2027,-4481,2256,1005,736,2339,36,33,813
762683,5414996,5841260,5417007,5842991,1556,2598,1627,-4417,2392,1201,807,2449,36,33,813
763684,5415184,5841408,5417204,5843188,1386,2871,1225,-4333,2477,1229,1061,2426,27,34,812
764685,5415404,5841524,5417401,5843385,1176,3106,828,-4241,2512,1265,1273,2442,27,34,812
765687,5415540,5841664,5417598,5843582,1729,2981,451,-4088,2494,1383,1490,2573,34,32,812
766687,5415712,5841784,5417795,5843779,1515,3141,101,-3953,2430,1425,1812,2568,34,32,812
767688,5415892,5841920,5417992,5843976,1472,3068,-215,-3732,2297,1485,1979,2733,38,16,810
768689,5416036,5842024,5418189,5844173,1722,3309,-559,-3516,2079,1510,2172,2756,38,16,810
769690,5416196,5842112,5418386,5844370,1638,3458,-942,-3255,1837,1725,1886,3072,38,12,808
770691,5416392,5842172,5418583,5844567,1414,3693,-1345,-2941,1635,2040,1165,3283,38,12,808
771692,5416544,5842304,5418780,5844764,1709,3273,-1748,-2570,1488,2185,1034,3467,45,18,806
772693,5416708,5842408,5418977,5844961,1649,3488,-2126,-2099,1387,2330,1035,3757,45,18,806
773694,5416892,5842496,5419174,5845158,1530,3637,-2493,-1603,1299,2466,834,3982,24,18,804
774695,5417076,5842576,5419371,5845355,1536,3739,-2860,-1053,1216,2650,723,4346,24,18,804
775696,5417232,5842660,5419568,5845552,1730,3764,-3172,-602,1105,2769,857,3989,38,11,804
776710,5417436,5842720,5419765,5845749,1427,3800,-3408,-288,951,2757,907,3788,38,11,804
777698,5417600,5842816,5419962,5845946,1692,3795,-3545,-46,745,2653,1174,3635,47,22,803
778712,5417748,5842912,5420159,5846143,1814,3800,-3617,151,485,2554,1359,3551,47,22,803
779713,5417960,5843020,5420356,5846340,1408,3800,-3664,337,217,2517,1192,3687,29,13,803
780714,5418144,5843120,5420553,5846537,1589,3800,-3707,514,-17,2526,887,3730,29,13,803
781715,5418312,5843240,5420750,5846734,1702,3800,-3743,698,-196,2442,542,3874,29,28,801
782704,5418524,5843376,5420947,5846931,1421,3735,-3762,895,-329,2247,305,4074,29,28,801
783705,5418708,5843536,5421144,5847128,1602,3602,-3783,1150,-450,1981,337,4351,33,38,803
784706,5418900,5843692,5421341,5847325,1555,3645,-3788,1440,-594,1717,268,4418,33,38,803
785707,5419108,5843872,5421538,5847522,1450,3504,-3770,1722,-747,1435,-53,4470,33,44,804
786708,5419320,5844072,5421735,5847719,1420,3378,-3718,1961,-886,1120,-429,4508,33,44,804
787709,5419540,5844256,5421932,5847916,1360,3484,-3638,2151,-991,713,-588,4571,41,44,805
788710,5419744,5844464,5422129,5848113,1458,3330,-3558,2387,-1050,252,-618,4932,41,44,805
789711,5419976,5844632,5422326,5848310,1267,3594,-3484,2572,-1061,-145,-594,4848,32,44,807
790712,5420172,5844824,5422523,5848507,1494,3446,-3415,2746,-1031,-531,-447,4826,32,44,807
791712,5420356,5845032,5422720,5848704,1574,3342,-3333,2838,-962,-897,-386,4758,49,41,806
792713,5420580,5845252,5422917,5848901,1314,3258,-3223,2871,-853,-1223,-484,4744,49,41,806
793715,5420776,5845488,5423114,5849098,1489,3142,-3065,2849,-695,-1510,-613,4665,33,41,806
794715,5420976,5845752,5423311,5849295,1463,2937,-2877,2759,-504,-1753,-657,4559,33,41,806
795716,5421184,5846000,5423508,5849492,1409,3016,-2669,2573,-295,-2044,-637,4452,49,59,808
796717,5421352,5846236,5423705,5849689,1672,3075,-2446,2334,-77,-2314,-675,4407,49,59,808
797719,5421544,5846508,5423902,5849886,1525,2817,-2214,2131,156,-2484,-747,4490,31,43,810
798719,5421728,5846780,5424099,5850083,1580,2785,-1985,1909,403,-2666,-941,4788,31,43,810
799721,5421932,5847068,5424296,5850280,1453,2646,-1757,1776,677,-2802,-1225,5111,43,47,809
800721,5422084,5847324,5424493,5850477,1798,2820,-1526,1669,945,-2837,-1242,5172,43,47,809
801723,5422236,5847564,5424690,5850674,1819,2902,-1300,1562,1198,-2869,-1235,5389,30,44,811
802724,5422420,5847824,5424887,5850871,1625,2750,-1105,1482,1450,-2844,-1303,5665,30,44,811
803724,5422584,5848044,5425084,5851068,1764,2990,-924,1390,1722,-2733,-1378,5434,45,58,810
804725,5422744,5848372,5425281,5851265,1806,2258,-720,1179,1991,-2665,-1437,5241,45,58,810
805727,5422900,5848668,5425478,5851462,1849,2415,-509,894,2207,-2464,-1247,5261,45,51,811
806727,5423032,5848924,5425675,5851659,2029,2640,-305,551,2344,-2233,-918,5086,45,51,811
807728,5423204,5849164,5425872,5851856,1790,2722,-99,140,2457,-1933,-749,4866,47,54,812
808729,5423360,5849448,5426069,5852053,1909,2409,106,-308,2577,-1531,-553,4872,47,54,812
809731,5423528,5849728,5426266,5852250,1847,2398,295,-704,2688,-1270,-411,5066,27,47,811
810731,5423656,5850036,5426463,5852447,2128,2175,468,-1048,2734,-1151,2,5033,27,47,811
811733,5423820,5850296,5426660,5852644,1919,2447,626,-1434,2743,-892,-94,5043,41,53,812
812733,5423932,5850540,5426857,5852841,2281,2527,811,-1820,2747,-535,-46,5085,41,53,812
813735,5424036,5850828,5427054,5853038,2373,2213,1048,-2222,2755,-246,88,4918,34,56,812
814735,5424196,5851112,5427251,5853235,2039,2199,1304,-2558,2769,-98,-110,5112,34,56,812
815737,5424320,5851400,5427448,5853432,2297,2135,1535,-2885,2750,16,60,5143,30,60,809
816737,5424460,5851672,5427645,5853629,2222,2203,1748,-3174,2674,230,557,5150,30,60,809
817739,5424604,5851916,5427842,5853826,2221,2357,1959,-3431,2577,363,623,5159,41,62,812
818740,5424772,5852180,5428039,5854023,2085,2203,2137,-3555,2500,421,442,5564,41,62,812
819741,5424908,5852488,5428236,5854220,2312,1880,2251,-3550,2460,564,376,5929,22,49,810
820741,5425068,5852792,5428433,5854417,2179,1859,2338,-3455,2460,602,350,5962,22,49,810
821743,5425204,5853092,5428630,5854614,2356,1838,2422,-3264,2465,588,416,6146,34,50,812
822744,5425328,5853336,5428827,5854811,2464,2168,2499,-3037,2452,471,792,6108,34,50,812
823745,5425504,5853676,5429024,5855008,2149,1505,2564,-2753,2431,325,993,6291,27,64,813
824745,5425644,5853996,5429221,5855205,2399,1577,2632,-2459,2405,233,925,6118,27,64,813
825747,5425796,5854276,5429418,5855402,2345,1790,2713,-2197,2380,198,877,5852,37,60,811
826747,5425968,5854540,5429615,5855599,2232,1861,2819,-1938,2372,137,796,5600,37,60,811
827749,5426160,5854880,5429812,5855796,2110,1323,2957,-1730,2398,3,661,5411,30,60,814
828749,5426360,5855208,5430009,5855993,2059,1340,3110,-1425,2435,-186,579,5572,30,60,814
829751,5426540,5855528,5430206,5856190,2193,1337,3269,-1085,2457,-361,604,5387,31,52,812
830752,5426724,5855828,5430403,5856387,2174,1417,3422,-730,2450,-458,662,5326,31,52,812
831753,5426900,5856080,5430600,5856584,2233,1693,3584,-387,2460,-481,349,5163,49,55,816
832753,5427084,5856460,5430797,5856781,2190,813,3749,-56,2481,-532,196,5047,49,55,816
833755,5427284,5856772,5430994,5856978,2090,1187,3909,345,2506,-563,119,5010,38,50,816
834756,5427492,5857044,5431191,5857175,2035,1404,4053,738,2532,-610,124,4863,38,50,816
835757,5427732,5857312,5431388,5857372,1817,1398,4162,1201,2553,-545,144,4937,39,50,818
836757,5427952,5857564,5431585,5857569,1933,1474,4230,1642,2580,-393,12,4585,39,50,818
837758,5428168,5857840,5431782,5857766,1951,1289,4265,2068,2608,-203,17,4331,36,43,817
838759,5428368,5858136,5431979,5857963,2049,1120,4282,2375,2632,25,70,3925,36,43,817
839760,5428604,5858428,5432176,5858160,1808,1104,4297,2573,2643,312,119,3450,53,61,816
840768,5428824,5858692,5432406,5858390,1914,1264,4299,2688,2639,514,-42,3077,53,61,816
841762,5429028,5858896,5432603,5858587,2011,1636,4284,2726,2619,623,28,2545,58,60,816
842763,5429244,5859136,5432800,5858784,1928,1392,4235,2663,2573,746,241,2211,58,60,816
843764,5429448,5859448,5432997,5858981,2001,891,4157,2458,2507,897,136,1725,49,58,818
844765,5429640,5859704,5433194,5859178,2078,1215,4047,2206,2413,1097,130,1463,49,58,818
845766,5429864,5859932,5433391,5859375,1867,1377,3908,1909,2315,1218,-113,1161,44,38,817
846768,5430064,5860188,5433588,5859572,2017,1175,3744,1594,2227,1264,-343,1130,44,38,817
847769,5430248,5860416,5433785,5859769,2123,1336,3552,1339,2130,1278,-240,1085,47,47,817
848769,5430476,5860652,5433982,5859966,1835,1269,3330,1165,2013,1325,-186,1169,47,47,817
849771,5430672,5860928,5434179,5860163,2037,984,3077,1038,1915,1371,-254,1168,31,53,817
850772,5430876,5861168,5434376,5860360,1984,1190,2799,918,1823,1335,-231,1159,31,53,817
851773,5431092,5861392,5434573,5860557,1901,1279,2490,872,1727,1435,-269,1377,47,44,817
852774,5431272,5861600,5434770,5860754,2135,1374,2156,923,1615,1381,34,1458,47,44,817
853774,5431480,5861820,5434967,5860951,1955,1288,1811,1020,1467,1225,531,1549,48,37,818
854776,5431708,5862084,5435164,5861148,1817,983,1458,1201,1277,1073,838,1643,48,37,818
855776,5431912,5862312,5435361,5861345,1965,1195,1107,1379,1059,999,964,1529,30,39,816
856777,5432124,5862564,5435558,5861542,1909,1020,753,1551,813,1043,1041,1420,30,39,816
857779,5432288,5862768,5435755,5861739,2224,1317,401,1635,558,1033,1054,1230,47,39,819
858780,5432480,5862988,5435952,5861936,2052,1207,47,1674,277,1028,1331,1011,47,39,819
859780,5432648,5863200,5436149,5862133,2215,1250,-310,1654,-11,1002,1045,847,44,51,818
860781,5432832,5863444,5436346,5862330,2122,1029,-685,1658,-271,924,549,755,44,51,818
861782,5433052,5863672,5436543,5862527,1888,1115,-1058,1577,-480,846,229,520,33,33,816
862784,5433228,5863916,5436740,5862724,2172,995,-1409,1409,-636,840,-254,323,33,33,816
863785,5433412,5864116,5436937,5862921,2129,1267,-1750,1145,-762,854,-450,233,45,36,815
864785,5433600,5864312,5437134,5863118,2109,1293,-2082,789,-905,840,-464,19,45,36,815
865787,5433792,5864536,5437331,5863315,2086,1106,-2425,448,-1091,717,-561,162,34,32,817
866788,5433980,5864728,5437528,5863512,2116,1308,-2784,181,-1284,585,-780,479,34,32,817
867788,5434192,5864936,5437725,5863709,1960,1203,-3183,70,-1446,672,-974,1279,32,40,816
868790,5434444,5865128,5437922,5863906,1686,1304,-3616,277,-1525,799,-1193,2351,32,40,816
869790,5434672,5865332,5438119,5864103,1823,1226,-4011,505,-1526,903,-1238,2016,51,30,817
870791,5434920,5865516,5438316,5864300,1677,1357,-4346,552,-1503,1030,-1092,1901,51,30,817
871792,5435156,5865696,5438513,5864497,1735,1390,-4624,434,-1506,1116,-691,1624,41,35,818
872793,5435372,5865808,5438710,5864694,1852,1851,-4811,33,-1565,1179,-464,594,41,35,818
873795,5435616,5865916,5438907,5864891,1658,1915,-4943,-545,-1649,1183,-432,387,45,27,816
874796,5435868,5866048,5439104,5865088,1584,1794,-5060,-1065,-1710,1182,-663,858,45,27,816
875797,5436140,5866216,5439301,5865285,1427,1581,-5179,-1456,-1728,1200,-1007,1389,62,22,815
876797,5436392,5866416,5439498,5865482,1527,1380,-5337,-1613,-1708,1238,-1211,2396,62,22,815
877798,5436612,5866568,5439695,5865679,1718,1699,-5533,-1599,-1683,1267,-1200,2859,43,24,817
878800,5436864,5866720,5439892,5865876,1495,1719,-5732,-1541,-1677,1275,-1191,3024,43,24,817
879801,5437140,5866888,5440089,5866073,1310,1631,-5920,-1438,-1678,1190,-1348,3402,39,22,819
880801,5437376,5867016,5440286,5866270,1544,1912,-6061,-1406,-1691,1213,-1347,3444,39,22,819
881802,5437612,5867180,5440483,5866467,1527,1701,-6131,-1390,-1709,1372,-1363,3479,43,32,817
882803,5437860,5867312,5440680,5866664,1431,1930,-6158,-1435,-1710,1533,-1325,3516,43,32,817
883804,5438104,5867440,5440877,5866861,1435,1985,-6149,-1482,-1713,1675,-1338,3638,46,29,815
884805,5438360,5867548,5441074,5867058,1335,2148,-6164,-1489,-1724,1677,-1420,4137,46,29,815
885806,5438588,5867680,5441271,5867255,1497,2027,-6156,-1354,-1699,1712,-1757,4498,40,35,815
886807,5438832,5867868,5441468,5867452,1377,1681,-6118,-1254,-1642,1772,-1987,4532,40,35,815
887808,5439028,5868036,5441665,5867649,1677,1818,-6003,-1220,-1571,1884,-2173,4457,50,37,816
888809,5439224,5868200,5441862,5867846,1679,1858,-5840,-1339,-1523,2074,-2276,4247,50,37,816
889811,5439416,5868316,5442059,5868043,1706,2194,-5635,-1523,-1525,2229,-2307,4302,37,21,818
890811,5439692,5868460,5442256,5868240,1147,2042,-5395,-1638,-1563,2254,-2184,4588,37,21,818
891813,5439912,5868600,5442453,5868437,1487,2092,-5154,-1692,-1618,2287,-2180,4957,41,35,816
892813,5440108,5868736,5442650,5868634,1639,2144,-4912,-1581,-1629,2293,-2288,5659,41,35,816
893814,5440272,5868884,5442847,5868831,1853,2090,-4684,-1332,-1567,2326,-2137,6087,49,28,817
894815,5440460,5869052,5443044,5869028,1708,1978,-4425,-1065,-1471,2317,-1982,6183,49,28,817
895816,5440668,5869240,5443241,5869225,1578,1857,-4146,-802,-1380,2132,-1910,6570,48,42,813
896817,5440816,5869388,5443438,5869422,1976,2128,-3841,-502,-1292,2041,-1706,6654,48,42,813
897819,5440992,5869584,5443635,5869619,1810,1829,-3528,-292,-1206,2165,-1170,6424,27,28,815
898819,5441160,5869764,5443832,5869816,1874,1936,-2941,88,-1017,2149,-71,6813,27,28,815
899820,5441328,5869896,5444029,5870013,1886,2265,-2689,370,-914,2077,18,7062,28,24,813
900821,5441508,5870040,5444226,5870210,1820,2213,-2426,732,-813,1975,-63,7409,28,24,813
901822,5441728,5870172,5444423,5870407,1560,2317,-2134,1171,-711,1840,-439,7646,47,41,814
902823,5441944,5870356,5444620,5870604,1577,1997,-1812,1630,-630,1740,-790,7624,47,41,814
903824,5442156,5870552,5444817,5870801,1596,1923,-1437,2079,-560,1653,-1596,7601,29,37,813
904825,5442328,5870736,5445014,5870998,1858,2004,-1000,2481,-486,1571,-2437,7544,29,37,813
905826,5442564,5870896,5445211,5871195,1441,2170,-541,2782,-470,1364,-1624,7084,44,28,814
906827,5442768,5871052,5445408,5871392,1639,2213,-131,2922,-542,1199,-825,6730,44,28,814
907828,5442956,5871184,5445605,5871589,1743,2391,208,2962,-645,1283,-762,6462,47,28,813
908829,5443200,5871332,5445802,5871786,1373,2313,519,2955,-747,1344,-398,6273,47,28,813
909830,5443392,5871476,5445999,5871983,1700,2361,795,2989,-795,1395,-327,6364,29,41,814
910831,5443568,5871676,5446196,5872180,1810,2010,1040,2920,-773,1400,-211,6009,29,41,814
911833,5443780,5871864,5446393,5872377,1579,2090,1245,2860,-719,1299,-158,6137,26,42,815
912834,5443960,5872032,5446590,5872574,1787,2228,1421,2812,-663,1162,-79,6088,26,42,815
913835,5444148,5872176,5446787,5872771,1741,2401,1569,2670,-593,1162,-7,5808,31,40,814
914836,5444368,5872364,5446984,5872968,1532,2130,1693,2487,-485,1183,-149,5667,31,40,814
915837,5444540,5872552,5447181,5873165,1843,2134,1792,2253,-328,1283,-609,5457,30,34,813
916838,5444712,5872740,5447378,5873362,1855,2138,1902,2013,-132,1373,-955,5350,30,34,813
917839,5444952,5872892,5447575,5873559,1411,2383,2012,1751,85,1367,-987,5340,42,47,814
918840,5445112,5873064,5447772,5873756,1928,2269,2063,1668,328,1336,-956,5831,42,47,814
919841,5445256,5873212,5447969,5873953,2052,2440,1886,1979,644,1274,-1115,7066,36,43,813
920841,5445444,5873432,5448166,5874150,1782,1981,1780,2128,854,1071,-325,5557,36,43,813
921843,5445632,5873604,5448363,5874347,1786,2292,1775,2034,919,970,-215,5416,26,39,812
922844,5445800,5873764,5448560,5874544,1924,2383,1739,1962,926,1032,-431,5625,26,39,812
923854,5445992,5873928,5448790,5874774,1791,2387,1669,1905,885,1081,-179,5284,37,25,814
924846,5446200,5874068,5448987,5874971,1687,2562,1629,1761,792,1058,-80,4845,37,25,814
925847,5446372,5874216,5449184,5875168,1924,2534,1613,1559,715,1019,-880,4928,33,39,812
926847,5446532,5874388,5449381,5875365,2016,2396,1626,1433,675,751,-1441,5031,33,39,812
927848,5446760,5874576,5449578,5875562,1578,2300,1633,1370,623,532,-944,5124,24,34,810
928849,5446908,5874756,5449775,5875759,2099,2357,1633,1389,559,428,-793,5106,24,34,810
929851,5447040,5874912,5449972,5875956,2229,2525,1641,1390,481,329,-630,5000,31,44,810
930852,5447264,5875084,5450169,5876153,1642,2436,1661,1409,391,292,-341,5081,31,44,810
931852,5447404,5875292,5450366,5876350,2193,2207,1689,1420,336,416,-613,4960,28,41,810
932853,5447552,5875500,5450563,5876547,2165,2203,1725,1439,315,367,-826,4902,28,41,810
933854,5447756,5875676,5450760,5876744,1813,2412,1772,1537,298,95,-926,4945,40,33,812
934855,5447920,5875848,5450957,5876941,2078,2448,1831,1563,290,-187,-1317,4642,40,33,812
935856,5448064,5876028,5451154,5877138,2226,2405,1885,1553,302,-392,-1138,4519,36,42,811
936857,5448272,5876188,5451351,5877335,1823,2548,1900,1492,343,-460,-974,4370,36,42,811
937858,5448432,5876424,5451548,5877532,2139,2055,1874,1465,427,-579,-1023,4399,33,50,810
938859,5448580,5876640,5451745,5877729,2236,2172,1845,1399,530,-814,-841,4188,33,50,810
939860,5448728,5876832,5451942,5877926,2258,2324,1843,1306,606,-938,-757,4050,20,42,809
940861,5448916,5877020,5452139,5878123,2013,2353,1852,1208,652,-902,-977,3953,20,42,809
941862,5449032,5877180,5452336,5878320,2499,2545,1858,1118,705,-939,-1333,3833,19,36,811
942863,5449180,5877400,5452533,5878517,2321,2160,1860,974,750,-1111,-1032,3771,19,36,811
943864,5449360,5877604,5452730,5878714,2129,2257,1857,787,789,-1259,-694,3676,41,35,811
944865,5449468,5877808,5452927,5878911,2620,2254,1849,647,845,-1260,-650,3716,41,35,811
945867,5449592,5878016,5453124,5879108,2552,2224,1828,516,950,-1246,-503,3497,28,49,810
946868,5449788,5878192,5453321,5879305,2103,2435,1781,302,1100,-1222,-517,3389,28,49,810
947868,5449928,5878400,5453518,5879502,2479,2230,1730,97,1288,-1192,-571,3394,21,44,808
948869,5450048,5878620,5453715,5879699,2638,2145,1702,-113,1481,-1283,-517,3312,21,44,808
949870,5450224,5878852,5453912,5879896,2298,2054,1683,-312,1640,-1315,-516,3340,22,36,809
950871,5450396,5879076,5454109,5880093,2335,2092,1667,-529,1779,-1322,-619,3341,22,36,809
951872,5450524,5879312,5454306,5880290,2641,2001,1658,-650,1924,-1273,-688,3638,39,39,807
952873,5450688,5879500,5454503,5880487,2431,2305,1644,-680,2078,-1257,-522,3737,39,39,807
953875,5450868,5879780,5454700,5880684,2339,1694,1612,-656,2238,-1344,-347,3995,40,54,811
954875,5450996,5880004,5454897,5880881,2696,2032,1563,-588,2369,-1377,-286,4019,40,54,811
955876,5451132,5880224,5455094,5881078,2673,2047,1496,-544,2461,-1325,-248,3971,32,46,809
956877,5451308,5880476,5455291,5881275,2433,1824,1404,-500,2531,-1244,-456,4016,32,46,809
957879,5451480,5880704,5455488,5881472,2470,1960,1303,-515,2621,-1231,-740,3934,29,50,809
958879,5451596,5880924,5455685,5881669,2856,2000,1210,-478,2713,-1243,-479,3959,29,50,809
959880,5451776,5881156,5455882,5881866,2464,1910,1148,-507,2766,-1187,56,3703,22,54,812
960881,5451940,5881388,5456079,5882063,2579,1894,1113,-544,2796,-1047,234,3802,22,54,812
961883,5452112,5881644,5456276,5882260,2541,1718,1101,-605,2811,-933,339,3650,45,48,808
962884,5452284,5881888,5456473,5882457,2553,1773,1099,-677,2822,-831,335,3771,45,48,808
963884,5452480,5882132,5456670,5882654,2405,1752,1112,-735,2825,-711,349,3795,30,39,811
964886,5452656,5882364,5456867,5882851,2539,1813,1143,-771,2831,-585,337,3866,30,39,811
965886,5452836,5882608,5457064,5883048,2523,1717,1204,-798,2837,-468,2,3856,45,47,812
966887,5453028,5882856,5457261,5883245,2451,1669,1301,-837,2862,-265,-399,3842,45,47,812
967888,5453220,5883088,5457458,5883442,2454,1754,1401,-855,2899,-142,159,3944,37,42,811
968890,5453396,5883344,5457655,5883639,2564,1578,1472,-868,2936,-46,676,3927,37,42,811
969891,5453560,5883656,5457852,5883836,2654,1178,1514,-873,2980,61,925,3986,28,48,813
970891,5453736,5883848,5458049,5884033,2589,1930,1540,-819,3058,66,1098,4115,28,48,813
971892,5453928,5884000,5458246,5884230,2492,2200,1574,-731,3141,114,717,4207,43,39,811
972893,5454128,5884148,5458443,5884427,2442,2246,1627,-606,3215,96,234,4317,43,39,811
973894,5454344,5884296,5458640,5884624,2334,2268,1692,-423,3274,-43,626,4412,48,43,809
974895,5454476,5884484,5458837,5884821,2888,2022,1763,-254,3298,-99,846,4377,48,43,809
975896,5454652,5884688,5459034,5885018,2623,1919,1839,-44,3277,-145,639,4578,45,32,809
976897,5454824,5884964,5459231,5885215,2660,1434,1951,209,3261,-61,-241,4685,45,32,809
977899,5454972,5885260,5459428,5885412,2833,1265,2078,551,3220,-75,248,4807,30,54,808
978900,5455120,5885588,5459625,5885609,2855,1008,2173,934,3141,-151,1026,4916,30,54,808
979901,5455260,5885772,5459822,5885806,2931,1913,2238,1312,3051,-155,1310,4862,25,50,812
980901,5455408,5886052,5460019,5886003,2904,1277,2283,1652,2944,-230,1465,4771,25,50,812
981902,5455524,5886380,5460216,5886200,3139,919,2313,1969,2818,-309,1458,4664,48,61,813
982903,5455700,5886668,5460413,5886397,2775,1129,2314,2178,2657,-280,1337,4267,48,61,813
983904,5455900,5886984,5460610,5886594,2624,902,2250,2349,2430,-378,1262,4172,43,74,810
984905,5456104,5887288,5460807,5886791,2597,930,2149,2466,2173,-419,1049,3950,43,74,810
985907,5456280,5887580,5461004,5886988,2782,963,2014,2581,1925,-379,844,4030,49,61,813
986907,5456448,5887836,5461201,5887185,2846,1162,1864,2812,1717,-358,647,4154,49,61,813
987908,5456624,5888172,5461398,5887382,2806,601,1713,3042,1551,-294,501,4055,38,61,815
988909,5456780,5888512,5461595,5887579,2950,513,1590,3241,1436,-225,341,3987,38,61,815
989911,5456940,5888836,5461792,5887776,2943,558,1493,3305,1365,-153,399,3579,45,66,812
990911,5457100,5889104,5461989,5887973,2960,875,1395,3254,1277,-11,838,3212,45,66,812
991912,5457252,5889416,5462186,5888170,3030,550,1279,3066,1126,63,1451,2786,37,74,814
992913,5457416,5889760,5462383,5888367,2970,285,1148,2789,908,62,1969,2510,37,74,814
993915,5457544,5890064,5462580,5888564,3227,488,990,2458,619,55,2426,2317,44,67,811
994915,5457688,5890316,5462777,5888761,3151,788,792,2106,269,60,2753,2255,44,67,811
995916,5457800,5890500,5462974,5888958,3389,1219,544,1841,-116,124,2720,2528,22,51,813
996917,5457944,5890708,5463171,5889155,3214,1064,254,1672,-498,120,2694,2728,22,51,813
997918,5458116,5890924,5463368,5889352,3051,1005,-71,1648,-837,130,2729,3131,24,47,811
998919,5458264,5891132,5463565,5889549,3223,1050,-408,1736,-1097,254,2554,3350,24,47,811
999920,5458432,5891300,5463762,5889746,3112,1313,-719,1865,-1264,353,2313,3580,27,46,810
1000921,5458608,5891456,5463959,5889943,3072,1405,-976,2022,-1363,363,2040,3479,27,46,810
1001923,5458768,5891620,5464156,5890140,3189,1369,-1184,2004,-1457,344,1872,3014,46,43,810
1002923,5458924,5891788,5464353,5890337,3233,1357,-1384,1870,-1624,256,2140,2709,46,43,810
1003924,5459124,5891940,5464550,5890534,2958,1477,-1587,1641,-1838,285,2023,2627,33,32,809
1004925,5459304,5892092,5464747,5890731,3091,1495,-1753,1553,-1975,434,1549,2883,33,32,809
1005926,5459484,5892228,5464944,5890928,3100,1622,-1856,1507,-2049,416,1603,2961,28,40,808
1006934,5459700,5892428,5465174,5891158,2882,1235,-1875,1531,-2068,619,979,3183,28,40,808
1007928,5459884,5892580,5465371,5891355,3090,1555,-1847,1600,-2066,722,557,3260,31,35,809
1008929,5460072,5892744,5465568,5891552,3070,1494,-1816,1644,-2115,695,557,3083,31,35,809
1009931,5460300,5892880,5465765,5891749,2807,1695,-1810,1665,-2233,665,251,3085,53,33,812
1010932,5460504,5893016,5465962,5891946,2955,1722,-1855,1728,-2387,610,168,3266,53,33,812
1011933,5460704,5893148,5466159,5892143,2980,1776,-1926,1841,-2555,575,32,3497,39,23,810
1012933,5460924,5893316,5466356,5892340,2846,1564,-2025,2027,-2723,451,-109,3806,39,23,810
1013935,5461116,5893472,5466553,5892537,3024,1656,-2158,2380,-2888,290,-376,4348,54,35,809
1014935,5461332,5893616,5466750,5892734,2866,1754,-2299,2869,-3057,62,-712,4746,54,35,809
1015936,5461544,5893764,5466947,5892931,2886,1750,-2449,3481,-3254,-263,-886,5114,31,24,809
1016937,5461736,5893912,5467144,5893128,3014,1772,-2587,4065,-3533,-664,-1021,4938,31,24,809
1017938,5461916,5894072,5467341,5893325,3098,1713,-2706,4613,-3869,-913,-1273,5033,55,27,808
1018939,5462132,5894248,5467538,5893522,2865,1622,-2803,5007,-4198,-988,-1537,4612,55,27,808
1019940,5462336,5894372,5467735,5893719,2938,1979,-2882,5303,-4492,-1144,-1743,4500,50,34,809
1020941,5462548,5894440,5467932,5893916,2883,2385,-2953,5530,-4721,-1398,-2019,4350,50,34,809
1021942,5462744,5894552,5468129,5894113,2984,2148,-3006,5688,-4880,-1542,-2344,4224,49,20,809
1022943,5462952,5894660,5468326,5894310,2905,2212,-3041,5807,-4973,-1689,-2608,4180,49,20,809
1023944,5463128,5894800,5468523,5894507,3115,2037,-3044,5843,-4995,-1846,-2760,3912,52,33,806
1024945,5463300,5894924,5468720,5894704,3152,2169,-3009,5754,-4950,-2022,-3034,3783,52,33,806
1025946,5463480,5895036,5468917,5894901,3111,2281,-2914,5488,-4826,-2123,-3144,3330,37,23,805
1026947,5463664,5895152,5469114,5895098,3093,2292,-2783,5091,-4613,-2021,-3202,3136,37,23,805
1027948,5463860,5895292,5469311,5895295,3019,2167,-2633,4610,-4323,-2046,-3057,2965,33,34,804
1028949,5464048,5895448,5469508,5895492,3074,2085,-2484,4050,-4006,-2301,-2655,3006,33,34,804
1029950,5464248,5895608,5469705,5895689,2999,2076,-2367,3481,-3694,-2472,-2140,3072,51,32,803
1030951,5464460,5895752,5469902,5895886,2918,2199,-2272,2889,-3406,-2629,-1650,3203,51,32,803
1031952,5464664,5895832,5470099,5896083,2966,2651,-2171,2363,-3124,-2765,-1724,3546,30,22,806
1032953,5464844,5895932,5470296,5896280,3124,2568,-2051,1856,-2801,-2844,-1932,3658,30,22,806
1033954,5465060,5896096,5470493,5896477,2892,2183,-1961,1415,-2440,-2877,-1798,4112,43,22,806
1034955,5465288,5896220,5470690,5896674,2804,2465,-1923,1010,-2067,-2727,-1461,4274,43,22,806
1035956,5465516,5896392,5470887,5896871,2792,2176,-1903,691,-1693,-2574,-1159,4604,35,26,803
1036957,5465716,5896536,5471084,5897068,2967,2374,-1899,364,-1351,-2551,-533,4667,35,26,803
1037958,5465948,5896636,5471281,5897265,2753,2692,-1938,-6,-1067,-2420,-78,4819,54,28,805
1038959,5466188,5896732,5471478,5897462,2685,2762,-2016,-285,-842,-2268,120,5121,54,28,805
1039960,5466420,5896904,5471675,5897659,2721,2298,-2080,-595,-677,-2123,411,5043,62,29,805
1040961,5466676,5897044,5471872,5897856,2546,2523,-2136,-873,-589,-1938,634,5251,62,29,805
1041962,5466956,5897168,5472069,5898053,2360,2655,-2152,-1178,-564,-1697,610,5259,58,25,805
1042964,5467236,5897256,5472266,5898250,2325,2928,-2111,-1443,-560,-1326,210,5525,58,25,805
1043965,5467504,5897348,5472463,5898447,2369,2949,-2017,-1684,-565,-892,-131,5552,51,28,807
1044966,5467792,5897464,5472660,5898644,2205,2836,-1905,-1918,-574,-509,-289,5547,51,28,807
1045967,5468076,5897592,5472857,5898841,2193,2791,-1814,-2198,-606,-178,-19,5539,52,35,806
1046968,5468376,5897712,5473054,5899038,2048,2875,-1701,-2468,-709,73,496,5548,52,35,806
1047969,5468708,5897892,5473251,5899235,1790,2508,-1550,-2724,-882,171,678,5722,67,21,807
1048969,5468996,5898020,5473448,5899432,2026,2863,-1359,-2958,-1104,279,355,5916,67,21,807
1049971,5469324,5898128,5473645,5899629,1719,3028,-1144,-3109,-1311,570,-451,6258,53,35,806
1050972,5469664,5898248,5473842,5899826,1583,2987,-922,-3196,-1447,922,-1109,6410,53,35,806
1051973,5469952,5898392,5474039,5900023,1868,2860,-693,-3268,-1511,1087,-1482,6318,54,22,808
1052974,5470236,5898480,5474236,5900220,1855,3259,-462,-3371,-1536,1174,-1533,6052,54,22,808
1053975,5470580,5898676,5474433,5900417,1417,2585,-215,-3535,-1554,1316,-1478,5697,61,24,809
1054976,5470900,5898796,5474630,5900614,1514,3093,36,-3697,-1536,1377,-1562,5641,61,24,809
1055977,5471184,5898924,5474827,5900811,1700,3075,308,-3827,-1508,1195,-1289,5577,58,23,806
1056977,5471516,5899060,5475024,5901008,1342,3052,601,-3896,-1548,832,-889,5720,58,23,806
1057979,5471804,5899204,5475221,5901205,1578,3025,938,-3956,-1626,531,-1176,5711,58,23,809
1058980,5472072,5899344,5475418,5901402,1672,3076,1317,-3957,-1672,431,-1799,5852,58,23,809
1059980,5472388,5899544,5475615,5901599,1321,2700,1709,-3835,-1672,237,-2007,5881,69,33,809
1060981,5472680,5899688,5475812,5901796,1430,3074,2092,-3684,-1615,-46,-2312,5992,69,33,809
1061982,5472940,5899836,5476009,5901993,1602,3070,2462,-3439,-1514,-181,-2383,6095,46,32,807
1062983,5473200,5899968,5476206,5902190,1575,3199,2826,-3181,-1409,-388,-1955,5966,46,32,807
1063984,5473488,5900116,5476403,5902387,1361,3121,3158,-2824,-1349,-765,-1066,6153,44,28,808
1064985,5473724,5900312,5476600,5902584,1669,2822,3490,-2505,-1347,-1159,-598,5900,44,28,808
1065987,5473916,5900524,5476797,5902781,1948,2716,3834,-2161,-1371,-1439,-633,5890,47,44,807
1066987,5474192,5900712,5476994,5902978,1388,2870,4215,-1780,-1364,-1568,-1151,5871,47,44,807
1067989,5474412,5900888,5477191,5903175,1729,2955,4604,-1397,-1262,-1544,-2112,5564,59,49,810
1068989,5474600,5901016,5477388,5903372,1933,3286,4979,-1042,-1070,-1503,-2622,5326,59,49,810
1069991,5474912,5901236,5477585,5903569,1108,2701,5273,-751,-827,-1462,-2754,5061,59,48,811
1070991,5475124,5901436,5477782,5903766,1727,2825,5476,-544,-575,-1441,-2436,4570,59,48,811
1071992,5475312,5901652,5477979,5903963,1882,2717,5603,-445,-378,-1528,-1520,4034,42,42,805
1072993,5475600,5901840,5478176,5904160,1217,2897,5725,-510,-229,-1490,-912,3430,42,42,805
1073994,5475848,5901996,5478373,5904357,1445,3115,5850,-674,-87,-1330,-679,3067,36,35,810
1074995,5476064,5902172,5478570,5904554,1637,3000,5922,-880,75,-1166,-624,2774,36,35,810
1075997,5476344,5902348,5478767,5904751,1201,3010,5957,-1101,257,-1004,-658,2525,53,35,811
1076998,5476608,5902536,5478964,5904948,1272,2938,5939,-1295,457,-760,-785,2478,53,35,811
1077999,5476852,5902752,5479161,5905145,1377,2756,5886,-1523,665,-507,-753,2283,64,34,809
1079000,5477136,5902952,5479358,5905342,1089,2855,5795,-1744,853,-293,-457,2150,64,34,809
1080001,5477400,5903172,5479555,5905539,1185,2721,5672,-2061,1016,-152,-215,1858,45,54,811
1081002,5477664,5903396,5479752,5905736,1156,2684,5524,-2384,1158,-79,18,1619,45,54,811
1082003,5477916,5903592,5479949,5905933,1207,2860,5354,-2726,1283,-21,140,1408,41,47,812
1083003,5478212,5903836,5480146,5906130,889,2540,5167,-3063,1378,31,337,1334,41,47,812
1084005,5478492,5904048,5480343,5906327,953,2734,4943,-3385,1430,38,652,1312,57,43,812
1085005,5478724,5904256,5480540,5906524,1238,2754,4681,-3659,1453,86,825,1327,57,43,812
1086007,5478960,5904496,5480737,5906721,1196,2535,4355,-3843,1483,215,811,1497,57,37,814
1087007,5479192,5904720,5480934,5906918,1206,2624,4002,-3968,1563,305,773,1592,57,37,814
1088008,5479408,5904916,5481131,5907115,1298,2800,3608,-4016,1695,430,855,1758,37,49,812
1089009,5479636,5905116,5481328,5907312,1210,2775,3198,-4054,1828,557,1004,1624,37,49,812
1090017,5479860,5905328,5481558,5907542,1238,2707,2786,-4088,1942,642,1311,1599,43,50,814
1091011,5480048,5905560,5481755,5907739,1467,2568,2367,-4080,2024,717,1355,1606,43,50,814
1092013,5480260,5905772,5481952,5907936,1311,2686,1946,-4105,2094,734,1486,1484,48,51,811
1093014,5480448,5905964,5482149,5908133,1465,2814,1535,-4128,2149,812,1696,1590,48,51,811
1094015,5480656,5906148,5482346,5908330,1335,2870,1148,-4136,2192,912,1828,1530,35,32,812
1095015,5480832,5906340,5482543,5908527,1545,2823,775,-4096,2228,1015,1859,1634,35,32,812
1096016,5481032,5906536,5482740,5908724,1394,2799,431,-4003,2267,1082,1897,1732,49,44,811
1097017,5481208,5906736,5482937,5908921,1553,2773,89,-3949,2293,1146,1989,1808,49,44,811
1098019,5481356,5906896,5483134,5909118,1751,3039,-228,-3815,2299,1341,1843,1966,47,35,810
1099019,5481552,5907044,5483331,5909315,1451,3136,-544,-3630,2296,1531,1763,2100,47,35,810
1100021,5481728,5907216,5483528,5909512,1586,2997,-867,-3418,2294,1717,1397,2257,44,29,811
1101021,5481900,5907384,5483725,5909709,1623,3036,-1190,-3183,2306,1832,1385,2466,44,29,811
1102023,5482076,5907532,5483922,5909906,1607,3183,-1537,-2897,2306,1916,1503,2637,27,38,809
1103023,5482256,5907648,5484119,5910103,1589,3419,-1902,-2628,2293,1912,1433,2816,27,38,809
1104024,5482400,5907784,5484316,5910300,1838,3321,-2246,-2325,2246,1868,1423,2893,44,24,807
1105025,5482624,5907904,5484513,5910497,1327,3456,-2585,-2040,2136,1908,1736,2902,44,24,807
1106026,5482780,5908036,5484710,5910694,1770,3410,-2882,-1777,1957,1980,2053,2901,40,30,805
1107027,5482928,5908184,5484907,5910891,1842,3332,-3153,-1514,1705,1984,2162,3030,40,30,805
1108028,5483128,5908316,5485104,5911088,1516,3461,-3408,-1248,1388,1923,2170,3080,32,15,806
1109030,5483312,5908408,5485301,5911285,1623,3758,-3628,-1017,1051,1911,1841,3166,32,15,806
1110030,5483480,5908556,5485498,5911482,1735,3429,-3818,-800,735,1991,1377,3285,43,16,805
1111032,5483656,5908680,5485695,5911679,1695,3612,-3990,-588,464,2086,990,3459,43,16,805
1112032,5483844,5908836,5485892,5911876,1625,3430,-4145,-308,256,2150,701,3663,49,24,802
1113033,5484048,5909004,5486089,5912073,1521,3369,-4289,36,126,2119,349,4056,49,24,802
1114035,5484244,5909156,5486286,5912270,1572,3489,-4422,455,65,2050,214,4375,43,24,804
1115035,5484460,5909312,5486483,5912467,1440,3483,-4520,809,34,1926,198,4295,43,24,804
1116036,5484660,5909504,5486680,5912664,1538,3261,-4585,1198,0,1678,128,4505,30,36,805
1117037,5484856,5909692,5486877,5912861,1565,3290,-4599,1526,-79,1293,299,4536,30,36,805
1118039,5485048,5909880,5487074,5913058,1592,3295,-4556,1788,-210,901,605,4421,35,33,806
1119039,5485264,5910072,5487271,5913255,1433,3273,-4461,1975,-368,607,663,4328,35,33,806
1120040,5485508,5910272,5487468,5913452,1239,3222,-4325,2066,-512,426,475,4217,53,28,807
1121041,5485712,5910452,5487665,5913649,1486,3355,-4151,2112,-611,250,146,4216,53,28,807
1122043,5485908,5910612,5487862,5913846,1537,3497,-3958,2089,-661,57,-119,4167,52,31,807
1123044,5486124,5910804,5488059,5914043,1404,3300,-3751,2107,-653,-163,-518,4347,52,31,807
1124044,5486344,5911024,5488256,5914240,1369,3116,-3549,2118,-594,-359,-808,4516,41,41,807
1125046,5486556,5911264,5488453,5914437,1413,2972,-3347,2180,-493,-636,-1025,4718,41,41,807
1126047,5486768,5911528,5488650,5914634,1407,2793,-3145,2269,-349,-933,-1157,4943,41,54,807
1127047,5486952,5911752,5488847,5914831,1587,3032,-2932,2387,-161,-1218,-1205,4993,41,54,807
1128048,5487168,5911992,5489044,5915028,1380,2914,-2703,2370,54,-1555,-1199,4853,35,43,809
1129049,5487368,5912240,5489241,5915225,1479,2842,-2482,2348,272,-1969,-1299,5151,35,43,809
1130051,5487544,5912500,5489438,5915422,1638,2740,-2262,2405,489,-2322,-1402,5372,33,58,809
1131051,5487716,5912804,5489635,5915619,1675,2419,-2020,2400,694,-2554,-1262,5086,33,58,809
1132052,5487880,5913060,5489832,5915816,1739,2693,-1753,2334,897,-2627,-1231,5201,46,38,811
1133053,5488068,5913292,5490029,5916013,1594,2828,-1490,2289,1117,-2698,-1294,5507,46,38,811
1134055,5488232,5913508,5490226,5916210,1759,2920,-1228,2222,1373,-2816,-1569,5390,31,44,812
1135055,5488396,5913772,5490423,5916407,1773,2591,-951,2113,1649,-2906,-1857,5335,31,44,812
1136056,5488556,5914084,5490620,5916604,1816,2241,-665,1954,1907,-2968,-2003,5333,35,47,811
1137057,5488708,5914364,5490817,5916801,1885,2405,-384,1739,2114,-3025,-1856,5179,35,47,811
1138058,5488848,5914592,5491014,5916998,1985,2717,-121,1480,2285,-2877,-1635,5063,29,44,810
1139059,5489016,5914864,5491211,5917195,1824,2410,130,1165,2458,-2522,-1550,4932,29,44,810
1140060,5489156,5915152,5491408,5917392,2024,2270,355,857,2635,-2331,-1598,5029,39,59,812
1141062,5489308,5915420,5491605,5917589,1970,2365,550,549,2777,-2217,-1602,5078,39,59,812
1142063,5489416,5915704,5491802,5917786,2284,2226,726,217,2868,-1971,-1402,5085,20,45,812
1143064,5489536,5915948,5491999,5917983,2244,2456,893,-146,2904,-1586,-897,4928,20,45,812
1144064,5489664,5916200,5492196,5918180,2224,2383,1053,-534,2902,-1257,-458,4701,39,48,811
1145066,5489784,5916484,5492393,5918377,2309,2144,1190,-1001,2874,-1000,-169,4600,39,48,811
1146067,5489900,5916736,5492590,5918574,2370,2320,1306,-1491,2835,-647,169,4507,32,59,810
1147068,5490068,5916988,5492787,5918771,2058,2297,1430,-1996,2787,-241,609,4416,32,59,810
1148069,5490204,5917260,5492984,5918968,2285,2139,1587,-2449,2750,35,756,4439,42,45,808
1149069,5490364,5917488,5493181,5919165,2152,2400,1755,-2815,2739,129,665,4711,42,45,808
1150070,5490504,5917768,5493378,5919362,2302,2040,1919,-3133,2740,251,685,4744,36,53,810
1151071,5490660,5918052,5493575,5919559,2222,1977,2073,-3397,2716,448,879,4758,36,53,810
1152072,5490804,5918336,5493772,5919756,2320,1939,2235,-3618,2654,537,945,4821,45,46,810
1153073,5490952,5918612,5493969,5919953,2317,1955,2396,-3738,2557,445,855,5184,45,46,810
1154074,5491096,5918848,5494166,5920150,2366,2188,2525,-3710,2450,357,976,5558,40,55,812
1155075,5491256,5919168,5494363,5920347,2283,1609,2608,-3540,2370,408,1017,5806,40,55,812
1156076,5491412,5919476,5494560,5920544,2327,1635,2662,-3195,2334,391,819,6163,47,50,812
1157077,5491592,5919756,5494757,5920741,2184,1774,2708,-2796,2310,250,762,6236,47,50,812
1158079,5491780,5920040,5494954,5920938,2139,1711,2747,-2309,2270,141,733,6447,40,67,814
1159079,5491980,5920324,5495151,5921135,2063,1673,2811,-1807,2220,1,662,6302,40,67,814
1160080,5492152,5920648,5495348,5921332,2250,1367,2889,-1303,2183,-123,391,6208,47,64,812
1161081,5492356,5920960,5495545,5921529,2048,1392,2972,-850,2163,-198,109,5780,47,64,812
1162083,5492548,5921256,5495742,5921726,2125,1448,3043,-486,2143,-249,142,5462,50,48,814
1163083,5492712,5921540,5495939,5921923,2316,1485,3107,-133,2110,-271,122,5170,50,48,814
1164084,5492916,5921888,5496136,5922120,2063,1018,3174,98,2070,-353,161,4776,48,65,816
1165085,5493140,5922200,5496333,5922317,1927,1193,3248,367,2028,-398,309,4742,48,65,816
1166086,5493348,5922520,5496530,5922514,2023,1090,3318,575,1990,-350,336,4399,51,50,815
1167087,5493544,5922804,5496727,5922711,2098,1277,3378,851,1982,-230,-161,4482,51,50,815
1168088,5493776,5923076,5496924,5922908,1859,1318,3430,1115,1997,-118,-364,4206,48,63,818
1169089,5493980,5923352,5497121,5923105,2031,1258,3467,1320,1999,-34,-251,3982,48,63,818
1170091,5494216,5923692,5497318,5923302,1815,795,3488,1521,1985,84,-201,3800,54,52,815
1171091,5494448,5923956,5497515,5923499,1825,1241,3511,1666,1993,219,-287,3577,54,52,815
1172092,5494664,5924220,5497712,5923696,1917,1211,3534,1814,2023,374,-322,3492,54,65,816
1173100,5494876,5924448,5497942,5923926,1951,1437,3546,1886,2071,494,-399,3071,54,65,816
1174095,5495088,5924700,5498139,5924123,1944,1263,3536,1915,2101,640,-412,2822,42,51,818
1175096,5495312,5925004,5498336,5924320,1858,891,3488,1868,2086,754,-262,2482,42,51,818
1176097,5495528,5925276,5498533,5924517,1900,1058,3404,1824,2021,730,158,2291,56,59,817
1177097,5495760,5925496,5498730,5924714,1786,1373,3286,1740,1918,751,500,2056,56,59,817
1178099,5495960,5925740,5498927,5924911,1985,1202,3152,1649,1838,822,416,1912,55,49,819
1179100,5496156,5925956,5499124,5925108,2011,1368,3001,1533,1801,967,201,1857,55,49,819
1180101,5496376,5926208,5499321,5925305,1852,1119,2839,1358,1799,1148,202,1588,50,42,818
1181101,5496560,5926484,5499518,5925502,2082,934,2650,1187,1785,1226,533,1517,50,42,818
1182103,5496736,5926764,5499715,5925699,2143,872,2450,1056,1737,1262,645,1351,52,45,815
1183103,5496948,5927016,5499912,5925896,1911,1023,2236,903,1654,1224,873,1347,52,45,815
1184105,5497148,5927196,5500109,5926093,1986,1480,1999,826,1549,1135,1044,1526,33,36,817
1185105,5497336,5927432,5500306,5926290,2066,1113,1741,791,1420,1118,1154,1465,33,36,817
1186107,5497516,5927716,5500503,5926487,2123,774,1467,734,1285,1217,865,1459,29,56,818
1187108,5497716,5927960,5500700,5926684,1998,1004,1178,707,1159,1385,502,1441,29,56,818
1188108,5497884,5928192,5500897,5926881,2211,1062,868,664,996,1411,992,1155,42,49,817
1189109,5498048,5928416,5501094,5927078,2251,1101,540,582,791,1453,717,1142,42,49,817
1190111,5498244,5928580,5501291,5927275,2052,1490,223,549,596,1349,-23,1303,24,38,817
1191112,5498408,5928824,5501488,5927472,2267,969,-71,538,416,1200,-412,1302,24,38,817
1192113,5498632,5929076,5501685,5927669,1881,894,-371,561,237,1145,-448,1358,47,42,814
1193113,5498828,5929300,5501882,5927866,2057,1057,-700,554,44,1099,-409,1257,47,42,814
1194114,5499000,5929536,5502079,5928063,2219,965,-1056,516,-177,1131,-478,1203,34,43,815
1195115,5499188,5929756,5502276,5928260,2123,1055,-1429,474,-429,965,-519,1340,34,43,815
1196116,5499404,5929908,5502473,5928457,1940,1499,-1813,490,-688,844,-667,1665,44,49,817
1197117,5499572,5930128,5502670,5928654,2254,1064,-2212,534,-934,839,-834,1724,44,49,817
1198118,5499764,5930324,5502867,5928851,2106,1214,-2598,599,-1147,900,-938,1909,50,40,817
1199119,5500044,5930512,5503064,5929048,1521,1268,-2950,682,-1326,1082,-992,1894,50,40,817
1200120,5500256,5930708,5503261,5929245,1939,1218,-3263,693,-1477,1232,-879,1798,53,33,816
1201121,5500488,5930868,5503458,5929442,1800,1459,-3583,758,-1605,1425,-553,2189,53,33,816
1202122,5500720,5931028,5503655,5929639,1784,1475,-3898,705,-1732,1603,-460,1916,53,23,819
1203124,5500936,5931200,5503852,5929836,1877,1410,-4201,631,-1861,1690,-471,2103,53,23,819
1204124,5501160,5931344,5504049,5930033,1816,1608,-4431,487,-1968,1797,-365,1934,51,37,816
1205125,5501432,5931448,5504246,5930230,1483,1899,-4550,71,-2062,1828,-422,1104,51,37,816
1206126,5501664,5931552,5504443,5930427,1719,1940,-4592,-510,-2140,1900,-460,1073,40,20,816
1207128,5501864,5931684,5504640,5930624,1917,1793,-4625,-1089,-2239,1998,-337,1035,40,20,816
1208128,5502088,5931884,5504837,5930821,1757,1366,-4672,-1641,-2361,1994,-499,1264,56,38,816
1209129,5502348,5932032,5505034,5931018,1504,1713,-4761,-2020,-2442,1933,-795,2203,56,38,816
1210131,5502588,5932176,5505231,5931215,1611,1761,-4908,-2121,-2429,1959,-1347,3073,59,21,815
1211132,5502852,5932328,5505428,5931412,1432,1731,-5095,-2038,-2347,2014,-1691,3640,59,21,815
1212133,5503112,5932476,5505625,5931609,1430,1776,-5279,-1880,-2261,2040,-1565,4050,61,24,817
1213133,5503332,5932596,5505822,5931806,1670,1985,-5438,-1782,-2243,2030,-1272,3905,61,24,817
1214135,5503556,5932764,5506019,5932003,1634,1698,-5551,-1734,-2269,2071,-1212,4046,40,20,816
1215135,5503868,5932892,5506216,5932200,1033,1978,-5607,-1682,-2301,1984,-1196,4177,40,20,816
1216136,5504116,5933012,5506413,5932397,1412,2062,-5607,-1615,-2297,1903,-1361,4379,44,24,813
1217137,5504348,5933164,5506610,5932594,1497,1882,-5594,-1460,-2241,1903,-1691,4906,44,24,813
1218138,5504568,5933268,5506807,5932791,1561,2223,-5536,-1319,-2136,2026,-1714,4743,54,32,817
1219139,5504772,5933428,5507004,5932988,1659,1889,-5443,-1255,-2025,2152,-1586,4713,54,32,817
1220140,5504924,5933576,5507201,5933185,2004,1985,-5310,-1195,-1926,2202,-1418,4774,32,32,816
1221141,5505112,5933732,5507398,5933382,1784,1953,-5134,-1248,-1829,2221,-1417,4649,32,32,816
1222142,5505264,5933840,5507595,5933579,2029,2292,-4926,-1304,-1730,2298,-1430,4877,35,20,815
1223144,5505404,5933932,5507792,5933776,2130,2438,-4711,-1394,-1639,2452,-1363,4935,35,20,815
1224144,5505600,5934068,5507989,5933973,1780,2190,-4490,-1390,-1545,2579,-1597,5228,22,21,814
1225145,5505784,5934236,5508186,5934170,1861,2002,-4271,-1261,-1420,2517,-1942,5716,22,21,814
1226147,5505972,5934376,5508383,5934367,1841,2203,-4025,-977,-1281,2407,-1924,6250,29,36,809
1227147,5506216,5934468,5508580,5934564,1470,2549,-3755,-554,-1162,2385,-1858,6800,29,36,809
1228148,5506400,5934652,5508777,5934761,1852,1979,-3475,-36,-1066,2266,-1901,7187,47,35,813
1229149,5506600,5934792,5508974,5934958,1751,2279,-3194,512,-1008,2153,-1605,7290,47,35,813
1230150,5506816,5934972,5509171,5935155,1643,2037,-2905,1000,-1006,2136,-1125,7141,43,32,812
1231151,5507028,5935136,5509368,5935352,1662,2151,-2604,1407,-1038,2170,-1040,7097,43,32,812
1232152,5507224,5935288,5509565,5935549,1763,2246,-2304,1808,-1071,2252,-1039,7162,36,36,813
1233153,5507404,5935428,5509762,5935746,1871,2346,-1998,2221,-1107,2166,-964,7121,36,36,813
1234154,5507628,5935572,5509959,5935943,1585,2345,-1682,2642,-1138,1989,-865,7186,30,30,813
1235156,5507796,5935688,5510156,5936140,1948,2556,-1375,2993,-1161,1854,-835,7090,30,30,813
1236156,5507976,5935872,5510353,5936337,1880,2137,-1075,3289,-1163,1604,-929,6951,41,33,811
1237157,5508212,5936036,5510550,5936534,1514,2276,-771,3519,-1152,1315,-865,6641,41,33,811
1238158,5508408,5936192,5510747,5936731,1764,2344,-459,3659,-1164,1130,-789,6337,50,33,809
1239159,5508600,5936344,5510944,5936928,1793,2389,-147,3700,-1205,1099,-839,6077,50,33,809
1240160,5508828,5936528,5511141,5937125,1554,2195,153,3634,-1259,1183,-918,5714,48,21,814
1241161,5509088,5936660,5511338,5937322,1327,2548,413,3511,-1305,1227,-1127,5555,48,21,814
1242163,5509280,5936804,5511535,5937519,1754,2497,637,3419,-1291,1061,-1791,5641,41,24,812
1243163,5509508,5936964,5511732,5937716,1517,2413,869,3353,-1212,727,-2186,5609,41,24,812
1244164,5509752,5937112,5511929,5937913,1396,2511,1108,3319,-1104,357,-1955,5711,39,24,813
1245165,5509956,5937276,5512126,5938110,1643,2425,1334,3298,-1009,138,-1207,5614,39,24,813
1246166,5510128,5937456,5512323,5938307,1855,2332,1518,3240,-941,42,-664,5503,48,38,813
1247167,5510336,5937588,5512520,5938504,1625,2661,1643,3111,-880,-24,-391,5266,48,38,813
1248169,5510536,5937752,5512717,5938701,1675,2476,1758,2912,-783,-38,-474,5162,47,41,811
1249169,5510696,5937968,5512914,5938898,1941,2142,1886,2707,-635,-48,-570,5063,47,41,811
1250170,5510900,5938164,5513111,5939095,1663,2269,1993,2463,-462,-24,-382,4867,46,35,811
1251171,5511060,5938368,5513308,5939292,1955,2216,2082,2171,-260,142,-573,4661,46,35,811
1252172,5511228,5938540,5513505,5939489,1918,2427,2161,1884,16,403,-1352,4766,33,35,812
1253173,5511380,5938748,5513702,5939686,2039,2197,2223,1599,358,624,-1634,4638,33,35,812
1254174,5511580,5938972,5513899,5939883,1738,2085,2271,1307,685,728,-1348,4553,25,35,812
1255175,5511720,5939200,5514096,5940080,2139,2046,2278,1012,950,895,-1069,4507,25,35,812
1256186,5511932,5939388,5514326,5940310,1697,2316,2110,1063,1162,1152,-950,5748,26,35,812
1257177,5512104,5939604,5514523,5940507,1958,2132,1912,1173,1308,1060,-697,5077,26,35,812
1258179,5512276,5939740,5514720,5940704,1970,2659,1855,1033,1346,857,-400,4298,26,42,811
1259179,5512436,5939928,5514917,5940901,2061,2338,1840,782,1285,615,-255,4592,26,42,811
1260181,5512612,5940124,5515114,5941098,1971,2289,1763,724,1164,377,-405,5200,35,40,811
1261181,5512772,5940332,5515311,5941295,2087,2209,1725,749,1057,378,-986,4944,35,40,811
1262182,5512952,5940532,5515508,5941492,1971,2258,1766,840,991,451,-1184,5150,22,33,811
1263183,5513136,5940724,5515705,5941689,1951,2311,1834,980,934,378,-844,5237,22,33,811
1264184,5513304,5940912,5515902,5941886,2065,2340,1879,1122,868,331,-790,5109,23,33,811
1265185,5513496,5941084,5516099,5942083,1917,2451,1881,1184,777,265,-548,4856,23,33,811
1266186,5513672,5941276,5516296,5942280,2028,2328,1862,1185,667,266,-283,4661,26,40,812
1267187,5513860,5941480,5516493,5942477,1957,2251,1865,1150,571,289,-182,4460,26,40,812
1268188,5514012,5941660,5516690,5942674,2202,2408,1908,1030,502,142,-153,4120,30,32,811
1269189,5514224,5941848,5516887,5942871,1821,2362,1973,850,464,91,-42,3891,30,32,811
1270190,5514388,5942036,5517084,5943068,2136,2366,2009,625,432,-7,397,3667,22,48,810
1271191,5514508,5942240,5517281,5943265,2445,2263,2000,440,374,-190,705,3790,22,48,810
1272192,5514676,5942424,5517478,5943462,2159,2395,1968,289,294,-375,613,3823,21,35,810
1273193,5514844,5942608,5517675,5943659,2172,2400,1941,182,227,-497,220,3947,21,35,810
1274195,5514972,5942800,5517872,5943856,2453,2353,1897,158,217,-475,-128,4073,33,48,809
1275195,5515092,5943004,5518069,5944053,2537,2274,1823,194,308,-464,-579,4183,33,48,809
1276197,5515280,5943204,5518266,5944250,2117,2298,1716,261,463,-710,-649,4213,40,46,810
1277197,5515416,5943404,5518463,5944447,2470,2298,1580,312,641,-957,-522,4130,40,46,810
1278199,5515552,5943612,5518660,5944644,2496,2243,1439,314,795,-1172,-11,3886,30,33,808
1279199,5515716,5943796,5518857,5944841,2337,2399,1318,257,938,-1309,16,3707,30,33,808
1280201,5515868,5944016,5519054,5945038,2432,2164,1236,199,1082,-1405,-310,3719,23,41,808
1281201,5516004,5944224,5519251,5945235,2559,2234,1200,127,1244,-1546,-613,3571,23,41,808
1282202,5516160,5944416,5519448,5945432,2453,2337,1196,98,1400,-1581,-884,3610,32,39,808
1283203,5516328,5944660,5519645,5945629,2391,1991,1202,96,1546,-1511,-1479,3564,32,39,808
1284204,5516456,5944884,5519842,5945826,2672,2104,1228,152,1712,-1528,-1750,3803,21,54,808
1285205,5516608,5945108,5520039,5946023,2543,2093,1253,202,1850,-1709,-953,3652,21,54,808
1286206,5516788,5945356,5520236,5946220,2376,1920,1249,218,1933,-1819,-381,3644,40,40,810
1287207,5516896,5945576,5520433,5946417,2866,2085,1192,255,1981,-1777,-83,3644,40,40,810
1288208,5517048,5945780,5520630,5946614,2612,2183,1114,255,2014,-1678,-63,3547,21,47,809
1289209,5517216,5945996,5520827,5946811,2524,2100,1024,306,2038,-1675,7,3681,21,47,809
1290210,5517376,5946220,5521024,5947008,2592,2038,955,275,2080,-1532,-45,3485,31,41,807
1291211,5517544,5946464,5521221,5947205,2555,1892,883,311,2164,-1306,-310,3725,31,41,807
1292212,5517716,5946668,5521418,5947402,2541,2139,814,296,2301,-1103,-446,3541,29,52,807
1293213,5517896,5946900,5521615,5947599,2500,1949,748,243,2441,-970,-68,3574,29,52,807
1294214,5518072,5947152,5521812,5947796,2535,1800,696,155,2560,-876,167,3324,34,47,811
1295215,5518260,5947384,5522009,5947993,2464,1910,670,-28,2655,-748,304,3089,34,47,811
1296216,5518460,5947588,5522206,5948190,2389,2082,671,-241,2712,-558,369,3103,50,41,810
1297217,5518612,5947856,5522403,5948387,2709,1651,713,-505,2753,-483,337,3028,50,41,810
1298218,5518800,5948080,5522600,5948584,2489,1914,784,-669,2772,-380,336,3339,28,44,811
1299219,5518972,5948340,5522797,5948781,2600,1661,876,-801,2790,-168,-235,3343,28,44,811
1300220,5519168,5948580,5522994,5948978,2452,1767,978,-836,2830,0,-629,3607,33,54,810
1301221,5519332,5948828,5523191,5949175,2667,1695,1074,-887,2844,34,58,3557,33,54,810
1302222,5519504,5949136,5523388,5949372,2628,1271,1131,-910,2807,-69,1036,3760,32,53,810
1303223,5519728,5949348,5523585,5949569,2292,1865,1154,-879,2772,-125,1296,3933,32,53,810
1304224,5519888,5949496,5523782,5949766,2710,2286,1145,-794,2754,-154,1282,4104,34,54,809
1305225,5520060,5949648,5523979,5949963,2647,2281,1118,-635,2739,-136,792,4422,34,54,809
1306227,5520236,5949804,5524176,5950160,2631,2274,1097,-395,2745,-97,452,4578,35,32,812
1307228,5520344,5949956,5524373,5950357,3096,2319,1085,-84,2750,-120,724,4755,35,32,812
1308229,5520508,5950176,5524570,5950554,2762,1885,1081,230,2737,-292,1022,4691,39,36,808
1309230,5520652,5950392,5524767,5950751,2911,1901,1115,506,2637,-465,1181,4668,39,36,808
1310231,5520808,5950640,5524964,5950948,2854,1679,1214,741,2447,-547,1243,4504,45,46,804
1311231,5520928,5950972,5525161,5951145,3114,1095,1337,947,2206,-570,1486,4490,45,46,804
1312232,5521032,5951144,5525358,5951342,3256,2106,1414,1153,1999,-472,1633,4487,25,53,808
1313233,5521220,5951460,5525555,5951539,2736,1153,1435,1331,1885,-386,1591,4379,25,53,808
1314235,5521412,5951796,5525752,5951736,2714,967,1426,1539,1826,-403,1383,4471,48,64,808
1315236,5521584,5952080,5525949,5951933,2851,1254,1398,1686,1789,-388,1005,4310,48,64,808
1316236,5521764,5952380,5526146,5952130,2808,1109,1350,1772,1745,-342,514,4162,33,61,811
1317238,5521936,5952676,5526343,5952327,2870,1090,1304,1919,1736,-303,180,4218,33,61,811
1318238,5522092,5952968,5526540,5952524,2989,1073,1293,2009,1725,-393,256,4041,46,55,811
1319239,5522268,5953248,5526737,5952721,2874,1112,1284,2081,1658,-537,359,4016,46,55,811
1320240,5522412,5953556,5526934,5952918,3099,887,1283,2122,1526,-642,409,3903,46,67,812
1321242,5522556,5953908,5527131,5953115,3123,544,1295,2205,1371,-696,458,3966,46,67,812
1322243,5522732,5954272,5527328,5953312,2933,396,1301,2332,1239,-817,259,4088,36,68,812
1323244,5522856,5954648,5527525,5953509,3290,242,1293,2474,1129,-831,405,4053,36,68,812
1324245,5523008,5954916,5527722,5953706,3136,886,1258,2590,995,-719,834,3827,42,75,811
1325246,5523132,5955140,5527919,5953903,3344,1149,1192,2664,819,-658,1177,3661,42,75,811
1326247,5523264,5955480,5528116,5954100,3324,360,1066,2586,620,-520,1506,3461,34,68,810
1327247,5523384,5955768,5528313,5954297,3434,645,891,2482,405,-380,1771,3334,34,68,810
1328248,5523532,5956008,5528510,5954494,3281,926,695,2407,153,-286,2137,3365,40,51,808
1329249,5523692,5956248,5528707,5954691,3223,906,481,2419,-136,-232,2376,3611,40,51,808
1330250,5523860,5956496,5528904,5954888,3187,834,235,2483,-416,-117,2311,3833,24,53,809
1331251,5524012,5956684,5529101,5955085,3308,1213,-19,2544,-646,24,2241,3905,24,53,809
1332252,5524196,5956868,5529298,5955282,3115,1244,-262,2673,-852,179,2340,4076,28,48,810
1333253,5524352,5957016,5529495,5955479,3309,1489,-477,2701,-1091,210,2522,3525,28,48,810
1334254,5524516,5957144,5529692,5955676,3274,1644,-685,2582,-1412,64,2836,3234,43,28,809
1335255,5524704,5957328,5529889,5955873,3129,1300,-917,2312,-1834,-108,2916,2801,43,28,809
1336256,5524892,5957480,5530086,5956070,3134,1519,-1197,2020,-2292,-36,2558,2859,49,30,807
1337257,5525048,5957612,5530283,5956267,3353,1672,-1541,1818,-2660,163,2154,3064,49,30,807
1338259,5525268,5957764,5530480,5956464,2944,1567,-1911,1700,-2866,409,1784,3379,44,40,809
1339266,5525468,5957920,5530710,5956694,3083,1575,-2234,1725,-2896,720,1418,3752,44,40,809
1340261,5525664,5958108,5530907,5956891,3110,1378,-2511,1749,-2805,923,1021,3659,47,25,807
1341261,5525876,5958316,5531104,5957088,3004,1248,-2728,1777,-2691,1004,671,3751,47,25,807
1342263,5526100,5958476,5531301,5957285,2918,1564,-2873,1733,-2671,862,719,3583,50,30,809
1343263,5526304,5958648,5531498,5957482,3041,1500,-2924,1598,-2756,773,256,3500,50,30,809
1344264,5526512,5958804,5531695,5957679,3012,1617,-2877,1555,-2920,737,-113,3624,46,34,810
1345265,5526736,5958956,5531892,5957876,2901,1662,-2783,1515,-3139,639,-147,3668,46,34,810
1346267,5526940,5959152,5532089,5958073,3024,1387,-2689,1534,-3382,396,-201,3905,54,39,808
1347268,5527132,5959360,5532286,5958270,3102,1307,-2609,1703,-3618,222,-450,4572,54,39,808
