"Data file recorded 2014/9/24  16:49:1"
"%  Right Stride Frequency         = 11.0"
"%  Left Stride Frequency         = 11.0"
"%  Phase (Fractional)         = 32768.0"
"%  Experiment.py "
"%  Motor Gains    = [1800, 200, 100, 0, 0, 1800, 200, 100, 0, 0]
"% Columns: "
"% time | Right Leg Pos | Left Leg Pos | Commanded Right Leg Pos | Commanded Left Leg Pos | DCR | DCL | GyroX | GryoY | GryoZ | AX | AY | AZ | RBEMF | LBEMF | VBatt "
11171,14370128,13566052,14345668,13592004,-3800,3800,-420,-472,598,244,-445,4067,1,-10,841
12172,14370116,13566100,14346412,13592748,-3800,3800,-421,-474,595,243,-442,4097,3,-3,841
13173,14370052,13566144,14347156,13593492,-3800,3800,-423,-473,593,239,-430,4100,3,-3,841
14175,14369860,13566220,14347900,13594236,-3800,3800,-424,-456,588,224,-438,4094,-35,17,807
15176,14369636,13566432,14348644,13594980,-3800,3800,-428,-462,584,174,-544,3981,-35,17,807
16177,14369356,13566648,14349388,13595724,-3800,3800,-442,-538,593,137,-623,3934,-56,25,808
17178,14369044,13566864,14350132,13596468,-3800,3800,-465,-647,600,34,-200,3744,-56,25,808
18179,14368608,13567112,14350876,13597212,-3800,3800,-505,-728,593,-218,-188,4008,-90,45,810
19167,14368140,13567368,14351620,13597956,-3593,3800,-572,-699,573,-524,-404,4323,-90,45,810
20168,14367672,13567648,14352364,13598700,-3064,3800,-668,-583,548,-638,-367,4626,-93,50,811
21169,14367016,13567916,14353108,13599444,-1276,3800,-779,-434,532,-551,-116,4574,-93,50,811
22170,14366416,13568240,14353852,13600188,-1039,3800,-865,-412,504,-593,-107,4308,-118,44,814
23171,14365852,13568548,14354596,13600932,-691,3800,-949,-451,471,-559,-366,4212,-118,44,814
24172,14365236,13568868,14355340,13601676,230,3800,-1020,-581,436,-552,-514,3934,-97,65,821
25173,14364700,13569268,14356084,13602420,290,3800,-1116,-683,485,-722,-578,4111,-97,65,821
26174,14364196,13569652,14356828,13603164,637,3800,-1220,-666,608,-1039,-441,4331,-108,65,822
27175,14363680,13570016,14357572,13603908,1264,3800,-1351,-680,774,-1183,-284,4329,-108,65,822
28175,14363328,13570384,14358316,13604652,720,3800,-1456,-642,959,-1420,93,4658,-58,82,824
29177,14363044,13570800,14359060,13605396,746,3800,-1599,-603,1152,-1858,40,4988,-58,82,824
30178,14362816,13571240,14359804,13606140,822,3800,-1803,-457,1351,-1936,-256,5506,-52,71,821
31179,14362688,13571720,14360548,13606884,579,3800,-1959,-556,1569,-1935,-429,4452,-52,71,821
32199,14362616,13572184,14361308,13607644,3800,3800,-1931,-1051,1779,-1664,-647,3373,-22,81,824
33193,14362636,13572616,14362052,13608388,3800,3800,-1814,-1869,1967,-1533,-1095,2788,-22,81,824
34194,14362640,13573028,14362796,13609132,3800,3800,-1569,-2876,2145,-1135,-1239,2773,7,95,824
35183,14362868,13573452,14363540,13609876,3465,3800,-619,-2767,2288,1080,-1230,13625,7,95,824
36184,14363204,13573900,14364284,13610620,2969,3800,723,-1981,2395,1957,-1349,14541,59,84,810
37185,14363600,13574284,14365028,13611364,2747,3800,1380,-2471,2586,1121,-1507,2320,59,84,810
38186,14363972,13574668,14365772,13612108,3061,3800,1379,-3954,2826,1706,-1490,1129,84,90,811
39187,14364500,13575072,14366516,13612852,2180,3800,1179,-5518,2975,2376,-1561,1524,84,90,811
40188,14365020,13575452,14367260,13613596,2330,3800,972,-6488,2990,2923,-1409,2671,102,75,817
41189,14365532,13575848,14368004,13614340,2482,3800,987,-6893,2878,3844,-1018,5703,102,75,817
42189,14366180,13576276,14368748,13615084,1675,3800,1476,-6224,2635,5171,-859,13524,101,71,819
43190,14366684,13576688,14369492,13615828,2680,3800,1804,-5761,2397,4590,-676,7004,101,71,819
44191,14367300,13577036,14370236,13616572,2038,3800,1623,-6020,2179,4218,-349,3659,127,85,818
45192,14367856,13577420,14370980,13617316,2495,3800,1202,-6556,1953,4300,-442,3736,127,85,818
46193,14368372,13577832,14371724,13618060,2847,3800,942,-6580,1776,3976,-1059,6680,129,87,819
47195,14368944,13578240,14372468,13618804,2573,3800,992,-5380,1714,3212,-1629,13296,129,87,819
48196,14369488,13578596,14373212,13619548,2836,3800,927,-4322,1573,3028,-856,7371,121,84,817
49197,14370088,13579016,14373956,13620292,2550,3800,589,-3869,1284,2791,-25,5547,121,84,817
50198,14370600,13579440,14374700,13621036,3203,3800,244,-3795,921,2378,77,5087,110,74,818
51199,14371100,13579828,14375444,13621780,3385,3800,77,-3387,562,1813,-271,7083,110,74,818
52200,14371628,13580308,14376188,13622524,3306,3800,58,-2811,239,874,-300,7136,117,87,819
53213,14372088,13580732,14376932,13623268,3800,3800,-15,-2441,-127,415,91,5089,117,87,819
54221,14372564,13581132,14377692,13624028,3800,3800,-189,-2273,-415,644,239,4415,94,85,814
55203,14373116,13581504,14378436,13624772,3493,3800,-325,-2243,-467,972,-235,4132,94,85,814
56216,14373604,13581960,14379180,13625516,3800,3800,-438,-2025,-376,790,-576,4610,112,90,813
57217,14374092,13582380,14379924,13626260,3800,3800,-527,-1782,-195,311,-1282,4308,112,90,813
58218,14374588,13582884,14380668,13627004,3800,3800,-368,-1417,36,-130,-1943,6361,87,86,813
59219,14375076,13583384,14381412,13627748,3800,3800,-9,-958,270,-407,-2210,6670,87,86,813
60220,14375552,13583872,14382156,13628492,3800,3800,243,-921,428,-633,-1701,3228,101,112,813
61221,14376100,13584452,14382900,13629236,3800,3800,274,-1097,623,-459,-1827,3211,101,112,813
62222,14376588,13585020,14383644,13629980,3800,3800,295,-1243,938,-228,-1925,3239,113,114,814
63224,14377116,13585612,14384388,13630724,3800,3800,330,-1211,1293,-91,-1650,3526,113,114,814
64224,14377624,13586252,14385132,13631468,3800,3800,482,-1164,1570,51,-803,3104,113,117,814
65225,14378212,13586844,14385876,13632212,3800,3800,707,-1285,1731,201,-149,2837,113,117,814
66226,14378780,13587564,14386620,13632956,3800,3800,956,-1309,1801,259,393,3226,119,131,815
67227,14379348,13588228,14387364,13633700,3800,3800,1228,-1271,1838,393,684,3292,119,131,815
68228,14379996,13589020,14388108,13634444,3800,3800,1470,-1028,1879,614,668,4150,133,132,816
69229,14380584,13589876,14388852,13635188,3800,3800,1685,-437,1923,787,767,4863,133,132,816
70230,14381220,13590688,14389596,13635932,3800,3800,1903,134,1949,1104,818,4691,144,151,815
71219,14381948,13591524,14390340,13636676,3765,3800,2104,819,1929,1592,1075,5104,144,151,815
72232,14382652,13592364,14391084,13637420,3800,3800,2300,1503,1842,1782,1331,5021,149,168,817
73233,14383352,13593316,14391828,13638164,3800,3800,2499,2175,1733,2050,1050,4887,149,168,817
74221,14384120,13594324,14392572,13638908,3546,3800,2734,2759,1608,2296,908,4399,148,173,818
75235,14384848,13595240,14393316,13639652,3800,3800,2978,3234,1463,2586,662,4089,148,173,818
76230,14385624,13596240,14394076,13640412,3500,3800,3218,3754,1313,2724,297,4036,160,187,820
77224,14386492,13597224,14394820,13641156,2871,3800,3437,4124,1160,2926,43,3675,160,187,820
78225,14387276,13598236,14395564,13641900,3381,3800,3606,4609,1023,3076,-508,3924,165,187,821
79227,14388136,13599372,14396308,13642644,2856,3800,3692,5185,927,2797,-1474,4129,165,187,821
80228,14389072,13600380,14397052,13643388,2298,3800,3705,5928,869,2670,-2117,4542,183,197,823
81229,14390104,13601416,14397796,13644132,1573,3800,3686,6702,755,2213,-2278,4375,183,197,823
82230,14390988,13602344,14398540,13644876,2438,3800,3728,7351,557,1659,-2353,3594,167,199,823
83231,14392028,13603352,14399284,13645620,1334,3800,3800,7842,307,993,-2916,3308,167,199,823
84232,14392888,13604328,14400028,13646364,2410,3800,3900,8364,97,286,-3659,3337,190,193,828
85233,14393816,13605364,14400772,13647108,1905,3800,3906,8945,-53,-81,-4223,3504,190,193,828
86234,14394736,13606252,14401516,13647852,1879,3800,3914,9337,-196,-236,-4418,2513,199,197,828
87235,14395668,13607224,14402260,13648596,1723,3800,3991,9548,-358,-368,-3879,1772,199,197,828
88236,14396504,13608084,14403004,13649340,2284,3800,4098,9283,-542,-326,-2784,454,189,189,827
89237,14397380,13609016,14403748,13650084,1977,3800,4216,8754,-769,29,-1383,-142,189,189,827
90238,14398328,13610112,14404492,13650828,1438,3800,4230,8067,-1015,89,-943,-583,190,198,827
91239,14399172,13611068,14405236,13651572,2046,3800,4235,7209,-1330,-255,-1129,-1641,190,198,827
92239,14399960,13612048,14405980,13652316,2378,3800,4189,6249,-1693,-906,-1308,-1703,172,209,826
93241,14400788,13613004,14406724,13653060,2092,3800,4089,5421,-2096,-1500,-1012,-1324,172,209,826
94242,14401572,13613988,14407468,13653804,2351,3800,3813,4839,-2661,-1799,-828,-875,162,199,826
95243,14402372,13614844,14408212,13654548,2227,3800,3502,4283,-3394,-2409,-209,-1305,162,199,826
96244,14403120,13615756,14408956,13655292,2551,3800,3181,3586,-4187,-2922,1160,-1534,158,193,825
97245,14403840,13616648,14409700,13656036,2738,3800,2895,2885,-4864,-3495,1296,-1357,158,193,825
98255,14404516,13617560,14410460,13656796,3051,3800,2582,2373,-5202,-3986,53,-719,157,204,826
99247,14405252,13618464,14411204,13657540,2681,3800,2256,2102,-5192,-4324,-1257,-273,157,204,826
100248,14405928,13619472,14411948,13658284,3087,3800,1902,2043,-4900,-4772,-2266,664,156,178,823
101249,14406568,13620572,14412692,13659028,3359,3800,1531,2279,-4399,-4980,-2501,1415,156,178,823
102250,14407300,13621620,14413436,13659772,2790,3800,1203,2194,-3852,-4626,-1894,-81,152,204,823
103251,14407884,13622640,14414180,13660516,3786,3800,1028,1496,-3241,-4150,-1669,-1650,152,204,823
104252,14408520,13623648,14414924,13661260,3510,3800,983,222,-2533,-3516,-1490,-2726,137,216,821
105253,14409176,13624704,14415668,13662004,3425,3800,957,-1232,-1728,-2871,-1327,-2983,137,216,821
106266,14409728,13625896,14416412,13662748,3800,3800,901,-2883,-910,-2411,-518,-3307,129,231,820
107267,14410328,13627040,14417156,13663492,3800,3800,797,-4446,-185,-1891,364,-3239,129,231,820
108256,14410988,13628180,14417900,13664236,3588,3800,649,-6004,435,-1604,1155,-3377,112,236,822
109269,14411540,13629256,14418644,13664980,3800,3800,480,-7406,1047,-1510,1834,-2612,112,236,822
110270,14412120,13630324,14419388,13665724,3800,3800,278,-8539,1682,-1180,2268,-1744,131,223,820
111271,14412624,13631340,14420132,13666468,3800,3800,-50,-9162,2339,-1154,2367,51,131,223,820
112273,14413292,13632428,14420876,13667212,3800,3800,-377,-9110,3031,-1655,2083,1557,113,203,819
113273,14413832,13633368,14421620,13667956,3800,3800,-633,-8919,3689,-1977,2205,2035,113,203,819
114275,14414376,13634332,14422364,13668700,3800,3800,-877,-8319,4284,-1891,2658,3639,123,201,818
115263,14415112,13635308,14423108,13669444,3599,3800,-1143,-7794,4795,-993,3050,2963,123,201,818
116276,14415640,13636200,14423852,13670188,3800,3800,-1411,-7362,5205,-225,3559,3109,113,206,818
117277,14416308,13637152,14424596,13670932,3800,3800,-1609,-7098,5596,437,3647,2759,113,206,818
118279,14416964,13637976,14425340,13671676,3800,3800,-1789,-7083,5928,1488,3650,2559,136,192,820
119280,14417660,13638728,14426084,13672420,3800,3800,-1927,-6741,6191,1978,4070,3292,136,192,820
120287,14418352,13639384,14426844,13673180,3800,3800,-2070,-6686,6332,2641,4275,1959,155,157,817
121269,14419112,13639976,14427588,13673924,3670,3800,-2202,-6885,6268,3458,4637,1642,155,157,817
122282,14419816,13640528,14428332,13674668,3800,3800,-2378,-7165,6133,3742,4479,1877,141,117,816
123283,14420504,13641032,14429076,13675412,3800,3800,-2522,-7390,5929,3685,3745,2020,141,117,816
124284,14421244,13641440,14429820,13676156,3800,3800,-2677,-7728,5484,3555,4608,1382,152,102,815
125285,14421988,13641784,14430564,13676900,3800,3800,-2809,-8387,4663,3644,6013,667,152,102,815
126274,14422740,13642040,14431308,13677644,3769,3800,-3003,-9049,3658,4618,6132,854,131,60,812
127275,14423572,13642256,14432052,13678388,3232,3800,-3397,-9365,2761,5300,5696,2231,131,60,812
128276,14424320,13642420,14432796,13679132,3756,3800,-3945,-9422,2019,5171,5674,2735,133,51,813
129277,14425136,13642536,14433540,13679876,3302,3800,-4409,-9627,1288,4921,5411,2030,133,51,813
130278,14426104,13642656,14434284,13680620,2255,3800,-4740,-9883,584,4920,4881,2060,156,40,814
131278,14426920,13642772,14435028,13681364,3175,3800,-5093,-9996,-38,4789,4435,2845,156,40,814
132279,14427756,13642872,14435772,13682108,3011,3800,-5532,-9855,-680,4688,4791,3374,147,23,814
133281,14428684,13642956,14436516,13682852,2356,3800,-6104,-9404,-1354,4616,4317,5083,147,23,814
134281,14429532,13643048,14437260,13683596,2813,3800,-7149,-7763,-1699,3718,55,9398,156,33,814
135283,14430296,13643156,14438004,13684340,3330,3800,-8879,-5033,-1601,1953,-3210,12408,156,33,814
136283,14431064,13643256,14438748,13685084,3296,3800,-10113,-3211,-1998,1814,2785,8351,140,37,815
137285,14431928,13643388,14439492,13685828,2645,3800,-11082,-1483,-2544,2437,1944,11390,140,37,815
138285,14432720,13643536,14440236,13686572,3074,3800,-11729,-389,-2728,3309,826,8233,161,31,813
139287,14433460,13643716,14440980,13687316,3403,3800,-11868,390,-2548,3573,-106,8911,161,31,813
140300,14434068,13643900,14441724,13688060,3800,3800,-7708,9155,-1426,1252,-6894,32767,133,37,816
141301,14434716,13644128,14442468,13688804,3800,3800,-1826,18755,-277,3117,-2866,32767,133,37,816
142309,14435336,13644412,14443228,13689564,3800,3800,501,19144,3,6055,3896,-4514,130,61,814
143303,14435988,13644716,14443972,13690308,3800,3800,209,14217,88,6492,2691,-6214,130,61,814
144304,14436564,13645052,14444716,13691052,3800,3800,-605,8704,148,7112,2184,-7516,124,75,813
145305,14437140,13645384,14445460,13691796,3800,3800,-1088,5315,358,7042,1254,-3742,124,75,813
146307,14437700,13645760,14446204,13692540,3800,3800,-1787,3913,898,7203,241,234,121,84,812
147307,14438216,13646136,14446948,13693284,3800,3800,-2864,3311,1517,7499,-1090,1167,121,84,812
148308,14438736,13646504,14447692,13694028,3800,3800,-3604,1968,1879,6307,-278,-720,129,84,811
149309,14439272,13646844,14448436,13694772,3800,3800,-3706,594,1976,5235,-198,2373,129,84,811
150310,14439744,13647340,14449180,13695516,3800,3800,-1263,3582,2242,3790,-5825,32767,112,87,811
151312,14440164,13647748,14449924,13696260,3800,3800,2414,8401,2630,3132,-5768,32767,112,87,811
152312,14440656,13648168,14450668,13697004,3800,3800,3789,9042,2523,3443,-225,816,94,96,812
153314,14441132,13648648,14451412,13697748,3800,3800,3187,7051,2001,2823,-441,833,94,96,812
154314,14441568,13649120,14452156,13698492,3800,3800,2156,5144,1423,2071,-1784,2428,106,90,812
155315,14442040,13649660,14452900,13699236,3800,3800,1422,4807,1067,1165,-3183,4644,106,90,812
156316,14442512,13650188,14453644,13699980,3800,3800,1067,4999,870,542,-4133,3848,104,106,812
157317,14442992,13650692,14454388,13700724,3800,3800,786,5096,625,9,-4343,4303,104,106,812
158318,14443528,13651220,14455132,13701468,3800,3800,558,5256,201,-844,-3415,5008,105,107,812
159319,14444088,13651772,14455876,13702212,3800,3800,350,5608,-402,-1380,-2786,5600,105,107,812
160320,14444680,13652356,14456620,13702956,3800,3800,166,6217,-977,-1763,-3611,6314,111,114,814
161321,14445228,13653000,14457364,13703700,3800,3800,16,7078,-1307,-1980,-4109,7013,111,114,814
162322,14445940,13653612,14458108,13704444,3800,3800,-65,8007,-1540,-2030,-3015,6868,121,137,815
163323,14446588,13654332,14458852,13705188,3800,3800,-45,8736,-1786,-2191,-2226,6166,121,137,815
164331,14447272,13654984,14459612,13705948,3800,3800,96,9120,-2028,-2221,-2176,5043,155,130,816
165325,14448060,13655752,14460356,13706692,3800,3800,346,9144,-2270,-2349,-1741,3889,155,130,816
166326,14448764,13656524,14461100,13707436,3800,3800,626,8887,-2433,-2524,-1550,3077,157,142,817
167327,14449496,13657372,14461844,13708180,3800,3800,898,8400,-2425,-2570,-1531,2320,157,142,817
168328,14450308,13658180,14462588,13708924,3800,3800,1166,7752,-2248,-2292,-1591,1617,167,169,817
169330,14451144,13659092,14463332,13709668,3800,3800,1418,6959,-1964,-2201,-1471,1190,167,169,817
170330,14451968,13660000,14464076,13710412,3800,3800,1693,6009,-1660,-2178,-1646,493,176,183,817
171331,14452868,13660972,14464820,13711156,3800,3800,2019,4891,-1369,-2222,-1931,-96,176,183,817
172332,14453764,13661960,14465564,13711900,3800,3800,2380,3744,-1070,-2460,-1879,-195,181,174,820
173333,14454652,13662968,14466308,13712644,3800,3800,2709,2674,-725,-2624,-2226,97,181,174,820
174322,14455756,13664032,14467052,13713388,2858,3800,2969,1940,-254,-3060,-2948,1052,187,202,820
175322,14456748,13665020,14467796,13714132,3451,3800,3191,1467,273,-3919,-2856,1422,187,202,820
176323,14457784,13666008,14468540,13714876,3049,3800,3464,1031,720,-4688,-2656,993,197,191,822
177324,14458924,13667152,14469284,13715620,2227,3800,3789,646,1112,-5182,-2961,1335,197,191,822
178326,14459928,13668060,14470028,13716364,2965,3800,4075,564,1537,-5585,-3460,2316,197,202,823
179326,14460904,13669036,14470772,13717108,3040,3800,4305,790,2036,-5695,-4072,2743,197,202,823
180328,14462000,13669980,14471516,13717852,2137,3800,4492,1139,2559,-5777,-4156,3003,201,192,824
181328,14462984,13670888,14472260,13718596,2734,3800,4664,1544,3067,-5684,-3898,3004,201,192,824
182330,14464008,13671844,14473004,13719340,2363,3800,4767,1857,3506,-5382,-3569,2577,208,193,824
183331,14465028,13672796,14473748,13720084,2268,3800,4890,2038,3879,-5050,-3525,1997,208,193,824
184331,14465952,13673604,14474492,13720828,2790,3800,4973,1969,4209,-4623,-3830,1275,203,189,824
185333,14466828,13674536,14475236,13721572,3034,3800,5016,1737,4506,-3894,-3797,612,203,189,824
186343,14467724,13675508,14475996,13722332,2851,3800,4913,1362,4730,-3088,-2900,182,187,196,825
187334,14468652,13676520,14476740,13723076,2572,3800,4760,848,4788,-2661,-2052,-679,187,196,825
188335,14469500,13677448,14477484,13723820,3027,3800,4646,168,4686,-2501,-1361,-1450,191,207,823
189336,14470300,13678416,14478228,13724564,3304,3800,4473,-638,4406,-2246,-357,-1630,191,207,823
190338,14471240,13679324,14478972,13725308,2344,3800,4185,-1466,3880,-2122,198,-1781,194,196,824
191339,14472072,13680144,14479716,13726052,2983,3800,3846,-2420,3225,-2073,-360,-2296,194,196,824
192340,14472912,13681004,14480460,13726796,2891,3800,3543,-3415,2522,-2115,-132,-2417,180,191,821
193340,14473840,13681940,14481204,13727540,2263,3800,3204,-4332,1876,-2626,690,-1965,180,191,821
194342,14474684,13682896,14481948,13728284,2745,3800,2891,-4973,1383,-2946,1259,-1781,190,177,823
195343,14475504,13683800,14482692,13729028,2863,3800,2426,-5805,1041,-2432,990,-2427,190,177,823
196344,14476476,13684800,14483436,13729772,1814,3800,1886,-6830,837,-1618,-214,-2775,190,181,825
197345,14477252,13685820,14484180,13730516,3026,3800,1330,-8043,818,-664,-1388,-3126,190,181,825
198345,14478000,13686976,14484924,13731260,3201,3800,916,-9427,1001,-140,-2397,-3666,173,196,824
199346,14478844,13688016,14485668,13732004,2558,3800,614,-11013,1334,-265,-1676,-4099,173,196,824
200347,14479512,13689016,14486412,13732748,3693,3800,365,-12577,1724,-455,-683,-3712,157,217,824
201348,14480224,13690100,14487156,13733492,3433,3800,89,-13393,2189,-626,-722,-1731,157,217,824
202350,14481052,13691108,14487900,13734236,2673,3800,-193,-13694,2833,-717,-678,-995,148,234,824
203350,14481828,13692344,14488644,13734980,2985,3800,-436,-14314,3462,502,59,-2125,148,234,824
204351,14482596,13693564,14489388,13735724,3025,3800,-684,-15292,3951,2047,791,-2530,158,244,823
205352,14483460,13694704,14490132,13736468,2375,3800,-861,-16349,4342,2355,1908,-2750,158,244,823
206354,14484296,13695788,14490876,13737212,2510,3800,-978,-17409,4617,2116,1707,-2702,177,235,824
207354,14485128,13696796,14491620,13737956,2497,3800,-1092,-17944,4934,1666,1450,-967,177,235,824
208362,14486156,13697812,14492380,13738716,1156,3800,-1306,-17611,5333,1753,1584,1378,160,224,825
209356,14486964,13698916,14493124,13739460,2505,3800,-1593,-16500,5746,2105,1273,3085,160,224,825
210358,14487784,13699976,14493868,13740204,2397,3800,-1871,-15157,6140,1669,1535,3666,162,215,826
211359,14488772,13701080,14494612,13740948,1241,3800,-2092,-13844,6406,1576,2045,3564,162,215,826
212360,14489536,13702092,14495356,13741692,2633,3800,-2282,-12754,6463,1960,2928,3011,165,225,824
213361,14490376,13703160,14496100,13742436,2117,3800,-2442,-11727,6436,2301,3713,2947,165,225,824
214362,14491232,13704252,14496844,13743180,1969,3800,-2600,-10681,6385,2351,4039,2968,182,213,829
215363,14492124,13705208,14497588,13743924,1680,3800,-2736,-9539,6387,2492,3795,3547,182,213,829
216364,14493064,13706104,14498332,13744668,1295,3800,-2808,-8135,6415,2916,3715,3929,175,187,827
217365,14493876,13706948,14499076,13745412,2066,3800,-2831,-7077,6294,3980,4247,2294,175,187,827
218366,14494708,13707692,14499820,13746156,1903,3800,-2836,-6783,5971,5608,4346,381,149,153,826
219367,14495496,13708352,14500564,13746900,2160,3800,-2897,-6510,5668,6303,3547,1277,149,153,826
220367,14496232,13709016,14501308,13747644,2489,3800,-2979,-6043,5540,5681,2654,1848,146,128,823
221368,14496996,13709520,14502052,13748388,2306,3800,-3165,-5847,5389,5427,2472,1524,146,128,823
222370,14497692,13709976,14502796,13749132,2753,3800,-3354,-5622,4934,5333,3375,1243,134,113,822
223371,14498448,13710452,14503540,13749876,2374,3800,-3533,-5397,4240,5305,3694,633,134,113,822
224372,14499148,13710828,14504284,13750620,2745,3800,-3712,-5402,3545,5208,3228,588,148,95,819
225385,14499680,13711272,14505028,13751364,3800,3800,-4010,-5530,2988,5338,2995,1529,148,95,819
226373,14500268,13711636,14505772,13752108,3608,3800,-4701,-4448,2391,6037,2686,6479,135,83,819
227375,14500888,13711988,14506516,13752852,3464,3800,-5878,-1539,1884,6476,661,11097,135,83,819
228388,14501420,13712284,14507260,13753596,3800,3800,-6930,928,1613,5857,-728,7215,132,79,813
229389,14501896,13712612,14508004,13754340,3800,3800,-7341,968,1163,5751,1086,558,132,79,813
230397,14502408,13713016,14508764,13755100,3800,3800,-7316,-483,336,6635,1748,-1529,121,89,814
231391,14502844,13713384,14509508,13755844,3800,3800,-7393,-1522,-566,6945,857,497,121,89,814
232392,14503244,13713776,14510252,13756588,3800,3800,-7654,-1752,-1169,6815,-596,2201,95,84,811
233393,14503640,13714192,14510996,13757332,3800,3800,-7970,-1471,-1404,6841,-2013,3727,95,84,811
234394,14503988,13714600,14511740,13758076,3800,3800,-8267,-786,-1469,7267,-2237,5084,76,85,810
235395,14504328,13715020,14512484,13758820,3800,3800,-8426,-5,-1589,7700,-1543,4670,76,85,810
236396,14504640,13715568,14513228,13759564,3800,3800,-8379,138,-1829,7551,-758,3271,69,89,810
237397,14504956,13716044,14513972,13760308,3800,3800,-8281,288,-2086,7460,-795,4965,69,89,810
238398,14505244,13716440,14514716,13761052,3800,3800,-8304,1236,-2242,7929,-1869,7696,55,101,810
239399,14505512,13717016,14515460,13761796,3800,3800,-2257,13921,-1302,7280,-14333,32767,55,101,810
240400,14505800,13717508,14516204,13762540,3800,3800,6412,30122,126,8496,-11836,24290,49,105,811
241401,14506072,13718128,14516948,13763284,3800,3800,10450,32297,290,10886,-487,-6021,49,105,811
242402,14506360,13718728,14517692,13764028,3800,3800,9579,27739,-51,11560,88,-3295,68,108,811
243403,14506688,13719296,14518436,13764772,3800,3800,8339,23103,-386,11908,-389,-4563,68,108,811
244404,14507016,13719980,14519180,13765516,3800,3800,7446,19489,-347,10644,-1158,-4810,67,128,811
245405,14507348,13720592,14519924,13766260,3800,3800,6911,17503,-17,9185,-1437,-3013,67,128,811
246406,14507748,13721296,14520668,13767004,3800,3800,6157,15652,280,8709,-759,-2403,87,123,811
247408,14508140,13722020,14521412,13767748,3800,3800,5263,13757,356,8109,-114,-2719,87,123,811
248408,14508548,13722824,14522156,13768492,3800,3800,4519,11495,173,6563,1130,-2985,83,143,813
249409,14509040,13723560,14522900,13769236,3800,3800,3770,9541,-486,4905,3510,-1152,83,143,813
250410,14509536,13724444,14523644,13769980,3800,3800,2753,8533,-1450,3679,4611,1542,101,158,814
251411,14510052,13725288,14524388,13770724,3800,3800,1544,8354,-2519,2947,4847,3254,101,158,814
252419,14510648,13726216,14525148,13771484,3800,3800,444,8283,-3564,1672,5301,2289,120,168,816
253413,14511264,13727200,14525892,13772228,3800,3800,-366,8114,-4545,-491,6085,3019,120,168,816
254414,14511844,13728116,14526636,13772972,3800,3800,-990,7883,-5483,-2347,5690,3063,133,193,817
255415,14512556,13729092,14527380,13773716,3800,3800,-1383,8013,-6296,-2990,4481,3781,133,193,817
256416,14513220,13730168,14528124,13774460,3800,3800,-1602,8831,-6892,-3427,3139,4598,135,194,817
257417,14513920,13731140,14528868,13775204,3800,3800,-1681,10048,-7249,-4676,1129,4969,135,194,817
258418,14514724,13732184,14529612,13775948,3800,3800,-1623,10765,-7351,-6023,-828,4330,147,201,818
259419,14515476,13733172,14530356,13776692,3800,3800,-1629,11572,-7214,-6627,-2017,5287,147,201,818
260420,14516256,13734096,14531100,13777436,3800,3800,-1604,12633,-6909,-7027,-2423,5016,161,192,819
261421,14517000,13735008,14531844,13778180,3800,3800,-1533,13458,-6508,-7634,-3120,4014,161,192,819
262422,14517932,13735860,14532588,13778924,3800,3800,-1403,14013,-5977,-8271,-3741,3544,177,178,819
263424,14518804,13736820,14533332,13779668,3800,3800,-1195,14415,-5362,-8180,-4100,2979,177,178,819
264424,14519664,13737576,14534076,13780412,3800,3800,-972,14742,-4712,-7493,-4353,2307,169,168,820
265425,14520736,13738384,14534820,13781156,3800,3800,-705,14755,-4007,-7306,-4796,1311,169,168,820
266426,14521736,13739076,14535564,13781900,3800,3800,-351,14444,-3268,-7266,-5240,170,207,156,819
267427,14522760,13739872,14536308,13782644,3800,3800,48,13738,-2517,-6971,-5721,-817,207,156,819
268415,14523900,13740728,14537052,13783388,3612,3800,401,12966,-1761,-6877,-5920,-817,210,150,819
269429,14524936,13741464,14537796,13784132,3800,3800,734,11933,-1007,-6786,-5802,-1992,210,150,819
270418,14526016,13742236,14538540,13784876,3716,3800,998,10526,-347,-6553,-5249,-2973,220,169,819
271418,14527188,13743016,14539284,13785620,2956,3800,1214,8979,119,-6665,-3742,-3254,220,169,819
272432,14528164,13743836,14540028,13786364,3800,3800,1402,7199,267,-7211,-1976,-3817,215,170,821
273420,14529256,13744656,14540772,13787108,3205,3800,1572,5435,176,-7519,-1459,-3405,215,170,821
274430,14530396,13745492,14541532,13787868,2740,3800,1602,3926,90,-7302,-1767,-2282,218,167,823
275422,14531420,13746320,14542276,13788612,3344,3800,1529,2723,79,-6730,-1288,-1742,218,167,823
276424,14532396,13747068,14543020,13789356,3544,3800,1418,1486,121,-6587,-255,-1968,225,172,822
277425,14533460,13747900,14543764,13790100,2856,3800,1263,137,225,-6228,-483,-2040,225,172,822
278426,14534408,13748692,14544508,13790844,3493,3800,1040,-1245,365,-5737,-552,-1823,197,170,821
279427,14535336,13749568,14545252,13791588,3539,3800,752,-2364,514,-5595,-548,-784,197,170,821
280428,14536320,13750448,14545996,13792332,3086,3800,453,-3238,658,-5880,-1547,-104,203,159,821
281429,14537248,13751404,14546740,13793076,3357,3800,147,-3980,812,-6147,-1800,537,203,159,821
282430,14538164,13752312,14547484,13793820,3358,3800,-216,-4341,1099,-5842,-2386,2013,214,195,822
283431,14539120,13753200,14548228,13794564,3017,3800,-580,-4728,1591,-5572,-2482,1750,214,195,822
284432,14540016,13754236,14548972,13795308,3326,3800,-863,-5124,2196,-5592,-2462,2079,212,204,823
285433,14540924,13755328,14549716,13796052,3181,3800,-1151,-5723,2883,-5065,-2939,1417,212,204,823
286434,14541900,13756288,14550460,13796796,2656,3800,-1417,-6917,3599,-3507,-2828,-270,194,213,824
287434,14542792,13757396,14551204,13797540,3117,3800,-1697,-8460,4310,-1535,-1962,-1007,194,213,824
288436,14543608,13758536,14551948,13798284,3563,3800,-1933,-10498,4910,-545,-968,-2546,184,217,824
289436,14544472,13759556,14552692,13799028,3212,3800,-2058,-13053,5361,-470,477,-3628,184,217,824
290437,14545384,13760660,14553436,13799772,2839,3800,-2035,-15902,5672,-793,1036,-4120,182,210,823
291438,14546212,13761640,14554180,13800516,3329,3800,-1930,-17967,5951,-940,663,-2410,182,210,823
292440,14546968,13762552,14554924,13801260,3775,3800,-1917,-19175,6339,-935,473,-361,165,205,822
293441,14547864,13763476,14555668,13802004,2835,3800,-1923,-19906,6778,238,330,1015,165,205,822
294442,14548688,13764376,14556412,13802748,3251,3800,-1997,-20423,7227,1690,170,1792,154,192,821
295443,14549556,13765436,14557156,13803492,2923,3800,-1972,-20911,7581,2363,621,1415,154,192,821
296451,14550432,13766428,14557916,13804252,2823,3800,-1941,-21596,7767,3024,735,1216,183,193,824
297445,14551332,13767344,14558660,13804996,2607,3800,-1906,-22182,7772,3535,1582,1570,183,193,824
298445,14552260,13768348,14559404,13805740,2352,3800,-1958,-22450,7663,4419,1815,2137,177,202,824
299446,14553252,13769348,14560148,13806484,1844,3800,-2416,-21813,7638,5735,976,5029,177,202,824
300447,14554232,13770296,14560892,13807228,1817,3800,-3208,-20521,7687,5501,582,5965,194,196,823
301449,14555080,13771240,14561636,13807972,2598,3800,-3456,-20062,7434,4811,1279,1730,194,196,823
302450,14556140,13772060,14562380,13808716,1135,3800,-3294,-19890,7041,5084,322,2430,184,170,824
303450,14557072,13772852,14563124,13809460,1853,3800,-3112,-19474,6716,5021,-635,2935,184,170,824
304452,14558228,13773528,14563868,13810204,274,3800,-3032,-18374,6369,4394,-1139,4074,199,139,823
305452,14559108,13774184,14564612,13810948,1940,3800,-2979,-16876,5883,3234,-1289,4438,199,139,823
306454,14560040,13774860,14565356,13811692,1534,3800,-2899,-15266,5221,2002,-1848,4673,189,134,823
307454,14560988,13775412,14566100,13812436,1345,3800,-2842,-13533,4480,1242,-2583,5145,189,134,823
308456,14561876,13775948,14566844,13813180,1658,3800,-2809,-11825,3736,901,-3372,4781,165,124,822
309456,14562668,13776432,14567588,13813924,2238,3800,-2712,-10473,2805,1037,-2866,3297,165,124,822
310457,14563416,13776888,14568332,13814668,2512,3800,-2514,-9813,1694,844,-1506,1374,152,99,823
311459,14564284,13777336,14569076,13815412,1707,3800,-2157,-9645,616,771,-1345,196,152,99,823
312459,14564864,13777792,14569820,13816156,3580,3800,-1895,-9660,-280,1415,-1235,266,146,89,818
313461,14565504,13778172,14570564,13816900,3252,3800,-1926,-9390,-891,2381,-569,1620,146,89,818
314461,14566128,13778620,14571308,13817644,3406,3800,-2113,-9132,-1363,2795,-707,969,144,104,819
315462,14566772,13779016,14572052,13818388,3326,3800,-2129,-9659,-1935,2856,-292,-1421,144,104,819
316463,14567364,13779476,14572796,13819132,3719,3800,-2016,-10726,-2319,3262,-2445,-1339,139,88,815
317477,14567936,13779988,14573540,13819876,3800,3800,-2224,-11140,-2081,4701,-5828,1900,139,88,815
318485,14568500,13780432,14574300,13820636,3800,3800,-2796,-11074,-1356,6678,-6014,2535,123,105,816
319479,14568996,13780972,14575044,13821380,3800,3800,-3211,-11564,-601,7887,-4000,-403,123,105,816
320480,14569504,13781484,14575788,13822124,3800,3800,-3891,-12038,164,9525,-2040,1575,106,108,813
321481,14570076,13781936,14576532,13822868,3800,3800,-5968,-10487,1652,11935,-2628,9244,106,108,813
322482,14570528,13782572,14577276,13823612,3800,3800,-7931,-9241,2923,11071,919,3961,111,109,811
323483,14571004,13783100,14578020,13824356,3800,3800,-8552,-9728,3092,9537,3014,461,111,109,811
324484,14571472,13783692,14578764,13825100,3800,3800,-4262,-3020,2598,17936,2555,24434,102,123,811
325485,14571948,13784328,14579508,13825844,3800,3800,5381,15966,1916,25204,2419,32767,102,123,811
326486,14572404,13784944,14580252,13826588,3800,3800,9460,22814,2286,13065,-1091,-2805,110,120,813
327487,14572888,13785632,14580996,13827332,3800,3800,8683,21140,3161,12367,1387,-562,110,120,813
328488,14573356,13786392,14581740,13828076,3800,3800,6786,15909,3576,11324,1930,-5088,107,129,813
329489,14573816,13787120,14582484,13828820,3800,3800,6495,11986,3493,10066,1164,-6907,107,129,813
330490,14574344,13787820,14583228,13829564,3800,3800,7084,9370,3471,8926,365,-4672,98,130,814
331491,14574824,13788624,14583972,13830308,3800,3800,7379,8417,3843,8794,-1746,-485,98,130,814
332492,14575352,13789416,14584716,13831052,3800,3800,6764,9168,4211,7753,-1007,5083,93,151,814
333493,14575924,13790308,14585460,13831796,3800,3800,6201,9937,4118,5148,1225,2795,93,151,814
334494,14576472,13791220,14586204,13832540,3800,3800,6011,9812,3763,4063,504,918,119,165,815
335495,14577028,13792020,14586948,13833284,3800,3800,6256,9455,3350,3286,395,1227,119,165,815
336496,14577612,13792992,14587692,13834028,3800,3800,6320,9900,2975,2474,1405,4286,116,173,816
337497,14578300,13793964,14588436,13834772,3800,3800,6151,11275,2467,2166,971,5662,116,173,816
338498,14578948,13794968,14589180,13835516,3800,3800,5803,12718,1862,1467,1446,5104,138,175,818
339499,14579600,13796032,14589924,13836260,3800,3800,5437,14220,1122,1071,2466,5737,138,175,818
340507,14580368,13797028,14590684,13837020,3800,3800,5096,15803,359,1666,1873,5542,145,189,818
341502,14581080,13798044,14591428,13837764,3800,3800,4703,17318,-458,1162,2580,4902,145,189,818
342503,14581844,13798932,14592172,13838508,3800,3800,4284,18367,-1395,812,3122,3361,142,200,819
343504,14582720,13799896,14592916,13839252,3800,3800,3767,18946,-2486,809,3540,1970,142,200,819
344504,14583488,13800908,14593660,13839996,3800,3800,3257,19224,-3588,458,3714,1167,150,175,817
345506,14584340,13801784,14594404,13840740,3800,3800,2798,19274,-4723,332,3612,107,150,175,817
346494,14585296,13802688,14595148,13841484,3435,3800,2456,19111,-5838,276,2282,-737,179,201,818
347495,14586184,13803552,14595892,13842228,3799,3800,2209,18751,-6791,94,1031,-1137,179,201,818
348496,14587184,13804356,14596636,13842972,2988,3800,2033,18298,-7558,-55,144,-1768,191,171,819
349497,14588308,13805172,14597380,13843716,2048,3800,1915,17618,-8093,-540,-1078,-2322,191,171,819
350498,14589312,13806100,14598124,13844460,2685,3800,1912,16971,-8340,-1038,-2445,-2227,188,165,819
351499,14590292,13806908,14598868,13845204,2733,3800,1926,16397,-8330,-1304,-3400,-2152,188,165,819
352500,14591396,13807664,14599612,13845948,1802,3800,1949,15895,-8114,-1772,-3495,-2069,209,163,824
353501,14592392,13808444,14600356,13846692,2367,3800,1978,15173,-7889,-2461,-2832,-2803,209,163,824
354502,14593276,13809280,14601100,13847436,3008,3800,2005,14137,-7708,-3277,-2810,-3613,201,160,823
355502,14594304,13810164,14601844,13848180,1984,3800,2057,12881,-7591,-4222,-2817,-3909,201,160,823
356503,14595280,13810964,14602588,13848924,2209,3800,2143,11554,-7496,-4919,-2515,-4234,205,168,822
357504,14596204,13811788,14603332,13849668,2456,3800,2202,10137,-7361,-5702,-2262,-4503,205,168,822
358506,14597056,13812524,14604076,13850412,2859,3800,2128,9029,-7074,-6068,-2179,-3334,178,181,825
359507,14597976,13813380,14604820,13851156,2359,3800,1946,7962,-6584,-6375,-2154,-3528,178,181,825
360508,14598844,13814272,14605564,13851900,2631,3800,1816,6812,-5924,-6301,-2552,-3875,193,185,823
361509,14599628,13815076,14606308,13852644,3139,3800,1707,5460,-5128,-6217,-3056,-4226,193,185,823
362519,14600516,13815980,14607068,13853404,2435,3800,1567,4281,-4210,-6425,-3493,-3420,166,156,823
363511,14601284,13816924,14607812,13854148,3175,3800,1317,3371,-3232,-7008,-3732,-2808,166,156,823
364511,14602068,13817832,14608556,13854892,3059,3800,994,2635,-2211,-7565,-3764,-2419,170,196,822
365512,14602916,13818796,14609300,13855636,2614,3800,666,1984,-1130,-7735,-3533,-2348,170,196,822
366514,14603720,13819848,14610044,13856380,2865,3800,280,1293,-82,-8071,-2908,-2039,162,209,822
367515,14604468,13820860,14610788,13857124,3214,3800,-173,726,873,-8605,-2432,-1453,162,209,822
368516,14605292,13821840,14611532,13857868,2705,3800,-619,141,1809,-8764,-2486,-1754,179,213,824
369517,14606008,13822920,14612276,13858612,3393,3800,-1072,-682,2681,-8018,-1893,-2158,179,213,824
370518,14606740,13824068,14613020,13859356,3299,3800,-1639,-1624,3401,-6534,-256,-1838,147,232,823
371518,14607588,13825196,14613764,13860100,2531,3800,-2180,-2857,4072,-5627,467,-2870,147,232,823
372520,14608248,13826208,14614508,13860844,3743,3800,-2537,-4669,4747,-5014,345,-4282,159,215,822
373520,14608972,13827184,14615252,13861588,3353,3800,-2809,-6646,5437,-4540,222,-3797,159,215,822
374535,14609600,13828148,14615996,13862332,3800,3800,-3120,-8191,6093,-4487,748,-2624,136,203,824
375523,14610308,13829080,14616740,13863076,3522,3800,-3512,-9471,6670,-4617,1274,-1771,136,203,824
376536,14610852,13829980,14617484,13863820,3800,3800,-3937,-10361,7206,-3964,827,-510,139,203,820
377525,14611624,13831048,14618228,13864564,3201,3800,-4371,-10854,7746,-3082,1430,562,139,203,820
378538,14612284,13832088,14618972,13865308,3800,3800,-4705,-11740,8206,-1693,1255,-184,130,209,819
379527,14612988,13833040,14619716,13866052,3682,3800,-4858,-12961,8508,-834,1260,-482,130,209,819
380528,14613760,13834068,14620460,13866796,3247,3800,-4886,-14407,8631,4,924,-519,140,204,822
381529,14614528,13835048,14621204,13867540,3262,3800,-4886,-15708,8593,1341,314,212,140,204,822
382530,14615316,13836084,14621948,13868284,3119,3800,-4979,-16738,8467,1905,138,1396,151,202,820
383531,14616064,13836968,14622692,13869028,3368,3800,-5090,-17453,8262,2638,98,1815,151,202,820
384539,14616936,13837792,14623452,13869788,2546,3800,-5227,-18109,7953,4385,575,1417,168,183,822
385533,14617732,13838576,14624196,13870532,2999,3800,-5361,-18885,7585,4913,1101,1198,168,183,822
386534,14618588,13839204,14624940,13871276,2576,3800,-5584,-19559,7301,5646,771,2130,173,137,820
387534,14619592,13839868,14625684,13872020,1538,3800,-6193,-19440,7069,6113,60,4569,173,137,820
388536,14620392,13840356,14626428,13872764,2790,3800,-6517,-19483,6660,5531,695,2141,171,119,819
389537,14621208,13840788,14627172,13873508,2659,3800,-6493,-19709,5963,5729,327,2315,171,119,819
390538,14622192,13841196,14627916,13874252,1505,3800,-6435,-19968,5045,5509,125,2384,162,100,821
391539,14623068,13841548,14628660,13874996,2123,3800,-6389,-19992,4012,4831,-124,2844,162,100,821
392540,14623972,13841872,14629404,13875740,1879,3800,-6404,-19809,2875,4744,-652,3130,170,84,818
393541,14624852,13842224,14630148,13876484,1970,3800,-6535,-19479,1827,5008,-1617,3837,170,84,818
394542,14625608,13842528,14630892,13877228,2741,3800,-6831,-18724,950,4770,-1528,4844,150,57,819
395543,14626420,13842808,14631636,13877972,2362,3800,-7159,-17885,74,3843,-130,4533,150,57,819
396544,14627232,13843072,14632380,13878716,2333,3800,-7373,-17432,-880,2995,582,3317,157,56,819
397545,14627980,13843308,14633124,13879460,2732,3800,-7538,-17024,-1600,3034,-610,3949,157,56,819
398546,14628664,13843588,14633868,13880204,3159,3800,-7658,-16434,-2057,3485,-1168,4100,159,64,817
399546,14629456,13843908,14634612,13880948,2464,3800,-7645,-16218,-2417,3444,-537,2557,159,64,817
400547,14630116,13844208,14635356,13881692,3327,3800,-7490,-16394,-2658,3444,-418,2110,142,69,814
401561,14630624,13844496,14636100,13882436,3800,3800,-7306,-16670,-2746,3908,-260,2268,142,69,814
402549,14631272,13844856,14636844,13883180,3550,3800,-7178,-16585,-2697,4326,-274,3204,134,77,817
403563,14631860,13845260,14637588,13883924,3800,3800,-6470,-15814,-2553,4696,-663,6712,134,77,817
404564,14632416,13845692,14638332,13884668,3800,3800,109,-1758,-2192,10035,-8835,32767,122,75,811
405565,14633000,13846124,14639076,13885412,3800,3800,7987,13545,-1766,8354,-4425,32767,122,75,811
406573,14633524,13846616,14639836,13886172,3800,3800,9542,16913,-734,6996,-1440,4008,103,101,811
407568,14634052,13847104,14640580,13886916,3800,3800,7556,14175,1167,6897,-5237,970,103,101,811
408568,14634528,13847524,14641324,13887660,3800,3800,4944,9789,3195,6757,-5582,-2794,106,85,811
409569,14635056,13848168,14642068,13888404,3800,3800,3635,7475,4942,6705,-4243,-2112,106,85,811
410570,14635560,13848676,14642812,13889148,3800,3800,3006,5385,6079,6214,-893,-4655,122,110,811
411571,14636024,13849292,14643556,13889892,3800,3800,2973,2539,6379,6201,1125,-7549,122,110,811
412572,14636528,13849908,14644300,13890636,3800,3800,3199,-716,6368,5788,2194,-6313,99,112,811
413573,14636960,13850564,14645044,13891380,3800,3800,3555,-3445,6443,5449,2453,-4343,99,112,811
414574,14637412,13851308,14645788,13892124,3800,3800,3609,-4409,6495,6016,2135,1344,96,121,812
415575,14637916,13852020,14646532,13892868,3800,3800,3225,-3676,6492,4958,1799,5518,96,121,812
416576,14638368,13852740,14647276,13893612,3800,3800,2675,-2205,6330,3721,1704,7062,93,136,813
417577,14638808,13853464,14648020,13894356,3800,3800,2208,-519,5902,3454,1639,7937,93,136,813
418578,14639312,13854280,14648764,13895100,3800,3800,1882,1238,5319,2907,2562,8580,102,138,814
419579,14639772,13855088,14649508,13895844,3800,3800,1570,3189,4558,2891,3772,9406,102,138,814
420580,14640260,13855968,14650252,13896588,3800,3800,1179,5374,3494,2710,4475,9686,94,152,814
421581,14640848,13856888,14650996,13897332,3800,3800,736,7623,2275,2013,4579,10212,94,152,814
422582,14641356,13857760,14651740,13898076,3800,3800,368,10020,1218,2739,3540,10659,104,176,814
423584,14641908,13858672,14652484,13898820,3800,3800,8,12598,361,3644,2650,10960,104,176,814
424584,14642540,13859680,14653228,13899564,3800,3800,-248,14926,-326,3780,2097,9794,113,181,816
425585,14643108,13860808,14653972,13900308,3800,3800,-256,16564,-1006,4155,2009,7113,113,181,816
426586,14643756,13861748,14654716,13901052,3800,3800,-19,17334,-1751,4488,2039,4993,139,206,817
427587,14644468,13862780,14655460,13901796,3800,3800,291,17690,-2414,4759,1469,4149,139,206,817
428595,14645164,13863840,14656220,13902556,3800,3800,581,17742,-2995,4994,947,2588,140,210,818
429589,14645880,13864752,14656964,13903300,3800,3800,879,17258,-3528,4835,458,763,140,210,818
430590,14646624,13865712,14657708,13904044,3800,3800,1188,16470,-3952,4451,6,100,160,198,818
431591,14647408,13866772,14658452,13904788,3800,3800,1478,15463,-4285,4107,-643,-892,160,198,818
432592,14648236,13867708,14659196,13905532,3800,3800,1776,14178,-4532,3490,-956,-1651,167,175,818
433593,14649044,13868488,14659940,13906276,3800,3800,2005,13007,-4654,2681,-2185,-1190,167,175,818
434594,14649976,13869300,14660684,13907020,3800,3800,2207,11876,-4783,1774,-2968,-1699,173,182,817
435595,14650852,13869996,14661428,13907764,3800,3800,2363,10658,-5050,956,-2662,-2061,173,182,817
436584,14651832,13870800,14662172,13908508,3629,3800,2482,9422,-5495,120,-2209,-2338,183,161,819
437584,14652860,13871556,14662916,13909252,3206,3800,2565,8372,-5977,-1219,-2547,-1532,183,161,819
438586,14653936,13872272,14663660,13909996,2762,3800,2598,7796,-6309,-2900,-3431,3,194,147,818
439587,14654940,13872936,14664404,13910740,3099,3800,2523,7811,-6370,-4021,-4315,1621,194,147,818
440588,14656012,13873652,14665148,13911484,2532,3800,2097,9573,-6284,-5584,-2252,2855,207,158,820
441589,14657000,13874456,14665892,13912228,2952,3800,1892,9969,-6429,-6773,-1587,1474,207,158,820
442590,14658020,13875156,14666636,13912972,2633,3800,1674,10119,-6715,-7577,-1532,1878,202,142,821
443590,14659036,13875936,14667380,13913716,2539,3800,1557,10216,-6914,-8200,-1433,1237,202,142,821
444591,14659984,13876632,14668124,13914460,2877,3800,1503,10181,-6922,-8260,-1539,714,187,148,820
445592,14660928,13877404,14668868,13915204,2815,3800,1493,10001,-6627,-8720,-2201,288,187,148,820
446594,14661980,13878092,14669612,13915948,2006,3800,1466,9597,-5993,-8630,-2917,-214,199,169,822
447594,14662804,13878940,14670356,13916692,3397,3800,1426,8842,-5190,-7765,-3053,-1350,199,169,822
448596,14663652,13879684,14671100,13917436,3204,3800,1374,7622,-4292,-7140,-2985,-2119,201,145,822
449596,14664628,13880432,14671844,13918180,2303,3800,1263,6300,-3372,-6604,-3011,-2195,201,145,822
450607,14665448,13881316,14672604,13918940,3252,3800,1097,4482,-2447,-6640,-3501,-3535,167,146,819
451598,14666232,13882176,14673348,13919684,3462,3800,948,2654,-1444,-6746,-3980,-3377,167,146,819
452600,14667104,13883152,14674092,13920428,2856,3800,844,555,-278,-7002,-4081,-4383,194,179,823
453601,14667864,13884052,14674836,13921172,3551,3800,650,-1524,963,-7167,-4243,-3513,194,179,823
454614,14668580,13885016,14675580,13921916,3800,3800,278,-3148,2225,-7638,-4053,-2231,182,204,819
455602,14669336,13885936,14676324,13922660,3585,3800,-95,-4743,3408,-7677,-3764,-2730,182,204,819
456616,14670056,13886908,14677068,13923404,3800,3800,-387,-6652,4457,-6407,-3313,-3456,141,197,819
457617,14670748,13888000,14677812,13924148,3800,3800,-700,-8892,5365,-4693,-2312,-3775,141,197,819
458618,14671444,13889180,14678556,13924892,3800,3800,-1052,-11033,6153,-3185,-1205,-3374,138,228,819
459606,14672180,13890228,14679300,13925636,3774,3800,-1340,-13399,6868,-3063,-998,-3981,138,228,819
460620,14672912,13891260,14680044,13926380,3800,3800,-1539,-15562,7507,-2909,-1061,-2596,159,205,820
461621,14673536,13892216,14680788,13927124,3800,3800,-1827,-16976,8039,-2530,-633,-221,159,205,820
462622,14674276,13893128,14681532,13927868,3800,3800,-2161,-17793,8463,-1812,44,777,134,196,819
463623,14674832,13894128,14682276,13928612,3800,3800,-2533,-18024,8844,-1389,454,3123,134,196,819
464624,14675492,13895016,14683020,13929356,3800,3800,-2826,-18013,9134,-917,517,3544,127,201,818
465625,14676108,13895932,14683764,13930100,3800,3800,-3083,-17632,9353,-321,722,5118,127,201,818
466626,14676796,13896888,14684508,13930844,3800,3800,-3205,-17173,9548,482,1045,4792,138,203,817
467627,14677468,13897904,14685252,13931588,3800,3800,-3341,-17118,9600,1716,1575,4423,138,203,817
468628,14678212,13898856,14685996,13932332,3800,3800,-3437,-17019,9528,3016,1588,4674,130,202,818
469629,14678896,13899952,14686740,13933076,3800,3800,-3543,-16871,9381,4362,1724,4794,130,202,818
470630,14679628,13900892,14687484,13933820,3800,3800,-3641,-16678,9060,5111,2087,4558,157,218,819
471618,14680468,13901804,14688228,13934564,3423,3800,-3636,-16697,8653,5667,2045,3906,157,218,819
472639,14681164,13902656,14688988,13935324,3800,3800,-3614,-16664,8241,6886,1540,4162,160,181,819
473621,14682012,13903456,14689732,13936068,3358,3800,-4033,-15605,7869,7509,978,8035,160,181,819
474622,14682828,13904216,14690476,13936812,3527,3800,-4339,-14902,7446,6747,798,4149,161,163,819
475623,14683608,13904788,14691220,13937556,3739,3800,-4329,-15213,6874,7065,749,2320,161,163,819
476624,14684468,13905324,14691964,13938300,3189,3800,-4150,-15412,6319,7164,182,3707,161,125,816
477625,14685400,13905780,14692708,13939044,2658,3800,-4058,-15193,5772,6789,-163,4244,161,125,816
478626,14686336,13906136,14693452,13939788,2550,3800,-4029,-14730,5005,6503,230,3936,149,90,814
479627,14687264,13906524,14694196,13940532,2520,3800,-4377,-13327,3849,6288,2490,8632,149,90,814
480628,14688152,13906784,14694940,13941276,2709,3800,-5004,-10872,2369,6230,3700,10731,159,80,818
481629,14689148,13907056,14695684,13942020,1924,3800,-5622,-8713,1228,6606,1196,8293,159,80,818
482630,14690056,13907244,14696428,13942764,2403,3800,-5944,-7285,496,5853,657,6645,180,47,816
483631,14690904,13907472,14697172,13943508,2733,3800,-5943,-6789,-234,5022,1658,4147,180,47,816
484632,14691892,13907680,14697916,13944252,1753,3800,-5594,-7163,-1233,4174,2487,1537,175,44,818
485633,14692664,13907892,14698660,13944996,3091,3800,-4989,-8202,-2368,3320,2444,-285,175,44,818
486634,14693428,13908104,14699404,13945740,3134,3800,-4491,-8921,-3235,3442,349,1637,173,48,816
487635,14694224,13908296,14700148,13946484,2912,3800,-4214,-9094,-3701,3566,-184,2727,173,48,816
488635,14695036,13908520,14700892,13947228,2783,3800,-4043,-8854,-3811,3588,-101,3699,140,50,813
489637,14695744,13908728,14701636,13947972,3450,3800,-3911,-8522,-3693,3644,-135,3821,140,50,813
490650,14696392,13908968,14702380,13948716,3800,3800,-3726,-8393,-3522,3568,352,3316,156,50,815
491651,14697012,13909256,14703124,13949460,3800,3800,-3495,-8154,-3213,3413,-218,3828,156,50,815
492652,14697624,13909612,14703868,13950204,3800,3800,-3241,-7775,-2776,3016,-475,4188,148,58,813
493653,14698300,13909948,14704612,13950948,3800,3800,-2968,-7184,-2315,2828,-678,6068,148,58,813
494661,14698872,13910300,14705372,13951708,3800,3800,299,-298,-1237,1157,-6423,32767,115,87,812
495655,14699424,13910744,14706116,13952452,3800,3800,4588,9415,57,1595,-5857,32767,115,87,812
496656,14699988,13911244,14706860,13953196,3800,3800,6169,12070,574,3805,1132,1536,124,94,812
497657,14700524,13911728,14707604,13953940,3800,3800,5224,10799,657,5098,3339,3949,124,94,812
498658,14701048,13912276,14708348,13954684,3800,3800,3756,8484,938,5595,1350,-421,111,101,811
499659,14701580,13912784,14709092,13955428,3800,3800,2654,7503,1713,5937,-742,2014,111,101,811
500660,14702052,13913336,14709836,13956172,3800,3800,1979,6867,2530,5717,265,545,100,117,811
501661,14702500,13913984,14710580,13956916,3800,3800,1746,6022,3063,6166,-204,231,100,117,811
502662,14703000,13914544,14711324,13957660,3800,3800,1518,5000,3404,6173,-2,713,97,112,812
503663,14703468,13915216,14712068,13958404,3800,3800,1384,4036,3698,5738,304,726,97,112,812
504664,14703908,13915868,14712812,13959148,3800,3800,1187,3568,3963,5735,-138,2826,108,117,813
505666,14704376,13916632,14713556,13959892,3800,3800,907,3763,4212,5098,-99,4302,108,117,813
506666,14704884,13917432,14714300,13960636,3800,3800,680,4305,4310,4500,365,5317,93,144,813
507667,14705356,13918212,14715044,13961380,3800,3800,495,5123,4180,4251,102,5887,93,144,813
508668,14705848,13918992,14715788,13962124,3800,3800,495,5982,3877,3534,309,6029,94,156,813
509669,14706432,13919840,14716532,13962868,3800,3800,509,6996,3399,3031,954,6991,94,156,813
510670,14706948,13920704,14717276,13963612,3800,3800,474,8368,2819,2920,943,7678,114,172,813
511671,14707544,13921520,14718020,13964356,3800,3800,428,9905,2343,3021,785,8349,114,172,813
512672,14708148,13922572,14718764,13965100,3800,3800,342,11670,1864,3374,1432,8730,126,174,815
513673,14708736,13923552,14719508,13965844,3800,3800,345,13207,1240,3362,1905,7785,126,174,815
514674,14709372,13924436,14720252,13966588,3800,3800,526,14407,535,3227,1264,6897,142,172,816
515675,14710104,13925508,14720996,13967332,3800,3800,788,15425,-157,3174,355,6384,142,172,816
516683,14710764,13926608,14721756,13968092,3800,3800,1041,16218,-729,2936,-807,5347,134,203,818
517677,14711488,13927724,14722500,13968836,3800,3800,1307,16737,-1198,2830,-1087,4205,134,203,818
518678,14712304,13928724,14723244,13969580,3800,3800,1607,16952,-1668,2871,-1439,3228,145,204,819
519679,14713100,13929776,14723988,13970324,3800,3800,1978,16883,-2183,2754,-1405,2214,145,204,819
520680,14713884,13930728,14724732,13971068,3800,3800,2384,16536,-2703,2296,-2318,1073,167,191,819
521681,14714788,13931716,14725476,13971812,3800,3800,2842,15852,-3202,1729,-2741,-46,167,191,819
522682,14715688,13932624,14726220,13972556,3800,3800,3261,15024,-3696,1230,-1910,-295,163,189,818
523683,14716536,13933600,14726964,13973300,3800,3800,3552,14195,-4187,812,-1837,-638,163,189,818
524671,14717672,13934352,14727708,13974044,2656,3800,3713,13289,-4646,32,-2813,-1132,178,179,819
525685,14718576,13935168,14728452,13974788,3800,3800,3805,12335,-5123,-1124,-2670,-1280,178,179,819
526674,14719584,13935828,14729196,13975532,3274,3800,3889,11507,-5566,-2355,-3156,-895,180,161,818
527675,14720708,13936508,14729940,13976276,2384,3800,3969,10877,-5843,-3399,-3756,-528,180,161,818
528676,14721720,13937240,14730684,13977020,2967,3800,4032,10528,-5900,-3989,-4451,35,187,146,818
529677,14722688,13937916,14731428,13977764,3145,3800,4091,10415,-5835,-4697,-3944,346,187,146,818
530678,14723700,13938552,14732172,13978508,2755,3800,4113,10498,-5754,-5797,-3132,852,200,138,822
531678,14724740,13939216,14732916,13979252,2450,3800,4060,10472,-5756,-6961,-2311,702,200,138,822
532679,14725728,13939960,14733660,13979996,2670,3800,3931,10430,-5803,-7632,-2274,972,196,141,818
533680,14726688,13940688,14734404,13980740,2751,3800,3769,10329,-5768,-7721,-2282,643,196,141,818
534681,14727728,13941464,14735148,13981484,2123,3800,3626,9984,-5578,-7121,-2180,-116,178,153,821
535682,14728620,13942156,14735892,13982228,2984,3800,3463,9256,-5185,-6545,-2208,-1075,178,153,821
536683,14729484,13942928,14736636,13982972,3108,3800,3205,8229,-4622,-5852,-2046,-1680,192,142,821
537684,14730428,13943600,14737380,13983716,2522,3800,2890,6937,-3963,-5494,-1816,-2514,192,142,821
538695,14731292,13944380,14738140,13984476,2977,3800,2596,5559,-3247,-5954,-1675,-2785,195,141,821
539687,14732112,13945200,14738884,13985220,3220,3800,2320,4240,-2492,-6586,-1861,-2734,195,141,821
540687,14733004,13945916,14739628,13985964,2706,3800,1973,3003,-1662,-7022,-2081,-2296,182,165,822
541689,14733836,13946716,14740372,13986708,3044,3800,1564,1852,-788,-7222,-1902,-2012,182,165,822
542690,14734652,13947548,14741116,13987452,3113,3800,1071,699,89,-7161,-1578,-1947,177,158,819
543690,14735524,13948420,14741860,13988196,2709,3800,618,-698,1020,-7514,-1832,-2765,177,158,819
544692,14736328,13949416,14742604,13988940,3109,3800,295,-2444,1982,-7835,-1542,-3648,177,187,820
545692,14737064,13950380,14743348,13989684,3538,3800,-72,-4271,2884,-7304,-1231,-3348,177,187,820
546694,14737920,13951248,14744092,13990428,2740,3800,-433,-6123,3733,-6308,-1304,-3644,174,185,822
547695,14738676,13952168,14744836,13991172,3361,3800,-813,-8201,4575,-4897,-1078,-3971,174,185,822
548696,14739380,13953244,14745580,13991916,3705,3800,-1160,-10456,5339,-3743,-316,-4162,152,197,821
549696,14740104,13954336,14746324,13992660,3590,3800,-1477,-12715,6052,-3302,204,-3736,152,197,821
550710,14740744,13955476,14747068,13993404,3800,3800,-1733,-14580,6748,-3351,524,-2445,141,201,821
551699,14741480,13956448,14747812,13994148,3566,3800,-1957,-16016,7368,-3574,692,-1353,141,201,821
552712,14742060,13957420,14748556,13994892,3800,3800,-2248,-16533,7968,-3599,738,1231,151,212,819
553701,14742788,13958340,14749300,13995636,3698,3800,-2594,-16882,8542,-2763,679,1414,151,212,819
554714,14743376,13959244,14750044,13996380,3800,3800,-2955,-17135,9050,-1322,701,2342,141,200,818
555702,14744112,13960228,14750788,13997124,3722,3800,-3248,-17396,9487,-431,1171,2659,141,200,818
556716,14744776,13961104,14751532,13997868,3800,3800,-3424,-17514,9691,401,2364,3297,150,179,819
557717,14745500,13962060,14752276,13998612,3800,3800,-3570,-17515,9623,1235,2981,3656,150,179,819
558718,14746184,13963028,14753020,13999356,3800,3800,-3691,-17369,9363,1919,3821,3806,156,200,819
559706,14746944,13963972,14753764,14000100,3641,3800,-3787,-17256,8994,3250,3025,3655,156,200,819
560727,14747644,13964936,14754524,14000860,3800,3800,-3773,-17193,8705,4466,2279,3636,140,209,818
561721,14748368,13965976,14755268,14001604,3800,3800,-3762,-17310,8421,5536,2341,3254,140,209,818
562710,14749116,13966896,14756012,14002348,3753,3800,-3778,-17629,7923,6250,2428,2275,139,202,820
563723,14749848,13967732,14756756,14003092,3800,3800,-3811,-18222,7253,7014,2022,1536,139,202,820
564712,14750720,13968552,14757500,14003836,2930,3800,-4832,-16920,6408,6960,488,9943,154,181,817
565712,14751620,13969260,14758244,14004580,2687,3800,-5861,-15270,5578,6061,285,5711,154,181,817
566714,14752612,13969984,14758988,14005324,2004,3800,-6057,-15440,4898,6579,1220,640,174,142,817
567715,14753448,13970488,14759732,14006068,2941,3800,-5661,-16000,4498,6541,-133,1889,174,142,817
568715,14754488,13971016,14760476,14006812,1537,3800,-5492,-15975,4392,6202,-2245,4209,177,123,818
569716,14755432,13971432,14761220,14007556,2050,3800,-5576,-14772,4257,5962,-2965,5681,177,123,818
570718,14756300,13971776,14761964,14008300,2472,3800,-5569,-13929,3771,5007,-1000,3288,166,94,818
571719,14757112,13972168,14762708,14009044,2793,3800,-5348,-13906,2941,4650,-500,1850,166,94,818
572720,14757908,13972484,14763452,14009788,2871,3800,-5486,-13548,2056,5236,-651,4579,173,81,819
573721,14758648,13972744,14764196,14010532,3224,3800,-5662,-13098,1180,4695,994,3019,173,81,819
574722,14759480,13973024,14764940,14011276,2611,3800,-5530,-13206,303,4738,1485,1148,146,56,816
575723,14760228,13973304,14765684,14012020,3135,3800,-5192,-13434,-417,4811,1148,1925,146,56,816
576724,14760976,13973576,14766428,14012764,3134,3800,-5053,-13037,-890,4873,1145,4799,145,56,814
577737,14761528,13973856,14767172,14013508,3800,3800,-5093,-11980,-1276,5107,1225,5351,145,56,814
578725,14762212,13974104,14767916,14014252,3647,3800,-5275,-10538,-1697,4532,799,7241,135,61,812
579739,14762800,13974356,14768660,14014996,3800,3800,-5618,-8595,-1921,4656,-847,9572,135,61,812
580740,14763392,13974612,14769404,14015740,3800,3800,-5901,-6956,-1843,5525,-2323,7958,128,69,811
581741,14763972,13974968,14770148,14016484,3800,3800,-5823,-6361,-1689,5788,-1671,4565,128,69,811
582749,14764516,13975348,14770908,14017244,3800,3800,-5282,-6479,-1737,5931,-1004,4213,129,81,811
583743,14764980,13975660,14771652,14017988,3800,3800,104,2294,-1182,9433,-10942,32767,129,81,811
584744,14765480,13976072,14772396,14018732,3800,3800,6825,12333,-329,9668,-7894,32767,117,83,811
585745,14765944,13976500,14773140,14019476,3800,3800,9690,13852,7,8446,-47,-3129,117,83,811
586746,14766372,13976924,14773884,14020220,3800,3800,9256,10255,105,9371,218,-2002,102,91,809
587747,14766852,13977412,14774628,14020964,3800,3800,7552,8299,517,10552,-1859,3904,102,91,809
588748,14767276,13977964,14775372,14021708,3800,3800,5567,8945,1238,10231,-3198,6469,90,96,810
589749,14767668,13978440,14776116,14022452,3800,3800,4045,9774,1942,9534,-3067,2103,90,96,810
590750,14768096,13978964,14776860,14023196,3800,3800,3263,9077,2553,9574,-2983,-889,93,101,810
591751,14768512,13979540,14777604,14023940,3800,3800,3143,7180,2745,8317,-199,-2444,93,101,810
592752,14768916,13980112,14778348,14024684,3800,3800,3415,5203,2593,7561,1091,-1520,99,117,811
593753,14769360,13980792,14779092,14025428,3800,3800,3547,4260,2403,7096,635,1818,99,117,811
594754,14769768,13981444,14779836,14026172,3800,3800,3325,4442,2383,6031,363,3967,92,128,811
595755,14770192,13982156,14780580,14026916,3800,3800,3040,5144,2391,5073,1099,4748,92,128,811
596756,14770680,13982848,14781324,14027660,3800,3800,2693,5933,2141,3987,2316,5414,89,131,813
597757,14771148,13983612,14782068,14028404,3800,3800,2314,7067,1638,3213,3307,7267,89,131,813
598758,14771632,13984384,14782812,14029148,3800,3800,1884,8802,1032,3212,3477,8385,104,142,811
599759,14772184,13985196,14783556,14029892,3800,3800,1418,10856,424,3113,3822,8785,104,142,811
600760,14772692,13986024,14784300,14030636,3800,3800,990,12857,-113,2605,4313,8604,103,140,813
601761,14773240,13986876,14785044,14031380,3800,3800,695,14629,-631,2289,4503,7804,103,140,813
602762,14773784,13987772,14785788,14032124,3800,3800,567,16159,-1166,2249,4450,6695,106,157,814
603764,14774432,13988608,14786532,14032868,3800,3800,536,17375,-1681,2166,4045,5694,106,157,814
604771,14775044,13989660,14787292,14033628,3800,3800,559,18222,-2206,2116,3797,4376,123,169,816
605765,14775700,13990708,14788036,14034372,3800,3800,601,18665,-2696,1701,2818,3328,123,169,816
606767,14776412,13991752,14788780,14035116,3800,3800,681,18788,-3157,1092,1928,1992,132,196,817
607768,14777116,13992724,14789524,14035860,3800,3800,828,18465,-3677,707,1315,414,132,196,817
608769,14777876,13993756,14790268,14036604,3800,3800,981,17946,-4111,558,607,-94,140,205,817
609769,14778712,13994860,14791012,14037348,3800,3800,1072,17411,-4331,281,-341,-105,140,205,817
610770,14779472,13995756,14791756,14038092,3800,3800,1085,16927,-4386,-207,-1157,-229,167,186,817
611771,14780284,13996728,14792500,14038836,3800,3800,1118,16304,-4386,-921,-1388,-999,167,186,817
612772,14781248,13997672,14793244,14039580,3800,3800,1255,15453,-4451,-1404,-1641,-1738,155,201,818
613773,14782124,13998508,14793988,14040324,3800,3800,1429,14520,-4549,-1901,-2394,-1682,155,201,818
614774,14783064,13999356,14794732,14041068,3800,3800,1562,13739,-4578,-2724,-3281,-1011,165,189,819
615776,14784120,14000196,14795476,14041812,3800,3800,1609,13246,-4530,-3477,-3895,-391,165,189,819
616764,14785168,14000888,14796220,14042556,3794,3800,1612,12911,-4444,-4313,-4270,-85,183,177,818
617765,14786196,14001600,14796964,14043300,3798,3800,1636,12666,-4354,-5013,-4549,-12,183,177,818
618766,14787324,14002348,14797708,14044044,3006,3800,1656,12592,-4225,-5574,-4781,251,208,145,819
619780,14788288,14003112,14798452,14044788,3800,3800,1686,12408,-4004,-6292,-4695,-304,208,145,819
620768,14789316,14003848,14799196,14045532,3412,3800,1704,11901,-3729,-6584,-4245,-851,210,156,817
621768,14790432,14004588,14799940,14046276,2701,3800,1722,11243,-3435,-6773,-3619,-1215,210,156,817
622770,14791444,14005280,14800684,14047020,3235,3800,1757,10266,-3242,-7060,-2403,-2194,206,150,818
623770,14792432,14006008,14801428,14047764,3280,3800,1794,8979,-3249,-7263,-1464,-2988,206,150,818
624772,14793448,14006752,14802172,14048508,2987,3800,1843,7459,-3317,-7387,-1343,-3419,205,137,821
625772,14794448,14007524,14802916,14049252,2976,3800,1806,5914,-3334,-6915,-1016,-3177,205,137,821
626783,14795404,14008244,14803676,14050012,3167,3800,1564,4718,-3224,-6316,-471,-1821,189,147,819
627774,14796284,14008944,14804420,14050756,3584,3800,1234,3510,-2885,-5698,-716,-2596,189,147,819
628776,14797232,14009688,14805164,14051500,3070,3800,956,1903,-2372,-5460,-901,-3623,191,152,821
629776,14798148,14010496,14805908,14052244,3197,3800,729,116,-1784,-5905,-997,-3659,191,152,821
630778,14799020,14011204,14806652,14052988,3416,3800,504,-1606,-1195,-6344,-1377,-3395,192,162,819
631779,14799988,14012116,14807396,14053732,2719,3800,211,-3157,-588,-6610,-2020,-2664,192,162,819
632779,14800852,14012960,14808140,14054476,3318,3800,-231,-4202,42,-6745,-2086,-809,194,166,819
633780,14801780,14013852,14808884,14055220,2838,3800,-736,-4951,717,-6817,-2632,-616,194,166,819
634781,14802696,14014744,14809628,14055964,2840,3800,-1107,-5878,1503,-7194,-2830,-1119,180,175,822
635782,14803524,14015624,14810372,14056708,3354,3800,-1448,-6878,2335,-6898,-2453,-579,180,175,822
636784,14804392,14016648,14811116,14057452,3050,3800,-1840,-7895,3131,-6019,-2457,-794,201,207,823
637785,14805264,14017592,14811860,14058196,2971,3800,-2283,-9214,3875,-4794,-1758,-1574,201,207,823
638786,14806016,14018632,14812604,14058940,3719,3800,-2626,-10885,4492,-3243,-142,-2570,169,208,821
639787,14806828,14019748,14813348,14059684,3315,3800,-2901,-13105,5092,-2532,672,-3710,169,208,821
640800,14807560,14020812,14814092,14060428,3800,3800,-3059,-15297,5732,-2480,616,-3055,149,216,823
641789,14808356,14021864,14814836,14061172,3400,3800,-3252,-16533,6362,-2786,411,-13,149,216,823
642802,14809056,14022820,14815580,14061916,3800,3800,-3510,-16988,7014,-2320,135,1739,162,213,820
643790,14809884,14023728,14816324,14062660,3185,3800,-3777,-17292,7658,-561,-67,2039,162,213,820
644792,14810644,14024608,14817068,14063404,3604,3800,-3973,-17531,8224,435,872,2725,162,199,821
645793,14811380,14025468,14817812,14064148,3758,3800,-4060,-18065,8650,1103,1212,2114,162,199,821
646794,14812288,14026344,14818556,14064892,2613,3800,-4172,-18652,8853,1716,1949,2302,156,190,821
647795,14813144,14027328,14819300,14065636,2890,3800,-4266,-19157,8918,2201,2344,2276,156,190,821
648802,14813956,14028304,14820060,14066396,3143,3800,-4333,-19424,8832,3260,2184,2611,171,194,819
649796,14814908,14029208,14820804,14067140,2178,3800,-4370,-19592,8642,3978,1785,2978,171,194,819
650797,14815852,14030196,14821548,14067884,2141,3800,-4294,-19668,8456,4654,851,3316,177,214,823
651798,14816692,14031228,14822292,14068628,2749,3800,-4198,-19653,8188,5535,1,3081,177,214,823
652800,14817504,14032272,14823036,14069372,2897,3800,-4204,-19555,7805,5997,-462,3182,175,211,824
653801,14818436,14033168,14823780,14070116,2065,3800,-4428,-19395,7294,6030,-1247,3164,175,211,824
654802,14819392,14034056,14824524,14070860,1823,3800,-4601,-19491,6606,6003,-1246,1671,179,195,823
655802,14820356,14034908,14825268,14071604,1677,3800,-4841,-18964,5808,5916,-1259,4712,179,195,823
656804,14821304,14035632,14826012,14072348,1688,3800,-4946,-17890,5067,5336,-1862,4418,173,154,824
657804,14822212,14036308,14826756,14073092,1866,3800,-4821,-16992,4578,4800,-3036,3759,173,154,824
658806,14823072,14037016,14827500,14073836,2116,3800,-4626,-15953,4449,4254,-4240,5257,188,153,823
659806,14823912,14037616,14828244,14074580,2200,3800,-4475,-14773,4259,3935,-3770,5182,188,153,823
660808,14824696,14038172,14828988,14075324,2534,3800,-4285,-13687,3639,3482,-2636,4123,163,123,822
661809,14825424,14038688,14829732,14076068,2892,3800,-3959,-13202,2641,2979,-1949,2113,163,123,822
662810,14826256,14039184,14830476,14076812,2204,3800,-3509,-13340,1480,2927,-2053,822,163,111,821
663811,14826876,14039668,14831220,14077556,3583,3800,-3116,-13454,378,3181,-1600,1653,163,111,821
664824,14827444,14040044,14831964,14078300,3800,3800,-2841,-13342,-585,3672,-1049,2024,140,83,815
665812,14828104,14040484,14832708,14079044,3450,3800,-2645,-13129,-1377,4285,-985,2073,140,83,815
666826,14828688,14040916,14833452,14079788,3800,3800,-2563,-12676,-1914,4511,-1269,3808,150,93,813
667827,14829248,14041320,14834196,14080532,3800,3800,-2873,-10936,-2172,4897,-2965,9247,150,93,813
668828,14829836,14041864,14834940,14081276,3800,3800,-3645,-8033,-1853,6431,-6013,12553,136,88,813
669829,14830372,14042308,14835684,14082020,3800,3800,-4140,-5707,-1363,6861,-5281,8598,136,88,813
670837,14830832,14042796,14836444,14082780,3800,3800,-4060,-5072,-1160,7338,-3562,4201,115,100,812
671831,14831316,14043308,14837188,14083524,3800,3800,-2823,-5311,-1305,8974,-1963,3919,115,100,812
672832,14831836,14043796,14837932,14084268,3800,3800,3221,4236,-1800,17658,-525,32767,99,91,812
673833,14832284,14044292,14838676,14085012,3800,3800,9199,13456,-1761,14063,-1759,18070,99,91,812
674834,14832724,14044896,14839420,14085756,3800,3800,9450,14569,-571,12934,-1762,1454,97,116,811
675835,14833180,14045412,14840164,14086500,3800,3800,6740,12961,991,13444,-840,4113,97,116,811
676836,14833572,14046032,14840908,14087244,3800,3800,3945,10757,1897,12086,-890,-370,92,122,811
677837,14833984,14046640,14841652,14087988,3800,3800,2847,9303,2069,11322,1817,-1321,92,122,811
678838,14834416,14047336,14842396,14088732,3800,3800,2446,7667,1992,10776,3393,-1466,94,119,812
679839,14834836,14048076,14843140,14089476,3800,3800,2388,6226,1847,9537,2885,-1813,94,119,812
680840,14835224,14048824,14843884,14090220,3800,3800,2458,4455,1769,7578,1709,-1854,94,133,811
681841,14835676,14049532,14844628,14090964,3800,3800,2610,3185,1824,6061,793,-574,94,133,811
682842,14836124,14050320,14845372,14091708,3800,3800,2751,2709,2061,4928,34,2367,93,145,812
683843,14836552,14051064,14846116,14092452,3800,3800,2546,3548,2421,3679,-77,6597,93,145,812
684844,14837040,14051932,14846860,14093196,3800,3800,2282,5078,2543,2519,1711,6650,106,148,812
685845,14837528,14052796,14847604,14093940,3800,3800,2216,6302,2293,1781,2961,5527,106,148,812
686847,14838004,14053684,14848348,14094684,3800,3800,2253,7597,1823,1299,3633,6430,111,160,812
687847,14838568,14054600,14849092,14095428,3800,3800,2242,9456,1345,1156,4186,8591,111,160,812
688848,14839080,14055476,14849836,14096172,3800,3800,2181,11902,893,801,4804,9287,98,179,814
689849,14839644,14056496,14850580,14096916,3800,3800,2097,14520,477,426,4574,9682,98,179,814
690850,14840296,14057652,14851324,14097660,3800,3800,2055,17118,71,682,4469,9268,114,183,815
691851,14840904,14058568,14852068,14098404,3800,3800,2060,19443,-309,1151,4222,8418,114,183,815
692859,14841552,14059548,14852828,14099164,3800,3800,2063,21272,-720,933,3532,6906,124,197,816
693853,14842288,14060608,14853572,14099908,3800,3800,2096,22393,-1250,617,3635,4449,124,197,816
694854,14842976,14061528,14854316,14100652,3800,3800,2083,22884,-1922,516,2906,2715,148,200,817
695855,14843728,14062500,14855060,14101396,3800,3800,2038,22827,-2584,392,1374,891,148,200,817
696856,14844500,14063440,14855804,14102140,3800,3800,2035,22189,-3253,392,1124,-969,163,186,817
697857,14845356,14064352,14856548,14102884,3800,3800,2096,21320,-3876,525,178,-1415,163,186,817
698858,14846156,14065116,14857292,14103628,3800,3800,2082,20505,-4352,530,-548,-1255,179,190,816
699859,14847080,14065956,14858036,14104372,3800,3800,2049,19540,-4740,305,-941,-2295,179,190,816
700860,14848068,14066640,14858780,14105116,3800,3800,2081,18180,-5135,-322,-1321,-3406,187,164,818
701861,14849080,14067540,14859524,14105860,3800,3800,2213,16744,-5476,-1009,-2193,-3253,187,164,818
702862,14850044,14068336,14860268,14106604,3800,3800,2323,15550,-5609,-1702,-3266,-2598,190,161,817
703851,14851168,14069052,14861012,14107348,2916,3800,2352,14708,-5473,-2459,-4252,-1584,190,161,817
704852,14852220,14069752,14861756,14108092,3233,3800,2276,14132,-5279,-3202,-4013,-1129,208,157,818
705853,14853268,14070392,14862500,14108836,3127,3800,2155,13446,-5320,-3973,-2835,-1624,208,157,818
706854,14854352,14071204,14863244,14109580,2754,3800,2036,12436,-5607,-4776,-2240,-2249,218,147,820
707855,14855352,14071904,14863988,14110324,3168,3800,2020,11212,-5901,-5395,-2695,-2711,218,147,820
708856,14856376,14072676,14864732,14111068,2897,3800,2079,9777,-6043,-5972,-2610,-3322,197,152,819
709857,14857472,14073364,14865476,14111812,2293,3800,2062,8374,-6015,-6540,-2292,-3075,197,152,819
710857,14858488,14074100,14866220,14112556,2675,3800,1944,7099,-5789,-7107,-1889,-2768,217,146,820
711858,14859396,14074804,14866964,14113300,3279,3800,1792,5887,-5345,-7336,-2142,-2560,217,146,820
712859,14860384,14075684,14867708,14114044,2674,3800,1619,4615,-4699,-7149,-2478,-2651,204,158,823
713860,14861312,14076424,14868452,14114788,2969,3800,1372,3439,-3936,-6649,-2736,-2057,204,158,823
714870,14862208,14077184,14869212,14115548,3111,3800,1087,2149,-3112,-6500,-3036,-2668,199,160,819
715862,14863140,14078092,14869956,14116292,2805,3800,808,752,-2244,-6803,-3280,-2848,199,160,819
716863,14863984,14078928,14870700,14117036,3312,3800,504,-657,-1348,-7239,-3378,-2732,201,167,820
717864,14864828,14079772,14871444,14117780,3270,3800,144,-1766,-397,-7620,-3409,-1733,201,167,820
718866,14865776,14080608,14872188,14118524,2531,3800,-276,-2786,619,-8028,-2941,-1536,188,195,820
719866,14866592,14081540,14872932,14119268,3326,3800,-732,-3680,1583,-8261,-2227,-850,188,195,820
720868,14867424,14082636,14873676,14120012,3188,3800,-1189,-4474,2505,-8731,-1851,-865,199,204,819
721868,14868196,14083628,14874420,14120756,3552,3800,-1633,-5350,3389,-8418,-1673,-890,199,204,819
722869,14869068,14084764,14875164,14121500,2872,3800,-2130,-6419,4167,-6991,-899,-1067,163,217,821
723870,14869872,14085844,14875908,14122244,3272,3800,-2652,-7535,4930,-5470,-380,-1023,163,217,821
724871,14870660,14086824,14876652,14122988,3354,3800,-2963,-9273,5697,-4580,-281,-3129,170,212,820
725872,14871408,14087832,14877396,14123732,3603,3800,-3138,-11315,6435,-3882,-415,-2709,170,212,820
726874,14872148,14088788,14878140,14124476,3656,3800,-3276,-12976,7209,-3910,-149,-1522,147,206,822
727887,14872764,14089692,14878884,14125220,3800,3800,-3516,-14218,7925,-3731,527,-325,147,206,822
728875,14873544,14090660,14879628,14125964,3449,3800,-3817,-14791,8604,-3344,665,1296,137,204,818
729889,14874236,14091560,14880372,14126708,3800,3800,-4140,-15324,9281,-2248,823,1562,137,204,818
730890,14874964,14092456,14881116,14127452,3800,3800,-4346,-16009,9818,-447,285,1279,154,198,817
731878,14875784,14093380,14881860,14128196,3199,3800,-4401,-17017,10142,450,623,1093,154,198,817
732879,14876588,14094372,14882604,14128940,3273,3800,-4280,-18065,10187,1406,1346,1191,150,189,817
733880,14877372,14095404,14883348,14129684,3382,3800,-4174,-19096,9990,2664,1008,1464,150,189,817
734882,14878232,14096424,14884092,14130428,2858,3800,-4091,-19867,9682,3191,972,2135,158,204,821
735883,14879040,14097376,14884836,14131172,3156,3800,-4137,-20229,9339,4230,550,3344,158,204,821
736891,14879844,14098324,14885596,14131932,3162,3800,-4307,-20085,9062,5348,-66,4595,172,205,821
737885,14880764,14099196,14886340,14132676,2361,3800,-4707,-19680,8796,6184,454,4923,172,205,821
738886,14881624,14100096,14887084,14133420,2686,3800,-4728,-19952,8342,7036,406,1302,159,185,821
739887,14882496,14100864,14887828,14134164,2556,3800,-4549,-20419,7818,7657,16,2437,159,185,821
740888,14883448,14101520,14888572,14134908,1965,3800,-4418,-20678,7324,7572,-731,2703,166,137,821
741889,14884464,14102144,14889316,14135652,1447,3800,-4284,-20762,6773,7504,-1226,2373,166,137,821
742890,14885364,14102676,14890060,14136396,2104,3800,-4142,-20361,6138,6399,-2332,3795,165,132,819
743891,14886420,14103188,14890804,14137140,993,3800,-4141,-19274,5401,5220,-3612,5865,165,132,819
744892,14887248,14103688,14891548,14137884,2382,3800,-4275,-17677,4478,4418,-3854,6427,177,107,822
745893,14888084,14104100,14892292,14138628,2292,3800,-4345,-16197,3348,3275,-2787,5531,177,107,822
746894,14888904,14104492,14893036,14139372,2359,3800,-4312,-14920,2081,2823,-1890,5076,164,97,822
747895,14889780,14104852,14893780,14140116,1952,3800,-4268,-13875,945,3084,-1220,4678,164,97,822
748895,14890532,14105196,14894524,14140860,2725,3800,-4253,-13108,52,3487,371,3996,173,81,818
749896,14891244,14105536,14895268,14141604,2990,3800,-4186,-12680,-801,3892,1386,2646,173,81,818
750898,14892032,14105892,14896012,14142348,2496,3800,-3983,-12540,-1662,3679,1711,1717,134,84,818
751911,14892576,14106304,14896756,14143092,3800,3800,-3760,-12444,-2440,3339,1547,2290,134,84,818
752900,14893192,14106676,14897500,14143836,3717,3800,-3619,-12170,-3091,3623,1089,2991,135,84,815
753901,14893820,14107116,14898244,14144580,3694,3800,-3612,-11660,-3494,4129,216,3882,135,84,815
754914,14894396,14107576,14898988,14145324,3800,3800,-3767,-11051,-3689,4597,-70,4453,138,97,812
755915,14894936,14108056,14899732,14146068,3800,3800,-4115,-10355,-3714,5022,-710,5437,138,97,812
756916,14895492,14108588,14900476,14146812,3800,3800,-4425,-9678,-3462,5492,-1347,5458,121,87,811
757917,14895964,14109112,14901220,14147556,3800,3800,-3236,-7115,-2719,8241,-4369,15824,121,87,811
758925,14896444,14109592,14901980,14148316,3800,3800,2349,6979,-1663,20504,-11916,32767,107,92,811
759919,14896924,14110160,14902724,14149060,3800,3800,7204,16874,-343,12994,-5739,14549,107,92,811
760920,14897372,14110792,14903468,14149804,3800,3800,7136,16275,1094,9760,-2291,-2389,115,118,811
761921,14897824,14111392,14904212,14150548,3800,3800,5541,11777,2176,9775,-567,-4906,115,118,811
762922,14898280,14112036,14904956,14151292,3800,3800,4328,7195,2626,9466,1234,-5911,98,120,810
763923,14898704,14112708,14905700,14152036,3800,3800,3880,4725,2740,8945,2550,-3838,98,120,810
764924,14899100,14113420,14906444,14152780,3800,3800,3484,3505,2937,8812,1866,-1195,88,132,811
765925,14899564,14114140,14907188,14153524,3800,3800,2882,3270,3275,8293,380,1846,88,132,811
766926,14899992,14114948,14907932,14154268,3800,3800,2556,3040,3789,6984,-548,1937,109,128,811
767927,14900416,14115688,14908676,14155012,3800,3800,2556,2861,4320,5951,-641,2619,109,128,811
768928,14900880,14116492,14909420,14155756,3800,3800,2631,2894,4558,4701,720,3300,95,156,812
769929,14901332,14117320,14910164,14156500,3800,3800,2674,3381,4519,3380,1934,4899,95,156,812
770930,14901780,14118128,14910908,14157244,3800,3800,2666,4229,4197,2537,2951,5059,91,156,813
771932,14902264,14119140,14911652,14157988,3800,3800,2653,5595,3665,2075,3212,6999,89,178,813
772932,14902796,14120040,14912396,14158732,3800,3800,2620,7762,3143,1846,2918,9399,89,178,813
773933,14903352,14120904,14913140,14159476,3800,3800,2526,10338,2665,1913,2523,9985,119,185,813
774934,14903844,14121972,14913884,14160220,3800,3800,2426,13141,2234,1898,2413,10935,119,185,813
775935,14904488,14123008,14914628,14160964,3800,3800,2361,15824,1772,1828,3045,10272,109,199,815
776936,14905056,14124084,14915372,14161708,3800,3800,2402,18223,1251,2180,3044,9174,109,199,815
777937,14905656,14125076,14916116,14162452,3800,3800,2505,20238,728,2534,2805,8127,137,200,816
778938,14906376,14126136,14916860,14163196,3800,3800,2682,21841,170,2819,2875,6600,137,200,816
779939,14907072,14127064,14917604,14163940,3800,3800,2826,22871,-492,3073,2939,4708,143,199,816
780947,14907760,14127976,14918364,14164700,3800,3800,2994,23293,-1207,2973,2835,2602,143,199,816
781941,14908568,14128956,14919108,14165444,3800,3800,3134,23090,-1933,3231,2501,903,162,195,817
782942,14909352,14129936,14919852,14166188,3800,3800,3218,22465,-2629,3594,1574,-374,162,195,817
783943,14910144,14130740,14920596,14166932,3800,3800,3199,21496,-3306,3270,1028,-1499,169,186,817
784944,14911092,14131596,14921340,14167676,3800,3800,3194,20125,-4111,2558,402,-3108,169,186,817
785945,14911936,14132308,14922084,14168420,3800,3800,3263,18406,-4986,1974,-347,-3857,196,156,816
786946,14912772,14133124,14922828,14169164,3800,3800,3287,16768,-5718,1691,-1261,-3373,196,156,816
787934,14913804,14133968,14923572,14169908,3570,3800,3222,15381,-6206,1392,-2465,-2865,177,172,817
788935,14914824,14134676,14924316,14170652,3526,3800,3167,14093,-6519,617,-2847,-3060,177,172,817
789936,14915844,14135432,14925060,14171396,3407,3800,3167,12857,-6763,-635,-2486,-2885,182,156,818
790937,14917004,14136124,14925804,14172140,2351,3800,3097,11774,-7078,-1975,-2056,-2339,182,156,818
791939,14917972,14136912,14926548,14172884,3454,3800,2949,10919,-7500,-3250,-2042,-1734,212,159,819
792939,14919004,14137636,14927292,14173628,2929,3800,2771,10272,-7940,-4343,-2058,-1284,212,159,819
793941,14920144,14138480,14928036,14174372,2082,3800,2578,9757,-8267,-5255,-2426,-957,209,146,819
794941,14921120,14139192,14928780,14175116,3006,3800,2386,9306,-8342,-6219,-2788,-741,209,146,819
795943,14922124,14139916,14929524,14175860,2718,3800,2172,8905,-8132,-6920,-2786,-572,210,168,820
796943,14923120,14140656,14930268,14176604,2659,3800,1960,8668,-7689,-7458,-2829,-436,210,168,820
797944,14924164,14141492,14931012,14177348,2229,3800,1776,8355,-7043,-8091,-3124,-825,200,169,821
798946,14925048,14142276,14931756,14178092,3168,3800,1598,7677,-6278,-8246,-3576,-1655,200,169,821
799946,14925940,14143092,14932500,14178836,3054,3800,1451,6696,-5433,-8060,-3739,-2331,199,152,822
800948,14926916,14143912,14933244,14179580,2428,3800,1223,5493,-4556,-7566,-3769,-2453,199,152,822
801948,14927776,14144776,14933988,14180324,3104,3800,894,4253,-3661,-7229,-3960,-2654,179,184,821
802959,14928580,14145720,14934748,14181084,3436,3800,595,2728,-2615,-7530,-4150,-3990,179,184,821
803950,14929452,14146604,14935492,14181828,2956,3800,339,938,-1487,-7944,-4043,-4361,190,204,821
804951,14930248,14147680,14936236,14182572,3409,3800,-40,-528,-372,-8553,-3879,-2861,190,204,821
805952,14931056,14148648,14936980,14183316,3307,3800,-520,-1507,784,-9211,-4031,-1933,167,216,822
806953,14931884,14149680,14937724,14184060,3146,3800,-1126,-2465,1941,-9390,-4045,-1574,167,216,822
807954,14932700,14150724,14938468,14184804,3190,3800,-1698,-3259,3036,-9459,-3226,-1279,179,205,821
808956,14933464,14151824,14939212,14185548,3508,3800,-2297,-4274,4064,-8898,-2632,-1660,179,205,821
809957,14934296,14152920,14939956,14186292,3046,3800,-2758,-5585,5046,-7675,-2291,-2622,161,216,821
810957,14935104,14153916,14940700,14187036,3169,3800,-3165,-7368,6008,-6360,-1315,-2996,161,216,821
811958,14935840,14154864,14941444,14187780,3623,3800,-3512,-9050,6827,-4893,77,-2646,156,209,821
812959,14936696,14155780,14942188,14188524,2825,3800,-3853,-10940,7544,-4426,301,-2982,156,209,821
813973,14937288,14156684,14942932,14189268,3800,3800,-4089,-12595,8258,-4424,186,-2053,131,197,818
814962,14938020,14157640,14943676,14190012,3674,3800,-4308,-14042,8927,-4169,503,-1196,131,197,818
815975,14938644,14158608,14944420,14190756,3800,3800,-4470,-15002,9487,-3436,916,158,138,202,817
816976,14939356,14159600,14945164,14191500,3800,3800,-4599,-15728,9961,-2292,1300,820,138,202,817
817977,14940004,14160548,14945908,14192244,3800,3800,-4642,-16740,10316,-351,861,265,150,204,817
818978,14940728,14161524,14946652,14192988,3800,3800,-4637,-18035,10516,1118,586,146,150,204,817
819966,14941484,14162520,14947396,14193732,3643,3800,-4582,-19362,10608,2036,39,638,142,206,818
820968,14942252,14163572,14948140,14194476,3558,3800,-4592,-20450,10536,2908,-266,1677,142,206,818
821968,14943020,14164484,14948884,14195220,3548,3800,-4625,-20983,10347,3768,-71,3051,150,191,819
822969,14943860,14165336,14949628,14195964,3057,3800,-4604,-21273,10123,5548,248,2692,150,191,819
823970,14944704,14166164,14950372,14196708,2989,3800,-4561,-21457,9899,7218,520,3388,175,170,818
824978,14945496,14166852,14951132,14197468,3301,3800,-4446,-21665,9730,7390,610,3590,175,170,818
825972,14946480,14167552,14951876,14198212,1997,3800,-4366,-21728,9459,7534,349,4359,162,131,818
826973,14947396,14168104,14952620,14198956,2347,3800,-4517,-20858,9064,7679,152,6900,162,131,818
827974,14948272,14168588,14953364,14199700,2540,3800,-4624,-19913,8541,6827,-444,5264,156,112,819
828975,14949188,14169052,14954108,14200444,2216,3800,-4667,-19179,7773,6749,-925,4879,156,112,819
829976,14950080,14169456,14954852,14201188,2302,3800,-4685,-18726,6742,6349,-220,4384,176,91,817
830977,14951032,14169840,14955596,14201932,1836,3800,-4633,-18259,5493,6116,126,4306,176,91,817
831978,14951992,14170228,14956340,14202676,1692,3800,-4657,-17572,4134,6123,-495,4696,153,79,818
832980,14952832,14170544,14957084,14203420,2401,3800,-4774,-16629,2934,5718,-1086,5410,153,79,818
833980,14953604,14170840,14957828,14204164,2815,3800,-4949,-15455,1879,4958,571,5845,165,70,819
834982,14954496,14171112,14958572,14204908,2000,3800,-5086,-14419,791,4268,1429,4935,165,70,819
835982,14955232,14171452,14959316,14205652,2979,3800,-5154,-13636,-241,3872,807,4672,147,80,815
836984,14955956,14171836,14960060,14206396,3064,3800,-5171,-12940,-1198,3834,1199,4355,147,80,815
837985,14956720,14172164,14960804,14207140,2806,3800,-5012,-12844,-2132,4005,1583,2141,132,77,815
838985,14957456,14172556,14961548,14207884,2985,3800,-4855,-12735,-2936,4293,880,3209,132,77,815
839999,14958004,14172980,14962292,14208628,3800,3800,-4809,-12343,-3523,4375,710,4200,140,92,814
840988,14958632,14173400,14963036,14209372,3799,3800,-4875,-11817,-3975,4782,880,4244,140,92,814
842001,14959188,14173908,14963780,14210116,3800,3800,-5014,-11307,-4285,4894,184,4619,144,103,812
843002,14959744,14174436,14964524,14210860,3800,3800,-5176,-10452,-4326,5208,-1375,7546,144,103,812
844003,14960292,14174916,14965268,14211604,3800,3800,-698,-180,-3585,8020,-9837,32767,119,110,811
845004,14960848,14175424,14966012,14212348,3800,3800,5653,12011,-2582,8090,-7561,32767,119,110,811
846005,14961376,14176012,14966756,14213092,3800,3800,8143,14000,-2039,7033,-293,-2821,126,111,812
847013,14961836,14176532,14967516,14213852,3800,3800,6864,10482,-988,9202,-2963,-903,126,111,812
848007,14962372,14177240,14968260,14214596,3800,3800,5334,6097,413,9523,-4041,-6405,109,120,811
849008,14962848,14177832,14969004,14215340,3800,3800,4567,2965,1598,9409,-2433,-4254,109,120,811
850009,14963328,14178556,14969748,14216084,3800,3800,3791,1958,2918,9673,-3979,-140,115,124,811
851010,14963856,14179224,14970492,14216828,3800,3800,2961,1589,3905,9030,-3102,101,115,124,811
852011,14964304,14180004,14971236,14217572,3800,3800,2376,1121,4412,7668,-1708,955,106,140,810
853012,14964736,14180756,14971980,14218316,3800,3800,2247,522,4721,6798,-956,1424,106,140,810
854013,14965264,14181572,14972724,14219060,3800,3800,2407,-55,4880,6218,-901,1570,109,152,813
855014,14965716,14182308,14973468,14219804,3800,3800,2522,-72,4953,4737,-63,3751,109,152,813
856015,14966180,14183200,14974212,14220548,3800,3800,2501,780,4835,3436,1292,6260,90,157,813
857016,14966680,14184068,14974956,14221292,3800,3800,2448,2145,4514,2896,1844,6753,90,157,813
858017,14967172,14184912,14975700,14222036,3800,3800,2435,4007,4109,2164,2654,8668,102,185,813
859018,14967644,14185952,14976444,14222780,3800,3800,2396,6623,3676,2308,3241,10970,102,185,813
860019,14968224,14186920,14977188,14223524,3800,3800,2280,9659,3148,2482,3749,11501,105,204,814
861020,14968740,14187892,14977932,14224268,3800,3800,2273,12604,2688,2177,3445,11281,105,204,814
862021,14969312,14188972,14978676,14225012,3800,3800,2336,15438,2293,2418,3109,11072,124,203,814
863022,14969948,14189980,14979420,14225756,3800,3800,2400,18102,1860,2881,3112,10225,124,203,814
864023,14970520,14191108,14980164,14226500,3800,3800,2495,20290,1417,2957,3192,8545,122,201,816
865024,14971148,14192060,14980908,14227244,3800,3800,2685,21887,874,3365,3306,6514,122,201,816
866026,14971876,14193060,14981652,14227988,3800,3800,2910,22780,211,3636,3233,4476,142,200,817
867027,14972592,14194036,14982396,14228732,3800,3800,3201,23247,-460,3643,3172,3071,142,200,817
868028,14973276,14194920,14983140,14229476,3800,3800,3458,23173,-1151,3783,2827,1120,152,187,816
869035,14974016,14195852,14983900,14230236,3800,3800,3674,22547,-1874,3836,2665,-521,152,187,816
870030,14974860,14196792,14984644,14230980,3800,3800,3788,21563,-2538,3854,1469,-1471,168,181,817
871031,14975712,14197548,14985388,14231724,3800,3800,3772,20220,-3237,3511,528,-2889,168,181,817
872032,14976520,14198340,14986132,14232468,3800,3800,3746,18576,-4061,2724,301,-3548,183,157,816
873033,14977400,14199100,14986876,14233212,3800,3800,3739,17067,-4902,2089,-426,-3197,183,157,816
874034,14978356,14199920,14987620,14233956,3800,3800,3720,15626,-5644,1796,-1228,-3374,178,154,817
875022,14979340,14200720,14988364,14234700,3655,3800,3670,14196,-6258,1481,-1827,-3471,178,154,817
876023,14980408,14201408,14989108,14235444,2990,3800,3576,12734,-6801,912,-1496,-3634,197,157,818
877024,14981480,14202200,14989852,14236188,2822,3800,3420,11319,-7430,-64,-908,-3504,197,157,818
878025,14982504,14202940,14990596,14236932,3001,3800,3188,10252,-8133,-1504,-787,-2323,188,156,819
879026,14983596,14203780,14991340,14237676,2424,3800,2898,9725,-8751,-2974,-1496,-1130,188,156,819
880027,14984608,14204560,14992084,14238420,2808,3800,2623,9423,-9183,-4250,-1814,-807,184,156,819
881028,14985636,14205336,14992828,14239164,2584,3800,2413,9182,-9406,-5227,-1820,-683,184,156,819
882029,14986680,14206100,14993572,14239908,2354,3800,2224,8957,-9360,-5985,-2221,-580,206,164,821
883030,14987704,14206960,14994316,14240652,2357,3800,2009,8857,-8998,-6618,-2751,-218,206,164,821
884031,14988680,14207648,14995060,14241396,2556,3800,1803,8848,-8359,-7380,-3274,-218,205,159,821
885032,14989716,14208468,14995804,14242140,2054,3800,1633,8616,-7590,-7879,-3636,-959,205,159,821
886033,14990588,14209368,14996548,14242884,3025,3800,1509,8069,-6784,-8055,-3992,-1731,203,185,820
887034,14991452,14210224,14997292,14243628,3023,3800,1420,7089,-5919,-8044,-4284,-2875,203,185,820
888035,14992404,14211128,14998036,14244372,2383,3800,1345,5716,-4967,-7670,-4637,-3902,204,189,821
889036,14993252,14212000,14998780,14245116,2988,3800,1232,4008,-3866,-7526,-4603,-4656,204,189,821
890037,14994080,14213008,14999524,14245860,3077,3800,916,2530,-2730,-7842,-4394,-3392,198,208,823
891047,14994892,14214184,15000284,14246620,3155,3800,418,1578,-1564,-8685,-4449,-2117,198,208,823
892039,14995684,14215148,15001028,14247364,3260,3800,-39,663,-342,-9228,-4564,-2573,180,204,821
893052,14996384,14216272,15001772,14248108,3800,3800,-505,-500,860,-9190,-4576,-2818,180,204,821
894041,14997108,14217388,15002516,14248852,3715,3800,-1082,-1506,2011,-9416,-4436,-1549,160,218,820
895042,14997840,14218396,15003260,14249596,3671,3800,-1729,-2312,3141,-9434,-4647,-1363,160,218,820
896055,14998524,14219400,15004004,14250340,3800,3800,-2290,-3755,4233,-8423,-4309,-3369,144,224,818
897056,14999216,14220444,15004748,14251084,3800,3800,-2724,-5561,5299,-6748,-3335,-3608,144,224,818
898057,14999900,14221368,15005492,14251828,3800,3800,-3182,-7555,6290,-5354,-2496,-3512,131,218,818
899059,15000572,14222300,15006236,14252572,3800,3800,-3635,-9527,7197,-4563,-1808,-2884,131,218,818
900059,15001152,14223156,15006980,14253316,3800,3800,-4044,-11508,7996,-3763,-1616,-2951,123,212,817
901061,15001824,14224112,15007724,14254060,3800,3800,-4424,-13385,8679,-2527,-1387,-2322,123,212,817
902062,15002404,14225196,15008468,14254804,3800,3800,-4822,-15071,9267,-1403,-1002,-1436,136,197,816
903063,15003080,14226152,15009212,14255548,3800,3800,-5160,-16657,9765,-969,-208,-821,136,197,816
904064,15003788,14227132,15009956,14256292,3800,3800,-5456,-18057,10181,-290,-664,173,131,211,817
905065,15004384,14228108,15010700,14257036,3800,3800,-5727,-18830,10551,416,-174,2180,131,211,817
906065,15005072,14229068,15011444,14257780,3800,3800,-5863,-19651,10744,1405,174,1260,143,204,816
907067,15005836,14229968,15012188,14258524,3800,3800,-5855,-20746,10724,3066,-2,1011,143,204,816
908068,15006536,14230884,15012932,14259268,3800,3800,-5818,-21704,10651,5119,268,1966,162,165,817
909069,15007296,14231684,15013676,14260012,3800,3800,-5851,-22217,10580,6410,308,3470,162,165,817
910057,15008132,14232340,15014420,14260756,3420,3800,-5819,-22588,10538,6949,-176,3687,171,131,815
911058,15008908,14232944,15015164,14261500,3782,3800,-5672,-22648,10528,7579,-187,5189,171,131,815
912059,15009716,14233484,15015908,14262244,3556,3800,-5450,-22066,10405,7946,-64,6579,165,117,816
913067,15010584,14233988,15016668,14263004,3134,3800,-5220,-21147,10105,7672,135,7003,165,117,816
914061,15011400,14234432,15017412,14263748,3428,3800,-4993,-20280,9542,7271,-4,6654,160,90,814
915062,15012332,14234784,15018156,14264492,2622,3800,-4795,-19543,8569,7178,873,6144,160,90,814
916063,15013316,14235112,15018900,14265236,2192,3800,-4661,-18770,7254,7179,1341,6444,175,82,814
917064,15014188,14235432,15019644,14265980,2837,3800,-4607,-17705,5792,7054,1153,6759,175,82,814
918065,15015128,14235740,15020388,14266724,2327,3800,-4593,-16565,4198,6423,2311,6759,165,54,815
919066,15016068,14236004,15021132,14267468,2242,3800,-4539,-15340,2664,6290,2974,7101,165,54,815
920067,15016988,14236280,15021876,14268212,2291,3800,-4629,-13556,1441,6510,3094,9409,182,62,816
921068,15017852,14236508,15022620,14268956,2589,3800,-5263,-10204,561,6263,2267,15072,182,62,816
922069,15018644,14236756,15023364,14269700,3019,3800,-5790,-7454,-399,4985,2627,9812,166,58,816
923070,15019552,14237064,15024108,14270444,2223,3800,-5888,-6308,-1417,4761,2389,6103,166,58,816
924071,15020356,14237396,15024852,14271188,2847,3800,-5768,-6085,-2399,4783,2595,5191,149,66,815
925072,15021148,14237648,15025596,14271932,2902,3800,-5525,-6376,-3356,4480,2537,3109,149,66,815
926073,15021968,14237968,15026340,14272676,2695,3800,-5066,-7107,-4201,3953,2599,1451,159,73,815
927074,15022792,14238320,15027084,14273420,2635,3800,-4583,-7988,-4681,3990,1205,1843,159,73,815
928075,15023472,14238684,15027828,14274164,3564,3800,-2262,-5102,-4533,4289,-1876,32767,165,68,814
929076,15024148,14239080,15028572,14274908,3620,3800,1791,1903,-3955,3225,-1613,32767,165,68,814
930089,15024776,14239528,15029316,14275652,3800,3800,3825,3739,-3698,4139,2358,795,150,91,813
931091,15025404,14240008,15030060,14276396,3800,3800,3599,1575,-3567,3801,2422,-652,150,91,813
932092,15026064,14240480,15030804,14277140,3800,3800,3113,-1387,-3307,3917,1522,-1470,149,92,812
933093,15026672,14240988,15031548,14277884,3800,3800,2364,-2701,-2416,4414,-2915,2504,149,92,812
934093,15027220,14241560,15032292,14278628,3800,3800,1449,-2316,-726,3720,-6590,3619,144,118,812
935101,15027820,14242168,15033052,14279388,3800,3800,670,-2549,658,3776,-2397,658,144,118,812
936096,15028324,14242836,15033796,14280132,3800,3800,55,-2804,1398,4019,506,2273,125,116,812
937096,15028880,14243440,15034540,14280876,3800,3800,-377,-3280,1732,2769,1192,2049,125,116,812
938098,15029432,14244204,15035284,14281620,3800,3800,-712,-2092,1950,2817,667,10943,119,125,812
939098,15029880,14244872,15036028,14282364,3800,3800,764,2203,2470,2809,-2262,32767,119,125,812
940100,15030360,14245748,15036772,14283108,3800,3800,2422,5536,2941,2131,-557,15029,102,141,811
941100,15030860,14246488,15037516,14283852,3800,3800,2829,6473,3321,2506,476,4884,102,141,811
942102,15031324,14247320,15038260,14284596,3800,3800,2522,6325,3677,2949,990,4862,99,154,813
943103,15031780,14248168,15039004,14285340,3800,3800,2199,6636,4034,3069,871,5817,99,154,813
944104,15032228,14249052,15039748,14286084,3800,3800,2124,7603,4366,2958,666,6120,108,176,813
945104,15032752,14249992,15040492,14286828,3800,3800,2241,8600,4521,2779,972,5870,108,176,813
946105,15033232,14250976,15041236,14287572,3800,3800,2439,9704,4475,2938,1003,6310,94,192,814
947106,15033740,14251936,15041980,14288316,3800,3800,2657,10716,4304,3080,1146,6141,94,192,814
948108,15034292,14252952,15042724,14289060,3800,3800,2791,11740,3960,3203,1464,6240,106,198,814
949109,15034856,14254040,15043468,14289804,3800,3800,2848,12874,3510,3512,1110,6473,106,198,814
950109,15035404,14254992,15044212,14290548,3800,3800,2911,13937,3085,3918,397,6003,122,211,814
951111,15036028,14256164,15044956,14291292,3800,3800,2987,14903,2685,4312,-300,5763,122,211,814
952112,15036612,14257272,15045700,14292036,3800,3800,3083,15680,2242,4459,-979,5225,144,197,815
953112,15037276,14258280,15046444,14292780,3800,3800,3188,16284,1757,4725,-1815,4741,144,197,815
954114,15038024,14259220,15047188,14293524,3800,3800,3344,16743,1162,4915,-1908,3768,133,195,816
955114,15038716,14260200,15047932,14294268,3800,3800,3552,16741,497,4908,-2294,2261,133,195,816
956115,15039440,14261232,15048676,14295012,3800,3800,3801,16431,-202,5111,-2283,1531,139,202,817
957123,15040260,14262088,15049436,14295772,3800,3800,4009,15864,-921,5243,-1988,686,139,202,817
958117,15041040,14262968,15050180,14296516,3800,3800,4145,15205,-1655,4976,-1440,434,162,196,816
959118,15041876,14263788,15050924,14297260,3800,3800,4270,14523,-2482,3936,-1725,-112,162,196,816
960120,15042824,14264600,15051668,14298004,3800,3800,4385,13707,-3441,2706,-2501,-542,161,190,817
961120,15043628,14265468,15052412,14298748,3800,3800,4408,13023,-4490,1793,-2152,-356,161,190,817
962121,15044560,14266320,15053156,14299492,3800,3800,4288,12364,-5539,1176,-1143,-615,186,174,816
963110,15045668,14267064,15053900,14300236,2641,3800,4072,11647,-6523,786,-780,-1151,186,174,816
964111,15046680,14267920,15054644,14300980,3124,3800,3796,10818,-7491,196,-430,-1505,205,169,817
965112,15047660,14268736,15055388,14301724,3223,3800,3494,10043,-8448,-707,-598,-1498,205,169,817
966113,15048772,14269536,15056132,14302468,2237,3800,3122,9496,-9305,-1770,-1716,-833,188,167,820
967114,15049860,14270364,15056876,14303212,2238,3800,2813,9049,-9991,-2927,-1576,-1123,188,167,820
968115,15050820,14271112,15057620,14303956,2944,3800,2660,8502,-10507,-4036,-596,-1534,209,178,821
969116,15051792,14271944,15058364,14304700,2770,3800,2606,7939,-10810,-4904,-1015,-1436,209,178,821
970117,15052856,14272792,15059108,14305444,2055,3800,2527,7561,-10734,-5719,-2221,-726,206,185,820
971118,15053864,14273600,15059852,14306188,2291,3800,2393,7667,-10274,-6552,-3398,424,206,185,820
972119,15054836,14274524,15060596,14306932,2417,3800,2252,7844,-9521,-7208,-4089,502,185,175,821
973120,15055780,14275432,15061340,14307676,2505,3800,2091,7907,-8649,-7465,-4382,364,185,175,821
974121,15056664,14276336,15062084,14308420,2819,3800,1964,7808,-7706,-7804,-4389,-147,201,186,822
975122,15057528,14277184,15062828,14309164,2893,3800,1890,7278,-6644,-7738,-4396,-1334,201,186,822
976123,15058468,14278284,15063572,14309908,2332,3800,1775,6228,-5481,-7311,-4242,-2553,175,202,823
977124,15059280,14279368,15064316,14310652,3104,3800,1575,5084,-4239,-7291,-3730,-2747,175,202,823
978124,15060060,14280444,15065060,14311396,3289,3800,1266,3902,-2942,-7915,-3628,-2870,175,210,823
979135,15060936,14281568,15065820,14312156,2639,3800,992,2744,-1634,-8517,-3285,-2858,175,210,823
980126,15061692,14282652,15066564,14312900,3385,3800,629,1599,-351,-8669,-2734,-2653,185,217,821
981128,15062496,14283744,15067308,14313644,3059,3800,231,628,916,-8823,-2610,-2301,185,217,821
982129,15063248,14284780,15068052,14314388,3382,3800,-228,-321,2160,-9590,-2350,-1826,153,207,820
983130,15064000,14285908,15068796,14315132,3379,3800,-673,-1269,3349,-9747,-1933,-1918,153,207,820
984131,15064724,14286880,15069540,14315876,3563,3800,-1107,-2456,4454,-8628,-1407,-2523,146,208,818
985132,15065544,14287848,15070284,14316620,2931,3800,-1533,-3810,5484,-6953,-816,-2658,146,208,818
986133,15066328,14288740,15071028,14317364,3139,3800,-1949,-5490,6396,-5795,141,-2948,162,209,819
987146,15066996,14289748,15071772,14318108,3800,3800,-2409,-7205,7150,-4951,717,-2563,162,209,819
988135,15067788,14290780,15072516,14318852,3103,3800,-2833,-9013,7817,-4299,1062,-2871,160,210,820
989148,15068388,14291844,15073260,14319596,3800,3800,-3254,-10763,8401,-3394,1528,-2370,160,210,820
990137,15069108,14292844,15074004,14320340,3629,3800,-3707,-12287,8883,-2571,2062,-1250,147,230,819
991150,15069684,14293812,15074748,14321084,3800,3800,-4179,-13577,9252,-1620,2060,-564,147,230,819
992139,15070432,14294772,15075492,14321828,3528,3800,-4635,-14557,9538,-287,1865,471,148,212,818
993152,15071096,14295632,15076236,14322572,3800,3800,-4919,-15817,9790,1289,976,-798,148,212,818
994153,15071780,14296492,15076980,14323316,3800,3800,-5092,-17405,10000,2690,596,-1077,155,169,816
995142,15072536,14297256,15077724,14324060,3537,3800,-5192,-19009,10159,3464,729,-123,155,169,816
996142,15073268,14297884,15078468,14324804,3694,3800,-5286,-20227,10203,4158,807,1288,160,129,814
997144,15074024,14298460,15079212,14325548,3539,3800,-5343,-20808,10107,4820,656,2745,160,129,814
998145,15074920,14299008,15079956,14326292,2599,3800,-5378,-20800,9909,5510,1082,4129,158,110,814
999146,15075640,14299432,15080700,14327036,3710,3800,-5399,-20475,9549,5907,632,5086,158,110,814
1000147,15076464,14299940,15081444,14327780,3026,3800,-5421,-20036,8976,5776,-125,5476,171,95,816
1001155,15077384,14300296,15082204,14328540,2357,3800,-5379,-19608,8133,5418,-576,5182,171,95,816
1002149,15078188,14300624,15082948,14329284,3056,3800,-5262,-19333,6976,5595,-510,4752,154,83,814
1003150,15079016,14300972,15083692,14330028,2869,3800,-5207,-18991,5692,6082,-401,5085,154,83,814
1004151,15079888,14301252,15084436,14330772,2539,3800,-5259,-18521,4418,6588,535,5009,146,55,813
1005152,15080708,14301560,15085180,14331516,2832,3800,-5384,-18129,3205,7094,1232,4679,146,55,813
1006153,15081520,14301824,15085924,14332260,2853,3800,-5512,-17474,2116,6786,1331,5611,136,52,813
1007154,15082396,14302068,15086668,14333004,2396,3800,-5565,-16724,1076,6090,1803,5395,136,52,813
1008155,15083188,14302328,15087412,14333748,2901,3800,-5555,-16158,44,5867,1650,5140,137,61,814
1009156,15083936,14302680,15088156,14334492,3174,3800,-5968,-14524,-831,6037,1195,10391,137,61,814
1010157,15084792,14302968,15088900,14335236,2451,3800,-6586,-12263,-1594,5574,885,9941,163,78,815
1011158,15085568,14303288,15089644,14335980,2938,3800,-6909,-11065,-2173,5482,-290,5418,163,78,815
1012159,15086300,14303640,15090388,14336724,3219,3800,-6821,-10991,-2520,5086,271,3750,148,72,813
1013160,15087112,14304008,15091132,14337468,2690,3800,-6699,-11253,-2825,4947,1658,4000,148,72,813
1014161,15087832,14304408,15091876,14338212,3276,3800,-6554,-11525,-3187,5240,2400,3116,140,83,814
1015162,15088572,14304812,15092620,14338956,3153,3800,-6367,-12048,-3488,5514,2451,2187,140,83,814
1016176,15089136,14305352,15093364,14339700,3800,3800,-2875,-6363,-3194,6004,-3321,32767,145,100,815
1017177,15089772,14305848,15094108,14340444,3800,3800,3440,6005,-2357,4965,-5648,32767,145,100,815
1018178,15090392,14306296,15094852,14341188,3800,3800,6170,9871,-1872,4656,516,2162,151,109,813
1019179,15090988,14306924,15095596,14341932,3800,3800,5575,6715,-1781,4380,2564,-3422,151,109,813
1020180,15091616,14307448,15096340,14342676,3800,3800,4622,1610,-1482,4847,-779,-6188,138,115,812
1021181,15092204,14308144,15097084,14343420,3800,3800,3535,-1388,-362,5011,-5899,-966,138,115,812
1022182,15092728,14308792,15097828,14344164,3800,3800,2636,-1843,1185,4963,-5483,1104,141,113,812
1023189,15093296,14309484,15098588,14344924,3800,3800,1447,-1551,2365,6302,-1888,3555,141,113,812
1024183,15093808,14310184,15099332,14345668,3800,3800,102,-1082,2933,6369,56,3562,128,133,812
1025184,15094364,14310944,15100076,14346412,3800,3800,-481,-2168,3251,5012,-63,-1579,128,133,812
1026185,15094916,14311680,15100820,14347156,3800,3800,-365,-4034,3491,5025,-64,-1903,113,143,813
1027186,15095392,14312564,15101564,14347900,3800,3800,155,-5769,3590,4360,545,-1345,113,143,813
1028187,15095880,14313312,15102308,14348644,3800,3800,597,-6327,3711,3546,399,2621,114,163,812
1029188,15096416,14314240,15103052,14349388,3800,3800,634,-5202,3838,3379,-146,7012,114,163,812
1030190,15096908,14315120,15103796,14350132,3800,3800,370,-2981,3957,3071,57,9827,114,173,813
1031191,15097392,14315972,15104540,14350876,3800,3800,238,-291,4021,2496,972,10687,114,173,813
1032192,15097948,14317016,15105284,14351620,3800,3800,375,2374,3952,2406,1290,10839,115,187,814
1033192,15098472,14317968,15106028,14352364,3800,3800,622,5113,3710,2087,1870,11680,115,187,814
1034193,15099012,14318940,15106772,14353108,3800,3800,911,8053,3382,2023,1608,12067,111,196,815
1035194,15099616,14320076,15107516,14353852,3800,3800,1208,11118,3046,2559,955,12172,111,196,815
1036195,15100192,14321084,15108260,14354596,3800,3800,1585,13982,2755,3015,818,11116,129,201,815
1037196,15100816,14322128,15109004,14355340,3800,3800,2024,16404,2451,3568,897,10154,129,201,815
1038198,15101480,14323228,15109748,14356084,3800,3800,2532,18496,2057,4466,854,8887,130,207,815
1039199,15102120,14324252,15110492,14356828,3800,3800,3043,20036,1616,5138,848,7140,130,207,815
1040199,15102820,14325224,15111236,14357572,3800,3800,3588,21067,1117,5787,434,5239,138,204,816
1041200,15103540,14326176,15111980,14358316,3800,3800,4112,21504,609,6407,-160,3527,138,204,816
1042201,15104288,14327104,15112724,14359060,3800,3800,4570,21537,127,6629,-421,2223,163,196,817
1043203,15105084,14328104,15113468,14359804,3800,3800,4956,21097,-412,6690,-580,412,163,196,817
1044203,15105900,14328904,15114212,14360548,3800,3800,5310,20125,-1039,6391,-552,-1223,163,189,816
1045211,15106768,14329756,15114972,14361308,3800,3800,5621,18887,-1726,5538,-908,-1683,163,189,816
1046205,15107656,14330608,15115716,14362052,3800,3800,5839,17657,-2447,4554,-2063,-1808,179,195,817
1047206,15108568,14331380,15116460,14362796,3800,3800,5985,16508,-3176,3500,-3008,-1815,179,195,817
1048195,15109536,14332300,15117204,14363540,3361,3800,6071,15519,-3923,2656,-2570,-1602,185,182,817
1049196,15110424,14333112,15117948,14364284,3800,3800,6023,14514,-4765,2163,-1201,-1999,185,182,817
1050197,15111424,14333880,15118692,14365028,2988,3800,5729,13384,-5843,1757,-334,-2417,208,172,816
1051198,15112564,14334728,15119436,14365772,1941,3800,5255,12184,-7121,1288,-867,-2552,208,172,816
1052199,15113596,14335460,15120180,14366516,2491,3800,4795,11066,-8389,748,-1541,-2436,202,170,818
1053199,15114628,14336284,15120924,14367260,2365,3800,4413,10057,-9466,-223,-938,-2293,202,170,818
1054201,15115716,14337164,15121668,14368004,1865,3800,4097,9255,-10296,-1207,-462,-1971,211,169,823
1055202,15116760,14338080,15122412,14368748,2010,3800,3713,8834,-10777,-2419,-1015,-979,211,169,823
1056203,15117680,14338820,15123156,14369492,2709,3800,3333,8687,-10908,-4148,-1736,-327,195,184,822
1057204,15118728,14339712,15123900,14370236,1776,3800,2971,8713,-10783,-5347,-2628,372,195,184,822
1058205,15119724,14340564,15124644,14370980,1992,3800,2695,9009,-10462,-6040,-3201,844,191,180,822
1059206,15120612,14341564,15125388,14371724,2604,3800,2462,9579,-9949,-6651,-3937,1206,191,180,822
1060207,15121564,14342404,15126132,14372468,2114,3800,2266,9850,-9235,-7123,-4587,275,178,202,823
1061208,15122400,14343488,15126876,14373212,2798,3800,2060,9622,-8334,-7194,-4719,-574,178,202,823
1062209,15123276,14344544,15127620,14373956,2491,3800,1866,9045,-7337,-7072,-4452,-1686,206,221,821
1063210,15124172,14345576,15128364,14374700,2301,3800,1655,7998,-6310,-7073,-4491,-3184,206,221,821
1064211,15124928,14346588,15129108,14375444,3171,3800,1479,6583,-5201,-7810,-4620,-3972,177,225,823
1065212,15125684,14347848,15129852,14376188,3167,3800,1268,5145,-4017,-8439,-4218,-3811,177,225,823
1066213,15126428,14348928,15130596,14376932,3242,3800,870,4005,-2828,-8707,-3616,-2767,168,223,825
1067223,15127192,14350000,15131356,14377692,3116,3800,353,3171,-1590,-9203,-3420,-2066,168,223,825
1068215,15127916,14351044,15132100,14378436,3376,3800,-125,2395,-288,-10098,-3349,-1992,147,223,821
1069228,15128548,14352044,15132844,14379180,3800,3800,-595,1560,1006,-10420,-2975,-2095,147,223,821
1070217,15129320,14353084,15133588,14379924,3115,3800,-1076,477,2247,-9421,-2316,-2669,148,216,821
1071218,15129996,14354036,15134332,14380668,3745,3800,-1462,-1411,3419,-7742,-1760,-4834,148,216,821
1072231,15130668,14355000,15135076,14381412,3800,3800,-1818,-3723,4483,-6289,-1052,-4904,140,215,816
1073220,15131416,14356016,15135820,14382156,3327,3800,-2215,-6067,5463,-5621,-381,-4526,140,215,816
1074233,15132052,14357000,15136564,14382900,3800,3800,-2747,-8034,6408,-4981,7,-3094,133,222,817
1075234,15132712,14357996,15137308,14383644,3800,3800,-3290,-9786,7321,-4237,593,-2959,133,222,817
1076235,15133392,14359128,15138052,14384388,3800,3800,-3855,-11434,8124,-2915,1498,-2354,132,205,819
1077236,15134020,14360124,15138796,14385132,3800,3800,-4458,-12882,8779,-1633,1928,-1137,132,205,819
1078237,15134692,14361060,15139540,14385876,3800,3800,-5054,-14314,9308,-1002,1679,-849,139,207,817
1079239,15135380,14361944,15140284,14386620,3800,3800,-5461,-15881,9739,-129,471,-1538,139,207,817
1080240,15136052,14362776,15141028,14387364,3800,3800,-5762,-17392,10153,962,-90,-761,138,175,816
1081228,15136768,14363536,15141772,14388108,3798,3800,-6013,-18612,10563,2147,-96,506,138,175,816
1082229,15137496,14364188,15142516,14388852,3731,3800,-6272,-19325,10854,2815,50,2292,162,140,813
1083230,15138268,14364736,15143260,14389596,3444,3800,-6486,-19544,11027,3217,-454,3580,162,140,813
1084231,15139024,14365240,15144004,14390340,3540,3800,-6684,-19300,11066,3797,-944,5019,146,106,812
1085232,15139844,14365704,15144748,14391084,3108,3800,-6732,-18734,10965,4027,-1267,5953,146,106,812
1086233,15140676,14366136,15145492,14391828,2995,3800,-6614,-18187,10628,4033,-1303,5584,149,92,813
1087234,15141476,14366520,15146236,14392572,3171,3800,-6456,-17737,9974,4298,-851,5486,149,92,813
1088235,15142316,14366852,15146980,14393316,2880,3800,-6266,-17450,9015,4550,59,4871,168,80,815
1089243,15143172,14367156,15147740,14394076,2739,3800,-6044,-17353,7690,4569,1027,4220,168,80,815
1090236,15144028,14367440,15148484,14394820,2691,3800,-5833,-17330,6156,4958,1218,3887,170,71,814
1091238,15144844,14367676,15149228,14395564,2910,3800,-5662,-17196,4667,5496,1782,4354,170,71,814
1092238,15145732,14368008,15149972,14396308,2397,3800,-5655,-16719,3285,5841,3135,5264,174,76,815
1093240,15146552,14368340,15150716,14397052,2789,3800,-5713,-16165,1913,5807,4044,4944,174,76,815
1094241,15147388,14368624,15151460,14397796,2650,3800,-5653,-15919,510,5542,3844,3989,148,75,813
1095242,15148320,14368944,15152204,14398540,1968,3800,-5740,-15097,-772,5713,2739,7324,148,75,813
1096243,15149112,14369304,15152948,14399284,2822,3800,-6380,-12671,-1856,6156,1943,12906,156,77,815
1097244,15149896,14369728,15153692,14400028,2856,3800,-7061,-10586,-2488,6681,17,8665,156,77,815
1098245,15150756,14370092,15154436,14400772,2331,3800,-7611,-9857,-3383,5725,2151,4127,165,89,818
1099246,15151480,14370532,15155180,14401516,3190,3800,-7433,-10725,-3967,5292,1889,2160,165,89,818
1100247,15152248,14371008,15155924,14402260,2905,3800,-4433,-7274,-4021,4944,-2121,29715,162,97,815
1101248,15153044,14371448,15156668,14403004,2708,3800,1823,3306,-3461,3791,-3929,32767,162,97,815
1102249,15153864,14371872,15157412,14403748,2526,3800,5250,6100,-3307,4760,2373,-2012,144,90,815
1103250,15154536,14372492,15158156,14404492,3482,3800,5261,2523,-3326,4736,3114,-4101,144,90,815
1104251,15155216,14372996,15158900,14405236,3461,3800,4352,-2094,-3065,5096,1171,-4148,143,104,815
1105265,15155844,14373604,15159644,14405980,3800,3800,3102,-4479,-1880,5121,-4111,297,143,104,815
1106265,15156480,14374240,15160388,14406724,3800,3800,2096,-4227,-233,4165,-4477,4195,140,128,814
1107254,15157144,14374936,15161132,14407468,3697,3800,1287,-3902,937,4151,-2007,2644,140,128,814
1108267,15157764,14375696,15161876,14408212,3800,3800,623,-3965,1658,3838,-1987,2270,140,126,814
1109268,15158324,14376468,15162620,14408956,3800,3800,-151,-4517,2354,2861,-1945,2126,140,126,814
1110269,15158920,14377212,15163364,14409700,3800,3800,-693,-5204,2778,3425,1587,496,142,149,814
1111277,15159432,14378040,15164124,14410460,3800,3800,-542,-6511,2795,2666,3155,-1768,142,149,814
1112271,15159952,14378816,15164868,14411204,3800,3800,-79,-7389,2701,1704,2624,1153,133,146,814
1113272,15160496,14379812,15165612,14411948,3800,3800,96,-6918,2646,1706,1417,5487,133,146,814
1114273,15160924,14380720,15166356,14412692,3800,3800,-183,-5039,2715,1717,452,9119,96,169,813
1115274,15161336,14381596,15167100,14413436,3800,3800,-627,-2370,2916,1824,17,10666,96,169,813
1116275,15161764,14382584,15167844,14414180,3800,3800,-950,393,2983,2078,188,10862,97,183,813
1117276,15162192,14383536,15168588,14414924,3800,3800,-1036,2843,2872,1923,64,10132,97,183,813
1118277,15162580,14384484,15169332,14415668,3800,3800,-937,5105,2757,2393,77,10013,77,192,814
1119278,15162972,14385652,15170076,14416412,3800,3800,-746,7328,2543,3203,296,9716,77,192,814
1120279,15163400,14386648,15170820,14417156,3800,3800,-481,9433,2290,4136,352,9371,81,195,814
1121280,15163852,14387652,15171564,14417900,3800,3800,-126,11313,2011,4806,347,8320,81,195,814
1122281,15164288,14388636,15172308,14418644,3800,3800,286,12695,1614,5466,334,7059,88,204,815
1123282,15164832,14389632,15173052,14419388,3800,3800,753,13729,1172,6059,-223,6105,88,204,815
1124283,15165356,14390724,15173796,14420132,3800,3800,1264,14514,758,6537,-1003,5256,111,205,815
1125284,15165920,14391652,15174540,14420876,3800,3800,1768,14983,327,6835,-1798,4329,111,205,815
1126285,15166552,14392588,15175284,14421620,3800,3800,2252,15275,-161,6762,-2368,3854,119,183,814
1127286,15167148,14393492,15176028,14422364,3800,3800,2787,15304,-706,6795,-2862,2456,119,183,814
1128288,15167808,14394296,15176772,14423108,3800,3800,3377,14785,-1304,7085,-3348,898,145,202,814
1129289,15168568,14395240,15177516,14423852,3800,3800,3938,13997,-1887,7121,-3837,206,145,202,814
1130290,15169268,14396300,15178260,14424596,3800,3800,4408,13146,-2458,6702,-3923,15,154,208,816
1131291,15169972,14397148,15179004,14425340,3800,3800,4782,12364,-3072,5890,-4051,-60,154,208,816
1132292,15170780,14398020,15179748,14426084,3800,3800,5098,11725,-3735,4738,-3619,381,155,196,817
1133299,15171544,14398984,15180508,14426844,3800,3800,5288,11374,-4469,3687,-2942,912,155,196,817
1134293,15172352,14399864,15181252,14427588,3800,3800,5262,11142,-5285,3000,-2901,1061,161,192,817
1135295,15173304,14400760,15181996,14428332,3800,3800,5089,10925,-6146,2467,-3348,829,161,192,817
1136296,15174100,14401612,15182740,14429076,3800,3800,4852,10415,-7183,1760,-1622,-378,179,176,816
1137297,15174984,14402400,15183484,14429820,3800,3800,4646,9513,-8414,981,768,-1604,179,176,816
1138285,15175980,14403344,15184228,14430564,3537,3800,4394,8657,-9465,420,-91,-987,182,175,816
1139286,15176940,14404160,15184972,14431308,3668,3800,4028,8189,-10076,86,-1799,-187,182,175,816
1140287,15177928,14405156,15185716,14432052,3388,3800,3623,8029,-10322,-442,-2562,275,191,175,818
1141288,15178912,14406180,15186460,14432796,3308,3800,3246,8109,-10495,-1537,-2368,608,191,175,818
1142289,15180008,14407060,15187204,14433540,2456,3800,2920,8265,-10611,-2712,-2826,689,208,189,819
1143290,15181032,14408124,15187948,14434284,2784,3800,2698,8327,-10545,-3680,-3431,551,208,189,819
1144291,15182044,14408912,15188692,14435028,2743,3800,2545,8352,-10261,-4495,-3557,653,200,217,820
1145292,15183124,14410012,15189436,14435772,2171,3800,2419,8491,-9771,-5301,-3825,872,200,217,820
1146293,15184076,14411192,15190180,14436516,2881,3800,2290,8859,-9068,-6328,-4210,1371,194,216,823
1147294,15185068,14412312,15190924,14437260,2523,3800,2176,9085,-8173,-7134,-4504,882,194,216,823
1148295,15186084,14413440,15191668,14438004,2254,3800,2075,9011,-7197,-7384,-4435,111,188,236,824
1149296,15186980,14414548,15192412,14438748,2939,3800,1983,8750,-6180,-7824,-4000,-322,188,236,824
1150297,15187848,14415648,15193156,14439492,3060,3800,1869,8215,-5139,-8458,-3720,-995,203,215,824
1151298,15188804,14416836,15193900,14440236,2418,3800,1650,7716,-4075,-9027,-3175,-497,203,215,824
1152299,15189608,14417856,15194644,14440980,3343,3800,1366,7254,-2961,-9634,-2521,-678,186,218,823
1153300,15190356,14418872,15195388,14441724,3692,3800,1094,6638,-1800,-10262,-2386,-1162,186,218,823
1154301,15191152,14419824,15196132,14442468,3370,3800,839,5901,-596,-11262,-2199,-914,177,208,824
1155324,15191828,14420840,15196892,14443228,3800,3800,529,5225,655,-11214,-1890,-624,177,208,824
1156315,15192484,14421912,15197636,14443972,3800,3800,174,4201,1879,-9984,-1711,-1761,150,216,819
1157316,15193180,14422996,15198380,14444716,3800,3800,-157,2702,3076,-8005,-1438,-2735,150,216,819
1158317,15193792,14424036,15199124,14445460,3800,3800,-479,415,4210,-5994,-1100,-4280,137,234,817
1159318,15194392,14425028,15199868,14446204,3800,3800,-871,-2229,5216,-4081,-698,-4504,137,234,817
1160319,15195040,14425992,15200612,14446948,3800,3800,-1274,-5112,6154,-2992,-859,-5226,135,207,817
1161321,15195616,14426916,15201356,14447692,3800,3800,-1694,-7962,7003,-1790,-762,-4940,135,207,817
1162321,15196172,14427840,15202100,14448436,3800,3800,-2176,-10644,7751,-809,-251,-4136,135,176,815
1163322,15196828,14428652,15202844,14449180,3800,3800,-2679,-12979,8434,157,679,-3052,135,176,815
1164323,15197476,14429320,15203588,14449924,3800,3800,-3185,-15175,9022,1273,1283,-2675,128,140,814
1165324,15198044,14429936,15204332,14450668,3800,3800,-3641,-17065,9502,2029,1897,-1341,128,140,814
1166326,15198656,14430436,15205076,14451412,3800,3800,-4091,-18358,9834,2407,2489,883,134,113,812
1167327,15199312,14430992,15205820,14452156,3800,3800,-4329,-19111,10056,2024,1964,1623,134,113,812
1168327,15199980,14431392,15206564,14452900,3800,3800,-4567,-18997,10200,1702,1353,5407,126,86,811
1169329,15200556,14431756,15207308,14453644,3800,3800,-4818,-18157,10300,1598,1444,7174,126,86,811
1170329,15201300,14432060,15208052,14454388,3800,3800,-4989,-17277,10288,1844,1886,6903,129,74,810
1171331,15201924,14432312,15208796,14455132,3800,3800,-5093,-16607,10021,1964,3182,6985,129,74,810
1172331,15202632,14432540,15209540,14455876,3800,3800,-5233,-15950,9429,1446,4895,7365,130,43,809
1173332,15203324,14432736,15210284,14456620,3800,3800,-5415,-15184,8585,542,4884,7570,130,43,809
1174333,15204032,14432888,15211028,14457364,3800,3800,-5536,-14414,7597,370,4926,7490,151,46,809
1175334,15204792,14433052,15211772,14458108,3800,3800,-5753,-13507,6522,936,5140,8024,151,46,809
1176335,15205544,14433180,15212516,14458852,3800,3800,-6022,-12688,5453,1951,4088,7526,139,31,809
1177344,15206304,14433376,15213276,14459612,3800,3800,-6414,-11819,4533,3256,2256,7921,139,31,809
1178338,15207028,14433632,15214020,14460356,3800,3800,-7037,-11099,3775,4026,1766,7134,141,55,809
1179338,15207812,14433860,15214764,14461100,3800,3800,-7289,-11387,2674,4093,4055,3005,141,55,809
1180339,15208608,14434096,15215508,14461844,3800,3800,-7347,-12174,1418,4904,4299,3052,135,61,810
1181328,15209476,14434316,15216252,14462588,3742,3800,-7270,-12891,387,6053,3173,3545,135,61,810
1182329,15210376,14434628,15216996,14463332,3475,3800,-7403,-12896,-318,6973,2308,6436,140,73,810
1183330,15211264,14434944,15217740,14464076,3487,3800,-5599,-9905,-645,8402,45,19739,140,73,810
1184331,15212268,14435316,15218484,14464820,2649,3800,91,2202,-606,9391,-5782,32767,177,71,811
1185332,15213136,14435652,15219228,14465564,3447,3800,3764,8301,-888,7045,1703,9319,177,71,811
1186333,15214184,14436080,15219972,14466308,2189,3800,3772,7113,-1355,6438,2842,1724,189,78,813
1187334,15215084,14436536,15220716,14467052,3047,3800,1949,3470,-1178,7159,-972,-10,189,78,813
1188335,15216056,14436988,15221460,14467796,2497,3800,807,465,-197,7223,-3918,-2157,176,100,814
1189336,15216928,14437492,15222204,14468540,3067,3800,199,-1755,836,6153,-1989,-1378,176,100,814
1190337,15217788,14438076,15222948,14469284,3092,3800,-88,-3209,1245,5585,322,-1036,184,114,815
1191338,15218636,14438576,15223692,14470028,3122,3800,-379,-5072,1097,5238,2067,-2231,184,114,815
1192339,15219608,14439240,15224436,14470772,2248,3800,-419,-7113,914,4316,2938,-2926,177,117,816
1193353,15220324,14439880,15225180,14471516,3800,3800,-237,-8796,817,3898,3170,-853,177,117,816
1194341,15221112,14440604,15225924,14472260,3393,3800,-232,-9233,807,3251,2209,2963,178,136,815
1195342,15221956,14441376,15226668,14473004,3000,3800,-413,-8424,950,2145,1099,5879,178,136,815
1196343,15222724,14442208,15227412,14473748,3466,3800,-765,-6754,1063,1276,999,8002,182,141,815
1197344,15223460,14442932,15228156,14474492,3669,3800,-1185,-4605,1034,436,1606,8920,182,141,815
1198345,15224240,14443812,15228900,14475236,3379,3800,-1499,-2463,930,-835,2089,8912,163,165,819
1199366,15224924,14444640,15229660,14475996,3800,3800,-1606,-468,649,-1746,2130,8066,163,165,819
1200359,15225632,14445656,15230404,14476740,3800,3800,-1599,1680,178,-2192,1270,8855,164,181,816
1201360,15226332,14446656,15231148,14477484,3800,3800,-1644,4281,-374,-2707,385,10016,164,181,816
1202361,15226948,14447552,15231892,14478228,3800,3800,-1653,6504,-837,-2189,-411,7966,151,200,816
1203362,15227556,14448536,15232636,14478972,3800,3800,-1547,8015,-1131,-1578,-550,6567,151,200,816
1204363,15228200,14449612,15233380,14479716,3800,3800,-1354,9244,-1284,-955,-373,5943,145,206,815
1205364,15228792,14450772,15234124,14480460,3800,3800,-1074,10280,-1376,53,-695,4714,145,206,815
1206365,15229376,14451704,15234868,14481204,3800,3800,-752,10936,-1379,790,-1235,3364,133,206,816
1207366,15230000,14452744,15235612,14481948,3800,3800,-258,10937,-1290,1735,-1526,1273,133,206,816
1208367,15230556,14453836,15236356,14482692,3800,3800,358,10270,-1212,3042,-1460,-570,125,216,815
1209368,15231148,14454872,15237100,14483436,3800,3800,966,9192,-1125,3672,-1869,-1473,125,216,815
1210370,15231800,14455888,15237844,14484180,3800,3800,1500,8034,-1016,3510,-2983,-1572,124,210,816
1211370,15232376,14457016,15238588,14484924,3800,3800,1981,6962,-897,3308,-3882,-1539,124,210,816
1212371,15232984,14458040,15239332,14485668,3800,3800,2497,5990,-734,3190,-4385,-1513,128,217,816
1213372,15233700,14459036,15240076,14486412,3800,3800,2952,5080,-630,3192,-5068,-1423,128,217,816
1214373,15234368,14459932,15240820,14487156,3800,3800,3367,4219,-593,3341,-5849,-1310,143,204,816
1215374,15235056,14460900,15241564,14487900,3800,3800,3685,3608,-584,3262,-6327,-337,143,204,816
1216375,15235756,14461968,15242308,14488644,3800,3800,3934,3339,-615,3242,-6677,450,155,218,815
1217364,15236616,14462884,15243052,14489388,3681,3800,4096,3361,-697,3097,-6825,1222,155,218,815
1218377,15237408,14463808,15243796,14490132,3800,3800,4201,3667,-841,2810,-6056,1980,151,203,817
1219378,15238204,14464796,15244540,14490876,3800,3800,4185,4223,-1162,2365,-5052,2502,151,203,817
1220367,15239132,14465772,15245284,14491620,3134,3800,4000,5059,-1653,1612,-4069,3473,164,185,817
1221375,15240016,14466672,15246044,14492380,3357,3800,3697,6203,-2274,1015,-3383,4112,164,185,817
1222369,15240872,14467668,15246788,14493124,3483,3800,3421,7292,-2990,950,-2623,3316,183,200,818
1223369,15241864,14468600,15247532,14493868,2525,3800,3234,8019,-3727,849,-1674,2157,183,200,818
1224371,15242808,14469544,15248276,14494612,2738,3800,3023,8336,-4410,790,-1449,1247,176,198,819
1225371,15243756,14470444,15249020,14495356,2625,3800,2756,8404,-4955,797,-1873,771,176,198,819
1226373,15244804,14471448,15249764,14496100,1867,3800,2483,8374,-5326,671,-2257,489,187,196,820
1227374,15245800,14472552,15250508,14496844,2082,3800,2224,8173,-5660,711,-2176,-424,187,196,820
1228375,15246764,14473624,15251252,14497588,2187,3800,2030,7716,-6001,628,-1998,-1329,195,206,822
1229376,15247808,14474688,15251996,14498332,1556,3800,1918,6969,-6266,167,-1748,-1960,195,206,822
1230377,15248720,14475700,15252740,14499076,2307,3800,1801,6135,-6421,-341,-1909,-1924,186,213,824
1231378,15249636,14476812,15253484,14499820,2208,3800,1605,5414,-6430,-931,-2025,-1586,186,213,824
1232379,15250684,14478008,15254228,14500564,1250,3800,1477,4643,-6325,-1788,-1748,-1984,196,236,826
1233380,15251548,14479128,15254972,14501308,2348,3800,1352,3882,-6160,-2497,-1645,-1694,196,236,826
1234381,15252372,14480304,15255716,14502052,2563,3800,1198,3402,-5857,-3577,-1825,-692,174,258,825
1235382,15253256,14481452,15256460,14502796,2128,3800,1001,3063,-5434,-4343,-1720,-417,174,258,825
1236383,15254080,14482560,15257204,14503540,2468,3800,810,2697,-4976,-5093,-1539,-558,171,226,824
1237384,15254800,14483632,15257948,14504284,3129,3800,625,2450,-4435,-6281,-1010,252,171,226,824
1238385,15255612,14484744,15258692,14505028,2525,3800,414,2416,-3763,-7250,-1303,857,180,215,824
1239386,15256252,14485780,15259436,14505772,3646,3800,168,2483,-2966,-8381,-1052,1383,180,215,824
1240387,15256884,14486872,15260180,14506516,3746,3800,-85,2768,-1987,-9151,-925,2290,144,216,821
1241400,15257480,14487888,15260924,14507260,3800,3800,-322,2823,-940,-8840,-651,1473,144,216,821
1242402,15258088,14488916,15261668,14508004,3800,3800,-486,2346,83,-7849,-414,153,150,227,818
1243412,15258632,14490072,15262428,14508764,3800,3800,-613,1155,1067,-5646,395,-1259,150,227,818
