"Data file recorded 2014/9/24  16:52:29"
"%  Right Stride Frequency         = 13.0"
"%  Left Stride Frequency         = 13.0"
"%  Phase (Fractional)         = 32768.0"
"%  Experiment.py "
"%  Motor Gains    = [1800, 200, 100, 0, 0, 1800, 200, 100, 0, 0]
"% Columns: "
"% time | Right Leg Pos | Left Leg Pos | Commanded Right Leg Pos | Commanded Left Leg Pos | DCR | DCL | GyroX | GryoY | GryoZ | AX | AY | AZ | RBEMF | LBEMF | VBatt "
11385,23467148,22390836,23470522,22389178,2207,71,-401,-485,591,437,-586,4074,-3,-10,835
12386,23467164,22390824,23471384,22390040,2529,504,-401,-482,592,452,-576,4063,-7,-4,835
13387,23467156,22390836,23472246,22390902,3062,728,-402,-479,594,448,-560,4069,-7,-4,835
14388,23467328,22390844,23473108,22391764,2242,1128,-400,-492,593,447,-571,4042,21,-5,827
15389,23467524,22390840,23473970,22392626,2385,1583,-399,-472,601,491,-701,4068,21,-5,827
16390,23467784,22390844,23474832,22393488,2251,1911,-404,-502,625,595,-896,4020,35,3,821
17391,23468076,22390824,23475694,22394350,2303,2449,-419,-519,647,682,-859,4028,35,3,821
18392,23468304,22390844,23476556,22395212,2983,2570,-457,-480,672,651,-1114,4132,53,27,822
19393,23468668,22390964,23477418,22396074,2354,2272,-466,-499,689,631,-1129,3842,53,27,822
20394,23469096,22391104,23478280,22396936,2145,2465,-443,-527,689,796,-1129,3981,58,27,818
21395,23469480,22391276,23479142,22397798,2632,2570,-425,-546,677,1083,-1241,3984,58,27,818
22396,23469928,22391444,23480004,22398660,2416,2901,-459,-544,665,1575,-1148,3939,78,42,819
23397,23470404,22391648,23480866,22399522,2413,2966,-505,-617,619,2125,-634,3479,78,42,819
24398,23470812,22391840,23481728,22400384,3040,3337,-498,-840,502,2624,-204,2981,83,35,817
25399,23471244,22392100,23482590,22401246,3081,3178,-459,-986,375,2731,-666,3371,83,35,817
26400,23471744,22392368,23483452,22402108,2817,3391,-445,-893,301,2271,-1307,4046,71,63,815
27401,23472232,22392676,23484314,22402970,3058,3386,-455,-758,268,1848,-1812,4107,71,63,815
28402,23472684,22393004,23485176,22403832,3466,3498,-491,-457,246,1733,-2038,4537,84,69,812
29403,23473224,22393352,23486038,22404694,3060,3601,-509,-88,234,1542,-1823,4513,84,69,812
30404,23473748,22393812,23486900,22405556,3310,3079,-491,227,179,1144,-1302,4330,88,86,812
31405,23474268,22394236,23487762,22406418,3488,3499,-445,433,103,949,-1668,4272,88,86,812
32438,23474780,22394620,23486044,22404700,3800,3800,-345,682,86,1012,-2435,4334,109,81,811
33432,23475416,22395072,23486906,22405562,3800,3800,-239,960,118,1102,-2653,4203,109,81,811
34433,23475960,22395544,23487768,22406424,3800,3800,-88,1088,151,879,-2531,3474,102,88,811
35434,23476544,22395980,23488630,22407286,3800,3800,63,1045,174,656,-2329,3259,102,88,811
36435,23477248,22396480,23489492,22408148,3800,3800,168,931,207,589,-2063,3112,120,93,807
37436,23477808,22396984,23490354,22409010,3800,3800,240,832,319,629,-1368,2926,120,93,807
38437,23478356,22397464,23491216,22409872,3800,3800,291,713,499,600,-1006,2879,131,114,809
39438,23478984,22398048,23492078,22410734,3800,3800,346,639,755,492,-1275,3204,131,114,809
40439,23479564,22398728,23492940,22411596,3800,3800,445,798,1122,518,-1776,3949,147,115,809
41440,23480148,22399320,23493802,22412458,3800,3800,619,1080,1567,525,-2037,3957,147,115,809
42441,23480796,22399884,23494664,22413320,3800,3800,842,1394,1998,387,-1644,4255,140,110,810
43443,23481360,22400416,23495526,22414182,3800,3800,1047,1806,2365,189,-1408,4722,140,110,810
44443,23481940,22401100,23496388,22415044,3800,3800,1272,2426,2767,396,-1466,5221,142,130,810
45445,23482588,22401780,23497250,22415906,3800,3800,1489,3082,3144,389,-496,4866,142,130,810
46445,23483208,22402500,23498112,22416768,3800,3800,1686,3708,3486,288,239,5128,144,146,811
47446,23483804,22403236,23498974,22417630,3800,3800,1865,4418,3755,86,576,5436,144,146,811
48447,23484460,22403988,23499836,22418492,3800,3800,2001,5088,3924,-87,651,5594,134,147,810
49448,23485068,22404736,23500698,22419354,3800,3800,2245,6079,4026,51,841,7405,134,147,810
50449,23485656,22405396,23501560,22420216,3800,3800,2642,7458,3994,304,1750,10199,133,143,811
51457,23486304,22405928,23502428,22421084,3800,3800,2929,8478,3869,-201,1950,6089,133,143,811
52451,23486888,22406500,23503290,22421946,3800,3800,2999,9097,3762,-417,2029,5489,138,108,810
53452,23487492,22406908,23504152,22422808,3800,3800,3016,9576,3638,-533,2315,5296,138,108,810
54453,23488100,22407264,23505014,22423670,3800,3800,2930,10152,3285,-1213,3284,5769,129,87,809
55455,23488780,22407628,23505876,22424532,3800,3800,2585,10841,2495,-2109,4653,6050,129,87,809
56455,23489332,22407904,23506738,22425394,3800,3800,2101,11121,1306,-2339,6023,4327,117,62,807
57456,23489936,22408156,23507600,22426256,3800,3800,1601,11086,13,-2280,6261,3885,117,62,807
58457,23490604,22408420,23508462,22427118,3800,3800,1242,10460,-1037,-1983,5223,1671,123,49,804
59458,23491232,22408620,23509324,22427980,3800,3800,1003,9228,-1807,-1883,3718,391,123,49,804
60459,23491872,22408840,23510186,22428842,3800,3800,811,7782,-2356,-1922,2584,47,131,41,805
61460,23492556,22409024,23511048,22429704,3800,3800,576,6311,-2790,-1534,2696,25,131,41,805
62461,23493232,22409212,23511910,22430566,3800,3800,313,4860,-3136,-1160,2787,37,129,39,806
63462,23493884,22409340,23512772,22431428,3800,3800,24,3423,-3374,-862,2397,539,129,39,806
64463,23494632,22409456,23513634,22432290,3800,3800,-223,2087,-3492,-640,2128,888,127,40,806
65464,23495392,22409560,23514496,22433152,3800,3800,127,981,-3391,-958,575,6866,127,40,806
66465,23496136,22409656,23515358,22434014,3800,3800,2220,1199,-2878,-3035,-2618,26628,153,29,806
67466,23496968,22409752,23516220,22434876,3800,3800,4762,1598,-2265,-2737,-2374,21322,153,29,806
68467,23497792,22409800,23517082,22435738,3800,3800,5557,797,-2063,-682,416,3932,149,19,806
69468,23498640,22409904,23517944,22436600,3800,3800,4908,-708,-2162,-356,505,1618,149,19,806
70476,23499616,22409976,23518812,22437468,3800,3800,3993,-2034,-2275,-345,332,2212,169,19,805
71470,23500552,22410076,23519674,22438330,3800,3800,3278,-2896,-2274,-327,410,2932,169,19,805
72471,23501464,22410180,23520536,22439192,3800,3800,2690,-3515,-2211,-380,619,3064,180,35,804
73472,23502420,22410276,23521398,22440054,3800,3800,2118,-4191,-2145,-479,712,2918,180,35,804
74473,23503472,22410436,23522260,22440916,3800,3800,1571,-4938,-2125,-637,641,2883,172,24,807
75474,23504500,22410576,23523122,22441778,3800,3800,1097,-5683,-2174,-879,471,2811,172,24,807
76475,23505540,22410760,23523984,22442640,3800,3800,750,-6374,-2259,-1255,246,2850,183,35,808
77476,23506580,22410960,23524846,22443502,3800,3800,487,-6901,-2324,-1873,158,3522,183,35,808
78477,23507624,22411208,23525708,22444364,3800,3800,303,-7143,-2369,-2502,172,4229,213,59,810
79478,23508652,22411476,23526570,22445226,3800,3800,121,-7205,-2363,-3319,-233,4696,213,59,810
80479,23509744,22411772,23527432,22446088,3800,3800,-62,-7011,-2267,-4198,-1015,5696,201,59,809
81480,23510724,22412040,23528294,22446950,3800,3800,-224,-6847,-2054,-5351,-1791,5308,201,59,809
82481,23511720,22412328,23529156,22447812,3800,3800,-298,-6733,-1697,-6437,-2551,5474,212,61,809
83482,23512724,22412580,23530018,22448674,3800,3800,-364,-6511,-1243,-7348,-2868,5913,212,61,809
84483,23513604,22412868,23530880,22449536,3800,3800,-374,-6378,-739,-8107,-2967,5570,183,65,810
85484,23514448,22413180,23531742,22450398,3800,3800,-353,-6273,-151,-8714,-2889,5484,183,65,810
86485,23515368,22413460,23532604,22451260,3800,3800,-359,-6268,533,-8717,-2822,5394,172,76,809
87486,23516096,22413720,23533466,22452122,3800,3800,-286,-6572,1258,-7542,-2731,4091,172,76,809
88487,23516852,22413972,23534328,22452984,3800,3800,-95,-7365,1967,-5217,-2773,2624,159,65,808
89497,23517636,22414228,23535196,22453852,3800,3800,202,-8554,2629,-2924,-2495,1101,159,65,808
90489,23518304,22414452,23536058,22454714,3800,3800,531,-10327,3152,-1227,-2145,-818,155,55,806
91490,23519020,22414644,23536920,22455576,3800,3800,853,-12282,3539,-60,-1876,-1311,155,55,806
92491,23519708,22414796,23537782,22456438,3800,3800,1046,-14091,3898,889,-2459,-498,130,45,804
93492,23520416,22414940,23538644,22457300,3800,3800,1096,-15272,4292,1878,-3118,992,130,45,804
94493,23521036,22415072,23539506,22458162,3800,3800,1031,-16028,4663,2773,-2886,1673,136,30,806
95494,23521728,22415200,23540368,22459024,3800,3800,900,-16436,4902,3598,-1096,2373,136,30,806
96495,23522428,22415284,23541230,22459886,3800,3800,749,-16763,5037,3989,-327,2167,137,23,806
97496,23523188,22415372,23542092,22460748,3800,3800,588,-16848,5049,4226,-3,3171,137,23,806
98497,23523852,22415440,23542954,22461610,3800,3800,309,-16062,4947,4330,419,6410,138,23,805
99498,23524704,22415512,23543816,22462472,3800,3800,-493,-13865,4858,4315,-645,10594,138,23,805
100499,23525468,22415560,23544678,22463334,3800,3800,-996,-12248,4876,3277,-2919,5182,136,12,806
101500,23526244,22415616,23545540,22464196,3800,3800,-997,-12042,4694,3041,-1926,2477,136,12,806
102501,23527076,22415632,23546402,22465058,3800,3800,-707,-12202,4248,3381,-566,2423,148,8,804
103502,23527880,22415668,23547264,22465920,3800,3800,-540,-12104,3865,3545,-1548,3180,148,8,804
104503,23528652,22415704,23548126,22466782,3800,3800,-291,-11503,3693,3129,-2863,3202,150,8,804
105504,23529508,22415748,23548988,22467644,3800,3800,75,-10995,3536,2836,-2588,2792,150,8,804
106505,23530344,22415796,23549850,22468506,3800,3800,558,-10305,3291,2949,-2633,3411,151,17,805
107506,23531144,22415856,23550712,22469368,3800,3800,1025,-9569,2946,2602,-2639,3668,151,17,805
108514,23532140,22415904,23551580,22470236,3800,3800,1472,-8581,2494,2298,-2576,4059,161,17,806
109508,23533036,22415932,23552442,22471098,3800,3800,1885,-7397,2038,1986,-2688,4441,161,17,806
110509,23533948,22415988,23553304,22471960,3800,3800,2176,-6090,1639,1958,-2385,4954,165,26,806
111510,23534996,22416024,23554166,22472822,3800,3800,2330,-4549,1352,2510,-1949,5377,165,26,806
112511,23535936,22416084,23555028,22473684,3800,3800,2406,-3056,1209,2805,-1343,4808,179,15,806
113512,23536920,22416172,23555890,22474546,3800,3800,2493,-1708,1159,3535,-1102,4372,179,15,806
114513,23537844,22416224,23556752,22475408,3800,3800,2639,-772,1130,4327,-954,2915,161,33,807
115514,23538888,22416276,23557614,22476270,3800,3800,2798,-360,1052,5321,-659,1440,161,33,807
116515,23539772,22416340,23558476,22477132,3800,3800,2879,-285,878,6178,94,412,166,18,807
117516,23540600,22416416,23559338,22477994,3800,3800,2864,-460,609,6347,1257,-242,166,18,807
118517,23541560,22416524,23560200,22478856,3800,3800,2626,-652,363,7034,1977,205,173,19,806
119518,23542456,22416608,23561062,22479718,3800,3800,2347,-847,151,7342,2863,-498,173,19,806
120519,23543208,22416708,23561924,22480580,3800,3800,2149,-1211,-48,7332,3490,-1096,162,20,807
121520,23543960,22416828,23562786,22481442,3800,3800,2114,-1666,-212,7561,3445,-1479,162,20,807
122521,23544700,22416932,23563648,22482304,3800,3800,1892,-1982,-408,7788,3993,5,168,25,807
123522,23545376,22417052,23564510,22483166,3800,3800,1450,-1346,-358,8156,2852,2870,168,25,807
124523,23546108,22417208,23565372,22484028,3800,3800,753,-19,-411,7421,3586,4409,140,32,805
125524,23546748,22417356,23566234,22484890,3800,3800,-123,1901,-659,6907,3168,6290,140,32,805
126525,23547340,22417460,23567096,22485752,3800,3800,-1028,3803,-950,6538,2841,6036,136,41,805
127533,23547988,22417588,23567964,22486620,3800,3800,-1645,5223,-1299,5928,2652,4175,136,41,805
128527,23548580,22417708,23568826,22487482,3800,3800,-2076,6160,-1644,5274,1640,3580,136,45,803
129528,23549092,22417892,23569688,22488344,3800,3800,-2435,7071,-1853,5040,365,3711,136,45,803
130529,23549648,22418016,23570550,22489206,3800,3800,-2798,7914,-1900,5045,-173,3363,123,33,805
131530,23550176,22418152,23571412,22490068,3800,3800,-3052,8618,-1912,4969,14,2639,123,33,805
132531,23550672,22418256,23572274,22490930,3800,3800,-3244,9340,-1943,4821,-160,3175,108,42,805
133532,23551188,22418376,23573136,22491792,3800,3800,-3471,10211,-1924,4583,-623,3648,108,42,805
134533,23551728,22418484,23573998,22492654,3800,3800,-3628,10906,-1933,4402,204,2660,105,38,802
135534,23552232,22418624,23574860,22493516,3800,3800,-3675,11236,-2069,4119,720,1814,105,38,802
136535,23552720,22418704,23575722,22494378,3800,3800,-3684,11475,-2287,3948,460,2075,118,24,803
137536,23553256,22418784,23576584,22495240,3800,3800,-3770,11876,-2472,3801,-57,2898,118,24,803
138537,23553780,22418836,23577446,22496102,3800,3800,-3841,12379,-2592,3181,-720,2852,100,22,803
139538,23554252,22418904,23578308,22496964,3800,3800,-3854,12767,-2750,2500,-985,2615,100,22,803
140539,23554804,22418988,23579170,22497826,3800,3800,-3757,12968,-3030,2385,-594,1988,98,29,803
141540,23555296,22419064,23580032,22498688,3800,3800,-3656,12991,-3380,2426,-618,2001,98,29,803
142541,23555852,22419140,23580894,22499550,3800,3800,-3637,13037,-3682,2501,-858,2248,101,29,803
143543,23556444,22419180,23581756,22500412,3800,3800,-3680,13011,-3944,2351,-917,2120,101,29,803
144543,23557036,22419220,23582618,22501274,3800,3800,-3701,12805,-4250,2090,-853,1583,112,11,803
145545,23557596,22419292,23583480,22502136,3800,3800,-3678,12387,-4645,1900,-676,1130,112,11,803
146552,23558272,22419384,23584348,22503004,3800,3800,-3673,11829,-5085,1764,-511,856,121,20,802
147546,23558896,22419480,23585210,22503866,3800,3800,-3704,11289,-5496,1673,-584,1094,121,20,802
148547,23559528,22419564,23586072,22504728,3800,3800,-3786,10877,-5871,1171,-345,1584,128,31,801
149548,23560280,22419652,23586934,22505590,3800,3800,-3851,10517,-6242,317,64,1764,128,31,801
150549,23560996,22419744,23587796,22506452,3800,3800,-3902,10118,-6635,-748,441,1795,146,27,804
151550,23561748,22419860,23588658,22507314,3800,3800,-3937,9696,-7003,-1743,396,2171,146,27,804
152551,23562464,22419992,23589520,22508176,3800,3800,-3966,9380,-7283,-2486,253,2452,141,38,806
153552,23563348,22420148,23590382,22509038,3800,3800,-3978,9154,-7427,-3220,-182,2683,141,38,806
154553,23564148,22420300,23591244,22509900,3800,3800,-3963,8936,-7427,-4015,-620,2803,151,39,806
155554,23565012,22420500,23592106,22510762,3800,3800,-3894,8532,-7310,-4800,-1115,2569,151,39,806
156555,23565952,22420684,23592968,22511624,3800,3800,-3746,7939,-7101,-5584,-1545,2247,170,42,807
157556,23566852,22420912,23593830,22512486,3800,3800,-3554,7232,-6804,-6318,-1621,2199,170,42,807
158557,23567808,22421148,23594692,22513348,3800,3800,-3323,6585,-6389,-7058,-1851,2453,168,50,807
159558,23568844,22421380,23595554,22514210,3800,3800,-3086,5754,-5803,-8904,-2321,2186,168,50,807
160559,23569860,22421644,23596416,22515072,3800,3800,-2572,2367,-4423,-19174,-3115,-1573,188,54,808
161560,23570868,22421944,23597278,22515934,3800,3800,-1825,-3961,-2453,-20910,-3855,-3445,188,54,808
162561,23571880,22422288,23598140,22516796,3800,3800,-479,-9064,-687,-16351,-6734,8058,199,75,809
163562,23572904,22422620,23599002,22517658,3800,3800,1648,-9772,541,-10225,-8519,24085,199,75,809
164563,23573928,22422956,23599864,22518520,3800,3800,2488,-7523,1429,-8457,-5901,10225,199,77,809
165573,23575004,22423320,23600732,22519388,3800,3800,2328,-6439,2144,-8642,-5086,5910,199,77,809
166565,23575936,22423660,23601594,22520250,3800,3800,2012,-5849,2855,-8135,-4241,7667,214,80,810
167566,23576852,22424012,23602456,22521112,3800,3800,1920,-5477,3607,-7529,-3674,6615,214,80,810
168567,23577876,22424376,23603318,22521974,3800,3800,1930,-5420,4298,-7297,-3857,5941,210,69,809
169568,23578784,22424732,23604180,22522836,3800,3800,1943,-5422,4969,-7696,-3098,5970,210,69,809
170569,23579652,22425128,23605042,22523698,3800,3800,1899,-5538,5592,-6945,-2293,5452,183,88,809
171570,23580616,22425476,23605904,22524560,3800,3800,1861,-5677,6136,-6545,-1697,4754,183,88,809
172571,23581456,22425840,23606766,22525422,3800,3800,1869,-6410,6678,-6684,-1002,3945,174,80,810
173572,23582364,22426300,23607628,22526284,3800,3800,1941,-7271,7143,-5183,-678,3260,174,80,810
174573,23583216,22426732,23608490,22527146,3800,3800,2048,-8554,7568,-3080,-634,1949,167,90,810
175574,23584172,22427140,23609352,22528008,3800,3800,2246,-9924,8019,-1184,-801,1545,167,90,810
176575,23585044,22427580,23610214,22528870,3800,3800,2462,-11606,8401,580,-770,576,170,88,810
177576,23585960,22428012,23611076,22529732,3800,3800,2668,-13493,8675,2395,-136,73,170,88,810
178577,23586892,22428452,23611938,22530594,3800,3800,2796,-15223,8818,3882,820,220,171,89,810
179578,23587712,22428892,23612800,22531456,3800,3800,2881,-16881,8792,4594,1568,140,171,89,810
180579,23588588,22429380,23613662,22532318,3800,3800,2921,-18466,8622,5075,2037,539,169,102,809
181580,23589492,22429816,23614524,22533180,3800,3800,2980,-19614,8404,5832,1937,1858,169,102,809
182581,23590364,22430304,23615386,22534042,3800,3800,3063,-20079,8182,6130,1494,3075,184,95,810
183582,23591220,22430816,23616248,22534904,3800,3800,3181,-20161,7912,5936,1461,3893,184,95,810
184590,23592192,22431344,23617116,22535772,3800,3800,2977,-19309,7550,6297,2270,7787,188,113,810
185584,23593108,22431904,23617978,22536634,3800,3800,2388,-17476,7015,6512,3354,9420,188,113,810
186585,23594032,22432404,23618840,22537496,3800,3800,2100,-16418,6411,6314,2766,4615,180,96,811
187586,23595080,22432936,23619702,22538358,3800,3800,2201,-16232,5844,6038,1716,3479,180,96,811
188587,23596064,22433516,23620564,22539220,3800,3800,2469,-16218,5331,5875,1911,3477,186,115,811
189588,23597032,22434032,23621426,22540082,3800,3800,2700,-15748,4813,5401,1977,4206,186,115,811
190589,23598184,22434744,23622288,22540944,3800,3800,2923,-14794,4289,4695,1152,4474,179,119,811
191590,23599216,22435320,23623150,22541806,3800,3800,3132,-13631,3818,3892,127,4870,179,119,811
192591,23600308,22436048,23624012,22542668,3800,3800,3330,-12194,3371,2851,-82,5611,186,145,811
193592,23601356,22436696,23624874,22543530,3800,3800,3451,-10533,2916,2008,-242,5980,186,145,811
194593,23602488,22437460,23625736,22544392,3800,3800,3544,-8586,2407,1519,111,6051,186,131,813
195594,23603504,22438228,23626598,22545254,3800,3800,3489,-6434,1992,1399,-276,6845,186,131,813
196595,23604432,22439056,23627460,22546116,3800,3800,3304,-3995,1726,1394,-227,7441,184,140,813
197596,23605496,22439796,23628322,22546978,3800,3800,3057,-1513,1526,1425,426,7294,184,140,813
198597,23606448,22440684,23629184,22547840,3800,3800,2923,573,1190,1600,1078,5677,186,168,813
199598,23607340,22441524,23630046,22548702,3800,3800,2679,2546,990,3125,167,6166,186,168,813
200599,23608388,22442364,23630908,22549564,3800,3800,2373,4328,1094,4149,-403,4890,198,182,813
201600,23609180,22443408,23631770,22550426,3800,3800,2183,5392,1304,4698,-106,2354,198,182,813
202601,23610004,22444264,23632632,22551288,3800,3800,2154,5600,1414,5130,472,154,185,183,812
203609,23610924,22445252,23633500,22552156,3800,3800,2282,5221,1389,5352,878,-1782,185,183,812
204603,23611736,22446316,23634362,22553018,3800,3800,2609,4529,1548,6238,-165,-2821,179,194,815
205604,23612512,22447188,23635224,22553880,3800,3800,2898,4213,1965,6834,15,-1471,179,194,815
206605,23613308,22448240,23636086,22554742,3800,3800,2800,4580,2431,7167,904,880,188,190,815
207606,23614112,22449360,23636948,22555604,3800,3800,2442,5541,2644,6741,1226,1543,188,190,815
208607,23614820,22450340,23637810,22556466,3800,3800,2139,6292,2468,5699,1899,217,165,207,815
209608,23615544,22451316,23638672,22557328,3800,3800,1969,6851,1956,5068,2544,12,165,207,815
210609,23616212,22452248,23639534,22558190,3800,3800,1726,7613,1444,5039,1756,1587,170,196,814
211610,23616868,22453220,23640396,22559052,3800,3800,1357,8741,1080,5344,1062,2492,170,196,814
212611,23617536,22454272,23641258,22559914,3800,3800,1010,9939,676,5951,1500,2200,143,187,813
213612,23618156,22455076,23642120,22560776,3800,3800,761,11160,239,6490,1653,2196,143,187,813
214613,23618728,22455948,23642982,22561638,3800,3800,550,12288,-229,6630,1633,2261,139,186,811
215614,23619304,22456832,23643844,22562500,3800,3800,212,13389,-775,7136,1617,2617,139,186,811
216615,23619900,22457668,23644706,22563362,3800,3800,-142,14684,-1414,7682,1702,2903,128,169,811
217616,23620420,22458476,23645568,22564224,3800,3800,-499,15962,-2160,7635,1721,2564,128,169,811
218617,23620936,22459220,23646430,22565086,3800,3800,-839,16880,-2963,7091,1263,1660,118,163,810
219618,23621496,22459972,23647292,22565948,3800,3800,-1207,17282,-3826,6656,1080,810,118,163,810
220619,23622064,22460704,23648154,22566810,3800,3800,-1647,17450,-4814,6711,412,291,118,140,809
221620,23622580,22461476,23649016,22567672,3800,3800,-2213,17365,-6040,6442,-473,-345,118,140,809
222628,23623256,22462232,23649884,22568540,3800,3800,-2768,16871,-7439,5726,-377,-1645,104,160,809
223622,23623796,22463052,23650746,22569402,3800,3800,-3245,15906,-8851,5389,-298,-2412,104,160,809
224623,23624364,22463916,23651608,22570264,3800,3800,-3711,14889,-10017,5675,-871,-2237,116,164,809
225624,23625032,22464780,23652470,22571126,3800,3800,-4151,13952,-10840,5575,-715,-2151,116,164,809
226625,23625684,22465584,23653332,22571988,3800,3800,-4497,12855,-11519,4579,97,-2927,129,176,810
227626,23626356,22466472,23654194,22572850,3800,3800,-4705,11722,-12164,3525,-127,-2409,129,176,810
228627,23627080,22467280,23655056,22573712,3800,3800,-4863,10781,-12686,2949,-1193,-1938,144,186,810
229628,23627800,22468176,23655918,22574574,3800,3800,-5048,9879,-12994,3121,-2666,-1855,144,186,810
230629,23628560,22469112,23656780,22575436,3800,3800,-5147,8910,-13084,2835,-2667,-1941,152,199,811
231630,23629372,22470032,23657642,22576298,3800,3800,-5163,7866,-13050,1845,-2119,-1697,152,199,811
232631,23630188,22471052,23658504,22577160,3800,3800,-5087,6952,-13001,929,-2031,-1431,161,186,813
233632,23631044,22472068,23659366,22578022,3800,3800,-4985,6029,-12897,-37,-2384,-1295,161,186,813
234633,23631932,22473224,23660228,22578884,3800,3800,-4850,5430,-12672,-1102,-3112,-310,176,196,814
235634,23632936,22474232,23661090,22579746,3800,3800,-4748,5305,-12331,-2837,-3624,1250,176,196,814
236635,23633856,22475268,23661952,22580608,3800,3800,-4617,5578,-11889,-5014,-3999,2439,180,212,815
237636,23634816,22476248,23662814,22581470,3800,3800,-4477,6178,-11374,-6395,-4388,3391,180,212,815
238637,23635868,22477260,23663676,22582332,3800,3800,-4260,7175,-10782,-7663,-4643,3950,214,199,816
239638,23636924,22478228,23664538,22583194,3800,3800,-3985,8039,-10091,-9405,-4789,3834,214,199,816
240640,23637884,22479152,23665400,22584056,3800,3800,-3749,8952,-9354,-11065,-5256,4843,210,201,816
241649,23639000,22479992,23666268,22584924,3800,3800,-3576,10029,-8539,-12551,-5139,5464,210,201,816
242641,23640012,22480756,23667130,22585786,3800,3800,-3367,11059,-7678,-13094,-5667,5046,209,189,815
243642,23640972,22481560,23667992,22586648,3800,3800,-3082,11780,-6717,-13641,-6375,4435,209,189,815
244643,23642020,22482316,23668854,22587510,3800,3800,-2759,12101,-5654,-14131,-6623,3926,210,179,815
245644,23642988,22483040,23669716,22588372,3800,3800,-2485,12084,-4276,-14912,-7079,3532,210,179,815
246645,23643864,22483680,23670578,22589234,3800,3800,-2155,8403,-2678,-26130,-8764,-2570,203,143,813
247646,23644820,22484260,23671440,22590096,3800,3800,-1763,318,-1019,-30319,-10936,-6359,203,143,813
248647,23645656,22484868,23672302,22590958,3800,3800,-1668,-7839,801,-26546,-11283,-2602,189,123,813
249648,23646520,22485408,23673164,22591820,3800,3800,-1823,-12435,2547,-20263,-8924,1374,189,123,813
250649,23647344,22485924,23674026,22592682,3800,3800,-1920,-13915,4237,-16723,-6715,4231,179,113,811
251650,23648112,22486364,23674888,22593544,3800,3800,-1960,-12968,5700,-13328,-4437,7741,179,113,811
252651,23648900,22486764,23675750,22594406,3800,3800,-1954,-12469,6841,-9773,-2092,5209,159,103,809
253652,23649692,22487084,23676612,22595268,3800,3800,-1901,-13410,7629,-5323,-229,2473,159,103,809
254653,23650412,22487364,23677474,22596130,3800,3800,-1732,-15355,8204,-2816,807,1034,149,65,808
255654,23651104,22487600,23678336,22596992,3800,3800,-1232,-18272,8572,-511,1874,1329,149,65,808
256656,23651788,22487812,23679198,22597854,3800,3800,-545,-20984,8679,3159,2848,4627,150,55,805
257656,23652520,22487976,23680060,22598716,3800,3800,-191,-22591,8831,5307,3150,3897,150,55,805
258657,23653152,22488124,23680922,22599578,3800,3800,-135,-23628,8954,8571,3983,7146,137,33,804
259658,23653808,22488212,23681784,22600440,3800,3800,-135,-24252,8885,12149,4657,9233,137,33,804
260666,23654512,22488284,23682652,22601308,3800,3800,-80,-24515,8766,14315,5603,11440,137,22,805
261660,23655212,22488372,23683514,22602170,3800,3800,150,-22386,8466,18337,6174,30504,137,22,805
262661,23655904,22488444,23684376,22603032,3800,3800,1340,-16739,7714,19526,6833,32767,137,27,805
263662,23656652,22488480,23685238,22603894,3800,3800,2389,-14109,6830,13867,6342,17237,137,27,805
264663,23657292,22488540,23686100,22604756,3800,3800,2666,-15451,6093,11942,4999,5469,142,26,804
265664,23657984,22488596,23686962,22605618,3800,3800,2404,-18038,5613,11577,4262,3506,142,26,804
266665,23658672,22488636,23687824,22606480,3800,3800,1728,-18496,5152,10353,3845,9625,140,23,804
267666,23659280,22488676,23688686,22607342,3800,3800,899,-16841,4577,9008,2481,12225,140,23,804
268667,23659900,22488736,23689548,22608204,3800,3800,390,-15199,4024,8199,1479,9227,129,10,803
269668,23660552,22488784,23690410,22609066,3800,3800,138,-14184,3606,7670,1357,8911,129,10,803
270669,23661156,22488820,23691272,22609928,3800,3800,-310,-12887,2920,6979,3234,11373,126,14,802
271670,23661752,22488856,23692134,22610790,3800,3800,-888,-11137,1837,6067,4262,11627,126,14,802
272672,23662468,22488880,23692996,22611652,3800,3800,-1306,-9275,818,5632,2867,10363,128,15,803
273672,23663144,22488940,23693858,22612514,3800,3800,-1729,-7477,282,5869,232,10196,128,15,803
274673,23663900,22489024,23694720,22613376,3800,3800,-2226,-5690,404,5920,-2213,10310,138,13,803
275674,23664736,22489116,23695582,22614238,3800,3800,-2658,-4293,884,5327,-2263,8673,138,13,803
276675,23665596,22489228,23696444,22615100,3800,3800,-2700,-3492,851,3674,296,5621,153,20,804
277676,23666432,22489344,23697306,22615962,3800,3800,-2201,-3759,491,2395,-692,1562,153,20,804
278677,23667272,22489476,23698168,22616824,3800,3800,-1363,-4709,171,934,-2168,-463,146,25,804
279685,23668288,22489620,23699036,22617692,3800,3800,-273,-6135,-198,-530,-920,-2897,146,25,804
280679,23669148,22489764,23699898,22618554,3800,3800,834,-7353,-704,-923,629,-2944,168,42,806
281680,23670016,22489920,23700760,22619416,3800,3800,1684,-7489,-1034,-683,-248,209,168,42,806
282681,23671008,22490072,23701622,22620278,3800,3800,1686,-5031,-580,585,-3076,9347,169,50,807
283682,23671808,22490304,23702484,22621140,3800,3800,1043,-33,524,896,-2858,15567,169,50,807
284683,23672628,22490536,23703346,22622002,3800,3800,825,4549,1154,-999,-535,10641,165,44,807
285684,23673568,22490760,23704208,22622864,3800,3800,1317,7005,1159,-1633,-272,5174,165,44,807
286685,23674296,22491000,23705070,22623726,3800,3800,2208,7855,1005,-1463,-865,1832,170,57,807
287686,23674992,22491232,23705932,22624588,3800,3800,3015,7772,805,-1511,-380,-586,170,57,807
288687,23675768,22491492,23706794,22625450,3800,3800,3586,7480,504,-1825,-265,-975,166,66,807
289688,23676476,22491832,23707656,22626312,3800,3800,3963,7379,205,-1623,-638,-609,166,66,807
290689,23677152,22492132,23708518,22627174,3800,3800,4075,7720,25,-362,-843,758,161,72,806
291690,23677852,22492448,23709380,22628036,3800,3800,3891,8596,304,1398,-2186,2505,161,72,806
292691,23678480,22492812,23710242,22628898,3800,3800,3921,9331,942,1726,-2829,1125,157,66,807
293692,23679108,22493200,23711104,22629760,3800,3800,4166,9542,1512,1630,-2939,168,157,66,807
294693,23679744,22493624,23711966,22630622,3800,3800,4497,9349,2007,2372,-2973,-427,142,79,807
295694,23680392,22494016,23712828,22631484,3800,3800,4576,9241,2278,2866,-1771,368,142,79,807
296695,23680972,22494404,23713690,22632346,3800,3800,4395,9363,2340,3031,-1719,938,128,88,806
297696,23681560,22494876,23714552,22633208,3800,3800,4142,9258,2271,3196,-1808,-146,128,88,806
298704,23682180,22495312,23715420,22634076,3800,3800,3950,8696,2090,3242,-1956,-1051,124,108,808
299698,23682728,22495800,23716282,22634938,3800,3800,3767,7914,1852,3397,-1896,-1075,124,108,808
300699,23683300,22496388,23717144,22635800,3800,3800,3418,7293,1569,3699,-1895,-187,112,105,805
301700,23683928,22496912,23718006,22636662,3800,3800,2929,6820,1250,3888,-1471,-42,112,105,805
302701,23684516,22497516,23718868,22637524,3800,3800,2546,6066,875,4147,-849,-1271,107,108,806
303702,23685088,22498072,23719730,22638386,3800,3800,2243,5230,472,4318,-829,-713,107,108,806
304703,23685716,22498664,23720592,22639248,3800,3800,1861,4771,137,4303,-1561,824,135,111,807
305704,23686320,22499360,23721454,22640110,3800,3800,1401,4595,-103,4295,-2031,1046,135,111,807
306705,23686956,22500032,23722316,22640972,3800,3800,937,4463,-326,3998,-1715,1186,120,131,808
307706,23687624,22500736,23723178,22641834,3800,3800,503,4284,-628,3785,-1110,1315,120,131,808
308707,23688288,22501524,23724040,22642696,3800,3800,36,4079,-993,3692,-991,1404,139,144,809
309708,23688960,22502288,23724902,22643558,3800,3800,-443,3997,-1311,3324,-1278,2072,139,144,809
310709,23689724,22503212,23725764,22644420,3800,3800,-834,4083,-1478,3160,-1616,2065,146,159,809
311710,23690420,22504088,23726626,22645282,3800,3800,-1110,3938,-1648,2824,-1253,1306,146,159,809
312711,23691180,22505008,23727488,22646144,3800,3800,-1284,3723,-1842,2472,-1026,1268,160,176,810
313712,23691952,22505956,23728350,22647006,3800,3800,-1411,3373,-2021,2309,-886,908,160,176,810
314713,23692848,22506892,23729212,22647868,3800,3800,-1530,2980,-2214,2085,-796,823,160,191,813
315714,23693652,22507896,23730074,22648730,3800,3800,-1604,2649,-2388,1616,-359,822,160,191,813
316715,23694520,22508984,23730936,22649592,3800,3800,-1590,2282,-2593,1132,209,362,184,185,813
317725,23695548,22509964,23731804,22650460,3800,3800,-1519,1852,-2805,803,202,207,184,185,813
318717,23696516,22510988,23732666,22651322,3800,3800,-1454,1543,-2929,300,-120,595,197,205,814
319718,23697448,22512100,23733528,22652184,3800,3800,-1430,1541,-2945,-250,-811,1356,197,205,814
320719,23698596,22513104,23734390,22653046,3800,3800,-1439,1820,-2861,-1201,-1557,2014,179,206,815
321720,23699724,22514152,23735252,22653908,3800,3800,-1403,2377,-2687,-2369,-2208,2707,179,206,815
322721,23700736,22515248,23736114,22654770,3800,3800,-1281,3059,-2556,-3504,-2176,2722,213,214,815
323722,23701908,22516280,23736976,22655632,3800,3800,-1055,3709,-2513,-4539,-2366,2445,213,214,815
324723,23702944,22517308,23737838,22656494,3800,3800,-767,4443,-2437,-5392,-3008,2825,214,226,815
325724,23704004,22518300,23738700,22657356,3800,3800,-460,5360,-2246,-6007,-3454,3176,214,226,815
326725,23705152,22519268,23739562,22658218,3800,3800,-125,6125,-1952,-6563,-3841,2850,211,226,817
327726,23706228,22520360,23740424,22659080,3800,3800,244,6844,-1583,-6834,-4078,2978,211,226,817
328727,23707196,22521512,23741286,22659942,3800,3800,583,7446,-1186,-7021,-3936,2646,218,215,816
329728,23708324,22522624,23742148,22660804,3800,3800,905,7832,-760,-6988,-4136,2073,218,215,816
330729,23709284,22523728,23743010,22661666,3800,3800,1148,7998,-328,-6465,-4200,1485,233,216,816
331730,23710272,22524788,23743872,22662528,3800,3800,1319,7859,120,-5498,-3540,496,233,216,816
332731,23711212,22525916,23744734,22663390,3800,3800,1459,7354,489,-4757,-2116,-497,212,213,817
333732,23712292,22527116,23745596,22664252,3800,3800,1600,6521,711,-4369,-1654,-1399,212,213,817
334733,23713272,22528116,23746458,22665114,3800,3800,1701,5527,786,-4250,-1987,-1670,204,207,816
335734,23714284,22529108,23747320,22665976,3800,3800,1602,4571,698,-4575,-1665,-1419,204,207,816
336742,23715432,22530264,23748188,22666844,3800,3800,1434,3734,483,-4650,-897,-1264,206,209,817
337736,23716548,22531276,23749050,22667706,3800,3800,1172,2799,236,-4139,179,-1361,206,209,817
338737,23717616,22532396,23749912,22668568,3800,3800,909,1644,-2,-3178,923,-2151,221,198,817
339738,23718788,22533592,23750774,22669430,3800,3800,500,154,-236,-2166,1106,-2524,221,198,817
340739,23719880,22534740,23751636,22670292,3800,3800,241,-1526,-411,-1548,319,-3180,235,217,818
341740,23720908,22535896,23752498,22671154,3800,3800,94,-3517,-403,-1073,-572,-3605,235,217,818
342741,23722088,22537060,23753360,22672016,3800,3800,25,-5534,-258,-553,-1236,-3741,204,243,818
343742,23723124,22538136,23754222,22672878,3800,3800,-45,-7464,-36,-79,-544,-3613,204,243,818
344743,23724092,22539464,23755084,22673740,3800,3800,-183,-9344,245,493,64,-3202,204,262,817
345744,23725288,22540672,23755946,22674602,3800,3800,-394,-10763,638,1630,-646,-1058,204,262,817
346745,23726340,22541824,23756808,22675464,3800,3800,-770,-11211,1063,2547,-318,1959,213,251,817
347746,23727428,22542968,23757670,22676326,3800,3800,-1096,-11587,1547,2951,-70,584,213,251,817
348747,23728724,22544040,23758532,22677188,3800,3800,-1466,-12247,2038,3757,617,575,217,231,818
349748,23729928,22545132,23759394,22678050,3800,3800,-1899,-12845,2489,4074,1505,1009,217,231,818
350749,23731032,22546072,23760256,22678912,3800,3800,-2165,-13556,2725,3810,2372,174,209,205,818
351750,23732228,22546988,23761118,22679774,3800,3800,-2414,-13581,2844,3576,2206,3343,209,205,818
352751,23733528,22547852,23761980,22680636,3800,3800,-2648,-12926,2993,2849,1853,4583,211,194,817
353752,23734684,22548612,23762842,22681498,3800,3800,-2845,-11880,3089,2601,2203,5044,211,194,817
354753,23735828,22549312,23763704,22682360,3800,3800,-3127,-10520,3089,3078,3103,6393,206,171,816
355761,23736956,22550040,23764572,22683228,3800,3800,-3456,-9020,3137,3360,3130,7355,206,171,816
356755,23737996,22550640,23765434,22684090,3800,3800,-3850,-7248,3165,3016,2776,8131,220,144,813
357756,23739020,22551144,23766296,22684952,3800,3800,-4235,-5516,3132,2574,2659,8075,220,144,813
358757,23740012,22551600,23767158,22685814,3800,3800,-4522,-3849,3064,2117,3382,7969,195,101,812
359758,23740852,22551992,23768020,22686676,3800,3800,-4789,-2236,2907,1574,4088,7750,195,101,812
360759,23741740,22552344,23768882,22687538,3800,3800,-5027,-903,2714,1430,4445,6973,191,88,811
361760,23742684,22552584,23769744,22688400,3800,3800,-5254,238,2581,1587,4917,6597,191,88,811
362761,23743496,22552784,23770606,22689262,3800,3800,-5557,1016,2298,1466,6427,5596,174,60,809
363762,23744248,22552968,23771468,22690124,3800,3800,-5864,1556,1897,1618,6444,5316,174,60,809
364763,23745044,22553096,23772330,22690986,3800,3800,-6143,1781,1234,975,7602,4022,164,40,807
365764,23745740,22553212,23773192,22691848,3800,3800,-6514,1351,157,179,9047,1931,164,40,807
366765,23746328,22553328,23774054,22692710,3800,3800,-7045,639,-1139,111,9850,1436,148,37,804
367766,23746948,22553408,23774916,22693572,3800,3800,-7629,-254,-2407,110,9670,1171,148,37,804
368767,23747472,22553508,23775778,22694434,3800,3800,-8162,-1114,-3402,582,7125,2189,132,20,803
369768,23747932,22553616,23776640,22695296,3800,3800,-4833,4373,-3295,74,-3616,32767,132,20,803
370769,23748392,22553672,23777502,22696158,3800,3800,2728,17816,-2128,43,-9012,32767,91,31,803
371770,23748776,22553720,23778364,22697020,3800,3800,7041,21916,-1798,4021,3886,2372,91,31,803
372771,23749112,22553784,23779226,22697882,3800,3800,6965,17195,-2163,5061,6194,-7940,76,18,800
373772,23749400,22553872,23780088,22698744,3800,3800,5691,10014,-2557,6371,4908,-9827,76,18,800
374780,23749692,22554000,23780956,22699612,3800,3800,4973,4536,-2584,7015,3513,-8300,66,32,801
375774,23749948,22554104,23781818,22700474,3800,3800,4549,1336,-1989,7146,1982,-4396,66,32,801
376775,23750180,22554184,23782680,22701336,3800,3800,2786,837,-374,8363,-2830,5099,42,30,800
377776,23750428,22554264,23783542,22702198,3800,3800,1101,1602,1247,8618,-2226,19263,42,30,800
378777,23750668,22554380,23784404,22703060,3800,3800,3085,1566,1737,8213,2395,32767,44,32,799
379778,23750912,22554484,23785266,22703922,3800,3800,4459,1644,1526,5658,3142,19691,44,32,799
380779,23751176,22554596,23786128,22704784,3800,3800,2983,1735,421,4080,7986,6800,54,32,800
381780,23751464,22554692,23786990,22705646,3800,3800,300,2433,-1293,2876,10286,7706,54,32,800
382781,23751764,22554764,23787852,22706508,3800,3800,-1636,2432,-2758,2065,8780,3462,66,15,800
383782,23752080,22554788,23788714,22707370,3800,3800,-2325,1028,-3608,1186,6718,837,66,15,800
384783,23752428,22554848,23789576,22708232,3800,3800,-2508,-263,-4014,538,5144,2795,76,11,800
385784,23752812,22554892,23790438,22709094,3800,3800,-2748,-938,-4228,-398,3802,4062,76,11,800
386785,23753188,22554952,23791300,22709956,3800,3800,-3166,-987,-4410,-1327,2141,5575,65,13,800
387786,23753620,22555016,23792162,22710818,3800,3800,-3594,-681,-4556,-2281,969,6148,65,13,800
388787,23754072,22555000,23793024,22711680,3800,3800,-3929,-393,-4778,-3161,1019,6062,70,7,799
389788,23754524,22555000,23793886,22712542,3800,3800,-4138,-133,-5114,-3610,1396,5989,70,7,799
390789,23755048,22555036,23794748,22713404,3800,3800,-4256,-16,-5464,-4019,1324,5478,80,18,799
391790,23755560,22555104,23795610,22714266,3800,3800,-4415,138,-5714,-4223,504,5829,80,18,799
392791,23756100,22555160,23796472,22715128,3800,3800,-4708,610,-5736,-4327,-984,6962,105,16,799
393801,23756728,22555228,23797340,22715996,3800,3800,-5089,1351,-5405,-4574,-3087,7778,105,16,799
394793,23757352,22555344,23798202,22716858,3800,3800,-5477,2276,-4794,-4442,-4678,8040,120,30,802
395794,23757972,22555460,23799064,22717720,3800,3800,-5735,3016,-4155,-4503,-4168,7268,120,30,802
396795,23758688,22555612,23799926,22718582,3800,3800,-5820,3309,-3752,-4974,-3080,5853,115,36,803
397796,23759364,22555820,23800788,22719444,3800,3800,-5665,2464,-3491,-6306,-2271,3244,115,36,803
398797,23760052,22556024,23801650,22720306,3800,3800,-5320,524,-3144,-6941,-2736,1685,152,38,805
399798,23760880,22556284,23802512,22721168,3800,3800,-4992,-1336,-2809,-5592,-3409,2334,152,38,805
400799,23761672,22556564,23803374,22722030,3800,3800,-4684,-2315,-2486,-4114,-3063,3290,138,67,804
401800,23762500,22556820,23804236,22722892,3800,3800,-4378,-2842,-2108,-3359,-3112,3011,138,67,804
402801,23763428,22557144,23805098,22723754,3800,3800,-4005,-3724,-1724,-3101,-4126,1945,161,70,806
403802,23764324,22557528,23805960,22724616,3800,3800,-3615,-4900,-1298,-3392,-4933,2365,161,70,806
404803,23765220,22557896,23806822,22725478,3800,3800,-3178,-5858,-920,-3252,-5072,2786,166,81,808
405804,23766160,22558364,23807684,22726340,3800,3800,-2711,-6669,-620,-3125,-5674,2754,166,81,808
406805,23767132,22558864,23808546,22727202,3800,3800,-2178,-7330,-327,-3747,-5946,3252,156,90,809
407807,23768096,22559344,23809408,22728064,3800,3800,-1568,-7966,-32,-3929,-6050,3466,156,90,809
408807,23768980,22559804,23810270,22728926,3800,3800,-999,-8376,235,-3610,-5745,4490,179,108,808
409808,23770032,22560400,23811132,22729788,3800,3800,-385,-8400,582,-3449,-5626,5022,179,108,808
410809,23770932,22560984,23811994,22730650,3800,3800,191,-8399,1037,-3273,-6178,5216,184,118,809
411810,23771880,22561712,23812856,22731512,3800,3800,859,-8356,1482,-3185,-6141,5140,184,118,809
412818,23772872,22562428,23813724,22732380,3800,3800,1583,-8419,1943,-2652,-6016,4713,206,145,810
413812,23773748,22563228,23814586,22733242,3800,3800,2403,-8616,2391,-2200,-6141,3900,206,145,810
414813,23774612,22563944,23815448,22734104,3800,3800,3171,-8912,2818,-2111,-6051,4115,211,150,812
415814,23775576,22564752,23816310,22734966,3800,3800,3861,-8937,3277,-1758,-6055,4354,211,150,812
416815,23776412,22565684,23817172,22735828,3800,3800,4510,-8932,3676,-1344,-5203,3828,174,175,813
417816,23777292,22566588,23818034,22736690,3800,3800,5142,-8891,3987,-1300,-4164,3816,174,175,813
418817,23778224,22567636,23818896,22737552,3800,3800,5778,-8804,4261,-1408,-3491,3669,198,185,813
419818,23779120,22568532,23819758,22738414,3800,3800,6306,-8693,4525,-1089,-2951,3795,198,185,813
420819,23780044,22569652,23820620,22739276,3800,3800,6818,-8389,4811,-922,-2437,3709,187,198,813
421820,23781028,22570660,23821482,22740138,3800,3800,7237,-8161,5084,-767,-2238,3076,187,198,813
422821,23781972,22571860,23822344,22741000,3800,3800,7687,-8212,5260,-399,-2203,1736,203,211,813
423822,23782904,22572968,23823206,22741862,3800,3800,8084,-8492,5388,86,-2042,922,203,211,813
424823,23783988,22574048,23824068,22742724,3800,3800,8455,-8818,5485,704,-2113,80,204,213,815
425824,23784912,22575108,23824930,22743586,3800,3800,8749,-9147,5537,921,-2076,-198,204,213,815
426825,23785832,22576256,23825792,22744448,3800,3800,8980,-9299,5614,797,-2313,272,201,215,815
427826,23786788,22577588,23826654,22745310,3800,3800,9147,-9074,5766,646,-3106,1218,201,215,815
428827,23787836,22578668,23827516,22746172,3800,3800,9169,-8138,5997,469,-3714,2825,202,233,816
429828,23788804,22579808,23828378,22747034,3800,3800,9091,-6747,6287,73,-3872,3374,202,233,816
430829,23789780,22580844,23829240,22747896,3800,3800,8857,-5228,6499,419,-3640,3340,198,237,816
431837,23790916,22581928,23830108,22748764,3800,3800,8582,-3703,6588,275,-3183,2840,198,237,816
432831,23791992,22583056,23830970,22749626,3800,3800,8156,-2225,6602,215,-3117,2694,211,212,815
433832,23793008,22584180,23831832,22750488,3800,3800,7667,-684,6630,266,-3524,2435,211,212,815
434833,23794176,22585196,23832694,22751350,3800,3800,7019,1146,6804,997,-2970,3460,204,215,815
435834,23795332,22586164,23833556,22752212,3800,3800,6029,3362,7128,3357,-2064,3784,204,215,815
436835,23796396,22587360,23834418,22753074,3800,3800,5365,4042,7138,3728,-2112,-2592,218,215,817
437836,23797604,22588632,23835280,22753936,3800,3800,5277,3716,6907,4494,-1877,-4396,218,215,817
438837,23798696,22589900,23836142,22754798,3800,3800,5240,2615,6528,5243,-1490,-6006,212,227,818
439838,23799832,22591096,23837004,22755660,3800,3800,5250,1298,6004,5496,-952,-7478,212,227,818
440839,23801036,22592180,23837866,22756522,3800,3800,5039,-149,5471,6268,-861,-7149,214,234,818
441840,23802068,22593184,23838728,22757384,3800,3800,4784,-774,4975,6938,-1093,-5769,214,234,818
442841,23803100,22594188,23839590,22758246,3800,3800,4367,-1048,4527,6554,-878,-5046,214,212,816
443842,23804180,22595364,23840452,22759108,3800,3800,3861,-1068,4152,7329,-813,-4184,214,212,816
444843,23805184,22596520,23841314,22759970,3800,3800,3320,-1060,3812,7865,-450,-4622,214,207,815
445844,23806080,22597732,23842176,22760832,3800,3800,3020,-1398,3214,7729,1719,-6443,214,207,815
446845,23806988,22598832,23843038,22761694,3800,3800,2819,-2219,2366,7413,2654,-7176,214,216,816
447846,23808008,22600020,23843900,22762556,3800,3800,2729,-3072,1508,6650,3053,-6892,214,216,816
448847,23808964,22601168,23844762,22763418,3800,3800,2126,-3072,80,6595,3341,-3937,220,234,817
449848,23809880,22602280,23845624,22764280,3800,3800,1458,-2026,-610,5404,3676,-1790,220,234,817
450856,23810924,22603544,23846492,22765148,3800,3800,801,-901,-1435,3294,3254,-2395,217,248,817
451850,23811840,22604724,23847354,22766010,3800,3800,206,482,-2359,2614,3107,-954,217,248,817
452851,23812768,22605928,23848216,22766872,3800,3800,-270,2308,-3056,3330,1532,-281,217,251,817
453852,23813744,22607016,23849078,22767734,3800,3800,-584,4352,-3533,4359,1441,-503,217,251,817
454853,23814588,22608040,23849940,22768596,3800,3800,-885,6183,-3869,5327,612,-759,193,238,816
455854,23815408,22609084,23850802,22769458,3800,3800,-1116,7425,-4106,4782,368,-1893,193,238,816
456855,23816292,22610020,23851664,22770320,3800,3800,-1288,7908,-4493,4849,841,-3137,179,205,815
457856,23817060,22610884,23852526,22771182,3800,3800,-1516,8073,-5001,5468,1270,-3180,179,205,815
458857,23817812,22611624,23853388,22772044,3800,3800,-1775,8553,-5375,6194,179,-2295,161,193,813
459858,23818608,22612364,23854250,22772906,3800,3800,-2124,8894,-5654,6316,259,-2701,161,193,813
460859,23819348,22613072,23855112,22773768,3800,3800,-2516,8804,-5951,6344,735,-3302,160,165,811
461860,23820052,22613696,23855974,22774630,3800,3800,-2884,8316,-6446,6549,1904,-4300,160,165,811
462861,23820852,22614220,23856836,22775492,3800,3800,-3234,7253,-7338,6343,3720,-5964,152,134,810
463862,23821564,22614724,23857698,22776354,3800,3800,-3586,5773,-8397,6128,3692,-6098,152,134,810
465864,23823012,22615568,23859422,22778078,3800,3800,-4636,4092,-9935,4925,274,-1762,146,112,808
466865,23823840,22615956,23860284,22778940,3800,3800,-5265,4199,-10524,3949,-659,-1067,161,100,807
467866,23824588,22616276,23861146,22779802,3800,3800,-5744,4081,-11160,2865,-741,-1765,161,100,807
468867,23825412,22616556,23862008,22780664,3800,3800,-6201,3828,-11826,2295,-616,-1012,150,78,807
469877,23826272,22616780,23862876,22781532,3800,3800,-6766,3734,-12476,2039,106,-48,150,78,807
470869,23827080,22616992,23863738,22782394,3800,3800,-7526,3723,-13157,1807,1178,363,142,65,806
471870,23827924,22617200,23864600,22783256,3800,3800,-8269,3514,-13841,1722,1371,-318,142,65,806
472871,23828876,22617384,23865462,22784118,3800,3800,-8845,3038,-14403,1734,831,-532,165,47,806
473872,23829760,22617556,23866324,22784980,3800,3800,-9245,2369,-14722,1820,-260,-627,165,47,806
474873,23830672,22617732,23867186,22785842,3800,3800,-9530,1639,-14799,1652,-878,-219,154,50,806
475874,23831600,22617912,23868048,22786704,3800,3800,-9797,1083,-14644,945,-1355,653,154,50,806
476875,23832472,22618080,23868910,22787566,3800,3800,-10088,671,-14293,-61,-1510,1218,170,45,805
477876,23833356,22618288,23869772,22788428,3800,3800,-10424,256,-13764,-1216,-1521,1764,170,45,805
478877,23834300,22618512,23870634,22789290,3800,3800,-10749,-179,-13062,-1992,-1680,2205,172,47,805
479878,23835224,22618744,23871496,22790152,3800,3800,-11051,-625,-12192,-2844,-2082,2472,172,47,805
480879,23836084,22618988,23872358,22791014,3800,3800,-11394,-1089,-11224,-5085,-2163,3214,180,57,806
481880,23837032,22619272,23873220,22791876,3800,3800,-11555,-3898,-9451,-17718,-2107,179,180,57,806
482881,23837896,22619584,23874082,22792738,3800,3800,-4906,-10845,-5079,-32768,-11004,32767,166,55,807
483882,23838704,22619928,23874944,22793600,3800,3800,7149,-9905,1318,-30161,-17998,32767,166,55,807
484883,23839620,22620252,23875806,22794462,3800,3800,6142,3998,5127,-8898,-7681,32767,168,75,807
485884,23840392,22620572,23876668,22795324,3800,3800,-1263,13839,5818,-12235,-2686,19839,168,75,807
486885,23841128,22620872,23877530,22796186,3800,3800,-4733,12918,5063,-11663,1159,-2373,174,63,807
487886,23841840,22621160,23878392,22797048,3800,3800,-3868,6901,4414,-8162,3339,-6129,174,63,807
488894,23842576,22621512,23879260,22797916,3800,3800,-1826,755,4480,-6576,2434,-8994,163,80,806
489888,23843232,22621804,23880122,22798778,3800,3800,-753,-4185,5084,-5313,1183,-6949,163,80,806
490889,23843840,22622080,23880984,22799640,3800,3800,-541,-7103,6056,-2208,127,-2483,135,75,806
491890,23844512,22622344,23881846,22800502,3800,3800,-842,-9257,7320,1505,-1589,-1312,135,75,806
492891,23845056,22622616,23882708,22801364,3800,3800,-1025,-11333,8547,3730,-2678,-1312,123,51,805
493892,23845596,22622900,23883570,22802226,3800,3800,-1153,-14078,9693,4766,-2644,-2483,123,51,805
494893,23846128,22623148,23884432,22803088,3800,3800,-1292,-16793,10604,7451,-1396,-1568,121,65,803
495894,23846648,22623384,23885294,22803950,3800,3800,-1594,-18928,11242,8895,-1326,-533,121,65,803
496895,23847136,22623612,23886156,22804812,3800,3800,-1874,-20478,11591,7998,-887,1092,90,51,803
497896,23847736,22623856,23887018,22805674,3800,3800,-1970,-21735,11581,7736,-91,2045,90,51,803
498897,23848268,22624084,23887880,22806536,3800,3800,-2061,-21987,11258,8057,1521,5834,91,55,803
499898,23848804,22624316,23888742,22807398,3800,3800,-2299,-20892,10691,8187,3795,9048,91,55,803
500899,23849412,22624504,23889604,22808260,3800,3800,-2755,-19063,9912,7724,3649,10707,113,53,802
501901,23849996,22624720,23890466,22809122,3800,3800,-3262,-16486,9040,5765,2541,13043,113,53,802
502901,23850616,22624920,23891328,22809984,3800,3800,-3566,-13883,8507,4561,-471,12656,127,51,803
503902,23851276,22625104,23892190,22810846,3800,3800,-3508,-11377,8237,3929,-2052,12025,127,51,803
504903,23851964,22625332,23893052,22811708,3800,3800,-3107,-9233,7861,1967,-1178,10441,136,51,804
505904,23852648,22625608,23893914,22812570,3800,3800,-2347,-7645,7247,457,-1035,8550,136,51,804
506905,23853368,22625896,23894776,22813432,3800,3800,-1605,-6039,6433,39,-1668,8959,122,67,805
507913,23854132,22626164,23895644,22814300,3800,3800,-1053,-4005,5637,-26,-1347,9586,122,67,805
508907,23854888,22626456,23896506,22815162,3800,3800,-586,-1785,4901,189,-1490,8840,135,71,806
509908,23855664,22626804,23897368,22816024,3800,3800,-64,53,4177,270,-1485,7087,135,71,806
510909,23856540,22627196,23898230,22816886,3800,3800,612,1513,3559,235,-1718,6032,168,60,805
511910,23857364,22627572,23899092,22817748,3800,3800,1374,2726,3042,1006,-2190,4774,168,60,805
512911,23858220,22627988,23899954,22818610,3800,3800,2199,3460,2534,1687,-1655,2873,166,92,806
513912,23859196,22628476,23900816,22819472,3800,3800,3076,3833,2081,1892,-1951,1773,166,92,806
514913,23860152,22628936,23901678,22820334,3800,3800,3937,3832,1638,1794,-2663,597,161,83,808
515914,23861072,22629392,23902540,22821196,3800,3800,4733,3568,1192,1524,-2730,-274,161,83,808
516915,23862200,22629976,23903402,22822058,3800,3800,5383,3172,869,1585,-2888,-734,179,91,808
517916,23863192,22630488,23904264,22822920,3800,3800,5824,2682,700,1914,-3039,-1390,179,91,808
518917,23864188,22631128,23905126,22823782,3800,3800,6066,2201,631,2126,-3160,-1287,177,113,810
519918,23865296,22631780,23905988,22824644,3800,3800,6298,1793,579,1904,-3035,-1571,177,113,810
520919,23866256,22632496,23906850,22825506,3800,3800,6605,1057,459,1440,-3201,-2405,179,146,810
521920,23867236,22633300,23907712,22826368,3800,3800,6913,399,388,1562,-3576,-1826,179,146,810
522921,23868264,22634144,23908574,22827230,3800,3800,7068,-1,441,1858,-3279,-1087,204,143,811
523922,23869204,22634912,23909436,22828092,3800,3800,6989,70,624,2415,-3249,204,204,143,811
524923,23870232,22635780,23910298,22828954,3800,3800,6747,471,888,2343,-3152,873,180,162,812
525924,23871152,22636644,23911160,22829816,3800,3800,6453,1004,1131,1876,-2721,1404,187,182,813
526932,23872040,22637648,23912028,22830684,3800,3800,6216,1475,1189,1479,-1742,1034,187,182,813
527926,23872904,22638604,23912890,22831546,3800,3800,6045,1729,1100,1440,-629,321,192,181,813
528927,23873784,22639488,23913752,22832408,3800,3800,5835,1809,997,1743,-41,221,192,181,813
529928,23874676,22640436,23914614,22833270,3800,3800,5597,2121,1084,2186,-202,879,194,177,813
530929,23875536,22641444,23915476,22834132,3800,3800,5366,2724,1394,2169,-598,1683,194,177,813
531930,23876384,22642496,23916338,22834994,3800,3800,5140,3799,1805,2101,-1087,2835,208,205,813
532931,23877308,22643520,23917200,22835856,3800,3800,4858,4983,2212,2080,-751,2846,208,205,813
533932,23878092,22644588,23918062,22836718,3800,3800,4551,5955,2361,2006,912,1954,197,195,813
534933,23878916,22645640,23918924,22837580,3800,3800,4150,6657,2142,2379,2705,1293,197,195,813
535935,23879788,22646520,23919786,22838442,3800,3800,3784,6874,1693,2905,3674,-195,159,216,814
536935,23880604,22647532,23920648,22839304,3800,3800,3417,6695,1156,3465,4009,-1282,159,216,814
537936,23881352,22648716,23921510,22840166,3800,3800,3038,6395,659,4148,3911,-1383,152,205,814
538937,23882192,22649636,23922372,22841028,3800,3800,2546,6163,375,4992,2318,-1055,152,205,814
539938,23882948,22650684,23923234,22841890,3800,3800,2017,6096,252,5682,1649,-616,151,222,813
540939,23883688,22651756,23924096,22842752,3800,3800,1508,6069,125,6092,2188,-835,151,222,813
541940,23884496,22652936,23924958,22843614,3800,3800,1108,5819,-102,6381,2628,-1583,170,232,813
542941,23885288,22654124,23925820,22844476,3800,3800,759,5420,-437,6606,3114,-1673,170,232,813
543942,23886064,22655276,23926682,22845338,3800,3800,411,5104,-836,6425,3777,-1373,176,221,813
544943,23886928,22656360,23927544,22846200,3800,3800,-33,5095,-1229,6077,3364,-475,176,221,813
545953,23887752,22657356,23928412,22847068,3800,3800,-492,5441,-1648,5299,3139,267,163,201,813
546945,23888592,22658328,23929274,22847930,3800,3800,-963,6025,-2152,4302,2517,674,163,201,813
547946,23889476,22659372,23930136,22848792,3800,3800,-1448,6587,-2944,3165,2017,264,183,217,814
548947,23890428,22660492,23930998,22849654,3800,3800,-1867,6863,-4080,1945,2778,-699,183,217,814
549948,23891324,22661540,23931860,22850516,3800,3800,-2229,6961,-5235,1516,2185,-585,193,207,814
550949,23892260,22662664,23932722,22851378,3800,3800,-2632,7366,-6141,1662,164,469,193,207,814
551950,23893332,22663744,23933584,22852240,3800,3800,-3039,8121,-6727,1134,-792,1043,205,212,814
552951,23894352,22664868,23934446,22853102,3800,3800,-3327,8851,-7213,550,-1101,447,205,212,814
553952,23895456,22665960,23935308,22853964,3800,3800,-3462,9092,-7769,206,-277,-1231,209,234,815
554953,23896616,22667256,23936170,22854826,3800,3800,-3407,8737,-8261,19,635,-2505,209,234,815
555954,23897728,22668468,23937032,22855688,3800,3800,-3367,8178,-8630,175,-15,-2733,223,242,816
556955,23898844,22669512,23937894,22856550,3800,3800,-3390,7718,-8702,-392,-944,-2257,223,242,816
557956,23900044,22670764,23938756,22857412,3800,3800,-3408,7368,-8450,-763,-2349,-2007,209,260,818
558957,23901152,22671968,23939618,22858274,3800,3800,-3318,6868,-8101,-881,-2638,-2530,209,260,818
559958,23902232,22673268,23940480,22859136,3800,3800,-3131,6194,-7636,-1422,-2520,-2383,210,259,818
560959,23903340,22674448,23941342,22859998,3800,3800,-2927,5693,-7072,-2253,-2084,-1560,210,259,818
561960,23904364,22675556,23942204,22860860,3800,3800,-2742,5303,-6440,-3883,-2053,-1173,236,245,818
562961,23905384,22676612,23943066,22861722,3800,3800,-2534,5025,-5738,-5570,-2302,-390,236,245,818
563962,23906484,22677600,23943928,22862584,3800,3800,-2345,5105,-5092,-6160,-2568,494,203,239,815
564970,23907400,22678556,23944796,22863452,3800,3800,-2181,5401,-4512,-6696,-2832,788,203,239,815
565964,23908372,22679596,23945658,22864314,3800,3800,-2071,5767,-3895,-7404,-3303,1308,212,203,814
566965,23909288,22680400,23946520,22865176,3800,3800,-2007,6078,-3227,-7958,-3749,1552,212,203,814
567967,23910316,22681220,23947382,22866038,3800,3800,-1914,6364,-2507,-8628,-3751,1779,177,178,814
568967,23911248,22681956,23948244,22866900,3800,3800,-1787,6766,-1856,-9160,-3503,2137,177,178,814
569968,23912116,22682632,23949106,22867762,3800,3800,-1699,7039,-1288,-9353,-3471,1877,195,148,812
570969,23913108,22683300,23949968,22868624,3800,3800,-1618,6973,-823,-8997,-2851,1133,195,148,812
571970,23914064,22683856,23950830,22869486,3800,3800,-1649,6466,-564,-8368,-1574,481,174,112,811
572971,23914968,22684368,23951692,22870348,3800,3800,-1852,5880,-632,-7955,158,944,174,112,811
573972,23915852,22684812,23952554,22871210,3800,3800,-2259,5162,-857,-7386,316,944,179,94,809
574973,23916676,22685192,23953416,22872072,3800,3800,-2629,3955,-914,-6471,-81,-744,179,94,809
575974,23917444,22685500,23954278,22872934,3800,3800,-2955,2337,-814,-5616,324,-1013,160,74,807
576975,23918260,22685748,23955140,22873796,3800,3800,-3301,616,-606,-4909,1051,-844,160,74,807
577976,23919028,22685912,23956002,22874658,3800,3800,-3699,-1393,-296,-3647,1226,-1305,142,36,805
578977,23919660,22686020,23956864,22875520,3800,3800,-4102,-3692,80,-2097,1925,-1764,142,36,805
579978,23920456,22686104,23957726,22876382,3800,3800,-4401,-6703,658,-5062,2628,-2392,148,15,804
580979,23921072,22686144,23958588,22877244,3800,3800,-4412,-11261,1610,-8475,2792,-3591,148,15,804
581980,23921684,22686128,23959450,22878106,3800,3800,-4397,-16171,2610,-5404,2285,-2032,132,14,802
582981,23922384,22686124,23960312,22878968,3800,3800,-4799,-18884,3304,-171,1057,2218,132,14,802
583989,23922924,22686124,23961180,22879836,3800,3800,-6029,-18730,3884,2391,-1533,7343,119,2,802
584983,23923540,22686144,23962042,22880698,3800,3800,-8362,-17032,4366,2232,-3840,16237,119,2,802
585984,23924156,22686160,23962904,22881560,3800,3800,-10722,-15054,3969,10658,677,29702,122,3,800
586985,23924868,22686180,23963766,22882422,3800,3800,-8430,-18851,2672,28204,5442,32767,122,3,800
587986,23925508,22686180,23964628,22883284,3800,3800,-4708,-22115,1449,23779,-3155,32767,134,16,801
588987,23926240,22686188,23965490,22884146,3800,3800,-4518,-20518,1347,5937,-2601,26138,134,16,801
589988,23927080,22686220,23966352,22885008,3800,3800,-5990,-17920,1566,2601,851,11659,150,12,802
590989,23927920,22686236,23967214,22885870,3800,3800,-6891,-17095,1479,3140,2016,9957,150,12,802
591990,23928760,22686268,23968076,22886732,3800,3800,-5802,-14527,1244,1333,3385,30517,156,17,803
592991,23929796,22686300,23968938,22887594,3800,3800,-3862,-12339,768,1337,5367,17088,156,17,803
593992,23930680,22686308,23969800,22888456,3800,3800,-2969,-11809,107,1277,5009,4674,167,18,804
594993,23931516,22686340,23970662,22889318,3800,3800,-2852,-12034,-452,-800,5232,5608,167,18,804
595994,23932480,22686368,23971524,22890180,3800,3800,-2874,-11799,-931,-1245,4740,6666,169,10,804
596995,23933316,22686420,23972386,22891042,3800,3800,-2696,-10881,-1316,-1125,3415,6516,169,10,804
597996,23934156,22686464,23973248,22891904,3800,3800,-2243,-9712,-1508,-2480,2771,6348,155,19,804
598997,23934980,22686492,23974110,22892766,3800,3800,-1679,-8824,-1649,-3589,1813,5257,155,19,804
599998,23935848,22686516,23974972,22893628,3800,3800,-1134,-8336,-1935,-4589,2476,4810,162,12,803
600999,23936520,22686592,23975834,22894490,3800,3800,-750,-7356,-2268,-4675,3463,6593,162,12,803
602000,23937276,22686676,23976696,22895352,3800,3800,-486,-5734,-2253,-3423,1283,7074,135,21,804
603008,23937980,22686772,23977564,22896220,3800,3800,-60,-4419,-1914,-4156,-132,5702,135,21,804
604002,23938648,22686888,23978426,22897082,3800,3800,495,-3425,-1441,-4437,-691,5540,153,28,804
605003,23939352,22686980,23979288,22897944,3800,3800,1119,-2530,-1018,-3641,-1424,4354,153,28,804
606004,23939984,22687076,23980150,22898806,3800,3800,1741,-1567,-433,-3010,-2761,4324,149,23,804
607005,23940576,22687228,23981012,22899668,3800,3800,2249,-241,453,-2503,-4942,5830,149,23,804
608006,23941172,22687360,23981874,22900530,3800,3800,2410,1547,1399,-1925,-6247,7656,137,32,803
609007,23941820,22687480,23982736,22901392,3800,3800,2571,3537,2166,-1434,-5666,6987,137,32,803
610008,23942392,22687648,23983598,22902254,3800,3800,2910,4754,2631,-800,-4670,4064,123,44,802
611009,23942928,22687792,23984460,22903116,3800,3800,3340,5055,2839,-275,-4059,2279,123,44,802
612010,23943548,22687932,23985322,22903978,3800,3800,3685,5185,2994,335,-3811,2574,115,47,803
613011,23944108,22688088,23986184,22904840,3800,3800,3967,5287,3147,1590,-3761,1563,115,47,803
614012,23944692,22688280,23987046,22905702,3800,3800,4211,5260,3318,2524,-4163,1096,119,50,803
615013,23945272,22688524,23987908,22906564,3800,3800,4417,5164,3516,2744,-4267,1409,119,50,803
616014,23945844,22688728,23988770,22907426,3800,3800,4591,5043,3696,3069,-4078,1337,126,51,803
617015,23946420,22688932,23989632,22908288,3800,3800,4713,4845,3786,3511,-3543,1213,126,51,803
618016,23947048,22689152,23990494,22909150,3800,3800,4749,4647,3780,4249,-3045,1365,118,60,803
619017,23947584,22689424,23991356,22910012,3800,3800,4682,4483,3665,4969,-2660,1311,118,60,803
620018,23948184,22689700,23992218,22910874,3800,3800,4544,4344,3494,5322,-2472,1669,118,65,804
621019,23948840,22690036,23993080,22911736,3800,3800,4377,4241,3281,5381,-2269,1835,118,65,804
622029,23949460,22690336,23993948,22912604,3800,3800,4225,4135,3007,5524,-1830,1921,126,74,803
623021,23950080,22690644,23994810,22913466,3800,3800,3994,4070,2619,5802,-1050,2202,126,74,803
624022,23950832,22690952,23995672,22914328,3800,3800,3713,4076,2149,6086,-275,2496,121,83,805
625023,23951504,22691372,23996534,22915190,3800,3800,3386,4087,1647,6222,165,2444,121,83,805
626024,23952204,22691788,23997396,22916052,3800,3800,3057,4016,1158,6164,231,2397,154,92,806
627025,23952908,22692216,23998258,22916914,3800,3800,2699,3978,645,6052,682,2752,154,92,806
628026,23953752,22692700,23999120,22917776,3800,3800,2329,3957,72,5697,1228,2728,163,103,807
629027,23954556,22693136,23999982,22918638,3800,3800,1899,3895,-583,5193,1779,2495,163,103,807
630028,23955384,22693700,24000844,22919500,3800,3800,1472,3771,-1265,4692,2113,2277,170,101,808
631029,23956260,22694228,24001706,22920362,3800,3800,1036,3675,-1916,4050,2553,2436,170,101,808
632030,23957120,22694800,24002568,22921224,3800,3800,623,3566,-2535,3617,2540,2144,158,108,807
633032,23958060,22695416,24003430,22922086,3800,3800,249,3320,-3132,3094,2884,1521,158,108,807
634033,23959052,22696020,24004292,22922948,3800,3800,-71,2918,-3742,2503,3511,1136,181,119,809
635033,23960064,22696748,24005154,22923810,3800,3800,-332,2462,-4312,2081,3547,849,181,119,809
636035,23961072,22697400,24006016,22924672,3800,3800,-548,2051,-4761,1385,2936,776,184,158,810
637035,23962220,22698308,24006878,22925534,3800,3800,-680,1784,-5051,412,1826,985,184,158,810
638036,23963256,22699068,24007740,22926396,3800,3800,-758,1663,-5227,-940,1013,1111,207,147,812
639037,23964316,22699968,24008602,22927258,3800,3800,-818,1792,-5256,-2537,78,1852,207,147,812
640038,23965408,22700856,24009464,22928120,3800,3800,-846,2061,-5102,-3962,-489,1982,192,175,813
641046,23966460,22701740,24010332,22928988,3800,3800,-807,2298,-4812,-4983,-1252,1794,192,175,813
642040,23967508,22702776,24011194,22929850,3800,3800,-683,2577,-4375,-5886,-1917,1945,209,194,812
643041,23968628,22703860,24012056,22930712,3800,3800,-499,2882,-3836,-6769,-2133,1851,209,194,812
644042,23969592,22704752,24012918,22931574,3800,3800,-256,3137,-3233,-7526,-2439,1435,214,203,814
645043,23970620,22705852,24013780,22932436,3800,3800,48,3202,-2557,-7898,-2942,878,214,203,814
646044,23971640,22706864,24014642,22933298,3800,3800,364,3195,-1847,-8120,-3371,598,215,206,815
647045,23972596,22707928,24015504,22934160,3800,3800,656,3212,-1093,-8585,-3845,741,215,206,815
648046,23973516,22709000,24016366,22935022,3800,3800,950,3303,-264,-8752,-4528,702,205,207,815
649047,23974460,22710052,24017228,22935884,3800,3800,1188,3385,630,-8486,-4961,869,205,207,815
650048,23975512,22711156,24018090,22936746,3800,3800,1361,3612,1587,-7914,-5195,1278,211,213,815
651049,23976468,22712112,24018952,22937608,3800,3800,1411,3774,2537,-7277,-5258,1229,211,213,815
652050,23977468,22713092,24019814,22938470,3800,3800,1444,3817,3408,-6510,-5099,1105,205,211,815
653051,23978556,22714108,24020676,22939332,3800,3800,1464,3527,4101,-5628,-4948,125,205,211,815
654052,23979572,22715264,24021538,22940194,3800,3800,1576,2727,4639,-4227,-4867,-1607,215,217,815
655053,23980628,22716376,24022400,22941056,3800,3800,1669,1232,5092,-2697,-4616,-3172,215,217,815
656054,23981748,22717396,24023262,22941918,3800,3800,1811,-677,5485,-1054,-4160,-4447,211,231,816
657055,23982764,22718592,24024124,22942780,3800,3800,1920,-2769,5841,356,-3977,-4774,211,231,816
658056,23983808,22719744,24024986,22943642,3800,3800,1979,-4653,6116,1356,-3453,-3841,213,233,817
659057,23984896,22720932,24025848,22944504,3800,3800,1843,-6022,6199,2171,-2096,-2148,213,233,817
660065,23985960,22722064,24026716,22945372,3800,3800,1633,-7090,6117,2886,-861,-2013,220,221,816
661059,23987060,22723104,24027578,22946234,3800,3800,1478,-8066,5947,3642,-489,-1943,220,221,816
662060,23988216,22724068,24028440,22947096,3800,3800,1232,-8647,5701,4424,-133,-11,213,200,815
663061,23989328,22725100,24029302,22947958,3800,3800,876,-8648,5354,4509,-705,1415,213,200,815
664062,23990436,22726164,24030164,22948820,3800,3800,502,-8392,4886,3923,-705,1590,209,207,815
665063,23991688,22727336,24031026,22949682,3800,3800,208,-8002,4324,3569,258,1739,209,207,815
666064,23992824,22728528,24031888,22950544,3800,3800,-144,-7394,3710,3892,1075,3156,212,196,816
667065,23993980,22729588,24032750,22951406,3800,3800,-634,-6394,3023,4622,1830,3968,212,196,816
668066,23995132,22730652,24033612,22952268,3800,3800,-1150,-5500,2325,5064,1576,2948,220,211,816
669067,23996344,22731840,24034474,22953130,3800,3800,-1596,-4820,1609,5279,1282,2277,220,211,816
670068,23997452,22733088,24035336,22953992,3800,3800,-1948,-4666,910,5248,1452,1333,206,236,817
671069,23998548,22734264,24036198,22954854,3800,3800,-2275,-4751,238,5950,833,1102,206,236,817
672070,23999732,22735388,24037060,22955716,3800,3800,-2550,-4994,-339,6381,453,339,224,267,817
673071,24000800,22736552,24037922,22956578,3800,3800,-2683,-5523,-822,6574,586,-720,224,267,817
674072,24001880,22737792,24038784,22957440,3800,3800,-2700,-6289,-1198,6826,786,-1283,239,246,817
675073,24002864,22738992,24039646,22958302,3800,3800,-2680,-7054,-1413,6529,1119,-1040,239,246,817
676074,24003792,22740220,24040508,22959164,3800,3800,-2623,-7503,-1428,6179,737,-129,235,244,816
677075,24004704,22741344,24041370,22960026,3800,3800,-2445,-7636,-1308,5558,644,406,235,244,816
678076,24005724,22742388,24042232,22960888,3800,3800,-2168,-7687,-1152,4776,1286,556,205,216,816
679084,24006600,22743324,24043100,22961756,3800,3800,-1885,-7511,-1092,3874,2834,1090,205,216,816
680078,24007512,22744232,24043962,22962618,3800,3800,-1705,-7085,-1260,2574,4489,1637,208,204,815
681079,24008460,22745144,24044824,22963480,3800,3800,-1627,-6119,-1282,1976,3832,3670,208,204,815
682080,24009276,22745852,24045686,22964342,3800,3800,-1558,-4345,-1060,1392,3293,5619,191,177,813
683081,24010060,22746512,24046548,22965204,3800,3800,-1514,-2097,-809,751,3342,6586,191,177,813
684082,24010836,22747108,24047410,22966066,3800,3800,-1379,292,-617,460,3945,6269,168,119,811
685083,24011532,22747628,24048272,22966928,3800,3800,-1381,2340,-531,156,4876,5822,168,119,811
686084,24012152,22748080,24049134,22967790,3800,3800,-1443,4054,-522,238,5615,4924,139,88,806
687085,24012716,22748504,24049996,22968652,3800,3800,-1701,5830,-793,509,7958,6229,139,88,806
688086,24013280,22748796,24050858,22969514,3800,3800,-2154,7845,-1425,1585,11176,6630,122,79,805
689087,24013776,22749048,24051720,22970376,3800,3800,-2805,9590,-2427,2907,14199,5848,122,79,805
690088,24014236,22749252,24052582,22971238,3800,3800,-3514,10862,-3655,3845,15361,5148,85,42,803
691089,24014724,22749404,24053444,22972100,3800,3800,-4262,11676,-4639,4474,12948,4727,85,42,803
692090,24015192,22749484,24054306,22972962,3800,3800,-4901,11827,-5196,4551,9532,2634,89,32,802
693091,24015616,22749512,24055168,22973824,3800,3800,-5273,10822,-5402,4907,7304,-578,89,32,802
694092,24016076,22749508,24056030,22974686,3800,3800,-5283,8684,-5526,5575,6546,-3632,77,5,800
695093,24016532,22749516,24056892,22975548,3800,3800,-5101,5717,-5640,5840,5242,-5089,77,5,800
696094,24016936,22749532,24057754,22976410,3800,3800,-5118,3309,-5690,5808,3544,-1852,81,3,799
697095,24017400,22749536,24058616,22977272,3800,3800,-5453,2240,-5634,5593,2468,2017,81,3,799
698105,24017836,22749516,24059484,22978140,3800,3800,-5930,1923,-5472,5609,2080,3324,82,11,799
699097,24018284,22749488,24060346,22979002,3800,3800,-6421,1639,-5356,6037,2286,3463,82,11,799
700098,24018772,22749516,24061208,22979864,3800,3800,-6821,1632,-5378,6359,1438,6455,83,12,799
701099,24019208,22749532,24062070,22980726,3800,3800,-2116,12866,-4369,3523,-11037,32767,83,12,799
702100,24019740,22749564,24062932,22981588,3800,3800,4713,30137,-2815,5492,-12778,32767,98,4,800
703101,24020252,22749600,24063794,22982450,3800,3800,6567,32297,-2842,11148,830,7721,98,4,800
704102,24020772,22749620,24064656,22983312,3800,3800,5631,28855,-4228,14935,818,21112,96,8,800
705103,24021328,22749676,24065518,22984174,3800,3800,5987,16773,-6336,14400,-3046,26821,96,8,800
706104,24021900,22749772,24066380,22985036,3800,3800,6657,6185,-7764,6362,-2052,15771,102,23,802
707105,24022520,22749876,24067242,22985898,3800,3800,5730,2124,-7943,3387,-637,2734,102,23,802
708106,24023192,22750020,24068104,22986760,3800,3800,4096,1018,-7854,1084,445,-2334,120,32,800
709107,24023868,22750220,24068966,22987622,3800,3800,2844,-824,-7833,-561,-35,-3670,120,32,800
710108,24024636,22750416,24069828,22988484,3800,3800,1970,-3403,-7563,-2321,-2129,-1566,133,51,803
711109,24025372,22750600,24070690,22989346,3800,3800,1156,-5480,-7067,-5729,-1603,249,133,51,803
712110,24026128,22750832,24071552,22990208,3800,3800,391,-7055,-6157,-10743,-622,2024,162,57,805
713111,24027068,22751108,24072414,22991070,3800,3800,-340,-7800,-5140,-9622,-1464,4227,162,57,805
714112,24027872,22751424,24073276,22991932,3800,3800,-1086,-7323,-4352,-8130,-2738,5659,155,66,805
715113,24028712,22751712,24074138,22992794,3800,3800,-1732,-5637,-3804,-8034,-3478,6903,155,66,805
716114,24029664,22751984,24075000,22993656,3800,3800,-2102,-4566,-3392,-9124,-3670,4863,157,74,806
717122,24030504,22752296,24075868,22994524,3800,3800,-2288,-3731,-2793,-10487,-4316,5954,157,74,806
718116,24031424,22752628,24076730,22995386,3800,3800,-2319,-2547,-1911,-11248,-5042,6193,166,72,806
719117,24032416,22752956,24077592,22996248,3800,3800,-2306,-1382,-1011,-11798,-5452,5419,166,72,806
720118,24033336,22753292,24078454,22997110,3800,3800,-2311,-19,-145,-12920,-5164,6300,186,77,807
721119,24034204,22753644,24079316,22997972,3800,3800,-2216,1390,712,-13291,-4981,5804,186,77,807
722120,24035056,22754024,24080178,22998834,3800,3800,-1961,2409,1506,-13059,-4723,4056,175,87,808
723121,24036012,22754392,24081040,22999696,3800,3800,-1581,2754,2324,-12948,-4684,2627,175,87,808
724122,24036812,22754780,24081902,23000558,3800,3800,-1087,2809,3184,-12306,-4613,1681,187,96,807
725123,24037644,22755264,24082764,23001420,3800,3800,-683,2507,4176,-11816,-4831,1238,187,96,807
726124,24038516,22755680,24083626,23002282,3800,3800,-269,2286,5309,-11040,-5289,1127,167,91,808
727125,24039300,22756080,24084488,23003144,3800,3800,147,1589,6493,-9802,-5830,-498,167,91,808
728126,24040080,22756468,24085350,23004006,3800,3800,605,392,7672,-7992,-5540,-1793,160,92,807
729127,24040948,22756932,24086212,23004868,3800,3800,1132,-1462,8727,-6014,-5153,-3638,160,92,807
730128,24041720,22757356,24087074,23005730,3800,3800,1728,-3903,9642,-3852,-5552,-4828,154,96,806
731129,24042528,22757892,24087936,23006592,3800,3800,2412,-6398,10433,-1924,-4996,-4880,154,96,806
732130,24043380,22758384,24088798,23007454,3800,3800,2978,-8678,11117,-269,-3984,-3997,157,91,807
733131,24044148,22758880,24089660,23008316,3800,3800,3483,-10470,11613,858,-2693,-2864,157,91,807
734132,24044972,22759464,24090522,23009178,3800,3800,3952,-11997,11932,1310,-2347,-2366,151,101,807
735133,24045844,22760020,24091384,23010040,3800,3800,4487,-13275,12034,1824,-2418,-1817,151,101,807
736141,24046588,22760608,24092252,23010908,3800,3800,4914,-14218,11944,2429,-2222,-567,164,114,807
737135,24047464,22761228,24093114,23011770,3800,3800,5210,-14501,11756,2584,-2458,1129,164,114,807
738136,24048356,22761856,24093976,23012632,3800,3800,5266,-14145,11532,2794,-3102,2691,166,121,808
739137,24049248,22762564,24094838,23013494,3800,3800,5185,-13295,11256,2840,-3660,3450,166,121,808
740138,24050104,22763284,24095700,23014356,3800,3800,5021,-12296,10899,3002,-3456,3618,175,138,809
741139,24051132,22764076,24096562,23015218,3800,3800,4871,-11341,10486,3575,-3133,3267,175,138,809
742140,24052056,22764976,24097424,23016080,3800,3800,4690,-10418,10092,3868,-3387,3232,177,166,810
743141,24052972,22765820,24098286,23016942,3800,3800,4507,-9350,9686,3597,-3399,3144,177,166,810
744142,24053956,22766784,24099148,23017804,3800,3800,4275,-8137,9196,3237,-3244,3281,189,170,811
745143,24055036,22767628,24100010,23018666,3800,3800,4004,-6682,8690,2835,-3383,3539,189,170,811
746144,24056068,22768604,24100872,23019528,3800,3800,3682,-5269,8258,2570,-3778,3094,192,185,812
747145,24057112,22769676,24101734,23020390,3800,3800,3359,-4070,7864,2649,-3916,2036,192,185,812
748146,24058236,22770616,24102596,23021252,3800,3800,3066,-3415,7435,3339,-3367,563,194,200,813
749147,24059316,22771588,24103458,23022114,3800,3800,2834,-3216,6910,4541,-2769,-937,194,200,813
750148,24060348,22772648,24104320,23022976,3800,3800,2612,-3321,6381,5364,-2677,-1903,212,199,813
751149,24061572,22773756,24105182,23023838,3800,3800,2419,-3590,5973,5538,-3315,-2354,212,199,813
752150,24062564,22774752,24106044,23024700,3800,3800,2284,-4066,5691,5518,-3431,-2754,215,195,813
753151,24063580,22775888,24106906,23025562,3800,3800,2200,-4718,5382,5793,-2777,-3238,215,195,813
754152,24064692,22776980,24107768,23026424,3800,3800,2161,-5249,4995,6537,-2387,-3348,212,202,813
755160,24065608,22778020,24108636,23027292,3800,3800,2095,-5776,4515,6705,-1924,-3840,212,202,813
756154,24066636,22779032,24109498,23028154,3800,3800,2040,-6477,4005,6415,-1576,-4375,210,198,813
757155,24067608,22779992,24110360,23029016,3800,3800,2006,-7295,3541,6300,-1325,-4569,210,198,813
758156,24068500,22781044,24111222,23029878,3800,3800,2003,-7841,3173,6608,-1248,-4210,208,197,813
759157,24069364,22782004,24112084,23030740,3800,3800,2014,-8079,2892,6275,-1237,-3785,208,197,813
760158,24070348,22782844,24112946,23031602,3800,3800,2101,-8032,2637,5318,-974,-3177,208,202,813
761159,24071236,22783780,24113808,23032464,3800,3800,2193,-7705,2364,4459,-219,-2299,208,202,813
762160,24072108,22784800,24114670,23033326,3800,3800,2221,-6836,1951,3651,738,-1205,207,204,813
763161,24073064,22785728,24115532,23034188,3800,3800,2072,-5260,1517,2532,813,526,207,204,813
764163,24074048,22786688,24116394,23035050,3800,3800,1947,-3229,1237,1646,504,1195,202,213,813
765163,24074972,22787728,24117256,23035912,3800,3800,1842,-1185,1014,1265,896,1558,202,213,813
766164,24075860,22788664,24118118,23036774,3800,3800,1737,1279,866,2129,2567,3361,195,208,814
767165,24076808,22789560,24118980,23037636,3800,3800,1600,3576,583,2225,4110,1436,195,208,814
768167,24077628,22790528,24119842,23038498,3800,3800,1399,4791,-99,1989,6339,-1263,167,188,812
769167,24078420,22791488,24120704,23039360,3800,3800,763,6105,-992,3365,9643,590,167,188,812
770168,24079244,22792392,24121566,23040222,3800,3800,3,6679,-1831,3807,9422,-3636,169,193,812
771169,24079992,22793220,24122428,23041084,3800,3800,-563,6158,-2520,4037,9940,-5566,169,193,812
772170,24080736,22794176,24123290,23041946,3800,3800,-1052,5483,-2890,4826,8281,-4255,154,168,810
773171,24081516,22795088,24124152,23042808,3800,3800,-1586,5154,-3037,5163,5526,-3469,154,168,810
774181,24082268,22796040,24125020,23043676,3800,3800,-2201,4988,-3252,5608,5806,-3258,164,192,810
775173,24082980,22797124,24125882,23044538,3800,3800,-2697,4545,-3558,5805,6429,-3999,164,192,810
776174,24083728,22798136,24126744,23045400,3800,3800,-3267,3895,-3881,6406,5942,-3087,162,200,812
777175,24084436,22799228,24127606,23046262,3800,3800,-3869,3417,-4101,6667,4906,-2204,162,200,812
778176,24085184,22800252,24128468,23047124,3800,3800,-4532,3379,-4203,6555,4766,-747,165,212,813
779177,24086004,22801336,24129330,23047986,3800,3800,-5151,3217,-4459,6081,5462,-1685,165,212,813
780178,24086724,22802588,24130192,23048848,3800,3800,-5831,2913,-4912,5385,5754,-857,158,222,812
781179,24087536,22803668,24131054,23049710,3800,3800,-6488,2894,-5496,4630,5849,150,158,222,812
782180,24088332,22804760,24131916,23050572,3800,3800,-7103,3025,-6066,3945,4712,489,151,226,813
783181,24089232,22805776,24132778,23051434,3800,3800,-7699,3240,-6675,2916,4050,1110,151,226,813
784182,24090084,22806796,24133640,23052296,3800,3800,-8239,3696,-7331,2386,3171,2085,183,209,814
785183,24090968,22807796,24134502,23053158,3800,3800,-8793,4388,-7945,2343,1870,2952,183,209,814
786184,24091924,22808820,24135364,23054020,3800,3800,-9276,5273,-8319,2496,966,3517,199,208,813
787185,24092860,22809784,24136226,23054882,3800,3800,-9676,6078,-8556,2465,895,3024,199,208,813
788186,24093820,22810760,24137088,23055744,3800,3800,-9980,6434,-8746,2454,172,1864,191,207,813
789187,24094832,22811652,24137950,23056606,3800,3800,-10323,6439,-8887,2272,-156,1508,191,207,813
790188,24095796,22812596,24138812,23057468,3800,3800,-10618,6253,-8947,2248,-651,995,211,202,813
791189,24096736,22813572,24139674,23058330,3800,3800,-10804,5849,-8919,2115,-1244,411,211,202,813
792190,24097828,22814376,24140536,23059192,3800,3800,-10826,5254,-8764,1728,-2296,248,213,172,813
793198,24098788,22815092,24141404,23060060,3800,3800,-10760,4734,-8490,1322,-3376,773,213,172,813
794192,24099736,22815800,24142266,23060922,3800,3800,-10622,4001,-8206,210,-4164,73,194,139,812
795193,24100716,22816396,24143128,23061784,3800,3800,-10408,3152,-7895,-1711,-5318,641,194,139,812
796194,24101632,22816972,24143990,23062646,3800,3800,-10152,2497,-7485,-3754,-6568,1976,179,111,811
797195,24102472,22817484,24144852,23063508,3800,3800,-10004,2402,-6943,-5249,-7675,4132,179,111,811
798196,24103372,22817896,24145714,23064370,3800,3800,-9919,3090,-6239,-6474,-8041,5834,192,98,808
799197,24104124,22818252,24146576,23065232,3800,3800,-9561,3475,-5459,-8434,-7810,4057,192,98,808
800198,24104856,22818544,24147438,23066094,3800,3800,-8998,2711,-4645,-9556,-8338,3066,158,75,807
801199,24105572,22818756,24148300,23066956,3800,3800,-8426,1967,-3717,-9722,-8837,4717,158,75,807
802200,24106168,22818972,24149162,23067818,3800,3800,-8039,1365,-2686,-9405,-8807,5141,133,57,805
803201,24106716,22819140,24150024,23068680,3800,3800,-4211,1575,-1163,-13839,-13396,28552,133,57,805
804202,24107200,22819268,24150886,23069542,3800,3800,8178,4102,1601,-21449,-21457,32767,119,38,802
805203,24107728,22819368,24151748,23070404,3800,3800,16320,7148,3531,-7743,-10639,32574,119,38,802
806204,24108132,22819464,24152610,23071266,3800,3800,13292,12073,4808,-5108,-8105,22833,83,18,801
807205,24108528,22819552,24153472,23072128,3800,3800,7883,14449,5578,-5111,-7203,7886,83,18,801
808206,24109036,22819584,24154334,23072990,3800,3800,4224,14432,6203,-3181,-4215,7258,85,9,799
809207,24109520,22819600,24155196,23073852,3800,3800,2334,13424,7260,-3487,-8439,5162,85,9,799
810208,24109960,22819620,24156058,23074714,3800,3800,1082,10644,8186,-4027,-5909,-357,89,22,799
811209,24110552,22819664,24156920,23075576,3800,3800,171,6604,8574,-3692,-1452,-2538,89,22,799
812217,24111064,22819688,24157788,23076444,3800,3800,-675,3592,8813,-1708,140,-330,94,14,800
813211,24111640,22819736,24158650,23077306,3800,3800,-1682,1084,9141,561,62,-1124,94,14,800
814212,24112204,22819772,24159512,23078168,3800,3800,-2622,-1295,9556,868,-363,-908,119,21,801
815213,24112744,22819808,24160374,23079030,3800,3800,-3115,-4121,9778,248,419,-2272,119,21,801
816214,24113268,22819844,24161236,23079892,3800,3800,-3320,-7259,9641,412,885,-2263,111,13,801
817215,24113888,22819876,24162098,23080754,3800,3800,-3444,-9976,9327,516,1006,-890,111,13,801
818216,24114468,22819940,24162960,23081616,3800,3800,-3696,-12129,9030,1597,2211,571,118,17,801
819217,24115004,22820012,24163822,23082478,3800,3800,-4087,-13641,8636,2365,3688,1994,118,17,801
820218,24115568,22820064,24164684,23083340,3800,3800,-4159,-15246,7794,981,4352,607,107,25,800
821219,24116260,22820152,24165546,23084202,3800,3800,-4098,-16840,6626,838,4692,1731,107,25,800
822220,24116888,22820240,24166408,23085064,3800,3800,-3951,-17907,5297,821,4666,2996,117,21,802
823221,24117612,22820340,24167270,23085926,3800,3800,-3906,-18310,4009,796,3909,5835,117,21,802
824222,24118328,22820452,24168132,23086788,3800,3800,-3967,-17286,2685,997,3921,9707,146,20,803
825223,24119144,22820592,24168994,23087650,3800,3800,-4051,-15733,1460,677,1950,10284,146,20,803
826224,24119832,22820728,24169856,23088512,3800,3800,-4034,-14246,379,719,1190,9989,142,27,801
827225,24120772,22820868,24170718,23089374,3800,3800,-3922,-13096,-623,1132,1374,9056,142,27,801
828226,24121660,22821012,24171580,23090236,3800,3800,-3804,-12280,-1670,1179,1709,8155,157,44,804
829227,24122552,22821216,24172442,23091098,3800,3800,-3675,-11554,-2664,780,1422,7451,157,44,804
830228,24123612,22821432,24173304,23091960,3800,3800,-3473,-10248,-3351,735,740,11760,169,37,804
831236,24124652,22821616,24174172,23092828,3800,3800,-2371,-6792,-3637,751,-175,27956,169,37,804
832230,24125716,22821824,24175034,23093690,3800,3800,-1209,-4202,-3725,1070,232,11891,172,61,806
833231,24126812,22822108,24175896,23094552,3800,3800,-711,-3377,-3593,1656,-462,6137,172,61,806
834232,24127860,22822432,24176758,23095414,3800,3800,-543,-3453,-3329,2273,-600,4737,173,73,807
835233,24128796,22822760,24177620,23096276,3800,3800,-311,-3754,-3074,2831,-205,3312,173,73,807
836234,24129856,22823132,24178482,23097138,3800,3800,13,-3996,-2811,2708,-149,2375,199,86,807
837235,24130868,22823564,24179344,23098000,3800,3800,355,-4337,-2546,2029,-81,1714,199,86,807
838236,24131816,22824020,24180206,23098862,3800,3800,663,-4874,-2459,1331,736,1392,195,84,808
839237,24132836,22824492,24181068,23099724,3800,3800,1029,-5573,-2423,1185,1008,468,195,84,808
840238,24133660,22825044,24181930,23100586,3800,3800,1503,-6268,-2271,1336,856,176,190,114,809
841239,24134508,22825640,24182792,23101448,3800,3800,1927,-6644,-1919,1031,264,1207,190,114,809
842240,24135360,22826168,24183654,23102310,3800,3800,2229,-6734,-1398,281,-566,1940,182,111,808
843241,24136260,22826800,24184516,23103172,3800,3800,2444,-6702,-879,-511,-595,1986,182,111,808
844242,24137076,22827400,24185378,23104034,3800,3800,2660,-6443,-478,-1192,-712,2615,178,124,810
845243,24137864,22828136,24186240,23104896,3800,3800,2860,-5821,-233,-2140,-627,3706,178,124,810
846244,24138772,22828828,24187102,23105758,3800,3800,3108,-4760,192,-2536,-1802,4958,197,157,810
847245,24139540,22829696,24187964,23106620,3800,3800,3378,-3228,795,-2997,-2036,6169,197,157,810
848246,24140328,22830528,24188826,23107482,3800,3800,3611,-1305,1399,-3180,-1406,6668,172,158,810
849247,24141140,22831356,24189688,23108344,3800,3800,3833,593,1797,-3288,-349,6215,172,158,810
850257,24141888,22832304,24190556,23109212,3800,3800,4027,2157,1955,-3256,93,5430,155,173,811
851249,24142660,22833168,24191418,23110074,3800,3800,4196,3508,1938,-2450,704,5036,155,173,811
852250,24143432,22834212,24192280,23110936,3800,3800,4215,4781,1785,-1044,1153,4560,151,189,810
853251,24144136,22835256,24193142,23111798,3800,3800,4123,5864,1701,539,278,3949,151,189,810
854252,24144836,22836172,24194004,23112660,3800,3800,4021,6728,1738,1789,-202,3149,151,198,810
855253,24145592,22837164,24194866,23113522,3800,3800,3935,7248,1738,2459,-44,1853,151,198,810
856254,24146300,22838240,24195728,23114384,3800,3800,3855,7378,1650,2957,121,718,155,202,811
857255,24146980,22839340,24196590,23115246,3800,3800,3745,7206,1518,3540,-119,183,155,202,811
858256,24147772,22840404,24197452,23116108,3800,3800,3588,6912,1401,4153,-518,-160,155,221,811
859257,24148484,22841448,24198314,23116970,3800,3800,3398,6497,1282,4722,-552,-719,155,221,811
860258,24149180,22842552,24199176,23117832,3800,3800,3228,5913,1103,5330,-639,-1238,161,203,812
861259,24149944,22843636,24200038,23118694,3800,3800,3096,5158,879,6012,-796,-1658,161,203,812
862260,24150832,22844604,24200900,23119556,3800,3800,2958,4366,629,6631,-994,-1507,175,213,811
863261,24151636,22845728,24201762,23120418,3800,3800,2773,3710,334,6960,-1310,-919,175,213,811
864262,24152444,22846684,24202624,23121280,3800,3800,2560,3147,-41,6687,-1827,-487,162,212,812
865263,24153424,22847688,24203486,23122142,3800,3800,2318,2837,-505,6357,-2365,359,162,212,812
866264,24154332,22848616,24204348,23123004,3800,3800,2038,2911,-1020,6134,-2877,1210,188,201,812
867265,24155320,22849592,24205210,23123866,3800,3800,1762,3243,-1542,5926,-3221,1577,188,201,812
868266,24156424,22850576,24206072,23124728,3800,3800,1486,3741,-2079,5616,-3332,2124,187,200,813
869274,24157508,22851604,24206940,23125596,3800,3800,1253,4332,-2666,4863,-2551,2160,187,200,813
870268,24158544,22852504,24207802,23126458,3800,3800,990,4952,-3359,4046,-914,2315,213,201,813
871269,24159716,22853500,24208664,23127320,3800,3800,708,5872,-4164,3322,33,2987,213,201,813
872270,24160712,22854524,24209526,23128182,3800,3800,437,6996,-5072,2511,628,3241,202,215,813
873271,24161768,22855464,24210388,23129044,3800,3800,213,8138,-6045,1838,375,3032,202,215,813
874272,24162988,22856484,24211250,23129906,3800,3800,113,8896,-7073,1143,1555,1757,207,201,813
875273,24164072,22857460,24212112,23130768,3800,3800,70,9372,-8119,712,2799,994,207,201,813
876274,24165132,22858344,24212974,23131630,3800,3800,53,9430,-9099,372,2725,-346,204,197,813
877275,24166232,22859288,24213836,23132492,3800,3800,47,9208,-9824,229,1103,-1015,204,197,813
878276,24167264,22860244,24214698,23133354,3800,3800,-44,8903,-10219,128,-539,-1181,231,202,814
879277,24168232,22861256,24215560,23134216,3800,3800,-194,8539,-10322,67,-1884,-1435,231,202,814
880278,24169220,22862364,24216422,23135078,3800,3800,-314,8077,-10237,-140,-2200,-1982,199,197,814
881279,24170260,22863456,24217284,23135940,3800,3800,-360,7183,-10058,-428,-2094,-3132,199,197,814
882280,24171216,22864456,24218146,23136802,3800,3800,-368,6172,-9796,-1252,-2685,-2817,205,218,815
883281,24172228,22865520,24219008,23137664,3800,3800,-394,5557,-9412,-2571,-2835,-1910,205,218,815
884282,24173216,22866568,24219870,23138526,3800,3800,-345,4927,-8893,-3794,-3078,-2339,219,232,814
885283,24174100,22867848,24220732,23139388,3800,3800,-284,4144,-8295,-4134,-3008,-2290,219,232,814
886284,24175040,22869000,24221594,23140250,3800,3800,-257,3466,-7625,-4043,-2718,-2088,202,247,814
887285,24176048,22870080,24222456,23141112,3800,3800,-216,2624,-6920,-3971,-2437,-2726,202,247,814
888293,24176960,22871168,24223324,23141980,3800,3800,-190,1539,-6194,-4011,-2095,-2884,185,216,814
889287,24177808,22872160,24224186,23142842,3800,3800,-201,504,-5454,-4015,-1255,-2495,185,216,814
890288,24178828,22873156,24225048,23143704,3800,3800,-276,-323,-4707,-4246,-631,-2014,185,215,814
891289,24179648,22874168,24225910,23144566,3800,3800,-423,-856,-3966,-4915,-206,-912,185,215,814
892290,24180556,22875096,24226772,23145428,3800,3800,-648,-921,-3218,-5411,24,428,190,209,813
893291,24181444,22876052,24227634,23146290,3800,3800,-922,-941,-2437,-5006,510,239,190,209,813
894292,24182316,22876908,24228496,23147152,3800,3800,-1241,-1247,-1703,-3545,1059,-242,190,192,814
895293,24183220,22877744,24229358,23148014,3800,3800,-1630,-1936,-1029,-1849,2135,-789,190,192,814
896294,24184184,22878656,24230220,23148876,3800,3800,-2051,-2995,-431,-429,2767,-1425,173,185,811
897295,24185132,22879412,24231082,23149738,3800,3800,-2452,-4276,100,451,2713,-1866,173,185,811
898296,24186012,22880092,24231944,23150600,3800,3800,-2824,-5487,576,1169,2711,-1480,181,149,812
899297,24187020,22880668,24232806,23151462,3800,3800,-3190,-6484,980,2014,2554,-610,181,149,812
900298,24188084,22881200,24233668,23152324,3800,3800,-3611,-6954,1298,2822,2570,1132,188,111,810
901299,24189072,22881672,24234530,23153186,3800,3800,-4147,-6974,1566,3385,2617,2605,188,111,810
902300,24190024,22882092,24235392,23154048,3800,3800,-4512,-7052,1813,3636,2675,1917,166,97,808
903301,24191120,22882396,24236254,23154910,3800,3800,-4764,-7497,1979,3866,3116,1782,166,97,808
904302,24192080,22882608,24237116,23155772,3800,3800,-4881,-7986,1975,4108,3625,1957,189,67,807
905303,24193000,22882768,24237978,23156634,3800,3800,-5069,-8275,1773,3950,3529,2965,189,67,807
906304,24194000,22882880,24238840,23157496,3800,3800,-5285,-8309,1428,3150,3270,3471,182,32,805
907312,24194920,22882972,24239708,23158364,3800,3800,-5507,-8402,1011,2473,3506,3798,182,32,805
908306,24195716,22883004,24240570,23159226,3800,3800,-5765,-8346,581,2543,3283,4613,164,15,804
909307,24196632,22883020,24241432,23160088,3800,3800,-6133,-8009,203,2287,3738,5441,164,15,804
910308,24197476,22883020,24242294,23160950,3800,3800,-6526,-7602,-137,1593,4245,5547,160,16,803
911309,24198292,22883024,24243156,23161812,3800,3800,-6879,-7360,-521,922,4647,5344,160,16,803
912310,24198992,22883028,24244018,23162674,3800,3800,-7122,-7434,-948,801,4989,4808,164,3,803
913311,24199704,22883036,24244880,23163536,3800,3800,-7278,-7556,-1316,1305,4296,4793,164,3,803
914312,24200380,22883036,24245742,23164398,3800,3800,-7420,-7771,-1528,1351,3105,4761,143,9,803
915313,24201116,22883024,24246604,23165260,3800,3800,-6070,-6315,-1441,1394,-80,19273,143,9,803
916314,24201740,22883048,24247466,23166122,3800,3800,742,6757,-434,1689,-12986,32767,148,18,802
917315,24202296,22883084,24248328,23166984,3800,3800,7343,17139,154,2959,-2146,32767,148,18,802
918316,24202892,22883148,24249190,23167846,3800,3800,7182,19039,298,4721,2283,6860,129,18,801
919317,24203416,22883200,24250052,23168708,3800,3800,2820,17621,1126,5211,-4658,6566,129,18,801
920318,24203928,22883268,24250914,23169570,3800,3800,-977,14962,1376,6520,3387,-1043,113,32,799
921319,24204424,22883372,24251776,23170432,3800,3800,-2322,11458,652,6473,7406,-6728,113,32,799
922320,24204908,22883484,24252638,23171294,3800,3800,-2678,7055,-215,6836,6221,-8554,111,35,801
923321,24205320,22883616,24253500,23172156,3800,3800,-3521,2880,-810,6426,3271,-6958,111,35,801
924322,24205732,22883788,24254362,23173018,3800,3800,-4290,-966,-1017,3306,-635,-261,85,40,801
925323,24206180,22883932,24255224,23173880,3800,3800,-2314,-5269,-864,-865,-5687,25338,85,40,801
926333,24206528,22884056,24256092,23174748,3800,3800,-1164,-7699,-600,3288,-2917,9838,80,28,801
927324,24206880,22884204,24256954,23175610,3800,3800,-2411,-8559,-245,3754,-3379,3004,80,28,801
928326,24207252,22884380,24257816,23176472,3800,3800,-3603,-8980,124,2277,-4742,5967,66,41,799
929327,24207592,22884556,24258678,23177334,3800,3800,-2272,-8500,494,0,-5750,23656,66,41,799
930328,24207928,22884732,24259540,23178196,3800,3800,785,-5979,910,-1295,-6263,32767,82,45,799
931329,24208340,22884896,24260402,23179058,3800,3800,2361,-4937,885,-278,-2404,7056,82,45,799
932330,24208692,22885072,24261264,23179920,3800,3800,2199,-5395,554,-880,-1694,3469,74,43,799
933331,24209080,22885232,24262126,23180782,3800,3800,1508,-5751,209,-1590,-2216,5770,74,43,799
934332,24209536,22885360,24262988,23181644,3800,3800,1064,-4998,-91,-1919,-2490,7736,89,45,800
935333,24209932,22885528,24263850,23182506,3800,3800,845,-3279,-317,-2352,-2222,9765,89,45,800
936334,24210360,22885648,24264712,23183368,3800,3800,603,-753,-474,-2420,-2755,11538,95,37,801
937335,24210832,22885792,24265574,23184230,3800,3800,373,1608,-602,-2585,-2660,10514,95,37,801
938336,24211364,22885928,24266436,23185092,3800,3800,285,3522,-801,-2774,-2001,9630,98,25,800
939337,24211852,22886056,24267298,23185954,3800,3800,341,5127,-1026,-2121,-1717,8949,98,25,800
940338,24212400,22886220,24268160,23186816,3800,3800,416,6603,-1200,-1540,-1272,8595,102,27,801
941339,24213024,22886356,24269022,23187678,3800,3800,493,7850,-1270,-970,-713,7620,102,27,801
942340,24213612,22886524,24269884,23188540,3800,3800,592,8710,-1302,-80,91,6141,115,37,801
943341,24214232,22886684,24270746,23189402,3800,3800,798,9066,-1354,418,948,4380,115,37,801
944342,24214964,22886856,24271608,23190264,3800,3800,999,8924,-1401,783,1341,3175,137,50,802
945350,24215632,22887052,24272476,23191132,3800,3800,1270,8299,-1402,1146,1234,1583,137,50,802
946344,24216348,22887264,24273338,23191994,3800,3800,1513,7327,-1351,1479,1332,792,143,47,803
947345,24217160,22887480,24274200,23192856,3800,3800,1802,6066,-1290,1646,1545,-613,143,47,803
948346,24217948,22887796,24275062,23193718,3800,3800,2059,4467,-1257,1590,1660,-1413,138,62,804
949347,24218700,22888088,24275924,23194580,3800,3800,2301,2772,-1203,1228,1584,-1567,138,62,804
950348,24219644,22888364,24276786,23195442,3800,3800,2478,1157,-1122,966,1559,-1389,169,75,804
951349,24220512,22888764,24277648,23196304,3800,3800,2631,-267,-1041,530,1599,-1105,169,75,804
952350,24221412,22889172,24278510,23197166,3800,3800,2773,-1507,-959,-313,1746,-650,173,79,805
953351,24222476,22889584,24279372,23198028,3800,3800,2875,-2405,-884,-1140,1577,313,173,79,805
954352,24223452,22890024,24280234,23198890,3800,3800,2921,-2874,-793,-2021,931,1533,177,94,807
955353,24224440,22890580,24281096,23199752,3800,3800,2893,-2852,-698,-2982,634,2647,177,94,807
956354,24225428,22891128,24281958,23200614,3800,3800,2883,-2577,-626,-4104,311,3016,201,97,808
957355,24226576,22891720,24282820,23201476,3800,3800,2848,-2183,-539,-5252,-291,3459,201,97,808
958356,24227576,22892332,24283682,23202338,3800,3800,2817,-1555,-342,-6000,-1429,4044,196,119,809
959357,24228560,22892988,24284544,23203200,3800,3800,2745,-846,-24,-6395,-2402,3950,196,119,809
960358,24229664,22893728,24285406,23204062,3800,3800,2703,-245,343,-6739,-2690,3501,223,130,810
961359,24230680,22894500,24286268,23204924,3800,3800,2750,123,741,-6837,-2777,2566,223,130,810
962360,24231608,22895392,24287130,23205786,3800,3800,2861,146,1165,-6304,-2608,1562,215,166,810
963361,24232664,22896340,24287992,23206648,3800,3800,3006,-79,1618,-5622,-2566,659,215,166,810
964369,24233580,22897152,24288860,23207516,3800,3800,3141,-499,2134,-5214,-2711,104,210,186,812
965363,24234468,22898128,24289722,23208378,3800,3800,3267,-1160,2663,-5031,-2680,-962,210,186,812
966364,24235480,22899132,24290584,23209240,3800,3800,3419,-2008,3157,-4949,-2637,-1540,214,183,812
967365,24236364,22900076,24291446,23210102,3800,3800,3520,-2951,3687,-4815,-2716,-1767,214,183,812
968366,24237268,22901224,24292308,23210964,3800,3800,3582,-3938,4240,-4411,-2795,-2026,208,215,812
969367,24238264,22902284,24293170,23211826,3800,3800,3612,-4971,4803,-4199,-2883,-2137,208,215,812
970368,24239172,22903336,24294032,23212688,3800,3800,3622,-6097,5314,-3820,-2961,-2693,202,209,813
971369,24240124,22904428,24294894,23213550,3800,3800,3678,-7462,5767,-2781,-3257,-3678,202,209,813
972370,24241200,22905480,24295756,23214412,3800,3800,3640,-8937,6230,-1407,-3575,-3534,207,217,812
973371,24242208,22906680,24296618,23215274,3800,3800,3558,-10199,6688,-93,-3966,-3106,207,217,812
974372,24243092,22907800,24297480,23216136,3800,3800,3343,-11245,7125,724,-4312,-2292,199,203,812
975373,24244072,22908788,24298342,23216998,3800,3800,3078,-11816,7428,659,-4641,-894,199,203,812
976374,24245124,22909780,24299204,23217860,3800,3800,2815,-11996,7580,514,-5125,-173,212,207,813
977375,24246088,22910792,24300066,23218722,3800,3800,2628,-11965,7636,301,-5675,114,212,207,813
978376,24247048,22911872,24300928,23219584,3800,3800,2422,-11628,7628,476,-5513,1001,208,219,813
979377,24248192,22913040,24301790,23220446,3800,3800,2112,-11110,7582,1260,-5137,1321,208,219,813
980378,24249200,22914068,24302652,23221308,3800,3800,1748,-10569,7483,2225,-4350,1029,203,228,814
981379,24250240,22915164,24303514,23222170,3800,3800,1401,-9983,7367,2663,-3902,980,203,228,814
982380,24251304,22916288,24304376,23223032,3800,3800,1086,-9186,7295,2665,-3824,1524,209,223,814
983388,24252380,22917336,24305244,23223900,3800,3800,674,-7836,7270,2745,-3362,3128,209,223,814
984382,24253540,22918504,24306106,23224762,3800,3800,62,-5888,7274,3653,-1920,3817,213,211,813
985383,24254720,22919516,24306968,23225624,3800,3800,-320,-5210,7040,4609,-1295,-1525,213,211,813
986384,24255868,22920476,24307830,23226486,3800,3800,-273,-5208,6613,5657,-854,-2084,221,199,814
987385,24256988,22921480,24308692,23227348,3800,3800,-277,-5626,6149,5585,-476,-2471,221,199,814
988386,24258268,22922460,24309554,23228210,3800,3800,-288,-5860,5568,5409,-749,-2742,220,201,814
989387,24259328,22923516,24310416,23229072,3800,3800,-410,-6037,5017,5180,-653,-2512,220,201,814
990388,24260416,22924636,24311278,23229934,3800,3800,-524,-5925,4481,6234,-224,-2046,216,192,814
991389,24261532,22925668,24312140,23230796,3800,3800,-1019,-5415,3991,8171,430,362,216,192,814
992390,24262512,22926768,24313002,23231658,3800,3800,-1550,-4803,3312,7859,2639,-313,210,213,813
993391,24263584,22927876,24313864,23232520,3800,3800,-1798,-5135,2413,7751,2962,-3449,210,213,813
994392,24264480,22929000,24314726,23233382,3800,3800,-1612,-6275,1527,7854,3469,-5066,216,223,813
995393,24265472,22930168,24315588,23234244,3800,3800,-1179,-7694,792,7855,4225,-5562,216,223,813
996394,24266372,22931384,24316450,23235106,3800,3800,-804,-8724,269,8437,3604,-4268,215,243,814
997395,24267328,22932528,24317312,23235968,3800,3800,-700,-8664,91,8158,3429,-334,215,243,814
998396,24268328,22933664,24318174,23236830,3800,3800,-677,-7808,3,7705,3976,837,211,248,815
999397,24269224,22934840,24319036,23237692,3800,3800,-576,-6886,-381,6328,4756,-32,211,248,815
1000398,24270148,22936028,24319898,23238554,3800,3800,-413,-5962,-1005,4117,6032,733,204,248,816
1001399,24271080,22937248,24320760,23239416,3800,3800,-393,-4560,-1481,3524,4907,2704,204,248,816
1002409,24271900,22938368,24321628,23240284,3800,3800,-505,-2431,-1794,2638,4590,4271,184,253,815
1003401,24272692,22939400,24322490,23241146,3800,3800,-814,815,-1907,2680,4824,7581,184,253,815
1004402,24273508,22940416,24323352,23242008,3800,3800,-1171,4237,-2040,3868,6371,6559,180,235,813
1005403,24274192,22941440,24324214,23242870,3800,3800,-1441,6574,-2448,4716,9304,4337,180,235,813
1006404,24274824,22942416,24325076,23243732,3800,3800,-1851,8921,-2879,6614,10155,6066,153,198,811
1007405,24275460,22943300,24325938,23244594,3800,3800,-2429,10981,-3156,7637,9687,4708,153,198,811
1008406,24276024,22944108,24326800,23245456,3800,3800,-2856,12194,-3317,7598,8423,2497,121,172,809
1009407,24276528,22944832,24327662,23246318,3800,3800,-2938,12593,-3510,7722,7164,186,121,172,809
1010408,24277144,22945456,24328524,23247180,3800,3800,-2941,12467,-3810,7979,5794,-473,99,151,807
1011409,24277636,22946008,24329386,23248042,3800,3800,-3160,12111,-4103,7807,4511,-435,99,151,807
1012410,24278156,22946576,24330248,23248904,3800,3800,-3406,11463,-4337,7396,3611,-1184,100,106,806
1013411,24278680,22946984,24331110,23249766,3800,3800,-3598,10772,-4559,7422,2923,-638,100,106,806
1014412,24279224,22947296,24331972,23250628,3800,3800,-3792,10040,-4803,7537,2496,-851,102,92,804
1015413,24279748,22947564,24332834,23251490,3800,3800,-4243,9276,-5312,7080,2407,-480,102,92,804
1016414,24280292,22947752,24333696,23252352,3800,3800,-4833,8447,-6186,6007,2690,-465,100,46,801
1017415,24280876,22947904,24334558,23253214,3800,3800,-5411,7360,-7322,5364,2865,-902,100,46,801
1018416,24281396,22947948,24335420,23254076,3800,3800,-5897,6406,-8455,4960,1803,-452,111,16,799
1019417,24282020,22947972,24336282,23254938,3800,3800,-6353,5702,-9330,4335,464,972,111,16,799
1020418,24282596,22947980,24337144,23255800,3800,3800,-6805,5355,-10005,3868,-3,1792,101,10,800
1021425,24283160,22947972,24338012,23256668,3800,3800,-7264,5052,-10558,3731,182,2137,101,10,800
1022420,24283764,22947984,24338874,23257530,3800,3800,-7719,4879,-11029,3872,-211,2705,126,14,800
1023421,24284424,22948000,24339736,23258392,3800,3800,-8158,4729,-11453,4184,-824,2738,126,14,800
1024422,24284980,22948028,24340598,23259254,3800,3800,-8535,4428,-11851,3459,-1109,2680,120,3,800
1025423,24285660,22948040,24341460,23260116,3800,3800,-8880,4281,-12148,2002,-1666,4031,120,3,800
1026425,24286404,22948044,24342322,23260978,3800,3800,-9221,4434,-12297,506,-2369,4891,134,11,801
1027425,24287112,22948120,24343184,23261840,3800,3800,-9545,4452,-12241,-1002,-2303,4378,134,11,801
1028426,24287840,22948184,24344046,23262702,3800,3800,-9764,4351,-11982,-2313,-2250,4689,134,22,800
1029427,24288644,22948256,24344908,23263564,3800,3800,-6429,6170,-10714,-9706,-8455,32227,134,22,800
1030428,24289524,22948340,24345770,23264426,3800,3800,7526,11275,-6474,-32768,-23333,32767,151,30,802
1031429,24290296,22948440,24346632,23265288,3800,3800,15616,15118,-2057,-19066,-11702,32767,151,30,802
1032431,24291100,22948572,24347494,23266150,3800,3800,12314,16489,339,-10330,-3840,16657,142,31,803
1033431,24292016,22948724,24348356,23267012,3800,3800,6419,13557,739,-11016,-135,2520,142,31,803
1034433,24292848,22948920,24349218,23267874,3800,3800,3631,8288,536,-11279,-680,-4478,168,53,804
1035433,24293760,22949120,24350080,23268736,3800,3800,3227,3240,638,-7850,-2017,-5785,168,53,804
1036435,24294744,22949336,24350942,23269598,3800,3800,3180,158,1293,-5111,-3070,-4077,167,51,805
1037435,24295632,22949548,24351804,23270460,3800,3800,2591,-1090,1933,-4060,-340,-1390,167,51,805
1038436,24296484,22949768,24352666,23271322,3800,3800,1756,-2249,2250,-3331,46,-1600,188,62,804
1039437,24297408,22950004,24353528,23272184,3800,3800,911,-3960,2666,-4018,-1460,-493,188,62,804
1040445,24298252,22950292,24354396,23273052,3800,3800,147,-4933,3412,-5264,-1766,2574,177,68,803
1041439,24299044,22950592,24355258,23273914,3800,3800,-582,-5466,4246,-5341,-1747,2421,177,68,803
1042440,24299900,22950892,24356120,23274776,3800,3800,-1206,-6024,4999,-5536,-1486,2256,160,72,805
1043441,24300656,22951196,24356982,23275638,3800,3800,-1701,-6592,5749,-5504,-1398,2422,160,72,805
1044442,24301392,22951528,24357844,23276500,3800,3800,-2095,-7422,6368,-4817,-1713,1735,164,78,805
1045443,24302192,22951896,24358706,23277362,3800,3800,-2314,-8358,6831,-4540,-1891,1302,164,78,805
1046444,24302888,22952224,24359568,23278224,3800,3800,-2371,-9552,7178,-3900,-1738,601,142,75,805
1047445,24303560,22952560,24360430,23279086,3800,3800,-2349,-10626,7336,-2896,-1431,820,142,75,805
1048446,24304348,22952836,24361292,23279948,3800,3800,-2305,-11521,7433,-2612,-1457,1322,161,79,804
1049447,24304996,22953180,24362154,23280810,3800,3800,-2212,-12255,7492,-1993,-1975,1393,161,79,804
1050448,24305756,22953568,24363016,23281672,3800,3800,-2100,-12780,7514,-1357,-2094,1893,150,81,804
1051449,24306396,22953940,24363878,23282534,3800,3800,-1984,-12911,7499,-791,-1380,3164,150,81,804
1052450,24307236,22954336,24364740,23283396,3800,3800,-1890,-12659,7458,-248,-1626,3634,142,83,805
1053451,24307968,22954748,24365602,23284258,3800,3800,-1722,-12421,7384,-357,-1639,3178,142,83,805
1054452,24308680,22955136,24366464,23285120,3800,3800,-1475,-12043,7246,-399,-1322,3468,163,80,805
1055453,24309564,22955548,24367326,23285982,3800,3800,-1180,-11612,6965,-223,-1425,3199,163,80,805
1056454,24310292,22956080,24368188,23286844,3800,3800,-842,-11093,6695,-159,-2238,3571,162,98,806
1057455,24311120,22956532,24369050,23287706,3800,3800,-488,-10403,6452,-98,-2764,3871,162,98,806
1058456,24312008,22956916,24369912,23288568,3800,3800,-189,-9682,6165,176,-2506,3547,152,84,806
1059464,24312812,22957460,24370780,23289436,3800,3800,84,-8975,5797,398,-1726,3286,152,84,806
1060458,24313652,22957964,24371642,23290298,3800,3800,340,-8367,5346,890,-1350,2633,158,99,806
1061459,24314616,22958464,24372504,23291160,3800,3800,625,-7915,4900,1569,-1675,2106,158,99,806
1062460,24315488,22959120,24373366,23292022,3800,3800,953,-7448,4574,2044,-2133,2041,169,111,806
1063461,24316364,22959660,24374228,23292884,3800,3800,1325,-6994,4367,2398,-2640,1907,169,111,806
1064462,24317420,22960380,24375090,23293746,3800,3800,1731,-6463,4182,2399,-2632,1754,172,125,809
1065463,24318392,22961016,24375952,23294608,3800,3800,2116,-5862,4009,2253,-2326,1705,172,125,809
1066464,24319432,22961776,24376814,23295470,3800,3800,2426,-5237,3837,2279,-2283,1547,180,128,808
1067465,24320624,22962536,24377676,23296332,3800,3800,2692,-4656,3666,2245,-2562,1400,180,128,808
1068466,24321632,22963364,24378538,23297194,3800,3800,2950,-4070,3477,2461,-2474,1074,181,141,810
1069467,24322700,22964116,24379400,23298056,3800,3800,3239,-3854,3232,3157,-2237,-204,181,141,810
1070468,24323804,22965016,24380262,23298918,3800,3800,3492,-3868,2989,4119,-2420,-498,202,170,811
1071469,24324904,22965844,24381124,23299780,3800,3800,3723,-3792,2839,4502,-2352,-526,202,170,811
1072470,24325956,22966692,24381986,23300642,3800,3800,3908,-3890,2735,4831,-2349,-1126,208,178,810
1073471,24326936,22967692,24382848,23301504,3800,3800,4057,-4046,2600,5297,-1928,-1119,208,178,810
1074472,24328024,22968576,24383710,23302366,3800,3800,4116,-4013,2475,5801,-1338,-435,209,181,812
1075473,24329056,22969516,24384572,23303228,3800,3800,4117,-3775,2297,6030,-1063,-575,209,181,812
1076474,24329920,22970552,24385434,23304090,3800,3800,4125,-3694,2091,5530,-954,-968,202,180,812
1077475,24330916,22971480,24386296,23304952,3800,3800,4152,-3507,1875,5247,-674,-495,202,180,812
1078485,24331828,22972504,24387164,23305820,3800,3800,4134,-3160,1642,5321,-511,-150,207,192,813
1079477,24332720,22973596,24388026,23306682,3800,3800,4016,-2512,1381,4933,-159,627,207,192,813
1080478,24333704,22974500,24388888,23307544,3800,3800,3916,-1427,1287,5052,-977,1866,213,201,813
1081479,24334580,22975464,24389750,23308406,3800,3800,3822,-94,1300,4500,-1245,2262,213,201,813
1082480,24335476,22976388,24390612,23309268,3800,3800,3748,1446,1298,4024,-1182,2761,204,204,812
1083481,24336456,22977352,24391474,23310130,3800,3800,3574,3003,1200,3796,-576,2480,204,204,812
1084482,24337308,22978252,24392336,23310992,3800,3800,3322,4465,939,3372,-39,2242,212,188,811
1085483,24338180,22979172,24393198,23311854,3800,3800,2960,6099,562,3047,345,2912,212,188,811
1086484,24339112,22980044,24394060,23312716,3800,3800,2650,7761,190,3024,229,2370,170,195,812
1087485,24339924,22981020,24394922,23313578,3800,3800,2324,9028,-187,3664,619,1380,170,195,812
1088486,24340716,22982024,24395784,23314440,3800,3800,2049,9872,-629,4505,1650,-47,172,206,812
1089487,24341472,22983048,24396646,23315302,3800,3800,1688,10001,-1206,5318,2694,-1944,172,206,812
1090488,24342244,22984048,24397508,23316164,3800,3800,1284,9622,-1876,5983,3388,-3246,165,191,811
1091489,24343000,22984936,24398370,23317026,3800,3800,780,8871,-2559,6023,4094,-4012,165,191,811
1092490,24343724,22985780,24399232,23317888,3800,3800,166,8046,-3350,5811,5913,-4166,157,169,810
1093491,24344528,22986524,24400094,23318750,3800,3800,-590,7253,-4332,5551,7555,-3934,157,169,810
1094492,24345248,22987272,24400956,23319612,3800,3800,-1320,6490,-5463,4646,7814,-4254,170,165,808
1095493,24345976,22988112,24401818,23320474,3800,3800,-1933,5447,-6640,3949,7819,-4972,170,165,808
1096494,24346792,22988928,24402680,23321336,3800,3800,-2537,4529,-7595,4121,6824,-3681,154,170,809
1097502,24347584,22989700,24403548,23322204,3800,3800,-3260,4108,-8129,4112,4996,-2194,154,170,809
1098496,24348348,22990752,24404410,23323066,3800,3800,-3980,3842,-8399,3604,3626,-2284,151,169,809
1099497,24349236,22991676,24405272,23323928,3800,3800,-4584,3662,-8596,3082,2162,-1554,151,169,809
1100498,24350084,22992776,24406134,23324790,3800,3800,-5116,3750,-8679,2747,1124,-689,163,192,810
1101499,24350956,22993756,24406996,23325652,3800,3800,-5594,4068,-8601,2324,771,-197,163,192,810
1102500,24351992,22994800,24407858,23326514,3800,3800,-6027,4626,-8369,1465,548,883,176,205,812
1103501,24352944,22995784,24408720,23327376,3800,3800,-6360,5372,-8080,595,65,1216,176,205,812
1104502,24354004,22996840,24409582,23328238,3800,3800,-6576,5969,-7781,77,-337,843,179,221,811
1105503,24355116,22997992,24410444,23329100,3800,3800,-6635,6436,-7459,170,-830,839,179,221,811
1106504,24356152,22999276,24411306,23329962,3800,3800,-6675,6753,-7190,-6,-974,605,203,237,814
1107505,24357252,23000336,24412168,23330824,3800,3800,-6668,7050,-6908,-520,-1872,946,203,237,814
1108506,24358208,23001356,24413030,23331686,3800,3800,-6656,7409,-6631,-1023,-2265,1185,215,220,815
1109507,24359228,23002344,24413892,23332548,3800,3800,-6647,7629,-6464,-1331,-2529,750,215,220,815
1110508,24360312,23003300,24414754,23333410,3800,3800,-6662,7741,-6404,-1618,-2858,963,204,205,814
1111509,24361368,23004316,24415616,23334272,3800,3800,-6698,7932,-6343,-2739,-3488,1754,204,205,814
1112510,24362476,23005172,24416478,23335134,3800,3800,-6721,8274,-6224,-4318,-4126,2325,218,204,814
1113511,24363488,23006060,24417340,23335996,3800,3800,-6660,8602,-6004,-5800,-4818,2529,218,204,814
1114512,24364472,23006964,24418202,23336858,3800,3800,-6549,9447,-5655,-6799,-5415,4203,212,201,814
1115513,24365472,23007772,24419064,23337720,3800,3800,-6433,10338,-5194,-7847,-5448,4037,212,201,814
1116521,24366340,23008584,24419932,23338588,3800,3800,-6257,10724,-4673,-9078,-5256,3561,211,178,811
1117515,24367192,23009456,24420794,23339450,3800,3800,-5841,10611,-3363,-10250,-4309,2479,211,178,811
1118516,24368052,23010176,24421656,23340312,3800,3800,-5603,10092,-2602,-9430,-4542,2029,181,164,811
1119517,24368808,23010840,24422518,23341174,3800,3800,-5314,9077,-1708,-8858,-4961,1036,181,164,811
1120518,24369500,23011424,24423380,23342036,3800,3800,-4983,7903,-780,-8672,-5242,1059,165,133,809
1121519,24370240,23011980,24424242,23342898,3800,3800,-4715,6574,120,-8897,-4955,1069,165,133,809
1122520,24370916,23012536,24425104,23343760,3800,3800,-4565,5306,996,-8813,-4438,1623,130,119,807
1123521,24371548,23012952,24425966,23344622,3800,3800,-4746,4475,1904,-8553,-3725,3629,130,119,807
1124522,24372272,23013340,24426828,23345484,3800,3800,-5195,3914,2792,-8336,-2370,4295,146,93,806
1125523,24372932,23013620,24427690,23346346,3800,3800,-5783,2873,3735,-10316,-1455,3542,146,93,806
1126524,24373632,23013840,24428552,23347208,3800,3800,-5945,-984,5252,-19150,-1296,-992,129,51,802
1127525,24374368,23014036,24429414,23348070,3800,3800,-5258,-6345,6894,-13788,41,7903,129,51,802
1128526,24375112,23014160,24430276,23348932,3800,3800,1546,-9973,6634,5433,3909,32767,146,45,802
1129527,24375768,23014256,24431138,23349794,3800,3800,6490,-7669,6577,1956,-2721,32767,146,45,802
1130528,24376476,23014328,24432000,23350656,3800,3800,6431,-4201,7562,-3702,-2580,9531,151,24,802
1131529,24377164,23014372,24432862,23351518,3800,3800,4564,-4906,8470,-3795,-540,4024,151,24,802
1132530,24377844,23014384,24433724,23352380,3800,3800,3472,-6062,8683,-3583,2002,5411,152,9,802
1133531,24378500,23014400,24434586,23353242,3800,3800,2463,-6066,8477,-2282,1954,10937,152,9,802
1134532,24379272,23014404,24435448,23354104,3800,3800,1513,-4453,8087,-2075,1018,11736,137,15,801
1135540,24379964,23014416,24436316,23354972,3800,3800,534,-4021,7837,-2372,1603,7536,137,15,801
1136534,24380660,23014404,24437178,23355834,3800,3800,-187,-4259,7682,1075,2999,6530,146,7,802
1137535,24381424,23014408,24438040,23356696,3800,3800,-941,-4836,7369,2920,3747,5501,146,7,802
1138536,24382128,23014412,24438902,23357558,3800,3800,-1339,-6054,6929,2036,3782,2742,152,8,800
1139537,24382852,23014420,24439764,23358420,3800,3800,-1586,-8036,6754,3623,2798,-355,152,8,800
1140538,24383692,23014444,24440626,23359282,3800,3800,-1470,-10976,6010,3514,4092,-3837,136,10,801
1141539,24384480,23014444,24441488,23360144,3800,3800,-1292,-13927,4793,4082,4859,-3448,136,10,801
1142540,24385292,23014456,24442350,23361006,3800,3800,-1334,-16340,3670,5214,3994,-1306,139,13,802
1143541,24386216,23014456,24443212,23361868,3800,3800,-1593,-17762,2937,5277,2995,828,139,13,802
1144542,24387140,23014448,24444074,23362730,3800,3800,-2283,-17375,2666,5706,2468,7270,160,4,802
1145543,24387976,23014468,24444936,23363592,3800,3800,-3237,-15439,2180,5739,4665,9691,160,4,802
1146544,24388956,23014496,24445798,23364454,3800,3800,-3976,-14360,1285,4268,4626,5779,158,18,802
1147545,24389836,23014504,24446660,23365316,3800,3800,-4369,-13823,128,2032,2975,5239,158,18,802
1148546,24390756,23014532,24447522,23366178,3800,3800,-4639,-13519,-1047,1091,1053,4480,148,15,801
1149547,24391600,23014556,24448384,23367040,3800,3800,-4830,-12755,-1924,11,-587,5807,148,15,801
1150548,24392452,23014608,24449246,23367902,3800,3800,-5066,-11511,-2303,-864,-2317,6868,161,23,802
1151549,24393276,23014644,24450108,23368764,3800,3800,-5372,-9745,-2354,-1161,-3329,7782,161,23,802
1152550,24394128,23014696,24450970,23369626,3800,3800,-5743,-7785,-2292,-1773,-2905,7955,146,16,800
1153551,24394984,23014752,24451832,23370488,3800,3800,-5970,-6172,-2320,-2374,-1391,6380,146,16,800
1154561,24395628,23014800,24452700,23371356,3800,3800,-5948,-5310,-2358,-2098,-489,4511,148,15,803
1155553,24396328,23014884,24453562,23372218,3800,3800,-5670,-4850,-2284,-1847,4,3510,148,15,803
1156554,24397052,23014976,24454424,23373080,3800,3800,-5278,-4499,-2058,-1694,-565,2879,161,20,802
1157555,24397696,23015064,24455286,23373942,3800,3800,-4846,-4510,-1776,-1620,-1088,1327,161,20,802
1158556,24398336,23015152,24456148,23374804,3800,3800,-4326,-4785,-1426,-1658,-1776,911,143,31,802
1159557,24398936,23015236,24457010,23375666,3800,3800,-3754,-5002,-1019,-1318,-2145,1128,143,31,802
1160558,24399464,23015308,24457872,23376528,3800,3800,-3228,-4790,-398,-845,-3916,2575,135,25,800
1161559,24399980,23015396,24458734,23377390,3800,3800,-2817,-4026,584,-727,-6118,4100,135,25,800
1162560,24400532,23015492,24459596,23378252,3800,3800,-2491,-3024,1560,-1111,-6077,4432,120,36,801
1163561,24401008,23015584,24460458,23379114,3800,3800,-2103,-2283,2125,-1280,-4223,3542,120,36,801
1164562,24401456,23015684,24461320,23379976,3800,3800,-1655,-1742,2336,-1032,-3264,3385,97,18,800
1165563,24401872,23015760,24462182,23380838,3800,3800,-1178,-1196,2526,-482,-3520,3932,97,18,800
1166564,24402344,23015896,24463044,23381700,3800,3800,-784,-335,2790,183,-3382,5175,94,25,800
1167565,24402788,23015988,24463906,23382562,3800,3800,-436,850,3093,838,-3281,6006,94,25,800
1168566,24403184,23016104,24464768,23383424,3800,3800,-113,2160,3410,1553,-3207,6308,78,21,800
1169567,24403612,23016252,24465630,23384286,3800,3800,374,3716,3683,2938,-3054,9016,78,21,800
1170568,24403988,23016380,24466492,23385148,3800,3800,1332,6138,3710,6114,-1894,16347,75,26,798
1171569,24404396,23016496,24467354,23386010,3800,3800,2188,7796,3691,4335,-1807,7371,75,26,798
1172570,24404780,23016628,24468216,23386872,3800,3800,2669,8433,3757,3513,-1698,4594,70,35,799
1173578,24405164,23016784,24469084,23387740,3800,3800,2920,8606,3832,3839,-1507,4202,70,35,799
1174572,24405520,23016956,24469946,23388602,3800,3800,3113,8847,3867,4258,-1432,4078,65,31,799
1175573,24405896,23017156,24470808,23389464,3800,3800,3259,9140,3908,4630,-1311,3861,65,31,799
1176574,24406276,23017344,24471670,23390326,3800,3800,3346,9420,3925,4898,-1037,3776,78,33,800
1177575,24406628,23017540,24472532,23391188,3800,3800,3388,9558,3878,5082,-628,3325,78,33,800
1178576,24407064,23017760,24473394,23392050,3800,3800,3428,9513,3791,5080,-375,2988,68,50,799
1179577,24407468,23017972,24474256,23392912,3800,3800,3462,9363,3682,5088,-86,2602,68,50,799
1180578,24407880,23018212,24475118,23393774,3800,3800,3449,9146,3568,4975,203,2567,77,39,799
1181579,24408312,23018420,24475980,23394636,3800,3800,3371,8913,3389,4746,753,2570,77,39,799
1182580,24408820,23018672,24476842,23395498,3800,3800,3186,8677,3091,4263,1118,2617,91,67,800
1183581,24409288,23019016,24477704,23396360,3800,3800,2929,8419,2699,3571,1442,2395,91,67,800
1184582,24409800,23019316,24478566,23397222,3800,3800,2639,8108,2243,3110,1445,2293,83,75,801
1185583,24410308,23019596,24479428,23398084,3800,3800,2373,7720,1763,2706,1883,1830,83,75,801
1186584,24410864,23019956,24480290,23398946,3800,3800,2091,7212,1264,2236,2627,1667,117,77,801
1187585,24411380,23020328,24481152,23399808,3800,3800,1751,6614,666,1572,3451,1296,117,77,801
1188586,24411976,23020732,24482014,23400670,3800,3800,1401,5890,-46,619,3726,899,107,75,802
1189587,24412540,23021164,24482876,23401532,3800,3800,1093,5212,-736,-264,3566,1171,107,75,802
1190588,24413148,23021624,24483738,23402394,3800,3800,795,4708,-1311,-918,3149,1694,111,96,803
1191589,24413816,23022080,24484600,23403256,3800,3800,491,4476,-1721,-1489,2632,2301,111,96,803
1192597,24414464,23022476,24485468,23404124,3800,3800,203,4333,-1968,-2117,2219,2433,124,89,802
1193591,24415120,23023024,24486330,23404986,3800,3800,22,4188,-2145,-2710,1991,2320,124,89,802
1194592,24415892,23023588,24487192,23405848,3800,3800,-38,3914,-2268,-3303,1850,1992,120,117,803
1195593,24416612,23024140,24488054,23406710,3800,3800,16,3612,-2279,-3742,1043,1894,120,117,803
1196594,24417416,23024756,24488916,23407572,3800,3800,160,3218,-2127,-4114,-414,1565,159,106,806
1197595,24418296,23025368,24489778,23408434,3800,3800,380,2788,-1803,-4553,-1483,1377,159,106,806
1198596,24419100,23026100,24490640,23409296,3800,3800,649,2331,-1398,-4893,-1784,1157,148,130,807
1199597,24419976,23026876,24491502,23410158,3800,3800,945,1790,-947,-5128,-1803,977,148,130,807
1200598,24420984,23027656,24492364,23411020,3800,3800,1213,1281,-427,-5278,-2159,1049,165,145,808
1201599,24421868,23028400,24493226,23411882,3800,3800,1490,676,149,-5525,-2375,546,165,145,808
1202600,24422788,23029220,24494088,23412744,3800,3800,1760,-57,763,-5879,-2491,267,169,164,809
1203601,24423668,23030080,24494950,23413606,3800,3800,2042,-715,1393,-6204,-2612,468,169,164,809
1204602,24424716,23030912,24495812,23414468,3800,3800,2325,-1303,2031,-6241,-2851,343,173,169,810
1205603,24425660,23031852,24496674,23415330,3800,3800,2606,-1963,2665,-6133,-3174,284,173,169,810
1206604,24426592,23032704,24497536,23416192,3800,3800,2820,-2392,3353,-6354,-3607,1242,179,187,810
1207605,24427600,23033584,24498398,23417054,3800,3800,2961,-2654,4092,-6694,-3953,1661,179,187,810
1208606,24428452,23034616,24499260,23417916,3800,3800,3053,-2909,4821,-6843,-4115,1687,196,181,811
1209607,24429372,23035604,24500122,23418778,3800,3800,3140,-3145,5541,-6843,-3964,1918,196,181,811
1210608,24430276,23036680,24500984,23419640,3800,3800,3230,-3433,6251,-6563,-3868,1510,191,213,812
1211616,24431056,23037756,24501852,23420508,3800,3800,3292,-4008,6917,-6082,-3760,1019,191,213,812
1212610,24431820,23038864,24502714,23421370,3800,3800,3415,-4811,7545,-5229,-3909,466,192,205,812
1213611,24432644,23039808,24503576,23422232,3800,3800,3479,-5878,8119,-3289,-3910,-46,192,205,812
1214612,24433316,23040812,24504438,23423094,3800,3800,3586,-7173,8612,-1066,-3811,-901,171,202,810
1215613,24434012,23041796,24505300,23423956,3800,3800,3457,-8203,8970,1055,-4003,1083,171,202,810
1216614,24434648,23042780,24506162,23424818,3800,3800,3247,-8933,9216,2304,-4676,1059,146,173,809
1217615,24435284,23043568,24507024,23425680,3800,3800,2975,-9733,9357,3137,-4670,774,146,173,809
1218616,24435816,23044348,24507886,23426542,3800,3800,2723,-10584,9360,3776,-3958,1044,137,172,809
1219617,24436424,23044992,24508748,23427404,3800,3800,2405,-11288,9166,4372,-3891,1759,137,172,809
1220618,24436964,23045640,24509610,23428266,3800,3800,2026,-11701,8834,4790,-4146,2596,121,154,807
1221619,24437572,23046316,24510472,23429128,3800,3800,1613,-11843,8396,4920,-3924,3122,121,154,807
1222620,24438208,23046940,24511334,23429990,3800,3800,1200,-11699,7783,4762,-2774,3766,106,146,806
1223621,24438772,23047496,24512196,23430852,3800,3800,694,-11226,6940,4465,-864,4428,106,146,806
1224622,24439428,23048056,24513058,23431714,3800,3800,202,-10931,6030,4543,-533,3675,141,123,805
1225623,24439996,23048656,24513920,23432576,3800,3800,-226,-10398,5143,5053,237,4350,141,123,805
1226624,24440744,23049216,24514782,23433438,3800,3800,-653,-9974,4305,5364,901,4098,138,119,805
1227625,24441320,23049820,24515644,23434300,3800,3800,-1034,-9384,3451,5838,1278,4483,138,119,805
1228626,24441992,23050316,24516506,23435162,3800,3800,-1368,-9095,2503,5917,2354,3147,130,117,805
1229627,24442692,23050820,24517368,23436024,3800,3800,-1624,-9154,1430,5763,3307,2029,130,117,805
1230637,24443328,23051320,24518236,23436892,3800,3800,-1864,-9571,265,5374,3912,938,117,90,805
1231629,24443980,23051736,24519098,23437754,3800,3800,-2046,-10043,-694,5129,2379,1323,117,90,805
1232630,24444736,23052276,24519960,23438616,3800,3800,-2306,-9919,-1201,4831,-653,3822,138,96,804
1233631,24445424,23052716,24520822,23439478,3800,3800,-2811,-8748,-1347,5466,-832,7121,138,96,804
1234632,24446148,23053140,24521684,23440340,3800,3800,-3562,-6740,-1079,6248,-447,9180,153,105,806
1235633,24446920,23053636,24522546,23441202,3800,3800,-4000,-5423,-1025,4974,710,5241,153,105,806
1236634,24447672,23054176,24523408,23442064,3800,3800,-3822,-5442,-1261,3944,552,1946,155,109,805
1237635,24448392,23054568,24524270,23442926,3800,3800,-3452,-5786,-1529,4318,1336,2835,155,109,805
1238636,24449208,23055032,24525132,23443788,3800,3800,-3546,-5080,-1591,5149,1614,6297,150,98,805
1239637,24450016,23055480,24525994,23444650,3800,3800,-4003,-3493,-1284,5648,1412,7571,150,98,805
1240638,24450828,23055868,24526856,23445512,3800,3800,-4286,-1898,-982,5681,2960,6565,153,98,805
1241639,24451720,23056432,24527718,23446374,3800,3800,-4342,-809,-881,5590,4059,5946,153,98,805
1242640,24452540,23056940,24528580,23447236,3800,3800,-4270,-102,-967,5465,5085,4922,166,114,807
1243641,24453416,23057624,24529442,23448098,3800,3800,-4146,41,-1158,4955,5400,3041,166,114,807
1244642,24454288,23058292,24530304,23448960,3800,3800,-3975,-112,-1306,4736,5427,2571,162,127,807
1245643,24455184,23059068,24531166,23449822,3800,3800,-3897,-53,-1303,4701,4874,3631,162,127,807
1246644,24456052,23059828,24532028,23450684,3800,3800,-3994,551,-1333,4515,5398,5104,153,139,808
1247645,24456956,23060704,24532890,23451546,3800,3800,-4221,1726,-1429,4502,5398,6517,153,139,808
1248646,24457884,23061544,24533752,23452408,3800,3800,-4374,3121,-1367,3911,4106,6019,165,167,808
1249654,24458728,23062480,24534620,23453276,3800,3800,-4315,3911,-1298,2924,4353,4215,165,167,808
1250648,24459568,23063388,24535482,23454138,3800,3800,-4136,4225,-1307,2037,3628,3599,181,185,810
1251649,24460540,23064236,24536344,23455000,3800,3800,-4015,4589,-1264,1693,2402,4132,181,185,810
1252650,24461192,23065080,24537206,23455862,3800,3800,-3947,4731,-1158,1782,1810,2804,183,195,811
