"Data file recorded 2014/9/24  16:50:25"
"%  Right Stride Frequency         = 13.0"
"%  Left Stride Frequency         = 13.0"
"%  Phase (Fractional)         = 32768.0"
"%  Experiment.py "
"%  Motor Gains    = [1800, 200, 100, 0, 0, 1800, 200, 100, 0, 0]
"% Columns: "
"% time | Right Leg Pos | Left Leg Pos | Commanded Right Leg Pos | Commanded Left Leg Pos | DCR | DCL | GyroX | GryoY | GryoZ | AX | AY | AZ | RBEMF | LBEMF | VBatt "
11571,18771720,18095252,18745650,18123058,-3800,3800,-400,-475,595,465,-337,4068,-12,4,839
12572,18771696,18095232,18746512,18123920,-3800,3800,-401,-478,594,480,-340,4062,-8,-9,839
13573,18771656,18095284,18747374,18124782,-3800,3800,-402,-479,594,459,-336,4081,-8,-9,839
14574,18771500,18095356,18748236,18125644,-3800,3800,-404,-486,591,478,-327,4066,-35,-3,806
15575,18771288,18095452,18749098,18126506,-3800,3800,-404,-489,587,430,-286,4059,-35,-3,806
16576,18770976,18095528,18749960,18127368,-3800,3800,-409,-513,591,460,-449,3981,-42,-3,804
17577,18770632,18095584,18750822,18128230,-3800,3800,-425,-556,628,508,-499,3973,-42,-3,804
18578,18770224,18095652,18751684,18129092,-3800,3800,-449,-570,689,587,-589,3978,-78,-2,806
19566,18769732,18095748,18752546,18129954,-3738,3800,-484,-587,761,675,-562,4015,-78,-2,806
20567,18769264,18095836,18753408,18130816,-3306,3800,-515,-604,841,846,-427,4079,-86,8,807
21568,18768784,18095912,18754270,18131678,-2645,3800,-554,-569,948,1140,-392,4409,-86,8,807
22569,18768308,18095988,18755132,18132540,-2085,3800,-624,-414,1105,1273,-556,4692,-99,4,807
23570,18767820,18096060,18755994,18133402,-1418,3800,-697,-232,1266,1297,-387,4723,-99,4,807
24571,18767396,18096148,18756856,18134264,-1256,3800,-738,-83,1402,1359,10,4541,-83,15,812
25573,18766992,18096232,18757718,18135126,-827,3800,-738,-62,1507,1407,151,4275,-83,15,812
26573,18766624,18096312,18758580,18135988,-513,3800,-719,6,1627,1212,20,4306,-74,17,815
27575,18766308,18096396,18759442,18136850,-322,3800,-719,109,1815,913,-429,4593,-74,17,815
28575,18766012,18096504,18760304,18137712,61,3800,-774,343,2071,642,-1337,4978,-71,14,818
29576,18765712,18096612,18761166,18138574,596,3800,-897,732,2354,323,-2063,5330,-71,14,818
30577,18765432,18096708,18762028,18139436,972,3800,-1049,1122,2613,180,-2070,5143,-47,17,819
31578,18765236,18096836,18762890,18140298,911,3800,-1190,1353,2801,198,-1676,4839,-47,17,819
32599,18765048,18096964,18761172,18138580,3800,3800,-1335,1520,2939,21,-1198,4830,-50,16,819
33593,18764864,18097100,18762034,18139442,3800,3800,-1450,1707,3064,-251,-954,4755,-50,16,819
34594,18764812,18097204,18762896,18140304,3800,3800,-1533,1807,3181,-516,-875,4440,-19,20,816
35595,18764864,18097324,18763758,18141166,3800,3800,-1563,1844,3280,-940,-806,4354,-19,20,816
36596,18765016,18097464,18764620,18142028,3800,3800,-1544,1831,3317,-1263,-506,3993,12,30,803
37597,18765208,18097608,18765482,18142890,3800,3800,-1468,1648,3238,-1327,188,3318,12,30,803
38598,18765476,18097772,18766344,18143752,3800,3800,-1347,1380,3075,-1229,666,3195,55,30,804
39598,18765784,18097940,18767206,18144614,3800,3800,-1189,1045,2891,-1078,557,2974,55,30,804
40600,18766148,18098104,18768068,18145476,3800,3800,-980,534,2674,-913,413,2557,75,31,806
41601,18766540,18098280,18768930,18146338,3800,3800,-708,3,2389,-1013,1118,2484,75,31,806
42589,18767004,18098464,18769792,18147200,3653,3800,-436,-561,2064,-1214,1749,2393,78,45,807
43603,18767436,18098644,18770654,18148062,3800,3800,-216,-1041,1720,-1490,1718,2601,78,45,807
44604,18767900,18098844,18771516,18148924,3800,3800,-45,-1585,1336,-1810,1826,2447,82,50,808
45592,18768432,18099064,18772378,18149786,3739,3800,84,-2072,903,-2093,1715,2488,82,50,808
46606,18768952,18099296,18773240,18150648,3800,3800,188,-2512,500,-2380,1147,2767,108,44,809
47607,18769452,18099532,18774102,18151510,3800,3800,261,-2912,191,-2088,993,3027,108,44,809
48608,18770040,18099804,18774964,18152372,3800,3800,355,-3231,-18,-1278,1096,3189,102,49,809
49609,18770560,18100052,18775826,18153234,3800,3800,487,-3679,-158,-534,1415,2600,102,49,809
50610,18771132,18100296,18776688,18154096,3800,3800,697,-4247,-277,-37,1555,2453,117,49,809
51617,18771756,18100564,18777556,18154964,3800,3800,895,-4906,-353,359,1810,2255,117,49,809
52612,18772292,18100884,18778418,18155826,3800,3800,1058,-5598,-362,956,1747,2282,110,71,810
53613,18772876,18101184,18779280,18156688,3800,3800,1091,-6074,-324,1299,1257,3084,110,71,810
54614,18773548,18101448,18780142,18157550,3800,3800,1042,-6233,-246,1321,342,4140,126,72,810
55614,18774124,18101744,18781004,18158412,3800,3800,887,-6110,-156,1387,-397,4859,126,72,810
56616,18774740,18102076,18781866,18159274,3800,3800,704,-5778,-90,1494,-447,5343,128,74,810
57617,18775436,18102412,18782728,18160136,3800,3800,466,-5237,-62,1698,-682,6165,128,74,810
58618,18776104,18102728,18783590,18160998,3800,3800,215,-4514,-81,1673,-1006,6511,119,73,809
59619,18776768,18103032,18784452,18161860,3800,3800,33,-3812,-64,1899,-1591,7006,119,73,809
60607,18777576,18103340,18785314,18162722,3697,3800,9,-2774,-57,2583,-1630,9421,127,82,810
61621,18778280,18103732,18786176,18163584,3800,3800,33,-2008,-83,2371,-1303,6657,127,82,810
62622,18779060,18104120,18787038,18164446,3800,3800,22,-1688,-135,2147,-1021,4962,136,92,812
63610,18779916,18104484,18787900,18165308,3509,3800,-10,-1703,-194,2163,-874,4474,136,92,812
64611,18780760,18104900,18788762,18166170,3594,3800,1,-1769,-245,2378,-213,4271,163,79,813
65612,18781624,18105332,18789624,18167032,3469,3800,27,-1808,-323,2270,566,4169,163,79,813
66613,18782500,18105724,18790486,18167894,3390,3800,83,-1969,-483,1895,1046,3565,172,85,814
67614,18783492,18106232,18791348,18168756,2610,3800,175,-2293,-720,1461,1305,3094,172,85,814
68615,18784408,18106756,18792210,18169618,3062,3800,490,-3112,-1102,511,545,2829,173,91,815
69616,18785352,18107208,18793072,18170480,2852,3800,650,-3275,-1174,-163,-192,3655,173,91,815
70624,18786328,18107744,18793940,18171348,2607,3800,839,-3275,-1119,-1206,-697,4034,186,98,817
71618,18787236,18108328,18794802,18172210,3012,3800,975,-2915,-927,-2169,-1569,5222,186,98,817
72619,18788104,18108880,18795664,18173072,3262,3800,1106,-2417,-658,-3287,-2240,5509,171,112,819
73620,18789072,18109564,18796526,18173934,2591,3800,1208,-1865,-335,-4494,-2646,5967,171,112,819
74621,18789944,18110220,18797388,18174796,3189,3800,1261,-1125,132,-5646,-3757,6535,176,133,818
75622,18790776,18110968,18798250,18175658,3453,3800,1336,-452,754,-6526,-4445,6028,176,133,818
76623,18791652,18111700,18799112,18176520,3174,3800,1470,-8,1419,-6812,-4023,5390,190,145,819
77637,18792400,18112460,18799974,18177382,3800,3800,1718,120,2090,-6785,-3294,4289,190,145,819
78638,18793172,18113252,18800836,18178244,3800,3800,1959,-87,2786,-6579,-3447,3737,165,148,818
79639,18793936,18114152,18801698,18179106,3800,3800,2250,-393,3548,-6407,-3439,3256,165,148,818
80640,18794600,18115020,18802560,18179968,3800,3800,2521,-884,4365,-5889,-3133,2724,166,152,815
81641,18795224,18115852,18803422,18180830,3800,3800,2845,-1650,5105,-4606,-2476,1619,166,152,815
82642,18795876,18116800,18804284,18181692,3800,3800,3144,-2660,5733,-3016,-1770,900,152,155,815
83643,18796444,18117752,18805146,18182554,3800,3800,3451,-3943,6258,-913,-1259,-81,152,155,815
84644,18796980,18118752,18806008,18183416,3800,3800,3674,-5182,6693,839,-1077,170,143,179,816
85645,18797540,18119740,18806870,18184278,3800,3800,3785,-6024,7203,2000,-2103,1543,143,179,816
86646,18798088,18120828,18807732,18185140,3800,3800,3767,-6415,7670,2576,-2464,2532,122,183,816
87647,18798536,18121800,18808594,18186002,3800,3800,3763,-6632,7965,3399,-1485,2529,122,183,816
88648,18799040,18122768,18809456,18186864,3800,3800,3779,-6869,8019,4017,-840,2521,116,191,816
89658,18799596,18123832,18810324,18187732,3800,3800,3771,-6795,7850,4360,-251,3627,116,191,816
90650,18800112,18124860,18811186,18188594,3800,3800,3736,-6638,7556,4397,-299,3738,111,199,816
91651,18800652,18125760,18812048,18189456,3800,3800,3640,-6088,7217,4416,-1095,5276,111,199,816
92652,18801272,18126728,18812910,18190318,3800,3800,3404,-4834,6842,4762,-743,6928,125,197,815
93653,18801896,18127632,18813772,18191180,3800,3800,3044,-3394,6393,5008,-757,7100,125,197,815
94654,18802448,18128412,18814634,18192042,3800,3800,2726,-1857,5833,5135,12,7010,133,168,815
95655,18803104,18129352,18815496,18192904,3800,3800,2448,-469,5154,4732,235,6693,133,168,815
96656,18803652,18130048,18816358,18193766,3800,3800,2143,817,4320,4296,-367,6674,130,173,815
97657,18804324,18130804,18817220,18194628,3800,3800,1830,2033,3387,4296,318,5900,130,173,815
98658,18804928,18131484,18818082,18195490,3800,3800,1499,3064,2372,4096,1963,5396,134,148,814
99659,18805564,18132140,18818944,18196352,3800,3800,1111,3976,1245,4244,3304,5095,134,148,814
100660,18806184,18132724,18819806,18197214,3800,3800,638,4780,282,4665,2211,4662,139,142,814
101661,18806900,18133368,18820668,18198076,3800,3800,101,5512,-584,4614,3139,4362,139,142,814
102662,18807524,18133928,18821530,18198938,3800,3800,-483,6156,-1548,4617,3610,3950,141,134,813
103663,18808252,18134548,18822392,18199800,3800,3800,-926,6277,-2654,4443,3840,1598,141,134,813
104664,18809076,18135172,18823254,18200662,3800,3800,-1111,5724,-3848,4121,3772,-317,151,119,811
105665,18809776,18135808,18824116,18201524,3800,3800,-1183,4794,-5010,4227,3524,-1318,151,119,811
106666,18810552,18136444,18824978,18202386,3800,3800,-1383,4143,-5901,4895,2872,228,138,119,814
107667,18811304,18137144,18825840,18203248,3800,3800,-1926,4387,-6345,5645,2016,2937,138,119,814
108674,18812196,18137756,18826708,18204116,3800,3800,-2690,4836,-6746,5861,3462,2252,169,152,815
109669,18813036,18138460,18827570,18204978,3800,3800,-3368,4592,-7378,5601,4602,-244,169,152,815
110670,18813916,18139232,18828432,18205840,3800,3800,-3738,3446,-8292,4780,5229,-2353,169,149,815
111671,18814908,18139868,18829294,18206702,3800,3800,-3936,1856,-9284,4334,5458,-2965,169,149,815
112671,18815860,18140656,18830156,18207564,3800,3800,-4098,295,-9909,3967,3400,-2976,176,141,816
113673,18816868,18141272,18831018,18208426,3800,3800,-4231,-1120,-10061,3474,1842,-3005,176,141,816
114674,18818016,18142028,18831880,18209288,3800,3800,-4377,-2133,-9860,2967,809,-1483,168,172,815
115675,18818964,18142900,18832742,18210150,3800,3800,-4546,-2611,-9452,2416,300,113,168,172,815
116676,18819948,18143784,18833604,18211012,3800,3800,-4647,-2710,-8955,1952,-40,880,207,179,817
117676,18821100,18144884,18834466,18211874,3800,3800,-4669,-2678,-8422,1566,-117,1112,207,179,817
118678,18822064,18145952,18835328,18212736,3800,3800,-4632,-2695,-7928,1394,263,1131,211,198,819
119678,18823076,18146976,18836190,18213598,3800,3800,-4607,-2674,-7468,948,1025,1761,211,198,819
120679,18824228,18147908,18837052,18214460,3800,3800,-4650,-2409,-6987,162,1401,2652,206,194,819
121681,18824964,18148896,18837914,18215322,3800,3800,-4766,-1733,-6493,-416,1512,3718,206,194,819
122682,18825852,18149984,18838776,18216184,3800,3800,-4914,-783,-5971,-335,2195,4013,206,216,819
123683,18826796,18151100,18839638,18217046,3800,3800,-5136,21,-5391,-8,2861,3830,206,216,819
124684,18827588,18152124,18840500,18217908,3800,3800,-5352,842,-4663,606,2942,4362,182,237,820
125685,18828380,18153132,18841362,18218770,3800,3800,-5469,1575,-3769,612,2806,3981,182,237,820
126686,18829228,18154080,18842224,18219632,3800,3800,-5553,2163,-2764,507,1737,3894,176,212,819
127694,18830040,18155024,18843092,18220500,3800,3800,-5923,3211,-1554,931,-570,6269,176,212,819
128687,18830764,18156036,18843954,18221362,3800,3800,-6887,4969,-66,586,-4217,7734,172,199,819
129689,18831436,18156960,18844816,18222224,3800,3800,-7989,6482,1294,284,-4071,6069,172,199,819
130690,18832176,18157792,18845678,18223086,3800,3800,-8425,6973,2066,505,-929,3214,179,207,818
131691,18832832,18158628,18846540,18223948,3800,3800,-8226,6546,2296,838,822,2005,179,207,818
132692,18833436,18159452,18847402,18224810,3800,3800,-7864,5811,2365,1180,440,1783,141,190,817
133693,18834112,18160248,18848264,18225672,3800,3800,-7573,5221,2489,1523,-544,2309,141,190,817
134694,18834708,18160880,18849126,18226534,3800,3800,-6194,6151,2801,2881,-3503,12236,139,150,815
135695,18835332,18161468,18849988,18227396,3800,3800,-604,17025,3231,8952,-12703,32767,139,150,815
136696,18835992,18161976,18850850,18228258,3800,3800,4874,25444,3306,6178,-6511,23795,143,110,812
137697,18836580,18162488,18851712,18229120,3800,3800,6210,25333,3045,3774,-2691,-867,143,110,812
138698,18837164,18162932,18852574,18229982,3800,3800,5629,21698,2672,3474,-3064,-1915,110,93,811
139699,18837844,18163388,18853436,18230844,3800,3800,4816,18246,2297,3466,-4638,-1283,110,93,811
140700,18838496,18163800,18854298,18231706,3800,3800,4472,16648,1937,2295,-5963,-466,141,82,812
141701,18839140,18164120,18855160,18232568,3800,3800,6047,13430,1329,-3082,-32768,-1436,141,82,812
142702,18839816,18164420,18856022,18233430,3800,3800,9141,9676,678,-4412,-29273,-1856,121,72,810
143703,18840472,18164696,18856884,18234292,3800,3800,9607,7435,177,74,-1861,-126,121,72,810
144704,18841144,18165040,18857746,18235154,3800,3800,8558,5887,-544,-574,-352,-1150,122,76,810
145705,18841864,18165332,18858608,18236016,3800,3800,7237,4470,-1530,-1225,954,-384,122,76,810
146713,18842560,18165620,18859476,18236884,3800,3800,6380,2614,-2587,-2124,1454,-1049,139,75,810
147707,18843264,18165892,18860338,18237746,3800,3800,5658,386,-3621,-3228,1131,-969,139,75,810
148708,18844012,18166216,18861200,18238608,3800,3800,4956,-2644,-4265,-9183,1272,-1660,147,77,810
149709,18844764,18166540,18862062,18239470,3800,3800,4309,-7639,-4434,-12562,539,-3770,147,77,810
150710,18845532,18166916,18862924,18240332,3800,3800,2807,-11283,-4029,-7320,-1804,3180,148,65,811
151710,18846372,18167264,18863786,18241194,3800,3800,835,-11990,-3245,-5206,-1327,6919,148,65,811
152711,18847264,18167656,18864648,18242056,3800,3800,-460,-11926,-2904,-4317,680,4059,173,75,810
153713,18848156,18168060,18865510,18242918,3800,3800,-920,-12015,-3044,-3091,1587,3265,173,75,810
154713,18849100,18168472,18866372,18243780,3800,3800,-1172,-12541,-3157,-3255,2110,3526,172,87,812
155715,18850088,18168900,18867234,18244642,3800,3800,-1358,-13132,-2972,-2898,1620,3284,172,87,812
156716,18851044,18169400,18868096,18245504,3800,3800,-1588,-13574,-2386,-2523,807,4245,174,108,813
157717,18851980,18169876,18868958,18246366,3800,3800,-1719,-13627,-1450,-2565,381,4958,174,108,813
158718,18852988,18170424,18869820,18247228,3800,3800,-1854,-13466,-407,-2286,335,5511,183,100,814
159719,18853996,18171012,18870682,18248090,3800,3800,-1903,-13087,661,-2767,771,6091,183,100,814
160720,18854944,18171616,18871544,18248952,3800,3800,-1904,-12809,1725,-3776,1164,6118,192,131,815
161721,18856000,18172332,18872406,18249814,3800,3800,-1846,-12530,2693,-4479,1387,6193,192,131,815
162722,18856892,18172956,18873268,18250676,3800,3800,-1698,-12069,3556,-5470,1806,6524,179,127,815
163723,18857792,18173696,18874130,18251538,3800,3800,-1508,-11524,4379,-5893,1838,6849,179,127,815
164724,18858756,18174412,18874992,18252400,3800,3800,-1236,-11021,5069,-6054,1758,6316,173,147,816
165734,18859584,18175204,18875860,18253268,3800,3800,-860,-10846,5763,-5983,1623,5701,173,147,816
166726,18860420,18176156,18876722,18254130,3800,3800,-348,-10863,6420,-5304,1467,4547,177,176,816
167727,18861284,18176944,18877584,18254992,3800,3800,179,-11258,6995,-4584,1341,3567,177,176,816
168728,18862088,18177912,18878446,18255854,3800,3800,855,-11638,7546,-3659,945,3441,173,162,816
169729,18862832,18178816,18879308,18256716,3800,3800,1561,-12031,8027,-2384,623,3106,173,162,816
170730,18863700,18179728,18880170,18257578,3800,3800,2234,-12367,8408,-1160,341,3433,170,188,816
171731,18864412,18180772,18881032,18258440,3800,3800,3056,-12744,8644,-480,273,2614,170,188,816
172732,18865148,18181864,18881894,18259302,3800,3800,3943,-13437,8672,487,251,1460,173,188,817
173733,18865868,18182772,18882756,18260164,3800,3800,4858,-14156,8523,1653,521,1107,173,188,817
174733,18866688,18183864,18883618,18261026,3800,3800,5640,-14781,8272,2474,460,1224,163,187,817
175735,18867484,18184904,18884480,18261888,3800,3800,6330,-15031,7994,3089,346,1787,163,187,817
176735,18868236,18186040,18885342,18262750,3800,3800,6822,-14775,7822,3213,-457,3070,145,190,818
177737,18869084,18187084,18886204,18263612,3800,3800,7186,-13947,7564,2851,-736,4238,145,190,818
178738,18869892,18188148,18887066,18264474,3800,3800,7524,-12810,7194,2703,-1173,4215,149,192,818
179739,18870664,18189268,18887928,18265336,3800,3800,7915,-11568,6849,2603,-2173,4163,149,192,818
180740,18871616,18190256,18888790,18266198,3800,3800,8206,-10001,6621,2149,-3775,5463,168,205,817
181741,18872488,18191244,18889652,18267060,3800,3800,8364,-7961,6165,1590,-2330,6166,168,205,817
182742,18873300,18192380,18890514,18267922,3800,3800,7699,-4085,4252,10579,-11460,11410,178,207,819
183743,18874248,18193392,18891376,18268784,3800,3800,5796,1946,300,10253,-20300,3188,178,207,819
184750,18875188,18194424,18892244,18269652,3800,3800,4844,5772,-1802,-1552,-6623,-6921,172,211,819
185745,18876088,18195288,18893106,18270514,3800,3800,5083,7622,-1603,1244,-4321,-3554,172,211,819
186745,18877056,18196268,18893968,18271376,3800,3800,5502,7887,-716,3696,-4039,1715,163,208,819
187747,18878080,18197324,18894830,18272238,3800,3800,5813,8390,-334,6807,-3230,442,163,208,819
188748,18879052,18198420,18895692,18273100,3800,3800,5872,8335,-535,7286,-2111,-1706,197,212,819
189749,18880176,18199420,18896554,18273962,3800,3800,5959,8024,-984,7217,-222,-2645,197,212,819
190750,18881220,18200416,18897416,18274824,3800,3800,5826,7239,-1469,7565,494,-3312,195,202,818
191751,18882260,18201460,18898278,18275686,3800,3800,5900,6121,-1753,7014,-99,-4684,195,202,818
192752,18883304,18202384,18899140,18276548,3800,3800,5876,5392,-1692,7657,-1686,-3293,211,201,819
193753,18884484,18203388,18900002,18277410,3800,3800,5835,5288,-1392,7420,-2370,-2110,211,201,819
194754,18885488,18204440,18900864,18278272,3800,3800,5657,4994,-1010,7110,-1602,-2589,213,202,820
195755,18886528,18205316,18901726,18279134,3800,3800,5555,4272,-820,7687,-283,-4258,213,202,820
196756,18887600,18206352,18902588,18279996,3800,3800,5413,3149,-880,7568,1305,-4787,200,195,820
197757,18888548,18207336,18903450,18280858,3800,3800,5249,2172,-1161,7131,2704,-4203,200,195,820
198758,18889588,18208388,18904312,18281720,3800,3800,5033,1420,-1564,6208,3786,-3907,206,200,819
199759,18890524,18209512,18905174,18282582,3800,3800,4592,1493,-1869,5570,4310,-928,206,200,819
200760,18891424,18210660,18906036,18283444,3800,3800,4153,2787,-1798,5143,3331,1466,208,215,820
201761,18892384,18211816,18906898,18284306,3800,3800,3852,4651,-1493,3994,3255,2140,208,215,820
202762,18893352,18212892,18907760,18285168,3800,3800,3626,6457,-1217,2636,3720,2209,201,227,820
203770,18894208,18214112,18908628,18286036,3800,3800,3429,8243,-1026,2081,4402,2302,201,227,820
204764,18895088,18215260,18909490,18286898,3800,3800,3120,9996,-999,1254,5290,2276,213,244,822
205765,18896068,18216448,18910352,18287760,3800,3800,2828,11755,-1002,629,5145,2256,213,244,822
206766,18896924,18217608,18911214,18288622,3800,3800,2516,13504,-1052,606,6209,2297,202,253,822
207767,18897760,18218740,18912076,18289484,3800,3800,2063,15216,-1171,728,7900,1940,202,253,822
208768,18898672,18219824,18912938,18290346,3800,3800,1512,16512,-1375,698,9512,704,188,250,821
209769,18899472,18220840,18913800,18291208,3800,3800,1009,17126,-1619,838,10237,-661,188,250,821
210770,18900232,18221996,18914662,18292070,3800,3800,651,17284,-1938,1233,11278,-1827,178,248,820
211771,18901028,18223032,18915524,18292932,3800,3800,425,16857,-2525,1320,12792,-3469,178,248,820
212772,18901692,18223976,18916386,18293794,3800,3800,150,16085,-3406,2468,14522,-3991,164,212,817
213773,18902376,18224976,18917248,18294656,3800,3800,-382,15249,-4218,3719,13109,-3895,164,212,817
214774,18903016,18225920,18918110,18295518,3800,3800,-1218,14356,-4730,4369,10082,-3955,148,196,816
215775,18903708,18226944,18918972,18296380,3800,3800,-2105,12800,-5211,4617,8924,-5655,148,196,816
216776,18904344,18227776,18919834,18297242,3800,3800,-2947,10352,-5787,4765,8514,-7236,138,197,816
217777,18904988,18228592,18920696,18298104,3800,3800,-3799,8055,-6253,4976,7183,-5690,138,197,816
218778,18905652,18229376,18921558,18298966,3800,3800,-4881,6218,-6542,4789,6126,-4632,151,158,815
219779,18906312,18230040,18922420,18299828,3800,3800,-6101,4431,-6718,4767,5190,-5198,151,158,815
220780,18906956,18230636,18923282,18300690,3800,3800,-7230,2364,-6866,4595,5058,-6165,147,129,814
221781,18907696,18231232,18924144,18301552,3800,3800,-8172,174,-6971,3994,3968,-6125,147,129,814
222789,18908372,18231712,18925012,18302420,3800,3800,-9005,-1869,-7077,3096,2952,-5543,147,104,813
223783,18909068,18232196,18925874,18303282,3800,3800,-9787,-3443,-7164,2296,2236,-4297,147,104,813
224784,18909852,18232640,18926736,18304144,3800,3800,-10609,-4510,-7260,1954,1302,-3085,151,106,811
225785,18910576,18233076,18927598,18305006,3800,3800,-11527,-5140,-7520,1525,627,-1870,151,106,811
226786,18911372,18233504,18928460,18305868,3800,3800,-12400,-5470,-7910,639,314,-797,156,93,812
227787,18912268,18233864,18929322,18306730,3800,3800,-13151,-5482,-8325,-905,-712,378,156,93,812
228788,18913096,18234156,18930184,18307592,3800,3800,-13784,-5236,-8647,-2613,-2097,1449,164,79,812
229789,18913948,18234488,18931046,18308454,3800,3800,-14331,-4716,-8854,-3824,-3457,2516,164,79,812
230790,18914896,18234860,18931908,18309316,3800,3800,-14843,-3510,-8985,-4278,-5212,4478,171,90,811
231791,18915784,18235212,18932770,18310178,3800,3800,-15368,-1492,-8988,-5612,-6532,6051,171,90,811
232792,18916660,18235596,18933632,18311040,3800,3800,-15798,-8,-8841,-7360,-7845,5058,169,87,812
233793,18917660,18236020,18934494,18311902,3800,3800,-16106,957,-8551,-8257,-9181,4978,169,87,812
234794,18918508,18236460,18935356,18312764,3800,3800,-16028,1594,-8039,-9207,-9852,3874,178,79,811
235795,18919376,18236880,18936218,18313626,3800,3800,-15632,1631,-7415,-9891,-10688,2434,178,79,811
236796,18920276,18237412,18937080,18314488,3800,3800,-15027,1366,-6722,-10860,-11248,2692,161,94,812
237797,18921228,18237968,18937942,18315350,3800,3800,-14336,208,-5891,-13957,-12177,1627,161,94,812
238798,18922056,18238456,18938804,18316212,3800,3800,-13197,-5394,-4674,-21397,-15270,-4453,172,104,813
239799,18922896,18239088,18939666,18317074,3800,3800,-7972,-15219,-2879,-25180,-25336,22420,172,104,813
240799,18923784,18239632,18940528,18317936,3800,3800,2660,-23588,-1156,-15393,-19018,32767,179,118,815
241810,18924548,18240352,18941396,18318804,3800,3800,8128,-23448,529,-8833,-16365,21762,179,118,815
242802,18925344,18240992,18942258,18319666,3800,3800,7558,-18850,2240,-10302,-10962,13247,177,132,814
243803,18926096,18241904,18943120,18320528,3800,3800,6163,-16861,3458,-10093,-7508,5191,177,132,814
244804,18926792,18242664,18943982,18321390,3800,3800,5410,-16020,4149,-7807,-6837,10423,170,149,815
245805,18927456,18243504,18944844,18322252,3800,3800,3281,-12462,5764,-5184,-7827,21608,170,149,815
246806,18928136,18244348,18945706,18323114,3800,3800,494,-8147,8252,-3157,-12332,15783,154,160,814
247807,18928708,18245200,18946568,18323976,3800,3800,-1022,-6984,10319,-2668,-9221,5165,154,160,814
248807,18929304,18246240,18947430,18324838,3800,3800,-1246,-8183,11454,-299,-2956,3495,140,184,814
249809,18929880,18247108,18948292,18325700,3800,3800,-559,-10168,11574,2840,-18,-240,140,184,814
250810,18930428,18248052,18949154,18326562,3800,3800,377,-12877,11405,3718,247,-2617,125,173,814
251811,18930924,18249080,18950016,18327424,3800,3800,1227,-15507,11577,5478,-115,-1387,125,173,814
252811,18931540,18250020,18950878,18328286,3800,3800,1674,-16912,11989,8319,-856,1543,111,188,814
253813,18932072,18251120,18951740,18329148,3800,3800,2042,-17571,12540,8840,-1463,2144,111,188,814
254814,18932700,18252224,18952602,18330010,3800,3800,2674,-18160,13037,8967,-1609,2137,136,205,814
255815,18933300,18253220,18953464,18330872,3800,3800,3369,-18759,13266,9137,-1747,2752,136,205,814
256816,18934024,18254232,18954326,18331734,3800,3800,4178,-18812,13344,8503,-1289,4372,136,202,815
257817,18934620,18255216,18955188,18332596,3800,3800,4888,-17911,13249,8158,-1984,7114,136,202,815
258818,18935312,18256200,18956050,18333458,3800,3800,5407,-16167,12960,7391,-2684,8635,137,195,816
259819,18935988,18257264,18956912,18334320,3800,3800,5944,-14204,12333,6824,-2209,9337,137,195,816
260827,18936672,18258120,18957780,18335188,3800,3800,5166,-9286,9077,19090,-14351,17614,134,199,816
261821,18937360,18259036,18958642,18336050,3800,3800,3716,-4685,4444,9075,-10091,4857,134,199,816
262822,18938136,18259900,18959504,18336912,3800,3800,3915,-1290,2550,1843,141,8565,143,192,816
263823,18938828,18260700,18960366,18337774,3800,3800,4273,581,2744,3714,-858,10056,143,192,816
264824,18939544,18261564,18961228,18338636,3800,3800,5209,3402,3266,4533,-372,9631,160,176,816
265825,18940404,18262436,18962090,18339498,3800,3800,5403,6547,3629,6613,-607,12609,160,176,816
266826,18941240,18263228,18962952,18340360,3800,3800,5630,10298,3629,6721,1300,10888,159,182,816
267827,18942068,18264012,18963814,18341222,3800,3800,5757,12778,3018,6356,3588,7751,159,182,816
268828,18942956,18264776,18964676,18342084,3800,3800,6241,14199,1932,6534,4296,3413,174,176,815
269829,18943856,18265656,18965538,18342946,3800,3800,6627,14114,868,5976,3604,329,174,176,815
270830,18944792,18266552,18966400,18343808,3800,3800,6916,13493,-215,5778,3455,-1131,176,163,816
271831,18945812,18267316,18967262,18344670,3800,3800,7103,12346,-1450,5606,4201,-3760,176,163,816
272832,18946760,18268144,18968124,18345532,3800,3800,7270,11237,-2514,6514,3973,-2547,178,168,816
273833,18947764,18268884,18968986,18346394,3800,3800,7117,11005,-3001,7823,2755,-27,178,168,816
274834,18948876,18269752,18969848,18347256,3800,3800,6841,10963,-2979,7317,1672,-422,192,169,817
275835,18949944,18270664,18970710,18348118,3800,3800,6749,10509,-2867,6494,2458,-2241,192,169,817
276836,18950884,18271480,18971572,18348980,3800,3800,6527,9633,-2924,6169,3511,-2473,182,163,818
277837,18951912,18272388,18972434,18349842,3800,3800,6098,8853,-3250,5213,5108,-2365,182,163,818
278838,18952892,18273340,18973296,18350704,3800,3800,5397,8139,-3780,4047,6004,-2375,210,182,817
279846,18953908,18274296,18974164,18351572,3800,3800,4801,7529,-4306,3235,5154,-2809,210,182,817
280840,18954936,18275268,18975026,18352434,3800,3800,4325,6632,-4750,2015,5536,-3363,209,207,817
281841,18955876,18276352,18975888,18353296,3800,3800,3995,5802,-5140,1024,6160,-3422,209,207,817
282842,18956792,18277452,18976750,18354158,3800,3800,3611,5081,-5341,144,5406,-3245,212,229,819
283843,18957672,18278400,18977612,18355020,3800,3800,3177,4602,-5402,-637,4954,-2746,212,229,819
284843,18958660,18279612,18978474,18355882,3800,3800,2653,4294,-5418,-999,4636,-2372,212,228,820
285844,18959484,18280680,18979336,18356744,3800,3800,2149,4198,-5356,-1246,3624,-1791,212,228,820
286846,18960292,18281888,18980198,18357606,3800,3800,1687,4416,-5179,-1581,2687,-878,195,253,820
287847,18961192,18282976,18981060,18358468,3800,3800,1223,5004,-4919,-1722,2116,66,195,253,820
288848,18961916,18284012,18981922,18359330,3800,3800,670,5814,-4668,-1864,2094,437,177,225,820
289849,18962576,18285048,18982784,18360192,3800,3800,80,6609,-4458,-1757,2353,479,177,225,820
290850,18963304,18286044,18983646,18361054,3800,3800,-463,7082,-4396,-1485,3151,-439,154,214,818
291851,18963916,18287060,18984508,18361916,3800,3800,-1045,6931,-4391,-1131,2171,-1496,154,214,818
292852,18964460,18288152,18985370,18362778,3800,3800,-1607,6574,-4278,-681,379,-1776,142,202,818
293853,18965040,18289104,18986232,18363640,3800,3800,-2095,6079,-3903,-540,-584,-2185,142,202,818
294854,18965544,18290064,18987094,18364502,3800,3800,-2621,5435,-3436,-61,-361,-2713,123,209,817
295854,18966020,18291052,18987956,18365364,3800,3800,-3172,4438,-2975,863,-251,-3495,123,209,817
296856,18966504,18291984,18988818,18366226,3800,3800,-3692,3063,-2561,1647,186,-4244,111,189,816
297857,18966968,18292884,18989680,18367088,3800,3800,-4184,1434,-2212,2251,520,-4585,111,189,816
298865,18967408,18293632,18990548,18367956,3800,3800,-4697,-352,-1884,2505,361,-4834,91,170,814
299859,18967832,18294328,18991410,18368818,3800,3800,-5274,-2158,-1580,2724,65,-4411,91,170,814
300860,18968340,18294944,18992272,18369680,3800,3800,-5889,-3706,-1326,2961,-89,-3556,83,142,811
301861,18968784,18295456,18993134,18370542,3800,3800,-6642,-4678,-1114,2839,-317,-1473,83,142,811
302862,18969236,18295940,18993996,18371404,3800,3800,-7640,-4847,-944,2459,-697,1245,104,117,809
303863,18969784,18296372,18994858,18372266,3800,3800,-8770,-4187,-951,2028,-531,3890,104,117,809
304864,18970284,18296712,18995720,18373128,3800,3800,-9699,-3483,-1171,1769,-611,3327,108,95,810
305865,18970788,18297012,18996582,18373990,3800,3800,-10402,-3089,-1621,1902,-618,3285,108,95,810
306866,18971340,18297280,18997444,18374852,3800,3800,-10979,-2802,-2194,1842,-805,3822,98,59,809
307866,18971896,18297532,18998306,18375714,3800,3800,-11597,-2020,-2760,1140,-1520,6030,98,59,809
308868,18972488,18297776,18999168,18376576,3800,3800,-12247,-879,-3231,346,-2582,6835,122,45,808
309868,18973132,18297972,19000030,18377438,3800,3800,-12743,205,-3626,-214,-2315,7033,122,45,808
310870,18973760,18298156,19000892,18378300,3800,3800,-13094,1196,-4062,-799,-1239,7669,132,43,808
311870,18974388,18298376,19001754,18379162,3800,3800,-13316,2236,-4517,-1229,-1237,8231,132,43,808
312871,18975124,18298584,19002616,18380024,3800,3800,-13076,3402,-4853,-1774,-2408,10265,135,40,808
313873,18975820,18298820,19003478,18380886,3800,3800,-6922,13977,-3791,-8549,-11462,32767,135,40,808
314874,18976568,18299060,19004340,18381748,3800,3800,5758,28043,-1613,-12479,-12234,32767,137,43,808
315875,18977408,18299316,19005202,18382610,3800,3800,13379,30674,-849,-1926,-1406,15585,137,43,808
316876,18978216,18299548,19006064,18383472,3800,3800,13572,25444,-1395,1375,1357,-4242,165,64,810
317886,18979056,18299776,19006932,18384340,3800,3800,11306,17153,-1968,-3812,-544,-10409,165,64,810
318878,18980028,18300120,19007794,18385202,3800,3800,9917,7814,-1876,-7045,-2452,-12218,164,69,811
319879,18980904,18300524,19008656,18386064,3800,3800,9335,-1010,-948,-7698,-3443,-10301,164,69,811
320880,18981848,18300852,19009518,18386926,3800,3800,7559,-6285,493,-3252,-4451,-217,177,86,812
321881,18982736,18301280,19010380,18387788,3800,3800,4633,-7658,1488,-1043,8,4270,177,86,812
322882,18983792,18301744,19011242,18388650,3800,3800,2231,-8579,1421,-973,4059,87,169,81,811
323883,18984716,18302188,19012104,18389512,3800,3800,1519,-10885,914,-1392,2999,-4590,169,81,811
324884,18985656,18302772,19012966,18390374,3800,3800,1563,-13998,604,-1462,2346,-4991,177,107,812
325885,18986692,18303356,19013828,18391236,3800,3800,1472,-16760,669,-2475,1269,-3626,177,107,812
326886,18987592,18303876,19014690,18392098,3800,3800,998,-18851,1155,-4053,-140,-1374,190,107,813
327887,18988460,18304576,19015552,18392960,3800,3800,334,-19629,2050,-4838,-1736,2468,190,107,813
328888,18989388,18305168,19016414,18393822,3800,3800,-440,-18541,3221,-5316,-2550,6910,196,137,815
329889,18990228,18305952,19017276,18394684,3800,3800,-1068,-16819,4352,-6444,-2024,7286,196,137,815
330890,18991032,18306768,19018138,18395546,3800,3800,-1469,-15663,5252,-6940,-1817,6634,178,147,815
331891,18991852,18307632,19019000,18396408,3800,3800,-1553,-14403,5972,-7725,-1744,7210,178,147,815
332892,18992580,18308512,19019862,18397270,3800,3800,-1432,-13313,6626,-8435,-1803,6250,173,152,816
333893,18993280,18309348,19020724,18398132,3800,3800,-1301,-11800,7219,-8079,-2059,7716,173,152,816
334893,18994036,18310292,19021586,18398994,3800,3800,-1130,-10536,7825,-7849,-2007,5997,155,177,815
335895,18994720,18311268,19022448,18399856,3800,3800,-852,-9724,8343,-6612,-2183,4371,155,177,815
336902,18995336,18312220,19023316,18400724,3800,3800,-466,-9459,8710,-5524,-1783,2564,151,197,815
337897,18996096,18313256,19024178,18401586,3800,3800,-50,-9400,8972,-4483,-1380,2256,151,197,815
338898,18996756,18314248,19025040,18402448,3800,3800,367,-9123,9157,-3335,-1543,2054,152,197,816
339899,18997420,18315208,19025902,18403310,3800,3800,836,-8990,9368,-2520,-1797,1077,152,197,816
340900,18998208,18316296,19026764,18404172,3800,3800,1351,-8733,9603,-1362,-2026,1351,158,194,816
341901,18998896,18317516,19027626,18405034,3800,3800,1892,-8531,9765,-440,-2107,870,158,194,816
342902,18999684,18318516,19028488,18405896,3800,3800,2467,-8271,9859,576,-2509,984,151,218,817
343903,19000392,18319532,19029350,18406758,3800,3800,3087,-7888,9862,1287,-2892,884,151,218,817
344904,19001288,18320588,19030212,18407620,3800,3800,3723,-7482,9747,1490,-2601,673,167,210,817
345905,19002040,18321628,19031074,18408482,3800,3800,4252,-6961,9552,1729,-2630,1032,167,210,817
346906,19002792,18322728,19031936,18409344,3800,3800,4636,-6122,9326,1792,-2390,1740,174,214,817
347907,19003696,18323660,19032798,18410206,3800,3800,4893,-4991,9047,1940,-2151,2204,174,214,817
348908,19004472,18324628,19033660,18411068,3800,3800,5067,-3680,8710,2233,-2342,2490,173,205,817
349909,19005284,18325572,19034522,18411930,3800,3800,5148,-2062,8321,3212,-2615,3510,173,205,817
350909,19006220,18326372,19035384,18412792,3800,3800,5255,-807,7869,4201,-3744,1152,157,198,817
351911,19007108,18327404,19036246,18413654,3800,3800,5585,-508,7228,4762,-3695,-2030,157,198,817
352912,19007976,18328368,19037108,18414516,3800,3800,6009,-735,6483,5711,-2958,-2750,167,199,817
353913,19008984,18329224,19037970,18415378,3800,3800,6392,-1027,5792,6116,-3240,-3162,167,199,817
354914,19009932,18330088,19038832,18416240,3800,3800,6627,-1126,5281,6794,-3979,-2707,174,181,818
355922,19010940,18331036,19039700,18417108,3800,3800,6677,-760,4912,7831,-4008,-1766,174,181,818
356916,19012004,18331940,19040562,18417970,3800,3800,6530,-27,4639,8760,-3890,-934,201,188,816
357917,19012996,18332836,19041424,18418832,3800,3800,6406,288,4203,8380,-3182,-2935,201,188,816
358918,19014036,18333732,19042286,18419694,3800,3800,6345,-249,3497,8460,-2501,-4660,196,183,818
359919,19015172,18334544,19043148,18420556,3800,3800,6255,-951,2657,9124,-2136,-4689,196,183,818
360920,19016168,18335468,19044010,18421418,3800,3800,5967,-1573,1889,9146,-1852,-4396,211,168,818
361921,19017160,18336284,19044872,18422280,3800,3800,5584,-2345,1219,9032,-1773,-4771,211,168,818
362922,19018176,18337304,19045734,18423142,3800,3800,5108,-2872,575,9553,-518,-3500,212,163,818
363923,19019120,18338192,19046596,18424004,3800,3800,4566,-2986,-71,9686,392,-3217,212,163,818
364924,19020100,18339204,19047458,18424866,3800,3800,3939,-2966,-625,9484,93,-2937,217,197,818
365925,19021068,18340212,19048320,18425728,3800,3800,3314,-2977,-1073,8544,774,-2691,217,197,818
366926,19022032,18341212,19049182,18426590,3800,3800,2827,-2998,-1452,7633,1485,-2468,213,210,817
367927,19022908,18342332,19050044,18427452,3800,3800,2440,-2547,-1870,6972,1996,-1291,213,210,817
368928,19023844,18343380,19050906,18428314,3800,3800,2025,-1523,-2147,5508,2013,428,205,234,818
369929,19024836,18344524,19051768,18429176,3800,3800,1430,194,-2376,4293,2759,2451,205,234,818
370930,19025728,18345708,19052630,18430038,3800,3800,722,2191,-2639,3373,3524,2242,213,244,820
371931,19026592,18346788,19053492,18430900,3800,3800,161,4284,-2767,2366,4182,2272,213,244,820
372932,19027500,18347916,19054354,18431762,3800,3800,-364,6347,-2879,1775,4314,2385,191,233,820
373932,19028284,18349164,19055216,18432624,3800,3800,-850,8499,-2937,1373,3631,2784,191,233,820
374940,19029000,18350228,19056084,18433492,3800,3800,-1502,10716,-3066,1234,5050,2712,174,234,820
375934,19029728,18351308,19056946,18434354,3800,3800,-2210,12240,-3379,1650,6903,529,174,234,820
376935,19030372,18352316,19057808,18435216,3800,3800,-2771,12649,-3731,2541,8108,-1447,138,220,819
377937,19030948,18353376,19058670,18436078,3800,3800,-3269,12587,-4182,3387,9728,-2260,138,220,819
378938,19031576,18354404,19059532,18436940,3800,3800,-3744,11930,-4641,3555,9636,-4048,141,231,816
379938,19032104,18355528,19060394,18437802,3800,3800,-4232,10683,-4951,4273,7833,-4955,141,231,816
380939,19032576,18356592,19061256,18438664,3800,3800,-4786,9193,-5155,5196,7241,-5469,125,217,816
381940,19033076,18357592,19062118,18439526,3800,3800,-5489,7624,-5354,5805,6254,-4987,125,217,816
382941,19033524,18358500,19062980,18440388,3800,3800,-6415,6479,-5473,5977,4152,-2891,101,206,815
383942,19033960,18359372,19063842,18441250,3800,3800,-7412,5485,-5419,5599,2815,-2367,101,206,815
384944,19034440,18360228,19064704,18442112,3800,3800,-8301,4331,-5264,5465,2371,-3065,91,151,813
385945,19034900,18360876,19065566,18442974,3800,3800,-9161,2955,-5145,5516,1812,-2726,91,151,813
386946,19035316,18361452,19066428,18443836,3800,3800,-9950,1919,-5096,4893,1129,-1072,96,126,811
387947,19035808,18361980,19067290,18444698,3800,3800,-10656,1229,-5132,3784,639,-81,96,126,811
388948,19036312,18362412,19068152,18445560,3800,3800,-11291,807,-5369,2824,357,563,95,119,809
389949,19036800,18362796,19069014,18446422,3800,3800,-11789,545,-5833,2149,503,1128,95,119,809
390950,19037324,18363172,19069876,18447284,3800,3800,-12070,205,-6404,2056,157,955,104,89,808
391951,19037900,18363460,19070738,18448146,3800,3800,-12358,50,-6937,2208,-971,2574,104,89,808
392952,19038452,18363688,19071600,18449008,3800,3800,-12812,702,-7274,1785,-2460,5775,117,66,808
393962,19039044,18363892,19072468,18449876,3800,3800,-13138,1569,-7466,1212,-2800,5236,117,66,808
394954,19039708,18364092,19073330,18450738,3800,3800,-13225,2214,-7677,465,-2632,5037,120,50,808
395955,19040312,18364276,19074192,18451600,3800,3800,-13164,2766,-7924,-932,-1861,5781,120,50,808
396956,19040960,18364424,19075054,18452462,3800,3800,-13119,3257,-8210,-2068,-985,5985,138,43,808
397957,19041700,18364576,19075916,18453324,3800,3800,-13069,4006,-8525,-2852,-825,6546,138,43,808
398957,19042436,18364728,19076778,18454186,3800,3800,-12868,5390,-8710,-4187,-1935,8771,134,43,807
399958,19043192,18364884,19077640,18455048,3800,3800,-7494,15115,-7722,-10669,-12006,32767,134,43,807
400960,19044084,18365056,19078502,18455910,3800,3800,3722,32297,-5169,-13837,-16967,32767,136,31,807
401961,19044900,18365216,19079364,18456772,3800,3800,11508,32297,-3616,-6218,-5255,20099,136,31,807
402962,19045776,18365412,19080226,18457634,3800,3800,12670,32297,-3309,-11565,-1042,-7863,166,56,809
403963,19046716,18365676,19081088,18458496,3800,3800,11634,19789,-3096,-19684,-1910,-16109,166,56,809
404964,19047652,18365976,19081950,18459358,3800,3800,10933,3053,-1941,-24587,-4824,-18075,173,52,810
405965,19048520,18366248,19082812,18460220,3800,3800,10680,-10402,-82,-18755,-5806,-11900,173,52,810
406966,19049484,18366576,19083674,18461082,3800,3800,9230,-16292,1859,-10108,-6287,2467,163,75,811
407966,19050444,18366952,19084536,18461944,3800,3800,5371,-13092,3579,-4037,-3445,18771,163,75,811
408968,19051336,18367324,19085398,18462806,3800,3800,1189,-7469,4518,-3212,1798,14905,175,72,812
409969,19052256,18367708,19086260,18463668,3800,3800,-705,-5652,4643,-4440,2966,2685,175,72,812
410970,19053208,18368196,19087122,18464530,3800,3800,-491,-7864,4409,-5338,3252,-3112,178,80,810
411971,19054060,18368728,19087984,18465392,3800,3800,227,-11663,4401,-6709,3240,-3969,178,80,810
412978,19054888,18369216,19088852,18466260,3800,3800,424,-14363,4718,-6633,2430,-1616,178,88,812
413973,19055776,18369756,19089714,18467122,3800,3800,189,-15522,5331,-6447,2008,624,178,88,812
414974,19056564,18370356,19090576,18467984,3800,3800,-195,-15552,6274,-5963,1190,4076,175,112,813
415975,19057308,18370920,19091438,18468846,3800,3800,-696,-14806,7306,-4911,222,6454,175,112,813
416976,19058084,18371596,19092300,18469708,3800,3800,-1158,-13893,8325,-3809,180,6734,161,120,814
417977,19058780,18372292,19093162,18470570,3800,3800,-1398,-12962,9247,-2887,42,6408,161,120,814
418978,19059444,18373056,19094024,18471432,3800,3800,-1339,-12672,9894,-2795,795,4022,155,134,813
419979,19060208,18373780,19094886,18472294,3800,3800,-1287,-12466,10280,-2241,1644,5091,155,134,813
420979,19060828,18374548,19095748,18473156,3800,3800,-1207,-12250,10498,-1627,1129,3688,149,137,813
421981,19061496,18375336,19096610,18474018,3800,3800,-947,-12535,10588,-1321,324,1722,149,137,813
422982,19062204,18376244,19097472,18474880,3800,3800,-502,-12880,10607,-1015,-276,1823,148,158,813
423982,19062900,18377132,19098334,18475742,3800,3800,-170,-12762,10640,-148,-746,3364,148,158,813
424983,19063556,18377952,19099196,18476604,3800,3800,120,-12114,10642,492,-1270,3866,152,165,814
425985,19064304,18378888,19100058,18477466,3800,3800,500,-11256,10495,414,-1109,3442,152,165,814
426986,19065056,18379824,19100920,18478328,3800,3800,1012,-10678,10140,389,-1055,2320,154,181,814
427987,19065708,18380712,19101782,18479190,3800,3800,1563,-10049,9649,671,-1329,2592,154,181,814
428987,19066576,18381808,19102644,18480052,3800,3800,2020,-9069,9176,854,-1832,3326,155,198,815
429989,19067248,18382904,19103506,18480914,3800,3800,2391,-7804,8756,976,-2813,3269,155,198,815
430989,19068044,18383832,19104368,18481776,3800,3800,2735,-6564,8282,570,-2816,2657,163,204,815
431997,19068808,18384856,19105236,18482644,3800,3800,3122,-5474,7721,272,-2664,1841,163,204,815
432991,19069632,18385908,19106098,18483506,3800,3800,3148,-4143,6371,6891,-7165,2167,164,205,815
433993,19070444,18386952,19106960,18484368,3800,3800,2152,-800,1841,19302,-18848,-304,164,205,815
434994,19071244,18387860,19107822,18485230,3800,3800,1263,1980,-783,5486,-9732,741,172,197,816
435995,19072160,18388816,19108684,18486092,3800,3800,1578,3624,-737,1472,-6505,1143,172,197,816
436996,19073040,18389716,19109546,18486954,3800,3800,1937,3673,450,1636,-6298,227,177,186,817
437997,19073976,18390508,19110408,18487816,3800,3800,2454,3937,1299,3703,-5882,-1283,177,186,817
438998,19074956,18391380,19111270,18488678,3800,3800,2634,3519,1599,4039,-5061,-3244,189,174,817
439998,19075896,18392216,19112132,18489540,3800,3800,3011,2725,1688,3710,-3951,-4965,189,174,817
440999,19076880,18393016,19112994,18490402,3800,3800,3334,1154,1613,4032,-3194,-6350,198,184,817
442001,19078000,18393836,19113856,18491264,3800,3800,3720,-305,1606,4066,-2462,-6181,198,184,817
443001,19079012,18394572,19114718,18492126,3800,3800,3943,-1308,1821,5765,-1989,-5100,213,178,817
444003,19079996,18395400,19115580,18492988,3800,3800,3956,-1746,2097,6502,-1661,-4000,213,178,817
445003,19081092,18396268,19116442,18493850,3800,3800,3777,-1694,2335,6197,-893,-2247,214,177,816
446005,19082124,18397012,19117304,18494712,3800,3800,3475,-1230,2363,6583,-236,-1357,214,177,816
447005,19083144,18397844,19118166,18495574,3800,3800,3178,-827,2322,5623,-444,-1872,199,163,817
448006,19084160,18398552,19119028,18496436,3800,3800,2960,-795,2331,4918,-211,-2611,199,163,817
449007,19085140,18399368,19119890,18497298,3800,3800,2902,-1043,2318,4773,397,-3764,189,155,816
450009,19086128,18400132,19120752,18498160,3800,3800,2890,-1200,2311,4331,926,-3073,189,155,816
451017,19087004,18401156,19121620,18499028,3800,3800,2826,-745,2336,3985,1312,-1558,208,168,817
452011,19087952,18401868,19122482,18499890,3800,3800,2576,132,2408,3233,1253,-217,208,168,817
453012,19088864,18402776,19123344,18500752,3800,3800,2139,1522,2385,2150,2381,1203,210,172,817
454013,19089756,18403672,19124206,18501614,3800,3800,1502,3155,2283,2031,3258,1904,210,172,817
455014,19090688,18404616,19125068,18502476,3800,3800,778,5012,2152,1826,3985,2870,196,195,815
456015,19091564,18405700,19125930,18503338,3800,3800,94,7050,2033,1319,4051,3310,196,195,815
457016,19092408,18406632,19126792,18504200,3800,3800,-510,8746,1836,930,4044,2335,201,207,817
458017,19093264,18407704,19127654,18505062,3800,3800,-1237,10367,1369,800,5380,2617,201,207,817
459018,19093968,18408712,19128516,18505924,3800,3800,-2106,11863,611,575,6672,1922,168,213,818
460019,19094632,18409724,19129378,18506786,3800,3800,-2842,12563,-440,1002,7002,-471,168,213,818
461020,19095328,18410972,19130240,18507648,3800,3800,-3381,11936,-1577,2328,5659,-3459,138,228,818
462021,19095904,18412084,19131102,18508510,3800,3800,-3997,10549,-2619,3587,4365,-4265,138,228,818
463022,19096464,18413188,19131964,18509372,3800,3800,-4687,9020,-3501,3855,3160,-4476,131,237,817
464023,19097036,18414204,19132826,18510234,3800,3800,-5331,7371,-4146,3737,2096,-4309,131,237,817
465023,19097512,18415144,19133688,18511096,3800,3800,-5895,5881,-4652,4006,2075,-3842,124,208,816
466025,19097956,18416056,19134550,18511958,3800,3800,-6452,4450,-5004,4618,1662,-3606,124,208,816
467026,19098424,18417052,19135412,18512820,3800,3800,-6959,3006,-5222,4785,1611,-3651,101,196,814
468027,19098840,18417932,19136274,18513682,3800,3800,-7423,1373,-5334,4481,1015,-3410,101,196,814
469028,19099248,18418812,19137136,18514544,3800,3800,-7836,-277,-5388,4295,365,-2958,84,189,813
470038,19099712,18419712,19138004,18515412,3800,3800,-8199,-1780,-5402,4513,53,-2428,84,189,813
471030,19100128,18420556,19138866,18516274,3800,3800,-8500,-3040,-5433,4322,151,-1722,95,192,813
472031,19100592,18421560,19139728,18517136,3800,3800,-8781,-4023,-5421,4018,-320,-345,95,192,813
473032,19101088,18422424,19140590,18517998,3800,3800,-9022,-4486,-5339,3784,-721,1335,87,188,813
474033,19101648,18423248,19141452,18518860,3800,3800,-9341,-4289,-5162,3599,-1495,3809,87,188,813
475034,19102180,18423972,19142314,18519722,3800,3800,-9667,-3587,-4982,3584,-2188,5109,100,183,813
476035,19102748,18424680,19143176,18520584,3800,3800,-9902,-2738,-4917,3012,-2403,5604,100,183,813
477036,19103416,18425280,19144038,18521446,3800,3800,-10022,-1878,-4933,2122,-2836,6207,128,142,811
478037,19104048,18425880,19144900,18522308,3800,3800,-10063,-839,-4981,1329,-3756,7136,128,142,811
479038,19104700,18426344,19145762,18523170,3800,3800,-10126,488,-5006,412,-4827,8341,144,105,810
480039,19105444,18426736,19146624,18524032,3800,3800,-8316,4114,-4665,-793,-9028,19997,144,105,810
481040,19106132,18427112,19147486,18524894,3800,3800,-105,22558,-2843,-4170,-22315,32767,146,95,810
482041,19106856,18427464,19148348,18525756,3800,3800,7712,32297,-1682,607,-9265,27376,146,95,810
483042,19107720,18427772,19149210,18526618,3800,3800,9528,32297,-1926,2227,-2390,-2714,152,82,810
484043,19108524,18428020,19150072,18527480,3800,3800,8324,30423,-2733,2065,-1867,-3893,152,82,810
485044,19109372,18428284,19150934,18528342,3800,3800,7004,24943,-3488,1321,-1593,-6094,155,70,810
486045,19110328,18428548,19151796,18529204,3800,3800,6513,21268,-4013,-90,-1025,-5663,155,70,810
487046,19111200,18428788,19152658,18530066,3800,3800,6239,17902,-4218,-4397,-1178,-5507,170,63,808
488047,19112132,18429020,19153520,18530928,3800,3800,6217,10964,-3749,-19402,-1666,-10969,175,54,808
489055,19113140,18429264,19154388,18531796,3800,3800,6107,-84,-2786,-23473,-909,-13488,175,54,808
490049,19114068,18429532,19155250,18532658,3800,3800,5608,-10574,-1873,-18412,-1567,-9507,169,50,811
491050,19114972,18429800,19156112,18533520,3800,3800,3560,-15557,-771,-12968,-3156,3599,169,50,811
492051,19116048,18430084,19156974,18534382,3800,3800,96,-14706,538,-7639,-1621,12949,177,58,811
493052,19116992,18430376,19157836,18535244,3800,3800,-2869,-13042,1189,-7257,682,8621,177,58,811
494053,19117920,18430676,19158698,18536106,3800,3800,-3649,-14344,1124,-8334,150,-217,173,77,811
495054,19118812,18430948,19159560,18536968,3800,3800,-3327,-17038,949,-8205,890,-108,173,77,811
496055,19119772,18431336,19160422,18537830,3800,3800,-3086,-18988,1109,-6737,1320,1038,173,79,813
497056,19120624,18431700,19161284,18538692,3800,3800,-3121,-20034,1619,-6490,375,2087,173,79,813
498057,19121436,18432052,19162146,18539554,3800,3800,-3205,-20362,2447,-7309,-464,4376,166,91,810
499058,19122324,18432472,19163008,18540416,3800,3800,-3356,-20087,3488,-7340,626,7558,166,91,810
500059,19123068,18432956,19163870,18541278,3800,3800,-3461,-19019,4522,-6273,976,9422,168,93,811
501060,19123780,18433364,19164732,18542140,3800,3800,-3378,-18039,5518,-6055,978,8243,168,93,811
502061,19124548,18433860,19165594,18543002,3800,3800,-3130,-17442,6369,-5403,1715,7802,156,100,811
503062,19125192,18434364,19166456,18543864,3800,3800,-2920,-17084,7009,-3413,3050,7707,156,100,811
504063,19125864,18434804,19167318,18544726,3800,3800,-2827,-16536,7533,-1089,3329,8037,132,110,811
505064,19126496,18435392,19168180,18545588,3800,3800,-2692,-16095,8017,342,2857,6571,132,110,811
506065,19127120,18435952,19169042,18546450,3800,3800,-2415,-16189,8389,941,2620,5519,135,116,811
507066,19127664,18436500,19169904,18547312,3800,3800,-2037,-16153,8664,1932,2494,6323,135,116,811
508074,19128344,18437132,19170772,18548180,3800,3800,-1691,-15841,8816,3130,2955,6278,131,118,811
509067,19128960,18437728,19171634,18549042,3800,3800,-1284,-15637,8892,3942,3061,5108,131,118,811
510069,19129624,18438468,19172496,18549904,3800,3800,-778,-15467,8979,4383,2897,5462,135,141,811
511069,19130328,18439192,19173358,18550766,3800,3800,-241,-14983,9050,5179,2994,6336,135,141,811
512071,19131028,18439940,19174220,18551628,3800,3800,270,-13976,9097,5589,2604,7237,145,150,813
513071,19131644,18440636,19175082,18552490,3800,3800,810,-12869,8971,5433,2761,6464,145,150,813
514073,19132360,18441428,19175944,18553352,3800,3800,1412,-11998,8560,4935,2655,5928,148,149,813
515074,19133016,18442240,19176806,18554214,3800,3800,2126,-11117,8065,4589,1718,5875,148,149,813
516075,19133720,18443176,19177668,18555076,3800,3800,2704,-10150,7606,4222,1132,5948,145,172,814
517076,19134420,18444140,19178530,18555938,3800,3800,3097,-8850,7401,4019,-1562,6457,145,172,814
518077,19135172,18444920,19179392,18556800,3800,3800,3253,-6847,7287,3235,-2779,9099,165,178,815
519078,19135920,18445932,19180254,18557662,3800,3800,3269,-3945,7374,3540,-3828,11059,165,178,815
520079,19136680,18446964,19181116,18558524,3800,3800,3542,-1425,7300,2867,-2816,7732,169,200,814
521080,19137588,18448020,19181978,18559386,3800,3800,4218,260,6817,1712,-2801,5526,169,200,814
522081,19138420,18449112,19182840,18560248,3800,3800,4613,2200,5408,5269,-6755,7463,148,201,815
523082,19139292,18450184,19183702,18561110,3800,3800,3424,7081,1588,14581,-20601,1980,148,201,815
524083,19140308,18451192,19184564,18561972,3800,3800,2418,11361,-928,381,-10153,-9418,174,208,817
525084,19141204,18452088,19185426,18562834,3800,3800,2714,12625,-1208,2128,-5058,-63,174,208,817
526085,19142172,18453088,19186288,18563696,3800,3800,3411,12840,-266,5330,-5275,1862,175,202,817
527093,19143248,18454128,19187156,18564564,3800,3800,3747,13268,794,7301,-4719,3068,175,202,817
528087,19144256,18454988,19188018,18565426,3800,3800,4045,13427,1116,7056,-3283,-1750,183,184,817
529088,19145320,18455804,19188880,18566288,3800,3800,4432,12181,1007,6162,-2038,-4381,183,184,817
530089,19146428,18456592,19189742,18567150,3800,3800,5017,10420,762,6720,-1724,-5659,198,172,817
531090,19147412,18457272,19190604,18568012,3800,3800,5420,8591,476,6855,-1543,-5740,198,172,817
532091,19148404,18458024,19191466,18568874,3800,3800,5833,7159,310,6226,-1929,-4716,213,155,816
533092,19149480,18458736,19192328,18569736,3800,3800,5770,6686,349,6334,-3795,-1264,213,155,816
534093,19150432,18459508,19193190,18570598,3800,3800,5634,7320,442,5399,-3372,188,199,154,817
535094,19151416,18460176,19194052,18571460,3800,3800,5516,7639,382,4213,-1870,-1386,199,154,817
536095,19152324,18460932,19194914,18572322,3800,3800,5679,7694,114,3742,-987,-1820,213,155,816
537096,19153272,18461604,19195776,18573184,3800,3800,5855,7465,-152,2760,-120,-2175,213,155,816
538097,19154152,18462404,19196638,18574046,3800,3800,5947,7449,-575,2215,1666,-2221,193,142,816
539098,19155020,18463160,19197500,18574908,3800,3800,5647,7630,-1222,1458,3349,-1047,193,142,816
540099,19155972,18463892,19198362,18575770,3800,3800,5119,8508,-1834,539,3642,874,193,142,816
541100,19156872,18464652,19199224,18576632,3800,3800,4497,9418,-2315,-86,4528,-111,193,142,816
542101,19157760,18465352,19200086,18577494,3800,3800,3915,10231,-2697,-818,5445,229,211,148,815
543102,19158684,18466212,19200948,18578356,3800,3800,3373,11033,-2974,-1160,5614,289,211,148,815
544103,19159480,18467024,19201810,18579218,3800,3800,2882,11536,-3447,-1097,6354,-733,201,163,814
545104,19160240,18467780,19202672,18580080,3800,3800,2543,11774,-4242,-1183,7378,-1593,201,163,814
546114,19161056,18468708,19203540,18580948,3800,3800,2126,11839,-5274,-1062,8627,-1664,167,156,814
547106,19161712,18469552,19204402,18581810,3800,3800,1613,11556,-6354,-919,7796,-2626,167,156,814
548107,19162312,18470456,19205264,18582672,3800,3800,974,11067,-7058,107,4343,-2078,144,170,814
549108,19162944,18471484,19206126,18583534,3800,3800,275,10620,-7080,1174,973,-1885,144,170,814
550109,19163480,18472440,19206988,18584396,3800,3800,-445,9817,-6694,1990,324,-2696,130,203,815
551110,19164004,18473348,19207850,18585258,3800,3800,-1042,8612,-6346,2277,929,-3889,130,203,815
552110,19164540,18474396,19208712,18586120,3800,3800,-1555,6939,-6066,2331,1133,-4698,109,200,815
553112,19165032,18475472,19209574,18586982,3800,3800,-2014,5028,-5763,2751,775,-5284,109,200,815
554113,19165512,18476648,19210436,18587844,3800,3800,-2541,2946,-5363,2801,90,-5447,107,215,814
555114,19166044,18477696,19211298,18588706,3800,3800,-3072,907,-4852,2342,-243,-4962,107,215,814
556115,19166524,18478696,19212160,18589568,3800,3800,-3618,-906,-4328,1969,-157,-4292,111,206,814
557116,19167044,18479672,19213022,18590430,3800,3800,-4166,-2476,-3844,1426,194,-3789,111,206,814
558117,19167524,18480588,19213884,18591292,3800,3800,-4833,-3859,-3441,1136,247,-3089,112,205,814
559118,19168136,18481492,19214746,18592154,3800,3800,-5702,-4794,-3151,1218,-129,-1216,112,205,814
560119,19168676,18482520,19215608,18593016,3800,3800,-6699,-5311,-2973,1018,-707,-206,130,184,814
561120,19169224,18483448,19216470,18593878,3800,3800,-7648,-5710,-2934,301,-1005,-102,130,184,814
562121,19169912,18484384,19217332,18594740,3800,3800,-8460,-5950,-2982,-725,-1002,833,130,197,815
563122,19170560,18485364,19218194,18595602,3800,3800,-9144,-5873,-3073,-1456,-672,2533,130,197,815
564122,19171208,18486304,19219056,18596464,3800,3800,-9852,-4854,-3156,-1550,-1532,5904,140,203,815
565131,19172004,18487400,19219924,18597332,3800,3800,-10615,-3084,-3029,-1699,-3017,7713,140,203,815
566125,19172704,18488324,19220786,18598194,3800,3800,-11280,-1248,-2718,-2222,-3700,7672,155,201,814
567126,19173520,18489196,19221648,18599056,3800,3800,-11721,85,-2470,-2783,-3507,6855,155,201,814
568126,19174448,18489984,19222510,18599918,3800,3800,-11960,1009,-2351,-3132,-3075,6464,165,167,816
569128,19175332,18490732,19223372,18600780,3800,3800,-12079,1733,-2265,-3215,-3028,6358,165,167,816
570129,19176212,18491480,19224234,18601642,3800,3800,-12102,2259,-2205,-3668,-2618,5937,178,140,814
571130,19177212,18492164,19225096,18602504,3800,3800,-11987,2552,-2178,-4351,-2310,5796,178,140,814
572131,19178140,18492784,19225958,18603366,3800,3800,-11734,2837,-2157,-4579,-2811,6116,189,140,814
573132,19179064,18493344,19226820,18604228,3800,3800,-9410,5307,-1785,-7006,-7104,27920,189,140,814
574133,19180192,18493876,19227682,18605090,3800,3800,489,13561,-18,-16295,-18272,32767,180,111,815
575133,19181144,18494392,19228544,18605952,3800,3800,11004,17661,1180,-8560,-11467,32767,180,111,815
576134,19182140,18494920,19229406,18606814,3800,3800,13876,15887,1131,-3750,-965,135,191,113,813
577135,19183140,18495408,19230268,18607676,3800,3800,12181,11558,621,-2899,-1218,-3086,191,113,813
578137,19184204,18495880,19231130,18608538,3800,3800,10330,7123,317,-6216,-2286,-4694,206,100,813
579138,19185120,18496288,19231992,18609400,3800,3800,9824,1139,474,-10291,-2316,-8243,206,100,813
580138,19186048,18496696,19232854,18610262,3800,3800,9849,-5382,657,-10069,-2293,-7634,185,108,813
581140,19187020,18497220,19233716,18611124,3800,3800,9548,-10102,864,-8446,-2113,-3214,185,108,813
582141,19187872,18497648,19234578,18611986,3800,3800,8919,-11814,1455,-6381,-1931,1765,169,95,813
583142,19188656,18498140,19235440,18612848,3800,3800,8009,-11185,2435,-5784,-2578,4769,169,95,813
584150,19189484,18498636,19236308,18613716,3800,3800,6475,-9905,3644,-5917,-2671,7225,175,108,812
585144,19190208,18499132,19237170,18614578,3800,3800,4371,-8798,4817,-5725,-1358,8497,175,108,812
586145,19190864,18499696,19238032,18615440,3800,3800,2571,-8266,5554,-5466,-953,4995,157,101,811
587146,19191540,18500260,19238894,18616302,3800,3800,1999,-10294,5959,-4802,1342,-3303,157,101,811
588147,19192096,18500812,19239756,18617164,3800,3800,2064,-13555,6208,-2979,2211,-4080,121,124,807
589148,19192664,18501416,19240618,18618026,3800,3800,2128,-16685,6498,-1465,2192,-4325,121,124,807
590149,19193184,18502004,19241480,18618888,3800,3800,1779,-18723,7011,-136,2148,-931,120,124,810
591150,19193696,18502672,19242342,18619750,3800,3800,1139,-19621,7671,1106,1955,798,120,124,810
592151,19194152,18503368,19243204,18620612,3800,3800,388,-20077,8408,1799,1374,2187,96,140,810
593152,19194772,18504112,19244066,18621474,3800,3800,-48,-20323,9097,2360,775,2100,96,140,810
594153,19195332,18504840,19244928,18622336,3800,3800,-295,-20684,9586,2676,1028,2265,103,139,810
595154,19195892,18505584,19245790,18623198,3800,3800,-558,-20391,9886,1768,917,4267,103,139,810
596155,19196592,18506320,19246652,18624060,3800,3800,-766,-20047,10161,1774,572,3456,136,141,811
597155,19197184,18507120,19247514,18624922,3800,3800,-948,-19409,10391,2154,595,4496,136,141,811
598157,19197856,18508032,19248376,18625784,3800,3800,-1187,-17776,10559,1688,398,7758,141,164,811
599158,19198404,18508848,19249238,18626646,3800,3800,-1551,-15476,10405,1580,1417,9650,141,164,811
600159,19199108,18509780,19250100,18627508,3800,3800,-1860,-13079,10082,1585,793,8828,142,177,813
601160,19199720,18510660,19250962,18628370,3800,3800,-1790,-11382,9853,1405,127,6172,142,177,813
602161,19200356,18511584,19251824,18629232,3800,3800,-1539,-10182,9537,1745,469,5445,144,183,812
603168,19201064,18512764,19252692,18630100,3800,3800,-1305,-8814,9134,1704,288,6072,144,183,812
604163,19201764,18513808,19253554,18630962,3800,3800,-1112,-7285,8761,1611,-469,5879,140,196,814
605163,19202480,18514760,19254416,18631824,3800,3800,-870,-5680,8331,1823,-1052,5215,140,196,814
606165,19203320,18515800,19255278,18632686,3800,3800,-552,-4173,7967,1911,-1717,4961,158,195,815
607166,19204100,18516848,19256140,18633548,3800,3800,-323,-2425,7763,2130,-2874,6033,158,195,815
608167,19204896,18517784,19257002,18634410,3800,3800,-84,-562,7532,1640,-3143,5300,162,203,815
609167,19205816,18518788,19257864,18635272,3800,3800,307,831,7199,1572,-3081,3480,162,203,815
610169,19206748,18519776,19258726,18636134,3800,3800,815,1847,6730,3116,-2872,2381,169,176,815
611170,19207640,18520640,19259588,18636996,3800,3800,1286,2468,6246,4784,-2627,1523,169,176,815
612171,19208680,18521448,19260450,18637858,3800,3800,1776,3045,5762,5961,-2049,960,167,179,816
613172,19209656,18522200,19261312,18638720,3800,3800,2286,3433,5152,6792,-1033,283,167,179,816
614173,19210688,18522928,19262174,18639582,3800,3800,2782,3594,4345,7578,-60,-65,187,150,815
615174,19211768,18523668,19263036,18640444,3800,3800,3267,3520,3314,8112,917,-883,187,150,815
616175,19212728,18524364,19263898,18641306,3800,3800,3767,3217,2105,8244,861,-2060,179,146,815
617176,19213644,18525112,19264760,18642168,3800,3800,4264,2669,891,8292,250,-2843,179,146,815
618177,19214688,18525764,19265622,18643030,3800,3800,4593,2132,-118,8692,-783,-2359,176,145,814
619178,19215644,18526472,19266484,18643892,3800,3800,4772,1836,-889,8834,-1679,-2018,176,145,814
620179,19216620,18527228,19267346,18644754,3800,3800,4833,1688,-1587,8373,-1293,-1718,179,141,814
621179,19217616,18527936,19268208,18645616,3800,3800,4773,1411,-2425,7966,-16,-2039,179,141,814
622190,19218556,18528692,19269076,18646484,3800,3800,4597,1159,-3429,7722,721,-1853,199,151,815
623182,19219428,18529408,19269938,18647346,3800,3800,4246,1316,-4450,7271,1182,-395,199,151,815
624183,19220296,18530132,19270800,18648208,3800,3800,3712,1793,-5511,6236,1738,164,183,137,815
625183,19221256,18530872,19271662,18649070,3800,3800,3163,2394,-6390,5529,1497,523,183,137,815
626185,19222108,18531648,19272524,18649932,3800,3800,2679,3189,-6925,4956,1537,1359,198,163,815
627186,19222952,18532428,19273386,18650794,3800,3800,2186,4329,-7217,4077,1901,2063,198,163,815
628187,19223880,18533104,19274248,18651656,3800,3800,1746,5409,-7315,3160,2298,1574,188,150,816
629188,19224676,18533952,19275110,18652518,3800,3800,1399,6516,-7298,2615,2648,2163,188,150,816
630189,19225424,18534788,19275972,18653380,3800,3800,1008,7851,-7172,2284,2423,3064,177,165,814
631190,19226208,18535760,19276834,18654242,3800,3800,546,9504,-7086,1667,3057,3183,177,165,814
632191,19226868,18536740,19277696,18655104,3800,3800,-36,10756,-7174,1111,4929,1955,160,189,814
633192,19227496,18537608,19278558,18655966,3800,3800,-553,11445,-7365,1014,5771,823,160,189,814
634193,19228096,18538596,19279420,18656828,3800,3800,-974,11464,-7460,1675,5715,-632,139,210,813
635194,19228616,18539556,19280282,18657690,3800,3800,-1192,11071,-7346,2529,5585,-1525,139,210,813
636195,19229136,18540660,19281144,18658552,3800,3800,-1346,10528,-6924,3100,4871,-1546,117,213,814
637196,19229640,18541752,19282006,18659414,3800,3800,-1588,9966,-6312,3267,4452,-1721,117,213,814
638197,19230084,18542832,19282868,18660276,3800,3800,-1998,9256,-5644,3355,3519,-1947,105,219,814
639198,19230548,18543808,19283730,18661138,3800,3800,-2601,8600,-5049,3640,3100,-1375,105,219,814
640199,19231044,18544756,19284592,18662000,3800,3800,-3299,7908,-4618,3655,3247,-1627,92,206,814
641206,19231492,18545724,19285460,18662868,3800,3800,-3925,6924,-4238,3070,2997,-2337,92,206,814
642200,19231944,18546668,19286322,18663730,3800,3800,-4521,5894,-3844,2626,2307,-1975,91,189,812
643202,19232428,18547556,19287184,18664592,3800,3800,-5335,4993,-3441,2558,1761,-1375,91,189,812
644202,19232956,18548412,19288046,18665454,3800,3800,-6400,4343,-3031,2825,1061,-649,118,185,811
645203,19233464,18549320,19288908,18666316,3800,3800,-7535,3749,-2751,2655,1111,-502,118,185,811
646204,19234008,18550288,19289770,18667178,3800,3800,-8712,3502,-2898,1973,1918,1191,118,197,813
647206,19234628,18551248,19290632,18668040,3800,3800,-9660,3310,-3374,1737,1996,822,118,197,813
648207,19235180,18552204,19291494,18668902,3800,3800,-10201,2780,-3927,1807,1776,-204,130,198,814
649208,19235856,18553208,19292356,18669764,3800,3800,-10645,2434,-4425,1920,851,1896,130,198,814
650209,19236600,18554148,19293218,18670626,3800,3800,-11218,2701,-4655,2057,-1365,3796,140,202,814
651210,19237284,18555028,19294080,18671488,3800,3800,-11686,3086,-4705,1445,-2291,3164,140,202,814
652211,19238060,18555936,19294942,18672350,3800,3800,-12023,3403,-4849,27,-2212,3380,148,175,814
653212,19238920,18556728,19295804,18673212,3800,3800,-12216,3572,-5079,-1129,-2890,3538,148,175,814
654213,19239756,18557448,19296666,18674074,3800,3800,-12261,3762,-5262,-1893,-3590,4000,158,139,813
655214,19240632,18558108,19297528,18674936,3800,3800,-12166,4037,-5414,-2880,-3706,4315,158,139,813
656215,19241532,18558752,19298390,18675798,3800,3800,-11894,4291,-5664,-3943,-3950,4330,163,145,813
657216,19242412,18559312,19299252,18676660,3800,3800,-11543,4804,-5990,-5107,-4968,5633,163,145,813
658217,19243376,18559944,19300114,18677522,3800,3800,-11123,5486,-6280,-6337,-5777,6151,185,116,813
659218,19244488,18560460,19300976,18678384,3800,3800,-10549,5869,-6564,-7080,-5981,5397,185,116,813
660226,19245500,18560980,19301844,18679252,3800,3800,-9281,6272,-6649,-9030,-7864,9442,174,97,813
661220,19246460,18561476,19302706,18680114,3800,3800,-859,7154,-4933,-24376,-22260,32767,174,97,813
662221,19247528,18561904,19303568,18680976,3800,3800,10709,8695,-2190,-21877,-21225,32767,183,99,813
663222,19248548,18562428,19304430,18681838,3800,3800,14642,9093,-739,-8272,-7002,6958,183,99,813
664222,19249536,18562900,19305292,18682700,3800,3800,13188,8682,-452,-7897,-4696,4451,194,110,812
665224,19250480,18563396,19306154,18683562,3800,3800,11221,7216,-575,-8606,-3899,342,194,110,812
666225,19251472,18563920,19307016,18684424,3800,3800,10706,3284,-564,-11157,-3325,-4258,189,112,813
667226,19252392,18564416,19307878,18685286,3800,3800,10916,-1301,-295,-10191,-3999,-2998,189,112,813
668227,19253304,18564992,19308740,18686148,3800,3800,10802,-3614,348,-9264,-4736,2054,184,108,812
669227,19254196,18565624,19309602,18687010,3800,3800,10263,-3592,1390,-8595,-4142,4342,184,108,812
670229,19255000,18566164,19310464,18687872,3800,3800,9643,-3133,2534,-8611,-3295,3542,169,114,813
671230,19255760,18566820,19311326,18688734,3800,3800,9187,-3508,3486,-8814,-1995,2293,169,114,813
672231,19256572,18567416,19312188,18689596,3800,3800,8823,-4678,4286,-7860,-779,1097,172,123,813
673232,19257252,18568176,19313050,18690458,3800,3800,8420,-6178,4973,-5436,334,78,172,123,813
674233,19257948,18568948,19313912,18691320,3800,3800,7937,-7902,5608,-3368,897,-885,144,133,811
675234,19258652,18569736,19314774,18692182,3800,3800,7314,-9678,6192,-1725,1347,-1149,144,133,811
676235,19259316,18570544,19315636,18693044,3800,3800,6287,-11124,6879,-155,1041,297,148,153,811
677236,19259916,18571356,19316498,18693906,3800,3800,4970,-12292,7677,458,460,13,148,153,811
678236,19260632,18572220,19317360,18694768,3800,3800,3884,-13604,8260,1052,2028,-639,140,161,813
679245,19261244,18573028,19318228,18695636,3800,3800,3033,-14735,8644,2126,2402,610,140,161,813
680239,19261860,18574064,19319090,18696498,3800,3800,2151,-15250,9094,3336,1495,2537,135,163,813
681240,19262564,18575012,19319952,18697360,3800,3800,1254,-15371,9655,3805,166,2678,135,163,813
682241,19263256,18575868,19320814,18698222,3800,3800,311,-15291,10224,3774,-512,3367,143,199,813
683242,19263900,18576908,19321676,18699084,3800,3800,-340,-15488,10588,3244,-300,1768,143,199,813
684243,19264716,18577920,19322538,18699946,3800,3800,-599,-15841,10724,2960,-523,1538,153,204,815
685244,19265416,18579084,19323400,18700808,3800,3800,-959,-15472,10672,3315,-333,4301,153,204,815
686244,19266124,18580100,19324262,18701670,3800,3800,-1833,-14088,10509,3613,497,6505,139,220,814
687245,19266864,18581152,19325124,18702532,3800,3800,-2285,-13154,10408,2957,-322,2034,139,220,814
688247,19267672,18582232,19325986,18703394,3800,3800,-2368,-12779,10291,2734,-518,2259,163,222,815
689247,19268440,18583160,19326848,18704256,3800,3800,-2256,-11957,10126,2704,-1266,3792,163,222,815
690249,19269200,18584192,19327710,18705118,3800,3800,-2253,-10446,10025,2298,-2749,4767,157,198,815
691250,19270052,18585240,19328572,18705980,3800,3800,-2153,-8542,9846,1671,-3202,4708,157,198,815
692250,19270932,18586168,19329434,18706842,3800,3800,-2083,-6586,9397,1023,-2542,4605,153,180,815
693251,19271804,18586988,19330296,18707704,3800,3800,-2091,-4414,8661,878,-1182,5094,153,180,815
694252,19272844,18587900,19331158,18708566,3800,3800,-1968,-2427,7697,1115,-1135,3252,186,187,816
695253,19273788,18588660,19332020,18709428,3800,3800,-1939,-593,5908,4453,-4019,1040,186,187,816
696255,19274820,18589592,19332882,18710290,3800,3800,-1587,731,4395,2582,-1946,181,202,181,815
697255,19275836,18590400,19333744,18711152,3800,3800,-920,1314,3402,2908,-190,-1544,202,181,815
698266,19276824,18591152,19334612,18712020,3800,3800,30,1181,2742,3483,-921,-3504,184,177,814
699257,19277796,18591964,19335474,18712882,3800,3800,1087,447,2208,4229,-1881,-5540,184,177,814
700259,19278888,18592708,19336336,18713744,3800,3800,2220,-885,1759,5343,-2594,-7343,196,170,816
701259,19279852,18593468,19337198,18714606,3800,3800,3220,-2660,1267,5988,-1933,-8327,196,170,816
702261,19280804,18594296,19338060,18715468,3800,3800,3960,-4329,551,6456,-1054,-7823,189,164,815
703261,19281844,18594996,19338922,18716330,3800,3800,4272,-5352,-153,6924,-1304,-4684,189,164,815
704263,19282872,18595752,19339784,18717192,3800,3800,4036,-4819,-391,8531,-1641,856,186,140,814
705263,19283680,18596464,19340646,18718054,3800,3800,3916,-4435,-781,7304,178,-2603,186,140,814
706265,19284652,18597292,19341508,18718916,3800,3800,4073,-4802,-1634,6316,1870,-3836,196,158,815
707266,19285516,18598164,19342370,18719778,3800,3800,4103,-5228,-2752,5876,2891,-2251,196,158,815
708266,19286400,18598952,19343232,18720640,3800,3800,3765,-4975,-3626,5426,1853,178,200,151,814
709267,19287232,18599852,19344094,18721502,3800,3800,3199,-3729,-4041,5387,1043,2722,200,151,814
710268,19288156,18600700,19344956,18722364,3800,3800,2791,-2208,-4030,5445,933,2462,196,191,815
711269,19288980,18601608,19345818,18723226,3800,3800,2624,-589,-3856,5318,1588,3377,196,191,815
712271,19289812,18602656,19346680,18724088,3800,3800,2406,1176,-3635,5282,3015,4526,173,200,815
713272,19290592,18603584,19347542,18724950,3800,3800,2110,2719,-3518,4857,5058,3100,173,200,815
714273,19291304,18604556,19348404,18725812,3800,3800,1748,4084,-3570,4327,5816,2608,162,219,817
715274,19291956,18605580,19349266,18726674,3800,3800,1302,5449,-3574,4164,5426,3173,162,219,817
716275,19292592,18606648,19350128,18727536,3800,3800,720,6886,-3467,4733,6116,3826,148,234,814
717283,19293144,18607764,19350996,18728404,3800,3800,-82,8213,-3522,5751,8687,3223,148,234,814
718277,19293656,18608960,19351858,18729266,3800,3800,-868,9140,-3681,6339,9377,1937,126,230,814
719278,19294184,18609984,19352720,18730128,3800,3800,-1536,9576,-3692,6518,8108,1163,126,230,814
720279,19294636,18611016,19353582,18730990,3800,3800,-2084,9778,-3579,6498,7935,1066,103,214,812
721280,19295048,18611968,19354444,18731852,3800,3800,-2875,10370,-3560,6698,8551,2986,103,214,812
722281,19295492,18612896,19355306,18732714,3800,3800,-4101,11658,-3705,7127,8356,4962,95,192,812
723282,19295888,18613880,19356168,18733576,3800,3800,-5576,13235,-3918,7082,7315,5654,95,192,812
724283,19296300,18614828,19357030,18734438,3800,3800,-6976,14279,-4153,6846,6954,4015,88,201,812
725284,19296732,18615764,19357892,18735300,3800,3800,-8053,14135,-4418,6657,6389,758,88,201,812
726285,19297160,18616664,19358754,18736162,3800,3800,-8828,13011,-4688,6505,5760,-1107,82,200,812
727286,19297564,18617580,19359616,18737024,3800,3800,-9383,11364,-4975,6251,5121,-2442,82,200,812
728287,19298008,18618520,19360478,18737886,3800,3800,-9879,9614,-5348,5862,4491,-2408,98,189,812
729288,19298520,18619452,19361340,18738748,3800,3800,-10324,7942,-5741,5333,3526,-2394,98,189,812
730289,19299012,18620236,19362202,18739610,3800,3800,-10761,6685,-6020,4801,2056,-970,107,173,811
731290,19299600,18620932,19363064,18740472,3800,3800,-11171,5758,-6124,4362,528,-191,107,173,811
732291,19300188,18621564,19363926,18741334,3800,3800,-11509,4911,-6074,3870,-638,294,102,125,810
733292,19300788,18622128,19364788,18742196,3800,3800,-11706,4165,-5969,3443,-1318,807,102,125,810
734293,19301424,18622716,19365650,18743058,3800,3800,-11799,3599,-5939,2879,-1856,1464,137,110,811
735294,19302124,18623188,19366512,18743920,3800,3800,-11878,2990,-6557,398,-2399,3587,137,110,811
736301,19302800,18623604,19367380,18744788,3800,3800,-11843,3107,-7109,-1485,-3295,4134,149,98,810
737296,19303492,18624016,19368242,18745650,3800,3800,-11606,3411,-7642,-2802,-4176,4642,149,98,810
738297,19304296,18624344,19369104,18746512,3800,3800,-11288,4421,-8082,-3757,-5444,6514,139,71,810
739298,19305112,18624640,19369966,18747374,3800,3800,-10849,5673,-8350,-5357,-6625,6637,139,71,810
740299,19305932,18624992,19370828,18748236,3800,3800,-10273,6397,-8493,-6949,-7437,6525,165,72,810
741300,19306856,18625320,19371690,18749098,3800,3800,-8737,8127,-8329,-10403,-10617,17935,165,72,810
742300,19307756,18625636,19372552,18749960,3800,3800,828,11559,-6026,-28540,-27628,32767,177,66,809
743302,19308660,18625960,19373414,18750822,3800,3800,12456,14527,-3358,-23248,-21535,32767,177,66,809
744302,19309656,18626332,19374276,18751684,3800,3800,15751,14677,-2529,-10529,-6202,5653,174,72,810
745304,19310532,18626712,19375138,18752546,3800,3800,14065,12149,-2776,-13052,-6305,819,174,72,810
746305,19311468,18627076,19376000,18753408,3800,3800,12229,6470,-2784,-15924,-7641,-3824,185,74,811
747306,19312504,18627396,19376862,18754270,3800,3800,11708,-56,-2141,-16518,-7721,-3974,185,74,811
748307,19313436,18627776,19377724,18755132,3800,3800,11497,-4204,-1227,-12788,-7643,553,171,87,811
749308,19314368,18628204,19378586,18755994,3800,3800,10824,-4831,-243,-9036,-5989,4284,171,87,811
750309,19315252,18628608,19379448,18756856,3800,3800,9929,-3661,790,-7596,-3409,4862,173,88,812
751310,19316224,18629168,19380310,18757718,3800,3800,9192,-2901,1850,-7265,-2907,3588,173,88,812
752311,19317068,18629680,19381172,18758580,3800,3800,8386,-2925,2952,-6914,-3395,3759,162,95,811
753312,19317900,18630224,19382034,18759442,3800,3800,7657,-3671,3927,-7857,-1983,1581,162,95,811
754313,19318756,18630856,19382896,18760304,3800,3800,7060,-4883,4736,-7508,-1185,36,169,113,812
755321,19319504,18631412,19383764,18761172,3800,3800,5983,-5929,5778,-5818,-2509,1564,169,113,812
756315,19320204,18632116,19384626,18762034,3800,3800,4475,-6549,7389,-4284,-3672,1362,159,126,812
757316,19320916,18632748,19385488,18762896,3800,3800,3263,-8222,8802,-2833,-1457,-3050,159,126,812
758317,19321544,18633504,19386350,18763758,3800,3800,2745,-11116,9395,-1229,2054,-5849,150,134,812
759318,19322140,18634192,19387212,18764620,3800,3800,2484,-14225,9604,453,2735,-4986,150,134,812
760318,19322772,18635036,19388074,18765482,3800,3800,2011,-16409,10005,2322,1806,-2246,127,146,812
761320,19323296,18635904,19388936,18766344,3800,3800,1352,-17491,10777,3468,240,242,127,146,812
762321,19323844,18636760,19389798,18767206,3800,3800,777,-17902,11747,4165,-1139,1400,119,153,812
763322,19324400,18637604,19390660,18768068,3800,3800,472,-18289,12523,4666,-1081,1120,119,153,812
764323,19324924,18638476,19391522,18768930,3800,3800,415,-18847,12932,3951,-1106,735,111,164,810
765324,19325504,18639460,19392384,18769792,3800,3800,458,-19323,12981,3114,-317,672,111,164,810
766325,19326180,18640380,19393246,18770654,3800,3800,468,-19512,12839,3128,211,1366,133,170,813
767326,19326820,18641388,19394108,18771516,3800,3800,308,-18637,12712,2905,-31,4093,133,170,813
768327,19327468,18642436,19394970,18772378,3800,3800,171,-16991,12553,2128,-495,5086,144,196,814
769328,19328180,18643460,19395832,18773240,3800,3800,102,-14934,12202,1476,-718,6265,144,196,814
770329,19328868,18644468,19396694,18774102,3800,3800,72,-12391,11755,897,-1169,7155,145,206,815
771330,19329496,18645552,19397556,18774964,3800,3800,46,-9636,11234,500,-981,7168,145,206,815
772331,19330192,18646700,19398418,18775826,3800,3800,-74,-6829,10574,345,-880,6881,150,198,816
773332,19330972,18647752,19399280,18776688,3800,3800,-125,-4333,9824,-18,-918,5315,150,198,816
774342,19331660,18648676,19400148,18777556,3800,3800,33,-2182,9035,-88,-1275,4073,162,195,814
775333,19332416,18649704,19401010,18778418,3800,3800,344,-267,8303,-214,-2470,3408,162,195,814
776334,19333184,18650652,19401872,18779280,3800,3800,708,1591,7708,-284,-3598,3138,161,196,814
777335,19334016,18651576,19402734,18780142,3800,3800,915,3650,7246,1059,-3654,3579,161,196,814
778337,19334876,18652536,19403596,18781004,3800,3800,956,5270,6835,3374,-3388,1732,161,189,816
779338,19335780,18653436,19404458,18781866,3800,3800,1145,5703,6235,4916,-3269,-2511,161,189,816
780339,19336664,18654220,19405320,18782728,3800,3800,1612,5123,5545,5745,-3629,-4962,180,188,816
781340,19337480,18655108,19406182,18783590,3800,3800,2238,3357,4752,5919,-3403,-8278,180,188,816
782341,19338516,18655936,19407044,18784452,3800,3800,2976,839,3996,5956,-3534,-9595,199,186,815
783342,19339492,18656776,19407906,18785314,3800,3800,3664,-1595,3349,6921,-3244,-9434,199,186,815
784343,19340488,18657592,19408768,18786176,3800,3800,4263,-3527,2747,7955,-3634,-8748,201,180,815
785343,19341600,18658388,19409630,18787038,3800,3800,4725,-5239,2242,8387,-3993,-7814,201,180,815
786345,19342572,18659140,19410492,18787900,3800,3800,4890,-6105,1777,9848,-3432,-4282,205,160,814
787346,19343520,18659972,19411354,18788762,3800,3800,4799,-5905,1355,10362,-2633,-1986,205,160,814
788347,19344612,18660664,19412216,18789624,3800,3800,4841,-5786,837,9031,-1784,-3479,179,154,815
789348,19345560,18661548,19413078,18790486,3800,3800,4888,-5937,47,8322,-609,-3175,179,154,815
790349,19346520,18662296,19413940,18791348,3800,3800,4804,-5971,-948,7530,983,-2237,202,159,816
791350,19347532,18663176,19414802,18792210,3800,3800,4556,-5597,-2088,7309,2830,-1786,202,159,816
792350,19348504,18663908,19415664,18793072,3800,3800,4202,-4953,-3085,7136,3228,-1219,196,163,816
793358,19349340,18664732,19416532,18793940,3800,3800,3851,-4115,-3851,6118,3526,-625,196,163,816
794353,19350256,18665748,19417394,18794802,3800,3800,3299,-2804,-4472,5163,3270,1840,183,181,815
795354,19351204,18666616,19418256,18795664,3800,3800,2495,-272,-4862,4721,2912,5660,183,181,815
796355,19352112,18667524,19419118,18796526,3800,3800,1646,2567,-4974,4612,3130,5404,201,187,815
797355,19352976,18668372,19419980,18797388,3800,3800,1077,4987,-5009,4143,4395,4395,201,187,815
798357,19353920,18669392,19420842,18798250,3800,3800,673,7134,-5059,3882,5046,4492,193,207,817
799357,19354808,18670476,19421704,18799112,3800,3800,313,8934,-5071,3490,5273,3447,193,207,817
800359,19355608,18671624,19422566,18799974,3800,3800,-181,10392,-5125,3284,7158,2835,189,211,817
801359,19356436,18672676,19423428,18800836,3800,3800,-667,11722,-5184,3466,7800,2365,189,211,817
802361,19357152,18673812,19424290,18801698,3800,3800,-1113,12616,-5171,3625,8672,1017,153,213,818
803362,19357808,18674880,19425152,18802560,3800,3800,-1544,12771,-5208,4336,10373,-582,153,213,818
804363,19358500,18675924,19426014,18803422,3800,3800,-1981,12356,-5285,5056,10715,-1861,156,223,816
805364,19359052,18677008,19426876,18804284,3800,3800,-2378,11536,-5294,5350,10031,-2644,156,223,816
806365,19359584,18677976,19427738,18805146,3800,3800,-2868,10647,-5217,5548,8874,-2235,131,208,815
807366,19360100,18678896,19428600,18806008,3800,3800,-3456,9825,-5156,5706,9054,-2053,131,208,815
808366,19360560,18679804,19429462,18806870,3800,3800,-4316,9045,-5209,5733,8903,-1749,102,213,813
809367,19360984,18680736,19430324,18807732,3800,3800,-5631,8740,-5236,5473,6321,570,102,213,813
810369,19361432,18681776,19431186,18808594,3800,3800,-7666,9503,-4858,4717,1956,4306,86,206,813
811370,19361864,18682688,19432048,18809456,3800,3800,-9203,9402,-4526,4458,3785,-1358,86,206,813
812378,19362268,18683644,19432916,18810324,3800,3800,-9927,7809,-4629,4649,5709,-3555,93,197,811
813372,19362664,18684560,19433778,18811186,3800,3800,-10319,5602,-5059,4498,5657,-3855,93,197,811
814373,19363136,18685452,19434640,18812048,3800,3800,-10720,3568,-5420,4362,4721,-3440,83,196,812
815374,19363604,18686248,19435502,18812910,3800,3800,-11169,2061,-5474,4223,3195,-2097,83,196,812
816375,19364064,18687092,19436364,18813772,3800,3800,-11642,1264,-5274,3979,1742,93,90,152,811
817376,19364612,18687748,19437226,18814634,3800,3800,-12275,1322,-5074,3539,1130,3039,90,152,811
818377,19365184,18688356,19438088,18815496,3800,3800,-12877,1599,-4998,2977,394,2981,101,120,809
819378,19365744,18688816,19438950,18816358,3800,3800,-13273,1707,-5072,2229,-208,2997,101,120,809
820378,19366384,18689320,19439812,18817220,3800,3800,-13452,1682,-5361,1179,-278,2964,123,107,809
821379,19367056,18689744,19440674,18818082,3800,3800,-13619,1797,-5866,-179,-874,4281,123,107,809
822380,19367704,18690064,19441536,18818944,3800,3800,-13812,2350,-6439,-1629,-1977,5666,121,77,809
823382,19368440,18690360,19442398,18819806,3800,3800,-14008,3204,-6914,-2629,-3310,6360,121,77,809
824382,19369148,18690656,19443260,18820668,3800,3800,-14085,4630,-7287,-3340,-4328,7457,151,58,809
825383,19369900,18690932,19444122,18821530,3800,3800,-13999,6219,-7626,-4935,-4725,7296,151,58,809
826384,19370788,18691168,19444984,18822392,3800,3800,-13600,6953,-7920,-6699,-5519,5818,167,66,808
827386,19371620,18691420,19445846,18823254,3800,3800,-12340,8407,-7966,-8702,-8202,13776,167,66,808
828387,19372492,18691644,19446708,18824116,3800,3800,-5264,17685,-6342,-18703,-22136,32767,171,61,809
829388,19373436,18691892,19447570,18824978,3800,3800,7984,26381,-3173,-26052,-28678,32767,171,61,809
830388,19374352,18692124,19448432,18825840,3800,3800,14848,27659,-1643,-10605,-9739,14921,169,59,808
831396,19375288,18692368,19449300,18826708,3800,3800,14584,22911,-1489,-11914,-5462,-3718,169,59,808
832390,19376276,18692640,19450162,18827570,3800,3800,12590,14112,-1288,-17236,-7286,-8204,180,57,809
833391,19377196,18692876,19451024,18828432,3800,3800,11724,5177,-536,-17503,-8106,-8420,180,57,809
834392,19378136,18693136,19451886,18829294,3800,3800,11434,-2014,523,-14002,-8079,-6145,185,76,811
835394,19379100,18693476,19452748,18830156,3800,3800,10920,-6168,1583,-10584,-7697,-2333,185,76,811
836394,19380096,18693804,19453610,18831018,3800,3800,9999,-7938,2539,-8175,-5479,481,175,81,811
837396,19380988,18694128,19454472,18831880,3800,3800,9114,-8415,3383,-6093,-3389,1391,175,81,811
838396,19381880,18694584,19455334,18832742,3800,3800,8062,-8299,4194,-4638,-2469,2833,177,86,811
839398,19382804,18695000,19456196,18833604,3800,3800,7053,-8618,5073,-5123,-2707,1407,177,86,811
840398,19383612,18695424,19457058,18834466,3800,3800,6276,-10178,5781,-5730,-1841,-1412,180,89,811
841399,19384396,18695940,19457920,18835328,3800,3800,5598,-11801,6425,-5799,-1327,-348,180,89,811
842400,19385204,18696460,19458782,18836190,3800,3800,4371,-12494,7346,-5342,-2046,2736,161,100,810
843402,19385884,18697004,19459644,18837052,3800,3800,3127,-12995,8170,-4747,-1336,1064,161,100,810
844403,19386560,18697572,19460506,18837914,3800,3800,2347,-14072,8630,-3420,1111,-576,159,115,811
845404,19387244,18698164,19461368,18838776,3800,3800,1900,-15690,8964,-1180,1258,-1111,159,115,811
846405,19387824,18698780,19462230,18839638,3800,3800,1524,-17161,9334,856,837,-510,143,112,811
847406,19388368,18699436,19463092,18840500,3800,3800,1022,-17936,9908,2070,402,1787,143,112,811
848407,19388964,18700132,19463954,18841362,3800,3800,538,-18052,10590,3165,-668,2599,124,144,811
849408,19389460,18700948,19464816,18842224,3800,3800,63,-17943,11236,3419,-1655,3129,124,144,811
850418,19389988,18701736,19465684,18843092,3800,3800,-214,-17898,11710,3192,-1515,2618,121,151,810
851410,19390556,18702500,19466546,18843954,3800,3800,-428,-17712,11926,3307,-1102,3382,121,151,810
852411,19391108,18703368,19467408,18844816,3800,3800,-602,-17140,12006,2801,-388,3892,118,152,811
853412,19391692,18704136,19468270,18845678,3800,3800,-766,-16430,12046,2389,-678,4118,118,152,811
854413,19392380,18705144,19469132,18846540,3800,3800,-820,-15044,11876,1988,-287,5209,126,174,812
855414,19393008,18706028,19469994,18847402,3800,3800,-762,-13529,11601,1744,-150,5168,126,174,812
856415,19393620,18706856,19470856,18848264,3800,3800,-661,-11705,11273,1809,-585,5924,141,186,813
857416,19394404,18707880,19471718,18849126,3800,3800,-460,-9740,10840,957,-522,5322,141,186,813
858417,19395016,18708872,19472580,18849988,3800,3800,-260,-8031,10271,705,-262,4513,156,206,814
859418,19395716,18709984,19473442,18850850,3800,3800,-170,-6293,9613,993,-258,4381,156,206,814
860419,19396396,18711028,19474304,18851712,3800,3800,-23,-4699,8967,715,-374,3292,152,209,814
861420,19397160,18712048,19475166,18852574,3800,3800,228,-3196,8333,591,-992,2625,152,209,814
862421,19397872,18713064,19476028,18853436,3800,3800,524,-1623,7780,544,-1665,3041,153,203,814
863422,19398612,18714012,19476890,18854298,3800,3800,697,540,7470,1259,-2397,4835,153,203,814
864422,19399488,18714976,19477752,18855160,3800,3800,809,2681,7248,2240,-3097,3264,171,200,813
865423,19400348,18716032,19478614,18856022,3800,3800,1111,3558,6866,3107,-2936,-965,171,200,813
866424,19401184,18716876,19479476,18856884,3800,3800,1700,3056,6269,4267,-3111,-4390,152,196,815
867425,19402112,18717768,19480338,18857746,3800,3800,2476,1735,5632,4747,-3777,-6644,152,196,815
868427,19402956,18718600,19481200,18858608,3800,3800,3222,-211,5048,5043,-3831,-8195,184,169,815
869434,19403892,18719356,19482068,18859476,3800,3800,3916,-2263,4540,5382,-4125,-8551,184,169,815
870428,19404992,18720172,19482930,18860338,3800,3800,4467,-3835,4192,6015,-4546,-6997,179,176,815
871429,19405932,18720908,19483792,18861200,3800,3800,4706,-4306,4010,7046,-5109,-3951,179,176,815
872430,19406888,18721724,19484654,18862062,3800,3800,4905,-4416,3913,7005,-5808,-4074,189,156,816
873431,19407980,18722412,19485516,18862924,3800,3800,5254,-4987,3566,6992,-4517,-5642,189,156,816
874433,19408952,18723164,19486378,18863786,3800,3800,5502,-5430,2771,7634,-2216,-4255,184,155,815
875433,19409936,18723916,19487240,18864648,3800,3800,5306,-4729,1858,7566,-2307,-32,184,155,815
876435,19411016,18724684,19488102,18865510,3800,3800,5016,-3541,1100,6796,-2385,-421,201,152,815
877436,19411956,18725476,19488964,18866372,3800,3800,4664,-2590,198,6122,-869,-533,201,152,815
878437,19412892,18726144,19489826,18867234,3800,3800,4224,-1373,-823,6181,115,882,196,139,816
879438,19414000,18726920,19490688,18868096,3800,3800,3705,-127,-1795,6356,1574,415,196,139,816
880439,19414816,18727640,19491550,18868958,3800,3800,3191,879,-2673,5906,2596,-126,199,152,815
881439,19415740,18728540,19492412,18869820,3800,3800,2561,1981,-3441,5696,3496,1377,199,152,815
882441,19416628,18729340,19493274,18870682,3800,3800,1836,3547,-3953,6057,3295,2715,214,180,816
883442,19417620,18730128,19494136,18871544,3800,3800,1117,5186,-4247,6100,4364,2625,214,180,816
884443,19418480,18731036,19494998,18872406,3800,3800,457,6399,-4495,5512,5193,1545,191,160,814
885444,19419368,18731928,19495860,18873268,3800,3800,-161,7264,-4901,4972,6747,903,191,160,814
886444,19420336,18732828,19496722,18874130,3800,3800,-824,7918,-5412,4153,8164,642,193,178,815
887445,19421192,18733824,19497584,18874992,3800,3800,-1435,8553,-5827,3699,8464,825,193,178,815
888453,19421968,18734828,19498452,18875860,3800,3800,-2045,9342,-6109,3393,8460,1259,191,208,817
889447,19422780,18735852,19499314,18876722,3800,3800,-2584,10236,-6258,3259,8816,1087,191,208,817
890449,19423456,18736788,19500176,18877584,3800,3800,-3022,10473,-6416,3628,10000,-944,165,223,817
891449,19424104,18737936,19501038,18878446,3800,3800,-3383,9935,-6682,4331,10879,-2347,165,223,817
892451,19424740,18739148,19501900,18879308,3800,3800,-3766,9075,-6937,4577,10739,-2751,145,209,816
893452,19425300,18740184,19502762,18880170,3800,3800,-4236,8284,-6882,4713,8321,-1934,145,209,816
894453,19425820,18741204,19503624,18881032,3800,3800,-4721,7709,-6584,4155,7035,-1669,128,212,815
895454,19426396,18742192,19504486,18881894,3800,3800,-5269,7261,-6292,3474,6228,-1399,128,212,815
896455,19426856,18743104,19505348,18882756,3800,3800,-5864,6729,-6132,3168,5079,-1477,117,207,813
897455,19427356,18744076,19506210,18883618,3800,3800,-6452,6106,-5992,3165,4102,-1109,117,207,813
898457,19427864,18744940,19507072,18884480,3800,3800,-7061,5358,-5869,2776,3946,-1481,116,177,813
899458,19428332,18745792,19507934,18885342,3800,3800,-7720,4464,-5855,2558,3650,-1696,116,177,813
900459,19428816,18746752,19508796,18886204,3800,3800,-8402,3516,-5993,2259,3561,-1418,100,186,812
901460,19429336,18747636,19509658,18887066,3800,3800,-9104,2848,-6171,2367,2615,-149,100,186,812
902461,19429840,18748588,19510520,18887928,3800,3800,-10239,3063,-6159,2876,543,3123,117,203,813
903461,19430360,18749644,19511382,18888790,3800,3800,-11215,3151,-6126,2616,440,1306,117,203,813
904463,19430948,18750592,19512244,18889652,3800,3800,-11894,3082,-6079,2493,-679,1984,126,203,814
905463,19431556,18751496,19513106,18890514,3800,3800,-12294,2674,-6010,2333,-1686,958,126,203,814
906465,19432212,18752384,19513968,18891376,3800,3800,-12576,2388,-5869,2108,-2301,2062,137,189,813
907472,19432908,18753176,19514836,18892244,3800,3800,-12835,2258,-5709,1812,-2312,2202,137,189,813
908467,19433668,18753980,19515698,18893106,3800,3800,-13032,2141,-5533,1229,-3111,2539,142,157,811
909468,19434464,18754612,19516560,18893968,3800,3800,-13151,2250,-5321,81,-4474,3976,142,157,811
910469,19435228,18755204,19517422,18894830,3800,3800,-13188,2686,-5092,-1414,-5758,5269,157,122,812
911469,19436084,18755736,19518284,18895692,3800,3800,-13145,3313,-4831,-2840,-6768,6033,157,122,812
912470,19436944,18756272,19519146,18896554,3800,3800,-12925,4136,-4594,-3935,-6831,6547,177,125,812
913471,19437808,18756736,19520008,18897416,3800,3800,-12584,5356,-4513,-5308,-6819,7382,177,125,812
914473,19438724,18757228,19520870,18898278,3800,3800,-9427,10273,-4067,-8881,-12663,32767,173,92,811
915474,19439724,18757652,19521732,18899140,3800,3800,-1716,24573,-2495,-11951,-20351,32767,173,92,811
916474,19440736,18758044,19522594,18900002,3800,3800,3615,32047,-1770,-6012,-7678,17192,187,86,811
917476,19441788,18758400,19523456,18900864,3800,3800,4608,30386,-2085,-5190,-3143,-1679,187,86,811
918477,19442780,18758736,19524318,18901726,3800,3800,4813,23591,-2552,-10311,-5933,-454,185,93,810
919478,19443780,18759180,19525180,18902588,3800,3800,6682,13469,-2325,-19223,-8843,2772,185,93,810
920478,19444852,18759532,19526042,18903450,3800,3800,7988,3070,-1696,-19075,-6844,-8645,178,79,812
921479,19445804,18759956,19526904,18904312,3800,3800,8006,-5985,-967,-17971,-7874,-6945,178,79,812
922481,19446768,18760364,19527766,18905174,3800,3800,7386,-12160,5,-15123,-8974,-2574,182,74,812
923482,19447644,18760788,19528628,18906036,3800,3800,6562,-15122,922,-10880,-6347,1698,182,74,812
924483,19448632,18761208,19529490,18906898,3800,3800,5795,-15772,1445,-7980,-4721,3612,178,84,811
925484,19449464,18761752,19530352,18907760,3800,3800,5097,-14662,1900,-7414,-4178,7041,178,84,811
926494,19450276,18762240,19531220,18908628,3800,3800,4741,-13317,2826,-9192,-3440,6942,182,100,811
927486,19451096,18762688,19532082,18909490,3800,3800,4421,-12969,3893,-8270,-2948,5789,182,100,811
928487,19451832,18763288,19532944,18910352,3800,3800,4216,-13029,4799,-7681,-1824,4839,173,121,811
929488,19452512,18763812,19533806,18911214,3800,3800,3934,-13490,5627,-6882,88,4804,173,121,811
930488,19453212,18764520,19534668,18912076,3800,3800,3502,-13592,6100,-3393,1256,4841,135,129,810
931489,19453824,18765164,19535530,18912938,3800,3800,3153,-14342,6425,-1617,2086,2078,135,129,810
932490,19454388,18765872,19536392,18913800,3800,3800,3132,-15522,6777,-652,2371,1170,145,131,810
933492,19454956,18766568,19537254,18914662,3800,3800,2984,-16617,7099,1141,1688,2180,145,131,810
934492,19455508,18767328,19538116,18915524,3800,3800,2280,-16529,7797,2843,1069,6389,115,149,810
935494,19455996,18768120,19538978,18916386,3800,3800,1520,-16121,8747,4218,103,4686,115,149,810
936494,19456572,18768924,19539840,18917248,3800,3800,1219,-16226,9373,4954,513,2963,98,141,811
937495,19457096,18769664,19540702,18918110,3800,3800,1210,-16718,9861,5004,563,3588,98,141,811
938497,19457664,18770548,19541564,18918972,3800,3800,1243,-16878,10285,5100,93,4249,111,154,811
939497,19458328,18771352,19542426,18919834,3800,3800,1364,-16779,10554,5084,625,3630,111,154,811
940498,19458900,18772216,19543288,18920696,3800,3800,1579,-16694,10705,4699,783,3582,138,172,810
941500,19459592,18773220,19544150,18921558,3800,3800,1784,-15879,10743,4621,455,5480,138,172,810
942501,19460272,18774092,19545012,18922420,3800,3800,1238,-13614,10611,4415,1001,10871,142,184,813
943502,19460948,18775076,19545874,18923282,3800,3800,787,-11135,10387,3498,129,7731,142,184,813
944503,19461612,18776140,19546736,18924144,3800,3800,764,-9395,10215,3543,-610,6142,143,191,814
945510,19462292,18777104,19547604,18925012,3800,3800,1073,-8090,10060,3234,-606,5408,143,191,814
946505,19463040,18778160,19548466,18925874,3800,3800,1326,-6841,9803,2521,-866,5124,138,197,814
947506,19463752,18779204,19549328,18926736,3800,3800,1697,-5369,9376,1528,-1414,4336,138,197,814
948506,19464432,18780116,19550190,18927598,3800,3800,2150,-3962,8863,1178,-2673,4071,155,195,815
949508,19465236,18781012,19551052,18928460,3800,3800,2201,-1533,7538,7447,-8014,7112,155,195,815
950509,19466096,18781996,19551914,18929322,3800,3800,1445,3228,3790,13005,-17963,3857,165,185,814
951510,19466908,18782812,19552776,18930184,3800,3800,693,6997,1653,-82,-7105,789,165,185,814
952510,19467860,18783656,19553638,18931046,3800,3800,1198,9008,1525,1099,-3781,2444,170,164,814
953511,19468744,18784420,19554500,18931908,3800,3800,1795,8823,2143,2604,-2610,-221,170,164,814
954512,19469672,18785092,19555362,18932770,3800,3800,2640,8873,2366,4201,-2467,-1128,169,164,814
955513,19470728,18785828,19556224,18933632,3800,3800,3158,8239,2250,4547,-2432,-2926,169,164,814
956514,19471656,18786532,19557086,18934494,3800,3800,3722,7809,2249,5617,-2171,-2734,206,154,814
957515,19472632,18787324,19557948,18935356,3800,3800,4185,7089,2330,6705,-2111,-3534,206,154,814
958517,19473772,18787968,19558810,18936218,3800,3800,4769,5998,2207,6425,-1209,-5274,206,154,814
959517,19474736,18788676,19559672,18937080,3800,3800,5316,4331,1849,6290,-379,-6752,206,154,814
960518,19475720,18789388,19560534,18937942,3800,3800,5678,2434,1303,5945,810,-6566,197,142,815
961519,19476792,18790076,19561396,18938804,3800,3800,5739,1388,666,5825,2855,-3636,197,142,815
962521,19477748,18790820,19562258,18939666,3800,3800,5386,1196,-60,5339,3009,-2032,207,138,813
963522,19478704,18791560,19563120,18940528,3800,3800,5029,1146,-948,3851,3961,-3056,207,138,813
964529,19479808,18792244,19563988,18941396,3800,3800,4650,893,-1986,2985,5301,-2315,205,137,814
965523,19480652,18792908,19564850,18942258,3800,3800,4145,1261,-2990,2379,5836,-179,205,137,814
966524,19481508,18793672,19565712,18943120,3800,3800,3337,2160,-3783,1305,6821,1434,185,140,815
967525,19482412,18794484,19566574,18943982,3800,3800,2568,3317,-4342,903,7388,1280,185,140,815
968526,19483352,18795224,19567436,18944844,3800,3800,1940,4256,-4698,830,7994,1033,182,158,815
969527,19484252,18796068,19568298,18945706,3800,3800,1441,5371,-4848,903,7879,1993,182,158,815
970529,19485076,18796908,19569160,18946568,3800,3800,1054,6557,-4933,441,8756,1638,195,159,815
971529,19485988,18797808,19570022,18947430,3800,3800,713,7406,-5017,154,8665,903,195,159,815
972530,19486772,18798688,19570884,18948292,3800,3800,265,8159,-5052,27,8780,1238,175,191,814
973531,19487472,18799704,19571746,18949154,3800,3800,-297,8789,-5100,420,8383,619,175,191,814
974534,19488184,18800660,19572608,18950016,3800,3800,-929,9092,-5087,1090,7011,-405,144,184,815
975534,19488800,18801620,19573470,18950878,3800,3800,-1390,8698,-4925,1683,6317,-1910,144,184,815
976535,19489388,18802632,19574332,18951740,3800,3800,-1779,7855,-4725,2876,5389,-2734,140,201,815
977536,19489984,18803744,19575194,18952602,3800,3800,-2150,6683,-4510,3314,4370,-3352,140,201,815
978537,19490496,18804824,19576056,18953464,3800,3800,-2535,5369,-4223,3471,3608,-3293,119,209,814
979538,19490984,18805908,19576918,18954326,3800,3800,-2889,4108,-3901,3808,2890,-3018,119,209,814
980539,19491480,18806864,19577780,18955188,3800,3800,-3336,3011,-3583,3625,2514,-2404,115,213,813
981540,19491936,18807784,19578642,18956050,3800,3800,-3975,2124,-3299,3696,1594,-1635,115,213,813
982541,19492372,18808672,19579504,18956912,3800,3800,-4738,1384,-3064,3586,671,-873,98,191,812
983549,19492892,18809516,19580372,18957780,3800,3800,-5612,971,-2857,3305,257,561,98,191,812
984543,19493352,18810460,19581234,18958642,3800,3800,-6903,1130,-2559,3133,-1576,2238,101,183,811
985544,19493816,18811340,19582096,18959504,3800,3800,-8313,1006,-2350,2977,-1835,519,101,183,811
986546,19494380,18812280,19582958,18960366,3800,3800,-9552,716,-2354,2998,-1628,987,108,189,812
987546,19494856,18813164,19583820,18961228,3800,3800,-10539,310,-2481,3045,-2039,531,108,189,812
988547,19495396,18814088,19584682,18962090,3800,3800,-11252,-415,-2840,3103,-943,13,112,197,813
989548,19495944,18815028,19585544,18962952,3800,3800,-11801,-835,-3412,2994,-647,1892,112,197,813
990550,19496604,18816008,19586406,18963814,3800,3800,-12219,-1046,-3893,3037,-2313,2051,123,181,813
991550,19497236,18816836,19587268,18964676,3800,3800,-12595,-958,-4193,3176,-3017,3214,123,181,813
992551,19497928,18817584,19588130,18965538,3800,3800,-12881,-587,-4323,2880,-2933,4347,143,167,813
993552,19498688,18818280,19588992,18966400,3800,3800,-13019,-88,-4397,2610,-3029,4875,143,167,813
994554,19499452,18818940,19589854,18967262,3800,3800,-13015,465,-4510,2254,-3430,5446,141,137,811
995554,19500196,18819572,19590716,18968124,3800,3800,-12935,1163,-4626,1246,-4000,6506,141,137,811
996555,19501036,18820076,19591578,18968986,3800,3800,-12779,2006,-4761,-311,-4216,7229,156,107,811
997556,19501872,18820564,19592440,18969848,3800,3800,-12444,2715,-5024,-1978,-4333,7209,156,107,811
998557,19502696,18820996,19593302,18970710,3800,3800,-8173,10108,-4627,-6721,-11569,32767,159,110,812
999558,19503648,18821368,19594164,18971572,3800,3800,-424,24555,-3333,-8053,-13555,32767,159,110,812
1000559,19504620,18821768,19595026,18972434,3800,3800,3841,28999,-3306,-1372,-2168,1868,182,82,811
1001560,19505604,18822204,19595888,18973296,3800,3800,4077,25303,-4078,-1488,-1085,-2872,182,82,811
1002570,19506684,18822556,19596756,18974164,3800,3800,3349,20073,-4798,-1441,-2557,-4244,185,91,811
1003562,19507684,18822936,19597618,18975026,3800,3800,2986,16161,-5062,-2123,-2777,-4111,185,91,811
1004563,19508640,18823324,19598480,18975888,3800,3800,3226,13247,-4942,-5505,-2125,-4307,183,89,811
1005564,19509692,18823680,19599342,18976750,3800,3800,3747,7414,-4476,-15436,-2742,-9105,183,89,811
1006565,19510680,18824016,19600204,18977612,3800,3800,4334,-1800,-3654,-20036,-4251,-10384,201,77,811
1007566,19511656,18824412,19601066,18978474,3800,3800,4585,-10927,-2403,-20567,-8101,-6437,201,77,811
1008567,19512636,18824848,19601928,18979336,3800,3800,4170,-16434,-796,-16448,-9332,603,199,81,812
1009568,19513536,18825220,19602790,18980198,3800,3800,3537,-18630,603,-13776,-7559,3573,199,81,812
1010569,19514408,18825696,19603652,18981060,3800,3800,2997,-19175,1625,-10463,-6038,4749,188,90,811
1011570,19515256,18826228,19604514,18981922,3800,3800,2663,-17894,2571,-8253,-4105,8253,188,90,811
1012571,19516092,18826744,19605376,18982784,3800,3800,2422,-16659,3528,-8930,-2442,7166,167,109,812
1013572,19516812,18827344,19606238,18983646,3800,3800,2366,-16464,4363,-9242,-1823,5709,167,109,812
1014573,19517512,18827908,19607100,18984508,3800,3800,2353,-16377,5269,-8883,-1753,6772,159,103,811
1015574,19518212,18828492,19607962,18985370,3800,3800,2285,-16537,6099,-6555,-724,5120,159,103,811
1016575,19518852,18829156,19608824,18986232,3800,3800,2031,-16658,6658,-3854,331,5187,153,125,810
1017576,19519436,18829856,19609686,18987094,3800,3800,1981,-17261,7121,-2452,560,3308,153,125,810
1018577,19520040,18830556,19610548,18987956,3800,3800,2078,-18267,7489,-528,-99,2041,128,138,809
1019578,19520544,18831292,19611410,18988818,3800,3800,2109,-19027,7855,1208,-796,3568,128,138,809
1020579,19521084,18832024,19612272,18989680,3800,3800,1626,-18539,8535,3389,-838,7711,106,151,810
1021587,19521628,18832868,19613140,18990548,3800,3800,1029,-17720,9339,5212,-1602,6232,106,151,810
1022581,19522164,18833684,19614002,18991410,3800,3800,850,-17496,9928,5994,-1115,4642,107,152,811
1023582,19522736,18834576,19614864,18992272,3800,3800,1003,-17659,10402,6741,-1537,4727,107,152,811
1024583,19523312,18835376,19615726,18993134,3800,3800,1313,-17820,10740,6862,-1901,4345,107,164,811
1025584,19523932,18836284,19616588,18993996,3800,3800,1779,-17868,10948,6566,-1089,4244,107,164,811
1026585,19524492,18837208,19617450,18994858,3800,3800,2208,-17605,10992,6592,-485,4989,128,163,812
1027586,19525240,18838044,19618312,18995720,3800,3800,2438,-16581,10862,6679,-11,6966,128,163,812
1028587,19525832,18839116,19619174,18996582,3800,3800,2075,-14165,10693,6362,-31,11623,138,180,812
1029588,19526504,18840100,19620036,18997444,3800,3800,1996,-12161,10321,5104,164,7083,138,180,812
1030589,19527216,18841120,19620898,18998306,3800,3800,2391,-10525,9756,4805,662,7428,130,181,814
1031590,19527912,18842164,19621760,18999168,3800,3800,2872,-8859,9295,4952,-176,8272,130,181,814
1032591,19528588,18843160,19622622,19000030,3800,3800,3211,-6269,9342,5508,-3432,10603,135,195,815
1033592,19529284,18844252,19623484,19000892,3800,3800,3715,-3750,9174,4024,-1723,8311,135,195,815
1034593,19530112,18845148,19624346,19001754,3800,3800,4419,-1384,8598,2845,-3041,8341,157,202,815
1035594,19530896,18846132,19625208,19002616,3800,3800,5038,1158,8086,3484,-5612,9071,157,202,815
1036595,19531692,18847060,19626070,19003478,3800,3800,5649,3392,7624,4923,-4725,7463,159,192,815
1037596,19532576,18847916,19626932,19004340,3800,3800,6290,5768,6890,6115,-2123,7412,159,192,815
1038597,19533424,18848792,19627794,19005202,3800,3800,6932,7797,5925,7027,-752,5525,175,194,813
1039598,19534268,18849644,19628656,19006064,3800,3800,7484,9023,4897,7393,-1105,3084,175,194,813
1040606,19535296,18850408,19629524,19006932,3800,3800,7993,9560,3901,7371,-1202,1026,170,163,812
1041600,19536208,18851128,19630386,19007794,3800,3800,8465,9792,2992,7930,-1320,31,170,163,812
1042601,19537144,18851792,19631248,19008656,3800,3800,8755,10360,2367,9116,-2409,1254,186,160,814
1043602,19538204,18852496,19632110,19009518,3800,3800,8704,11430,1984,9874,-2020,2838,186,160,814
1044603,19539248,18853196,19632972,19010380,3800,3800,8384,12575,1522,10124,-1245,2098,173,133,815
1045604,19540172,18853872,19633834,19011242,3800,3800,8224,12578,606,9477,346,-2907,173,133,815
1046605,19541228,18854496,19634696,19012104,3800,3800,8279,11402,-646,8827,1668,-5547,201,142,813
1047606,19542184,18855236,19635558,19012966,3800,3800,8343,9742,-1879,8310,1475,-6300,201,142,813
1048607,19543108,18855916,19636420,19013828,3800,3800,8213,8103,-2956,7558,1149,-6440,184,129,814
1049608,19544140,18856684,19637282,19014690,3800,3800,7719,7238,-3668,7605,20,-4004,184,129,814
1050609,19545144,18857296,19638144,19015552,3800,3800,7005,7069,-4064,7658,-492,-3021,179,127,813
1051610,19545952,18858008,19639006,19016414,3800,3800,6313,6694,-4613,6089,1596,-4433,179,127,813
1052611,19546940,18858644,19639868,19017276,3800,3800,5759,5901,-5412,4170,2963,-5216,184,142,813
1053612,19547844,18859408,19640730,19018138,3800,3800,5221,5052,-6413,2679,5221,-5145,184,142,813
1054613,19548748,18860176,19641592,19019000,3800,3800,4678,4356,-7405,1565,6339,-5263,205,146,814
1055614,19549592,18860956,19642454,19019862,3800,3800,4230,3880,-8307,311,7581,-5163,205,146,814
1056615,19550532,18861796,19643316,19020724,3800,3800,3843,3705,-8951,-716,6774,-4291,200,150,815
1057616,19551384,18862552,19644178,19021586,3800,3800,3469,4027,-9351,-1421,5721,-3001,200,150,815
1058617,19552168,18863360,19645040,19022448,3800,3800,2914,4941,-9539,-1781,4649,-1155,187,169,815
1059625,19552980,18864164,19645908,19023316,3800,3800,2317,6524,-9444,-1368,3705,590,187,169,815
1060619,19553676,18865232,19646770,19024178,3800,3800,1716,8318,-8992,-760,3493,1333,175,189,814
1061620,19554300,18866260,19647632,19025040,3800,3800,1052,9653,-8252,11,2599,622,175,189,814
1062621,19554952,18867208,19648494,19025902,3800,3800,436,10235,-7438,923,2970,-1398,133,211,813
1063622,19555492,18868180,19649356,19026764,3800,3800,-58,10025,-6773,1233,3561,-3128,133,211,813
1064623,19555980,18869276,19650218,19027626,3800,3800,-499,9194,-6135,1444,3043,-4369,128,213,814
1065624,19556496,18870356,19651080,19028488,3800,3800,-1012,7932,-5414,2036,2816,-5275,128,213,814
1066625,19556912,18871392,19651942,19029350,3800,3800,-1553,6381,-4691,2544,3094,-6421,102,203,813
1067626,19557344,18872368,19652804,19030212,3800,3800,-2187,4539,-4065,2657,3257,-6843,102,203,813
1068627,19557812,18873284,19653666,19031074,3800,3800,-2837,2609,-3552,2280,2706,-6685,84,190,812
1069628,19558228,18874140,19654528,19031936,3800,3800,-3919,1163,-3080,2282,2015,-4127,84,190,812
1070629,19558688,18874988,19655390,19032798,3800,3800,-5583,797,-2470,2352,551,-1368,92,199,811
1071630,19559164,18875936,19656252,19033660,3800,3800,-7194,423,-1966,2293,1578,-2511,92,199,811
1072631,19559632,18876780,19657114,19034522,3800,3800,-8384,-357,-1807,1955,2365,-2817,93,187,811
1073632,19560124,18877696,19657976,19035384,3800,3800,-9379,-1237,-1994,1837,2764,-1889,93,187,811
1074633,19560672,18878616,19658838,19036246,3800,3800,-10601,-1337,-2497,2072,2754,1046,98,209,812
1075634,19561220,18879504,19659700,19037108,3800,3800,-11726,-1427,-3051,2204,1879,-248,98,209,812
1076635,19561772,18880420,19660562,19037970,3800,3800,-12471,-1820,-3465,2624,1025,-349,129,214,812
1077636,19562408,18881392,19661424,19038832,3800,3800,-13402,-1351,-3708,2640,-591,4671,129,214,812
1078646,19563108,18882200,19662292,19039700,3800,3800,-14388,-255,-3756,2675,-2225,5092,144,177,813
1079638,19563796,18882952,19663154,19040562,3800,3800,-15163,838,-3923,2207,-1565,4630,144,177,813
1080639,19564500,18883656,19664016,19041424,3800,3800,-15510,1279,-4335,1660,-535,3254,145,137,812
1081640,19565352,18884292,19664878,19042286,3800,3800,-15691,1517,-4861,1461,-750,3800,145,137,812
1082641,19566096,18884948,19665740,19043148,3800,3800,-15830,1855,-5279,746,-2493,4340,151,138,811
1083642,19566928,18885440,19666602,19044010,3800,3800,-15840,2294,-5625,-535,-3140,4596,151,138,811
1084643,19567804,18885920,19667464,19044872,3800,3800,-15692,2648,-6114,-1758,-3019,4776,164,119,810
1085644,19568656,18886372,19668326,19045734,3800,3800,-15383,3028,-6718,-2508,-3066,5302,164,119,810
1086645,19569604,18886728,19669188,19046596,3800,3800,-14959,3399,-7325,-2686,-3061,5398,169,96,811
1087646,19570616,18887096,19670050,19047458,3800,3800,-14407,3751,-7750,-2915,-4230,5236,169,96,811
1088647,19571628,18887508,19670912,19048320,3800,3800,-13698,3801,-7873,-3920,-5171,4898,181,84,811
1089648,19572572,18887832,19671774,19049182,3800,3800,-12340,3856,-7663,-5878,-6651,8152,181,84,811
1090649,19573688,18888204,19672636,19050044,3800,3800,-2124,3528,-5357,-25852,-21521,32767,180,86,811
1091650,19574640,18888560,19673498,19050906,3800,3800,12133,4233,-2010,-24182,-20691,32767,180,86,811
1092651,19575636,18888928,19674360,19051768,3800,3800,16678,4521,-444,-8591,-6512,7437,169,84,811
1093652,19576668,18889304,19675222,19052630,3800,3800,14859,4249,-498,-8694,-3382,4720,169,84,811
1094653,19577604,18889596,19676084,19053492,3800,3800,12452,3513,-961,-8478,-2475,2737,187,88,810
1095654,19578540,18890032,19676946,19054354,3800,3800,11610,2546,-890,-8832,-2232,2180,187,88,810
1096655,19579496,18890468,19677808,19055216,3800,3800,11551,1921,-431,-8611,-3014,2589,182,91,812
1097663,19580380,18890884,19678676,19056084,3800,3800,11341,720,193,-9046,-2821,1248,182,91,812
1098657,19581160,18891368,19679538,19056946,3800,3800,10868,-113,967,-9068,-2692,2750,177,96,812
1099658,19581952,18891924,19680400,19057808,3800,3800,10372,-1056,1849,-8630,-2941,1241,177,96,812
1100659,19582720,18892468,19681262,19058670,3800,3800,9761,-1980,2810,-8955,-2754,1822,160,105,812
1101660,19583412,18893052,19682124,19059532,3800,3800,8911,-2825,3813,-7393,-2014,1705,160,105,812
1102661,19584060,18893596,19682986,19060394,3800,3800,7347,-3422,4958,-4659,-3213,2764,142,108,811
1103662,19584732,18894248,19683848,19061256,3800,3800,5817,-4455,5960,-3259,-2821,-346,142,108,811
1104663,19585312,18894904,19684710,19062118,3800,3800,4581,-6509,6812,-2295,-2237,-2566,128,131,809
1105664,19585880,18895644,19685572,19062980,3800,3800,3196,-8764,7857,-792,-3849,-1851,128,131,809
1106665,19586396,18896324,19686434,19063842,3800,3800,1661,-10752,9075,325,-3132,-2052,118,136,809
1107666,19586912,18897148,19687296,19064704,3800,3800,367,-12821,9985,1631,-528,-2760,118,136,809
1108667,19587356,18897904,19688158,19065566,3800,3800,-396,-15207,10514,2819,-17,-3612,100,139,810
1109668,19587960,18898864,19689020,19066428,3800,3800,-935,-17570,11000,3741,-886,-2383,100,139,810
1110669,19588484,18899704,19689882,19067290,3800,3800,-1481,-19280,11576,4517,-1818,-714,94,172,811
1111670,19589056,18900552,19690744,19068152,3800,3800,-1903,-20378,12107,4378,-2066,-210,94,172,811
1112671,19589704,18901532,19691606,19069014,3800,3800,-1980,-21169,12485,4030,-2059,517,134,183,811
1113672,19590308,18902384,19692468,19069876,3800,3800,-1871,-21426,12681,4202,-2311,2171,134,183,811
1114673,19590964,18903380,19693330,19070738,3800,3800,-1775,-20860,12760,4006,-1563,4196,140,198,812
1115674,19591640,18904540,19694192,19071600,3800,3800,-2160,-18775,12749,4052,-50,9674,140,198,812
1116682,19592312,18905452,19695060,19072468,3800,3800,-2629,-16342,12430,2643,48,7765,143,198,812
1117676,19592968,18906496,19695922,19073330,3800,3800,-2820,-14384,11906,1858,-296,6387,143,198,812
1118677,19593716,18907636,19696784,19074192,3800,3800,-2790,-12677,11369,1988,-835,6240,143,198,814
1119678,19594376,18908672,19697646,19075054,3800,3800,-2628,-10657,10782,2135,-222,6713,143,198,814
1120679,19595084,18909828,19698508,19075916,3800,3800,-2395,-8309,10165,1560,-412,7204,151,196,814
1121680,19595848,18910744,19699370,19076778,3800,3800,-2042,-5686,9528,997,-1313,7323,151,196,814
1122681,19596708,18911776,19700232,19077640,3800,3800,-1768,-2767,8864,1132,-1119,8343,159,193,814
1123682,19597524,18912716,19701094,19078502,3800,3800,-1598,347,7941,2070,-2585,7450,159,193,814
1124683,19598352,18913592,19701956,19079364,3800,3800,-1204,3016,6691,2679,-4337,4733,160,197,815
1125684,19599340,18914464,19702818,19080226,3800,3800,-451,4704,5697,1165,-1411,2603,160,197,815
1126685,19600228,18915320,19703680,19081088,3800,3800,440,5097,4798,2233,-1037,-868,177,181,814
1127686,19601188,18916020,19704542,19081950,3800,3800,1299,4576,3952,3355,-1240,-3423,177,181,814
1128687,19602196,18916720,19705404,19082812,3800,3800,2125,3652,3160,4643,-486,-4842,175,160,813
1129688,19603132,18917392,19706266,19083674,3800,3800,2867,2477,2321,5999,782,-5425,175,160,813
1130690,19604132,18918120,19707128,19084536,3800,3800,3511,1495,1524,7315,642,-4625,176,149,814
1131690,19605236,18918776,19707990,19085398,3800,3800,4049,689,852,8161,-374,-4603,176,149,814
1132691,19606208,18919436,19708852,19086260,3800,3800,4462,24,364,8604,-1587,-4139,186,135,814
1133692,19607184,18920072,19709714,19087122,3800,3800,4727,-678,-71,8566,-870,-3666,186,135,814
1134693,19608192,18920804,19710576,19087984,3800,3800,4794,-1272,-605,8574,-6,-2866,189,132,814
1135701,19609144,18921448,19711444,19088852,3800,3800,4584,-1458,-1290,8057,112,-1449,189,132,814
1136695,19610148,18922148,19712306,19089714,3800,3800,4270,-1379,-2284,7275,1677,-1569,187,144,814
1137696,19611124,18922812,19713168,19090576,3800,3800,3753,-1193,-3545,6512,2791,-773,187,144,814
1138697,19611960,18923516,19714030,19091438,3800,3800,3063,-600,-4752,5681,2400,1080,183,143,813
1139698,19612856,18924128,19714892,19092300,3800,3800,2375,438,-5599,5226,1794,2095,183,143,813
1140699,19613792,18924856,19715754,19093162,3800,3800,1965,1594,-6015,4806,1528,2070,188,148,815
1141700,19614668,18925632,19716616,19094024,3800,3800,1728,2897,-6050,4579,1460,3343,188,148,815
1142701,19615540,18926364,19717478,19094886,3800,3800,1497,4376,-5935,4081,3288,3093,209,150,815
1143702,19616452,18927128,19718340,19095748,3800,3800,1160,5447,-5911,2920,5549,1809,209,150,815
1144703,19617380,18928000,19719202,19096610,3800,3800,695,6360,-6046,1919,6558,1803,212,148,815
1145704,19618188,18928784,19720064,19097472,3800,3800,206,7164,-6253,1090,6521,1233,212,148,815
1146705,19618952,18929604,19720926,19098334,3800,3800,-283,7900,-6480,538,7359,1018,193,178,814
1147706,19619768,18930392,19721788,19099196,3800,3800,-743,8550,-6674,749,8037,575,193,178,814
1148707,19620436,18931444,19722650,19100058,3800,3800,-1138,8690,-6781,1277,8533,-793,164,184,814
1149708,19621036,18932516,19723512,19100920,3800,3800,-1458,8313,-6735,2360,8105,-1550,164,184,814
1150709,19621664,18933476,19724374,19101782,3800,3800,-1607,7744,-6459,3438,7511,-2075,148,200,813
1151710,19622188,18934528,19725236,19102644,3800,3800,-1784,6842,-6029,3637,6970,-2735,148,200,813
1152711,19622660,18935564,19726098,19103506,3800,3800,-2050,6047,-5463,3746,5973,-1848,121,201,814
1153712,19623140,18936644,19726960,19104368,3800,3800,-2482,5385,-4935,3819,5776,-1396,121,201,814
1154722,19623560,18937560,19727828,19105236,3800,3800,-3008,4523,-4580,3906,5484,-2149,93,194,813
1155714,19623988,18938460,19728690,19106098,3800,3800,-3488,3741,-4247,3789,4073,-1198,93,194,813
1156715,19624460,18939300,19729552,19106960,3800,3800,-3926,3127,-3806,3474,2801,-70,103,189,812
1157716,19624880,18940136,19730414,19107822,3800,3800,-4447,2816,-3323,3327,1804,720,103,189,812
1158717,19625340,18941020,19731276,19108684,3800,3800,-5107,2442,-2939,3239,1720,319,89,178,811
1159718,19625836,18941852,19732138,19109546,3800,3800,-5913,2041,-2818,3312,1878,1177,89,178,811
1160719,19626308,18942728,19733000,19110408,3800,3800,-7737,3740,-2788,3031,-1231,9688,107,193,809
1161720,19626844,18943636,19733862,19111270,3800,3800,-9433,4977,-2828,2841,-726,3161,107,193,809
1162721,19627404,18944496,19734724,19112132,3800,3800,-10045,4543,-3149,3108,571,-282,120,195,812
1163722,19627988,18945368,19735586,19112994,3800,3800,-10229,3348,-3602,3127,443,448,120,195,812
1164723,19628608,18946368,19736448,19113856,3800,3800,-10493,2589,-4167,3233,280,1666,137,207,812
1165724,19629220,18947232,19737310,19114718,3800,3800,-10939,2270,-4667,3331,-718,2131,137,207,812
1166725,19629992,18947996,19738172,19115580,3800,3800,-11266,2193,-5035,3060,-1761,2596,133,169,813
1167726,19630740,18948728,19739034,19116442,3800,3800,-11586,2323,-5280,2817,-2776,4151,133,169,813
1168727,19631512,18949404,19739896,19117304,3800,3800,-11914,2868,-5402,2046,-3481,5852,155,136,812
1169728,19632380,18950132,19740758,19118166,3800,3800,-12180,3702,-5490,677,-3929,6587,155,136,812
1170729,19633212,18950716,19741620,19119028,3800,3800,-12261,4416,-5649,-808,-5089,6395,170,135,811
1171730,19634032,18951252,19742482,19119890,3800,3800,-12120,4919,-5902,-2377,-5609,6263,170,135,811
1172731,19635008,18951760,19743344,19120752,3800,3800,-11386,5740,-6224,-3726,-6220,9616,172,117,811
1173739,19635884,18952192,19744212,19121620,3800,3800,-6289,15276,-5425,-9420,-15029,32767,172,117,811
1174733,19636852,18952616,19745074,19122482,3800,3800,639,26443,-4339,-7195,-11391,32767,170,99,811
1175734,19637876,18953116,19745936,19123344,3800,3800,3476,27961,-4467,-2504,-1967,-603,170,99,811
1176735,19638880,18953480,19746798,19124206,3800,3800,3227,23791,-5146,-2977,-1743,-2651,177,96,811
1177736,19639864,18953904,19747660,19125068,3800,3800,2509,18715,-5677,-3937,-2637,-4805,177,96,811
1178737,19640956,18954312,19748522,19125930,3800,3800,2657,12672,-5566,-13688,-4503,-7408,178,95,812
1179738,19641916,18954684,19749384,19126792,3800,3800,3573,3789,-4698,-20631,-5434,-9976,178,95,812
1180739,19642892,18955032,19750246,19127654,3800,3800,4321,-6329,-3383,-22358,-7847,-8924,178,84,812
1181740,19643920,18955392,19751108,19128516,3800,3800,4324,-13804,-1719,-17504,-10242,-2649,178,84,812
1182741,19644812,18955808,19751970,19129378,3800,3800,3689,-17284,-150,-13340,-8510,2785,178,91,809
1183742,19645684,18956192,19752832,19130240,3800,3800,2937,-17658,863,-9723,-5498,6226,178,91,809
1184743,19646624,18956628,19753694,19131102,3800,3800,2387,-16114,1630,-8045,-4422,8343,174,93,812
1185744,19647388,18957092,19754556,19131964,3800,3800,2246,-14539,2486,-8778,-3324,7369,174,93,812
1186745,19648144,18957576,19755418,19132826,3800,3800,2272,-14730,3296,-9341,-2232,4734,171,99,811
1187746,19648868,18958124,19756280,19133688,3800,3800,2233,-14834,4058,-9087,-1859,6827,171,99,811
1188747,19649576,18958672,19757142,19134550,3800,3800,2115,-15126,4904,-7586,-1315,5338,167,106,811
1189748,19650228,18959168,19758004,19135412,3800,3800,1803,-15026,5590,-4554,-351,6445,167,106,811
1190749,19650832,18959772,19758866,19136274,3800,3800,1560,-15195,6146,-2816,532,4583,144,103,810
1191750,19651460,18960360,19759728,19137136,3800,3800,1649,-16183,6616,-1175,294,2089,144,103,810
1192758,19651988,18960972,19760596,19138004,3800,3800,1775,-17277,7001,455,-151,2630,107,113,809
1193752,19652520,18961632,19761458,19138866,3800,3800,1493,-17485,7563,2160,-139,6064,107,113,809
1194753,19653124,18962304,19762320,19139728,3800,3800,823,-16889,8356,4088,-1203,6754,108,122,807
1195754,19653648,18962992,19763182,19140590,3800,3800,638,-16889,8998,4933,-1207,3383,108,122,807
1196755,19654244,18963748,19764044,19141452,3800,3800,785,-17292,9565,5555,-1774,4371,101,144,809
1197756,19654916,18964548,19764906,19142314,3800,3800,1074,-17478,10043,6096,-1914,4686,101,144,809
1198757,19655480,18965320,19765768,19143176,3800,3800,1426,-17716,10350,6085,-1809,3826,133,143,811
1199758,19656168,18966116,19766630,19144038,3800,3800,1863,-17747,10476,5749,-1519,4312,133,143,811
1200759,19656848,18966960,19767492,19144900,3800,3800,2156,-17100,10402,5933,-1496,6357,136,149,811
1201760,19657536,18967748,19768354,19145762,3800,3800,1758,-14844,10180,5831,-1150,11685,136,149,811
1202761,19658208,18968764,19769216,19146624,3800,3800,1531,-12808,9859,5087,287,7536,147,169,812
1203762,19658980,18969696,19770078,19147486,3800,3800,1758,-11126,9444,5271,1042,7795,147,169,812
1204763,19659628,18970556,19770940,19148348,3800,3800,2099,-9566,8957,5215,1657,8268,156,170,811
1205764,19660332,18971592,19771802,19149210,3800,3800,2394,-7287,8469,5142,1782,9989,156,170,811
1206765,19661188,18972628,19772664,19150072,3800,3800,2677,-4758,7946,4340,949,9267,150,197,814
1207766,19661936,18973664,19773526,19150934,3800,3800,3054,-2326,7619,3658,-2157,8688,150,197,814
1208767,19662708,18974644,19774388,19151796,3800,3800,3640,-354,7271,2908,-2805,6693,156,203,815
1209768,19663568,18975692,19775250,19152658,3800,3800,4386,1213,6789,2390,-3494,5402,156,203,815
1210769,19664496,18976620,19776112,19153520,3800,3800,5163,2573,6184,2838,-4108,4687,177,195,815
1211777,19665344,18977512,19776980,19154388,3800,3800,5596,4009,5165,5790,-6693,2463,177,195,815
1212771,19666276,18978440,19777842,19155250,3800,3800,6072,5112,4025,4891,-4737,1790,183,178,815
1213772,19667328,18979404,19778704,19156112,3800,3800,6579,5988,3298,5165,-2550,1448,183,178,815
1214773,19668260,18980184,19779566,19156974,3800,3800,7041,6814,2958,6236,-1375,2559,182,187,813
1215774,19669256,18980952,19780428,19157836,3800,3800,7310,7895,2562,7190,447,2335,182,187,813
1216775,19670368,18981652,19781290,19158698,3800,3800,7674,8393,1879,7413,843,-659,186,164,814
1217776,19671324,18982368,19782152,19159560,3800,3800,8192,7920,1071,7053,-272,-3796,186,164,814
1218777,19672328,18983192,19783014,19160422,3800,3800,8775,6597,368,6952,-1602,-5927,187,157,815
1219778,19673372,18983936,19783876,19161284,3800,3800,9311,5110,-185,6629,-1856,-6092,187,157,815
1220779,19674340,18984544,19784738,19162146,3800,3800,9550,4094,-653,6197,-1901,-4819,195,152,815
1221780,19675276,18985256,19785600,19163008,3800,3800,9365,4177,-941,6556,-2797,-1522,195,152,815
1222781,19676344,18985948,19786462,19163870,3800,3800,8768,4964,-1044,6590,-2947,14,195,136,815
1223782,19677188,18986628,19787324,19164732,3800,3800,8209,5668,-1390,5585,-1150,-1260,195,136,815
1224783,19678060,18987412,19788186,19165594,3800,3800,7693,5804,-2185,4356,700,-2226,207,143,814
1225784,19679036,18988112,19789048,19166456,3800,3800,7223,5855,-3233,3453,1986,-2039,207,143,814
1226785,19679912,18988820,19789910,19167318,3800,3800,6379,6303,-4320,2685,2703,-424,195,138,813
1227786,19680776,18989528,19790772,19168180,3800,3800,5423,7348,-5096,2270,2170,217,195,138,813
1228787,19681684,18990284,19791634,19169042,3800,3800,4571,8278,-5553,1567,2977,-606,178,156,814
1229788,19682564,18991132,19792496,19169904,3800,3800,3817,9195,-5860,1136,3598,-43,178,156,814
1230798,19683372,18991796,19793364,19170772,3800,3800,3097,10215,-5933,935,3224,570,194,151,814
1231790,19684228,18992604,19794226,19171634,3800,3800,2353,11311,-6010,679,4138,469,194,151,814
1232791,19684976,18993452,19795088,19172496,3800,3800,1621,12098,-6293,695,5322,-852,174,164,814
1233792,19685656,18994336,19795950,19173358,3800,3800,884,12351,-6885,1065,6783,-2094,174,164,814
1234793,19686268,18995236,19796812,19174220,3800,3800,241,12016,-7536,1395,7752,-3425,160,177,814
1235794,19686900,18996132,19797674,19175082,3800,3800,-304,11150,-7962,2058,7446,-4031,160,177,814
1236795,19687428,18997108,19798536,19175944,3800,3800,-741,10151,-8021,3173,5783,-4202,133,182,812
1237796,19687908,18997972,19799398,19176806,3800,3800,-1274,9081,-7676,3527,4236,-3966,133,182,812
1238797,19688408,18999056,19800260,19177668,3800,3800,-1859,8000,-7036,3717,3469,-3945,112,208,813
1239798,19688860,19000136,19801122,19178530,3800,3800,-2436,6697,-6283,3859,3455,-4284,112,208,813
1240799,19689292,19001308,19801984,19179392,3800,3800,-3050,5260,-5563,3976,3167,-4252,93,215,813
