"Data file recorded 2014/9/24  14:14:2"
"%  Right Stride Frequency         = 9.0"
"%  Left Stride Frequency         = 9.0"
"%  Phase (Fractional)         = 32768.0"
"%  Experiment.py "
"%  Motor Gains    = [1800, 200, 100, 0, 0, 1800, 200, 100, 0, 0]
"% Columns: "
"% time | Right Leg Pos | Left Leg Pos | Commanded Right Leg Pos | Commanded Left Leg Pos | DCR | DCL | GyroX | GryoY | GryoZ | AX | AY | AZ | RBEMF | LBEMF | VBatt "
11393,31399356,32442088,31380664,32462008,-3800,3800,498,752,-1137,252,-313,4105,-9,8,857
12394,31399376,32442124,31381270,32462614,-3800,3800,496,749,-1136,264,-310,4056,-9,8,857
13395,31399276,32442132,31381876,32463220,-3800,3800,496,748,-1135,262,-312,4070,-17,1,819
14396,31399172,32442264,31382482,32463826,-3800,3800,497,736,-1135,241,-286,4106,-17,1,819
15397,31399036,32442416,31383088,32464432,-3800,3800,499,713,-1157,144,-1,4101,-30,18,816
16398,31398872,32442624,31383694,32465038,-3800,3800,492,743,-1182,76,0,4027,-30,18,816
17399,31398704,32442860,31384300,32465644,-3800,3800,469,719,-1195,90,-24,3931,-43,40,817
18400,31398552,32443112,31384906,32466250,-3800,3800,432,676,-1200,-62,308,4000,-43,40,817
19401,31398368,32443332,31385512,32466856,-3800,3800,364,664,-1194,-366,202,4283,-43,38,818
20389,31398196,32443580,31386118,32467462,-3630,3800,296,746,-1169,-806,-243,4438,-43,38,818
21390,31398048,32443824,31386724,32468068,-3451,3800,253,816,-1123,-1157,-718,4404,-38,43,818
22391,31397872,32444068,31387330,32468674,-2934,3800,211,898,-1053,-1245,-1009,4500,-38,43,818
23392,31397752,32444288,31387936,32469280,-2967,3800,155,945,-945,-1245,-1034,4448,-36,33,820
24393,31397616,32444544,31388542,32469886,-2543,3800,89,940,-828,-1189,-900,4371,-36,33,820
25394,31397528,32444724,31389148,32470492,-2540,3800,33,818,-718,-1091,-900,4105,-29,45,821
26395,31397496,32444948,31389754,32471098,-2611,3800,20,576,-599,-837,-862,3822,-29,45,821
27396,31397468,32445192,31390360,32471704,-2359,3800,22,314,-465,-533,-796,3823,-18,37,825
28397,31397460,32445424,31390966,32472310,-2215,3800,4,-16,-342,-271,-573,3662,-18,37,825
29398,31397480,32445700,31391572,32472916,-2135,3800,-15,-433,-255,96,-272,3399,8,35,826
30399,31397472,32445968,31392178,32473522,-1691,3800,-44,-869,-202,603,77,3442,8,35,826
31400,31397464,32446200,31392784,32474128,-1422,3800,-105,-1317,-172,884,9,3553,9,50,827
32401,31397464,32446420,31393390,32474734,-1207,3800,-195,-1728,-164,1088,-227,3772,9,50,827
33402,31397464,32446664,31393996,32475340,-941,3800,-303,-2036,-165,1246,-633,3937,-8,34,830
34403,31397468,32446904,31394602,32475946,-702,3800,-424,-2279,-174,1444,-965,4347,-8,34,830
35404,31397460,32447128,31395208,32476552,-358,3800,-549,-2405,-203,1506,-1158,4751,2,36,832
36405,31397468,32447328,31395814,32477158,-195,3800,-643,-2524,-260,1484,-1188,4884,2,36,832
37413,31397472,32447568,31396442,32477786,3260,3800,-715,-2599,-335,1706,-1211,5133,4,37,834
38407,31397488,32447784,31397048,32478392,3444,3800,-754,-2693,-416,1960,-1027,5168,4,37,834
39408,31397528,32448000,31397654,32478998,3542,3800,-737,-2793,-521,2194,-584,5111,22,48,821
40409,31397736,32448236,31398260,32479604,2667,3800,-663,-3002,-625,2196,-255,5037,22,48,821
41410,31397956,32448392,31398866,32480210,2762,3800,-575,-3162,-708,2113,55,5311,48,48,819
42411,31398272,32448596,31399472,32480816,2290,3800,-519,-3225,-772,2351,354,5572,48,48,819
43412,31398572,32448736,31400078,32481422,2524,3800,-494,-3257,-856,2622,457,5627,47,29,824
44413,31398964,32448896,31400684,32482028,2043,3800,-476,-3241,-940,2797,211,5805,47,29,824
45414,31399344,32449052,31401290,32482634,2219,3800,-387,-3332,-1064,2815,255,5433,73,34,826
46415,31399732,32449216,31401896,32483240,2264,3800,-157,-3308,-1210,2964,185,6505,73,34,826
47416,31400300,32449324,31402502,32483846,1156,3800,875,-1591,-1172,2548,-944,20972,93,29,826
48417,31400800,32449436,31403108,32484452,1629,3800,2156,196,-1145,2970,174,14338,93,29,826
49418,31401324,32449520,31403714,32485058,1515,3800,2655,460,-1256,3480,1148,4873,69,26,830
50419,31401772,32449596,31404320,32485664,2060,3800,2702,-168,-1419,3322,1069,4157,69,26,830
51420,31402204,32449672,31404926,32486270,2237,3800,2723,-880,-1592,3204,1158,3987,90,28,829
52421,31402680,32449728,31405532,32486876,2020,3800,2965,-1320,-1740,2918,1614,3699,90,28,829
53422,31403176,32449784,31406138,32487482,1943,3800,3278,-1639,-1842,2612,1554,3767,102,10,826
54423,31403720,32449832,31406744,32488088,1671,3800,3532,-1621,-1938,2235,1401,4422,102,10,826
55424,31404176,32449888,31407350,32488694,2287,3800,3716,-1640,-2061,1546,1329,4337,104,10,825
56425,31404704,32449924,31407956,32489300,1873,3800,3834,-1425,-2144,1484,899,5002,104,10,825
57426,31405200,32449928,31408562,32489906,2122,3800,3890,-1010,-2131,1290,624,5454,94,14,825
58427,31405636,32449940,31409168,32490512,2572,3800,3872,-175,-2042,222,289,6621,94,14,825
59428,31406180,32449956,31409774,32491118,1925,3800,3843,653,-2011,-869,395,6031,96,13,825
60429,31406696,32449944,31410380,32491724,2140,3800,3822,1322,-2088,-1397,497,5726,96,13,825
61430,31407132,32449940,31410986,32492330,2715,3800,3788,2167,-2161,-1611,796,6164,84,1,826
62431,31407564,32449932,31411592,32492936,2818,3800,3748,2937,-2182,-1977,840,5458,84,1,826
63432,31407904,32449928,31412198,32493542,3511,3800,3673,3549,-2161,-2143,695,5192,99,7,823
64440,31408412,32449956,31412826,32494170,2514,3800,3652,4096,-2039,-2134,898,4546,99,7,823
65434,31408836,32449952,31413432,32494776,3119,3800,3653,4497,-1860,-1792,977,3837,88,15,820
66435,31409316,32449952,31414038,32495382,2826,3800,3705,4842,-1649,-1787,938,3259,88,15,820
67436,31409768,32449944,31414644,32495988,3069,3800,3745,4948,-1390,-1890,979,2700,94,0,822
68437,31410180,32449932,31415250,32496594,3406,3800,3763,5161,-1111,-1385,580,2810,94,0,822
69438,31410656,32449964,31415856,32497200,3064,3800,3819,5316,-808,-1304,396,2227,91,14,821
70439,31411068,32449968,31416462,32497806,3550,3800,3890,5333,-540,-1448,89,2026,91,14,821
71440,31411508,32449964,31417068,32498412,3449,3800,3958,5200,-426,-1465,402,1226,93,5,821
72441,31411972,32449956,31417674,32499018,3362,3800,3880,4895,-489,-1249,783,1033,93,5,821
73442,31412400,32449968,31418280,32499624,3666,3800,3704,4760,-679,-944,344,1048,106,15,819
74443,31412860,32449960,31418886,32500230,3532,3800,3470,4510,-915,-934,-441,872,106,15,819
75444,31413300,32449988,31419492,32500836,3732,3800,3256,4386,-1179,-857,-778,1172,79,16,818
76458,31413704,32449980,31420098,32501442,3800,3800,2992,4316,-1468,-632,-1043,1406,79,16,818
77459,31414096,32449964,31420704,32502048,3800,3800,2723,4463,-1758,-249,-1440,1913,86,18,817
78459,31414520,32449976,31421310,32502654,3800,3800,2424,4627,-2047,-120,-1505,1986,86,18,817
79461,31414896,32449992,31421916,32503260,3800,3800,2117,4723,-2374,219,-1370,1845,72,14,816
80462,31415252,32450020,31422522,32503866,3800,3800,1783,4694,-2760,597,-1271,1457,72,14,816
81463,31415588,32450040,31423128,32504472,3800,3800,1449,4487,-3203,835,-884,982,62,10,815
82464,31415876,32450048,31423734,32505078,3800,3800,1127,4135,-3670,989,-349,838,62,10,815
83465,31416128,32450048,31424340,32505684,3800,3800,826,3591,-4087,1427,691,478,49,4,815
84466,31416348,32450064,31424946,32506290,3800,3800,547,3042,-4437,2136,1373,585,49,4,815
85467,31416576,32450108,31425552,32506896,3800,3800,270,2530,-4748,2485,1736,559,55,19,815
86467,31416768,32450152,31426158,32507502,3800,3800,0,1973,-5056,2444,1914,586,55,19,815
87469,31416912,32450204,31426764,32508108,3800,3800,-274,1427,-5347,2436,1862,835,37,16,813
88470,31417144,32450216,31427370,32508714,3800,3800,-536,990,-5576,2602,1693,1364,37,16,813
89471,31417336,32450212,31427976,32509320,3800,3800,-812,675,-5734,2778,1876,1745,49,18,811
90472,31417540,32450240,31428582,32509926,3800,3800,-1060,298,-5819,2834,2260,1652,49,18,811
91479,31417812,32450256,31429210,32510554,3800,3800,-1305,-147,-5851,3006,2583,1915,46,12,813
92474,31418068,32450304,31429816,32511160,3800,3800,-1556,-326,-5808,3032,2296,2758,46,12,813
93475,31418296,32450348,31430422,32511766,3800,3800,-1852,-155,-5676,2446,1559,3837,48,6,814
94475,31418548,32450392,31431028,32512372,3800,3800,-2185,360,-5432,1789,1125,4825,48,6,814
95477,31418816,32450468,31431634,32512978,3800,3800,-2491,818,-5144,1570,1907,4679,62,17,815
96478,31419072,32450564,31432240,32513584,3800,3800,-2724,1093,-4895,1892,2938,4186,62,17,815
97479,31419360,32450700,31432846,32514190,3800,3800,-2900,1241,-4649,1853,3714,4068,48,22,815
98479,31419652,32450832,31433452,32514796,3800,3800,-3038,1300,-4353,1317,3920,3904,48,22,815
99481,31419980,32451012,31434058,32515402,3800,3800,-3195,1286,-4022,975,3620,3997,51,44,816
100481,31420316,32451156,31434664,32516008,3800,3800,-3338,1259,-3664,757,3296,3935,51,44,816
101483,31420688,32451320,31435270,32516614,3800,3800,-3423,1087,-3286,490,3037,3546,77,46,817
102483,31421088,32451492,31435876,32517220,3800,3800,-3435,759,-2897,20,2721,3221,77,46,817
103485,31421500,32451696,31436482,32517826,3800,3800,-3424,337,-2471,-263,2190,3490,64,50,817
104486,31421936,32451908,31437088,32518432,3800,3800,-3413,178,-2053,-291,1728,4042,64,50,817
105487,31422380,32452080,31437694,32519038,3800,3800,-3372,-38,-1708,-545,1605,3579,94,49,818
106488,31422820,32452304,31438300,32519644,3800,3800,-3322,-289,-1392,-961,726,4122,94,49,818
107489,31423320,32452452,31438906,32520250,3800,3800,-3178,-434,-1048,-1109,-161,5312,102,48,819
108490,31423796,32452604,31439512,32520856,3800,3800,-1477,1792,-632,142,-2581,28521,102,48,819
109490,31424288,32452768,31440118,32521462,3800,3800,1512,6007,-282,719,-3383,32767,88,45,819
110491,31424780,32452960,31440724,32522068,3800,3800,3177,7188,-75,-1057,-50,5609,88,45,819
111492,31425288,32453148,31441330,32522674,3800,3800,3297,5702,74,-1134,603,1380,99,41,819
112494,31425780,32453360,31441936,32523280,3800,3800,3012,3484,138,-793,619,128,99,41,819
113495,31426280,32453520,31442542,32523886,3800,3800,2912,1787,183,-793,79,585,91,44,817
114495,31426728,32453708,31443148,32524492,3800,3800,3032,484,290,-657,-703,910,91,44,817
115496,31427252,32453848,31443754,32525098,3800,3800,3142,-493,407,-147,-1038,1451,98,47,819
116498,31427752,32454024,31444360,32525704,3800,3800,3200,-1440,491,-117,-998,1578,98,47,819
117499,31428232,32454240,31444966,32526310,3800,3800,3307,-2419,462,-218,-708,1486,100,48,819
118509,31428764,32454412,31445594,32526938,3800,3800,3381,-3369,294,-190,-512,1816,100,48,819
119500,31429380,32454580,31446200,32527544,3800,3800,3480,-4246,69,-275,-340,1937,109,48,818
120502,31429976,32454756,31446806,32528150,3800,3800,3531,-4806,-158,5,-264,2910,109,48,818
121503,31430632,32454944,31447412,32528756,3800,3800,3529,-5117,-336,-22,-415,3485,117,39,819
122504,31431316,32455128,31448018,32529362,3800,3800,3530,-5206,-469,-45,54,4140,117,39,819
123504,31432152,32455328,31448624,32529968,3800,3800,3490,-5100,-621,246,549,4453,136,53,820
124506,31432884,32455488,31449230,32530574,3800,3800,3511,-4943,-787,108,887,4577,136,53,820
125506,31433704,32455680,31449836,32531180,3800,3800,3484,-4516,-902,-218,772,5476,144,45,821
126508,31434516,32455940,31450442,32531786,3800,3800,3451,-4146,-970,-132,1056,4974,144,45,821
127508,31435340,32456188,31451048,32532392,3800,3800,3380,-3693,-988,262,1757,5284,153,49,823
128510,31436180,32456424,31451654,32532998,3800,3800,3270,-3141,-940,228,1804,5295,153,49,823
129511,31437144,32456640,31452260,32533604,3800,3800,3189,-2653,-827,-328,1628,4850,172,64,823
130512,31438088,32456900,31452866,32534210,3800,3800,3141,-2214,-618,-1258,1141,4866,172,64,823
131512,31438992,32457148,31453472,32534816,3800,3800,3181,-1711,-326,-2186,712,4786,172,51,822
132513,31439948,32457400,31454078,32535422,3800,3800,3206,-1130,15,-3009,-117,4959,172,51,822
133514,31440840,32457632,31454684,32536028,3800,3800,3267,-701,364,-3708,81,4335,184,52,825
134515,31441708,32457888,31455290,32536634,3800,3800,3314,-327,741,-4052,121,4299,184,52,825
135516,31442632,32458112,31455896,32537240,3800,3800,3385,-47,1169,-4474,366,3614,174,62,824
136518,31443456,32458384,31456502,32537846,3800,3800,3493,111,1661,-5204,211,3207,174,62,824
137519,31444252,32458636,31457108,32538452,3800,3800,3697,53,2775,-6045,-87,2740,179,48,824
138520,31445100,32458904,31457714,32539058,3800,3800,3768,63,3485,-6003,-812,2799,179,48,824
139521,31445852,32459184,31458320,32539664,3800,3800,3747,3,4261,-5832,-1116,2733,173,63,823
140522,31446628,32459440,31458926,32540270,3800,3800,3734,-268,4927,-4938,-617,1925,173,63,823
141523,31447352,32459688,31459532,32540876,3800,3800,3682,-738,5423,-3635,-503,1064,161,72,823
142523,31448056,32460024,31460138,32541482,3800,3800,3688,-1556,5711,-2194,96,-283,161,72,823
143524,31448708,32460344,31460744,32542088,3800,3800,3628,-2430,5861,-1126,467,-27,147,72,822
144526,31449348,32460652,31461350,32542694,3800,3800,3469,-3127,5920,-668,606,716,147,72,822
145534,31450072,32460932,31461978,32543322,3800,3800,3165,-3395,5894,-314,533,1811,130,62,821
146528,31450644,32461280,31462584,32543928,3800,3800,2814,-3568,5650,192,2017,1662,130,62,821
147529,31451288,32461612,31463190,32544534,3800,3800,2350,-3357,5133,1099,3160,3297,119,62,821
148530,31451836,32461920,31463796,32545140,3800,3800,1700,-2924,4417,1951,3292,3950,119,62,821
149531,31452404,32462184,31464402,32545746,3800,3800,978,-2289,3597,2635,3260,4430,111,75,821
150531,31452944,32462520,31465008,32546352,3800,3800,346,-1765,2766,2984,3290,4054,111,75,821
151532,31453400,32462856,31465614,32546958,3800,3800,-247,-1152,1855,2836,3653,4751,115,68,821
152534,31454008,32463152,31466220,32547564,3800,3800,-753,-773,875,3476,3374,3500,115,68,821
153534,31454472,32463452,31466826,32548170,3800,3800,-1160,-635,-90,4241,3426,3069,101,76,820
154535,31455068,32463760,31467432,32548776,3800,3800,-1502,-536,-980,4732,3356,2882,101,76,820
155536,31455552,32464128,31468038,32549382,3800,3800,-1821,-452,-1844,5049,3218,2960,112,78,821
156537,31456092,32464520,31468644,32549988,3800,3800,-2075,-391,-2643,5007,2990,2617,112,78,821
157538,31456708,32464848,31469250,32550594,3800,3800,-2193,-447,-3367,5244,2732,2226,119,67,820
158539,31457228,32465188,31469856,32551200,3800,3800,-2268,-567,-4069,5334,2581,2200,119,67,820
159540,31457816,32465612,31470462,32551806,3800,3800,-2302,-576,-4693,5156,2314,2489,126,77,821
160541,31458392,32466044,31471068,32552412,3800,3800,-2319,-518,-5251,5044,1942,2577,126,77,821
161543,31458980,32466488,31471674,32553018,3800,3800,-2267,-381,-5751,4750,1363,2639,113,96,822
162543,31459552,32466988,31472280,32553624,3800,3800,-2117,-171,-6228,4354,1018,2774,113,96,822
163545,31460104,32467488,31472886,32554230,3800,3800,-1910,98,-6709,4104,571,2980,111,90,823
164545,31460808,32467948,31473492,32554836,3800,3800,-1658,489,-7128,3792,-45,3197,111,90,823
165546,31461436,32468488,31474098,32555442,3800,3800,-1335,932,-7434,3367,-445,3221,132,110,822
166547,31462112,32469040,31474704,32556048,3800,3800,-945,1461,-7659,2863,-594,3355,132,110,822
167548,31462800,32469592,31475310,32556654,3800,3800,-535,2069,-7818,2307,-673,3658,129,102,823
168549,31463456,32470200,31475916,32557260,3800,3800,-98,2588,-7927,2101,-592,3205,129,102,823
169551,31464128,32470728,31476522,32557866,3800,3800,372,2992,-7978,2281,-719,3087,136,117,822
170552,31464956,32471360,31477128,32558472,3800,3800,834,3331,-7958,2291,-676,2950,136,117,822
171553,31465720,32471952,31477734,32559078,3800,3800,1300,3635,-7877,2097,-687,2717,135,111,824
172561,31466544,32472672,31478362,32559706,3800,3800,1716,3919,-7781,1820,-461,2637,135,111,824
173555,31467360,32473348,31478968,32560312,3800,3800,2022,4379,-7615,1776,-338,3121,135,120,826
174556,31468100,32473988,31479574,32560918,3800,3800,2160,5013,-7364,1793,-302,3693,135,120,826
175557,31468896,32474728,31480180,32561524,3800,3800,2200,5651,-7056,1680,-131,3390,156,143,826
176545,31469784,32475424,31480786,32562130,3293,3800,2269,6051,-6733,1518,118,2657,156,143,826
177559,31470568,32476160,31481392,32562736,3800,3800,2332,6371,-6433,1625,572,2615,153,134,827
178560,31471344,32476976,31481998,32563342,3800,3800,2267,6951,-6117,1729,713,3620,153,134,827
179548,31472292,32477720,31482604,32563948,2621,3800,2035,7727,-5659,1534,556,3697,159,144,830
180562,31473032,32478484,31483210,32564554,3800,3800,1804,8167,-5151,1322,950,2398,159,144,830
181563,31473716,32479168,31483816,32565160,3800,3800,1627,8424,-4629,1260,962,2365,145,149,827
182564,31474452,32479836,31484422,32565766,3800,3800,1439,8663,-4030,1004,452,2415,145,149,827
183552,31475216,32480508,31485028,32566372,3558,3800,1158,9018,-3343,743,-171,2756,161,143,828
184553,31475940,32481100,31485634,32566978,3759,3800,728,9646,-2343,974,-1649,3611,161,143,828
185554,31476656,32481732,31486240,32567584,3762,3800,344,10056,-1453,393,-722,1984,158,124,827
186555,31477416,32482260,31486846,32568190,3422,3800,3,10332,-815,203,-262,2349,158,124,827
187556,31478144,32482932,31487452,32568796,3570,3800,-406,10489,-345,-52,106,2112,151,137,826
188557,31478888,32483596,31488058,32569402,3411,3800,-816,10561,-68,-611,837,1664,151,137,826
189558,31479640,32484300,31488664,32570008,3298,3800,-1266,10424,-18,-1238,1488,1006,161,139,828
190559,31480348,32484888,31489270,32570614,3530,3800,-1873,10087,-231,-1525,2511,521,161,139,828
191560,31481060,32485528,31489876,32571220,3461,3800,-2535,9617,-642,-1742,2923,270,150,126,828
192561,31481780,32486120,31490482,32571826,3362,3800,-3277,9281,-1196,-2230,2849,848,150,126,828
193575,31482392,32486716,31491088,32572432,3800,3800,-4187,9200,-1994,-2663,3422,1330,131,123,827
194576,31482956,32487292,31491694,32573038,3800,3800,-5168,9085,-3117,-3052,4410,909,131,123,827
195577,31483516,32487880,31492300,32573644,3800,3800,-6115,8746,-4440,-3038,4622,559,97,104,826
196578,31484012,32488380,31492906,32574250,3800,3800,-7104,8328,-5866,-2387,4779,911,97,104,826
197579,31484432,32488924,31493512,32574856,3800,3800,-8108,7805,-7176,-1649,4342,611,87,108,822
198579,31484880,32489540,31494118,32575462,3800,3800,-8926,6741,-8276,-907,2061,-1266,87,108,822
199587,31485260,32490080,31494746,32576090,3800,3800,-9451,4996,-9100,-178,570,-2665,81,116,822
200581,31485656,32490832,31495352,32576696,3800,3800,-9866,3002,-9567,104,-969,-2675,81,116,822
201582,31486008,32491548,31495958,32577302,3800,3800,-10278,840,-9744,461,-2148,-3050,84,150,822
202584,31486392,32492196,31496564,32577908,3800,3800,-10829,-1239,-9519,1482,-4565,-2382,84,150,822
203585,31486720,32492932,31497170,32578514,3800,3800,-11435,-3104,-8895,2162,-6774,-1721,84,133,822
204586,31487060,32493728,31497776,32579120,3800,3800,-11726,-5057,-8225,2590,-6794,-2289,84,133,822
205587,31487428,32494412,31498382,32579726,3800,3800,-10582,-7442,-7471,4550,-7688,6125,80,149,823
206588,31487764,32495260,31498988,32580332,3800,3800,-776,-9117,-7204,14796,-14494,32767,80,149,823
207589,31488100,32496064,31499594,32580938,3800,3800,7737,-2313,-6385,11666,-14640,32767,65,166,825
208590,31488508,32496944,31500200,32581544,3800,3800,7036,4212,-5242,4086,-4639,19202,65,166,825
209591,31488884,32497932,31500806,32582150,3800,3800,3493,5343,-4809,1779,-2820,2927,85,176,825
210592,31489296,32498872,31501412,32582756,3800,3800,2064,2430,-4915,642,-1787,-2908,85,176,825
211593,31489764,32499864,31502018,32583362,3800,3800,2476,-934,-5034,324,-1824,-2151,100,200,825
212594,31490228,32500816,31502624,32583968,3800,3800,2960,-2657,-4977,-76,-2065,688,100,200,825
213595,31490692,32501884,31503230,32584574,3800,3800,3067,-3325,-4781,-976,-1294,1770,116,196,826
214596,31491272,32502836,31503836,32585180,3800,3800,2874,-3418,-4730,-1191,-804,2858,116,196,826
215597,31491812,32503796,31504442,32585786,3800,3800,2774,-3441,-5046,-2294,456,2844,114,196,828
216598,31492396,32504832,31505048,32586392,3800,3800,2916,-3644,-5577,-3960,1083,3246,114,196,828
217599,31493072,32505764,31505654,32586998,3800,3800,3170,-3423,-6116,-3755,978,4545,133,191,829
218600,31493748,32506652,31506260,32587604,3800,3800,3306,-2693,-6410,-3627,593,5695,133,191,829
219601,31494428,32507524,31506866,32588210,3800,3800,3326,-1442,-6487,-4296,61,6784,136,209,829
220602,31495192,32508412,31507472,32588816,3800,3800,3349,-256,-6541,-4899,-1156,6428,136,209,829
221603,31496060,32509308,31508078,32589422,3800,3800,3536,826,-6570,-5157,-2152,6262,165,188,829
222604,31496904,32510248,31508684,32590028,3800,3800,3863,1874,-6526,-5175,-2792,5871,165,188,829
223592,31497772,32511084,31509290,32590634,3739,3800,4290,2846,-6424,-5127,-3564,5390,160,195,830
224593,31498764,32511932,31509896,32591240,2797,3800,4771,3542,-6232,-5034,-3961,4889,160,195,830
225594,31499704,32512712,31510502,32591846,2978,3800,5243,4004,-5982,-4188,-4058,3936,179,161,830
226604,31500652,32513524,31511130,32592474,2789,3800,5687,4153,-5722,-3541,-4142,2823,179,161,830
227596,31501636,32514292,31511736,32593080,2400,3800,6133,4064,-5439,-3832,-3779,2073,177,162,834
228597,31502596,32515000,31512342,32593686,2396,3800,6555,3469,-5117,-4131,-3852,705,177,162,834
229598,31503532,32515644,31512948,32594292,2403,3800,6989,2779,-4739,-3938,-4004,301,207,139,834
230599,31504520,32516264,31513554,32594898,1912,3800,7369,1998,-4279,-4073,-3710,-122,207,139,834
231600,31505360,32516792,31514160,32595504,2736,3800,7756,1130,-3866,-4294,-3562,-562,187,121,833
232601,31506192,32517284,31514766,32596110,2688,3800,8007,52,-3530,-4372,-4121,-528,187,121,833
233602,31507096,32517788,31515372,32596716,2108,3800,8157,-938,-3197,-4105,-4589,-222,170,89,834
234603,31507844,32518160,31515978,32597322,3023,3800,8146,-1849,-2833,-4382,-4433,109,170,89,834
235604,31508588,32518500,31516584,32597928,2989,3800,8070,-2494,-2369,-5912,-4109,1291,163,80,829
236605,31509320,32518844,31517190,32598534,3010,3800,7963,-2882,-1776,-7298,-3569,1892,163,80,829
237606,31509984,32519132,31517796,32599140,3412,3800,7799,-3074,-1094,-7421,-2955,2519,149,76,828
238607,31510604,32519392,31518402,32599746,3681,3800,7594,-3398,-378,-6348,-1853,1806,149,76,828
239608,31511212,32519632,31519008,32600352,3756,3800,7354,-4393,231,-4685,-141,233,142,54,826
240609,31511828,32519868,31519614,32600958,3704,3800,7210,-6104,726,-2722,1177,-1831,142,54,826
241623,31512380,32520060,31520220,32601564,3800,3800,7048,-8109,1217,-1273,2328,-2064,122,36,822
242623,31512844,32520228,31520826,32602170,3800,3800,6676,-9877,1764,-119,3324,-1278,122,36,822
243625,31513428,32520372,31521432,32602776,3800,3800,6087,-11402,2366,1069,4392,-951,105,38,820
244626,31513840,32520536,31522038,32603382,3800,3800,5065,-12279,3065,2713,4464,1262,105,38,820
245627,31514304,32520664,31522644,32603988,3800,3800,3145,-11999,3899,3465,2641,4726,98,26,817
246627,31514812,32520780,31523250,32604594,3800,3800,1556,-12504,4537,3082,3120,-436,98,26,817
247629,31515284,32520912,31523856,32605200,3800,3800,771,-14262,4952,3622,4214,-1973,89,28,817
248630,31515792,32521024,31524462,32605806,3800,3800,222,-15967,5430,4322,3868,-234,89,28,817
249631,31516300,32521200,31525068,32606412,3800,3800,-413,-16767,5968,5220,4054,1362,88,42,819
250632,31516840,32521376,31525674,32607018,3800,3800,-1597,-16034,6433,6299,5054,6342,88,42,819
251633,31517372,32521560,31526280,32607624,3800,3800,-2711,-14925,6816,6427,4779,5408,112,33,819
252634,31517888,32521748,31526886,32608230,3800,3800,-3545,-13892,7152,6259,4093,6149,112,33,819
253641,31518464,32521944,31527514,32608858,3800,3800,-4299,-12843,7536,6009,3069,6609,105,43,820
254636,31518928,32522112,31528120,32609464,3800,3800,-4699,-12694,7958,4979,1458,1660,105,43,820
255637,31519564,32522320,31528726,32610070,3800,3800,-4719,-13313,8100,4136,1738,401,111,50,820
256638,31520240,32522568,31529332,32610676,3800,3800,-4951,-13308,8151,4238,578,3421,111,50,820
257639,31520780,32522780,31529938,32611282,3800,3800,-5044,-13233,7986,3232,-544,580,124,44,819
258627,31521504,32523048,31530544,32611888,3610,3800,-4831,-13428,7575,2686,-1226,387,124,44,819
259641,31522136,32523292,31531150,32612494,3800,3800,-4434,-13197,7280,2935,-3056,2144,134,50,821
260629,31522864,32523540,31531756,32613100,3523,3800,-3998,-12318,7091,2862,-4077,3328,134,50,821
261630,31523580,32523796,31532362,32613706,3552,3800,-3463,-11175,6800,2268,-4431,3531,159,66,823
262631,31524440,32524088,31532968,32614312,2541,3800,-2646,-9710,6093,1705,-2715,4614,159,66,823
263632,31525172,32524388,31533574,32614918,3288,3800,-1843,-7677,5211,1615,-1067,6442,136,67,823
264633,31525900,32524652,31534180,32615524,3261,3800,-1267,-5136,4240,1645,913,7555,136,67,823
265634,31526700,32524936,31534786,32616130,2727,3800,-781,-2431,2999,1371,2411,7748,133,63,828
266635,31527484,32525212,31535392,32616736,2751,3800,-243,108,1702,1346,1724,7088,133,63,828
267636,31528276,32525556,31535998,32617342,2620,3800,386,2316,361,2432,-565,6009,153,63,824
268637,31529172,32525888,31536604,32617948,1845,3800,1147,4092,-1144,4507,-4895,5256,153,63,824
269638,31530000,32526188,31537210,32618554,2173,3800,1965,5694,-1998,2373,-2780,4283,142,60,826
270639,31530712,32526440,31537816,32619160,2852,3800,2695,6833,-2259,2596,-2582,2380,142,60,826
271640,31531528,32526832,31538422,32619766,2112,3800,3416,7292,-2358,3782,-2366,539,145,67,830
272641,31532396,32527180,31539028,32620372,1673,3800,4080,7472,-2545,5179,-1834,19,145,67,830
273642,31533128,32527496,31539634,32620978,2469,3800,4661,7421,-2883,6502,-780,-871,136,73,827
274643,31533884,32527784,31540240,32621584,2255,3800,4969,7423,-3288,7457,-229,-62,136,73,827
275644,31534592,32528120,31540846,32622190,2511,3800,5066,7780,-3712,7722,120,549,147,67,831
276645,31535268,32528484,31541452,32622796,2681,3800,5024,7993,-4284,7830,1598,144,147,67,831
277646,31535960,32528840,31542058,32623402,2544,3800,4999,7968,-4907,8044,1960,-132,136,65,829
278647,31536604,32529136,31542664,32624008,2829,3800,4941,7672,-5394,8467,2344,-277,136,65,829
279648,31537252,32529472,31543270,32624614,2787,3800,4949,7253,-5722,8339,2642,-756,123,70,826
280656,31537960,32529872,31543898,32625242,2378,3800,5032,6656,-5907,7837,2142,-1199,123,70,826
281650,31538600,32530216,31544504,32625848,2789,3800,5122,5969,-5918,7444,1725,-1203,139,68,827
282651,31539160,32530576,31545110,32626454,3310,3800,4929,5567,-5936,6491,1929,178,139,68,827
283652,31539724,32530876,31545716,32627060,3305,3800,4356,6002,-5869,5905,945,3084,121,65,828
284653,31540388,32531256,31546322,32627666,2655,3800,3144,7990,-5657,4944,272,7711,121,65,828
285654,31541000,32531656,31546928,32628272,2979,3800,2112,9671,-5502,3977,1854,3946,129,84,825
286655,31541576,32532016,31547534,32628878,3218,3800,1317,11074,-5099,3874,922,5105,129,84,825
287655,31542200,32532348,31548140,32629484,2912,3800,560,12394,-4483,3713,2554,5228,123,73,828
288657,31542816,32532844,31548746,32630090,2958,3800,120,13322,-4166,2591,4813,2985,123,73,828
289658,31543416,32533248,31549352,32630696,3062,3800,-87,13860,-4119,1945,5033,2295,142,77,823
290659,31544108,32533636,31549958,32631302,2450,3800,-283,14260,-4035,1782,4342,2247,142,77,823
291660,31544704,32534100,31550564,32631908,3056,3800,-510,14862,-3762,1725,3810,2821,133,103,825
292661,31545300,32534572,31551170,32632514,3061,3800,-740,15510,-3418,1450,4269,2298,133,103,825
293662,31545968,32535008,31551776,32633120,2585,3800,-904,15961,-3147,1254,4402,1517,137,88,828
294663,31546572,32535536,31552382,32633726,2987,3800,-1004,16161,-2903,1139,4258,913,137,88,828
295664,31547152,32536044,31552988,32634332,3150,3800,-1075,16185,-2682,868,4446,553,106,95,827
296665,31547752,32536528,31553594,32634938,3029,3800,-1129,16185,-2479,730,4106,274,106,95,827
297666,31548316,32537108,31554200,32635544,3273,3800,-1069,16090,-2248,424,3533,-324,111,112,828
298667,31548884,32537668,31554806,32636150,3266,3800,-943,15970,-1966,333,2967,-315,111,112,828
299668,31549428,32538364,31555412,32636756,3444,3800,-871,15837,-1665,236,2346,-391,122,120,827
300669,31549984,32538988,31556018,32637362,3392,3800,-847,15639,-1360,-40,1746,-585,122,120,827
301670,31550572,32539624,31556624,32637968,3201,3800,-828,15457,-1153,-326,1033,-775,118,116,825
302671,31551088,32540300,31557230,32638574,3692,3800,-849,15143,-1123,-582,352,-1199,118,116,825
303672,31551652,32540944,31557836,32639180,3412,3800,-907,14762,-1225,-857,-34,-1227,117,121,826
304673,31552172,32541720,31558442,32639786,3726,3800,-1009,14481,-1505,-1247,-130,-972,117,121,826
305687,31552680,32542276,31559048,32640392,3800,3800,-1091,14357,-1936,-1722,-876,-555,102,141,824
306675,31553244,32542940,31559654,32640998,3514,3800,-1153,14211,-2494,-2195,-1222,-726,102,141,824
307696,31553700,32543468,31560282,32641626,3800,3800,-1227,13971,-3194,-2482,-1076,-1210,99,123,824
308690,31554208,32544052,31560888,32642232,3800,3800,-1367,13760,-3992,-2746,-1376,-625,99,123,824
309691,31554744,32544484,31561494,32642838,3800,3800,-1571,13644,-4816,-3107,-2011,-271,103,91,824
310692,31555220,32544884,31562100,32643444,3800,3800,-1746,13560,-5657,-3540,-2246,-224,103,91,824
311693,31555712,32545208,31562706,32644050,3800,3800,-1868,13347,-6600,-3899,-2010,-609,104,81,820
312694,31556224,32545480,31563312,32644656,3800,3800,-1893,13004,-7643,-4338,-2088,-744,104,81,820
313695,31556692,32545740,31563918,32645262,3800,3800,-1924,12567,-8705,-4685,-2474,-596,89,49,817
314696,31557160,32545956,31564524,32645868,3800,3800,-1944,12016,-9664,-4624,-2934,-808,89,49,817
315696,31557624,32546144,31565130,32646474,3800,3800,-1995,11339,-10305,-4642,-3843,-664,89,51,816
316698,31558064,32546320,31565736,32647080,3800,3800,-1964,9066,-10385,-9938,-3998,-3579,89,51,816
317699,31558532,32546508,31566342,32647686,3800,3800,-1860,4034,-10051,-13566,-4567,-6441,84,54,818
318700,31558956,32546708,31566948,32648292,3800,3800,-1756,-2560,-9538,-16672,-4732,-7143,84,54,818
319701,31559480,32546956,31567554,32648898,3800,3800,-1723,-9421,-8926,-17138,-4206,-7148,86,57,818
320702,31559968,32547184,31568160,32649504,3800,3800,-1886,-15137,-8239,-15228,-3724,-4686,86,57,818
321703,31560504,32547508,31568766,32650110,3800,3800,-2217,-18584,-7518,-11482,-3753,-868,80,54,819
322704,31561048,32547804,31569372,32650716,3800,3800,-2579,-19846,-6769,-8147,-3597,2291,80,54,819
323705,31561596,32548168,31569978,32651322,3800,3800,-2879,-19973,-6001,-5217,-2756,3653,103,85,819
324706,31562124,32548560,31570584,32651928,3800,3800,-3173,-19519,-5322,-2296,-2077,4592,103,85,819
325707,31562752,32548928,31571190,32652534,3800,3800,-3461,-18784,-4755,-1009,-1233,4849,116,71,822
326708,31563332,32549296,31571796,32653140,3800,3800,-3740,-18484,-4229,-402,-413,4225,116,71,822
327709,31563920,32549700,31572402,32653746,3800,3800,-4042,-18499,-3802,954,398,4595,112,75,821
328697,31564616,32550100,31573008,32654352,3592,3800,-4424,-18553,-3446,2063,1914,4873,112,75,821
329711,31565236,32550468,31573614,32654958,3800,3800,-4773,-18476,-3068,3407,3111,4935,110,103,822
330712,31565856,32550980,31574220,32655564,3800,3800,-5133,-18386,-2719,5042,3859,5009,110,103,822
331700,31566584,32551436,31574826,32656170,3331,3800,-5512,-18009,-2452,6135,5336,6562,129,94,824
332701,31567244,32552016,31575432,32656776,3735,3800,-6197,-16774,-2263,7491,6447,9872,129,94,824
333702,31567940,32552532,31576038,32657382,3471,3800,-7533,-14332,-1921,9651,5720,16323,127,106,822
334712,31568728,32553056,31576666,32658010,2828,3800,-8834,-11600,-1615,11793,6116,18158,127,106,822
335704,31569428,32553584,31577272,32658616,3338,3800,-7717,-8732,-1705,16667,7527,29470,134,116,824
336705,31570136,32554136,31577878,32659222,3245,3800,-2725,-527,-2740,25366,6349,32767,134,116,824
337706,31570820,32554640,31578484,32659828,3361,3800,1148,3358,-3530,13507,3750,19295,142,107,828
338707,31571548,32555288,31579090,32660434,3035,3800,2212,1644,-3666,8375,2440,7680,142,107,828
339708,31572188,32555852,31579696,32661040,3571,3800,1821,-1979,-3536,7514,1567,6826,137,112,828
340709,31572864,32556520,31580302,32661646,3317,3800,1361,-3999,-3233,6225,-332,8161,137,112,828
341710,31573508,32557176,31580908,32662252,3501,3800,1088,-4979,-2722,4499,-1697,7237,144,142,829
342723,31574064,32557760,31581514,32662858,3800,3800,1354,-6216,-2389,2932,-604,4219,144,142,829
343724,31574592,32558504,31582120,32663464,3800,3800,1626,-7591,-2178,1418,-1743,3863,120,116,828
344726,31575056,32559320,31582726,32664070,3800,3800,1576,-9128,-1769,-409,-4214,1720,120,116,828
345727,31575480,32560052,31583332,32664676,3800,3800,853,-10104,-1069,-1497,-7049,2491,107,155,823
346728,31575828,32560872,31583938,32665282,3800,3800,-416,-10322,84,-1946,-9178,4162,107,155,823
347728,31576176,32561696,31584544,32665888,3800,3800,-1661,-9888,1438,-1224,-9212,5003,69,176,825
348729,31576468,32562380,31585150,32666494,3800,3800,-2188,-9831,2423,-1081,-6648,3139,69,176,825
349731,31576700,32563428,31585756,32667100,3800,3800,-1935,-10444,2771,-1530,-2835,1926,56,182,824
350732,31576916,32564324,31586362,32667706,3800,3800,-1615,-10662,2944,-606,-3906,4816,56,182,824
351733,31577068,32565220,31586968,32668312,3800,3800,-1283,-10469,3262,268,-4526,4352,57,202,823
352734,31577224,32566196,31587574,32668918,3800,3800,-915,-9954,3640,-292,-4550,5130,57,202,823
353735,31577372,32567176,31588180,32669524,3800,3800,-573,-8983,3998,-432,-5802,6760,46,187,822
354735,31577492,32568140,31588786,32670130,3800,3800,-409,-7485,4361,-585,-7678,8422,46,187,822
355737,31577600,32569032,31589392,32670736,3800,3800,-323,-5527,4604,-456,-7215,8635,28,190,821
356737,31577724,32569880,31589998,32671342,3800,3800,-148,-3544,4585,-22,-6247,8179,28,190,821
357739,31577788,32570688,31590604,32671948,3800,3800,210,-1983,4468,188,-6980,7240,17,177,820
358739,31577816,32571556,31591210,32672554,3800,3800,700,-504,4378,242,-6863,6966,17,177,820
359740,31577836,32572376,31591816,32673160,3800,3800,1277,669,4306,1061,-6100,5244,24,175,821
360741,31577844,32573212,31592422,32673766,3800,3800,1808,1765,4310,2170,-6407,5286,24,175,821
361750,31577844,32573996,31593050,32674394,3800,3800,2240,2880,4469,3067,-6598,5121,20,173,821
362744,31577868,32574804,31593656,32675000,3800,3800,2464,4022,4113,7724,-8229,3324,20,173,821
363745,31577912,32575576,31594262,32675606,3800,3800,2484,5451,2707,12734,-10749,280,1,160,820
364745,31577988,32576256,31594868,32676212,3800,3800,2711,5989,2046,5757,-6155,2078,1,160,820
365747,31578164,32576996,31595474,32676818,3800,3800,3312,6398,2270,5581,-6190,2859,21,155,820
366748,31578448,32577652,31596080,32677424,3800,3800,3589,6999,2347,8790,-8953,2101,21,155,820
367749,31578776,32578212,31596686,32678030,3800,3800,3889,8136,2064,7326,-8760,2281,59,124,820
368750,31579100,32578752,31597292,32678636,3800,3800,4329,8634,2033,4546,-5529,1783,59,124,820
369751,31579536,32579192,31597898,32679242,3800,3800,4941,8478,2202,4468,-4430,1236,81,96,822
370752,31579996,32579576,31598504,32679848,3800,3800,5481,8188,2288,4496,-3760,1154,81,96,822
371753,31580464,32579868,31599110,32680454,3800,3800,5922,7946,2230,4087,-3603,1422,91,74,820
372754,31581024,32580076,31599716,32681060,3800,3800,6240,8215,2118,2872,-3030,2754,91,74,820
373755,31581492,32580228,31600322,32681666,3800,3800,6389,9040,1988,1886,-2490,4069,87,33,819
374756,31581992,32580300,31600928,32682272,3800,3800,6521,9925,1803,1868,-1766,3515,87,33,819
375757,31582516,32580328,31601534,32682878,3800,3800,6571,10739,1522,2459,-1063,3840,89,10,817
376757,31582964,32580336,31602140,32683484,3800,3800,6633,11561,1097,2332,-881,3473,89,10,817
377758,31583484,32580364,31602746,32684090,3800,3800,6532,12225,471,1847,-668,3555,93,8,815
378760,31584048,32580444,31603352,32684696,3800,3800,6254,13043,-316,879,-456,3709,93,8,815
379760,31584612,32580536,31603958,32685302,3800,3800,5875,13707,-1256,520,857,2857,124,24,815
380762,31585232,32580676,31604564,32685908,3800,3800,5466,13983,-2513,532,2766,1274,124,24,815
381762,31585912,32580828,31605170,32686514,3800,3800,5047,13739,-3906,45,2973,-88,123,28,818
382764,31586600,32581024,31605776,32687120,3800,3800,4556,13101,-5328,-54,3128,-1026,123,28,818
383764,31587364,32581220,31606382,32687726,3800,3800,3971,12138,-6716,151,2992,-1482,153,56,820
384766,31588116,32581464,31606988,32688332,3800,3800,3468,11192,-7907,204,2189,-1321,153,56,820
385767,31588968,32581716,31607594,32688938,3800,3800,3183,10028,-8895,425,1427,-2543,169,57,821
386768,31589712,32581996,31608200,32689544,3800,3800,3053,8338,-9699,655,828,-3663,169,57,821
387768,31590544,32582324,31608806,32690150,3800,3800,2917,6547,-10282,750,544,-3274,157,68,822
388776,31591384,32582624,31609434,32690778,3800,3800,2612,4827,-10643,866,-71,-2792,157,68,822
389770,31592240,32582980,31610040,32691384,3800,3800,2209,3352,-10805,728,-735,-2093,148,81,822
390772,31593168,32583380,31610646,32691990,3800,3800,1885,1835,-10901,467,-183,-2499,148,81,822
391773,31594180,32583748,31611252,32692596,3800,3800,1775,-8,-11075,554,-154,-3917,168,74,824
392773,31595184,32584192,31611858,32693202,3800,3800,1753,-2046,-11215,737,-1987,-3812,168,74,824
393774,31596136,32584732,31612464,32693808,3800,3800,1716,-3769,-11200,637,-2825,-2871,194,95,826
394776,31597252,32585208,31613070,32694414,3800,3800,1550,-5189,-11066,361,-3234,-2187,194,95,826
395776,31598328,32585784,31613676,32695020,3800,3800,1377,-6251,-10867,-198,-3241,-1494,195,123,827
396778,31599420,32586364,31614282,32695626,3800,3800,1225,-7028,-10653,-828,-2350,-624,195,123,827
397778,31600508,32586904,31614888,32696232,3800,3800,1057,-7403,-10418,-1444,-1986,623,209,118,828
398780,31601464,32587660,31615494,32696838,3800,3800,793,-7130,-10100,-2331,-2029,2449,209,118,828
399780,31602480,32588336,31616100,32697444,3800,3800,562,-6662,-9721,-2821,-1730,2182,198,136,828
400769,31603552,32589088,31616706,32698050,3524,3800,391,-6449,-9245,-2643,-1558,1836,198,136,828
401783,31604476,32589876,31617312,32698656,3800,3800,335,-6341,-8596,-2612,-1384,1809,213,156,828
402784,31605404,32590656,31617918,32699262,3800,3800,376,-6586,-7827,-2648,-970,856,213,156,828
403785,31606284,32591492,31618524,32699868,3800,3800,523,-7050,-7078,-2581,-489,590,212,176,831
404773,31607256,32592384,31619130,32700474,3597,3800,669,-7437,-6358,-2633,956,737,212,176,831
405787,31608088,32593252,31619736,32701080,3800,3800,714,-7634,-5599,-2305,1691,1242,206,183,830
406788,31608956,32594180,31620342,32701686,3800,3800,660,-7720,-4852,-2090,2274,1596,206,183,830
407776,31609900,32595044,31620948,32702292,3416,3800,468,-7668,-4107,-1590,2536,2527,202,186,831
408790,31610696,32596088,31621554,32702898,3800,3800,-127,-6190,-2724,1158,456,7860,202,186,831
409790,31611496,32597184,31622160,32703504,3800,3800,-1002,-3736,-761,1771,120,8571,196,195,830
410779,31612340,32598148,31622766,32704110,3773,3800,-1725,-2272,541,1138,4055,5093,196,195,830
411792,31613076,32599172,31623372,32704716,3800,3800,-2650,-654,1164,2455,6622,8139,161,200,830
412794,31613788,32600256,31623978,32705322,3800,3800,-3291,-433,1311,2123,6840,1712,161,200,830
413794,31614548,32601284,31624584,32705928,3800,3800,-3157,-839,1305,2078,6439,902,160,201,831
414796,31615272,32602280,31625190,32706534,3800,3800,-3134,-855,1553,3951,5939,4561,160,201,831
415803,31616004,32603444,31625818,32707162,3800,3800,-3304,157,2026,5502,4959,5942,156,198,830
416798,31616728,32604576,31626424,32707768,3800,3800,-3457,1094,2437,5648,5788,4247,156,198,830
417799,31617412,32605588,31627030,32708374,3800,3800,-3514,1551,2548,5862,6715,3601,165,199,830
418800,31618112,32606624,31627636,32708980,3800,3800,-3616,1927,2365,6027,6626,3981,165,199,830
419801,31618788,32607624,31628242,32709586,3800,3800,-3759,2679,2023,5551,5510,5344,135,207,830
420801,31619436,32608712,31628848,32710192,3800,3800,-3858,3798,1487,5195,4229,5359,135,207,830
421802,31620028,32609668,31629454,32710798,3800,3800,-3984,4682,647,4739,3632,4646,137,188,829
422803,31620620,32610544,31630060,32711404,3800,3800,-4069,5213,-359,4458,3051,3865,137,188,829
423804,31621376,32611408,31630666,32712010,3800,3800,-4022,5623,-1385,4327,1938,3562,135,190,827
424805,31622112,32612224,31631272,32712616,3800,3800,-3826,5857,-2516,3724,2007,2789,135,190,827
425794,31622920,32613068,31631878,32713222,3381,3800,-3554,5945,-3757,3300,2235,2605,137,176,828
426795,31623832,32613932,31632484,32713828,2598,3800,-3225,5847,-5211,3184,2365,2008,137,176,828
427808,31624544,32614732,31633090,32714434,3800,3800,-2808,5655,-6804,3059,2237,1594,157,179,828
428797,31625320,32615600,31633696,32715040,3330,3800,-2299,5304,-8591,2300,2723,527,157,179,828
429798,31626272,32616408,31634302,32715646,2079,3800,-1774,4406,-10573,1554,2544,-1235,164,177,833
430799,31627144,32617140,31634908,32716252,2464,3800,-1345,3510,-12443,1102,1558,-668,164,177,833
431800,31628044,32618032,31635514,32716858,2161,3800,-1097,3143,-13878,698,255,587,191,149,831
432801,31628932,32618744,31636120,32717464,2114,3800,-1125,3420,-14712,1074,-2260,2652,191,149,831
433802,31629860,32619448,31636726,32718070,1724,3800,-1466,4265,-15014,1422,-3917,4323,174,140,833
434803,31630848,32620084,31637332,32718676,1182,3800,-1887,5089,-14994,1188,-4033,3785,174,140,833
435804,31631868,32620788,31637938,32719282,802,3800,-2040,5251,-15018,408,-2777,1418,181,141,834
436805,31632768,32621468,31638544,32719888,1424,3800,-1816,4651,-14932,-647,-3183,-251,181,141,834
437806,31633600,32622356,31639150,32720494,1750,3800,-1598,3820,-14636,-1531,-3475,-307,172,150,837
438807,31634412,32623032,31639756,32721100,1786,3800,-1493,3049,-14141,-1676,-4046,55,172,150,837
439808,31635336,32623740,31640362,32721706,947,3800,-1304,2568,-13433,-2371,-4449,832,185,137,837
440809,31636092,32624636,31640968,32722312,1932,3800,-1100,2343,-12621,-3478,-5263,1763,185,137,837
441810,31636840,32625460,31641574,32722918,1921,3800,-937,2113,-11756,-4524,-5448,1908,175,156,836
442820,31637612,32626396,31642202,32723546,1709,3800,-884,1967,-10683,-5450,-5503,2835,175,156,836
443812,31638332,32627304,31642808,32724152,1984,3800,-828,1998,-9474,-6345,-4877,3157,157,191,835
444813,31638920,32628180,31643414,32724758,2817,3800,-688,1851,-8290,-7546,-3853,2800,157,191,835
445814,31639596,32629080,31644020,32725364,2238,3800,-489,1631,-7133,-8591,-3281,3419,126,209,836
446815,31640136,32630080,31644626,32725970,3118,3800,-428,1535,-5955,-8573,-2873,3942,126,209,836
447816,31640648,32631060,31645232,32726576,3335,3800,-432,1264,-4725,-8271,-2606,3289,117,215,833
448817,31641184,32632156,31645838,32727182,3217,3800,-431,608,-3506,-8214,-2351,2892,117,215,833
449818,31641676,32633140,31646444,32727788,3543,3800,-399,-204,-2368,-8255,-2256,3119,100,197,831
450832,31642084,32634032,31647050,32728394,3800,3800,-331,-1078,-1306,-7991,-2040,3040,100,197,831
451833,31642496,32634920,31647656,32729000,3800,3800,-257,-1905,-315,-7517,-2316,3335,85,199,830
452834,31642848,32635808,31648262,32729606,3800,3800,-226,-2622,668,-6674,-2132,5397,85,199,830
453835,31643152,32636700,31648868,32730212,3800,3800,-854,-2139,1644,-4276,-2095,12275,74,189,823
454835,31643444,32637596,31649474,32730818,3800,3800,-1702,-1082,2549,-2638,-1280,12145,74,189,823
455837,31643644,32638440,31650080,32731424,3800,3800,-2294,-649,3346,-531,691,11090,64,179,823
456838,31643796,32639300,31650686,32732030,3800,3800,-2629,-1303,3973,2752,1599,10438,64,179,823
457839,31643952,32640172,31651292,32732636,3800,3800,-1552,-317,4169,6700,1786,28680,47,193,823
458840,31644176,32641084,31651898,32733242,3800,3800,1223,4419,4045,7687,-2403,32767,47,193,823
459841,31644512,32642012,31652504,32733848,3800,3800,2809,5981,4306,2061,-4378,11472,45,192,823
460842,31644820,32642852,31653110,32734454,3800,3800,2601,4058,4828,1298,-3951,2502,45,192,823
461843,31645188,32643656,31653716,32735060,3800,3800,1925,1569,5268,1971,-3647,2273,72,168,824
462844,31645628,32644388,31654322,32735666,3800,3800,1659,-805,5499,3516,-3414,332,72,168,824
463845,31646088,32645024,31654928,32736272,3800,3800,1834,-2991,5659,5202,-2588,-151,94,137,825
464846,31646564,32645592,31655534,32736878,3800,3800,2097,-4884,5817,6242,-2797,498,94,137,825
465847,31646996,32646156,31656140,32737484,3800,3800,2284,-6555,5823,5855,-3699,1333,91,119,821
466848,31647316,32646552,31656746,32738090,3800,3800,2798,-8525,4443,10963,-19564,3305,91,119,821
467849,31647704,32646908,31657352,32738696,3800,3800,3536,-10120,2863,6735,-12185,4344,87,88,819
468850,31647984,32647156,31657958,32739302,3800,3800,3822,-10516,2270,2558,-1714,5225,87,88,819
469858,31648304,32647356,31658586,32739930,3800,3800,3878,-10511,2037,1521,-201,5591,47,58,817
470851,31648560,32647508,31659192,32740536,3800,3800,3870,-10254,1581,-118,417,6562,47,58,817
471852,31648872,32647596,31659798,32741142,3800,3800,3966,-9793,708,-1400,1137,6771,55,18,816
472854,31649172,32647632,31660404,32741748,3800,3800,4124,-9486,-398,-3095,2080,6655,55,18,816
473855,31649472,32647632,31661010,32742354,3800,3800,4143,-9141,-1643,-4180,2264,7218,60,3,814
474856,31649828,32647620,31661616,32742960,3800,3800,3858,-8180,-2752,-4035,2068,9360,60,3,814
475856,31650140,32647620,31662222,32743566,3800,3800,3365,-6341,-3268,-3802,1141,11441,66,14,814
476858,31650520,32647640,31662828,32744172,3800,3800,2969,-4579,-3560,-4243,1526,9914,66,14,814
477858,31650900,32647660,31663434,32744778,3800,3800,2751,-3495,-4002,-4522,2225,8666,78,16,813
478859,31651240,32647688,31664040,32745384,3800,3800,2713,-3016,-4431,-3543,2529,7386,78,16,813
479860,31651636,32647704,31664646,32745990,3800,3800,2717,-3134,-4709,-2593,2649,5219,62,15,814
480862,31651968,32647728,31665252,32746596,3800,3800,2700,-3410,-4741,-2244,2410,5060,62,15,814
481863,31652392,32647748,31665858,32747202,3800,3800,2532,-3435,-4472,-1237,1904,6028,84,11,815
482864,31652768,32647816,31666464,32747808,3800,3800,1820,-2304,-3541,1076,-789,10488,84,11,815
483865,31653228,32647892,31667070,32748414,3800,3800,839,-408,-2195,775,-1717,10678,83,21,815
484866,31653724,32647972,31667676,32749020,3800,3800,389,256,-1271,-1077,-1055,5442,83,21,815
485867,31654200,32648056,31668282,32749626,3800,3800,295,-390,-811,-102,64,4096,92,18,817
486867,31654788,32648132,31668888,32750232,3800,3800,360,-1235,-521,777,884,4144,92,18,817
487868,31655452,32648224,31669494,32750838,3800,3800,478,-1695,-292,1199,2086,4407,114,19,816
488870,31655988,32648276,31670100,32751444,3800,3800,388,-1463,-107,2462,3513,6559,114,19,816
489871,31656708,32648328,31670706,32752050,3800,3800,-146,-259,120,3971,4534,9623,124,10,817
490872,31657316,32648368,31671312,32752656,3800,3800,-649,889,183,4034,5638,7367,124,10,817
491872,31658056,32648400,31671918,32753262,3800,3800,-952,1283,-13,3861,5082,5718,126,10,818
492874,31658880,32648440,31672524,32753868,3800,3800,-1042,1240,-404,3823,5004,5506,126,10,818
493874,31659712,32648472,31673130,32754474,3800,3800,-1025,1175,-808,3731,4043,5368,140,8,818
494875,31660548,32648512,31673736,32755080,3800,3800,-848,986,-1102,4213,2581,3999,140,8,818
495876,31661496,32648576,31674342,32755686,3800,3800,-564,643,-1278,4922,1773,3158,147,12,819
496885,31662452,32648612,31674970,32756314,3800,3800,-281,241,-1542,5290,2583,3053,147,12,819
497879,31663276,32648688,31675576,32756920,3800,3800,-78,181,-1979,5940,2935,4297,170,24,819
498867,31664336,32648744,31676182,32757526,3203,3800,95,506,-2484,6368,2706,4450,170,24,819
499881,31665228,32648792,31676788,32758132,3800,3800,373,712,-2939,6292,2073,3452,172,17,819
500869,31666152,32648880,31677394,32758738,3792,3800,717,1119,-3401,5816,1654,4216,172,17,819
501883,31667012,32648976,31678000,32759344,3800,3800,1044,1679,-3888,4853,1125,4611,157,21,823
502871,31668000,32649080,31678606,32759950,3116,3800,1299,2658,-4428,4111,470,5622,157,21,823
503872,31668948,32649168,31679212,32760556,3218,3800,1522,3841,-4982,3299,-444,5648,184,26,821
504886,31669744,32649276,31679818,32761162,3800,3800,1703,5252,-5454,2420,-1208,6320,184,26,821
505887,31670552,32649384,31680424,32761768,3800,3800,1846,6516,-5924,1449,-1726,5717,167,37,824
506888,31671324,32649480,31681030,32762374,3800,3800,2001,7625,-6376,1043,-2301,5278,167,37,824
507889,31672084,32649604,31681636,32762980,3800,3800,2210,8700,-6694,827,-2633,5029,152,30,821
508877,31672904,32649708,31682242,32763586,3621,3800,2502,9601,-6848,698,-3305,4238,152,30,821
509890,31673616,32649816,31682848,32764192,3800,3800,2756,10373,-6883,323,-3881,4267,172,25,820
510891,31674344,32649908,31683454,32764798,3800,3800,3052,11078,-6721,330,-3975,3722,172,25,820
511880,31675152,32650004,31684060,32765404,3512,3800,3459,11542,-6348,810,-3976,2487,160,24,819
512893,31675860,32650072,31684666,32766010,3800,3800,3882,11654,-5986,522,-3217,1317,160,24,819
513895,31676568,32650136,31685272,32766616,3800,3800,4256,11470,-5582,346,-3239,797,134,22,820
514883,31677348,32650204,31685878,32767222,3526,3800,4552,11149,-5190,270,-2918,305,134,22,820
515897,31678064,32650260,31686484,32767828,3800,3800,4741,10538,-4817,40,-2475,-518,144,23,819
516897,31678764,32650292,31687090,32768434,3800,3800,4894,9824,-4480,-156,-1647,-885,144,23,819
517886,31679480,32650340,31687696,32769040,3793,3800,4995,9001,-4179,-325,-882,-1272,135,11,820
518899,31680144,32650384,31688302,32769646,3800,3800,5074,8162,-3861,-318,-209,-1257,135,11,820
519901,31680800,32650440,31688908,32770252,3800,3800,5107,7384,-3510,128,431,-1164,137,12,818
520901,31681476,32650508,31689514,32770858,3800,3800,5132,6659,-3141,608,827,-1056,137,12,818
521903,31682132,32650564,31690120,32771464,3800,3800,5065,6096,-2739,607,475,-340,133,14,817
522904,31682776,32650628,31690726,32772070,3800,3800,4952,5638,-2271,545,-393,94,133,14,817
523911,31683396,32650696,31691354,32772698,3800,3800,4851,5163,-1791,1008,-328,-114,139,14,819
524905,31684072,32650776,31691960,32773304,3800,3800,4659,4889,-1340,1108,-33,713,139,14,819
525906,31684604,32650856,31692566,32773910,3800,3800,4329,4868,-874,814,99,1229,117,16,818
526907,31685220,32650980,31693172,32774516,3800,3800,3865,4860,-502,749,757,1337,117,16,818
527908,31685848,32651076,31693778,32775122,3800,3800,3342,4980,-221,922,1120,1870,129,25,818
528909,31686440,32651196,31694384,32775728,3800,3800,2820,5186,13,1068,1278,2109,129,25,818
529911,31687012,32651332,31694990,32776334,3800,3800,2358,5331,218,927,867,1761,128,25,818
530912,31687608,32651468,31695596,32776940,3800,3800,1931,5363,371,589,939,1916,128,25,818
531913,31688192,32651636,31696202,32777546,3800,3800,1569,5306,367,609,1707,1453,103,33,816
532913,31688740,32651792,31696808,32778152,3800,3800,1241,5109,164,718,2480,1140,103,33,816
533915,31689340,32651960,31697414,32778758,3800,3800,931,4861,-161,520,2824,1282,114,37,818
534915,31689900,32652120,31698020,32779364,3800,3800,567,4508,-656,307,3828,1010,114,37,818
535916,31690468,32652320,31698626,32779970,3800,3800,283,3838,-1389,142,4882,-28,119,58,818
536918,31691136,32652584,31699232,32780576,3800,3800,97,3006,-2265,128,5201,-340,119,58,818
537919,31691728,32652840,31699838,32781182,3800,3800,-57,2113,-3137,116,5002,-365,124,43,818
538920,31692312,32653080,31700444,32781788,3800,3800,-229,1305,-3849,139,4378,140,124,43,818
539921,31692988,32653316,31701050,32782394,3800,3800,-332,592,-4381,229,4201,181,122,48,819
540922,31693620,32653608,31701656,32783000,3800,3800,-322,-319,-4813,304,4062,-515,122,48,819
541923,31694272,32653896,31702262,32783606,3800,3800,-191,-1434,-5180,340,3847,-786,127,71,820
542923,31694888,32654224,31702868,32784212,3800,3800,-16,-2672,-5386,405,3659,-1013,127,71,820
543912,31695608,32654492,31703474,32784818,3654,3800,103,-3918,-5398,544,3357,-854,113,70,819
544925,31696272,32654768,31704080,32785424,3800,3800,187,-5163,-5264,625,3253,-1087,113,70,819
545914,31696960,32655096,31704686,32786030,3796,3800,237,-6371,-5034,431,3100,-781,116,72,820
546915,31697740,32655392,31705292,32786636,3145,3800,262,-7461,-4781,102,3285,-464,116,72,820
547916,31698464,32655656,31705898,32787242,3444,3800,273,-8518,-4512,-342,3209,-67,144,66,820
548917,31699220,32655936,31706504,32787848,3180,3800,276,-9267,-4229,-787,3204,817,144,66,820
549918,31700060,32656148,31707110,32788454,2554,3800,261,-9795,-3897,-1272,2917,1539,158,68,824
550928,31700816,32656444,31707738,32789082,3024,3800,254,-10001,-3491,-1723,2518,2497,158,68,824
551920,31701564,32656736,31708344,32789688,3013,3800,283,-9866,-3036,-2241,2866,3584,160,60,824
552921,31702356,32656992,31708950,32790294,2657,3800,301,-9439,-2542,-2561,2614,4592,160,60,824
553922,31703084,32657248,31709556,32790900,3006,3800,241,-8818,-2004,-2960,2316,5332,156,53,824
554923,31703844,32657432,31710162,32791506,2739,3800,203,-8219,-1394,-3461,2098,5047,156,53,824
555924,31704632,32657684,31710768,32792112,2485,3800,154,-7741,-767,-3695,1888,5135,160,52,825
556925,31705360,32657936,31711374,32792718,2807,3800,116,-7307,-190,-3643,2016,5088,160,52,825
557925,31706044,32658192,31711980,32793324,3049,3800,40,-6876,362,-3384,2123,5339,158,44,826
558927,31706820,32658416,31712586,32793930,2400,3800,-20,-6513,870,-2863,2223,5007,158,44,826
559927,31707512,32658640,31713192,32794536,2889,3800,-78,-6317,1347,-2441,1997,4714,143,45,826
560929,31708184,32658828,31713798,32795142,2987,3800,-153,-6313,1768,-1546,1724,4351,143,45,826
561930,31708856,32659084,31714404,32795748,2959,3800,-268,-6498,2124,-54,1563,3880,145,47,827
562931,31709524,32659344,31715010,32796354,2957,3800,-414,-6788,2472,1372,1503,4237,145,47,827
563932,31710152,32659604,31715616,32796960,3199,3800,-620,-6768,2841,2653,1735,5125,129,57,824
564933,31710776,32659864,31716222,32797566,3217,3800,-1057,-6582,3229,3660,1421,5872,129,57,824
565934,31711384,32660120,31716828,32798172,3317,3800,-2111,-5361,4068,4935,-2039,9444,125,55,822
566935,31712016,32660380,31717434,32798778,3156,3800,-2949,-4469,4918,5496,-583,6484,125,55,822
567936,31712676,32660724,31718040,32799384,2959,3800,-3450,-3880,5049,5808,2272,7306,130,62,823
568937,31713308,32661044,31718646,32799990,3123,3800,-3704,-3632,4893,6820,966,6265,130,62,823
569938,31713972,32661328,31719252,32800596,2899,3800,-3653,-3861,4858,8106,1614,4183,138,64,823
570939,31714560,32661656,31719858,32801202,3383,3800,-3525,-4116,4646,8227,3541,5048,138,64,823
571940,31715296,32661928,31720464,32801808,2402,3800,-3448,-4022,4022,7322,4849,5746,137,70,823
572941,31715868,32662312,31721070,32802414,3443,3800,-3223,-3768,3239,6710,3784,5603,137,70,823
573942,31716484,32662656,31721676,32803020,3164,3800,-2984,-3177,2577,6723,2632,7098,114,71,823
574943,31717156,32662992,31722282,32803626,2786,3800,-2883,-2005,2043,7519,2453,8960,114,71,823
575944,31717760,32663368,31722888,32804232,3213,3800,-2856,-394,1428,7529,2588,9399,128,80,822
576945,31718376,32663812,31723494,32804838,3135,3800,-2728,1124,528,6364,2869,8731,128,80,822
577953,31719068,32664224,31724122,32805466,2632,3800,-2458,2487,-500,5644,2450,8303,135,76,825
578947,31719720,32664624,31724728,32806072,2863,3800,-2142,3947,-1325,5824,1715,8499,135,76,825
579948,31720376,32665112,31725334,32806678,2817,3800,-1764,5423,-1907,5831,1485,8143,138,90,826
580949,31721048,32665620,31725940,32807284,2689,3800,-1299,6804,-2465,5067,1397,7217,138,90,826
581950,31721668,32666136,31726546,32807890,3009,3800,-705,7829,-3156,4131,1285,5733,134,93,827
582951,31722356,32666692,31727152,32808496,2549,3800,-59,8753,-3899,3788,403,5329,134,93,827
583952,31723136,32667228,31727758,32809102,1898,3800,569,9751,-4489,3644,-1085,4953,140,102,828
584953,31723876,32667724,31728364,32809708,2090,3800,1179,10796,-4993,3247,-1665,4452,140,102,828
585954,31724700,32668336,31728970,32810314,1470,3800,1742,11707,-5435,2721,-2965,3614,159,104,829
586955,31725404,32668956,31729576,32810920,2178,3800,2291,12375,-5813,1951,-3731,2488,159,104,829
587956,31726264,32669576,31730182,32811526,1092,3800,2778,12770,-6230,1004,-3503,1473,139,122,830
588957,31727024,32670172,31730788,32812132,1651,3800,3225,12891,-6746,-24,-2475,242,139,122,830
589958,31727760,32670764,31731394,32812738,1743,3800,3583,12933,-7216,-645,-2657,280,150,111,831
590959,31728572,32671352,31732000,32813344,1179,3800,3823,13237,-7551,-764,-2760,561,150,111,831
591960,31729264,32671972,31732606,32813950,1892,3800,3947,13445,-7760,-550,-2469,6,147,117,834
592961,31729904,32672684,31733212,32814556,2202,3800,4058,13405,-7864,-316,-2713,-453,147,117,834
593962,31730596,32673248,31733818,32815162,1840,3800,4125,13434,-7899,-657,-2973,-200,129,116,835
594963,31731248,32673896,31734424,32815768,2070,3800,4259,13104,-7938,-1275,-2483,-1816,129,116,835
595964,31731928,32674468,31735030,32816374,1864,3800,4431,12255,-8025,-1206,-1825,-2841,132,110,832
596965,31732572,32675076,31735636,32816980,2073,3800,4541,11384,-8140,-1245,-1121,-2612,132,110,832
597966,31733188,32675600,31736242,32817586,2244,3800,4485,10717,-8180,-1448,-1761,-2006,140,102,831
598966,31733824,32675988,31736848,32818192,2106,3800,4282,10433,-7993,-1500,-3626,-553,140,102,831
599968,31734548,32676352,31737454,32818798,1505,3800,3963,10439,-7502,-1312,-4355,396,130,91,828
600969,31735108,32676660,31738060,32819404,2551,3800,3453,10956,-6982,-1078,-4271,2013,130,91,828
601970,31735584,32676900,31738666,32820010,3134,3800,2893,11450,-6704,-1807,-3148,1114,122,54,828
602971,31736136,32677124,31739272,32820616,2683,3800,2429,11574,-6597,-2875,-2801,139,122,54,828
603972,31736780,32677268,31739878,32821222,2092,3800,2081,11522,-6533,-3729,-3239,-252,112,50,826
604980,31737316,32677372,31740506,32821850,2807,3800,1767,11446,-6389,-4170,-4122,-449,112,50,826
605974,31737840,32677428,31741112,32822456,2919,3800,1311,11566,-6244,-4920,-4038,-282,109,26,824
606975,31738420,32677488,31741718,32823062,2582,3800,643,11885,-6171,-5868,-4398,321,109,26,824
607976,31738856,32677464,31742324,32823668,3557,3800,-164,12429,-6220,-6475,-5451,513,116,2,823
608977,31739292,32677456,31742930,32824274,3632,3800,-1001,12819,-6407,-7040,-5906,-588,116,2,823
609978,31739728,32677484,31743536,32824880,3708,3800,-1836,12998,-6738,-7512,-5947,-1301,100,15,821
610991,31740104,32677480,31744142,32825486,3800,3800,-2770,12978,-7165,-7971,-6470,-1418,100,15,821
611993,31740484,32677468,31744748,32826092,3800,3800,-3796,12867,-7560,-8365,-7584,-1429,97,8,817
612993,31740836,32677448,31745354,32826698,3800,3800,-4835,12744,-7781,-8487,-9631,-1203,97,8,817
613995,31741112,32677448,31745960,32827304,3800,3800,-5708,11676,-7522,-12750,-12145,-2869,76,15,814
614995,31741344,32677484,31746566,32827910,3800,3800,-6361,7056,-6528,-19470,-14392,-7373,76,15,814
615996,31741564,32677508,31747172,32828516,3800,3800,-7077,824,-5302,-19090,-16784,-6221,43,8,813
616997,31741728,32677492,31747778,32829122,3800,3800,-8006,-4742,-4183,-16691,-18231,-4655,43,8,813
617999,31741900,32677468,31748384,32829728,3800,3800,-8786,-8478,-3077,-14440,-17397,-1917,48,16,813
618999,31742056,32677460,31748990,32830334,3800,3800,-9374,-10130,-1977,-12151,-14775,1319,48,16,813
620001,31742164,32677432,31749596,32830940,3800,3800,-9792,-10355,-1092,-9482,-11222,3250,26,8,811
621001,31742308,32677488,31750202,32831546,3800,3800,-10058,-9749,-566,-5876,-8695,4402,26,8,811
622002,31742436,32677528,31750808,32832152,3800,3800,-10170,-8841,-235,-3944,-7006,4938,23,15,810
623003,31742556,32677516,31751414,32832758,3800,3800,-10156,-8317,82,-2948,-5290,4788,23,15,810
624004,31742676,32677508,31752020,32833364,3800,3800,-10096,-8076,352,-1459,-4301,5339,23,4,811
625005,31742816,32677500,31752626,32833970,3800,3800,-9942,-7753,661,-630,-3815,6008,23,4,811
626007,31742916,32677480,31753232,32834576,3800,3800,-9659,-7442,989,395,-3271,6012,24,16,811
627007,31743020,32677504,31753838,32835182,3800,3800,-5890,-7457,849,7329,-1318,29298,24,16,811
628009,31743128,32677556,31754444,32835788,3800,3800,5354,-2686,-648,21875,1893,32767,21,19,811
629010,31743216,32677548,31755050,32836394,3800,3800,13144,3148,-1429,8444,-1927,32767,21,19,811
630011,31743288,32677528,31755656,32837000,3800,3800,13739,4616,-952,2592,-2286,5167,18,12,811
631012,31743368,32677508,31756262,32837606,3800,3800,11613,4088,-328,2202,-1114,5243,18,12,811
632020,31743452,32677488,31756890,32838234,3800,3800,9558,3852,-86,2276,-1435,6370,20,17,807
633014,31743488,32677520,31757496,32838840,3800,3800,8601,3950,-60,2200,-2308,3215,20,17,807
634015,31743580,32677564,31758102,32839446,3800,3800,8478,3185,-50,1574,-1943,95,8,14,810
635016,31743700,32677572,31758708,32840052,3800,3800,8085,2401,31,1913,-2376,2210,8,14,810
636017,31743800,32677544,31759314,32840658,3800,3800,6970,2477,181,2232,-2745,3970,9,13,811
637018,31743920,32677524,31759920,32841264,3800,3800,5926,2139,351,1575,-2128,772,9,13,811
638019,31744120,32677504,31760526,32841870,3800,3800,5213,1326,401,1316,-2041,224,19,12,811
639020,31744308,32677520,31761132,32842476,3800,3800,4739,71,385,596,-1865,-699,19,12,811
640021,31744516,32677572,31761738,32843082,3800,3800,4349,-981,268,53,-771,-320,46,9,812
641022,31744748,32677560,31762344,32843688,3800,3800,3712,-1570,11,-212,379,845,46,9,812
642023,31745004,32677552,31762950,32844294,3800,3800,2862,-1784,-373,-890,838,1647,37,6,811
643023,31745256,32677532,31763556,32844900,3800,3800,2043,-1847,-783,-1472,714,1458,37,6,811
644024,31745532,32677492,31764162,32845506,3800,3800,1516,-2321,-1074,-2064,-55,10,61,17,811
645025,31745852,32677540,31764768,32846112,3800,3800,1121,-2787,-1211,-2364,-751,721,61,17,811
646026,31746140,32677564,31765374,32846718,3800,3800,709,-2980,-1263,-2833,-825,1209,70,16,813
647027,31746428,32677560,31765980,32847324,3800,3800,123,-2753,-1191,-2619,-1460,2590,70,16,813
648028,31746764,32677544,31766586,32847930,3800,3800,-470,-2280,-1037,-2639,-1473,2505,70,0,813
649029,31747072,32677524,31767192,32848536,3800,3800,-827,-2333,-1012,-3060,-885,554,70,0,813
650030,31747364,32677508,31767798,32849142,3800,3800,-970,-2827,-1129,-3203,-1172,-358,72,14,813
651031,31747700,32677548,31768404,32849748,3800,3800,-1003,-3663,-1267,-3381,-1580,-1186,72,14,813
652032,31748032,32677564,31769010,32850354,3800,3800,-988,-4545,-1441,-3187,-1596,-1503,63,16,813
653034,31748308,32677592,31769616,32850960,3800,3800,-982,-5396,-1596,-2708,-1736,-1244,63,16,813
654034,31748624,32677580,31770222,32851566,3800,3800,-1004,-6063,-1654,-2119,-1591,-679,55,1,811
655035,31748928,32677552,31770828,32852172,3800,3800,-1088,-6585,-1556,-1382,-1881,-87,55,1,811
656036,31749184,32677532,31771434,32852778,3800,3800,-1174,-7135,-1418,-693,-1086,-211,69,15,812
657037,31749472,32677552,31772040,32853384,3800,3800,-1223,-7587,-1295,-43,-545,440,69,15,812
658038,31749768,32677592,31772646,32853990,3800,3800,-1251,-7914,-1163,633,-287,895,53,0,812
659048,31749984,32677600,31773274,32854618,3800,3800,-1301,-8150,-1079,1373,662,1360,53,0,812
660040,31750196,32677600,31773880,32855224,3800,3800,-1362,-8265,-1062,1818,1427,1777,45,1,813
661042,31750484,32677536,31774486,32855830,3800,3800,-1437,-8301,-1082,2427,1715,2149,45,1,813
662043,31750652,32677524,31775092,32856436,3800,3800,-1566,-8193,-1107,2981,1779,2935,57,11,810
663043,31750776,32677544,31775698,32857042,3800,3800,-1730,-7889,-1106,3367,2011,3779,57,11,810
664044,31750948,32677608,31776304,32857648,3800,3800,-2037,-7071,-1040,4147,2607,5606,46,15,807
665046,31751056,32677640,31776910,32858254,3800,3800,-2467,-5940,-1022,4503,3530,6130,46,15,807
666046,31751044,32677604,31777516,32858860,3800,3800,-2772,-4935,-1128,4484,3894,5593,12,18,807
667047,31751080,32677556,31778122,32859466,3800,3800,-2861,-4147,-1305,4560,4114,5323,12,18,807
668048,31751108,32677516,31778728,32860072,3800,3800,-2906,-3410,-1502,4862,4568,5899,0,15,807
669050,31751072,32677528,31779334,32860678,3800,3800,-2995,-2506,-1680,5504,4814,6309,0,15,807
670050,31751056,32677588,31779940,32861284,3800,3800,-3078,-1613,-1819,6076,4948,6000,2,9,808
671051,31751104,32677628,31780546,32861890,3800,3800,-3011,-798,-1918,6462,4629,6356,2,9,808
672052,31751080,32677604,31781152,32862496,3800,3800,-1303,2924,-2239,10235,5889,32767,7,15,809
673053,31751056,32677560,31781758,32863102,3800,3800,1028,7286,-2664,9501,4360,26553,7,15,809
674055,31751108,32677524,31782364,32863708,3800,3800,2112,8343,-2832,6566,1592,2915,11,13,809
675055,31751120,32677544,31782970,32864314,3800,3800,2187,7142,-2804,6640,1779,1647,11,13,809
676056,31751080,32677580,31783576,32864920,3800,3800,2071,5592,-2731,6865,1347,776,-1,9,808
677057,31751088,32677616,31784182,32865526,3800,3800,2092,4554,-2579,6731,1065,966,-1,9,808
678058,31751144,32677620,31784788,32866132,3800,3800,2221,3710,-2371,6169,1590,249,8,7,809
679059,31751120,32677584,31785394,32866738,3800,3800,2306,2885,-2212,5836,1950,507,8,7,809
680060,31751104,32677564,31786000,32867344,3800,3800,2362,2132,-2098,5072,2324,1032,0,16,809
681062,31751160,32677544,31786606,32867950,3800,3800,2358,1656,-2012,4330,2734,2148,0,16,809
682062,31751152,32677580,31787212,32868556,3800,3800,2285,1553,-1946,3733,2733,2926,-1,7,809
683063,31751108,32677620,31787818,32869162,3800,3800,2145,1790,-1915,2649,3188,3762,-1,7,809
684064,31751172,32677616,31788424,32869768,3800,3800,1983,2407,-1981,1458,3489,4778,8,16,809
685066,31751180,32677596,31789030,32870374,3800,3800,1795,3177,-2102,692,3238,5055,8,16,809
686073,31751160,32677552,31789658,32871002,3800,3800,1664,4014,-2153,173,2976,5194,6,1,808
687068,31751172,32677556,31790264,32871608,3800,3800,1549,4882,-2145,-435,3001,5192,6,1,808
688068,31751200,32677568,31790870,32872214,3800,3800,1413,5635,-2150,-1216,3104,4708,-2,10,808
689069,31751200,32677604,31791476,32872820,3800,3800,1275,6322,-2165,-2042,3033,4506,-2,10,808
690070,31751172,32677624,31792082,32873426,3800,3800,1160,6930,-2178,-2615,2739,3919,4,0,809
691071,31751248,32677596,31792688,32874032,3800,3800,1097,7354,-2193,-3001,2316,3244,4,0,809
692072,31751252,32677560,31793294,32874638,3800,3800,1076,7639,-2213,-3431,2391,2776,-1,12,809
693073,31751220,32677552,31793900,32875244,3800,3800,1083,7740,-2243,-3743,2157,2273,-1,12,809
694075,31751276,32677568,31794506,32875850,3800,3800,1095,7739,-2216,-3697,1180,1874,-1,8,809
695076,31751300,32677648,31795112,32876456,3800,3800,1123,7647,-2059,-3616,164,1588,-1,8,809
696077,31751256,32677644,31795718,32877062,3800,3800,1192,7445,-1812,-3567,-419,988,-2,14,809
697078,31751260,32677616,31796324,32877668,3800,3800,1301,7022,-1534,-3460,-676,386,-2,14,809
698079,31751300,32677580,31796930,32878274,3800,3800,1440,6463,-1237,-3232,-914,98,-1,11,808
699080,31751280,32677544,31797536,32878880,3800,3800,1603,5756,-922,-2992,-1058,-339,-1,11,808
700081,31751252,32677568,31798142,32879486,3800,3800,1750,4946,-591,-2790,-1079,-564,-6,13,809
701082,31751300,32677632,31798748,32880092,3800,3800,1863,4131,-268,-2530,-964,-443,-6,13,809
702083,31751304,32677636,31799354,32880698,3800,3800,1910,3388,6,-2163,-693,-308,4,2,809
703084,31751260,32677612,31799960,32881304,3800,3800,1923,2688,225,-1915,-458,-197,4,2,809
704085,31751276,32677588,31800566,32881910,3800,3800,1944,1968,411,-1751,-338,-263,-2,16,809
705086,31751304,32677560,31801172,32882516,3800,3800,1987,1208,575,-1576,-262,-245,-2,16,809
706087,31751284,32677552,31801778,32883122,3800,3800,2003,566,710,-1371,30,324,-5,4,809
707088,31751256,32677648,31802384,32883728,3800,3800,1938,176,824,-1155,-32,1029,-5,4,809
708089,31751316,32677652,31802990,32884334,3800,3800,1779,2,937,-989,-396,1567,6,6,808
709090,31751304,32677632,31803596,32884940,3800,3800,1566,10,1051,-866,-320,2126,6,6,808
710091,31751264,32677604,31804202,32885546,3800,3800,1336,123,1128,-723,-341,2557,4,1,808
711092,31751284,32677564,31804808,32886152,3800,3800,1080,289,1169,-571,-477,2783,4,1,808
712093,31751308,32677552,31805414,32886758,3800,3800,784,411,1175,-458,-411,2817,-5,14,809
713101,31751268,32677636,31806042,32887386,3800,3800,475,504,1142,-285,-345,2719,-5,14,809
714095,31751264,32677660,31806648,32887992,3800,3800,146,591,1090,-146,-508,2852,-3,16,809
715096,31751312,32677644,31807254,32888598,3800,3800,-220,695,1009,-50,-453,2780,-3,16,809
716097,31751284,32677624,31807860,32889204,3800,3800,-559,645,901,86,-390,2250,-4,16,809
717098,31751256,32677576,31808466,32889810,3800,3800,-859,425,765,171,-293,1824,-4,16,809
718099,31751300,32677572,31809072,32890416,3800,3800,-1152,38,600,217,-376,1547,-3,14,809
719100,31751312,32677624,31809678,32891022,3800,3800,-1428,-417,437,209,-562,1390,-3,14,809
720101,31751244,32677668,31810284,32891628,3800,3800,-1670,-884,288,163,-775,1374,1,10,808
721102,31751288,32677660,31810890,32892234,3800,3800,-1940,-1274,144,63,-903,1587,1,10,808
722103,31751304,32677608,31811496,32892840,3800,3800,-2229,-1590,-9,-73,-1060,1826,1,13,809
723104,31751288,32677596,31812102,32893446,3800,3800,-2492,-1846,-150,-249,-1317,1993,1,13,809
724105,31751304,32677576,31812708,32894052,3800,3800,-2692,-2075,-276,-443,-1558,2205,-3,4,809
725106,31751416,32677632,31813314,32894658,3800,3800,-2834,-2272,-393,-610,-1551,2400,-3,4,809
726107,31751464,32677660,31813920,32895264,3800,3800,-2951,-2500,-491,-759,-1516,2467,9,4,809
727108,31751536,32677652,31814526,32895870,3800,3800,-3081,-2736,-568,-849,-1672,2608,9,4,809
728109,31751696,32677636,31815132,32896476,3800,3800,-3219,-2832,-616,-1136,-1809,3061,32,17,810
729110,31751860,32677600,31815738,32897082,3800,3800,-3314,-2755,-616,-1641,-2006,3623,32,17,810
730111,31752000,32677596,31816344,32897688,3800,3800,-3385,-2503,-528,-2136,-2618,4294,23,1,809
731112,31752172,32677632,31816950,32898294,3800,3800,-3469,-2109,-363,-2562,-3063,4892,23,1,809
732113,31752368,32677652,31817556,32898900,3800,3800,-3535,-1711,-142,-2876,-3376,4858,32,17,810
733114,31752548,32677656,31818162,32899506,3800,3800,-3571,-1353,133,-3282,-3723,4933,32,17,810
734115,31752720,32677628,31818768,32900112,3800,3800,-3581,-1048,410,-3789,-3661,4870,47,17,811
735116,31752944,32677624,31819374,32900718,3800,3800,-3534,-914,679,-4058,-3488,4672,47,17,811
736117,31753140,32677612,31819980,32901324,3800,3800,-3389,-785,945,-4181,-3045,4840,50,15,811
737118,31753276,32677644,31820586,32901930,3800,3800,-1707,1490,1334,-4520,-2910,25382,50,15,811
738119,31753504,32677664,31821192,32902536,3800,3800,2693,9301,2035,-5286,-3501,32767,27,17,811
739120,31753684,32677676,31821798,32903142,3800,3800,5799,13333,2495,-3969,-1695,13761,27,17,811
740128,31753868,32677660,31822426,32903770,3800,3800,6175,12054,2573,-3252,216,-557,26,12,811
741122,31754092,32677648,31823032,32904376,3800,3800,5470,8345,2488,-2522,371,-3062,26,12,811
742123,31754356,32677652,31823638,32904982,3800,3800,5005,4065,2492,-3201,276,-4747,36,5,810
743124,31754652,32677692,31824244,32905588,3800,3800,4859,193,2645,-2467,-175,-3576,36,5,810
744125,31754928,32677740,31824850,32906194,3800,3800,4640,-1433,2902,-1808,-826,977,58,3,812
745126,31755264,32677756,31825456,32906800,3800,3800,4311,-2431,3150,-1755,-489,147,58,3,812
746127,31755608,32677756,31826062,32907406,3800,3800,3918,-3344,3171,-1989,-161,1302,60,14,812
747128,31755952,32677752,31826668,32908012,3800,3800,3478,-4118,3062,-2619,426,2213,60,14,812
748129,31756368,32677788,31827274,32908618,3800,3800,2711,-4588,3120,-2060,438,4220,82,6,811
749130,31756828,32677852,31827880,32909224,3800,3800,1600,-4102,3319,-1508,735,6246,82,6,811
750131,31757212,32677920,31828486,32909830,3800,3800,671,-3950,3582,-2235,1237,4549,66,8,814
751132,31757660,32677960,31829092,32910436,3800,3800,275,-4325,3746,-2249,1354,3661,66,8,814
752133,31758212,32678012,31829698,32911042,3800,3800,371,-5023,3748,-2519,1618,3861,74,23,812
753134,31758640,32678072,31830304,32911648,3800,3800,818,-5384,3806,-2684,1448,6943,74,23,812
754135,31759128,32678144,31830910,32912254,3800,3800,1447,-4954,4045,-2273,1137,10697,102,12,814
755136,31759692,32678260,31831516,32912860,3800,3800,2005,-4399,4482,-2221,1280,9877,102,12,814
756137,31760220,32678396,31832122,32913466,3800,3800,2184,-3684,4976,-1917,1792,8433,104,20,815
757138,31760760,32678536,31832728,32914072,3800,3800,2082,-3077,5405,-1910,1893,6886,104,20,815
758139,31761292,32678700,31833334,32914678,3800,3800,2008,-2644,5779,-2194,1698,6463,112,34,815
759140,31761940,32678856,31833940,32915284,3800,3800,2036,-2121,6094,-2304,1798,6561,112,34,815
760141,31762512,32679060,31834546,32915890,3800,3800,2119,-1728,6307,-2056,1847,6039,113,41,817
761142,31763084,32679276,31835152,32916496,3800,3800,2198,-1240,6521,-2122,1005,6017,113,41,817
762143,31763736,32679516,31835758,32917102,3800,3800,2269,-1021,6780,-2283,-166,5401,125,60,817
763144,31764412,32679756,31836364,32917708,3800,3800,2355,-826,7019,-2257,-1110,5325,125,60,817
764145,31765108,32680020,31836970,32918314,3800,3800,2423,-603,7233,-2304,-1554,5272,123,60,818
765146,31765848,32680264,31837576,32918920,3800,3800,2510,-539,7345,-2168,-1746,4466,123,60,818
766147,31766608,32680528,31838182,32919526,3800,3800,2639,-547,7360,-2072,-2357,4272,142,61,820
767157,31767344,32680792,31838810,32920154,3800,3800,2751,-762,7320,-1996,-2595,3547,142,61,820
768149,31768120,32681100,31839416,32920760,3800,3800,2839,-1172,7208,-1418,-3224,3130,157,54,821
769150,31768964,32681392,31840022,32921366,3800,3800,2982,-1782,7046,-1522,-3429,2246,157,54,821
770151,31769684,32681676,31840628,32921972,3800,3800,3196,-2442,6848,-2346,-3239,2310,169,68,821
771152,31770556,32682012,31841234,32922578,3800,3800,3412,-2978,6647,-2912,-3314,2785,169,68,821
772153,31771336,32682348,31841840,32923184,3800,3800,3703,-3417,6535,-3360,-3422,2602,159,76,822
773154,31772076,32682636,31842446,32923790,3800,3800,3928,-3828,6599,-3066,-3966,3002,159,76,822
774155,31772908,32682972,31843052,32924396,3800,3800,4090,-4409,6689,-2086,-3012,2086,156,85,819
775156,31773688,32683344,31843658,32925002,3800,3800,4174,-5337,6704,-920,-1404,1454,156,85,819
776157,31774456,32683708,31844264,32925608,3800,3800,4305,-6505,6634,828,-709,461,166,73,821
777158,31775160,32684052,31844870,32926214,3800,3800,4527,-8042,6507,2457,-33,-703,166,73,821
778159,31775840,32684432,31845476,32926820,3800,3800,4759,-9571,6401,4119,371,-622,151,85,822
779160,31776556,32684828,31846082,32927426,3800,3800,4919,-10952,6326,5480,981,-484,151,85,822
780161,31777116,32685240,31846688,32928032,3800,3800,4907,-12092,6199,6718,2000,67,121,85,821
781162,31777776,32685656,31847294,32928638,3800,3800,4795,-13126,6020,7075,2733,283,121,85,821
782163,31778256,32686160,31847900,32929244,3800,3800,4577,-13896,5866,7622,3029,1403,112,85,821
783163,31778752,32686572,31848506,32929850,3800,3800,4065,-13791,5880,8274,2698,4202,112,85,821
784165,31779224,32687072,31849112,32930456,3800,3800,3614,-13363,5876,8516,2859,3618,108,87,820
785166,31779516,32687620,31849718,32931062,3800,3800,3313,-12786,5803,8550,2604,4815,108,87,820
786167,31779852,32688164,31850324,32931668,3800,3800,2741,-11309,5636,8722,2845,8558,72,103,818
787168,31780160,32688612,31850930,32932274,3800,3800,2155,-9588,5299,8245,2995,7392,72,103,818
788169,31780372,32689060,31851536,32932880,3800,3800,1520,-7445,4848,7954,3393,10078,48,95,818
789169,31780580,32689536,31852142,32933486,3800,3800,845,-5195,4343,8171,3187,9515,48,95,818
790171,31780740,32689992,31852748,32934092,3800,3800,402,-3451,3947,8259,1925,7562,42,108,815
791171,31780884,32690604,31853354,32934698,3800,3800,271,-2402,3885,8310,954,5642,42,108,815
792173,31781012,32691176,31853960,32935304,3800,3800,144,-1625,3456,7384,2684,5817,30,107,817
793174,31781112,32691780,31854566,32935910,3800,3800,-214,-376,2972,7323,290,7283,30,107,817
794182,31781152,32692392,31855194,32936538,3800,3800,-454,441,2590,7542,702,3874,26,120,818
795176,31781152,32693048,31855800,32937144,3800,3800,-448,785,2136,7399,504,3232,26,120,818
796177,31781152,32693632,31856406,32937750,3800,3800,-350,994,1651,8147,489,3767,6,114,815
797178,31781152,32694424,31857012,32938356,3800,3800,-287,1482,1246,9109,-304,4023,6,114,815
798179,31781144,32695040,31857618,32938962,3800,3800,-303,2039,802,8626,-1102,3568,13,123,815
799180,31781148,32695800,31858224,32939568,3800,3800,-334,2433,128,7681,-789,3240,13,123,815
800181,31781156,32696508,31858830,32940174,3800,3800,-374,2743,-700,7097,-1048,3366,2,140,816
801182,31781152,32697364,31859436,32940780,3800,3800,-397,2967,-1499,6771,-1585,2927,2,140,816
802183,31781148,32698248,31860042,32941386,3800,3800,-374,3174,-2268,6280,-1587,2599,12,151,817
803184,31781160,32699076,31860648,32941992,3800,3800,-179,2936,-4108,5369,560,1620,12,151,817
804185,31781144,32699900,31861254,32942598,3800,3800,-31,2733,-4890,1563,-4016,2429,10,164,818
805186,31781168,32700716,31861860,32943204,3800,3800,293,2173,-5162,-2895,-7849,2941,10,164,818
806187,31781176,32701556,31862466,32943810,3800,3800,513,1898,-5711,3249,151,1948,16,167,819
807187,31781184,32702428,31863072,32944416,3800,3800,590,1768,-6594,3735,1326,1617,16,167,819
808189,31781212,32703384,31863678,32945022,3800,3800,670,1815,-7454,3647,-262,1947,1,185,819
809190,31781232,32704224,31864284,32945628,3800,3800,785,1909,-8081,3497,-1451,2039,1,185,819
810191,31781268,32705060,31864890,32946234,3800,3800,899,1985,-8575,3204,-209,1930,9,188,819
811192,31781288,32705920,31865496,32946840,3800,3800,958,1989,-9009,2831,-133,1854,9,188,819
812193,31781304,32706748,31866102,32947446,3800,3800,1007,2016,-9330,2590,-331,2064,9,179,819
813194,31781348,32707596,31866708,32948052,3800,3800,1048,2131,-9512,2406,-727,2280,9,179,819
814195,31781380,32708368,31867314,32948658,3800,3800,1144,2200,-9579,2232,-711,1973,8,171,819
815196,31781424,32709144,31867920,32949264,3800,3800,1290,2350,-9508,1988,-1065,2441,8,171,819
816197,31781452,32709892,31868526,32949870,3800,3800,1407,2650,-9337,1678,-1196,2990,19,140,818
817198,31781464,32710616,31869132,32950476,3800,3800,1446,3082,-9074,1456,-1205,3411,19,140,818
818199,31781468,32711328,31869738,32951082,3800,3800,1408,3482,-8777,1194,-825,3277,1,154,817
819200,31781480,32712048,31870344,32951688,3800,3800,1322,3773,-8501,899,-366,2974,1,154,817
820201,31781492,32712704,31870950,32952294,3800,3800,1168,3760,-8251,723,480,2108,10,143,816
821208,31781504,32713320,31871578,32952922,3800,3800,980,3472,-7973,597,1022,1402,10,143,816
822202,31781556,32713848,31872184,32953528,3800,3800,747,3069,-7577,762,1464,1530,18,117,816
823203,31781576,32714368,31872790,32954134,3800,3800,481,2581,-7131,1026,2840,939,18,117,816
824204,31781640,32714804,31873396,32954740,3800,3800,331,1620,-6713,918,4110,-778,4,93,816
825206,31781732,32715176,31874002,32955346,3800,3800,197,682,-6239,1173,4772,265,4,93,816
826207,31781832,32715484,31874608,32955952,3800,3800,-63,172,-5539,1493,3922,1543,10,85,814
827208,31781916,32715776,31875214,32956558,3800,3800,-614,324,-4414,1463,1406,3197,10,85,814
828209,31782084,32716068,31875820,32957164,3800,3800,-1027,359,-3317,359,1656,1673,14,54,813
829210,31782256,32716424,31876426,32957770,3800,3800,-1145,-111,-2639,-622,3458,991,14,54,813
830211,31782444,32716840,31877032,32958376,3800,3800,-1274,-459,-2060,-1143,3265,2452,28,65,812
831212,31782692,32717240,31877638,32958982,3800,3800,-1628,-224,-1240,-1535,2273,4388,28,65,812
832213,31782944,32717648,31878244,32959588,3800,3800,-2066,499,-344,-1892,2460,5381,50,86,815
833214,31783172,32718072,31878850,32960194,3800,3800,-2646,1866,339,-1930,3202,7288,50,86,815
834215,31783424,32718592,31879456,32960800,3800,3800,-3102,2999,854,-2505,2085,5376,62,109,817
835216,31783724,32719156,31880062,32961406,3800,3800,-3256,3505,1358,-2890,965,4360,62,109,817
836217,31784036,32719756,31880668,32962012,3800,3800,-3361,3856,2022,-2943,169,4995,48,99,818
837218,31784336,32720312,31881274,32962618,3800,3800,-3460,4336,2717,-3158,-5,5148,48,99,818
838219,31784680,32720980,31881880,32963224,3800,3800,-3430,4833,3303,-3376,-407,4467,53,118,819
839220,31784976,32721620,31882486,32963830,3800,3800,-3228,4964,3721,-2921,236,3061,53,118,819
840221,31785328,32722328,31883092,32964436,3800,3800,-3024,4724,4010,-1783,1546,2454,72,132,818
841222,31785672,32723072,31883698,32965042,3800,3800,-2819,4323,4246,-845,1811,2287,72,132,818
842223,31785992,32723876,31884304,32965648,3800,3800,-2445,3834,4341,-665,1546,1684,80,137,819
843224,31786332,32724636,31884910,32966254,3800,3800,-1928,3072,4157,-646,1245,703,80,137,819
844225,31786712,32725484,31885516,32966860,3800,3800,-1385,2260,3753,-137,271,846,61,150,821
845226,31787040,32726304,31886122,32967466,3800,3800,-929,1734,3418,986,-643,1963,61,150,821
846227,31787364,32727248,31886728,32968072,3800,3800,-616,1508,3135,1672,-361,2311,78,175,821
847228,31787716,32728132,31887334,32968678,3800,3800,-312,1182,2582,1648,719,1579,78,175,821
848235,31788056,32728920,31887962,32969306,3800,3800,174,529,1821,1793,301,450,61,169,821
849230,31788404,32729832,31888568,32969912,3800,3800,690,-285,1058,2243,-119,568,61,169,821
850231,31788800,32730696,31889174,32970518,3800,3800,1106,-813,393,2410,-1067,1593,60,173,822
851232,31789140,32731560,31889780,32971124,3800,3800,1488,-1051,-230,2502,-1547,1867,60,173,822
852233,31789532,32732568,31890386,32971730,3800,3800,1954,-1386,-941,2520,-1336,1070,66,169,822
853234,31789916,32733416,31890992,32972336,3800,3800,2515,-1816,-1739,2445,-971,977,66,169,822
854235,31790300,32734316,31891598,32972942,3800,3800,3030,-2132,-2434,2667,-1476,1686,63,165,822
855235,31790652,32735272,31892204,32973548,3800,3800,3316,-1834,-2816,2779,-2931,3940,63,165,822
856236,31791016,32736068,31892810,32974154,3800,3800,3491,-1148,-3067,2448,-2746,4181,62,172,823
857238,31791396,32737056,31893416,32974760,3800,3800,3828,-783,-3405,2590,-1434,2316,62,172,823
858239,31791772,32737960,31894022,32975366,3800,3800,4231,-634,-3814,2795,-958,2720,68,186,823
859240,31792144,32738724,31894628,32975972,3800,3800,4495,-91,-4105,2818,-1216,4224,68,186,823
860241,31792556,32739552,31895234,32976578,3800,3800,4607,907,-4242,2655,-1138,4826,84,178,821
861242,31792916,32740288,31895840,32977184,3800,3800,4733,1972,-4318,2341,-432,4312,84,178,821
862243,31793296,32741020,31896446,32977790,3800,3800,4897,2904,-4325,2243,-212,4082,83,159,820
863244,31793664,32741692,31897052,32978396,3800,3800,5066,3776,-4207,2352,-280,3822,83,159,820
864245,31794060,32742296,31897658,32979002,3800,3800,5192,4668,-3977,2098,-300,3779,80,126,820
865246,31794440,32742848,31898264,32979608,3800,3800,5332,5631,-3687,1688,-504,3339,80,126,820
866247,31794860,32743424,31898870,32980214,3800,3800,5442,6602,-3397,1513,5,3154,84,121,819
867248,31795240,32743980,31899476,32980820,3800,3800,5461,7593,-3143,1178,903,2874,84,121,819
868249,31795640,32744492,31900082,32981426,3800,3800,5398,8599,-2909,537,1139,2689,74,98,819
869249,31796048,32744972,31900688,32982032,3800,3800,5253,9694,-2667,-324,1196,2811,74,98,819
870251,31796432,32745408,31901294,32982638,3800,3800,5066,10704,-2451,-1019,1631,2509,80,112,820
871251,31796848,32745860,31901900,32983244,3800,3800,4734,11582,-2384,-1021,3458,2019,80,112,820
872252,31797260,32746304,31902506,32983850,3800,3800,4169,12319,-2480,-796,5600,1397,73,94,819
873253,31797636,32746684,31903112,32984456,3800,3800,3506,12747,-2539,-637,5358,596,73,94,819
874255,31797996,32747084,31903718,32985062,3800,3800,2958,12751,-2495,-671,5580,-456,65,90,816
875265,31798372,32747448,31904346,32985690,3800,3800,2556,12391,-2415,-423,6347,-1338,65,90,816
876257,31798756,32747796,31904952,32986296,3800,3800,2183,11868,-2382,284,7016,-2000,78,80,817
877258,31799104,32748104,31905558,32986902,3800,3800,1727,11051,-2333,494,7394,-2892,78,80,817
878259,31799480,32748428,31906164,32987508,3800,3800,1186,10054,-2256,387,7057,-2949,63,64,815
879260,31799860,32748796,31906770,32988114,3800,3800,282,9582,-1915,1156,5702,-562,63,64,815
880260,31800252,32749096,31907376,32988720,3800,3800,-918,9322,-1541,1500,6367,-1027,69,75,816
881262,31800612,32749392,31907982,32989326,3800,3800,-2153,8708,-1445,1511,7409,-2152,69,75,816
882263,31800880,32749692,31908588,32989932,3800,3800,-3361,7402,-1606,1327,7407,-3706,71,71,816
883264,31801264,32750024,31909194,32990538,3800,3800,-4543,5548,-1826,1126,6086,-4921,71,71,816
884265,31801656,32750380,31909800,32991144,3800,3800,-5707,3330,-1970,883,4848,-6133,73,72,816
885266,31802056,32750720,31910406,32991750,3800,3800,-7136,1695,-2044,1145,4693,-3230,73,72,816
886267,31802412,32751080,31911012,32992356,3800,3800,-9059,1206,-2076,1048,3576,-216,74,80,814
887268,31802760,32751528,31911618,32992962,3800,3800,-10678,789,-2223,884,3711,-1662,74,80,814
888268,31803156,32751960,31912224,32993568,3800,3800,-11629,-498,-2594,1234,4257,-3579,79,79,818
889269,31803480,32752384,31912830,32994174,3800,3800,-12125,-2631,-3036,2047,2890,-4375,79,79,818
890271,31803812,32752960,31913436,32994780,3800,3800,-12545,-4584,-3174,2949,579,-2864,61,92,818
891272,31804208,32753520,31914042,32995386,3800,3800,-13074,-5992,-3018,3436,-765,-1618,61,92,818
892273,31804548,32753976,31914648,32995992,3800,3800,-13869,-6833,-2822,3781,-1607,199,70,107,819
893274,31804908,32754456,31915254,32996598,3800,3800,-14847,-7298,-2692,3720,-3143,1755,70,107,819
894275,31805280,32754932,31915860,32997204,3800,3800,-15707,-7590,-2559,4262,-4776,2332,82,96,818
895276,31805704,32755416,31916466,32997810,3800,3800,-16222,-7940,-2265,5363,-5695,2658,82,96,818
896277,31806136,32756068,31917072,32998416,3800,3800,-16614,-7927,-1868,6098,-5638,4990,99,106,818
897278,31806556,32756676,31917678,32999022,3800,3800,-16806,-7426,-1665,7058,-5432,6127,99,106,818
898279,31807008,32757332,31918284,32999628,3800,3800,-7944,9691,-1891,24895,-17586,32767,83,121,820
899280,31807448,32757940,31918890,33000234,3800,3800,5548,-32008,-2645,25852,-15840,32767,83,121,820
900281,31807880,32758612,31919496,33000840,3800,3800,10969,-32008,-3410,10378,-1252,-3976,95,134,821
901282,31808344,32759360,31920102,33001446,3800,3800,9968,32270,-3838,9653,-1518,-8457,95,134,821
902290,31808780,32760112,31920730,33002074,3800,3800,7612,23947,-4057,8797,-2237,-7981,88,136,821
903284,31809216,32760904,31921336,33002680,3800,3800,6348,19207,-3923,8146,-4173,-5619,88,136,821
904285,31809700,32761660,31921942,33003286,3800,3800,5099,17077,-3475,6419,-5099,-2673,110,137,822
905286,31810148,32762476,31922548,33003892,3800,3800,4397,14577,-3320,4985,-3843,-7701,110,137,822
906287,31810584,32763296,31923154,33004498,3800,3800,3800,10309,-3718,4516,-1402,-8992,102,161,822
907288,31811092,32764272,31923760,33005104,3800,3800,3444,6237,-4336,2745,-808,-7295,102,161,822
908289,31811544,32765056,31924366,33005710,3800,3800,2985,2698,-4897,460,-1304,-5505,84,175,823
909290,31812008,32765876,31924972,33006316,3800,3800,2186,431,-5289,-1160,-3477,-2355,84,175,823
910291,31812568,32766700,31925578,33006922,3800,3800,1343,-1043,-5567,-2892,-4502,-420,98,183,822
911291,31813108,32767496,31926184,33007528,3800,3800,757,-2238,-6061,-4637,-3208,322,98,183,822
912292,31813704,32768360,31926790,33008134,3800,3800,424,-3028,-6823,-6261,-1812,1839,119,192,823
913293,31814308,32769192,31927396,33008740,3800,3800,117,-3180,-7619,-8323,-1091,3899,119,192,823
914295,31814972,32769872,31928002,33009346,3800,3800,-148,-2646,-8275,-10328,-1562,5268,135,181,824
915296,31815616,32770596,31928608,33009952,3800,3800,-304,-1872,-8623,-12188,-2885,6620,135,181,824
916297,31816276,32771256,31929214,33010558,3800,3800,-422,-263,-8604,-13650,-4449,9762,146,155,825
917297,31816948,32771900,31929820,33011164,3800,3800,-526,2521,-7995,-15168,-5587,12769,146,155,825
918299,31817572,32772500,31930426,33011770,3800,3800,-466,6551,-6712,-16674,-6123,14693,134,123,823
919299,31818220,32773052,31931032,33012376,3800,3800,-235,10989,-5035,-17649,-6524,14469,134,123,823
920300,31818936,32773584,31931638,33012982,3800,3800,111,14470,-3332,-18777,-5670,11914,141,119,823
921302,31819596,32774048,31932244,33013588,3800,3800,639,14680,-1684,-21693,-4963,5170,141,119,823
922302,31820324,32774504,31932850,33014194,3800,3800,1140,13077,-505,-17496,-4611,2214,134,101,822
923304,31821164,32774928,31933456,33014800,3800,3800,1464,11055,-17,-13764,-3843,-618,134,101,822
924305,31821968,32775316,31934062,33015406,3800,3800,1512,8965,64,-12310,-2680,-1575,145,100,821
925306,31822756,32775664,31934668,33016012,3800,3800,1504,6783,257,-11469,-2447,-2427,145,100,821
926307,31823668,32775976,31935274,33016618,3800,3800,1571,4332,758,-10271,-2871,-3263,172,83,822
927308,31824540,32776260,31935880,33017224,3800,3800,1654,1710,1434,-9145,-3319,-3399,172,83,822
928308,31825452,32776540,31936486,33017830,3800,3800,1615,-707,2162,-8113,-3514,-2704,171,76,820
929317,31826456,32776800,31937114,33018458,3800,3800,1467,-2925,2856,-7230,-3464,-2634,171,76,820
930311,31827500,32777044,31937720,33019064,3800,3800,1259,-4895,3462,-6543,-3027,-1751,170,70,821
931312,31828508,32777276,31938326,33019670,3800,3800,994,-6184,4034,-6102,-2831,815,170,70,821
932313,31829444,32777508,31938932,33020276,3800,3800,694,-6580,4461,-6126,-1855,2519,176,65,822
933313,31830564,32777760,31939538,33020882,3800,3800,572,-6950,4599,-5831,-428,1365,176,65,822
934314,31831636,32778064,31940144,33021488,3800,3800,675,-7533,4534,-5384,29,1028,180,64,822
935315,31832604,32778312,31940750,33022094,3800,3800,846,-8096,4350,-5202,601,1890,180,64,822
936316,31833656,32778572,31941356,33022700,3800,3800,1033,-8279,4138,-4624,441,2789,206,61,822
937318,31834648,32778844,31941962,33023306,3800,3800,1309,-8439,4005,-4287,-95,2459,206,61,822
938318,31835584,32779096,31942568,33023912,3800,3800,1675,-8556,3950,-4372,-493,2926,198,72,823
939320,31836576,32779360,31943174,33024518,3800,3800,1871,-8255,4031,-4854,-2052,4629,198,72,823
940321,31837460,32779660,31943780,33025124,3800,3800,1824,-7604,4315,-5540,-3753,5477,179,65,823
941322,31838312,32779876,31944386,33025730,3800,3800,1735,-6986,4668,-5765,-4196,4579,179,65,823
942323,31839224,32780120,31944992,33026336,3800,3800,1718,-7165,4993,-4975,-4236,2208,171,64,820
943324,31839996,32780344,31945598,33026942,3800,3800,1779,-8018,5299,-3320,-4634,736,160,46,820
944324,31840728,32780572,31946204,33027548,3800,3800,1870,-9575,5617,-1615,-5153,-1271,160,46,820
945326,31841452,32780872,31946810,33028154,3800,3800,2050,-11500,5939,-158,-5748,-2308,129,64,820
946327,31842036,32781156,31947416,33028760,3800,3800,2296,-13594,6227,951,-6407,-2808,129,64,820
947328,31842472,32781448,31948022,33029366,3800,3800,2592,-15689,6433,1791,-6859,-2778,122,62,819
948329,31842944,32781720,31948628,33029972,3800,3800,2871,-17668,6550,3092,-6834,-2298,122,62,819
949330,31843252,32781980,31949234,33030578,3800,3800,3081,-19340,6558,4386,-6080,-1624,56,70,815
950331,31843472,32782252,31949840,33031184,3800,3800,3261,-20890,6463,5509,-5543,-1877,56,70,815
951332,31843596,32782536,31950446,33031790,3800,3800,3437,-22366,6282,6174,-5175,-1668,51,50,813
952333,31843724,32782756,31951052,33032396,3800,3800,3617,-23532,6079,6297,-4578,-622,51,50,813
953334,31843844,32782968,31951658,33033002,3800,3800,3690,-24125,5879,6458,-4104,815,17,53,813
954335,31843956,32783160,31952264,33033608,3800,3800,3749,-24258,5670,6549,-4194,1565,17,53,813
955336,31844104,32783336,31952870,33034214,3800,3800,3757,-23763,5453,6145,-3601,3403,16,44,813
956344,31844288,32783568,31953498,33034842,3800,3800,3688,-22434,5260,4997,-2559,5571,16,44,813
957338,31844528,32783832,31954104,33035448,3800,3800,3516,-20367,5045,3912,-951,7159,44,44,814
958339,31844840,32784092,31954710,33036054,3800,3800,3464,-18193,4743,3478,479,6269,44,44,814
959340,31845132,32784304,31955316,33036660,3800,3800,3459,-16223,4244,3933,2419,5942,71,47,815
960341,31845448,32784548,31955922,33037266,3800,3800,3490,-14376,3606,3934,3140,5598,71,47,815
961342,31845744,32784816,31956528,33037872,3800,3800,3629,-12620,3104,2636,2791,5456,51,71,813
962343,31845992,32785144,31957134,33038478,3800,3800,3873,-11025,2563,1227,4007,4837,51,71,813
963344,31846232,32785436,31957740,33039084,3800,3800,4076,-9112,1980,1551,4923,5545,39,67,815
964345,31846476,32785692,31958346,33039690,3800,3800,4224,-6910,1389,2145,5982,5199,39,67,815
965346,31846740,32785992,31958952,33040296,3800,3800,4477,-5118,817,1949,5391,3264,66,57,815
966347,31847048,32786312,31959558,33040902,3800,3800,4743,-3517,451,1106,2849,3686,66,57,815
967348,31847412,32786612,31960164,33041508,3800,3800,4684,-1143,588,671,-405,7363,54,68,815
968349,31847784,32786928,31960770,33042114,3800,3800,4196,2245,754,1186,1910,9362,54,68,815
969350,31848184,32787180,31961376,33042720,3800,3800,3844,4907,557,1963,4277,4886,63,60,816
970351,31848560,32787488,31961982,33043326,3800,3800,4161,5701,-65,2187,5283,-575,63,60,816
971352,31848892,32787840,31962588,33043932,3800,3800,4764,5256,-891,2002,4592,-1867,78,70,815
972353,31849232,32788172,31963194,33044538,3800,3800,5324,5018,-1492,2697,3799,-741,78,70,815
973354,31849560,32788516,31963800,33045144,3800,3800,5554,5653,-1602,3322,1881,1313,57,75,814
974355,31849860,32788888,31964406,33045750,3800,3800,5683,6103,-1566,3006,1520,-906,57,75,814
975356,31850144,32789316,31965012,33046356,3800,3800,5861,5934,-1633,3369,1794,-1986,52,89,816
976357,31850408,32789732,31965618,33046962,3800,3800,5992,5252,-2004,4071,3710,-2884,52,89,816
977358,31850740,32790156,31966224,33047568,3800,3800,6034,4290,-2521,4623,4369,-3375,53,93,817
978359,31850984,32790660,31966830,33048174,3800,3800,5864,3369,-2880,5121,4276,-2949,53,93,817
979360,31851252,32791156,31967436,33048780,3800,3800,5528,2617,-3076,5362,4149,-2543,47,104,817
980361,31851484,32791644,31968042,33049386,3800,3800,5083,1959,-3322,5701,5126,-2335,47,104,817
981362,31851712,32792180,31968648,33049992,3800,3800,4615,1248,-3645,6044,5637,-2475,36,105,817
982363,31851936,32792672,31969254,33050598,3800,3800,4073,532,-3969,6243,5457,-1830,36,105,817
983373,31852168,32793236,31969882,33051226,3800,3800,3114,639,-4043,6427,3174,1604,46,106,815
984365,31852360,32793816,31970488,33051832,3800,3800,1343,2037,-3471,5916,-1829,5073,46,106,815
985366,31852532,32794404,31971094,33052438,3800,3800,-238,2775,-2979,5489,741,132,49,104,815
986367,31852764,32795064,31971700,33053044,3800,3800,-1289,2280,-2987,6153,3377,-1648,49,104,815
987368,31852972,32795660,31972306,33053650,3800,3800,-2138,1308,-3148,6533,2932,-1893,55,133,818
988369,31853184,32796392,31972912,33054256,3800,3800,-3096,435,-3254,6785,3135,-1476,55,133,818
989370,31853400,32797028,31973518,33054862,3800,3800,-3789,-798,-3190,7183,4182,-3571,48,119,818
990371,31853672,32797860,31974124,33055468,3800,3800,-4233,-2118,-3034,7611,4584,-2912,48,119,818
991372,31853892,32798532,31974730,33056074,3800,3800,-4617,-3190,-2861,7831,4951,-2243,58,140,818
992373,31854144,32799348,31975336,33056680,3800,3800,-4955,-3999,-2847,7611,6054,-1497,58,140,818
993374,31854428,32800144,31975942,33057286,3800,3800,-5248,-4251,-2813,7600,5040,464,44,158,816
994375,31854676,32800984,31976548,33057892,3800,3800,-5462,-4061,-2679,7118,4123,1414,44,158,816
995376,31854968,32801776,31977154,33058498,3800,3800,-5492,-3517,-2547,6134,3860,2029,64,146,819
996377,31855316,32802684,31977760,33059104,3800,3800,-5373,-2719,-2520,5471,4307,2785,64,146,819
997378,31855620,32803560,31978366,33059710,3800,3800,-5256,-1623,-2574,5218,4148,3736,53,161,820
998379,31855920,32804268,31978972,33060316,3800,3800,-5291,-33,-2592,4803,2854,5308,53,161,820
999380,31856272,32805104,31979578,33060922,3800,3800,-5376,1784,-2706,4105,2751,5219,58,164,821
1000380,31856616,32805928,31980184,33061528,3800,3800,-5336,3278,-3008,3436,2436,4148,58,164,821
1001382,31856968,32806748,31980790,33062134,3800,3800,-5151,4688,-3325,2942,907,4744,81,152,821
1002383,31857376,32807400,31981396,33062740,3800,3800,-4899,6217,-3556,2916,-191,4918,81,152,821
1003384,31857772,32808052,31982002,33063346,3800,3800,-4530,7711,-3712,3182,-1075,4098,88,119,820
1004384,31858196,32808600,31982608,33063952,3800,3800,-4027,8882,-3833,3350,-1217,3049,88,119,820
1005386,31858624,32809156,31983214,33064558,3800,3800,-3520,9780,-3933,3816,-1084,2627,80,110,819
1006387,31859088,32809604,31983820,33065164,3800,3800,-3125,10477,-4063,4262,-755,1900,80,110,819
1007388,31859568,32810056,31984426,33065770,3800,3800,-2757,10922,-4247,4098,-862,990,100,102,818
1008388,31860056,32810412,31985032,33066376,3800,3800,-2353,11246,-4423,3394,-1574,751,100,102,818
1009390,31860536,32810760,31985638,33066982,3800,3800,-2076,11437,-4573,2529,-2303,1082,80,62,818
1010398,31860992,32810968,31986266,33067610,3800,3800,-2019,11822,-4699,2317,-2974,1797,80,62,818
1011391,31861476,32811132,31986872,33068216,3800,3800,-2107,12275,-4865,2091,-2299,1593,78,51,817
1012392,31861932,32811300,31987478,33068822,3800,3800,-2185,12476,-5174,1345,-1520,730,78,51,817
1013394,31862400,32811408,31988084,33069428,3800,3800,-2284,12265,-5624,730,-1094,118,81,25,815
1014395,31862876,32811488,31988690,33070034,3800,3800,-2459,11948,-6029,577,-1232,113,81,25,815
1015396,31863312,32811576,31989296,33070640,3800,3800,-2678,11541,-6320,962,-664,-336,81,29,813
1016396,31863776,32811748,31989902,33071246,3800,3800,-2925,11040,-6565,1346,-379,-475,81,29,813
1017398,31864248,32812036,31990508,33071852,3800,3800,-3253,10585,-6699,1184,-853,373,83,52,813
1018399,31864704,32812336,31991114,33072458,3800,3800,-3798,10407,-6653,967,-1628,1415,83,52,813
1019400,31865176,32812696,31991720,33073064,3800,3800,-4653,10312,-6412,971,-2643,1553,93,79,817
1020400,31865724,32813040,31992326,33073670,3800,3800,-5549,9965,-6190,1568,-580,982,93,79,817
1021402,31866160,32813368,31992932,33074276,3800,3800,-6394,9415,-6258,2044,2308,1008,98,77,818
1022403,31866584,32813648,31993538,33074882,3800,3800,-7126,8389,-6601,1580,3173,-456,98,77,818
1023404,31867032,32814004,31994144,33075488,3800,3800,-7816,7177,-6959,1206,3046,-294,91,71,818
1024405,31867500,32814372,31994750,33076094,3800,3800,-8392,5832,-7224,767,2415,-987,91,71,818
1025406,31867980,32814776,31995356,33076700,3800,3800,-8773,4401,-7493,542,2019,-1024,110,89,818
1026407,31868404,32815180,31995962,33077306,3800,3800,-9058,3307,-7650,745,1565,649,110,89,818
1027408,31868860,32815644,31996568,33077912,3800,3800,-9316,2627,-7605,1046,1068,1977,96,80,817
1028409,31869284,32816132,31997174,33078518,3800,3800,-9704,2392,-7423,840,-301,3860,96,80,817
1029410,31869712,32816584,31997780,33079124,3800,3800,-10363,2883,-6913,1116,-1794,6258,93,99,817
1030411,31870112,32817076,31998386,33079730,3800,3800,-10678,3664,-6252,188,-2703,7911,93,99,817
1031412,31870556,32817560,31998992,33080336,3800,3800,-6277,11919,-4646,-7066,-11348,32767,97,93,818
1032413,31870976,32818032,31999598,33080942,3800,3800,1454,24728,-2495,-8265,-11943,32767,97,93,818
1033414,31871400,32818612,32000204,33081548,3800,3800,5262,27866,-1796,-780,-595,4423,100,109,819
1034415,31871868,32819248,32000810,33082154,3800,3800,4808,23957,-2188,61,1110,-2658,100,109,819
1035416,31872340,32819708,32001416,33082760,3800,3800,3511,18856,-2839,-660,549,-5151,89,109,820
1036417,31872780,32820260,32002022,33083366,3800,3800,2887,13242,-2977,-4942,-1366,-7524,89,109,820
1037425,31873296,32820832,32002650,33083994,3800,3800,2762,7225,-2479,-6113,-3398,-7030,112,116,819
1038419,31873760,32821416,32003256,33084600,3800,3800,2401,2280,-1741,-5404,-5139,-3442,112,116,819
1039420,31874268,32822052,32003862,33085206,3800,3800,1488,-216,-990,-4557,-6395,1028,93,133,819
1040421,31874788,32822812,32004468,33085812,3800,3800,491,-1304,-354,-6067,-5673,2228,93,133,819
1041422,31875288,32823556,32005074,33086418,3800,3800,-110,-2310,-109,-5938,-4568,1812,108,144,822
1042423,31875752,32824308,32005680,33087024,3800,3800,-370,-3192,-94,-5723,-4503,2866,108,144,822
1043424,31876196,32825068,32006286,33087630,3800,3800,-491,-3619,1,-6248,-4249,4430,91,158,821
1044425,31876664,32825792,32006892,33088236,3800,3800,-716,-3400,197,-6025,-5272,6178,91,158,821
1045425,31877064,32826668,32007498,33088842,3800,3800,-989,-2894,353,-5639,-6385,6772,85,159,822
1046427,31877444,32827404,32008104,33089448,3800,3800,-1121,-2220,593,-6487,-6150,7848,85,159,822
1047427,31877820,32828204,32008710,33090054,3800,3800,-1033,-1263,866,-6132,-5761,8368,76,160,822
1048428,31878180,32828992,32009316,33090660,3800,3800,-580,-283,1108,-6232,-6126,9301,76,160,822
1049430,31878472,32829804,32009922,33091266,3800,3800,1229,754,1703,-9624,-8033,23394,59,152,821
1050431,31878820,32830452,32010528,33091872,3800,3800,3383,2158,2427,-8608,-7175,21268,59,152,821
1051432,31879100,32831204,32011134,33092478,3800,3800,4199,3141,2968,-6101,-4969,8269,74,136,820
1052432,31879380,32831856,32011740,33093084,3800,3800,4169,3661,3403,-6109,-4090,6696,74,136,820
1053433,31879688,32832480,32012346,33093690,3800,3800,4113,3795,3720,-5979,-3329,5528,62,116,819
1054435,31879948,32833068,32012952,33094296,3800,3800,4370,3719,4043,-5825,-3167,4870,62,116,819
1055436,31880216,32833592,32013558,33094902,3800,3800,4860,3542,4367,-5554,-3214,4265,55,102,818
1056436,31880500,32834120,32014164,33095508,3800,3800,5519,3073,4648,-5014,-4189,3266,55,102,818
1057438,31880772,32834596,32014770,33096114,3800,3800,6252,2442,4905,-4538,-4544,2965,59,105,817
1058439,31881004,32835024,32015376,33096720,3800,3800,6935,1775,5106,-4042,-3395,2373,59,105,817
1059440,31881320,32835328,32015982,33097326,3800,3800,7391,1116,5149,-4240,-717,2202,50,74,816
1060441,31881596,32835644,32016588,33097932,3800,3800,7606,592,5071,-4937,260,2369,50,74,816
1061441,31881872,32835940,32017194,33098538,3800,3800,7761,26,4905,-5271,180,1852,55,76,813
1062443,31882140,32836280,32017800,33099144,3800,3800,7859,-636,4544,-5701,797,1298,55,76,813
1063444,31882448,32836552,32018406,33099750,3800,3800,7855,-1404,3865,-6470,1798,896,54,71,815
1064452,31882696,32836804,32019034,33100378,3800,3800,7637,-2117,2981,-6887,1784,1322,54,71,815
1065446,31882960,32837024,32019640,33100984,3800,3800,7169,-2444,2118,-7050,1390,2513,54,56,814
1066447,31883216,32837224,32020246,33101590,3800,3800,6527,-2404,1349,-6959,1569,3095,54,56,814
1067447,31883440,32837420,32020852,33102196,3800,3800,5906,-2401,655,-6722,1866,2426,43,38,814
1068448,31883648,32837632,32021458,33102802,3800,3800,5355,-2640,7,-6607,2402,1904,43,38,814
1069449,31883904,32837832,32022064,33103408,3800,3800,4833,-3057,-507,-6022,2365,1422,44,39,813
1070451,31884116,32837968,32022670,33104014,3800,3800,4084,-3453,-765,-4890,1886,1889,44,39,813
1071452,31884292,32838120,32023276,33104620,3800,3800,3157,-3732,-758,-4443,1174,1721,37,40,811
1072452,31884528,32838280,32023882,33105226,3800,3800,2373,-4405,-696,-4176,1525,-90,37,40,811
1073454,31884676,32838508,32024488,33105832,3800,3800,1764,-5546,-648,-3805,1365,-1356,48,40,811
1074455,31884828,32838712,32025094,33106438,3800,3800,1289,-7142,-625,-3423,1569,-2644,48,40,811
1075456,31885036,32838956,32025700,33107044,3800,3800,838,-8751,-483,-2432,1412,-2321,35,49,813
1076457,31885172,32839192,32026306,33107650,3800,3800,244,-10065,-165,-1429,1335,-1205,35,49,813
1077457,31885292,32839400,32026912,33108256,3800,3800,-362,-11102,176,-981,1859,-974,30,45,812
1078459,31885428,32839628,32027518,33108862,3800,3800,-830,-12221,440,-761,2119,-1617,30,45,812
1079459,31885628,32839924,32028124,33109468,3800,3800,-1250,-13326,647,-359,2043,-1002,39,57,813
1080461,31885764,32840228,32028730,33110074,3800,3800,-1746,-14005,963,361,1665,820,39,57,813
1081462,31885900,32840544,32029336,33110680,3800,3800,-2258,-14210,1401,767,1333,1707,26,77,813
1082463,31886084,32840884,32029942,33111286,3800,3800,-2746,-14108,1815,925,1256,2732,26,77,813
1083464,31886224,32841216,32030548,33111892,3800,3800,-3193,-13753,2104,939,1504,3657,22,80,811
1084464,31886372,32841604,32031154,33112498,3800,3800,-3610,-13171,2285,1006,1325,4543,22,80,811
1085466,31886596,32842012,32031760,33113104,3800,3800,-3894,-12445,2448,1027,883,4684,29,82,814
1086467,31886804,32842452,32032366,33113710,3800,3800,-4004,-11795,2569,890,587,4372,29,82,814
1087468,31887020,32842924,32032972,33114316,3800,3800,-3978,-11207,2615,899,140,4456,57,93,813
1088469,31887300,32843364,32033578,33114922,3800,3800,-3873,-10590,2619,1177,-52,4803,57,93,813
1089470,31887576,32843832,32034184,33115528,3800,3800,-3710,-9959,2613,1580,-271,4917,63,92,815
1090471,31887868,32844376,32034790,33116134,3800,3800,-3480,-9355,2638,1971,-564,4802,63,92,815
1091481,31888184,32844892,32035418,33116762,3800,3800,-3199,-8778,2602,2299,-53,4834,55,105,816
1092473,31888480,32845432,32036024,33117368,3800,3800,-2891,-8223,2434,2531,1149,4787,55,105,816
1093474,31888788,32845932,32036630,33117974,3800,3800,-2576,-7700,2152,2904,1503,4907,49,103,816
1094475,31889144,32846508,32037236,33118580,3800,3800,-2263,-7135,1806,3329,797,5048,49,103,816
1095476,31889488,32847136,32037842,33119186,3800,3800,-1897,-6694,1409,3581,481,4548,82,118,818
1096477,31889832,32847772,32038448,33119792,3800,3800,-1499,-6357,979,3892,452,4459,82,118,818
1097478,31890188,32848400,32039054,33120398,3800,3800,-1071,-6224,541,3997,446,3782,80,121,819
1098479,31890608,32848980,32039660,33121004,3800,3800,-627,-6225,139,4198,364,3469,80,121,819
1099480,31890984,32849712,32040266,33121610,3800,3800,-242,-6186,-151,4551,11,3974,84,124,820
1100480,31891384,32850428,32040872,33122216,3800,3800,56,-6018,-346,4456,-233,4400,84,124,820
1101482,31891832,32851280,32041478,33122822,3800,3800,343,-5853,-488,4241,-333,4304,83,160,820
1102482,31892260,32852124,32042084,33123428,3800,3800,685,-5688,-622,4334,160,4263,83,160,820
1103484,31892688,32852932,32042690,33124034,3800,3800,1047,-5453,-722,4489,449,4688,76,183,821
1104485,31893184,32853864,32043296,33124640,3800,3800,1355,-5061,-778,4602,561,5006,76,183,821
1105486,31893672,32854752,32043902,33125246,3800,3800,1600,-4561,-807,4300,168,5320,100,187,821
1106487,31894144,32855596,32044508,33125852,3800,3800,1799,-3957,-756,3868,-331,5700,100,187,821
1107488,31894712,32856676,32045114,33126458,3800,3800,1955,-3400,-638,3783,149,5513,113,182,824
1108489,31895244,32857704,32045720,33127064,3800,3800,2158,-3124,-555,4078,1359,4550,113,182,824
1109490,31895824,32858624,32046326,33127670,3800,3800,2404,-2942,-493,4169,1461,4527,112,196,824
1110491,31896468,32859664,32046932,33128276,3800,3800,2621,-2731,-375,3973,1066,4691,112,196,824
1111491,31897064,32860684,32047538,33128882,3800,3800,2842,-2313,-222,3748,1196,4876,130,192,825
1112492,31897696,32861784,32048144,33129488,3800,3800,3009,-1915,-15,3718,1688,4874,130,192,825
1113494,31898428,32862760,32048750,33130094,3800,3800,3261,-1550,213,3463,1886,4526,150,191,826
1114495,31899072,32863844,32049356,33130700,3800,3800,3524,-1326,429,2916,1769,4284,150,191,826
1115496,31899772,32864872,32049962,33131306,3800,3800,3802,-1004,660,2401,1293,4625,147,191,826
1116496,31900552,32865920,32050568,33131912,3800,3800,4006,-475,942,1853,880,5186,147,191,826
1117498,31901308,32866940,32051174,33132518,3800,3800,4171,125,1238,1259,554,4823,151,186,827
1118505,31902000,32868016,32051802,33133146,3800,3800,4355,638,1472,853,442,4588,151,186,827
1119500,31902784,32869032,32052408,33133752,3800,3800,4530,1148,1685,752,96,4669,160,201,828
1120501,31903580,32869896,32053014,33134358,3800,3800,4688,1687,1941,891,-472,4743,160,201,828
1121502,31904364,32870836,32053620,33134964,3800,3800,4850,2256,2269,1205,-728,4399,158,197,828
1122503,31905112,32871832,32054226,33135570,3800,3800,4994,2884,2676,1912,-1184,4420,158,197,828
1123504,31905952,32872760,32054832,33136176,3800,3800,5071,3503,3070,2862,-997,3898,166,196,827
1124505,31906740,32873608,32055438,33136782,3800,3800,5078,3829,3310,3520,-358,2550,166,196,827
1125506,31907468,32874564,32056044,33137388,3800,3800,5130,3723,3344,3366,-488,1033,154,206,826
1126507,31908212,32875396,32056650,33137994,3800,3800,5248,3405,3292,3336,-843,638,154,206,826
1127508,31908976,32876380,32057256,33138600,3800,3800,5307,3346,3474,3458,-2561,1812,155,206,826
1128509,31909608,32877340,32057862,33139206,3800,3800,5204,3927,3868,3875,-2914,3348,155,206,826
1129510,31910424,32878416,32058468,33139812,3800,3800,5087,4786,4114,3946,-1347,3142,145,205,825
1130511,31911076,32879408,32059074,33140418,3800,3800,5035,5333,4014,3794,-424,1732,145,205,825
1131512,31911860,32880396,32059680,33141024,3800,3800,5043,5706,3630,3268,-565,1609,151,190,825
1132513,31912692,32881380,32060286,33141630,3800,3800,5051,6088,3012,2586,-210,1267,151,190,825
1133514,31913440,32882256,32060892,33142236,3800,3800,4988,6748,2302,2518,-1192,2130,156,192,826
1134514,31914212,32883212,32061498,33142842,3800,3800,4861,7691,1675,2373,-2263,2262,156,192,826
1135515,31915104,32884148,32062104,33143448,3800,3800,4496,8785,1061,2381,-2110,2745,158,183,826
1136516,31915920,32885060,32062710,33144054,3800,3800,3972,9952,306,2562,-1787,2264,158,183,826
1137518,31916768,32886004,32063316,33144660,3800,3800,3485,10828,-516,2725,-1917,1192,160,177,827
1138519,31917552,32887112,32063922,33145266,3800,3800,3131,11426,-1294,3590,-2070,279,160,177,827
1139519,31918516,32888112,32064528,33145872,3800,3800,2816,11681,-2029,4917,-2183,-492,161,211,827
1140521,31919360,32889312,32065134,33146478,3800,3800,2453,11977,-2621,5919,-2096,-31,161,211,827
1141521,31920276,32890388,32065740,33147084,3800,3800,2054,12262,-3107,6461,-1598,-485,161,218,829
1142523,31921224,32891468,32066346,33147690,3800,3800,1799,12003,-3586,5956,-1347,-2437,161,218,829
1143523,31922096,32892548,32066952,33148296,3800,3800,1712,11198,-4120,5940,-185,-3550,165,222,830
1144525,31923000,32893580,32067558,33148902,3800,3800,1602,10194,-4586,7043,8,-3969,165,222,830
1145532,31924060,32894876,32068186,33149530,3800,3800,1441,9107,-4826,7635,-514,-3930,166,230,831
1146527,31925020,32896012,32068792,33150136,3800,3800,1254,7759,-4861,7531,-711,-3940,166,230,831
1147527,31925908,32897136,32069398,33150742,3800,3800,1023,6890,-4890,7403,-231,-2746,164,253,830
1148528,31926868,32898260,32070004,33151348,3800,3800,814,6413,-4926,6576,545,-2535,164,253,830
1149530,31927804,32899348,32070610,33151954,3800,3800,648,6079,-5033,6124,962,-2188,186,235,830
1150530,31928688,32900400,32071216,33152560,3800,3800,447,6010,-5157,5259,977,-1338,186,235,830
1151531,31929588,32901484,32071822,33153166,3800,3800,285,6072,-5227,3861,1006,-1087,177,217,830
1152533,31930432,32902540,32072428,33153772,3800,3800,77,6613,-5272,3138,862,170,177,217,830
1153534,31931340,32903516,32073034,33154378,3800,3800,-68,7512,-5252,2016,1473,502,178,209,829
1154535,31932204,32904480,32073640,33154984,3800,3800,-219,8372,-5242,1413,2236,289,178,209,829
1155536,31933096,32905420,32074246,33155590,3800,3800,-434,9068,-5341,828,2735,-49,176,193,830
1156537,31933936,32906360,32074852,33156196,3800,3800,-712,9692,-5425,-36,3506,96,176,193,830
1157538,31934776,32907148,32075458,33156802,3800,3800,-973,10349,-5450,-263,3262,8,171,174,828
1158539,31935684,32907828,32076064,33157408,3800,3800,-1173,10914,-5381,-397,2578,-267,171,174,828
1159539,31936484,32908476,32076670,33158014,3800,3800,-1230,11425,-5316,-573,2515,-475,175,149,825
1160541,31937284,32909056,32077276,33158620,3800,3800,-1215,11524,-5624,-481,3526,-1873,175,149,825
1161542,31938040,32909544,32077882,33159226,3800,3800,-1128,10871,-6271,-310,3519,-3568,152,106,823
1162543,31938688,32910004,32078488,33159832,3800,3800,-1070,9815,-6847,209,1771,-3520,152,106,823
1163544,31939292,32910368,32079094,33160438,3800,3800,-1183,8661,-7096,878,46,-3288,156,96,822
1164545,31939888,32910720,32079700,33161044,3800,3800,-1509,7532,-6987,1081,-1143,-2608,156,96,822
1165546,31940364,32910972,32080306,33161650,3800,3800,-1939,6400,-6650,985,-996,-2719,119,55,818
1166547,31940764,32911172,32080912,33162256,3800,3800,-2379,4850,-6299,1359,-575,-3642,119,55,818
1167547,31941168,32911324,32081518,33162862,3800,3800,-2748,2639,-5937,2374,-610,-4989,70,41,813
1168549,31941452,32911468,32082124,33163468,3800,3800,-3007,-133,-5427,3769,-547,-5748,70,41,813
1169550,31941708,32911568,32082730,33164074,3800,3800,-3320,-3043,-4878,4419,23,-5415,60,25,812
1170551,31942012,32911648,32083336,33164680,3800,3800,-3889,-5613,-4321,4682,1,-3225,60,25,812
1171552,31942268,32911716,32083942,33165286,3800,3800,-6742,-3977,-3333,6691,-660,13559,48,17,811
1172560,31942508,32911788,32084570,33165914,3800,3800,-12420,2049,-2542,7646,3592,23839,48,17,811
1173554,31942760,32911900,32085176,33166520,3800,3800,-17495,7252,-3169,5601,8551,15073,51,26,810
1174555,31943072,32912032,32085782,33167126,3800,3800,-19452,6839,-4341,3745,5226,-883,51,26,810
1175555,31943384,32912144,32086388,33167732,3800,3800,-18180,1097,-4970,1872,1806,-7265,57,33,811
1176557,31943756,32912280,32086994,33168338,3800,3800,-2750,-16409,-2800,-19421,-15881,29315,57,33,811
1177558,31944132,32912424,32087600,33168944,3800,3800,7994,-20902,434,-1023,-11161,32767,76,36,813
1178558,31944544,32912584,32088206,33169550,3800,3800,4066,-11069,1772,9160,5892,30814,76,36,813
1179559,31944960,32912792,32088812,33170156,3800,3800,-1816,-4343,1432,4392,2112,4765,87,53,815
1180560,31945460,32913028,32089418,33170762,3800,3800,-3910,-5261,883,842,2610,3929,87,53,815
1181561,31945944,32913292,32090024,33171368,3800,3800,-3190,-6831,443,-134,3207,5098,98,60,815
1182562,31946468,32913556,32090630,33171974,3800,3800,-2736,-7758,25,-1607,2875,5867,98,60,815
1183563,31946980,32913828,32091236,33172580,3800,3800,-2400,-7220,-343,-3883,2717,6592,116,67,816
1184564,31947528,32914152,32091842,33173186,3800,3800,-2452,-6277,-500,-5201,1977,7359,116,67,816
1185566,31948064,32914432,32092448,33173792,3800,3800,-2192,-4475,-717,-6460,2593,9367,119,68,817
1186567,31948652,32914792,32093054,33174398,3800,3800,-2031,-2399,-928,-8839,1131,10049,119,68,817
1187568,31949264,32915192,32093660,33175004,3800,3800,-1464,-787,-999,-10335,-1414,8117,112,79,819
1188569,31949844,32915536,32094266,33175610,3800,3800,-681,182,-1013,-11176,-1280,6120,112,79,819
1189569,31950548,32915956,32094872,33176216,3800,3800,264,1031,-962,-11737,-632,5820,113,83,819
1190570,31951172,32916420,32095478,33176822,3800,3800,1264,1870,-879,-12192,-867,5232,113,83,819
1191571,31951888,32916800,32096084,33177428,3800,3800,2327,2739,-648,-12475,-2006,5046,133,94,820
1192572,31952620,32917256,32096690,33178034,3800,3800,3403,3637,-142,-12281,-3086,4465,133,94,820
1193574,31953464,32917672,32097296,33178640,3800,3800,4284,4377,616,-11238,-3982,3895,162,97,820
1194575,31954216,32918072,32097902,33179246,3800,3800,5092,4970,1507,-10615,-3778,3155,162,97,820
1195576,31955100,32918464,32098508,33179852,3800,3800,5773,5250,2527,-9521,-4203,2364,157,84,821
1196576,31956116,32918888,32099114,33180458,3800,3800,6530,5310,3641,-8429,-4602,1062,157,84,821
1197578,31957036,32919280,32099720,33181064,3800,3800,7255,5145,4791,-7711,-4773,449,173,81,822
1198578,31957956,32919612,32100326,33181670,3800,3800,8008,4815,5829,-7101,-5005,-522,173,81,822
1199589,31958968,32919976,32100954,33182298,3800,3800,8549,4417,6743,-6371,-5181,-137,172,85,822
1200580,31959900,32920356,32101560,33182904,3800,3800,8922,4209,7518,-5846,-4938,-29,172,85,822
1201582,31960916,32920728,32102166,33183510,3800,3800,9096,3947,8088,-5334,-4642,-350,169,74,822
1202583,31962000,32921024,32102772,33184116,3800,3800,9214,3559,8484,-4692,-4620,-505,169,74,822
1203583,31962944,32921416,32103378,33184722,3800,3800,9288,3107,8735,-3604,-4269,-696,172,73,822
1204584,31963852,32921780,32103984,33185328,3800,3800,9314,2643,8808,-2540,-3726,-758,172,73,822
1205585,31964884,32922128,32104590,33185934,3800,3800,9328,2018,8799,-2041,-3514,-1584,186,77,822
1206586,31965824,32922460,32105196,33186540,3800,3800,9291,1454,8760,-1489,-3425,-987,186,77,822
1207587,31966700,32922868,32105802,33187146,3800,3800,9096,1361,8712,-760,-3380,209,183,75,824
1208588,31967656,32923264,32106408,33187752,3800,3800,8826,1432,8622,-343,-3297,-12,183,75,824
1209590,31968512,32923652,32107014,33188358,3800,3800,8574,1437,8426,-475,-3165,-35,181,77,823
1210591,31969396,32924004,32107620,33188964,3800,3800,8292,1539,8139,-640,-3183,854,181,77,823
1211592,31970324,32924476,32108226,33189570,3800,3800,7932,1821,7781,-771,-3150,1043,175,93,823
1212592,31971220,32924992,32108832,33190176,3800,3800,7607,2058,7362,-871,-3135,470,175,93,823
1213594,31972100,32925408,32109438,33190782,3800,3800,7210,2045,6865,-501,-2801,28,177,94,824
1214594,31972976,32925948,32110044,33191388,3800,3800,6832,1842,6372,422,-2498,-604,177,94,824
1215595,31973904,32926484,32110650,33191994,3800,3800,6467,1426,5951,1323,-2338,-1111,186,97,821
1216596,31974764,32927012,32111256,33192600,3800,3800,6235,655,5537,1635,-1733,-2686,186,97,821
1217598,31975608,32927668,32111862,33193206,3800,3800,5973,-380,5005,2077,-124,-2773,159,109,824
1218599,31976440,32928164,32112468,33193812,3800,3800,5720,-1400,4502,2427,591,-2834,159,109,824
1219600,31977272,32928832,32113074,33194418,3800,3800,5425,-2257,4040,2564,1601,-2434,155,119,822
1220601,31978032,32929436,32113680,33195024,3800,3800,5081,-2752,3533,2502,2329,-1765,155,119,822
1221602,31978840,32930108,32114286,33195630,3800,3800,4720,-3049,3057,2614,2196,-1425,158,122,824
1222603,31979584,32930764,32114892,33196236,3800,3800,4394,-3263,2756,3129,1559,-1153,158,122,824
1223604,31980308,32931616,32115498,33196842,3800,3800,4005,-3411,2419,3671,1901,-840,166,149,824
1224605,31981104,32932316,32116104,33197448,3800,3800,3497,-3390,2079,4099,2175,-311,166,149,824
1225606,31981800,32933052,32116710,33198054,3800,3800,2936,-3286,1655,3708,2667,-272,150,153,823
1226614,31982468,32933780,32117338,33198682,3800,3800,2338,-3096,934,2688,3605,-227,150,153,823
1227608,31983180,32934548,32117944,33199288,3800,3800,1728,-2994,-36,2491,4596,-555,142,139,823
1228609,31983808,32935304,32118550,33199894,3800,3800,1076,-2970,-1061,3082,5149,-838,142,139,823
1229610,31984424,32936084,32119156,33200500,3800,3800,403,-3002,-2088,3276,5967,-1021,147,160,824
1230611,31985104,32936748,32119762,33201106,3800,3800,-395,-2751,-3178,3871,7104,109,147,160,824
1231612,31985736,32937444,32120368,33201712,3800,3800,-1413,-2061,-4049,4870,6698,1431,134,143,823
1232613,31986380,32938012,32120974,33202318,3800,3800,-2287,-1506,-4912,5274,7807,-54,134,143,823
1233614,31986996,32938640,32121580,33202924,3800,3800,-2904,-1295,-5986,5443,8537,-795,128,137,823
1234615,31987688,32939256,32122186,33203530,3800,3800,-3340,-1373,-7135,5409,8179,-1378,128,137,823
1235616,31988356,32939792,32122792,33204136,3800,3800,-3627,-1838,-8263,5293,7864,-2531,140,135,820
1236617,31989020,32940364,32123398,33204742,3800,3800,-3822,-2395,-9296,5358,7050,-2649,140,135,820
1237618,31989720,32940884,32124004,33205348,3800,3800,-3993,-2789,-10201,5104,6575,-2517,126,113,820
1238619,31990356,32941492,32124610,33205954,3800,3800,-4178,-3355,-10945,4643,5564,-3231,126,113,820
1239620,31991036,32942108,32125216,33206560,3800,3800,-4303,-4176,-11479,4628,3474,-3738,146,121,822
1240621,31991748,32942688,32125822,33207166,3800,3800,-4271,-5177,-11784,4412,1496,-4364,146,121,822
1241622,31992412,32943264,32126428,33207772,3800,3800,-4177,-6112,-11905,3859,223,-4043,138,107,822
1242623,31993064,32943804,32127034,33208378,3800,3800,-4229,-6532,-11867,3050,-713,-2051,138,107,822
1243624,31993792,32944352,32127640,33208984,3800,3800,-4556,-6423,-11774,2463,-1326,-451,140,104,822
1244625,31994436,32944884,32128246,33209590,3800,3800,-4929,-6387,-11768,2687,-608,-1498,140,104,822
1245626,31995072,32945548,32128852,33210196,3800,3800,-5175,-6642,-11823,2988,252,-1758,138,130,821
1246627,31995728,32946076,32129458,33210802,3800,3800,-5420,-6996,-11769,3366,222,-831,138,130,821
1247628,31996364,32946664,32130064,33211408,3800,3800,-5809,-6953,-11294,4198,532,501,129,105,820
1248628,31997004,32947252,32130670,33212014,3800,3800,-7495,-4843,-9588,6618,-1362,8864,129,105,820
1249630,31997552,32947784,32131276,33212620,3800,3800,-9390,-2293,-7487,6456,157,5908,121,131,821
1250631,31998124,32948428,32131882,33213226,3800,3800,-10268,-1452,-6260,5451,4289,1017,121,131,821
1251632,31998680,32949004,32132488,33213832,3800,3800,-11454,-707,-4866,6930,2004,6006,126,126,821
1252633,31999168,32949620,32133094,33214438,3800,3800,-13315,1355,-3552,7687,5201,9551,126,126,821
1253641,31999704,32950240,32133722,33215066,3800,3800,-14850,2834,-3261,6127,8988,4289,123,124,822
1254635,32000144,32950756,32134328,33215672,3800,3800,-15550,2309,-3606,6114,9616,-1113,123,124,822
1255636,32000560,32951344,32134934,33216278,3800,3800,-16047,828,-3716,6659,6278,-972,107,110,819
1256637,32000932,32952136,32135540,33216884,3800,3800,-16830,-24,-3288,6315,2241,1526,107,110,819
1257638,32001256,32952644,32136146,33217490,3800,3800,-17718,-580,-2339,6524,-1887,823,94,127,820
1258639,32001544,32953396,32136752,33218096,3800,3800,-18162,-1409,-1245,6431,-3789,181,94,127,820
1259640,32001836,32954200,32137358,33218702,3800,3800,-18311,-1788,-216,6150,-4359,4246,72,161,817
1260641,32002100,32954900,32137964,33219308,3800,3800,-18344,-1096,755,5849,-5544,7674,72,161,817
1261642,32002340,32955712,32138570,33219914,3800,3800,-15134,3178,1619,6573,-8349,14998,74,178,821
1262643,32002628,32956684,32139176,33220520,3800,3800,-4054,24972,2996,11867,-24518,32767,74,178,821
