"Data file recorded 2014/9/24  18:6:49"
"%  Right Stride Frequency         = 3.0"
"%  Left Stride Frequency         = 3.0"
"%  Phase (Fractional)         = 32768.0"
"%  Experiment.py "
"%  Motor Gains    = [1800, 200, 100, 0, 0, 1800, 200, 100, 0, 0]
"% Columns: "
"% time | Right Leg Pos | Left Leg Pos | Commanded Right Leg Pos | Commanded Left Leg Pos | DCR | DCL | GyroX | GryoY | GryoZ | AX | AY | AZ | RBEMF | LBEMF | VBatt "
10952,5909680,6221128,5934330,6215222,3800,-3800,-136,-705,311,542,-611,3995,-9,-10,897
11951,5909672,6221136,5934527,6229242,3800,3800,-137,-707,313,550,-594,3984,-12,-7,897
12948,5909668,6221144,5934724,6229439,3800,3800,-138,-703,310,552,-609,3968,-12,-7,897
13949,5909700,6221128,5934921,6229636,3800,3800,-138,-700,310,548,-660,4004,-11,9,896
14950,5909940,6221244,5935118,6229833,3800,3800,-127,-697,306,551,-753,4015,-11,9,896
15938,5910176,6221480,5935315,6230030,3800,3519,-87,-636,312,593,-1013,4468,22,34,851
16940,5910500,6221740,5935512,6230227,3800,3343,32,-468,259,1541,-1006,5727,22,34,851
17941,5910932,6222004,5935709,6230424,3800,3290,166,-424,217,771,-466,4845,55,53,855
18941,5911380,6222264,5935906,6230621,3800,3289,259,-533,231,479,-1431,4569,55,53,855
19943,5911852,6222544,5936103,6230818,3800,3129,327,-695,259,1054,-617,4415,90,49,861
20943,5912452,6222800,5936300,6231015,3800,3255,357,-773,294,879,-392,3921,90,49,861
21944,5913092,6223048,5936497,6231212,3800,3283,449,-456,277,1097,-373,5833,113,47,862
22946,5913692,6223264,5936694,6231409,3800,3477,513,-81,220,1936,-818,5732,112,41,864
23947,5914224,6223460,5936891,6231606,3800,3604,525,390,161,2093,-750,5480,112,41,864
24948,5914844,6223632,5937088,6231803,3800,3766,460,526,149,1190,-1286,4488,138,46,861
25961,5915460,6223800,5937285,6232000,3800,3800,473,390,126,222,-2001,4809,138,46,861
26962,5916080,6223940,5937482,6232197,3800,3800,662,361,73,665,-546,7512,144,46,859
27963,5916728,6224092,5937679,6232394,3800,3800,697,223,-45,1546,14,4485,144,46,859
28965,5917312,6224192,5937876,6232591,3800,3800,606,285,-251,1496,837,6134,118,38,859
29965,5917904,6224304,5938073,6232788,3800,3800,573,262,-472,-596,-436,6353,118,38,859
30966,5918492,6224388,5938270,6232985,3800,3800,654,144,-696,-1039,-150,5980,130,29,857
31967,5919056,6224432,5938467,6233182,3800,3800,682,14,-872,545,-175,5882,130,29,857
32968,5919604,6224472,5938664,6233379,3800,3800,655,294,-1046,1608,-438,6937,122,24,857
33969,5920188,6224512,5938861,6233576,3800,3800,667,675,-1213,704,946,6347,122,24,857
34970,5920712,6224544,5939058,6233773,3800,3800,841,903,-1354,220,1377,5558,100,11,855
35971,5921236,6224560,5939255,6233970,3800,3800,1061,980,-1424,1064,174,5687,100,11,855
36972,5921812,6224568,5939452,6234167,3800,3800,1266,1053,-1425,1689,-24,4426,111,19,855
37973,5922344,6224572,5939649,6234364,3800,3800,1387,1149,-1482,2291,1466,5145,111,19,855
38974,5922860,6224600,5939846,6234561,3800,3800,1554,1426,-1610,2036,1601,5416,122,8,855
39975,5923464,6224616,5940043,6234758,3800,3800,1685,1811,-1783,2183,963,5803,122,8,855
40976,5924004,6224624,5940240,6234955,3800,3800,1745,2300,-2005,2760,617,5926,115,8,855
41977,5924540,6224620,5940437,6235152,3800,3800,1770,2615,-2254,2921,1068,4839,115,8,855
42978,5925156,6224664,5940634,6235349,3800,3800,1773,2655,-2424,2109,675,4461,104,19,853
43979,5925732,6224688,5940831,6235546,3800,3800,1812,2634,-2552,1627,233,5675,104,19,853
44980,5926276,6224696,5941028,6235743,3800,3800,1778,2353,-2587,-448,332,3135,124,7,855
45981,5926856,6224720,5941225,6235940,3800,3800,1649,1831,-2615,-202,308,3252,124,7,855
46969,5927528,6224716,5941422,6236137,3277,3800,1578,1492,-2677,313,-972,5645,131,15,854
47970,5928128,6224740,5941619,6236334,3553,3800,1414,1130,-2818,448,-402,2932,131,15,854
48972,5928732,6224756,5941816,6236531,3351,3800,1114,585,-2860,-900,-1673,2461,111,2,859
49973,5929428,6224764,5942013,6236728,2560,3800,826,147,-2852,-549,-2906,3658,111,2,859
50974,5930072,6224792,5942210,6236925,2691,3800,528,-430,-2952,803,-3733,1843,120,5,859
51974,5930736,6224828,5942407,6237122,2362,3800,204,-944,-2995,208,-3427,2761,120,5,859
52975,5931464,6224872,5942604,6237319,1732,3800,-135,-1309,-2996,-315,-3996,2871,146,10,862
53976,5932152,6224916,5942801,6237516,1768,3800,-530,-1621,-2989,-800,-1719,2700,146,10,862
54977,5932836,6224992,5942998,6237713,1581,3800,-884,-1794,-2902,-1358,-2286,3481,123,25,866
55978,5933572,6225044,5943195,6237910,1021,3800,-1129,-1839,-2971,487,-1941,3841,123,25,866
56980,5934236,6225148,5943392,6238107,1268,3800,-1360,-1933,-3039,-192,-1696,3257,124,18,866
57981,5934860,6225252,5943589,6238304,1331,3800,-1464,-2235,-3005,-1410,-1078,2575,124,18,866
58982,5935616,6225400,5943786,6238501,263,3800,-1592,-2693,-2945,-626,-1289,2507,129,25,867
59982,5936300,6225544,5943983,6238698,501,3800,-1674,-2871,-2784,-1311,-918,2906,129,25,867
60984,5936988,6225720,5944180,6238895,261,3800,-1757,-2907,-2575,-868,-737,3561,135,32,871
61985,5937680,6225904,5944377,6239092,20,3800,-1837,-3163,-2341,-1111,-645,1220,135,32,871
62986,5938348,6226116,5944574,6239289,-35,3800,-1859,-3629,-2089,-1107,-297,2116,137,49,873
63986,5938940,6226372,5944771,6239486,267,3800,-1794,-4183,-1910,-1209,-1174,1738,137,49,873
64988,5939524,6226640,5944968,6239683,148,3800,-1649,-4831,-1812,-1723,-310,875,119,50,873
65989,5940144,6226904,5945165,6239880,-262,3800,-1583,-5623,-1716,-2021,-266,89,119,50,873
66990,5940632,6227184,5945362,6240077,436,3800,-1486,-5974,-1651,-1381,313,1700,105,54,874
67991,5941156,6227488,5945559,6240274,68,3800,-1490,-6277,-1464,-2954,-879,-281,105,54,874
68992,5941708,6227792,5945756,6240471,-262,3800,-1493,-6415,-1113,-3816,-2001,371,107,66,873
69993,5942148,6228140,5945953,6240668,333,3800,-1256,-5936,-977,-951,-1146,5105,107,66,873
70993,5942580,6228476,5946150,6240865,279,3800,-1135,-5553,-1077,-206,-1365,474,80,60,874
71994,5943000,6228768,5946347,6241062,257,3800,-1041,-5323,-1054,-1441,3062,1664,80,60,874
72996,5943384,6229076,5946544,6241259,401,3800,-817,-5204,-905,-911,1649,3338,77,58,874
73997,5943716,6229408,5946741,6241456,667,3800,-631,-5420,-787,38,-3600,89,77,58,874
74997,5944064,6229736,5946938,6241653,501,3800,-411,-5579,-716,-56,34,2204,64,60,874
75998,5944316,6230040,5947135,6241850,1077,3800,-274,-5719,-580,-940,1943,637,64,60,874
76999,5944576,6230312,5947332,6242047,1001,3800,-229,-5700,-350,-1124,398,1155,46,60,873
78000,5944832,6230624,5947529,6242244,1000,3800,-112,-5512,-144,-99,-679,3211,46,60,873
79001,5945064,6230936,5947726,6242441,1135,3800,75,-5263,-14,432,-949,2397,44,55,870
80002,5945272,6231228,5947923,6242638,1280,3800,392,-5131,267,-1253,292,3737,44,55,870
81003,5945460,6231552,5948120,6242835,1410,3800,816,-4868,718,-1542,194,5082,54,55,868
82005,5945636,6231856,5948317,6243032,1495,3800,1064,-4973,1042,1183,-311,1286,54,55,868
83005,5945792,6232132,5948514,6243229,1639,3800,1066,-5519,766,7960,-283,-648,50,55,869
84006,5945940,6232388,5948711,6243426,1710,3800,1249,-5409,571,4753,845,6106,50,55,869
85007,5946100,6232620,5948908,6243623,1652,3800,1567,-4951,845,1900,-59,5088,24,47,868
86008,5946224,6232880,5949105,6243820,1910,3800,1810,-4378,1132,4357,224,4872,24,47,868
87009,5946324,6233140,5949302,6244017,2103,3800,2009,-3853,1272,4831,777,5654,39,55,867
88010,5946456,6233392,5949499,6244214,1933,3800,2115,-3247,1532,2898,174,5973,39,55,867
89011,5946604,6233640,5949696,6244411,1854,3800,2145,-2749,1906,2900,657,5050,21,58,865
90013,5946744,6233864,5949893,6244608,1930,3800,2109,-2266,2222,3618,613,5488,21,58,865
91014,5946880,6234088,5950090,6244805,1982,3800,2052,-1638,2479,3061,754,6287,23,48,864
92014,5947020,6234332,5950287,6245002,1983,3800,1943,-916,2735,3154,-1253,6141,23,48,864
93016,5947144,6234576,5950484,6245199,2116,3800,1857,-114,2801,3974,-674,6882,20,50,865
94023,5947260,6234808,5950714,6245626,2216,3800,1809,485,2902,1752,578,6694,20,50,865
95018,5947396,6235024,5950911,6245823,2119,3800,1789,837,3023,1732,984,6233,28,50,864
96018,5947512,6235244,5951108,6246020,2281,3800,1815,1037,2988,1732,969,7219,28,50,864
97019,5947648,6235444,5951305,6246217,2183,3800,1823,1206,2904,1523,225,7859,29,35,864
98021,5947804,6235656,5951502,6246414,2077,3800,1663,1355,2809,1693,738,7111,29,35,864
99021,5947928,6235852,5951699,6246611,2310,3800,1302,1276,2589,359,1431,5496,20,33,864
100022,5948068,6236024,5951896,6246808,2235,3800,863,1218,2379,-403,611,7573,20,33,864
101023,5948196,6236176,5952093,6247005,2341,3800,515,1162,2128,210,-208,8485,38,23,862
102024,5948304,6236328,5952290,6247202,2506,3800,113,948,1870,340,-755,6586,38,23,862
103025,5948420,6236460,5952487,6247399,2493,3800,-294,771,1678,-480,749,6783,21,35,860
104026,5948548,6236592,5952684,6247596,2448,3800,-580,358,1595,-1380,-862,5604,21,35,860
105027,5948672,6236692,5952881,6247793,2506,3800,-675,-565,1494,-99,-2683,4638,32,15,859
106029,5948804,6236776,5953078,6247990,2486,3800,-671,-1616,1338,832,-2590,5073,32,15,859
107030,5948916,6236880,5953275,6248187,2649,3800,-760,-2282,1231,716,-2373,4903,17,28,860
108030,5949052,6236964,5953472,6248384,2527,3800,-882,-2287,1133,820,-1282,6473,17,28,860
109031,5949196,6237056,5953669,6248581,2500,3800,-1043,-2030,1041,377,-228,5463,21,26,859
110032,5949332,6237164,5953866,6248778,2578,3800,-1243,-1845,962,730,16,4784,21,26,859
111033,5949452,6237280,5954063,6248975,2713,3800,-1486,-1398,969,1016,-180,6726,24,13,861
112034,5949556,6237400,5954260,6249172,2855,3800,-1792,-822,998,797,78,6388,24,13,861
113035,5949688,6237496,5954457,6249369,2709,3800,-2083,-492,987,391,298,5785,35,27,858
114037,5949780,6237636,5954654,6249566,3006,3800,-2180,-628,875,265,45,5371,35,27,858
115037,5949876,6237752,5954851,6249763,3027,3800,-2057,-1132,734,-204,-571,4803,15,15,860
116038,5950000,6237876,5955048,6249960,2885,3800,-1840,-1753,671,-370,-373,4540,15,15,860
117039,5950092,6237992,5955245,6250157,3132,3800,-1644,-2288,672,54,-234,4000,19,31,857
118041,5950220,6238108,5955442,6250354,2938,3800,-1535,-2736,568,1140,-292,3133,19,31,857
119041,5950376,6238252,5955639,6250551,2782,3800,-1427,-2907,458,171,-276,3928,38,35,856
120042,5950564,6238372,5955836,6250748,2587,3800,-1388,-3101,414,-534,-943,2038,38,35,856
121043,5950760,6238504,5956033,6250945,2539,3800,-1410,-3264,391,-156,-1309,2514,29,34,859
122044,5950936,6238680,5956230,6251142,2674,3800,-1454,-3143,498,-1813,-1147,3067,29,34,859
123046,5951124,6238828,5956427,6251339,2604,3800,-1502,-3050,592,-1223,-238,1791,49,27,860
124047,5951320,6238992,5956624,6251536,2555,3800,-1508,-2975,564,-214,109,2634,49,27,860
125048,5951500,6239164,5956821,6251733,2664,3800,-1483,-3026,478,118,-825,1470,39,28,859
126048,5951732,6239348,5957018,6251930,2324,3800,-1368,-3049,359,1155,172,2534,39,28,859
127050,5951988,6239504,5957215,6252127,2150,3800,-1178,-3115,267,1010,-180,1814,44,43,861
128050,5952200,6239716,5957412,6252324,2419,3800,-899,-3241,225,866,-532,2518,44,43,861
129052,5952436,6239920,5957609,6252521,2253,3800,-557,-3221,253,844,-1130,3907,46,48,864
130053,5952648,6240148,5957806,6252718,2397,3800,-222,-3205,309,925,-1257,2936,46,48,864
131054,5952832,6240408,5958003,6252915,2579,3800,64,-3380,324,1349,264,2543,36,46,862
132055,5953104,6240644,5958200,6253112,1997,3800,305,-3616,310,1492,838,1860,36,46,862
133056,5953336,6240900,5958397,6253309,2233,3800,467,-3883,334,1140,789,1629,56,47,861
134057,5953560,6241140,5958594,6253506,2272,3800,580,-3898,429,431,289,2438,56,47,861
135058,5953808,6241424,5958791,6253703,2100,3800,605,-3821,508,518,-897,2131,44,62,864
136058,5954040,6241792,5958988,6253900,2185,3800,567,-3580,477,1649,-3437,2604,44,62,864
137060,5954280,6242112,5959185,6254097,2117,3800,555,-3027,412,1568,-4736,4085,57,59,865
138060,5954512,6242448,5959382,6254294,2153,3800,646,-2141,414,106,80,5728,57,59,865
139062,5954776,6242864,5959579,6254491,1924,3800,501,-2003,452,488,683,-649,44,83,865
140063,5955024,6243296,5959776,6254688,2003,3800,175,-2117,520,1254,-733,826,44,83,865
141051,5955232,6243744,5959973,6254885,2249,3599,95,-1495,600,767,-278,6437,62,81,867
142052,5955480,6244304,5960170,6255082,1978,2742,116,-829,637,565,-668,3505,62,81,867
143053,5955736,6244836,5960367,6255279,1903,2772,-33,-642,527,1705,-293,458,46,101,867
144054,5956016,6245272,5960564,6255476,1717,3269,-242,-400,681,2246,-549,3655,46,101,867
145055,5956272,6245848,5960761,6255673,1842,2229,-416,36,839,1230,442,2877,58,100,874
146056,5956532,6246360,5960958,6255870,1790,2493,-622,-25,893,924,-891,-625,58,100,874
147057,5956756,6246980,5961155,6256067,2004,1634,-669,131,859,1905,-741,3755,60,113,878
148058,5957004,6247524,5961352,6256264,1832,1957,-440,740,840,751,333,5024,60,113,878
149059,5957268,6248052,5961549,6256461,1704,1914,-394,777,810,1780,569,-1110,44,102,881
150060,5957552,6248676,5961746,6256658,1542,1128,-508,558,766,2016,129,-25,44,102,881
151061,5957828,6249204,5961943,6256855,1558,1584,-504,1086,949,-431,-915,5206,47,100,881
152062,5958084,6249792,5962140,6257052,1657,1039,-418,1772,1023,1682,-3062,2197,47,100,881
153063,5958304,6250392,5962337,6257249,1873,788,-240,2113,810,2689,-196,3347,46,106,884
154064,5958564,6250888,5962534,6257446,1596,1307,-123,2170,690,827,-280,1306,46,106,884
155065,5958844,6251452,5962731,6257643,1436,723,-175,1970,674,2048,-148,319,54,90,885
156066,5959132,6251996,5962928,6257840,1346,697,-117,2038,722,1659,-376,2344,54,90,885
157067,5959392,6252524,5963125,6258037,1494,652,-21,2166,785,1246,-1611,1461,45,111,886
158068,5959660,6253132,5963322,6258234,1414,-27,156,2369,843,1696,-799,2047,45,111,886
159069,5959888,6253580,5963519,6258431,1651,863,220,2414,842,1742,-733,920,55,92,887
160070,5960200,6254080,5963716,6258628,1076,406,257,2501,773,1517,-648,1302,55,92,887
161071,5960520,6254576,5963913,6258825,973,301,274,2722,753,795,-922,1998,53,97,887
162072,5960808,6254996,5964110,6259022,1134,679,247,2810,671,1826,-1178,128,53,97,887
163073,5961060,6255448,5964307,6259219,1334,367,298,2924,613,1354,-372,1664,51,94,891
164074,5961372,6255928,5964504,6259416,910,68,357,3115,615,1105,-1262,1664,51,94,891
165075,5961664,6256256,5964701,6259613,993,962,411,3241,542,2301,-1072,476,53,82,890
166076,5961952,6256612,5964898,6259810,979,717,526,3272,566,879,-832,1017,53,82,890
167077,5962252,6256972,5965095,6260007,860,621,630,3322,692,643,-945,994,63,69,889
168078,5962528,6257324,5965292,6260204,975,604,684,3383,737,1550,-887,258,63,69,889
169079,5962800,6257624,5965489,6260401,968,884,644,3472,705,1072,-1910,650,57,70,889
170080,5963112,6257964,5965686,6260598,668,572,592,3733,636,-327,-1640,2185,57,70,889
171081,5963364,6258312,5965883,6260795,1019,456,574,4014,614,-685,-1236,2267,56,51,889
172082,5963640,6258636,5966080,6260992,835,551,539,4105,551,-191,-1054,1757,56,51,889
173083,5963932,6258896,5966277,6261189,694,923,603,4039,597,-946,-2006,3160,51,45,891
174084,5964156,6259100,5966474,6261386,1107,1270,778,3966,631,-183,-435,3917,51,45,891
175085,5964392,6259376,5966671,6261583,1015,786,846,3540,665,-857,-687,1087,41,57,890
176086,5964632,6259648,5966868,6261780,972,778,851,2899,807,-2403,-650,1495,41,57,890
177094,5964880,6259936,5967098,6262010,914,654,956,2424,904,-1047,-1332,3741,53,46,889
178088,5965088,6260172,5967295,6262207,1160,962,992,2160,931,-641,-2559,3220,53,46,889
179089,5965340,6260384,5967492,6262404,861,1106,901,2383,945,-1155,-1131,4513,42,47,889
180090,5965576,6260612,5967689,6262601,945,993,671,2909,928,-1312,-87,5250,42,47,889
181091,5965772,6260856,5967886,6262798,1196,872,459,3393,763,-1266,1586,5303,53,44,889
182092,5965992,6261092,5968083,6262995,1035,906,360,2897,439,-1602,217,3269,53,44,889
183093,5966208,6261300,5968280,6263192,1053,1076,459,2115,30,-1563,-1462,6144,47,34,888
184094,5966412,6261484,5968477,6263389,1125,1232,657,1143,-452,-1788,1613,5595,47,34,888
185095,5966632,6261640,5968674,6263586,1016,1426,870,-144,-859,-3122,288,4226,34,34,888
186095,5966860,6261808,5968871,6263783,952,1363,1007,-984,-1198,-2180,-480,6976,34,34,888
187097,5967088,6261908,5969068,6263980,939,1831,951,-1114,-1551,-1603,3212,6092,52,22,886
188098,5967296,6262040,5969265,6264177,1060,1661,825,-1300,-1832,-2293,2239,4645,52,22,886
189099,5967508,6262184,5969462,6264374,1028,1609,880,-1693,-2051,-1570,312,6413,49,30,884
190100,5967712,6262348,5969659,6264571,1075,1499,999,-2258,-2161,-1305,935,5420,49,30,884
191101,5967880,6262516,5969856,6264768,1314,1487,1037,-2978,-2191,-160,873,4877,45,35,884
192102,5968084,6262652,5970053,6264965,1086,1715,929,-3379,-2226,1655,256,5641,45,35,884
193103,5968276,6262784,5970250,6265162,1164,1769,653,-3504,-2240,1961,458,4637,41,16,884
194104,5968444,6262900,5970447,6265359,1327,1904,369,-3140,-2109,1163,593,7264,41,16,884
195105,5968608,6263000,5970644,6265556,1366,2048,-19,-2506,-1921,2092,539,6440,23,30,883
196106,5968768,6263124,5970841,6265753,1408,1930,-539,-1825,-1682,3060,488,6737,23,30,883
197107,5968920,6263244,5971038,6265950,1478,1990,-964,-1462,-1363,2939,-549,6795,38,28,881
198108,5969084,6263356,5971235,6266147,1418,2077,-1230,-1496,-969,2584,-1176,6660,38,28,881
199109,5969280,6263476,5971432,6266344,1219,2062,-1388,-1704,-510,2355,-981,6532,37,24,881
200110,5969428,6263584,5971629,6266541,1541,2176,-1484,-1919,-32,1952,883,6427,37,24,881
201111,5969572,6263692,5971826,6266738,1590,2216,-1500,-2164,357,3100,-47,6030,32,18,879
202112,5969720,6263808,5972023,6266935,1587,2203,-1405,-2219,686,4845,-2436,7942,32,18,879
203113,5969868,6263892,5972220,6267132,1609,2452,-1248,-2186,935,5690,-2208,7638,24,25,876
204114,5969992,6263996,5972417,6267329,1791,2369,-1117,-2146,1034,6428,-1297,7079,24,25,876
205115,5970144,6264100,5972614,6267526,1636,2410,-1065,-2112,1126,5469,-1505,6875,40,15,877
206116,5970320,6264220,5972811,6267723,1496,2345,-1059,-2098,1378,3466,-1505,6434,40,15,877
207117,5970464,6264320,5973008,6267920,1719,2514,-1027,-2225,1704,3170,-1294,5724,20,18,877
208117,5970652,6264440,5973205,6268117,1449,2422,-974,-2432,2018,3187,-1455,5096,20,18,877
209119,5970800,6264564,5973402,6268314,1721,2430,-909,-2537,2283,2925,-1677,5780,19,21,876
210120,5970956,6264680,5973599,6268511,1690,2517,-760,-2471,2471,3371,-2051,6344,19,21,876
211121,5971100,6264784,5973796,6268708,1788,2634,-465,-2317,2576,3778,-1497,6925,27,24,875
212122,5971240,6264920,5973993,6268905,1839,2461,-104,-1997,2628,3843,-2117,7413,27,24,875
213123,5971384,6265084,5974190,6269102,1838,2301,193,-1584,2715,2571,-2238,6708,26,34,874
214124,5971540,6265212,5974387,6269299,1782,2558,386,-1042,2779,2505,-1201,6409,26,34,874
215125,5971720,6265340,5974584,6269496,1640,2589,524,-341,2917,1618,-2013,6635,37,29,876
216125,5971896,6265496,5974781,6269693,1674,2432,701,341,3039,1383,-1406,6721,37,29,876
217127,5972084,6265612,5974978,6269890,1604,2718,902,879,3018,1582,-1434,6636,45,34,875
218128,5972264,6265752,5975175,6270087,1662,2595,1069,1392,2926,1312,-1552,6533,45,34,875
219129,5972444,6265928,5975372,6270284,1670,2380,1175,1884,2685,1679,-1076,5753,44,36,875
220129,5972620,6266064,5975569,6270481,1704,2658,1282,2374,2347,1110,-1238,5722,44,36,875
221131,5972816,6266188,5975766,6270678,1581,2766,1401,2748,2036,576,-1574,5668,25,36,876
222132,5972996,6266332,5975963,6270875,1688,2664,1358,2788,1657,888,-427,3593,25,36,876
223133,5973172,6266524,5976160,6271072,1724,2367,854,1325,1310,-372,1415,-5634,44,30,873
224134,5973392,6266732,5976357,6271269,1439,2263,493,-269,1100,192,1312,1299,44,30,873
225135,5973592,6266964,5976554,6271466,1563,2099,636,-789,951,784,392,6951,36,34,875
226136,5973748,6267168,5976751,6271663,1857,2272,559,-1194,728,589,2780,-738,36,34,875
227137,5973980,6267388,5976948,6271860,1367,2163,94,-1470,406,1774,3011,798,33,53,879
228138,5974160,6267604,5977145,6272057,1700,2180,-304,-1083,136,1775,-529,4374,33,53,879
229139,5974352,6267888,5977342,6272254,1627,1717,-466,-103,115,1248,-941,5668,52,60,879
230140,5974552,6268172,5977539,6272451,1577,1680,-399,853,279,1870,-678,6098,52,60,879
231141,5974772,6268440,5977736,6272648,1443,1750,-291,1538,443,2136,-1266,5402,50,59,881
232141,5974988,6268732,5977933,6272845,1460,1559,-325,1217,576,664,-329,282,50,59,881
233143,5975160,6269028,5978130,6273042,1747,1491,-364,83,665,427,383,-52,31,64,881
234144,5975412,6269316,5978327,6273239,1223,1501,-197,-929,604,1659,-64,3196,31,64,881
235145,5975600,6269584,5978524,6273436,1627,1596,-19,-1616,449,1676,293,2523,30,51,880
236145,5975808,6269844,5978721,6273633,1498,1620,-3,-2072,317,752,292,2506,30,51,880
237147,5976008,6270092,5978918,6273830,1547,1673,-122,-2248,231,-69,632,3515,45,46,883
238148,5976200,6270340,5979115,6274027,1600,1651,-368,-2058,185,-456,910,3563,45,46,883
239149,5976380,6270600,5979312,6274224,1683,1549,-639,-1734,95,51,2303,3769,35,48,882
240150,5976564,6270844,5979509,6274421,1665,1629,-883,-1428,-30,-518,531,3620,35,48,882
241151,5976748,6271128,5979706,6274618,1670,1341,-1085,-1114,-290,688,1906,3756,35,59,882
242152,5976928,6271360,5979903,6274815,1704,1652,-1253,-872,-623,1251,2621,3492,35,59,882
243153,5977136,6271576,5980100,6275012,1524,1744,-1338,-764,-863,916,1147,3248,36,36,882
244154,5977296,6271828,5980297,6275209,1841,1495,-1259,-847,-1051,1043,1611,3563,36,36,882
245155,5977460,6272036,5980494,6275406,1831,1766,-1054,-919,-1229,1304,1586,3913,45,32,880
246156,5977612,6272232,5980691,6275603,1927,1843,-821,-996,-1293,1310,261,3747,45,32,880
247157,5977800,6272444,5980888,6275800,1707,1736,-669,-1156,-1108,787,-541,3407,38,28,879
248158,5977940,6272616,5981085,6275997,2032,1998,-570,-1531,-727,975,-547,2583,38,28,879
249159,5978104,6272764,5981282,6276194,1897,2171,-472,-2028,-233,1122,-1364,2317,21,41,879
250160,5978272,6272924,5981479,6276391,1885,2112,-405,-2409,155,2442,-855,2025,21,41,879
251161,5978416,6273096,5981676,6276588,2059,2049,-354,-2598,322,3213,402,2795,43,40,877
252161,5978588,6273252,5981873,6276785,1896,2168,-318,-2453,405,2724,-201,4023,43,40,877
253162,5978756,6273416,5982070,6276982,1934,2133,-281,-2109,511,1951,-260,4362,35,21,877
254164,5978908,6273584,5982267,6277179,2055,2121,-258,-1680,653,1187,756,4893,35,21,877
255165,5979028,6273772,5982464,6277376,2288,2001,-317,-1254,778,1207,-296,4060,20,22,876
256166,5979172,6273928,5982661,6277573,2163,2219,-439,-824,845,1930,1268,4555,20,22,876
257167,5979312,6274100,5982858,6277770,2214,2131,-625,-264,892,1983,-235,4214,29,38,874
258168,5979436,6274260,5983055,6277967,2346,2224,-782,317,946,1688,609,4605,29,38,874
259169,5979592,6274452,5983252,6278164,2165,2026,-848,949,1078,748,-933,4818,20,45,874
260179,5979692,6274660,5983482,6278394,2573,1936,-807,1439,1209,504,-599,4816,20,45,874
261171,5979824,6274868,5983679,6278591,2403,1933,-784,1894,1292,501,-864,4220,28,37,876
262172,5980012,6275088,5983876,6278788,2057,1848,-834,2255,1293,833,-1385,3242,28,37,876
263173,5980212,6275328,5984073,6278985,1981,1705,-865,2668,1344,219,-1027,3625,42,39,875
264174,5980384,6275560,5984270,6279182,2168,1740,-885,2993,1380,529,-1520,2989,42,39,875
265175,5980552,6275800,5984467,6279379,2206,1672,-853,3145,1318,1041,-999,3251,51,40,879
266176,5980752,6276076,5984664,6279576,2006,1413,-775,3252,1281,87,-1761,3776,51,40,879
267177,5980924,6276336,5984861,6279773,2193,1486,-724,3240,1304,-653,-2308,3190,49,60,877
268178,5981108,6276644,5985058,6279970,2124,1138,-765,3187,1283,-45,-1190,2952,49,60,877
269179,5981288,6276992,5985255,6280167,2157,822,-830,3239,1324,-989,-1574,3561,32,57,879
270180,5981464,6277204,5985452,6280364,2192,1666,-859,3308,1416,-892,-2008,3621,32,57,879
271181,5981648,6277392,5985649,6280561,2149,1820,-886,3371,1375,284,-988,3448,42,44,881
272182,5981844,6277596,5985846,6280758,2075,1718,-906,3388,1270,-255,-1480,3431,42,44,881
273183,5982004,6277824,5986043,6280955,2316,1555,-857,3430,1177,93,1592,4713,48,34,878
274184,5982168,6278092,5986240,6281152,2307,1274,-774,3622,1105,851,2732,4901,48,34,878
275185,5982352,6278348,5986437,6281349,2189,1324,-800,3811,1159,-922,-1243,3812,29,48,878
276186,5982512,6278632,5986634,6281546,2356,1111,-838,3978,1144,-450,1146,4491,29,48,878
277187,5982704,6278832,5986831,6281743,2159,1636,-770,4544,1112,-387,224,5899,30,66,879
278188,5982884,6279120,5987028,6281940,2242,1047,-741,4667,1229,-842,-1526,4705,30,66,879
279189,5983056,6279416,5987225,6282137,2304,953,-778,4288,1423,-1753,-2434,2418,31,67,878
280190,5983228,6279696,5987422,6282334,2316,1018,-867,2819,1605,-1905,-1926,-1761,31,67,878
281191,5983408,6279948,5987619,6282531,2274,1169,-541,1493,1810,-1969,-2103,5961,29,63,880
282192,5983604,6280224,5987816,6282728,2175,985,58,509,1986,-2427,-3347,6886,29,63,880
283193,5983756,6280472,5988013,6282925,2470,1137,414,-683,1936,-1208,-2682,2977,28,44,880
284194,5983940,6280704,5988210,6283122,2277,1222,583,-1584,1599,474,-2033,6149,28,44,880
285195,5984108,6280908,5988407,6283319,2391,1395,567,-1700,1082,-143,-1412,7163,41,46,881
286196,5984284,6281088,5988604,6283516,2351,1552,254,-1226,599,-2526,-234,6280,41,46,881
287197,5984436,6281288,5988801,6283713,2522,1427,-240,-532,209,-2663,-241,6342,41,48,880
288198,5984628,6281468,5988998,6283910,2274,1560,-635,254,-150,-3121,-1272,7853,41,48,880
289199,5984792,6281668,5989195,6284107,2464,1434,-769,593,-494,-2762,-885,7169,44,41,876
290200,5984960,6281840,5989392,6284304,2453,1620,-626,140,-867,-1621,-930,6284,44,41,876
291201,5985104,6282036,5989589,6284501,2627,1472,-281,-779,-1152,-1086,-1770,6436,21,29,877
292202,5985264,6282220,5989786,6284698,2545,1552,80,-1667,-1311,-83,-1447,6215,21,29,877
293203,5985408,6282428,5989983,6284895,2669,1399,253,-2071,-1470,1425,-354,6071,38,34,876
294204,5985580,6282652,5990180,6285092,2506,1287,212,-1883,-1587,1572,-679,5900,38,34,876
295205,5985704,6282908,5990377,6285289,2838,1062,85,-1225,-1625,1412,-465,6002,31,55,876
296206,5985848,6283216,5990574,6285486,2737,688,-57,-535,-1575,1192,-1404,4477,31,55,876
297207,5986020,6283452,5990771,6285683,2574,1121,-168,-64,-1473,1415,-1835,3846,36,53,877
298207,5986192,6283656,5990968,6285880,2586,1319,-201,178,-1399,2140,-1607,3612,36,53,877
299209,5986360,6283848,5991165,6286077,2625,1396,-110,190,-1366,2459,-1568,3506,29,52,879
300209,5986528,6284068,5991362,6286274,2639,1212,53,33,-1289,2070,-2102,3110,29,52,879
301211,5986728,6284292,5991559,6286471,2438,1175,307,-126,-1214,1766,-1902,3983,30,40,877
302211,5986892,6284520,5991756,6286668,2679,1137,551,-284,-1164,88,-723,3868,30,40,877
303213,5987056,6284692,5991953,6286865,2695,1498,603,-500,-1167,-1372,-263,2838,44,35,877
304213,5987252,6284836,5992150,6287062,2496,1697,560,-421,-1268,-686,-97,5350,44,35,877
305215,5987420,6284992,5992347,6287259,2685,1641,471,-105,-1519,-448,768,5375,26,26,877
306216,5987592,6285132,5992544,6287456,2672,1766,296,9,-1724,-1358,589,4046,26,26,877
307217,5987788,6285272,5992741,6287653,2522,1792,192,65,-1940,135,-69,5824,46,26,876
308218,5987960,6285436,5992938,6287850,2684,1656,187,34,-2212,2033,-652,4932,46,26,876
309219,5988148,6285600,5993135,6288047,2589,1672,226,-218,-2333,1097,-539,3858,50,24,874
310219,5988356,6285752,5993332,6288244,2460,1767,291,-512,-2275,907,-1404,3774,50,24,874
311221,5988568,6285904,5993529,6288441,2430,1787,375,-602,-2162,1273,-1233,3982,36,35,874
312222,5988764,6286048,5993726,6288638,2531,1861,386,-498,-2027,877,-1109,2936,36,35,874
313223,5988984,6286180,5993923,6288835,2372,1965,381,-276,-1935,1198,-973,3418,51,34,875
314223,5989188,6286284,5994120,6289032,2470,2181,382,42,-1880,847,-819,3676,51,34,875
315225,5989392,6286384,5994317,6289229,2468,2250,344,284,-1811,546,-1187,2646,47,25,874
316225,5989624,6286472,5994514,6289426,2278,2373,331,458,-1725,456,-904,3718,47,25,874
317227,5989868,6286568,5994711,6289623,2184,2368,340,419,-1712,582,-807,2881,57,14,873
318227,5990120,6286656,5994908,6289820,2111,2466,354,205,-1865,761,-394,3353,57,14,873
319229,5990348,6286752,5995105,6290017,2248,2461,371,124,-2002,-310,-925,4945,50,17,872
320230,5990592,6286868,5995302,6290214,2128,2372,336,-28,-2104,28,-606,3584,50,17,872
321231,5990844,6286992,5995499,6290411,2055,2355,244,-277,-2123,-281,-661,3448,47,28,874
322232,5991060,6287124,5995696,6290608,2272,2335,177,-477,-2140,638,-137,4125,47,28,874
323233,5991344,6287260,5995893,6290805,1810,2336,126,-572,-2156,814,-284,3864,38,29,873
324234,5991600,6287400,5996090,6291002,1960,2337,97,-612,-2125,210,-366,4267,38,29,873
325235,5991876,6287528,5996287,6291199,1801,2444,64,-571,-2051,48,-290,4084,60,35,874
326236,5992160,6287652,5996484,6291396,1714,2501,-44,-677,-1975,118,180,2623,60,35,874
327237,5992444,6287744,5996681,6291593,1676,2748,-139,-706,-1975,750,-610,3745,65,25,876
328238,5992716,6287856,5996878,6291790,1720,2661,-124,-639,-1974,49,-942,4533,65,25,876
329239,5993012,6287956,5997075,6291987,1526,2780,-96,-799,-1966,-55,-685,2576,69,27,876
330240,5993292,6288092,5997272,6292184,1591,2582,-35,-1098,-1984,573,-373,3038,69,27,876
331241,5993588,6288204,5997469,6292381,1448,2770,48,-1336,-1945,10,-924,3625,53,17,875
332242,5993904,6288336,5997666,6292578,1272,2675,126,-1523,-1880,-22,-250,2850,53,17,875
333243,5994176,6288444,5997863,6292775,1514,2865,156,-1713,-1818,165,88,2282,47,23,874
334244,5994452,6288572,5998060,6292972,1455,2771,155,-1757,-1719,-225,47,2971,47,23,874
335245,5994716,6288704,5998257,6293169,1502,2775,155,-1764,-1597,-374,-529,2583,63,16,876
336246,5995020,6288824,5998454,6293366,1205,2884,190,-1760,-1527,70,-271,2752,63,16,876
337247,5995316,6288948,5998651,6293563,1212,2893,238,-1861,-1516,239,-164,2538,68,28,875
338248,5995580,6289056,5998848,6293760,1384,3033,299,-2024,-1552,338,-77,2300,68,28,875
339249,5995856,6289176,5999045,6293957,1274,2993,362,-2198,-1595,-107,147,2702,44,36,875
340250,5996128,6289316,5999242,6294154,1267,2894,403,-2355,-1673,134,129,2512,44,36,875
341251,5996400,6289464,5999439,6294351,1234,2866,410,-2478,-1721,219,497,2444,64,34,874
342251,5996676,6289580,5999636,6294548,1175,3103,381,-2570,-1680,-67,472,2401,64,34,874
343259,5996924,6289716,5999866,6294778,1343,3020,343,-2619,-1598,253,148,2884,57,21,875
344253,5997196,6289828,6000063,6294975,1160,3208,337,-2687,-1495,269,520,2700,57,21,875
345255,5997452,6289972,6000260,6295172,1235,3033,315,-2816,-1395,355,327,2179,39,16,872
346256,5997712,6290108,6000457,6295369,1183,3110,300,-2805,-1309,801,2,3153,39,16,872
347257,5997940,6290236,6000654,6295566,1370,3192,292,-2778,-1261,962,416,2656,53,34,873
348257,5998200,6290356,6000851,6295763,1142,3277,245,-2815,-1228,1038,720,2348,53,34,873
349259,5998436,6290476,6001048,6295960,1276,3311,218,-2790,-1165,890,215,3209,46,22,873
350259,5998644,6290612,6001245,6296157,1447,3239,233,-2804,-1071,500,270,3257,46,22,873
351260,5998904,6290776,6001442,6296354,1095,3080,221,-2956,-966,309,480,2571,58,38,872
352262,5999148,6290960,6001639,6296551,1174,2961,199,-3135,-919,1077,420,3081,58,38,872
353263,5999364,6291096,6001836,6296748,1342,3289,206,-3116,-905,922,839,4376,41,39,872
354264,5999608,6291268,6002033,6296945,1146,3076,166,-3301,-811,-167,773,2526,41,39,872
355265,5999860,6291452,6002230,6297142,1073,3008,84,-3472,-718,18,1241,3356,56,45,873
356266,6000088,6291620,6002427,6297339,1209,3122,-18,-3551,-660,139,1086,3699,56,45,873
357267,6000324,6291820,6002624,6297536,1143,2921,-170,-3628,-641,489,931,2970,39,43,873
358268,6000612,6292008,6002821,6297733,778,3001,-269,-3627,-670,1055,701,4548,39,43,873
359268,6000840,6292200,6003018,6297930,1140,2980,-361,-3677,-694,952,535,3549,57,43,874
360270,6001060,6292380,6003215,6298127,1181,3063,-436,-3767,-609,-48,328,3797,57,43,874
361271,6001328,6292572,6003412,6298324,849,2992,-408,-3665,-483,457,296,5704,54,49,876
362272,6001564,6292772,6003609,6298521,1033,2942,-432,-3522,-496,1988,-444,4293,54,49,876
363273,6001788,6292988,6003806,6298718,1096,2835,-544,-3480,-375,77,510,3755,44,35,875
364273,6002040,6293180,6004003,6298915,897,2988,-662,-3307,-182,514,755,4784,44,35,875
365275,6002268,6293388,6004200,6299112,1035,2884,-704,-3220,-83,1187,-297,4534,43,50,876
366275,6002484,6293600,6004397,6299309,1101,2853,-682,-3141,-16,1088,55,4662,43,50,876
367276,6002728,6293824,6004594,6299506,907,2767,-674,-3273,56,954,692,3802,36,51,875
368278,6002932,6294040,6004791,6299703,1153,2810,-625,-3338,114,964,176,4993,36,51,875
369279,6003132,6294228,6004988,6299900,1177,2990,-559,-3439,136,759,-314,4423,49,45,876
370280,6003328,6294424,6005185,6300097,1204,2942,-493,-3528,157,569,-96,4890,49,45,876
371281,6003508,6294604,6005382,6300294,1311,3050,-470,-3426,126,1841,-881,5320,31,29,876
372282,6003672,6294808,6005579,6300491,1426,2899,-469,-3211,87,2080,-781,5658,31,29,876
373283,6003872,6294988,6005776,6300688,1200,3057,-428,-2920,97,1755,-444,6174,29,30,875
374284,6004072,6295220,6005973,6300885,1199,2718,-430,-2821,160,1661,-533,4688,29,30,875
375284,6004248,6295416,6006170,6301082,1358,2944,-461,-2838,322,922,-761,4784,46,39,875
376286,6004424,6295600,6006367,6301279,1368,3026,-411,-2723,553,571,-1578,6173,46,39,875
377287,6004616,6295788,6006564,6301476,1271,3006,-299,-2622,635,1643,-1115,5835,27,43,875
378288,6004760,6295984,6006761,6301673,1594,2958,-260,-2607,646,1531,-809,4950,27,43,875
379289,6004928,6296204,6006958,6301870,1458,2798,-277,-2562,679,1201,-1288,5244,40,50,873
380290,6005120,6296412,6007155,6302067,1310,2870,-285,-2435,733,736,-612,5842,40,50,873
381291,6005296,6296628,6007352,6302264,1420,2812,-306,-2446,819,338,-1052,4178,31,49,873
382291,6005448,6296844,6007549,6302461,1590,2805,-348,-2528,902,478,-1120,5246,31,49,873
383292,6005600,6297052,6007746,6302658,1610,2851,-365,-2491,938,751,-1943,5487,27,44,875
384294,6005752,6297276,6007943,6302855,1630,2740,-363,-2496,925,850,-1876,5178,27,44,875
385295,6005908,6297504,6008140,6303052,1623,2704,-375,-2463,925,761,-1420,5453,28,33,874
386296,6006072,6297736,6008337,6303249,1589,2664,-416,-2425,963,793,-1444,5118,28,33,874
387297,6006248,6297932,6008534,6303446,1523,2891,-444,-2386,1003,1043,-1576,5179,39,38,875
388298,6006388,6298136,6008731,6303643,1774,2839,-447,-2389,1055,610,-1501,4908,39,38,875
389299,6006556,6298332,6008928,6303840,1612,2890,-426,-2528,1080,1056,-1684,4407,41,41,873
390300,6006724,6298548,6009125,6304037,1625,2758,-422,-2607,1081,1256,-1368,4605,41,41,873
391301,6006900,6298756,6009322,6304234,1585,2804,-424,-2637,1139,428,-1214,3909,44,46,873
392302,6007060,6298956,6009519,6304431,1701,2854,-388,-2612,1193,733,-1272,4585,44,46,873
393303,6007256,6299168,6009716,6304628,1478,2773,-291,-2588,1273,482,-1345,4509,45,50,875
394304,6007428,6299348,6009913,6304825,1639,2981,-213,-2484,1263,1900,-1048,4364,45,50,875
395305,6007604,6299524,6010110,6305022,1624,3017,-141,-2324,1250,1666,-1032,4282,46,38,872
396306,6007772,6299700,6010307,6305219,1687,3027,-109,-2213,1243,1626,-586,3812,46,38,872
397307,6007944,6299900,6010504,6305416,1674,2877,-65,-2157,1321,868,-1489,3463,44,43,871
398308,6008128,6300076,6010701,6305613,1604,3037,19,-2037,1425,910,-1511,4247,44,43,871
399309,6008312,6300252,6010898,6305810,1611,3047,138,-1958,1497,634,-1172,3479,43,34,869
400309,6008504,6300420,6011095,6306007,1563,3111,264,-1985,1544,632,-1256,3547,43,34,869
401311,6008680,6300592,6011292,6306204,1673,3098,411,-2009,1551,860,-1086,4019,40,23,871
402312,6008896,6300776,6011489,6306401,1415,3029,533,-2041,1553,550,-1214,3552,40,23,871
403313,6009064,6300932,6011686,6306598,1729,3223,587,-2031,1527,529,-1018,3334,38,36,872
404314,6009252,6301104,6011883,6306795,1608,3136,586,-2050,1473,922,-662,3055,38,36,872
405315,6009440,6301280,6012080,6306992,1613,3122,582,-1855,1413,1153,-821,4555,38,25,873
406316,6009636,6301468,6012277,6307189,1563,3052,599,-1500,1371,738,-879,4492,38,25,873
407317,6009820,6301656,6012474,6307386,1645,3057,533,-1281,1349,639,-536,3392,33,35,871
408318,6010008,6301816,6012671,6307583,1624,3249,456,-1239,1369,560,-885,3758,33,35,871
409319,6010168,6301984,6012868,6307780,1816,3213,502,-1131,1342,1183,-793,5186,48,39,872
410320,6010340,6302136,6013065,6307977,1752,3333,544,-1163,1269,1422,-429,3449,48,39,872
411321,6010496,6302300,6013262,6308174,1871,3274,531,-1322,1234,1032,-13,3240,22,28,869
412322,6010680,6302464,6013459,6308371,1702,3289,530,-1327,1249,669,-219,4606,22,28,869
413323,6010860,6302624,6013656,6308568,1735,3332,515,-1163,1285,248,-577,4357,27,23,869
414324,6011020,6302808,6013853,6308765,1876,3189,407,-987,1365,-513,-495,3300,27,23,869
415325,6011184,6302992,6014050,6308962,1867,3196,291,-741,1467,-726,-96,4594,44,40,870
416325,6011356,6303184,6014247,6309159,1828,3149,262,-402,1351,1211,437,4787,44,40,870
417327,6011500,6303376,6014444,6309356,2027,3152,238,-354,1093,1978,-233,3508,42,27,870
418328,6011664,6303544,6014641,6309553,1917,3316,245,-418,991,695,2,3996,42,27,870
419329,6011800,6303692,6014838,6309750,2120,3464,202,-630,1050,115,-632,2838,27,25,870
420330,6011940,6303840,6015035,6309947,2121,3486,207,-745,1089,196,-42,3987,27,25,870
421331,6012084,6303976,6015232,6310144,2119,3590,217,-707,1078,277,-175,3857,24,38,866
422332,6012264,6304128,6015429,6310341,1902,3511,167,-588,1050,160,659,3565,24,38,866
423333,6012408,6304280,6015626,6310538,2151,3532,33,-413,1076,-105,369,3393,36,34,864
424334,6012584,6304412,6015823,6310735,1961,3686,-64,-205,1084,53,418,3965,36,34,864
425335,6012732,6304544,6016020,6310932,2158,3716,-145,-124,1059,317,-667,3237,31,19,866
426343,6012888,6304672,6016250,6311162,2141,3788,-191,-135,1008,187,32,3418,31,19,866
427350,6013052,6304784,6016447,6311359,2106,3800,-206,-129,1007,-292,-86,4280,24,32,862
428350,6013208,6304920,6016644,6311556,2175,3800,-220,-222,1016,48,-336,3262,24,32,862
429352,6013380,6305040,6016841,6311753,2086,3800,-180,-262,1080,-538,139,4583,25,18,863
430340,6013540,6305188,6017038,6311950,2179,3787,-141,-307,1176,-394,-920,4144,25,18,863
431353,6013676,6305316,6017235,6312147,2357,3800,-163,-440,1196,210,-1045,3179,23,17,862
432354,6013808,6305436,6017432,6312344,2410,3800,-175,-583,1282,-1320,-138,4124,23,17,862
433355,6013940,6305548,6017629,6312541,2440,3800,-133,-704,1587,-3379,-740,4074,22,16,861
434357,6014104,6305692,6017826,6312738,2255,3800,-157,-772,1881,-1561,-390,3430,22,16,861
435357,6014244,6305800,6018023,6312935,2430,3800,-363,-1127,1318,6869,1465,413,31,30,860
436358,6014364,6305936,6018220,6313132,2590,3800,-337,-943,896,2091,-1634,7238,31,30,860
437359,6014520,6306060,6018417,6313329,2384,3800,-144,-668,1021,-965,-846,5168,25,30,861
438360,6014652,6306188,6018614,6313526,2564,3800,-109,-855,1174,134,20,1357,25,30,861
439361,6014784,6306316,6018811,6313723,2592,3800,-195,-1175,1169,658,-707,3070,36,30,859
440362,6014932,6306464,6019008,6313920,2515,3800,-195,-977,1209,-93,-718,5741,36,30,859
441364,6015072,6306600,6019205,6314117,2591,3800,-239,-843,1240,205,-614,2736,24,39,860
442364,6015220,6306728,6019402,6314314,2563,3800,-330,-915,1212,108,-292,2545,24,39,860
443353,6015372,6306936,6019599,6314511,2558,3786,-324,-942,1233,-603,-930,4353,43,47,859
444366,6015496,6307140,6019796,6314708,2766,3800,-216,-955,1245,68,-635,4164,43,47,859
445355,6015628,6307376,6019993,6314905,2746,3594,-106,-1133,1210,343,80,3318,37,46,859
446356,6015764,6307608,6020190,6315102,2749,3606,-61,-1495,1178,258,174,2416,37,46,859
447357,6015924,6307812,6020387,6315299,2616,3779,-45,-1598,1097,1460,-410,3977,43,44,859
448357,6016092,6308084,6020584,6315496,2580,3323,-25,-1539,1029,1151,-718,3726,43,44,859
449359,6016288,6308388,6020781,6315693,2405,3077,-58,-1481,1144,-772,-1125,3200,30,63,862
450360,6016448,6308704,6020978,6315890,2647,2950,-85,-1420,1366,-1572,58,3866,30,63,862
451361,6016604,6309020,6021175,6316087,2691,2900,-176,-1544,1426,167,499,2531,47,54,865
452362,6016740,6309348,6021372,6316284,2844,2769,-271,-1592,1359,864,-1002,3078,47,54,865
453363,6016920,6309696,6021569,6316481,2578,2578,-230,-1431,1272,1281,-448,5140,43,56,868
454364,6017080,6310028,6021766,6316678,2720,2621,-174,-1323,1211,1053,-366,3500,43,56,868
455365,6017284,6310348,6021963,6316875,2443,2643,-144,-1353,1272,-163,-173,3066,51,70,866
456366,6017524,6310680,6022160,6317072,2200,2509,-140,-1478,1358,459,-233,3504,51,70,866
457367,6017704,6311020,6022357,6317269,2582,2398,-156,-1498,1409,706,-1022,3453,52,57,869
458368,6017900,6311400,6022554,6317466,2484,2069,-185,-1393,1444,660,-1430,3663,52,57,869
459369,6018096,6311752,6022751,6317663,2485,2177,-152,-1341,1417,1083,-1263,3909,53,67,874
460370,6018288,6312044,6022948,6317860,2513,2511,-86,-1273,1414,620,-602,3967,53,67,874
461371,6018500,6312444,6023145,6318057,2383,1748,-73,-1413,1320,2233,55,1908,38,63,874
462372,6018716,6312856,6023342,6318254,2350,1580,-27,-1404,1193,2149,-559,4052,38,63,874
463373,6018924,6313204,6023539,6318451,2397,1914,95,-1215,1261,-52,-991,4754,42,74,872
464373,6019100,6313532,6023736,6318648,2607,1983,127,-1194,1430,-2,-913,2066,42,74,872
465375,6019308,6313932,6023933,6318845,2402,1445,133,-1185,1362,2705,-435,3444,57,77,877
466376,6019512,6314304,6024130,6319042,2425,1544,188,-969,1156,2210,-832,4679,57,77,877
467377,6019720,6314632,6024327,6319239,2396,1762,164,-927,1125,-33,-647,1766,49,64,872
468378,6019956,6315028,6024524,6319436,2205,1251,94,-1107,1184,905,-39,1308,49,64,872
469379,6020176,6315396,6024721,6319633,2296,1351,96,-930,1136,2288,-182,4172,38,76,877
470380,6020380,6315744,6024918,6319830,2394,1410,153,-629,1132,577,-1078,3606,38,76,877
471381,6020600,6316080,6025115,6320027,2285,1425,235,-353,1127,834,-668,3191,40,74,880
472382,6020832,6316380,6025312,6320224,2195,1606,282,-187,1003,2099,-493,2820,40,74,880
473383,6021048,6316808,6025509,6320421,2287,705,248,-40,872,1474,-164,2127,38,60,878
474384,6021280,6317184,6025706,6320618,2173,952,194,-29,813,895,207,1677,38,60,878
475385,6021568,6317536,6025903,6320815,1784,1034,287,254,845,595,319,3865,61,81,879
476385,6021804,6317860,6026100,6321012,2092,1155,345,574,937,1024,-446,2409,61,81,879
477387,6022052,6318256,6026297,6321209,1996,617,351,722,890,1965,-115,1775,49,75,880
478387,6022308,6318640,6026494,6321406,1921,611,441,1024,776,1851,246,4022,49,75,880
479389,6022528,6319024,6026691,6321603,2136,529,519,1419,724,1367,76,2663,41,71,881
480389,6022796,6319348,6026888,6321800,1806,849,457,1569,629,1507,953,394,41,71,881
481391,6023088,6319712,6027085,6321997,1615,526,402,1721,462,1531,1019,2097,60,78,884
482392,6023348,6320088,6027282,6322194,1788,373,472,2279,319,248,626,4021,60,78,884
483393,6023628,6320380,6027479,6322391,1627,856,442,2588,295,2,-3905,515,66,74,885
484394,6023872,6320712,6027676,6322588,1832,548,428,2830,191,2150,-5539,2380,66,74,885
485395,6024120,6321052,6027873,6322785,1786,435,679,3524,21,1895,454,6904,64,53,886
486396,6024408,6321336,6028070,6322982,1497,747,763,3721,39,57,305,287,64,53,886
487397,6024716,6321616,6028267,6323179,1323,736,644,3452,115,997,371,-447,59,48,884
488398,6024984,6321828,6028464,6323376,1543,1155,618,3390,137,1525,-1454,3300,59,48,884
489399,6025216,6322052,6028661,6323573,1753,1068,839,3758,152,641,-1890,5023,52,41,885
490400,6025448,6322300,6028858,6323770,1738,895,900,3771,216,559,-811,1621,52,41,885
491401,6025772,6322528,6029055,6323967,1108,1008,868,3535,329,-764,399,2386,61,38,884
492402,6026064,6322732,6029252,6324164,1267,1155,872,3136,438,-401,-264,3241,61,38,884
493403,6026336,6322924,6029449,6324361,1360,1232,980,2701,503,217,-923,4157,64,48,884
494404,6026608,6323092,6029646,6324558,1328,1396,1230,2158,557,-704,-1049,4896,64,48,884
495405,6026916,6323300,6029843,6324755,1054,1141,1349,1502,591,-534,-2104,4256,66,31,886
496406,6027196,6323500,6030040,6324952,1193,1190,1241,1415,560,-300,-1723,5762,66,31,886
497407,6027472,6323748,6030237,6325149,1184,867,880,1819,517,-856,-3,5290,45,34,884
498407,6027752,6323948,6030434,6325346,1123,1167,385,2339,481,-814,545,5102,45,34,884
499409,6027992,6324152,6030631,6325543,1354,1139,87,2751,413,-291,826,5308,43,40,884
500410,6028276,6324356,6030828,6325740,1042,1136,50,2512,291,128,743,4876,43,40,884
501411,6028516,6324520,6031025,6325937,1298,1400,257,1386,187,37,-1848,3866,51,46,886
502412,6028744,6324700,6031222,6326134,1360,1309,566,342,108,780,-1872,5175,51,46,886
503413,6028992,6324924,6031419,6326331,1213,1022,606,-251,10,449,1533,4442,44,48,887
504414,6029224,6325156,6031616,6326528,1299,956,615,-816,-69,-620,1513,3316,44,48,887
505415,6029432,6325372,6031813,6326725,1444,1048,593,-1514,-158,-485,399,4325,42,33,884
506416,6029620,6325588,6032010,6326922,1574,1041,512,-1817,-245,102,22,4866,42,33,884
507417,6029788,6325780,6032207,6327119,1712,1193,207,-1598,-358,1305,2029,5108,38,45,886
508418,6029928,6325940,6032404,6327316,1913,1409,-202,-1453,-531,1822,1899,3595,38,45,886
509426,6030076,6326140,6032634,6327546,1899,1173,-425,-1311,-734,2618,-8,6316,26,32,884
510419,6030212,6326348,6032831,6327743,2001,1119,-617,-1175,-878,2476,249,5603,26,32,884
511421,6030388,6326588,6033028,6327940,1761,900,-851,-957,-860,1647,1410,5431,32,39,879
512421,6030548,6326816,6033225,6328137,1878,961,-1038,-1057,-711,1058,1147,4725,32,39,879
513423,6030756,6326992,6033422,6328334,1573,1296,-1036,-1428,-516,1061,76,5457,23,29,882
514424,6030932,6327156,6033619,6328531,1783,1386,-889,-2039,-403,1665,-30,4881,23,29,882
515425,6031112,6327308,6033816,6328728,1766,1481,-788,-2725,-338,1235,628,4772,46,28,883
516426,6031280,6327464,6034013,6328925,1855,1474,-861,-3263,-273,1293,1508,4287,46,28,883
517427,6031460,6327620,6034210,6329122,1787,1493,-1112,-3406,-280,2665,1157,4321,24,24,881
518428,6031624,6327792,6034407,6329319,1902,1404,-1414,-3054,-366,3225,1290,5666,24,24,881
519429,6031820,6327960,6034604,6329516,1703,1441,-1633,-2723,-436,2844,1573,4666,41,24,881
520430,6031972,6328104,6034801,6329713,1999,1615,-1816,-2609,-422,2705,1475,4196,41,24,881
521431,6032148,6328272,6034998,6329910,1858,1478,-1872,-2541,-320,2790,650,4630,26,30,879
522432,6032348,6328416,6035195,6330107,1708,1652,-1861,-2413,-144,2187,-47,5136,26,30,879
523433,6032524,6328536,6035392,6330304,1867,1835,-1817,-2286,89,1823,-670,4378,25,34,879
524434,6032680,6328664,6035589,6330501,2011,1817,-1785,-2153,304,2507,176,4507,25,34,879
525435,6032888,6328800,6035786,6330698,1682,1794,-1767,-1967,519,2586,65,4286,24,29,881
526436,6033060,6328900,6035983,6330895,1918,2061,-1773,-1933,686,2857,177,3848,24,29,881
527437,6033272,6329020,6036180,6331092,1662,1971,-1765,-1976,846,2085,-1166,3510,27,15,878
528438,6033460,6329172,6036377,6331289,1816,1791,-1807,-1934,953,2249,-635,4060,27,15,878
529439,6033688,6329296,6036574,6331486,1554,1999,-1856,-1698,1047,1967,-1012,4154,50,19,877
530440,6033920,6329400,6036771,6331683,1513,2165,-1823,-1404,1165,1398,-944,5216,50,19,877
531440,6034140,6329496,6036968,6331880,1579,2259,-1595,-1074,1246,1744,-1086,6313,42,19,877
532442,6034392,6329596,6037165,6332077,1355,2278,-1263,-717,1295,1888,-1388,6751,42,19,877
533443,6034612,6329700,6037362,6332274,1546,2294,-1031,-440,1308,2228,-1839,5384,50,16,877
534444,6034840,6329804,6037559,6332471,1482,2336,-934,-279,1288,2554,-2135,3986,50,16,877
535445,6035084,6329924,6037756,6332668,1363,2269,-835,-215,1314,2011,-1927,4037,51,12,878
536446,6035296,6330032,6037953,6332865,1556,2384,-608,-108,1325,2288,-2268,4607,51,12,878
537447,6035492,6330144,6038150,6333062,1658,2397,-238,78,1355,1752,-2342,5267,53,22,877
538448,6035700,6330236,6038347,6333259,1578,2569,110,171,1485,580,-1862,4311,53,22,877
539449,6035928,6330376,6038544,6333456,1440,2295,210,-29,1676,52,-1847,1391,48,22,877
540450,6036148,6330508,6038741,6333653,1480,2374,162,-404,1865,91,-2155,1604,48,22,877
541451,6036376,6330644,6038938,6333850,1417,2376,247,-482,1850,1669,-1822,4583,41,34,876
542451,6036604,6330788,6039135,6334047,1404,2350,461,-267,1728,587,-2005,5760,41,34,876
543453,6036808,6330912,6039332,6334244,1552,2508,561,-7,1501,316,-1897,5040,52,25,876
544453,6037060,6331048,6039529,6334441,1228,2461,524,-59,1216,607,-1801,4160,52,25,876
545455,6037284,6331192,6039726,6334638,1392,2434,524,-124,1009,193,-1843,5690,38,27,877
546456,6037472,6331328,6039923,6334835,1621,2512,610,-201,866,345,-1577,6081,38,27,877
547457,6037672,6331472,6040120,6335032,1545,2486,653,-400,740,442,-1544,4855,31,35,877
548458,6037888,6331588,6040317,6335229,1437,2697,602,-537,632,387,-1157,5398,31,35,877
549459,6038112,6331752,6040514,6335426,1376,2412,505,-530,585,150,-1644,5410,38,23,876
550460,6038320,6331904,6040711,6335623,1471,2508,370,-462,675,-643,-1762,5250,38,23,876
551461,6038540,6332072,6040908,6335820,1387,2421,253,-440,772,158,-1375,4444,44,39,875
552462,6038740,6332212,6041105,6336017,1511,2622,194,-389,735,1403,-365,5440,44,39,875
553463,6038920,6332372,6041302,6336214,1644,2514,237,-311,691,1288,-1049,5169,47,28,875
554464,6039116,6332544,6041499,6336411,1545,2451,310,-389,779,667,-1442,4662,47,28,875
555465,6039300,6332672,6041696,6336608,1625,2756,398,-533,963,420,-1967,4564,32,23,874
556466,6039512,6332832,6041893,6336805,1445,2573,479,-798,1084,265,-1448,3782,32,23,874
557467,6039680,6332972,6042090,6337002,1733,2724,579,-944,1138,-465,-1066,4188,45,40,876
558468,6039880,6333148,6042287,6337199,1532,2510,648,-943,1058,956,-562,4130,45,40,876
559469,6040052,6333356,6042484,6337396,1718,2305,552,-829,862,2044,1477,2995,36,49,875
560470,6040256,6333604,6042681,6337593,1516,2033,273,-666,718,1645,630,1867,36,49,875
561471,6040436,6333904,6042878,6337790,1674,1664,-5,-386,556,2501,1730,3099,28,43,876
562472,6040636,6334184,6043075,6337987,1548,1754,-298,-182,398,2593,3220,883,28,43,876
563473,6040832,6334464,6043272,6338184,1574,1717,-644,-146,438,858,-220,479,34,61,879
564474,6041032,6334736,6043469,6338381,1548,1735,-704,173,687,183,-1427,3862,34,61,879
565475,6041216,6335020,6043666,6338578,1654,1623,-392,640,968,503,-1280,5393,26,46,880
566476,6041392,6335312,6043863,6338775,1714,1531,-16,869,1080,862,141,4187,26,46,880
567476,6041576,6335588,6044060,6338972,1670,1598,40,483,1126,-285,562,79,46,60,881
568477,6041740,6335864,6044257,6339169,1810,1564,-1,-6,1075,442,145,2753,46,60,881
569479,6041904,6336148,6044454,6339366,1825,1476,144,-247,762,2326,720,5488,25,44,881
570479,6042100,6336368,6044651,6339563,1626,1867,258,-716,491,406,242,2174,25,44,881
571481,6042284,6336640,6044848,6339760,1707,1510,358,-1165,354,358,906,4111,48,54,881
572481,6042448,6336920,6045045,6339957,1847,1423,434,-1273,311,77,613,4625,48,54,881
573483,6042664,6337176,6045242,6340154,1514,1548,350,-1191,302,-332,49,3532,43,58,880
574484,6042824,6337400,6045439,6340351,1881,1736,255,-898,195,-6,902,5063,43,58,880
575485,6043004,6337600,6045636,6340548,1764,1886,186,-624,-15,335,60,4469,46,37,880
576485,6043168,6337828,6045833,6340745,1879,1697,173,-528,-258,610,1766,4601,46,37,880
577487,6043340,6338036,6046030,6340942,1841,1819,215,-561,-344,740,981,4669,45,31,878
578488,6043488,6338240,6046227,6341139,2012,1841,288,-739,-251,1261,958,3834,45,31,878
579489,6043668,6338396,6046424,6341336,1821,2159,274,-959,-57,1457,575,2750,22,41,879
580489,6043816,6338588,6046621,6341533,2042,1938,193,-1161,208,1151,-214,2407,22,41,879
581491,6043972,6338748,6046818,6341730,2011,2154,145,-1270,475,1510,390,3484,43,27,878
582492,6044168,6338916,6047015,6341927,1763,2118,158,-1193,735,1700,-87,4350,43,27,878
583493,6044316,6339104,6047212,6342124,2084,1997,192,-953,962,2202,382,4924,20,36,876
584494,6044468,6339284,6047409,6342321,2080,2055,154,-689,1119,2409,-451,4006,20,36,876
585495,6044600,6339460,6047606,6342518,2233,2090,59,-439,1245,1947,190,3933,22,40,877
586496,6044760,6339624,6047803,6342715,2076,2180,-51,-106,1404,1738,-947,3662,22,40,877
587497,6044904,6339780,6048000,6342912,2199,2249,-151,269,1587,1522,-575,4020,31,28,873
588497,6045020,6339956,6048197,6343109,2411,2133,-191,700,1759,1402,-1029,4625,31,28,873
589499,6045156,6340192,6048394,6343306,2313,1742,-175,1125,1836,1290,-944,5111,22,31,875
590500,6045264,6340416,6048591,6343503,2528,1805,-212,1563,1816,1218,-1268,4606,22,31,875
591501,6045400,6340648,6048788,6343700,2380,1741,-350,1902,1689,1004,-934,4083,25,49,874
592510,6045572,6340876,6049018,6343930,2181,1768,-493,2177,1551,16,-1112,4216,25,49,874
593503,6045760,6341092,6049215,6344127,2086,1834,-579,2356,1345,221,-1114,4183,36,39,875
594504,6045924,6341388,6049412,6344324,2251,1292,-572,2504,1105,209,129,4814,36,39,875
595505,6046100,6341664,6049609,6344521,2186,1382,-574,2638,935,1,-771,3859,48,58,877
596506,6046276,6341960,6049806,6344718,2196,1215,-672,2698,842,585,-742,2840,48,58,877
597507,6046428,6342304,6050003,6344915,2367,850,-820,2624,813,572,-159,2979,45,61,877
598508,6046600,6342576,6050200,6345112,2253,1268,-903,2512,848,-161,-820,3700,45,61,877
599509,6046760,6342784,6050397,6345309,2345,1663,-855,2327,909,-617,-1166,3896,25,52,878
600510,6046928,6343000,6050594,6345506,2309,1606,-807,2199,910,122,-887,3917,25,52,878
601511,6047088,6343204,6050791,6345703,2375,1678,-785,2144,834,821,413,3982,25,50,879
602512,6047248,6343420,6050988,6345900,2392,1595,-751,2196,766,1419,2165,4467,25,50,879
603513,6047388,6343648,6051185,6346097,2543,1507,-700,2166,710,761,1502,3648,26,49,877
604514,6047536,6343880,6051382,6346294,2516,1467,-705,1991,682,-52,289,2982,26,49,877
605515,6047684,6344104,6051579,6346491,2537,1505,-693,1912,630,286,767,4332,23,57,877
606516,6047828,6344348,6051776,6346688,2586,1361,-626,2011,518,144,1436,4861,23,57,877
607517,6047992,6344648,6051973,6346885,2477,966,-611,1992,575,-1931,-1027,3538,26,63,877
608517,6048172,6344940,6052170,6347082,2385,975,-592,1799,762,-2003,-736,4109,26,63,877
609518,6048336,6345192,6052367,6347279,2500,1201,-549,1652,881,-612,-35,4868,34,64,876
610520,6048484,6345448,6052564,6347476,2622,1150,-610,1396,952,-401,-1590,2707,34,64,876
611520,6048668,6345732,6052761,6347673,2404,937,-638,1298,1006,140,-2265,4727,28,53,879
612521,6048824,6345968,6052958,6347870,2598,1220,-583,1344,1006,308,-2540,5147,28,53,879
613522,6048992,6346192,6053155,6348067,2536,1283,-536,1253,1017,-1429,-2480,4196,38,50,878
614524,6049184,6346380,6053352,6348264,2389,1513,-503,1224,1002,-1591,-2838,6123,38,50,878
615525,6049356,6346548,6053549,6348461,2526,1651,-530,1169,818,-855,-1516,5339,46,36,877
616526,6049512,6346768,6053746,6348658,2645,1317,-584,889,464,-1205,512,5097,46,36,877
617527,6049708,6346996,6053943,6348855,2397,1253,-535,443,63,-1032,-243,6008,48,45,877
618528,6049884,6347224,6054140,6349052,2531,1240,-392,-121,-369,67,-72,5915,48,45,877
619529,6050056,6347460,6054337,6349249,2568,1174,-306,-636,-748,-320,204,5235,44,50,875
620529,6050240,6347692,6054534,6349446,2500,1183,-361,-784,-974,-520,-100,6007,44,50,875
621531,6050432,6347896,6054731,6349643,2453,1355,-521,-435,-1044,-986,-284,6457,48,40,876
622532,6050584,6348156,6054928,6349840,2723,979,-669,133,-1088,-192,-246,6605,48,40,876
623533,6050752,6348424,6055125,6350037,2637,897,-732,514,-1129,-20,-1705,5747,28,47,878
624533,6050916,6348660,6055322,6350234,2677,1080,-642,480,-1087,-206,-2898,5310,28,47,878
625535,6051088,6348872,6055519,6350431,2639,1225,-382,230,-1092,1383,-2593,5548,27,35,877
626536,6051248,6349068,6055716,6350628,2731,1325,-88,-247,-1118,812,-2438,3846,27,35,877
627537,6051420,6349224,6055913,6350825,2668,1593,140,-700,-1200,1265,-2537,4141,28,32,877
628538,6051584,6349400,6056110,6351022,2733,1477,305,-780,-1308,1254,-2369,5133,28,32,877
629539,6051756,6349608,6056307,6351219,2695,1273,370,-645,-1363,-61,-1400,4418,28,46,876
630540,6051940,6349816,6056504,6351416,2627,1269,307,-391,-1419,-287,-992,4343,28,46,876
631540,6052136,6350016,6056701,6351613,2553,1317,213,-62,-1488,-530,-668,5290,46,34,873
632541,6052324,6350192,6056898,6351810,2608,1478,164,133,-1563,-626,-393,5376,46,34,873
633543,6052512,6350376,6057095,6352007,2613,1433,220,-11,-1616,-597,-608,5272,38,27,876
634544,6052692,6350532,6057292,6352204,2671,1626,325,-390,-1675,-40,-759,5018,38,27,876
635545,6052864,6350684,6057489,6352401,2733,1672,416,-733,-1759,1020,-1485,5403,47,25,876
636545,6053060,6350820,6057686,6352598,2584,1799,475,-951,-1890,2001,-659,5305,47,25,876
637546,6053228,6350984,6057883,6352795,2773,1638,437,-1038,-1964,1340,-1178,4438,24,35,875
638548,6053424,6351148,6058080,6352992,2600,1654,344,-890,-1996,1495,-1022,4943,24,35,875
639549,6053628,6351328,6058277,6353189,2547,1561,220,-497,-2020,1538,-645,4449,47,23,874
640549,6053800,6351472,6058474,6353386,2759,1810,75,-175,-2031,1203,-415,3412,47,23,874
641551,6054008,6351596,6058671,6353583,2530,1968,2,83,-1982,972,-983,4050,38,34,874
642552,6054208,6351704,6058868,6353780,2579,2107,0,296,-1958,1605,-874,3803,38,34,874
643552,6054436,6351812,6059065,6353977,2392,2146,19,328,-1910,651,-597,3358,44,25,872
644553,6054628,6351956,6059262,6354174,2620,1945,25,188,-1849,55,-317,2980,44,25,872
645554,6054836,6352060,6059459,6354371,2516,2236,49,-49,-1854,234,-261,3391,48,34,873
646556,6055072,6352140,6059656,6354568,2325,2438,68,-229,-1918,622,-897,3603,48,34,873
647557,6055296,6352244,6059853,6354765,2388,2329,98,-258,-2040,1403,-515,4122,31,27,873
648558,6055524,6352368,6060050,6354962,2350,2237,91,-179,-2192,1497,-88,3933,31,27,873
649559,6055784,6352476,6060247,6355159,2124,2377,40,-34,-2274,759,229,3803,38,16,872
650560,6056032,6352612,6060444,6355356,2177,2229,-30,103,-2250,341,-391,3539,38,16,872
651561,6056252,6352756,6060641,6355553,2343,2203,-75,256,-2147,203,-621,3561,41,17,872
652562,6056524,6352884,6060838,6355750,1986,2334,-74,164,-2016,499,-170,3041,41,17,872
653563,6056792,6352996,6061035,6355947,1981,2471,-47,-30,-1936,777,-822,2649,61,21,873
654563,6057064,6353108,6061232,6356144,1923,2510,42,-233,-1860,42,-893,3680,61,21,873
655565,6057356,6353228,6061429,6356341,1757,2494,140,-351,-1819,77,-681,3361,63,30,874
656565,6057612,6353328,6061626,6356538,1957,2662,133,-538,-1867,418,-186,2541,63,30,874
657567,6057892,6353432,6061823,6356735,1772,2679,121,-632,-1976,618,-84,3518,57,30,874
658568,6058204,6353548,6062020,6356932,1521,2640,133,-560,-2063,512,-140,4374,57,30,874
659569,6058488,6353668,6062217,6357129,1659,2649,172,-595,-2131,373,337,2830,48,18,873
660570,6058764,6353808,6062414,6357326,1676,2550,182,-828,-2102,-336,177,2443,48,18,873
661571,6059040,6353928,6062611,6357523,1642,2709,204,-1047,-1973,-321,-187,3089,46,16,875
662572,6059360,6354060,6062808,6357720,1313,2664,235,-1188,-1825,13,-625,2845,46,16,875
663573,6059656,6354168,6063005,6357917,1420,2854,221,-1282,-1740,326,-374,2363,67,24,874
664574,6059936,6354276,6063202,6358114,1485,2893,203,-1335,-1690,69,-567,3128,67,24,874
665575,6060240,6354384,6063399,6358311,1288,2933,206,-1340,-1700,311,-352,3177,70,16,874
666576,6060524,6354528,6063596,6358508,1376,2733,168,-1427,-1757,279,-383,2858,70,16,874
667577,6060792,6354632,6063793,6358705,1444,3024,179,-1556,-1830,508,-9,3449,67,23,874
668578,6061108,6354764,6063990,6358902,1093,2878,202,-1759,-1859,296,324,2781,67,23,874
669579,6061384,6354880,6064187,6359099,1308,3015,193,-2084,-1835,-227,359,2119,60,23,875
670579,6061648,6355000,6064384,6359296,1355,3024,183,-2328,-1761,-398,348,2847,60,23,875
671581,6061952,6355132,6064581,6359493,1059,2979,151,-2461,-1697,-292,246,2410,50,18,875
672582,6062236,6355280,6064778,6359690,1146,2901,113,-2485,-1662,-130,18,2327,50,18,875
673583,6062476,6355424,6064975,6359887,1403,2950,101,-2443,-1645,144,218,3319,55,28,873
674584,6062764,6355540,6065172,6360084,1063,3161,97,-2479,-1649,199,1,2378,55,28,873
675592,6063016,6355672,6065402,6360314,1278,3105,135,-2565,-1651,388,-323,2678,61,21,873
676585,6063276,6355800,6065599,6360511,1201,3162,154,-2733,-1633,624,81,3129,61,21,873
677587,6063512,6355956,6065796,6360708,1334,3006,222,-2956,-1565,284,659,2092,39,31,873
678587,6063764,6356092,6065993,6360905,1211,3159,170,-3213,-1453,264,503,2435,39,31,873
679589,6064000,6356244,6066190,6361102,1294,3079,182,-3250,-1326,198,413,3201,58,38,872
680590,6064236,6356392,6066387,6361299,1278,3127,117,-3315,-1215,457,507,2619,58,38,872
681591,6064484,6356556,6066584,6361496,1180,3042,88,-3306,-1149,720,470,2762,40,38,873
682592,6064752,6356724,6066781,6361693,1024,3030,87,-3307,-1072,319,664,3804,40,38,873
683593,6064972,6356924,6066978,6361890,1315,2830,103,-3384,-1004,424,763,2479,53,37,873
684594,6065224,6357100,6067175,6362087,1091,2990,108,-3572,-957,537,752,2990,53,37,873
685595,6065464,6357280,6067372,6362284,1148,2974,106,-3641,-874,263,551,3262,59,45,873
686596,6065716,6357472,6067569,6362481,1049,2902,48,-3763,-803,793,779,2926,59,45,873
687597,6065980,6357660,6067766,6362678,944,2932,-32,-3794,-773,970,816,3343,47,41,873
688598,6066236,6357872,6067963,6362875,969,2776,-105,-3829,-744,854,816,3646,47,41,873
689599,6066492,6358064,6068160,6363072,944,2904,-136,-3805,-701,917,828,3852,43,46,874
690600,6066732,6358252,6068357,6363269,1025,2934,-211,-3879,-621,534,601,3309,43,46,874
691601,6066968,6358456,6068554,6363466,1033,2832,-247,-4007,-457,-345,501,3805,52,36,877
692602,6067204,6358652,6068751,6363663,1016,2884,-266,-3942,-351,706,1068,4905,52,36,877
693603,6067432,6358836,6068948,6363860,1053,2965,-351,-3839,-365,1594,101,3588,56,49,876
694604,6067672,6359064,6069145,6364057,959,2678,-495,-3660,-271,219,619,4537,56,49,876
695605,6067884,6359296,6069342,6364254,1128,2638,-602,-3387,-171,997,540,4903,55,49,876
696606,6068116,6359516,6069539,6364451,988,2704,-650,-3209,-113,1063,367,4813,55,49,876
697607,6068340,6359712,6069736,6364648,1026,2856,-671,-3207,-16,868,649,4368,46,40,876
698607,6068544,6359904,6069933,6364845,1149,2884,-682,-3337,61,1583,-83,4490,46,40,876
699609,6068716,6360120,6070130,6365042,1360,2726,-646,-3396,91,1586,-440,5195,37,42,877
700609,6068920,6360336,6070327,6365239,1157,2719,-618,-3520,127,1303,-812,4555,37,42,877
701611,6069096,6360544,6070524,6365436,1341,2765,-610,-3544,164,1606,-938,5262,47,46,875
702611,6069280,6360764,6070721,6365633,1298,2680,-619,-3393,246,1268,-764,5404,47,46,875
703612,6069464,6360984,6070918,6365830,1303,2671,-605,-3280,351,1199,-824,5076,47,35,877
704613,6069648,6361152,6071115,6366027,1309,3010,-575,-3060,437,1581,-710,6364,47,35,877
705615,6069820,6361364,6071312,6366224,1395,2729,-554,-2932,545,1245,-1065,4923,35,34,876
706616,6070016,6361576,6071509,6366421,1247,2724,-590,-2827,661,1558,-1495,5375,35,34,876
707617,6070188,6361784,6071706,6366618,1408,2745,-599,-2578,729,1998,-1947,5915,26,43,872
708618,6070368,6362016,6071903,6366815,1365,2580,-584,-2416,795,1412,-1071,5218,26,43,872
709618,6070544,6362236,6072100,6367012,1400,2646,-565,-2406,941,438,-1551,4817,36,36,874
710619,6070716,6362452,6072297,6367209,1436,2664,-460,-2450,1058,850,-1365,5671,36,36,874
711620,6070896,6362640,6072494,6367406,1394,2844,-375,-2475,1114,935,-1466,5016,33,51,877
712622,6071048,6362860,6072691,6367603,1589,2635,-351,-2567,1153,755,-1434,4335,33,51,877
713623,6071192,6363060,6072888,6367800,1663,2760,-353,-2551,1176,730,-1469,5761,25,42,875
714624,6071356,6363268,6073085,6367997,1552,2705,-352,-2384,1184,724,-1653,5284,25,42,875
715625,6071512,6363448,6073282,6368194,1620,2888,-399,-2295,1207,966,-1814,4701,21,36,875
716626,6071692,6363676,6073479,6368391,1479,2576,-408,-2140,1213,1408,-1422,5957,21,36,875
717627,6071836,6363872,6073676,6368588,1727,2777,-368,-2159,1218,1257,-2114,4865,29,44,875
718628,6071996,6364036,6073873,6368785,1643,2992,-278,-2232,1223,1284,-1593,5228,29,44,875
719629,6072156,6364252,6074070,6368982,1661,2660,-169,-2451,1231,1138,-1761,4459,29,30,874
720629,6072344,6364416,6074267,6369179,1490,3001,-91,-2569,1236,1142,-1448,4710,29,30,874
721631,6072512,6364636,6074464,6369376,1628,2642,-46,-2548,1285,520,-911,4617,26,34,872
722632,6072696,6364804,6074661,6369573,1534,2980,-71,-2481,1339,716,-1464,3853,26,34,872
723633,6072860,6364976,6074858,6369770,1674,2967,-47,-2306,1366,707,-956,5044,40,45,873
724634,6073020,6365144,6075055,6369967,1716,3005,-22,-2124,1329,1318,-1299,4356,40,45,873
725635,6073200,6365316,6075252,6370164,1598,2992,8,-2017,1248,1739,-641,3939,44,41,873
726636,6073376,6365488,6075449,6370361,1632,3004,85,-1928,1195,1710,-1270,4825,44,41,873
727636,6073544,6365704,6075646,6370558,1696,2722,193,-1926,1242,560,-1964,3553,24,41,871
728638,6073756,6365860,6075843,6370755,1415,3116,299,-2031,1271,1073,-973,3740,24,41,871
729639,6073916,6366040,6076040,6370952,1757,2974,407,-2033,1272,1162,-1635,4074,44,42,870
730640,6074100,6366204,6076237,6371149,1613,3090,434,-2031,1275,890,-941,3424,44,42,870
731641,6074300,6366356,6076434,6371346,1511,3185,459,-1915,1313,515,-1167,3922,39,36,871
732642,6074488,6366528,6076631,6371543,1591,3072,494,-1730,1298,785,-926,4483,39,36,871
733643,6074648,6366696,6076828,6371740,1783,3111,494,-1528,1284,524,-1019,3662,47,25,871
734644,6074840,6366860,6077025,6371937,1586,3152,439,-1462,1298,207,-736,3185,47,25,871
735645,6075044,6367004,6077222,6372134,1508,3301,473,-1255,1321,280,-627,5090,33,36,871
736646,6075248,6367172,6077419,6372331,1506,3165,527,-1145,1310,438,-901,3831,33,36,871
737647,6075444,6367336,6077616,6372528,1556,3205,509,-1236,1283,624,-615,3343,30,37,871
738648,6075624,6367508,6077813,6372725,1663,3167,476,-1365,1243,1044,-671,3562,30,37,871
739649,6075792,6367648,6078010,6372922,1752,3393,486,-1288,1229,824,-864,4696,48,32,871
740650,6075944,6367788,6078207,6373119,1872,3419,482,-1283,1241,725,-580,3121,48,32,871
741651,6076156,6367940,6078404,6373316,1491,3365,467,-1267,1331,67,83,3903,44,22,867
742652,6076316,6368092,6078601,6373513,1833,3386,436,-1163,1479,-443,67,3893,44,22,867
743652,6076496,6368260,6078798,6373710,1715,3300,367,-999,1571,-46,-208,3817,25,35,867
744653,6076664,6368448,6078995,6373907,1804,3179,276,-901,1484,1022,-411,3399,25,35,867
745655,6076812,6368608,6079192,6374104,1950,3372,268,-676,1391,288,-294,5444,34,35,868
746656,6076968,6368760,6079389,6374301,1919,3443,395,-324,1524,-1344,-549,5687,34,35,868
747657,6077148,6368928,6079586,6374498,1777,3356,367,-387,1722,-1133,-367,2565,37,38,870
748657,6077296,6369068,6079783,6374695,1999,3557,194,-762,1479,3203,1498,1241,37,38,870
749659,6077420,6369236,6079980,6374892,2182,3396,92,-822,975,4587,-656,5060,40,26,866
750659,6077560,6369388,6080177,6375089,2108,3517,153,-517,887,-299,-451,5548,40,26,866
751661,6077708,6369540,6080374,6375286,2079,3538,87,-548,1098,-1633,692,1585,23,27,864
752661,6077872,6369692,6080571,6375483,1995,3558,-4,-535,1212,-384,452,4092,23,27,864
753663,6078036,6369828,6080768,6375680,2009,3686,-33,-275,1115,1065,-503,5441,44,20,864
754664,6078196,6369976,6080965,6375877,2051,3635,-92,-160,1017,277,277,3262,44,20,864
755665,6078348,6370108,6081162,6376074,2121,3764,-218,-310,995,304,-330,2635,27,19,865
756678,6078508,6370208,6081359,6376271,2088,3800,-278,-383,956,430,-338,4434,27,19,865
757679,6078672,6370336,6081556,6376468,2078,3800,-247,-335,993,-539,-553,4461,41,17,864
758687,6078832,6370436,6081786,6376698,2135,3800,-265,-453,1018,47,-461,2649,41,17,864
759681,6078980,6370544,6081983,6376895,2231,3800,-256,-492,993,447,138,4166,44,20,862
760682,6079148,6370688,6082180,6377092,2120,3800,-241,-482,1046,-757,-683,4048,44,20,862
761684,6079276,6370812,6082377,6377289,2401,3800,-275,-543,1133,-680,-864,2822,43,19,861
762684,6079416,6370932,6082574,6377486,2351,3800,-292,-591,1124,5,389,4053,43,19,861
763686,6079560,6371052,6082771,6377683,2351,3800,-291,-606,1083,-411,370,3876,29,16,860
764686,6079676,6371152,6082968,6377880,2561,3800,-313,-749,1034,39,-350,2936,29,16,860
765687,6079828,6371280,6083165,6378077,2357,3800,-306,-935,978,297,-296,3625,32,26,860
766688,6079948,6371400,6083362,6378274,2592,3800,-270,-1113,977,-162,-590,3535,32,26,860
767689,6080084,6371536,6083559,6378471,2519,3800,-267,-1262,986,134,-627,3174,29,32,859
768690,6080212,6371660,6083756,6378668,2600,3800,-220,-1231,986,89,-324,4549,29,32,859
769691,6080364,6371784,6083953,6378865,2471,3800,-185,-1247,988,-389,-418,3568,38,17,859
770692,6080516,6371912,6084150,6379062,2490,3800,-243,-1381,969,206,-829,2516,38,17,859
771693,6080640,6372076,6084347,6379259,2699,3800,-286,-1301,949,196,-673,4908,24,31,859
772694,6080780,6372204,6084544,6379456,2625,3800,-335,-1237,862,717,-233,3204,24,31,859
773695,6080904,6372364,6084741,6379653,2757,3800,-421,-1283,808,199,-19,3010,21,41,859
774684,6081016,6372592,6084938,6379850,2870,3756,-411,-1313,832,-145,-358,4088,21,41,859
775697,6081144,6372808,6085135,6380047,2801,3800,-291,-1385,844,553,-760,4244,32,49,858
776685,6081272,6373028,6085332,6380244,2833,3791,-131,-1497,828,994,-130,3901,32,49,858
777687,6081416,6373256,6085529,6380441,2756,3728,-39,-1622,760,1638,430,3654,29,36,858
778688,6081576,6373504,6085726,6380638,2673,3582,-29,-1672,657,1932,103,3317,29,36,858
779689,6081748,6373792,6085923,6380835,2610,3294,-35,-1641,678,588,-1129,3897,30,49,859
780690,6081896,6374100,6086120,6381032,2783,3121,-38,-1385,821,-139,-3154,4335,30,49,859
781691,6082040,6374400,6086317,6381229,2832,3127,-34,-1127,850,617,-91,4125,46,55,862
782692,6082180,6374712,6086514,6381426,2882,3003,-101,-1351,782,1277,247,1567,46,55,862
783693,6082296,6375056,6086711,6381623,3069,2739,-161,-1542,802,691,-254,3503,40,62,863
784694,6082436,6375428,6086908,6381820,2945,2488,-122,-1486,879,1347,-339,4084,40,62,863
785695,6082596,6375760,6087105,6382017,2837,2681,-75,-1538,948,1182,-823,2858,24,72,864
786696,6082784,6376076,6087302,6382214,2667,2730,-5,-1598,1089,97,-503,3710,24,72,864
787696,6082984,6376384,6087499,6382411,2592,2732,-24,-1718,1225,730,-396,2262,52,59,868
788698,6083192,6376824,6087696,6382608,2538,1801,-104,-1776,1272,1639,-533,2925,52,59,868
789698,6083368,6377192,6087893,6382805,2747,2177,-173,-1670,1338,367,-571,3915,49,72,869
790700,6083532,6377516,6088090,6383002,2838,2397,-171,-1479,1405,-199,494,3996,49,72,869
791700,6083724,6377880,6088287,6383199,2666,2075,-160,-1353,1448,589,-160,3597,46,61,874
792701,6083924,6378280,6088484,6383396,2615,1762,-159,-1235,1288,3112,-301,3310,46,61,874
793703,6084120,6378680,6088681,6383593,2642,1674,-110,-1044,1125,2049,-535,4523,36,76,869
794704,6084352,6379020,6088878,6383790,2402,1987,-28,-819,1196,-123,-573,4110,36,76,869
795705,6084572,6379432,6089075,6383987,2468,1443,-39,-820,1295,1258,-513,2190,61,77,873
796706,6084808,6379824,6089272,6384184,2351,1484,-90,-752,1362,1164,-838,3115,61,77,873
797707,6085024,6380168,6089469,6384381,2469,1720,-63,-501,1321,1702,-605,4574,55,69,874
798707,6085268,6380540,6089666,6384578,2274,1469,15,-265,1237,1349,-605,3370,55,69,874
799709,6085524,6380956,6089863,6384775,2174,1098,-1,-308,1201,956,-271,1430,58,62,877
800709,6085760,6381332,6090060,6384972,2283,1270,6,-382,1142,1934,7,2754,58,62,877
801711,6086044,6381660,6090257,6385169,1946,1514,80,-96,1101,1276,-325,4080,48,64,878
802712,6086264,6382012,6090454,6385366,2336,1295,141,28,1121,303,-697,2086,48,64,878
803713,6086492,6382404,6090651,6385563,2273,961,191,146,1038,2124,-940,2601,51,65,879
804714,6086748,6382812,6090848,6385760,2073,769,191,436,984,2143,-1777,3380,51,65,879
805715,6087008,6383156,6091045,6385957,2022,1104,93,714,1177,467,-2734,2036,47,71,879
806716,6087268,6383520,6091242,6386154,1995,907,13,880,1315,906,-1362,1948,47,71,879
807717,6087556,6383920,6091439,6386351,1780,593,88,1042,1249,856,-505,2563,46,65,881
808718,6087812,6384276,6091636,6386548,1955,799,318,1205,990,963,-70,2569,46,65,881
809719,6088020,6384592,6091833,6386745,2251,997,557,1406,728,1101,242,2915,43,69,882
810720,6088296,6384988,6092030,6386942,1791,410,625,1645,546,1965,1090,1705,43,69,882
811721,6088608,6385348,6092227,6387139,1517,564,512,1786,459,2142,656,720,43,78,883
812722,6088868,6385676,6092424,6387336,1815,706,444,1991,472,703,565,2321,43,78,883
813723,6089128,6385968,6092621,6387533,1789,890,526,2238,499,254,-61,2139,67,54,885
814724,6089360,6386260,6092818,6387730,1948,848,671,2380,428,1766,-2479,2063,67,54,885
815725,6089600,6386624,6093015,6387927,1880,325,919,2905,283,2219,-1165,4597,60,59,884
816725,6089904,6386936,6093212,6388124,1434,600,965,3265,295,511,-131,1869,60,59,884
817727,6090192,6387192,6093409,6388321,1494,925,851,3348,404,549,322,497,57,62,882
818728,6090456,6387408,6093606,6388518,1616,1166,700,3387,443,1635,-1805,1839,57,62,882
819729,6090708,6387648,6093803,6388715,1667,997,725,3898,364,1658,-1302,4994,44,48,886
820730,6090984,6387888,6094000,6388912,1483,979,704,4397,394,444,-30,3873,44,48,886
821731,6091272,6388148,6094197,6389109,1369,826,594,4330,457,433,568,1267,47,52,884
822732,6091560,6388348,6094394,6389306,1329,1200,635,4066,536,-366,-77,3938,47,52,884
823732,6091860,6388536,6094591,6389503,1210,1279,870,3509,525,-327,-477,3549,49,49,885
824734,6092092,6388700,6094788,6389700,1619,1444,1199,2747,587,-1144,-1220,4073,49,49,885
825735,6092392,6388908,6094985,6389897,1150,1164,1402,2004,664,-176,-1913,4957,47,39,885
826736,6092700,6389176,6095182,6390094,1051,758,1381,1758,679,-588,-1741,4567,47,39,885
827737,6092972,6389372,6095379,6390291,1244,1209,1092,2006,713,-1634,-25,4924,65,36,882
828738,6093220,6389592,6095576,6390488,1372,1049,691,2480,716,-1225,616,5474,65,36,882
829739,6093464,6389772,6095773,6390685,1377,1307,415,2917,587,104,289,5459,59,46,887
830740,6093768,6389944,6095970,6390882,955,1368,253,2656,422,-106,57,3951,59,46,887
831741,6094032,6390112,6096167,6391079,1176,1405,329,1853,342,-254,-2034,5098,62,34,885
832741,6094292,6390320,6096364,6391276,1174,1151,534,1181,246,794,-1736,6075,62,34,885
833742,6094548,6390556,6096561,6391473,1173,959,537,634,89,469,1405,4382,44,47,886
834743,6094772,6390772,6096758,6391670,1362,1076,601,-161,-34,-864,823,3704,44,47,886
835745,6094976,6390980,6096955,6391867,1484,1121,646,-998,-99,-887,-805,4750,47,48,885
836745,6095180,6391180,6097152,6392064,1481,1170,519,-1251,-173,-116,1320,4779,47,48,885
837746,6095360,6391408,6097349,6392261,1640,981,223,-1046,-264,205,3019,5290,44,37,885
838747,6095516,6391576,6097546,6392458,1808,1369,-114,-1121,-403,1087,1828,3613,44,37,885
839748,6095680,6391808,6097743,6392655,1772,955,-175,-1543,-588,2092,248,5631,45,40,883
840749,6095832,6392044,6097940,6392852,1868,913,-176,-2091,-752,2355,-41,5608,45,40,883
841758,6095984,6392264,6098170,6393082,1902,1017,-347,-2351,-813,1892,771,4672,23,44,880
842751,6096144,6392460,6098367,6393279,1869,1167,-703,-2185,-723,1065,1799,5396,23,44,880
843753,6096308,6392628,6098564,6393476,1859,1355,-1018,-1825,-587,1001,1424,5732,29,25,883
844754,6096472,6392804,6098761,6393673,1874,1314,-1171,-1747,-492,1491,507,5693,29,25,883
845755,6096632,6392944,6098958,6393870,1916,1565,-1202,-1987,-429,1927,475,5520,22,28,882
846756,6096772,6393088,6099155,6394067,2066,1564,-1257,-2463,-321,1919,828,4487,22,28,882
847757,6096896,6393272,6099352,6394264,2199,1319,-1375,-2853,-183,2447,1613,4671,39,39,881
848757,6097056,6393448,6099549,6394461,1990,1379,-1530,-3054,-109,2898,1336,4569,39,39,881
849759,6097232,6393600,6099746,6394658,1900,1548,-1680,-3128,-90,2662,705,4380,21,34,879
850760,6097400,6393744,6099943,6394855,1963,1623,-1825,-3051,-59,2552,-44,4431,21,34,879
851761,6097572,6393900,6100140,6395052,1950,1566,-1889,-2810,50,2439,749,5452,31,23,878
852762,6097776,6394016,6100337,6395249,1747,1851,-1901,-2511,220,2396,692,4860,31,23,878
853763,6097960,6394132,6100534,6395446,1879,1887,-1856,-2433,394,2276,794,4366,27,25,878
854763,6098144,6394264,6100731,6395643,1884,1816,-1750,-2426,564,2014,204,4781,27,25,878
855764,6098356,6394376,6100928,6395840,1704,1979,-1647,-2462,679,2291,-675,4289,38,18,879
856765,6098540,6394524,6101125,6396037,1884,1775,-1579,-2521,698,2653,-618,3970,38,18,879
857767,6098760,6394644,6101322,6396234,1650,1984,-1586,-2514,668,2444,-902,3556,28,27,878
858767,6098960,6394764,6101519,6396431,1774,2019,-1650,-2419,658,2253,-430,3416,28,27,878
859769,6099184,6394868,6101716,6396628,1613,2160,-1711,-2158,711,2000,269,4016,28,30,878
860770,6099376,6394992,6101913,6396825,1815,2067,-1661,-1843,779,2039,-1202,4828,28,30,878
861771,6099604,6395092,6102110,6397022,1578,2261,-1446,-1499,794,1851,-1119,5924,43,12,876
862771,6099812,6395220,6102307,6397219,1698,2116,-1185,-1181,819,1102,-1051,5509,43,12,876
863773,6100008,6395312,6102504,6397416,1774,2387,-1055,-986,890,968,-1568,3903,49,11,876
864773,6100220,6395424,6102701,6397613,1668,2300,-1063,-836,886,2305,-2047,3342,49,11,876
865775,6100448,6395568,6102898,6397810,1555,2124,-988,-645,801,2839,-2791,4458,28,19,877
866776,6100660,6395684,6103095,6398007,1649,2335,-738,-352,731,2466,-3012,5400,28,19,877
867777,6100844,6395800,6103292,6398204,1829,2371,-434,-73,649,2790,-2968,4870,50,28,876
868778,6101076,6395936,6103489,6398401,1515,2273,-162,205,655,1816,-2936,4895,50,28,876
869779,6101312,6396076,6103686,6398598,1473,2274,45,419,853,439,-2233,4752,34,34,876
870780,6101544,6396244,6103883,6398795,1483,2112,106,503,1094,688,-2472,2990,34,34,876
871781,6101812,6396384,6104080,6398992,1227,2313,92,543,1296,524,-1665,3329,55,25,878
872781,6102060,6396508,6104277,6399189,1331,2445,178,686,1412,1010,-2136,4891,55,25,878
873783,6102276,6396632,6104474,6399386,1522,2478,334,865,1399,1793,-1665,5018,35,32,877
874784,6102516,6396752,6104671,6399583,1355,2537,469,793,1402,942,-1524,4298,35,32,877
875785,6102740,6396872,6104868,6399780,1443,2571,591,503,1400,632,-1642,4432,35,17,877
876785,6102968,6397016,6105065,6399977,1404,2446,750,201,1359,234,-2100,5726,35,17,877
877787,6103200,6397140,6105262,6400174,1365,2603,941,62,1270,250,-1899,6701,47,23,876
878787,6103396,6397296,6105459,6400371,1590,2422,968,-175,1172,163,-1408,4310,47,23,876
879788,6103608,6397440,6105656,6400568,1485,2520,839,-350,1101,-51,-694,4694,36,30,876
880789,6103836,6397604,6105853,6400765,1371,2411,736,-220,1022,-47,-1898,6755,36,30,876
881791,6104040,6397768,6106050,6400962,1518,2425,689,105,961,-612,-1157,6751,29,38,876
882791,6104240,6397920,6106247,6401159,1542,2521,594,70,998,-1347,-922,4350,29,38,876
883792,6104440,6398072,6106444,6401356,1541,2542,538,-124,1002,-244,-818,5252,46,37,876
884794,6104656,6398208,6106641,6401553,1433,2668,547,-440,1009,-38,-1323,5051,46,37,876
885795,6104840,6398360,6106838,6401750,1640,2589,586,-810,1051,-132,-910,4296,44,35,874
886796,6105056,6398504,6107035,6401947,1431,2664,576,-1103,1084,-30,-782,4132,44,35,874
887796,6105268,6398696,6107232,6402144,1451,2366,470,-1211,1051,209,-278,3210,33,30,875
888797,6105456,6398880,6107429,6402341,1605,2422,268,-1002,972,1142,842,3618,33,30,875
889799,6105636,6399116,6107626,6402538,1662,2081,-5,-635,922,1487,659,3024,28,51,875
890799,6105840,6399384,6107823,6402735,1510,1850,-223,-228,781,2929,1006,3273,28,51,875
891800,6106032,6399668,6108020,6402932,1587,1713,-427,-141,551,3107,2799,1050,35,52,876
892802,6106216,6399920,6108217,6403129,1643,1889,-633,-60,520,1082,1528,1676,35,52,876
893803,6106444,6400208,6108414,6403326,1355,1625,-694,137,671,1002,-897,3117,42,53,881
894803,6106616,6400500,6108611,6403523,1716,1559,-530,383,789,1698,-978,3795,42,53,881
895804,6106824,6400796,6108808,6403720,1487,1490,-276,310,906,417,-630,2485,32,54,878
896805,6107000,6401060,6109005,6403917,1697,1662,-74,-119,1049,-561,286,2222,32,54,878
897807,6107184,6401336,6109202,6404114,1652,1552,53,-452,1121,-569,304,3758,32,49,881
898808,6107344,6401616,6109399,6404311,1820,1492,76,-759,844,1575,639,2733,32,49,881
899808,6107544,6401880,6109596,6404508,1568,1562,92,-1028,455,1000,573,3834,48,57,881
900809,6107708,6402152,6109793,6404705,1809,1480,125,-1262,201,-142,371,3995,48,57,881
901810,6107884,6402404,6109990,6404902,1743,1581,148,-1316,-5,515,1180,4337,39,47,881
902811,6108088,6402644,6110187,6405099,1565,1638,130,-1212,-119,-27,144,3847,39,47,881
903812,6108280,6402892,6110384,6405296,1643,1566,105,-1155,-228,144,944,3711,41,56,881
904813,6108428,6403168,6110581,6405493,1940,1357,83,-1122,-331,-39,-15,3439,41,56,881
905815,6108592,6403396,6110778,6405690,1855,1644,67,-1211,-414,35,43,3389,24,53,880
906815,6108768,6403592,6110975,6405887,1789,1845,125,-1317,-493,907,1183,4210,24,53,880
907816,6108916,6403800,6111172,6406084,1986,1765,246,-1495,-454,1041,247,4016,42,34,879
908818,6109060,6404000,6111369,6406281,2035,1814,310,-1706,-307,1434,533,2800,42,34,879
909819,6109236,6404204,6111566,6406478,1844,1787,256,-1807,-110,1616,309,2331,41,33,879
910820,6109384,6404396,6111763,6406675,2042,1864,184,-1763,160,1412,-716,3153,41,33,879
911821,6109548,6404560,6111960,6406872,1956,2055,189,-1453,411,2149,365,4875,34,27,877
912822,6109724,6404752,6112157,6407069,1892,1882,218,-898,675,2184,-405,5468,34,27,877
913823,6109864,6404924,6112354,6407266,2142,2019,206,-263,934,2324,-56,5339,41,27,877
914824,6110012,6405088,6112551,6407463,2114,2083,124,358,1080,2509,786,5266,41,27,877
915825,6110156,6405252,6112748,6407660,2163,2099,29,870,1184,1858,-760,4747,30,39,877
916826,6110284,6405424,6112945,6407857,2294,2060,-37,1320,1287,1713,-208,4448,30,39,877
917827,6110420,6405624,6113142,6408054,2271,1883,-115,1682,1409,1296,-203,3954,19,29,874
918828,6110568,6405824,6113339,6408251,2218,1883,-214,1935,1525,1082,-228,3754,19,29,874
919829,6110696,6406028,6113536,6408448,2374,1855,-333,2090,1560,1419,-854,3331,27,36,874
920830,6110804,6406276,6113733,6408645,2539,1559,-415,2169,1531,1134,-854,3746,27,36,874
921831,6110956,6406492,6113930,6408842,2283,1750,-421,2220,1523,285,-1089,4284,33,38,875
922832,6111144,6406712,6114127,6409039,2063,1716,-418,2225,1417,609,-639,3588,33,38,875
923833,6111308,6406944,6114324,6409236,2228,1626,-460,2249,1284,152,-158,3541,46,46,876
924843,6111496,6407208,6114554,6409466,2097,1412,-499,2235,1222,-143,-575,3436,46,46,876
925835,6111672,6407480,6114751,6409663,2182,1329,-521,2214,1183,-60,-1409,3100,42,41,878
926836,6111852,6407832,6114948,6409860,2165,761,-535,2241,1118,118,215,3528,42,41,878
927837,6112004,6408088,6115145,6410057,2361,1336,-594,2221,1113,-83,-854,3542,49,63,877
928838,6112184,6408276,6115342,6410254,2193,1765,-672,2214,1142,-76,-1107,3697,49,63,877
929839,6112340,6408456,6115539,6410451,2362,1823,-737,2183,1140,90,-546,3753,30,54,879
930840,6112500,6408628,6115736,6410648,2354,1884,-761,2181,1134,-4,-1111,3639,30,54,879
931841,6112680,6408832,6115933,6410845,2237,1681,-720,2192,1090,701,1115,4353,32,37,877
932842,6112832,6409016,6116130,6411042,2433,1813,-646,2256,1064,504,758,4316,32,37,877
933843,6112972,6409240,6116327,6411239,2533,1551,-639,2227,1000,-62,847,3555,34,42,875
934844,6113128,6409476,6116524,6411436,2452,1460,-769,2075,934,-849,-263,2755,34,42,875
935845,6113268,6409656,6116721,6411633,2578,1817,-860,1897,856,-653,251,3858,29,43,875
936846,6113428,6409916,6116918,6411830,2469,1290,-790,1872,733,-261,1109,5520,29,43,875
937847,6113600,6410244,6117115,6412027,2406,808,-706,1625,711,-1076,-362,3555,27,64,877
938848,6113756,6410536,6117312,6412224,2525,991,-617,1234,733,-278,-443,4266,27,64,877
939849,6113908,6410780,6117509,6412421,2570,1271,-522,925,735,322,-2096,4560,36,48,877
940850,6114076,6411036,6117706,6412618,2484,1171,-448,727,755,-202,-1609,4575,36,48,877
941851,6114252,6411300,6117903,6412815,2444,1091,-411,775,881,-874,-1557,5236,47,47,877
942852,6114428,6411580,6118100,6413012,2453,955,-443,918,1002,-114,-2127,4918,47,47,877
943853,6114572,6411800,6118297,6413209,2677,1320,-421,1062,1015,100,-2493,5865,48,52,877
944854,6114772,6411984,6118494,6413406,2327,1551,-393,963,849,-61,-2476,5085,48,52,877
945855,6114932,6412176,6118691,6413603,2593,1504,-381,843,551,278,-1119,5892,25,38,879
946856,6115104,6412412,6118888,6413800,2530,1211,-358,725,230,-398,195,6602,25,38,879
947857,6115280,6412612,6119085,6413997,2516,1436,-355,215,-146,-663,-349,4436,27,47,877
948858,6115436,6412836,6119282,6414194,2660,1274,-303,-290,-577,-266,-66,6322,27,47,877
949859,6115596,6413048,6119479,6414391,2651,1343,-283,-600,-898,-1515,-407,5746,31,35,876
950860,6115776,6413236,6119676,6414588,2534,1497,-328,-629,-1054,-1656,-377,6438,31,35,876
951861,6115944,6413436,6119873,6414785,2623,1421,-352,-415,-1152,-487,-461,7168,27,40,875
952862,6116076,6413656,6120070,6414982,2878,1286,-337,-252,-1222,-118,-856,6388,27,40,875
953863,6116220,6413936,6120267,6415179,2826,875,-267,-198,-1257,284,-2068,6294,42,52,875
954864,6116376,6414164,6120464,6415376,2770,1186,-138,-314,-1281,790,-3783,5364,42,52,875
955865,6116536,6414368,6120661,6415573,2762,1334,21,-530,-1369,1107,-2929,4593,42,38,874
956866,6116696,6414580,6120858,6415770,2780,1277,188,-715,-1499,1045,-1973,4720,42,38,874
957867,6116832,6414760,6121055,6415967,2956,1485,277,-816,-1675,1160,-1445,3843,41,34,876
958868,6116988,6414956,6121252,6416164,2850,1385,280,-644,-1871,1081,-1107,4507,41,34,876
959869,6117128,6415212,6121449,6416361,2976,984,230,-278,-2048,1028,-990,4329,27,39,875
960870,6117320,6415448,6121646,6416558,2655,1093,138,87,-2109,730,-558,4021,27,39,875
961871,6117492,6415648,6121843,6416755,2792,1317,96,547,-2023,-109,55,5190,28,47,872
962872,6117680,6415836,6122040,6416952,2697,1396,195,474,-2044,248,-82,4310,28,47,872
963873,6117900,6416016,6122237,6417149,2486,1453,319,259,-2160,1418,-298,5144,41,34,877
964874,6118072,6416188,6122434,6417346,2798,1515,441,56,-2209,772,-698,5310,41,34,877
965874,6118256,6416356,6122631,6417543,2730,1553,484,-178,-2176,547,-676,4162,29,33,875
966876,6118436,6416512,6122828,6417740,2764,1646,470,-301,-2184,1117,-147,4871,29,33,875
967877,6118616,6416672,6123025,6417937,2772,1637,380,-253,-2218,359,-1046,3907,37,25,874
968878,6118792,6416820,6123222,6418134,2807,1734,299,-119,-2237,179,-544,4746,37,25,874
969879,6119008,6416952,6123419,6418331,2549,1864,266,112,-2253,870,-920,4667,40,22,873
970880,6119192,6417088,6123616,6418528,2756,1865,233,234,-2279,715,-913,3872,40,22,873
971881,6119376,6417212,6123813,6418725,2762,1972,245,227,-2259,157,-724,4294,33,32,871
972882,6119620,6417308,6124010,6418922,2368,2193,265,106,-2172,-471,-1152,3817,33,32,871
973883,6119820,6417404,6124207,6419119,2642,2237,294,-41,-2192,976,-1030,3997,55,25,871
974884,6120036,6417488,6124404,6419316,2535,2362,336,-31,-2219,1311,-755,4769,55,25,871
975885,6120284,6417600,6124601,6419513,2313,2224,275,-135,-2179,423,-227,3026,53,13,873
976886,6120496,6417692,6124798,6419710,2532,2396,155,-194,-2151,768,-1199,3954,53,13,873
977887,6120732,6417780,6124995,6419907,2366,2469,84,-15,-2123,663,-872,5231,36,24,871
978888,6120972,6417876,6125192,6420104,2323,2465,-29,20,-2097,242,-185,3227,36,24,871
979889,6121248,6417980,6125389,6420301,2064,2455,-145,-26,-2159,1036,207,3999,40,13,871
980890,6121484,6418108,6125586,6420498,2297,2337,-189,-57,-2162,-84,-707,4623,40,13,871
981891,6121732,6418248,6125783,6420695,2201,2287,-213,-241,-2123,-96,-616,3292,49,19,871
982892,6122004,6418396,6125980,6420892,2019,2258,-205,-449,-2082,180,-411,3988,49,19,871
983893,6122284,6418532,6126177,6421089,1933,2361,-213,-617,-2069,449,-745,3872,51,20,872
984894,6122552,6418652,6126374,6421286,1978,2495,-212,-693,-2056,232,-380,3665,51,20,872
985895,6122848,6418756,6126571,6421483,1760,2637,-239,-750,-2036,155,-384,3742,43,34,875
986896,6123124,6418868,6126768,6421680,1851,2624,-252,-767,-2035,222,109,3069,43,34,875
987897,6123400,6418988,6126965,6421877,1817,2609,-291,-813,-2049,422,59,3141,58,34,873
988898,6123720,6419108,6127162,6422074,1488,2643,-257,-795,-2072,690,-36,3462,58,34,873
989899,6124016,6419244,6127359,6422271,1596,2571,-205,-846,-2055,453,-95,3013,51,20,873
990900,6124308,6419372,6127556,6422468,1580,2652,-128,-963,-1958,-247,-488,2728,51,20,873
991901,6124620,6419512,6127753,6422665,1404,2602,-22,-1105,-1858,82,-716,3075,64,35,874
992902,6124916,6419656,6127950,6422862,1462,2601,72,-1269,-1781,59,-47,2417,64,35,874
993903,6125204,6419772,6128147,6423059,1472,2812,116,-1495,-1730,137,87,2170,68,31,873
994904,6125520,6419884,6128344,6423256,1246,2875,165,-1575,-1692,90,175,2572,68,31,873
995905,6125796,6420016,6128541,6423453,1461,2780,179,-1650,-1630,-406,126,1993,69,17,872
996906,6126092,6420132,6128738,6423650,1293,2915,176,-1710,-1611,180,507,2181,69,17,872
997907,6126400,6420240,6128935,6423847,1171,3006,187,-1682,-1637,356,285,2563,70,34,874
998908,6126712,6420380,6129132,6424044,1095,2832,217,-1681,-1647,65,-401,2570,70,34,874
999909,6126980,6420504,6129329,6424241,1339,2964,297,-1808,-1625,-155,-66,2279,63,21,874
1000910,6127252,6420644,6129526,6424438,1282,2890,382,-2116,-1608,83,351,1948,63,21,874
1001911,6127556,6420768,6129723,6424635,1035,3023,449,-2350,-1532,-266,229,2409,59,35,875
1002912,6127824,6420884,6129920,6424832,1230,3109,454,-2546,-1445,110,759,2199,59,35,875
1003913,6128112,6421024,6130117,6425029,1065,2985,411,-2660,-1365,-20,867,2191,70,17,873
1004914,6128388,6421140,6130314,6425226,1106,3171,335,-2733,-1284,81,379,2559,70,17,873
1005915,6128656,6421272,6130511,6425423,1125,3101,261,-2687,-1267,972,350,2810,57,18,871
1006916,6128896,6421412,6130708,6425620,1281,3077,222,-2705,-1251,648,312,2651,57,18,871
1007924,6129160,6421524,6130938,6425850,1117,3304,188,-2820,-1193,587,55,2726,56,31,872
1008918,6129384,6421656,6131135,6426047,1355,3208,234,-2972,-1127,516,257,2973,56,31,872
1009919,6129604,6421800,6131332,6426244,1370,3157,191,-3168,-1040,453,592,2385,61,19,872
1010920,6129856,6421972,6131529,6426441,1147,2994,136,-3303,-956,476,716,2577,61,19,872
1011921,6130124,6422120,6131726,6426638,1016,3167,59,-3338,-890,476,692,3378,57,32,871
1012922,6130352,6422300,6131923,6426835,1252,2975,17,-3353,-839,477,1223,2952,57,32,871
1013923,6130596,6422464,6132120,6427032,1132,3091,-71,-3537,-795,388,628,2418,55,45,874
1014924,6130848,6422660,6132317,6427229,1058,2891,-92,-3579,-727,326,633,3630,55,45,874
1015925,6131076,6422844,6132514,6427426,1194,2973,-139,-3740,-686,762,467,2805,45,34,872
1016926,6131328,6423016,6132711,6427623,1020,3060,-193,-3849,-658,598,889,3004,45,34,872
1017927,6131600,6423212,6132908,6427820,863,2912,-263,-3939,-616,594,698,3517,40,47,874
1018928,6131832,6423396,6133105,6428017,1098,2993,-345,-3984,-576,573,1059,3083,40,47,874
1019929,6132076,6423596,6133302,6428214,1002,2893,-445,-4039,-511,179,985,3158,61,46,874
1020930,6132340,6423800,6133499,6428411,848,2866,-544,-4058,-438,293,483,3533,61,46,874
1021931,6132560,6424000,6133696,6428608,1114,2891,-562,-4044,-317,19,41,4118,41,35,874
1022931,6132780,6424204,6133893,6428805,1104,2862,-526,-3851,-316,1737,504,5316,41,35,874
1023933,6133056,6424376,6134090,6429002,719,3074,-573,-3747,-373,1754,-161,3365,57,38,875
1024934,6133284,6424608,6134287,6429199,1005,2685,-653,-3588,-220,-223,318,4582,51,35,875
1025935,6133500,6424860,6134484,6429396,1072,2537,-701,-3433,-56,837,83,4554,51,35,875
1026936,6133744,6425056,6134681,6429593,877,2888,-667,-3292,43,1043,193,4852,53,38,875
1027937,6133940,6425248,6134878,6429790,1178,2916,-636,-3339,103,1300,581,4065,53,38,875
1028938,6134136,6425436,6135075,6429987,1178,2946,-605,-3448,157,1342,113,4379,51,35,875
1029939,6134328,6425672,6135272,6430184,1205,2630,-583,-3569,239,813,-70,4676,51,35,875
1030940,6134508,6425880,6135469,6430381,1288,2800,-570,-3641,302,1000,-616,4489,24,48,874
1031941,6134684,6426112,6135666,6430578,1322,2636,-545,-3549,356,1035,-236,5558,24,48,874
1032941,6134864,6426328,6135863,6430775,1306,2729,-506,-3389,360,1943,-1033,5505,47,38,875
1033943,6135064,6426532,6136060,6430972,1179,2802,-467,-3196,350,2136,-403,6161,47,38,875
1034944,6135236,6426724,6136257,6431169,1365,2880,-430,-2985,407,1641,-703,5520,33,43,875
1035945,6135396,6426920,6136454,6431366,1456,2856,-451,-2899,533,1273,-1000,5357,33,43,875
1036946,6135588,6427164,6136651,6431563,1259,2536,-416,-2714,673,1343,-1636,6303,45,41,872
1037947,6135768,6427368,6136848,6431760,1342,2784,-412,-2643,738,1707,-1172,4994,45,41,872
1038947,6135936,6427580,6137045,6431957,1430,2728,-394,-2610,837,778,-1269,5480,44,34,875
1039949,6136084,6427800,6137242,6432154,1576,2669,-351,-2560,903,1284,-1329,5987,44,34,875
1040950,6136244,6427992,6137439,6432351,1518,2847,-328,-2572,909,1303,-1551,5103,42,46,875
1041951,6136408,6428208,6137636,6432548,1507,2690,-364,-2581,897,1318,-1470,5182,42,46,875
1042952,6136544,6428444,6137833,6432745,1710,2548,-417,-2554,929,686,-1480,5417,30,31,874
1043953,6136692,6428648,6138030,6432942,1656,2746,-451,-2471,1004,244,-1403,5471,30,31,874
1044954,6136832,6428836,6138227,6433139,1732,2850,-482,-2463,1055,760,-2079,5163,22,32,874
1045955,6137008,6429024,6138424,6433336,1516,2855,-488,-2371,1043,1325,-1880,5799,22,32,874
1046956,6137160,6429212,6138621,6433533,1687,2860,-500,-2376,1037,1055,-2072,4940,22,42,872
1047957,6137320,6429376,6138818,6433730,1653,3026,-478,-2335,1030,1416,-1833,5557,22,42,872
1048958,6137472,6429572,6139015,6433927,1723,2826,-433,-2358,1037,1261,-1946,4744,23,43,871
1049959,6137612,6429772,6139212,6434124,1824,2801,-374,-2411,1077,870,-1595,4806,23,43,871
1050960,6137772,6429920,6139409,6434321,1715,3149,-303,-2369,1105,1146,-1350,4954,32,40,872
1051961,6137952,6430132,6139606,6434518,1597,2743,-265,-2370,1152,799,-1201,4199,32,40,872
1052962,6138116,6430316,6139803,6434715,1713,2925,-242,-2320,1140,1584,-1421,4201,44,34,870
1053963,6138288,6430512,6140000,6434912,1674,2851,-143,-2286,1177,610,-1341,4645,44,34,870
1054963,6138460,6430676,6140197,6435109,1685,3066,-17,-2215,1141,1902,-1399,4298,47,36,872
1055965,6138636,6430840,6140394,6435306,1669,3081,80,-2172,1118,1727,-1086,4155,47,36,872
1056966,6138796,6431004,6140591,6435503,1786,3097,111,-2028,1128,1928,-682,3931,26,26,871
1057967,6138972,6431196,6140788,6435700,1696,2925,101,-1956,1206,997,-1165,3234,26,26,871
1058968,6139152,6431360,6140985,6435897,1679,3115,176,-1770,1278,1065,-725,4894,41,43,868
1059969,6139348,6431560,6141182,6436094,1579,2890,237,-1692,1295,1660,-1948,3332,41,43,868
1060970,6139532,6431744,6141379,6436291,1660,2997,302,-1634,1305,1254,-1205,3994,48,31,869
1061971,6139724,6431900,6141576,6436488,1613,3190,422,-1610,1355,394,-1542,3982,48,31,869
1062972,6139924,6432060,6141773,6436685,1562,3182,563,-1584,1366,647,-610,4169,50,25,870
1063973,6140096,6432228,6141970,6436882,1748,3146,633,-1587,1305,1271,-853,3184,50,25,870
1064974,6140316,6432428,6142167,6437079,1439,2945,603,-1660,1323,59,-47,2920,39,40,870
1065975,6140492,6432584,6142364,6437276,1723,3239,557,-1699,1342,364,-45,3254,39,40,870
1066976,6140692,6432724,6142561,6437473,1572,3365,545,-1436,1349,217,-386,4710,47,24,872
1067977,6140892,6432864,6142758,6437670,1572,3392,495,-1120,1301,837,-560,3938,47,24,872
1068978,6141068,6433020,6142955,6437867,1731,3311,460,-881,1287,587,-787,4465,50,19,868
1069979,6141248,6433176,6143152,6438064,1713,3330,489,-832,1304,824,-1256,4215,50,19,868
1070980,6141428,6433328,6143349,6438261,1722,3374,584,-957,1280,1355,-662,3817,26,23,866
1071981,6141596,6433484,6143546,6438458,1809,3368,651,-1327,1282,923,-320,2949,26,23,866
1072982,6141792,6433628,6143743,6438655,1635,3468,655,-1472,1332,649,-212,3802,32,34,867
1073983,6141964,6433780,6143940,6438852,1797,3438,582,-1424,1379,175,-769,3411,32,34,867
1074984,6142144,6433972,6144137,6439049,1754,3192,503,-1071,1429,-500,-422,4314,32,26,868
1075985,6142320,6434160,6144334,6439246,1790,3222,401,-772,1519,-1337,447,4111,32,26,868
1076986,6142484,6434332,6144531,6439443,1879,3334,303,-492,1649,-1024,156,4056,29,29,869
1077987,6142664,6434496,6144728,6439640,1787,3399,191,-519,1594,1247,-171,3252,29,29,869
1078988,6142796,6434668,6144925,6439837,2116,3361,201,-471,1608,15,-1170,5588,43,29,865
1079989,6142940,6434808,6145122,6440034,2064,3587,160,-587,1737,-776,-906,2965,43,29,865
1080990,6143104,6434976,6145319,6440231,1955,3426,8,-871,1590,2618,873,2524,23,42,865
1081991,6143236,6435164,6145516,6440428,2183,3306,18,-778,1114,4603,-299,5873,23,42,865
1082992,6143404,6435340,6145713,6440625,1971,3391,109,-588,1015,-531,-614,5672,33,41,865
1083993,6143580,6435504,6145910,6440822,1931,3482,23,-708,1139,-776,1202,1751,33,41,865
1084994,6143740,6435648,6146107,6441019,2048,3631,-146,-895,1208,575,-117,3539,47,31,866
1085995,6143884,6435788,6146304,6441216,2172,3682,-250,-813,1152,1037,-225,4425,47,31,866
1086996,6144052,6435932,6146501,6441413,2035,3681,-315,-734,1201,-721,-51,3344,44,24,864
1088009,6144196,6436052,6146698,6441610,2209,3800,-389,-830,1223,201,258,3042,44,24,864
1088998,6144352,6436188,6146895,6441807,2152,3794,-348,-794,1172,801,-198,4597,27,24,863
1089999,6144512,6436340,6147092,6442004,2144,3715,-292,-800,1135,364,-888,3888,27,24,863
1091020,6144676,6436484,6147322,6442234,2148,3800,-279,-805,1136,-121,-292,3476,42,29,861
1092001,6144808,6436636,6147519,6442431,2378,3775,-256,-819,1197,-561,-177,3829,42,29,861
1093002,6144944,6436788,6147716,6442628,2380,3796,-263,-845,1170,559,-291,2898,43,30,860
1094015,6145084,6436916,6147913,6442825,2381,3800,-258,-858,1116,341,-59,3464,43,30,860
1095017,6145212,6437072,6148110,6443022,2486,3800,-280,-875,1145,-576,-1166,2925,21,31,859
1096017,6145348,6437216,6148307,6443219,2464,3800,-274,-807,1107,360,-689,3730,21,31,859
1097019,6145476,6437364,6148504,6443416,2544,3800,-236,-772,1034,257,-949,3361,38,22,859
1098020,6145624,6437524,6148701,6443613,2442,3800,-184,-693,980,327,-60,4382,38,22,859
1099020,6145752,6437680,6148898,6443810,2598,3800,-166,-585,945,895,-175,3939,21,42,859
1100021,6145900,6437836,6149095,6444007,2495,3800,-204,-596,995,-209,-1534,2911,21,42,859
1101009,6146032,6438052,6149292,6444204,2624,3542,-176,-645,1042,-330,-1113,3921,28,49,860
1102011,6146172,6438268,6149489,6444401,2599,3535,-71,-725,1006,-206,-439,3602,28,49,860
1103011,6146324,6438488,6149686,6444598,2545,3501,1,-877,957,126,121,3156,43,48,861
1104013,6146436,6438720,6149883,6444795,2833,3411,12,-1075,946,872,-282,2666,43,48,861
1105013,6146560,6438924,6150080,6444992,2790,3585,31,-1233,940,1195,-1004,3316,27,38,861
1106015,6146680,6439196,6150277,6445189,2850,3128,92,-1265,933,732,-1226,3868,27,38,861
1107016,6146800,6439464,6150474,6445386,2885,3123,113,-1185,933,271,-414,3440,40,49,860
1108017,6146936,6439748,6150671,6445583,2812,2986,55,-996,921,493,677,4197,40,49,860
1109018,6147096,6440056,6150868,6445780,2679,2788,-65,-851,910,789,-182,3431,41,63,863
1110019,6147276,6440324,6151065,6445977,2563,3008,-154,-623,871,1133,-687,4719,41,63,863
1111020,6147424,6440648,6151262,6446174,2784,2603,-235,-486,905,-71,-1539,3537,46,51,867
1112021,6147564,6440980,6151459,6446371,2860,2495,-364,-592,898,482,-247,2317,46,51,867
1113022,6147692,6441280,6151656,6446568,2966,2650,-412,-580,908,142,69,4163,34,63,867
1114023,6147804,6441576,6151853,6446765,3105,2633,-413,-558,992,3,112,3466,34,63,867
1115024,6147936,6441884,6152050,6446962,3008,2510,-414,-622,1005,1635,-570,2995,28,55,865
1116025,6148104,6442260,6152247,6447159,2797,2007,-368,-585,966,1542,-611,4189,28,55,865
1117026,6148288,6442608,6152444,6447356,2704,2117,-351,-640,1062,-252,-863,2866,50,75,867
1118027,6148476,6442924,6152641,6447553,2684,2266,-333,-631,1236,-459,842,3574,50,75,867
1119028,6148700,6443228,6152838,6447750,2448,2295,-390,-749,1386,487,141,2408,54,59,871
1120029,6148900,6443628,6153035,6447947,2597,1606,-451,-872,1383,1675,-915,2788,54,59,871
1121029,6149064,6443976,6153232,6448144,2837,1866,-361,-791,1286,1619,-1168,4808,36,68,872
1122031,6149276,6444292,6153429,6448341,2532,2014,-184,-683,1261,430,-900,3846,36,68,872
1123032,6149468,6444604,6153626,6448538,2660,1989,-86,-781,1279,1299,-316,2693,47,60,872
1124033,6149684,6444992,6153823,6448735,2502,1431,-32,-825,1280,1859,-212,3445,47,60,872
1125034,6149920,6445352,6154020,6448932,2360,1536,34,-731,1303,984,-523,3523,60,60,871
1126035,6150120,6445700,6154217,6449129,2585,1544,112,-712,1429,-471,-750,3011,60,60,871
1127036,6150328,6446044,6154414,6449326,2531,1506,148,-705,1510,571,-367,2632,47,56,875
1128037,6150536,6446420,6154611,6449523,2527,1228,155,-572,1331,3092,-281,3467,47,56,875
1129038,6150768,6446760,6154808,6449720,2362,1390,165,-308,1145,1406,-328,3614,47,68,876
1130039,6151008,6447088,6155005,6449917,2294,1409,165,-324,1099,390,-229,1488,47,68,876
1131040,6151240,6447408,6155202,6450114,2330,1405,218,-263,1123,786,-278,3213,44,59,877
1132041,6151500,6447804,6155399,6450311,2128,843,254,-58,1136,1031,-871,3031,44,59,877
1133041,6151740,6448188,6155596,6450508,2235,836,307,244,1066,1292,-763,3428,60,62,877
1134043,6151972,6448520,6155793,6450705,2270,1103,388,581,946,1256,-555,4019,60,62,877
1135044,6152208,6448828,6155990,6450902,2229,1204,355,657,872,767,-2072,1036,39,65,880
1136045,6152480,6449216,6156187,6451099,1972,621,243,546,832,1115,-3353,837,39,65,880
1137045,6152732,6449636,6156384,6451296,2072,323,338,906,774,1227,-659,4961,59,59,879
1138047,6153020,6449936,6156581,6451493,1808,1028,459,1246,834,91,352,2155,59,59,879
1139048,6153276,6450228,6156778,6451690,1983,1037,441,1273,872,1503,271,743,59,73,883
1140049,6153504,6450584,6156975,6451887,2145,567,510,1444,764,3127,114,3601,59,73,883
1141050,6153776,6450924,6157172,6452084,1838,604,617,1776,647,1255,617,3578,52,73,882
1142051,6154064,6451228,6157369,6452281,1699,782,647,1742,618,100,704,-75,52,73,882
1143052,6154332,6451512,6157566,6452478,1793,870,633,1601,593,277,786,1415,61,57,884
1144052,6154596,6451816,6157763,6452675,1789,698,715,1856,480,1482,-719,3509,61,57,884
1145053,6154836,6452136,6157960,6452872,1921,544,836,2485,381,1813,-2756,4537,53,50,883
1146055,6155068,6452436,6158157,6453069,1956,624,885,3104,283,1969,535,3546,53,50,883
1147056,6155388,6452692,6158354,6453266,1353,873,756,3172,206,909,366,370,44,62,883
1148057,6155664,6452900,6158551,6453463,1593,1168,623,3226,230,576,-1129,2942,44,62,883
1149058,6155932,6453128,6158748,6453660,1613,1029,680,3532,281,1231,-1446,4631,41,39,884
1150059,6156184,6453372,6158945,6453857,1689,909,787,3621,314,323,277,2878,41,39,884
1151060,6156444,6453580,6159142,6454054,1612,1130,839,3330,384,-579,252,1879,49,34,883
1152061,6156736,6453776,6159339,6454251,1370,1205,867,3101,453,-188,-224,4616,49,34,883
1153061,6157008,6453960,6159536,6454448,1463,1286,968,3015,494,-116,-920,4560,49,46,883
1154063,6157312,6454152,6159733,6454645,1216,1238,1040,2654,514,-399,-495,3475,49,46,883
1155064,6157564,6454308,6159930,6454842,1518,1481,1076,2192,602,-985,-1378,4567,44,41,883
1156065,6157844,6454516,6160127,6455039,1307,1151,1126,1898,622,-233,-736,4696,44,41,883
1157066,6158152,6454732,6160324,6455236,1084,1093,1030,1771,585,-405,-615,5105,65,37,881
1158067,6158412,6454936,6160521,6455433,1356,1165,918,1763,532,-497,165,5212,65,37,881
1159068,6158656,6455144,6160718,6455630,1437,1135,833,1400,471,73,-552,4708,44,44,884
1160069,6158904,6455348,6160915,6455827,1389,1157,747,882,378,657,-1657,5281,44,44,884
1161069,6159148,6455512,6161112,6456024,1394,1422,646,728,237,710,41,5873,41,38,884
1162071,6159388,6455660,6161309,6456221,1401,1544,431,541,72,-72,1895,4630,41,38,884
1163072,6159636,6455876,6161506,6456418,1328,1111,411,-31,-16,-1053,291,4731,52,41,883
1164073,6159856,6456132,6161703,6456615,1493,835,558,-980,-59,-278,-623,5561,52,41,883
1165074,6160024,6456356,6161900,6456812,1832,1023,566,-1876,-128,1014,-1254,3873,30,40,884
1166075,6160236,6456584,6162097,6457009,1550,984,225,-2059,-337,2077,2298,4751,30,40,884
1167075,6160420,6456784,6162294,6457206,1732,1158,-254,-1366,-565,1548,3190,6480,44,35,882
1168076,6160612,6456980,6162491,6457403,1684,1183,-645,-679,-673,889,994,6019,44,35,882
1169077,6160780,6457180,6162688,6457600,1847,1157,-882,-419,-660,1632,-399,5762,39,35,882
1170079,6160976,6457452,6162885,6457797,1673,674,-992,-529,-568,1943,66,5093,39,35,882
1171080,6161132,6457696,6163082,6457994,1941,828,-1056,-871,-439,2026,488,5173,34,31,880
1172081,6161292,6457888,6163279,6458191,1933,1156,-1046,-1360,-265,1509,-142,4782,34,31,880
1173082,6161508,6458068,6163476,6458388,1575,1238,-1035,-1879,-84,1543,498,4873,30,40,883
1174090,6161656,6458236,6163706,6458618,2036,1340,-1081,-2309,94,1624,1113,4398,30,40,883
1175084,6161852,6458392,6163903,6458815,1737,1434,-1195,-2532,290,1743,808,4718,43,28,882
1176085,6162044,6458540,6164100,6459012,1765,1506,-1371,-2561,426,2416,961,4902,43,28,882
1177086,6162240,6458668,6164297,6459209,1740,1661,-1524,-2430,521,2256,1005,5123,36,25,880
1178087,6162400,6458824,6164494,6459406,1983,1504,-1646,-2354,630,1917,856,4889,36,25,880
1179088,6162612,6459004,6164691,6459603,1651,1362,-1733,-2359,745,2004,540,4566,43,38,879
1180089,6162792,6459148,6164888,6459800,1859,1610,-1797,-2443,846,1997,295,4301,43,38,879
1181090,6163008,6459332,6165085,6459997,1626,1366,-1758,-2541,950,1460,305,4510,48,19,879
1182091,6163236,6459456,6165282,6460194,1538,1773,-1633,-2664,1011,1254,979,4376,48,19,879
1183092,6163444,6459580,6165479,6460391,1659,1805,-1577,-2800,1008,1560,479,3537,47,34,881
1184093,6163636,6459692,6165676,6460588,1761,1918,-1556,-2726,971,2017,-1165,3902,47,34,881
1185094,6163844,6459816,6165873,6460785,1656,1875,-1523,-2501,951,1800,35,4373,38,27,879
1186095,6164068,6459936,6166070,6460982,1545,1934,-1456,-2249,931,1872,443,4083,38,27,879
1187096,6164296,6460080,6166267,6461179,1507,1807,-1367,-2116,857,1896,-370,3444,41,18,878
1188097,6164492,6460212,6166464,6461376,1708,1911,-1281,-2025,771,1456,55,3442,41,18,878
1189098,6164728,6460340,6166661,6461573,1441,1967,-1228,-1858,698,1503,-471,3341,48,17,879
1190099,6164920,6460452,6166858,6461770,1718,2105,-1172,-1609,657,1355,-971,3843,48,17,879
1191100,6165124,6460560,6167055,6461967,1641,2169,-1039,-1265,644,1500,-736,4697,27,21,878
1192101,6165352,6460692,6167252,6462164,1477,2047,-847,-954,658,1389,-942,4677,27,21,878
1193102,6165540,6460804,6167449,6462361,1731,2211,-732,-777,683,1283,-1134,3567,46,22,875
1194103,6165768,6460912,6167646,6462558,1469,2275,-733,-717,682,1747,-1915,2612,46,22,875
1195104,6165948,6461032,6167843,6462755,1776,2234,-697,-617,697,1529,-2131,3983,39,30,875
1196105,6166164,6461160,6168040,6462952,1543,2215,-544,-302,695,2154,-3121,5061,39,30,875
1197106,6166348,6461276,6168237,6463149,1750,2326,-301,92,587,2984,-2931,5616,45,27,876
1198107,6166544,6461420,6168434,6463346,1675,2174,-92,393,529,2304,-2694,5099,45,27,876
1199108,6166736,6461556,6168631,6463543,1703,2252,21,448,581,2005,-2251,4129,35,25,875
1200109,6166944,6461712,6168828,6463740,1598,2145,80,329,680,1872,-2268,3940,35,25,875
1201109,6167156,6461844,6169025,6463937,1567,2323,183,258,902,172,-1549,4906,40,22,876
1202111,6167368,6461972,6169222,6464134,1561,2380,245,154,1190,-189,-1798,3858,40,22,876
1203112,6167608,6462100,6169419,6464331,1367,2410,258,53,1368,813,-1535,4161,32,25,875
1204113,6167828,6462248,6169616,6464528,1482,2307,330,96,1425,1122,-1523,5958,32,25,875
1205114,6168044,6462380,6169813,6464725,1500,2436,397,63,1370,1125,-1593,5106,47,18,876
1206115,6168248,6462504,6170010,6464922,1572,2518,416,-95,1242,1009,-1263,5153,47,18,876
1207116,6168468,6462640,6170207,6465119,1462,2471,506,-125,1158,408,-2134,6822,30,20,875
1208117,6168696,6462776,6170404,6465316,1399,2498,604,-189,1102,96,-1471,5970,30,20,875
1209118,6168876,6462948,6170601,6465513,1707,2285,636,-416,1113,-760,-1508,4835,46,36,875
1210119,6169108,6463096,6170798,6465710,1366,2456,657,-487,1058,202,-1733,6450,46,36,875
1211120,6169340,6463240,6170995,6465907,1352,2506,617,-438,971,-292,-649,5232,33,23,876
1212121,6169536,6463360,6171192,6466104,1577,2689,504,-438,1022,-1274,-1183,4885,33,23,876
1213122,6169744,6463488,6171389,6466301,1497,2671,438,-442,1068,-650,-968,5001,27,35,875
1214123,6169964,6463640,6171586,6466498,1413,2540,415,-500,1032,41,-1146,5105,27,35,875
1215124,6170152,6463792,6171783,6466695,1617,2561,397,-692,1020,75,-1192,4006,48,22,873
1216125,6170344,6463932,6171980,6466892,1594,2662,417,-824,1086,-38,-899,4939,48,22,873
1217126,6170560,6464068,6172177,6467089,1436,2714,442,-877,1124,238,-1190,4106,24,38,874
1218127,6170736,6464228,6172374,6467286,1696,2581,439,-896,1065,606,-236,3793,24,38,874
1219128,6170928,6464412,6172571,6467483,1599,2437,338,-818,1005,1042,373,3302,28,37,874
1220129,6171104,6464660,6172768,6467680,1708,2016,130,-749,945,1774,121,1887,28,37,874
1221130,6171288,6464924,6172965,6467877,1664,1886,-112,-559,784,2926,1745,2615,29,48,874
1222131,6171472,6465208,6173162,6468074,1670,1724,-343,-307,630,2341,2569,2123,29,48,874
1223132,6171676,6465452,6173359,6468271,1542,1954,-591,-49,614,1507,403,1615,43,47,879
1224133,6171848,6465736,6173556,6468468,1754,1666,-734,225,726,1173,-747,2480,43,47,879
1225134,6172032,6466012,6173753,6468665,1685,1682,-579,519,889,764,-632,4117,33,58,878
1226135,6172208,6466324,6173950,6468862,1744,1407,-283,650,1022,359,-248,3977,33,58,878
1227136,6172400,6466608,6174147,6469059,1647,1545,-135,362,1090,-166,529,1463,45,62,879
1228137,6172572,6466872,6174344,6469256,1783,1640,-111,-159,1076,-223,112,2248,45,62,879
1229138,6172744,6467120,6174541,6469453,1794,1718,18,-513,809,1722,843,4563,36,53,880
1230139,6172920,6467372,6174738,6469650,1779,1670,134,-913,514,925,218,3060,36,53,880
1231140,6173116,6467664,6174935,6469847,1655,1378,214,-1359,305,203,137,3628,50,55,879
1232141,6173276,6467940,6175132,6470044,1896,1444,298,-1542,155,67,465,4612,50,55,879
1233141,6173460,6468188,6175329,6470241,1753,1597,290,-1476,22,-184,165,3834,48,50,881
1234143,6173668,6468448,6175526,6470438,1598,1495,218,-1278,-169,290,1587,4054,48,50,881
1235144,6173828,6468700,6175723,6470635,1914,1521,76,-1187,-308,44,-569,3238,36,44,878
1236144,6174012,6468940,6175920,6470832,1771,1577,-32,-1167,-442,361,837,3777,36,44,878
1237146,6174184,6469188,6176117,6471029,1857,1506,-26,-1168,-535,871,1165,4947,24,36,878
1238147,6174332,6469376,6176314,6471226,2028,1884,91,-1151,-553,1399,1023,4646,24,36,878
1239148,6174504,6469568,6176511,6471423,1890,1862,155,-1215,-485,2103,1309,3356,22,34,879
1240149,6174640,6469736,6176708,6471620,2142,2025,136,-1237,-309,2299,534,3076,22,34,879
1241150,6174812,6469904,6176905,6471817,1929,2038,163,-1147,7,1714,-837,3978,42,38,877
1242151,6174976,6470088,6177102,6472014,1994,1944,257,-965,400,1684,-359,4475,42,38,877
1243152,6175168,6470272,6177299,6472211,1821,1951,319,-676,732,2363,430,4424,38,40,875
1244153,6175328,6470444,6177496,6472408,2038,2037,257,-261,1006,2756,345,4445,38,40,875
1245154,6175488,6470600,6177693,6472605,2054,2156,72,293,1259,2841,-63,4256,41,30,876
1246155,6175640,6470752,6177890,6472802,2125,2200,-66,711,1495,2298,-650,3833,41,30,876
1247156,6175772,6470928,6178087,6472999,2279,2060,-76,996,1681,1771,-55,4459,38,44,873
1248157,6175912,6471124,6178284,6473196,2255,1936,-48,1223,1787,1503,-175,4471,38,44,873
1249158,6176052,6471328,6178481,6473393,2280,1883,-66,1518,1861,755,-642,4446,38,37,873
1250159,6176196,6471528,6178678,6473590,2278,1908,-155,1784,1873,1343,-670,4062,38,37,873
1251160,6176316,6471744,6178875,6473787,2463,1799,-219,2077,1822,795,97,4673,36,41,875
1252161,6176464,6471952,6179072,6473984,2310,1844,-264,2393,1712,335,-341,4449,36,41,875
1253162,6176632,6472176,6179269,6474181,2198,1734,-337,2542,1492,617,-29,3393,42,52,874
1254163,6176804,6472420,6179466,6474378,2184,1588,-387,2583,1288,-358,-349,3288,42,52,874
1255164,6176992,6472680,6179663,6474575,2089,1460,-391,2483,1154,-305,-924,2957,49,48,875
1256165,6177168,6472948,6179860,6474772,2174,1380,-402,2309,1102,309,-1485,2627,49,48,875
1257175,6177344,6473212,6180090,6475002,2198,1390,-429,2206,1146,281,-240,3232,42,43,877
1258167,6177516,6473548,6180287,6475199,2234,879,-504,2103,1254,23,-1397,3100,42,43,877
1259168,6177680,6473772,6180484,6475396,2300,1568,-573,1978,1281,448,-1138,3029,29,53,877
1260169,6177836,6473936,6180681,6475593,2369,1958,-620,1929,1248,228,-1093,3549,29,53,877
1261170,6177988,6474100,6180878,6475790,2414,1972,-648,1930,1211,215,-1561,3860,24,37,876
1262171,6178152,6474280,6181075,6475987,2354,1881,-622,2079,1158,982,1179,4938,24,37,876
1263172,6178332,6474472,6181272,6476184,2261,1808,-700,2118,1121,75,230,3408,45,30,873
1264173,6178452,6474704,6181469,6476381,2671,1542,-954,1660,1017,-545,713,531,45,30,873
1265174,6178628,6474944,6181666,6476578,2331,1475,-1040,1567,880,-254,365,6472,28,50,875
1266175,6178748,6475156,6181863,6476775,2715,1643,-902,1771,761,-436,-76,7048,28,50,875
1267176,6178908,6475392,6182060,6476972,2482,1476,-867,1628,693,-431,1021,3276,26,51,875
1268177,6179068,6475700,6182257,6477169,2499,978,-865,1277,704,-191,204,4610,26,51,875
1269178,6179236,6475984,6182454,6477366,2463,1090,-737,1029,696,531,-537,5921,29,56,873
1270179,6179376,6476272,6182651,6477563,2663,1025,-705,680,714,-352,-1712,2946,29,56,873
1271180,6179548,6476528,6182848,6477760,2475,1199,-710,433,746,-310,-1180,4624,28,60,877
1272181,6179708,6476820,6183045,6477957,2567,933,-686,583,833,-598,-1739,5811,28,60,877
1273182,6179872,6477092,6183242,6478154,2556,1025,-677,695,908,-579,-1617,4167,28,49,876
1274183,6180040,6477336,6183439,6478351,2545,1180,-605,805,915,-245,-2387,5912,28,49,876
1275184,6180220,6477540,6183636,6478548,2478,1426,-469,769,778,345,-3016,5556,27,37,877
1276185,6180368,6477744,6183833,6478745,2700,1423,-284,587,511,666,-2631,5646,27,37,877
1277186,6180548,6477984,6184030,6478942,2509,1180,-135,418,145,409,-1009,6101,47,52,876
1278187,6180720,6478192,6184227,6479139,2570,1376,-112,205,-259,-340,468,4702,47,52,876
1279187,6180876,6478424,6184424,6479336,2689,1210,-215,67,-661,-417,215,5033,50,36,874
1280189,6181032,6478632,6184621,6479533,2708,1355,-362,63,-954,-1032,-234,5272,50,36,874
1281189,6181232,6478844,6184818,6479730,2431,1324,-493,151,-1065,-1407,-561,5461,49,48,874
1282191,6181404,6479060,6185015,6479927,2618,1291,-474,320,-1057,-840,-594,7167,49,48,874
1283192,6181568,6479300,6185212,6480124,2684,1123,-332,373,-1095,405,-563,6403,28,38,873
1284193,6181732,6479560,6185409,6480321,2699,970,-182,215,-1128,1085,-2154,5411,28,38,873
1285193,6181900,6479804,6185606,6480518,2687,1049,30,17,-1062,1076,-3522,5734,24,56,875
1286195,6182052,6480012,6185803,6480715,2808,1269,211,-256,-1057,1407,-2666,4511,24,56,875
1287196,6182228,6480232,6186000,6480912,2668,1184,346,-421,-1171,1478,-2103,4801,26,38,876
1288197,6182384,6480424,6186197,6481109,2811,1362,458,-308,-1310,679,-1458,5359,26,38,876
1289197,6182544,6480608,6186394,6481306,2803,1417,436,-110,-1430,109,-1700,3868,32,32,874
1290199,6182712,6480820,6186591,6481503,2767,1237,378,139,-1501,-131,-1732,4712,32,32,874
1291200,6182892,6481000,6186788,6481700,2701,1444,370,371,-1578,42,-1941,4742,35,44,872
1292201,6183068,6481188,6186985,6481897,2735,1398,406,342,-1620,-764,-423,4279,35,44,872
1293201,6183268,6481352,6187182,6482094,2585,1563,465,115,-1668,-532,-933,4550,29,30,874
1294203,6183468,6481508,6187379,6482291,2584,1631,583,-36,-1815,44,-523,6238,29,30,874
1295204,6183636,6481648,6187576,6482488,2798,1756,646,-386,-1953,-770,-279,4467,36,27,874
1296205,6183836,6481804,6187773,6482685,2597,1674,592,-683,-2096,438,65,4964,36,27,874
1297205,6183996,6481944,6187970,6482882,2864,1800,489,-720,-2207,982,451,5627,43,29,874
1298207,6184172,6482132,6188167,6483079,2774,1504,262,-649,-2376,1874,863,3716,43,29,874
1299208,6184328,6482288,6188364,6483276,2918,1722,18,-430,-2449,1192,91,4730,25,26,873
1300208,6184544,6482440,6188561,6483473,2535,1766,-121,-50,-2401,1144,-1265,5229,25,26,873
1301209,6184744,6482584,6188758,6483670,2634,1840,-211,239,-2341,1895,-288,3990,49,30,872
1302211,6184944,6482724,6188955,6483867,2634,1891,-240,308,-2224,1128,-801,3854,49,30,872
1303212,6185176,6482848,6189152,6484064,2420,2023,-132,302,-2134,1375,-975,4735,50,23,872
1304213,6185404,6482964,6189349,6484261,2431,2108,18,97,-2051,1106,-1049,3402,50,23,872
1305214,6185624,6483060,6189546,6484458,2472,2278,125,-134,-1978,1310,-617,3222,39,32,872
1306215,6185852,6483160,6189743,6484655,2409,2296,184,-253,-1903,945,-110,3749,39,32,872
1307216,6186084,6483240,6189940,6484852,2370,2473,141,-396,-1783,-153,-662,2664,55,22,872
1308217,6186316,6483328,6190137,6485049,2355,2471,33,-345,-1737,156,-122,3338,55,22,872
1309218,6186592,6483432,6190334,6485246,2046,2412,-79,-83,-1747,422,-355,4243,56,18,871
1310219,6186836,6483544,6190531,6485443,2226,2400,-167,202,-1863,977,77,4013,56,18,871
1311220,6187076,6483680,6190728,6485640,2232,2277,-195,201,-2026,619,-253,3783,51,16,871
1312221,6187344,6483796,6190925,6485837,2027,2438,-121,21,-2096,-360,-962,4084,51,16,871
1313222,6187608,6483952,6191122,6486034,2024,2206,1,-343,-2050,-380,-424,3644,40,34,871
1314223,6187872,6484080,6191319,6486231,1995,2412,77,-764,-2010,618,-140,2706,40,34,871
1315224,6188168,6484212,6191516,6486428,1752,2416,80,-987,-1956,328,-341,3731,43,20,873
1316225,6188420,6484320,6191713,6486625,2004,2605,72,-926,-1890,140,-517,4031,43,20,873
1317226,6188700,6484424,6191910,6486822,1792,2672,-39,-841,-1873,90,134,2586,46,16,873
1318227,6188976,6484516,6192107,6487019,1783,2793,-129,-750,-1875,-146,258,3191,46,16,873
1319228,6189292,6484636,6192304,6487216,1482,2653,-160,-627,-1920,517,-497,3988,61,32,872
1320229,6189576,6484776,6192501,6487413,1644,2553,-109,-578,-1985,577,-225,3444,61,32,872
1321230,6189868,6484924,6192698,6487610,1553,2525,-4,-740,-2042,386,-545,3028,48,18,872
1322231,6190184,6485048,6192895,6487807,1351,2708,125,-979,-2028,359,-121,3569,48,18,872
1323232,6190448,6485180,6193092,6488004,1647,2688,227,-1306,-1934,8,-198,2544,66,21,875
1324233,6190740,6485304,6193289,6488201,1431,2770,253,-1551,-1825,146,-8,2679,66,21,875
1325233,6191060,6485420,6193486,6488398,1203,2856,199,-1550,-1738,110,183,2883,52,31,873
1326235,6191328,6485544,6193683,6488595,1496,2838,120,-1514,-1650,-330,2,2508,52,31,873
1327236,6191624,6485652,6193880,6488792,1279,2978,67,-1450,-1614,411,-204,3047,69,34,874
1328237,6191952,6485760,6194077,6488989,1021,3017,51,-1435,-1630,827,-230,2754,69,34,874
1329237,6192208,6485888,6194274,6489186,1446,2924,80,-1537,-1612,165,-198,2506,67,23,873
1330239,6192484,6486020,6194471,6489383,1287,2928,131,-1800,-1579,-10,-350,2175,67,23,873
1331240,6192800,6486172,6194668,6489580,984,2823,231,-2131,-1541,-426,-74,2180,49,27,874
1332241,6193056,6486300,6194865,6489777,1334,3004,302,-2417,-1502,-478,162,2171,49,27,874
1333242,6193324,6486412,6195062,6489974,1228,3143,338,-2589,-1500,-95,309,2293,64,19,873
1334242,6193632,6486548,6195259,6490171,929,3020,321,-2637,-1511,86,550,2433,64,19,873
1335244,6193884,6486664,6195456,6490368,1256,3181,255,-2624,-1464,-49,190,2583,43,34,871
1336245,6194164,6486804,6195653,6490565,1045,3057,192,-2583,-1393,471,-33,2708,43,34,871
1337246,6194408,6486944,6195850,6490762,1249,3082,165,-2607,-1338,518,215,2735,61,24,873
1338247,6194672,6487076,6196047,6490959,1096,3162,150,-2767,-1222,-153,64,2402,61,24,873
1339248,6194888,6487208,6196244,6491156,1387,3191,220,-3036,-1126,136,220,2588,48,23,873
1340256,6195132,6487340,6196474,6491386,1206,3236,227,-3257,-1078,447,283,2782,48,23,873
1341250,6195380,6487520,6196671,6491583,1159,2943,234,-3339,-1043,614,180,2647,51,37,872
1342251,6195624,6487692,6196868,6491780,1164,3005,144,-3347,-1008,733,186,3394,51,37,872
1343252,6195876,6487872,6197065,6491977,1090,2963,100,-3283,-959,440,907,3274,56,32,871
1344253,6196128,6488048,6197262,6492174,1066,2999,2,-3370,-901,413,1001,2766,56,32,871
1345253,6196348,6488224,6197459,6492371,1256,3008,-48,-3438,-803,-122,555,3298,38,32,873
1346255,6196584,6488408,6197656,6492568,1139,2965,-100,-3635,-712,94,662,3243,38,32,873
1347256,6196840,6488620,6197853,6492765,989,2784,-155,-3791,-692,729,933,2952,42,32,872
1348257,6197088,6488812,6198050,6492962,1016,2912,-225,-3928,-676,658,731,3341,42,32,872
1349258,6197332,6489008,6198247,6493159,1021,2889,-239,-3985,-662,660,884,3771,39,44,874
1350258,6197612,6489212,6198444,6493356,759,2836,-251,-4086,-627,338,767,3500,39,44,874
1351260,6197844,6489420,6198641,6493553,1044,2807,-288,-4152,-571,406,587,3217,61,43,874
1352261,6198080,6489600,6198838,6493750,1003,2990,-348,-4192,-469,-73,412,3744,61,43,874
1353262,6198328,6489816,6199035,6493947,905,2758,-344,-4138,-340,-56,714,4347,37,52,876
1354263,6198552,6490032,6199232,6494144,1043,2751,-364,-3986,-348,1732,84,4440,37,52,876
1355264,6198772,6490236,6199429,6494341,1058,2822,-439,-3808,-352,1102,40,3890,42,43,874
1356265,6199008,6490452,6199626,6494538,941,2740,-545,-3598,-204,265,991,4368,42,43,874
1357266,6199244,6490652,6199823,6494735,924,2840,-601,-3355,-56,1001,42,4751,36,42,874
1358267,6199444,6490856,6200020,6494932,1148,2813,-583,-3208,34,1126,411,4819,36,42,874
1359268,6199644,6491096,6200217,6495129,1146,2569,-595,-3271,115,1154,705,3654,50,35,875
1360269,6199840,6491316,6200414,6495326,1172,2685,-611,-3356,227,986,274,4336,50,35,875
1361269,6200020,6491512,6200611,6495523,1280,2836,-555,-3394,315,1147,-582,5258,43,36,875
1362271,6200184,6491736,6200808,6495720,1395,2650,-462,-3430,372,1061,-396,5057,43,36,875
1363272,6200404,6491932,6201005,6495917,1035,2827,-409,-3449,429,1381,-495,5084,46,53,876
1364273,6200572,6492168,6201202,6496114,1372,2560,-399,-3316,474,1612,-224,5848,46,53,876
1365274,6200756,6492364,6201399,6496311,1278,2811,-430,-3180,520,1583,-415,4980,27,49,875
1366274,6200956,6492552,6201596,6496508,1177,2866,-458,-2945,618,1027,-982,5944,27,49,875
