"Data file recorded 2014/9/22  16:1:0"
"%  Right Stride Frequency         = 3.0"
"%  Left Stride Frequency         = 3.0"
"%  Phase (Fractional)         = 32768.0"
"%  Experiment.py "
"%  Motor Gains    = [1800, 200, 100, 0, 0, 1800, 200, 100, 0, 0]
"% Columns: "
"% time | Right Leg Pos | Left Leg Pos | Commanded Right Leg Pos | Commanded Left Leg Pos | DCR | DCL | GyroX | GryoY | GryoZ | AX | AY | AZ | RBEMF | LBEMF | VBatt "
10407,3496964,3797432,3516128,3811040,3800,3800,-32,188,-232,-340,-187,4111,2,3,839
11401,3496988,3797476,3516325,3811237,3800,3800,-33,187,-233,-327,-195,4127,2,3,839
12402,3497036,3797428,3516522,3811434,3800,3800,-33,191,-232,-330,-199,4094,6,19,840
13403,3497124,3797436,3516719,3811631,3800,3800,-28,206,-230,-340,-175,4101,6,19,840
14404,3497300,3797636,3516916,3811828,3800,3800,-10,213,-240,-329,50,4093,32,50,801
15405,3497492,3797944,3517113,3812025,3800,3800,20,194,-266,-318,185,4092,32,50,801
16406,3497716,3798228,3517310,3812222,3800,3800,37,192,-309,-344,167,4097,57,65,802
17407,3498016,3798516,3517507,3812419,3800,3800,20,182,-367,-385,213,4086,57,65,802
18408,3498328,3798784,3517704,3812616,3800,3800,-31,207,-433,-486,384,4154,70,69,804
19409,3498640,3799060,3517901,3812813,3800,3800,-83,212,-522,-639,704,4091,70,69,804
20410,3499020,3799352,3518098,3813010,3800,3800,-140,234,-625,-745,693,4217,60,70,802
21411,3499388,3799680,3518295,3813207,3800,3800,-185,303,-722,-951,560,4381,60,70,802
22412,3499780,3799976,3518492,3813404,3800,3800,-194,388,-829,-1075,684,4266,66,64,805
23413,3500236,3800188,3518689,3813601,3800,3800,-163,340,-985,-1010,798,3952,66,64,805
24414,3500660,3800384,3518886,3813798,3800,3800,-103,305,-1209,-986,800,4003,81,61,804
25415,3501136,3800556,3519083,3813995,3800,3800,-28,229,-1490,-977,823,3807,81,61,804
26416,3501636,3800752,3519280,3814192,3800,3800,51,86,-1785,-828,800,3787,84,52,802
27417,3502176,3800900,3519477,3814389,3800,3800,98,-76,-2018,-571,410,3884,84,52,802
28418,3502696,3801044,3519674,3814586,3800,3800,93,-247,-2157,-259,-395,3755,110,36,804
29419,3503208,3801152,3519871,3814783,3800,3800,52,-455,-2277,-206,-24,3611,110,36,804
30419,3503876,3801216,3520068,3814980,3800,3800,-30,-796,-2420,-236,288,3425,114,33,804
31421,3504440,3801264,3520265,3815177,3800,3800,-68,-1166,-2531,-52,333,3226,114,33,804
32422,3505036,3801360,3520462,3815374,3800,3800,-73,-1629,-2597,-32,804,3094,118,22,804
33410,3505768,3801484,3520659,3815571,3279,3800,-1,-2031,-2640,-40,776,3180,118,22,804
34411,3506396,3801592,3520856,3815768,3743,3800,66,-2546,-2685,-120,789,3062,137,35,805
35412,3507068,3801728,3521053,3815965,3262,3800,159,-2942,-2753,-113,554,3419,137,35,805
36413,3507820,3801836,3521250,3816162,2520,3800,243,-3273,-2806,-50,461,3609,143,26,806
37414,3508488,3801972,3521447,3816359,2841,3800,339,-3433,-2814,-34,494,4151,143,26,806
38415,3509196,3802120,3521644,3816556,2369,3800,441,-3488,-2780,-83,258,4492,136,43,808
39417,3509960,3802292,3521841,3816753,1773,3800,527,-3450,-2699,-57,-236,4768,136,43,808
40417,3510676,3802480,3522038,3816950,1847,3800,638,-3426,-2627,-133,-123,4767,136,36,811
41418,3511448,3802656,3522235,3817147,1246,3800,741,-3379,-2588,-228,-294,4943,136,36,811
42419,3512220,3802868,3522432,3817344,995,3800,860,-3318,-2549,-413,-580,4884,140,56,814
43420,3512960,3803068,3522629,3817541,959,3800,969,-3298,-2494,-545,-610,4862,140,56,814
44421,3513704,3803300,3522826,3817738,695,3800,1073,-3191,-2407,-590,-874,5009,138,45,816
45422,3514464,3803556,3523023,3817935,350,3800,1144,-3164,-2288,-675,-928,4784,138,45,816
46423,3515168,3803800,3523220,3818132,478,3800,1206,-3061,-2160,-665,-1111,5038,143,58,816
47424,3515760,3804044,3523417,3818329,1006,3800,1263,-3047,-2040,-853,-1109,4788,143,58,816
48425,3516400,3804348,3523614,3818526,513,3800,1318,-2933,-1922,-1123,-1299,5169,122,70,817
49426,3517060,3804640,3523811,3818723,186,3800,1366,-2873,-1821,-1152,-1399,4663,122,70,817
50427,3517640,3804908,3524008,3818920,519,3800,1395,-2802,-1734,-1093,-1513,4759,137,54,817
51428,3518172,3805176,3524205,3819117,673,3800,1428,-2830,-1657,-1165,-1745,4338,137,54,817
52429,3518724,3805424,3524402,3819314,393,3800,1477,-2832,-1543,-1464,-2186,4645,102,64,819
53430,3519200,3805704,3524599,3819511,746,3800,1553,-2790,-1352,-1895,-2464,4727,102,64,819
54431,3519660,3806024,3524796,3819708,732,3800,1642,-2803,-1072,-2080,-2617,4515,96,58,817
55432,3520084,3806320,3524993,3819905,858,3800,1727,-2633,-682,-2165,-3009,5075,96,58,817
56433,3520468,3806580,3525190,3820102,1027,3800,1750,-2490,-161,-2325,-2955,4841,84,63,819
57434,3520788,3806852,3525387,3820299,1374,3800,1814,-2377,464,-2449,-2668,4729,84,63,819
58435,3521156,3807092,3525584,3820496,999,3800,1871,-2476,1176,-2422,-2519,4433,87,54,816
59436,3521448,3807360,3525781,3820693,1434,3800,1969,-2518,1880,-2252,-2261,4403,87,54,816
60437,3521680,3807592,3525978,3820890,1794,3800,2089,-2780,2505,-2002,-1949,3493,67,51,815
61438,3521972,3807820,3526175,3821087,1379,3800,2218,-3151,3046,-1512,-1692,3443,67,51,815
62439,3522212,3808012,3526372,3821284,1685,3800,2308,-3619,3508,-1085,-1138,2970,45,44,815
63440,3522396,3808240,3526569,3821481,2041,3800,2366,-4033,3899,-702,-784,3203,45,44,815
64441,3522620,3808444,3526766,3821678,1780,3800,2372,-4308,4286,-362,-719,3556,39,45,815
65442,3522780,3808680,3526963,3821875,2198,3800,2344,-4504,4717,-73,-955,3981,39,45,815
66443,3522984,3808860,3527160,3822072,1921,3800,2295,-4485,5169,193,-1210,4583,38,29,811
67444,3523148,3809024,3527357,3822269,2185,3800,2231,-4394,5559,361,-1127,4650,38,29,811
68445,3523256,3809164,3527554,3822466,2575,3800,2178,-4231,5805,374,-577,4809,25,26,809
69446,3523388,3809336,3527751,3822663,2455,3800,2101,-4170,5883,363,-40,4703,25,26,809
70447,3523468,3809520,3527948,3822860,2832,3800,2013,-4068,5800,374,615,4947,18,41,809
71448,3523532,3809656,3528145,3823057,2992,3800,1869,-3883,5548,497,1294,5127,18,41,809
72449,3523640,3809748,3528342,3823254,2757,3800,1687,-3634,5165,901,1516,5300,30,22,808
73450,3523700,3809896,3528539,3823451,3117,3800,1403,-3295,4654,1315,2101,5769,30,22,808
74451,3523772,3810024,3528736,3823648,3098,3800,985,-2851,4028,1738,2747,5951,12,19,804
75452,3523896,3810160,3528933,3823845,2806,3800,502,-2316,3335,1897,3126,6026,12,19,804
76453,3523992,3810268,3529130,3824042,3026,3800,18,-1901,2662,2141,3268,5855,31,21,803
77454,3524088,3810360,3529327,3824239,3072,3800,-434,-1569,2031,2339,3155,5712,31,21,803
78455,3524240,3810412,3529524,3824436,2743,3800,-821,-1283,1459,2625,2835,5678,25,24,805
79456,3524380,3810492,3529721,3824633,2844,3800,-1107,-980,960,2795,2416,5564,25,24,805
80457,3524500,3810580,3529918,3824830,3003,3800,-1300,-775,562,2798,1811,5248,29,22,801
81458,3524608,3810712,3530115,3825027,3119,3800,-1433,-664,281,2766,1355,5000,29,22,801
82459,3524752,3810772,3530312,3825224,2918,3800,-1521,-543,94,2673,955,5096,35,21,805
83460,3524864,3810820,3530509,3825421,3156,3800,-1570,-472,-39,2374,480,4888,35,21,805
84461,3524944,3810828,3530706,3825618,3409,3800,-1623,-423,-174,2180,120,5042,39,9,803
85462,3525076,3810904,3530903,3825815,3114,3800,-1667,-398,-306,2233,-28,4868,39,9,803
86463,3525184,3810984,3531100,3826012,3304,3800,-1687,-393,-426,2150,-74,4773,37,15,802
87464,3525300,3811116,3531297,3826209,3291,3800,-1643,-431,-560,1636,27,4507,37,15,802
88465,3525476,3811160,3531494,3826406,2926,3800,-1547,-500,-696,1075,225,4595,44,8,802
89466,3525652,3811216,3531691,3826603,2936,3800,-1415,-450,-837,442,348,4782,44,8,802
90467,3525816,3811264,3531888,3826800,3027,3800,-1268,-356,-980,-173,153,4909,39,13,801
91468,3525972,3811372,3532085,3826997,3096,3800,-1106,-106,-1075,-816,-313,5476,39,13,801
92476,3526144,3811496,3532512,3827424,3110,3800,-926,225,-1084,-1387,-621,5625,30,16,803
93470,3526276,3811660,3532709,3827621,3390,3800,-717,573,-1036,-1574,-640,5642,30,16,803
94471,3526432,3811780,3532906,3827818,3259,3800,-483,936,-937,-1463,-676,5552,33,35,801
95472,3526624,3811904,3533103,3828015,3037,3800,-237,1263,-789,-1440,-961,5368,33,35,801
96474,3526848,3812024,3533300,3828212,2826,3800,40,1516,-600,-1733,-1127,5105,32,32,802
97474,3527084,3812176,3533497,3828409,2736,3800,345,1673,-361,-1974,-1114,5011,32,32,802
98475,3527324,3812356,3533694,3828606,2693,3800,650,1884,-79,-2112,-1134,5040,62,43,805
99476,3527596,3812572,3533891,3828803,2461,3800,953,2048,228,-2285,-1274,4743,62,43,805
100477,3527832,3812760,3534088,3829000,2670,3800,1277,2081,507,-2185,-1148,4126,58,44,807
101478,3528092,3812944,3534285,3829197,2494,3800,1602,1916,735,-1819,-946,3617,58,44,807
102479,3528392,3813112,3534482,3829394,2200,3800,1909,1645,919,-1487,-729,3314,45,37,807
103480,3528648,3813276,3534679,3829591,2450,3800,2190,1330,1092,-1355,-650,3060,45,37,807
104481,3528924,3813468,3534876,3829788,2291,3800,2403,1090,1299,-1358,-811,3305,68,37,809
105482,3529212,3813680,3535073,3829985,2177,3800,2552,856,1535,-1264,-850,3283,68,37,809
106483,3529524,3813908,3535270,3830182,1978,3800,2634,695,1723,-822,-635,3334,54,43,809
107484,3529808,3814148,3535467,3830379,2115,3800,2692,547,1847,-291,-612,3237,54,43,809
108485,3530096,3814372,3535664,3830576,2051,3800,2726,401,1919,-201,-573,3284,69,39,809
109486,3530408,3814624,3535861,3830773,1852,3800,2726,262,1938,-375,-227,3342,69,39,809
110487,3530688,3814864,3536058,3830970,2017,3800,2688,72,1876,-331,290,3174,51,53,811
111488,3530984,3815120,3536255,3831167,1875,3800,2605,-61,1753,136,508,3115,51,53,811
112489,3531316,3815396,3536452,3831364,1592,3800,2517,-248,1624,511,175,2774,59,59,811
113490,3531612,3815672,3536649,3831561,1774,3800,2434,-365,1536,443,-299,3114,59,59,811
114491,3531860,3815956,3536846,3831758,2052,3800,2366,-422,1472,233,-374,3266,64,57,811
115492,3532100,3816240,3537043,3831955,2084,3800,2280,-481,1378,240,540,3171,64,57,811
116493,3532336,3816492,3537240,3832152,2093,3800,2184,-570,1244,507,1209,2951,49,57,812
117494,3532568,3816832,3537437,3832349,2103,3800,2073,-690,1123,625,1246,2791,49,57,812
118495,3532800,3817144,3537634,3832546,2089,3800,1969,-863,1061,493,807,2718,53,63,812
119496,3533004,3817440,3537831,3832743,2262,3800,1877,-1037,1098,474,499,2612,53,63,812
120497,3533216,3817828,3538028,3832940,2206,3800,1798,-1244,1211,622,348,2493,43,62,812
121498,3533440,3818188,3538225,3833137,2120,3800,1735,-1394,1372,639,366,2497,43,62,812
122499,3533668,3818544,3538422,3833334,2083,3800,1675,-1621,1523,494,410,2233,42,62,811
123500,3533940,3818892,3538619,3833531,1776,3800,1595,-1867,1623,319,667,2295,42,62,811
124501,3534252,3819288,3538816,3833728,1476,3800,1516,-1999,1693,104,705,2731,46,63,810
125502,3534492,3819732,3539013,3833925,1908,3800,1451,-1889,1743,-46,428,3159,46,63,810
126503,3534756,3820140,3539210,3834122,1729,3800,1395,-1668,1758,-187,317,3328,67,71,812
127504,3535052,3820536,3539407,3834319,1486,3800,1341,-1413,1754,-140,338,3588,67,71,812
128505,3535368,3821036,3539604,3834516,1310,3800,1279,-987,1734,-34,439,3952,75,97,813
129506,3535640,3821504,3539801,3834713,1553,3800,1184,-470,1698,-218,440,4117,75,97,813
130507,3535920,3821964,3539998,3834910,1468,3800,1065,96,1652,-330,144,4209,54,87,814
131496,3536192,3822592,3540195,3835107,1485,3138,930,631,1652,-165,-668,4086,54,87,814
132496,3536456,3823104,3540392,3835304,1506,3727,791,1115,1691,152,-738,3813,59,108,817
133498,3536708,3823740,3540589,3835501,1558,2762,644,1493,1701,457,-442,3446,59,108,817
134498,3536980,3824372,3540786,3835698,1401,2598,520,1663,1705,674,-251,2842,53,112,819
135500,3537192,3825032,3540983,3835895,1769,2221,400,1621,1721,950,55,2427,53,112,819
136500,3537424,3825748,3541180,3836092,1630,1645,288,1520,1735,1188,470,2082,67,113,821
137502,3537744,3826388,3541377,3836289,1027,1928,165,1362,1775,1259,851,1829,67,113,821
138502,3538032,3827056,3541574,3836486,1188,1548,64,1092,1818,1328,1137,1543,64,137,825
139504,3538308,3827668,3541771,3836683,1228,1717,-15,839,1870,1539,648,1700,64,137,825
140504,3538560,3828300,3541968,3836880,1355,1403,-76,659,1942,1668,205,1737,69,112,829
141505,3538832,3828892,3542165,3837077,1198,1480,-117,453,1972,1690,210,1630,69,112,829
142506,3539144,3829576,3542362,3837274,898,693,-159,245,1963,1639,225,1776,72,128,829
143508,3539396,3830120,3542559,3837471,1249,1417,-236,160,1925,1563,268,2125,72,128,829
144508,3539620,3830632,3542756,3837668,1413,1480,-324,215,1830,1450,740,2205,64,111,830
145510,3539884,3831160,3542953,3837865,1134,1236,-404,325,1705,1340,890,2406,64,111,830
146511,3540124,3831656,3543150,3838062,1266,1306,-483,539,1613,1444,620,2608,47,101,828
147512,3540376,3832252,3543347,3838259,1167,506,-551,807,1569,1477,479,2678,47,101,828
148513,3540608,3832780,3543544,3838456,1278,788,-600,1182,1561,1482,229,2876,48,104,831
149514,3540856,3833304,3543741,3838653,1155,670,-630,1522,1561,1460,48,2737,48,104,831
150515,3541096,3833784,3543938,3838850,1187,822,-650,1867,1557,1457,-246,2779,56,86,833
151516,3541340,3834224,3544135,3839047,1142,966,-666,2298,1565,1494,-370,2949,56,86,833
152516,3541548,3834564,3544332,3839244,1363,1529,-694,2867,1553,1629,191,3478,41,76,832
153517,3541760,3834968,3544529,3839441,1331,1038,-683,3314,1447,1360,860,2698,41,76,832
154518,3542028,3835316,3544726,3839638,951,1323,-617,3515,1260,1078,1170,2102,35,64,832
155519,3542244,3835624,3544923,3839835,1268,1525,-541,3670,1048,1167,1584,2109,35,64,832
156520,3542500,3835880,3545120,3840032,993,1825,-456,3698,821,1137,1752,1377,49,50,830
157521,3542728,3836136,3545317,3840229,1154,1800,-346,3580,538,998,1951,861,49,50,830
158522,3542932,3836436,3545514,3840426,1302,1481,-215,3356,213,1179,1894,608,48,41,827
159523,3543148,3836672,3545711,3840623,1219,1864,-94,3222,-101,1282,1149,762,48,41,827
160524,3543348,3836860,3545908,3840820,1319,2169,-70,3113,-387,1079,864,938,39,50,828
161525,3543548,3837068,3546105,3841017,1317,2040,-213,3143,-639,1039,329,1536,39,50,828
162527,3543748,3837228,3546302,3841214,1317,2357,-447,3231,-850,1110,16,1246,47,42,827
163527,3543900,3837412,3546499,3841411,1637,2213,-706,3176,-1073,1289,257,580,47,42,827
164528,3544076,3837628,3546696,3841608,1497,2006,-981,2881,-1309,1394,138,261,29,31,826
165529,3544232,3837792,3546893,3841805,1640,2346,-1228,2425,-1508,1321,151,-141,29,31,826
166530,3544384,3838000,3547090,3842002,1686,2067,-1447,1860,-1676,1338,467,-487,39,38,823
167532,3544496,3838160,3547287,3842199,1973,2383,-1669,1288,-1817,1434,191,-406,39,38,823
168532,3544616,3838332,3547484,3842396,1958,2320,-1942,887,-1923,1580,-301,199,16,29,821
169533,3544740,3838460,3547681,3842593,1966,2627,-2227,502,-2011,1800,-615,17,16,29,821
170534,3544852,3838616,3547878,3842790,2078,2471,-2531,68,-2054,2154,-1177,254,29,27,820
171536,3545000,3838792,3548075,3842987,1876,2355,-2842,-373,-2038,2468,-1630,307,29,27,820
172536,3545176,3838952,3548272,3843184,1710,2472,-3128,-906,-2011,2650,-1637,-85,41,27,819
173537,3545332,3839112,3548469,3843381,1854,2490,-3418,-1454,-1953,2716,-1791,96,41,27,819
174538,3545496,3839300,3548666,3843578,1819,2319,-3763,-1878,-1821,2600,-2095,655,30,23,821
175546,3545644,3839444,3548896,3843808,1956,2633,-4145,-2060,-1653,2347,-2250,1341,30,23,821
176540,3545792,3839584,3549093,3844005,1978,2684,-4522,-2089,-1489,2035,-2295,1880,40,27,820
177541,3545916,3839760,3549290,3844202,2160,2469,-4861,-2069,-1342,2000,-2760,2135,40,27,820
178543,3546108,3839920,3549487,3844399,1738,2586,-5184,-2044,-1218,2138,-2958,2484,21,38,818
179543,3546300,3840088,3549684,3844596,1742,2550,-5889,-1268,-991,2415,-3630,5846,21,38,818
180544,3546424,3840236,3549881,3844793,2199,2697,-6642,-460,-659,1939,-4868,4320,40,36,818
181545,3546596,3840388,3550078,3844990,1911,2693,-7183,-139,-365,1488,-5220,3581,40,36,818
182546,3546760,3840540,3550275,3845187,1976,2714,-7687,-27,-139,1566,-5307,4093,29,24,820
183548,3546900,3840728,3550472,3845384,2151,2494,-8129,14,-6,1799,-4944,3676,29,24,820
184548,3547076,3840896,3550669,3845581,1936,2631,-8455,-54,77,2154,-4275,3460,23,43,818
185549,3547264,3841072,3550866,3845778,1866,2592,-8632,-325,132,2403,-3901,3261,23,43,818
186550,3547440,3841284,3551063,3845975,1951,2361,-8656,-757,155,2592,-3459,3136,47,45,818
187551,3547620,3841472,3551260,3846172,1934,2516,-8500,-1300,161,2885,-3008,3031,47,45,818
188552,3547816,3841692,3551457,3846369,1836,2307,-8291,-1635,199,3450,-2931,4361,39,40,820
189553,3547996,3841932,3551654,3846566,1943,2164,-8084,-1677,302,3640,-2920,5280,39,40,820
190554,3548200,3842156,3551851,3846763,1791,2253,-7887,-1461,472,3587,-2570,6231,38,50,818
191555,3548388,3842388,3552048,3846960,1896,2189,-7666,-1134,649,3433,-2156,6759,38,50,818
192556,3548584,3842560,3552245,3847157,1846,2576,-7397,-735,786,3044,-1889,7317,41,37,821
193557,3548804,3842736,3552442,3847354,1687,2560,-6809,-175,861,2513,-1551,9045,41,37,821
194559,3548972,3842920,3552639,3847551,2026,2517,-3032,6052,1194,1259,-3002,32767,35,37,822
195560,3549200,3843180,3552836,3847748,1637,2015,3533,18124,1936,26,-4205,32767,35,37,822
196561,3549404,3843416,3553033,3847945,1785,2149,7158,23128,2116,3056,83,13069,40,55,821
197561,3549572,3843664,3553230,3848142,2024,2052,7352,20741,1588,3673,2528,-34,40,55,821
198562,3549780,3843864,3553427,3848339,1770,2352,6495,16177,751,4031,2478,-1717,50,47,824
199564,3549976,3844100,3553624,3848536,1846,2111,6064,13164,93,3631,1687,-278,50,47,824
200565,3550180,3844304,3553821,3848733,1794,2308,5824,11548,162,3711,-2027,1184,48,46,821
201566,3550328,3844532,3554018,3848930,2166,2145,5495,10684,606,3656,-3583,2006,48,46,821
202566,3550528,3844772,3554215,3849127,1840,2052,5109,9565,751,2491,-1325,1941,38,51,821
203568,3550704,3844984,3554412,3849324,2000,2222,4765,8186,441,2063,-54,2195,38,51,821
204568,3550888,3845200,3554609,3849521,1957,2189,4474,6539,-175,1148,589,1417,34,47,821
205570,3551036,3845408,3554806,3849718,2203,2236,4289,3859,-746,-1529,1081,-365,34,47,821
206570,3551204,3845592,3555003,3849915,2092,2391,4125,336,-1052,-3043,700,-158,41,40,821
207572,3551380,3845816,3555200,3850112,2052,2130,3736,-2240,-1310,-2702,486,2462,41,40,821
208572,3551544,3846052,3555397,3850309,2143,2039,3266,-2889,-1720,-2858,1040,4793,29,42,821
209573,3551716,3846260,3555594,3850506,2104,2210,2900,-2432,-2231,-3584,1442,5762,29,42,821
210574,3551908,3846444,3555791,3850703,1982,2367,2644,-2114,-2709,-4071,1191,5417,28,49,821
211576,3552080,3846644,3555988,3850900,2119,2267,2484,-1859,-2863,-4632,1162,6168,28,49,821
212577,3552268,3846860,3556185,3851097,2024,2158,2368,-1583,-2646,-4529,1394,5939,33,35,819
213577,3552420,3847096,3556382,3851294,2269,2017,2257,-1347,-2177,-4582,1323,5724,33,35,819
214578,3552600,3847312,3556579,3851491,2102,2135,2226,-1101,-1498,-5331,1190,5838,47,51,819
215580,3552756,3847532,3556776,3851688,2271,2101,2308,-900,-722,-5301,870,5354,47,51,819
216581,3552924,3847736,3556973,3851885,2210,2199,2483,-806,118,-5219,855,4870,44,40,820
217582,3553072,3847944,3557170,3852082,2356,2169,2703,-820,1033,-5240,1165,4558,44,40,820
218582,3553228,3848188,3557367,3852279,2325,1924,2928,-985,1947,-4958,1182,3836,36,48,819
219584,3553392,3848372,3557564,3852476,2291,2306,3199,-1286,2847,-4937,1257,3427,36,48,819
220584,3553540,3848588,3557761,3852673,2413,2099,3495,-1634,3662,-4633,1158,3070,27,49,819
221585,3553720,3848800,3557958,3852870,2222,2117,3818,-2023,4300,-4233,975,2846,27,49,819
222586,3553872,3849020,3558155,3853067,2417,2058,4146,-2354,4780,-3992,797,3110,28,38,818
223588,3554020,3849224,3558352,3853264,2464,2156,4420,-2472,5106,-3376,384,3647,28,38,818
224589,3554156,3849440,3558549,3853461,2567,2074,4654,-2433,5307,-2833,-32,3823,21,38,818
225589,3554272,3849660,3558746,3853658,2729,2039,4948,-2097,5374,-1779,-20,4103,21,38,818
226590,3554384,3849892,3558943,3853855,2792,1949,5044,-2018,5216,-1300,206,3754,39,39,819
227592,3554524,3850116,3559140,3854052,2643,1988,5146,-2091,4946,-905,376,3140,39,39,819
228593,3554676,3850344,3559337,3854249,2588,1951,5238,-2392,4565,-551,570,2471,20,41,818
229594,3554780,3850572,3559534,3854446,2930,1938,5289,-2810,4133,-198,909,2129,20,41,818
230594,3554900,3850772,3559731,3854643,2864,2112,5251,-3320,3667,272,1212,1649,38,46,818
231596,3555044,3850992,3559928,3854840,2739,1978,5088,-3869,3151,682,1287,1557,38,46,818
232597,3555200,3851248,3560125,3855037,2683,1728,4830,-4384,2652,1009,1231,1637,43,34,817
233598,3555368,3851460,3560322,3855234,2622,1996,4479,-4822,2193,1302,1709,1778,43,34,817
234598,3555556,3851696,3560519,3855431,2502,1830,4048,-5108,1765,1396,2516,2003,41,44,817
235600,3555712,3851988,3560716,3855628,2721,1439,3607,-5287,1381,1422,2717,2251,41,44,817
236601,3555856,3852140,3560913,3855825,2820,2335,3181,-5360,1062,1482,2861,2484,43,49,819
237602,3556036,3852260,3561110,3856022,2603,2569,2744,-5286,804,1345,2979,2837,43,49,819
238602,3556152,3852372,3561307,3856219,3040,2657,2293,-5069,598,1187,2895,3168,28,35,820
239604,3556304,3852460,3561504,3856416,2836,2856,1869,-4753,426,1018,2735,3388,28,35,820
240605,3556456,3852600,3561701,3856613,2856,2556,1477,-4342,265,730,2906,3506,43,29,815
241605,3556572,3852728,3561898,3856810,3118,2662,1090,-3857,124,548,3126,3715,43,29,815
242606,3556696,3852892,3562095,3857007,3101,2453,747,-3256,1,399,3034,3864,24,26,812
243607,3556848,3853068,3562292,3857204,2947,2388,502,-2570,-99,281,2468,4035,24,26,812
244608,3556964,3853328,3562489,3857401,3208,1836,299,-1796,-132,348,1608,4159,26,46,810
245609,3557084,3853624,3562686,3857598,3218,1568,89,-1072,-77,402,1308,3900,26,46,810
246610,3557200,3853912,3562883,3857795,3280,1579,-134,-419,60,396,1474,3553,27,57,812
247611,3557324,3854184,3563080,3857992,3263,1647,-310,52,240,369,1670,3015,27,57,812
248612,3557476,3854496,3563277,3858189,3109,1347,-462,401,399,253,1984,2779,34,53,816
249613,3557624,3854800,3563474,3858386,3156,1350,-610,748,508,250,2185,2778,34,53,816
250614,3557784,3855084,3563671,3858583,3099,1438,-724,1099,551,305,1955,2538,26,57,816
251615,3557956,3855448,3563868,3858780,3036,866,-830,1490,516,345,1810,2779,26,57,816
252616,3558108,3855740,3564065,3858977,3182,1274,-951,1869,415,418,1374,2798,46,67,818
253617,3558296,3856028,3564262,3859174,2962,1260,-1085,2352,272,507,984,3111,46,67,818
254618,3558464,3856336,3564459,3859371,3101,1087,-1229,2893,120,522,1060,3387,46,67,820
255619,3558644,3856704,3564656,3859568,3034,637,-1376,3484,-27,667,1175,3518,46,67,820
256621,3558852,3857036,3564853,3859765,2856,804,-1543,4080,-154,842,1171,3620,35,72,819
257621,3559040,3857432,3565050,3859962,2986,316,-1715,4622,-247,1120,1237,3471,35,72,819
258631,3559244,3857712,3565280,3860192,2898,1020,-1887,5037,-371,1451,1583,3152,53,64,821
259623,3559492,3858060,3565477,3860389,2603,529,-2025,5273,-562,1687,1865,2700,53,64,821
260625,3559696,3858412,3565674,3860586,2876,437,-2117,5341,-831,1797,2169,2345,61,61,823
261626,3559928,3858708,3565871,3860783,2686,743,-2193,5254,-1201,1821,2327,1869,61,61,823
262627,3560176,3858984,3566068,3860980,2565,834,-2267,5071,-1651,1814,2330,1689,58,69,825
263628,3560428,3859244,3566265,3861177,2517,907,-2380,4863,-2135,1897,2407,1680,58,69,825
264629,3560648,3859512,3566462,3861374,2707,826,-2553,4624,-2573,1972,2633,1676,61,59,824
265630,3560904,3859748,3566659,3861571,2458,1009,-2799,4457,-2931,2001,2879,2046,61,59,824
266630,3561144,3859968,3566856,3861768,2540,1100,-3040,4388,-3207,1976,2822,2300,60,56,823
267632,3561376,3860180,3567053,3861965,2576,1143,-3271,4507,-3379,1892,2563,2881,60,56,823
268633,3561616,3860384,3567250,3862162,2508,1190,-3515,4740,-3479,1673,2327,3128,49,52,823
269633,3561880,3860580,3567447,3862359,2330,1241,-3778,5092,-3576,1358,2183,3399,49,52,823
270634,3562128,3860780,3567644,3862556,2409,1215,-4038,5452,-3702,974,1998,3430,43,35,823
271636,3562348,3860972,3567841,3862753,2574,1267,-4294,5794,-3847,739,1519,3485,43,35,823
272637,3562592,3861144,3568038,3862950,2405,1404,-4519,6163,-4025,506,1113,3631,41,38,824
273638,3562808,3861320,3568235,3863147,2572,1388,-4695,6563,-4218,172,763,3715,41,38,824
274638,3563028,3861480,3568432,3863344,2538,1506,-4841,7033,-4426,-163,448,3824,39,36,822
275639,3563268,3861644,3568629,3863541,2395,1495,-4962,7412,-4685,-589,222,3531,39,36,822
276641,3563484,3861812,3568826,3863738,2538,1483,-5095,7818,-5024,-896,-5,3710,39,47,821
277641,3563712,3861976,3569023,3863935,2450,1523,-5248,8171,-5416,-1300,-315,3499,39,47,821
278643,3563960,3862156,3569220,3864132,2304,1431,-5419,8526,-5825,-1857,-780,3837,53,42,822
279644,3564196,3862340,3569417,3864329,2363,1412,-5603,8891,-6230,-2344,-1306,3953,53,42,822
280645,3564404,3862508,3569614,3864526,2534,1525,-5792,9283,-6594,-2595,-2028,4087,45,27,822
281646,3564660,3862672,3569811,3864723,2209,1565,-5945,9711,-6888,-2879,-2763,4246,45,27,822
282646,3564892,3862796,3570008,3864920,2345,1847,-6019,10079,-7038,-2996,-3861,4037,45,35,823
283648,3565108,3862900,3570205,3865117,2437,2014,-6009,10352,-6997,-3138,-5160,4147,45,35,823
284649,3565336,3863024,3570402,3865314,2350,1921,-5904,10435,-6797,-3380,-6221,3713,35,33,822
285649,3565544,3863144,3570599,3865511,2471,1981,-5745,10300,-6530,-3559,-6864,3308,35,33,822
286650,3565768,3863312,3570796,3865708,2360,1693,-5543,9898,-6249,-3857,-7040,2614,41,24,820
287651,3565968,3863456,3570993,3865905,2510,1868,-5299,9222,-5982,-4074,-6998,2110,41,24,820
288652,3566216,3863584,3571190,3866102,2188,1998,-5009,8391,-5722,-4181,-6983,2021,35,27,819
289653,3566452,3863756,3571387,3866299,2247,1735,-4652,7365,-5422,-4257,-7127,1511,35,27,819
290654,3566692,3863916,3571584,3866496,2204,1826,-4265,6226,-5052,-4189,-7470,1476,42,43,819
291655,3566936,3864112,3571781,3866693,2160,1603,-3845,5029,-4592,-4124,-7636,1630,42,43,819
292656,3567192,3864252,3571978,3866890,2059,1978,-3419,3636,-4047,-4300,-7548,1301,37,36,822
293657,3567432,3864392,3572175,3867087,2141,2004,-2914,798,-3428,-5739,-7491,-1212,42,38,823
294658,3567744,3864532,3572372,3867284,1641,2029,-2339,-3264,-2714,-6191,-7233,-1398,42,38,823
295660,3567996,3864704,3572569,3867481,1993,1841,-1878,-5948,-1962,-4689,-6922,2518,48,30,822
296660,3568264,3864860,3572766,3867678,1863,1959,-1578,-6662,-1270,-3858,-6020,4653,48,30,822
297661,3568584,3865008,3572963,3867875,1485,2031,-1325,-6735,-665,-3686,-4857,5227,43,23,823
298662,3568888,3865148,3573160,3868072,1539,2106,-1061,-6766,-131,-3439,-4236,6062,43,23,823
299663,3569188,3865284,3573357,3868269,1520,2159,-770,-6938,330,-3102,-3768,6168,68,26,822
300664,3569508,3865400,3573554,3868466,1341,2320,-471,-6974,740,-2872,-3463,6706,68,26,822
301666,3569780,3865532,3573751,3868663,1609,2249,-175,-6818,1088,-2556,-3035,7042,69,36,824
302666,3570088,3865632,3573948,3868860,1336,2493,112,-6483,1348,-1970,-2524,7465,69,36,824
303668,3570400,3865752,3574145,3869057,1261,2402,397,-6143,1508,-1535,-2002,7444,72,31,823
304668,3570704,3865876,3574342,3869254,1264,2410,689,-5869,1592,-1033,-1531,7502,72,31,823
305669,3570996,3865992,3574539,3869451,1298,2496,978,-5652,1618,-312,-932,7308,49,20,824
306670,3571284,3866124,3574736,3869648,1284,2425,1317,-5450,1660,486,-785,7151,49,20,824
307671,3571600,3866232,3574933,3869845,1057,2615,1721,-5320,1724,1062,-666,6664,72,18,822
308672,3571904,3866348,3575130,3870042,1086,2601,2143,-5332,1746,1419,-215,6375,72,18,822
309673,3572184,3866456,3575327,3870239,1201,2691,2529,-5419,1655,1790,599,6056,62,23,821
310674,3572460,3866548,3575524,3870436,1191,2838,2903,-5590,1464,2132,1153,5525,62,23,821
311676,3572708,3866644,3575721,3870633,1345,2858,3268,-5874,1167,2196,1717,5221,42,18,820
312676,3572972,3866760,3575918,3870830,1215,2769,3627,-6194,817,2286,1829,5201,42,18,820
313678,3573232,3866860,3576115,3871027,1213,2913,3996,-6429,502,2551,1692,5290,57,27,820
314678,3573448,3866956,3576312,3871224,1480,2983,4348,-6552,224,2566,1727,5382,57,27,820
315679,3573688,3867072,3576509,3871421,1312,2895,4670,-6627,-66,2441,1908,5398,58,28,820
316680,3573948,3867172,3576706,3871618,1161,3038,4909,-6662,-401,2162,2146,5416,58,28,820
317682,3574160,3867296,3576903,3871815,1454,2920,5134,-6576,-725,2008,1955,5554,37,33,819
318682,3574416,3867416,3577100,3872012,1154,2980,5368,-6389,-1021,1715,1798,5505,37,33,819
319683,3574660,3867520,3577297,3872209,1208,3122,5575,-6158,-1292,1363,1665,5522,42,28,819
320684,3574868,3867652,3577494,3872406,1430,2977,5720,-5788,-1504,1067,1359,5708,42,28,819
321685,3575100,3867788,3577691,3872603,1264,2979,5788,-5289,-1621,826,1009,5982,52,30,818
322686,3575376,3867928,3577888,3872800,955,2981,5776,-4637,-1635,554,702,6087,52,30,818
323687,3575612,3868060,3578085,3872997,1188,3060,5700,-4021,-1585,154,751,5851,43,33,818
324688,3575864,3868204,3578282,3873194,1065,3009,5602,-3434,-1504,-268,746,5525,43,33,818
325690,3576160,3868336,3578479,3873391,747,3114,5523,-2910,-1407,-614,639,5259,60,23,819
326691,3576416,3868472,3578676,3873588,971,3117,5472,-2404,-1255,-803,470,4935,60,23,819
327692,3576684,3868636,3578873,3873785,865,2957,5410,-1933,-1026,-960,383,4608,41,39,820
328693,3576960,3868808,3579070,3873982,781,2919,5304,-1517,-776,-1145,832,4136,41,39,820
329694,3577228,3868968,3579267,3874179,801,3011,5152,-1253,-538,-1317,913,3615,44,29,821
330694,3577484,3869140,3579464,3874376,850,2948,4995,-1150,-338,-1408,1440,2947,44,29,821
331695,3577728,3869316,3579661,3874573,904,2934,4803,-1225,-172,-1436,1817,2353,61,46,820
332696,3578000,3869476,3579858,3874770,697,3051,4587,-1414,-14,-1378,2047,1909,61,46,820
333697,3578248,3869652,3580055,3874967,825,2961,4346,-1681,142,-1208,2206,1581,58,32,820
334698,3578444,3869884,3580252,3875164,1151,2597,4128,-1936,316,-952,2096,1498,58,32,820
335700,3578684,3870056,3580449,3875361,857,2984,3891,-2140,559,-546,1793,1597,52,46,821
336700,3578880,3870228,3580646,3875558,1133,2996,3652,-2268,893,-76,1360,1743,52,46,821
337701,3579088,3870420,3580843,3875755,1054,2874,3406,-2291,1285,308,1136,1933,34,31,821
338702,3579296,3870620,3581040,3875952,1049,2824,3167,-2297,1693,660,948,1892,34,31,821
339703,3579476,3870820,3581237,3876149,1231,2823,2903,-2259,2064,983,891,2022,48,50,819
340704,3579664,3871000,3581434,3876346,1186,2957,2604,-2258,2385,1270,1007,2081,48,50,819
341712,3579840,3871196,3581664,3876576,1285,2873,2226,-2197,2633,1573,1357,2233,38,39,820
342706,3580016,3871424,3581861,3876773,1294,2660,1783,-2148,2794,1835,1766,2097,38,39,820
343708,3580164,3871636,3582058,3876970,1492,2755,1287,-2146,2860,2123,2025,2067,39,52,819
344708,3580340,3871848,3582255,3877167,1326,2749,740,-2224,2823,2443,2373,1921,39,52,819
345710,3580488,3872060,3582452,3877364,1523,2743,178,-2363,2709,2714,2608,1802,24,42,820
346710,3580628,3872272,3582649,3877561,1599,2738,-380,-2492,2539,2851,2680,1841,24,42,820
347711,3580780,3872488,3582846,3877758,1543,2705,-908,-2615,2332,2898,2643,1867,26,50,820
348712,3580876,3872684,3583043,3877955,1938,2832,-1413,-2717,2111,3058,2533,2071,26,50,820
349713,3581024,3872896,3583240,3878152,1635,2726,-1874,-2771,1893,3306,2285,2184,24,42,820
350714,3581184,3873120,3583437,3878349,1577,2640,-2330,-2789,1681,3448,2008,2407,24,42,820
351716,3581300,3873284,3583634,3878546,1888,3031,-2770,-2686,1478,3492,1485,2843,37,47,819
352717,3581456,3873432,3583831,3878743,1656,3153,-3186,-2546,1280,3380,1065,2912,37,47,819
353717,3581616,3873616,3584028,3878940,1648,2935,-3563,-2421,1070,3248,834,2987,39,32,816
354718,3581736,3873804,3584225,3879137,1932,2915,-3905,-2290,840,3127,649,3166,39,32,816
355719,3581904,3874036,3584422,3879334,1646,2626,-4214,-2086,606,2939,371,3420,42,45,816
356720,3582076,3874212,3584619,3879531,1632,2986,-4490,-1791,392,2706,-10,3661,42,45,816
357721,3582248,3874356,3584816,3879728,1643,3210,-4727,-1486,202,2437,-278,3911,40,31,819
358722,3582404,3874512,3585013,3879925,1762,3154,-4911,-1098,49,2165,-579,4148,40,31,819
359724,3582588,3874644,3585210,3880122,1593,3334,-5047,-663,-79,1835,-849,4311,39,32,816
360725,3582784,3874804,3585407,3880319,1519,3176,-5115,-246,-173,1526,-1182,4425,39,32,816
361726,3582936,3874972,3585604,3880516,1814,3140,-5132,174,-247,1204,-1371,4681,39,27,815
362727,3583136,3875172,3585801,3880713,1514,2940,-5086,596,-288,850,-1641,4701,39,27,815
363728,3583328,3875332,3585998,3880910,1566,3207,-4998,999,-287,467,-1879,4828,29,33,816
364728,3583500,3875480,3586195,3881107,1703,3304,-4849,1402,-269,31,-1939,4771,29,33,816
365729,3583704,3875636,3586392,3881304,1501,3273,-4666,1711,-245,-327,-2007,4739,32,24,815
366730,3583912,3875816,3586589,3881501,1471,3132,-4446,1976,-225,-664,-2118,4739,32,24,815
367732,3584076,3875968,3586786,3881698,1761,3328,-4194,2190,-189,-1013,-2299,4859,30,38,815
368733,3584252,3876124,3586983,3881895,1696,3322,-3910,2439,-114,-1306,-2500,5004,30,38,815
369733,3584476,3876288,3587180,3882092,1385,3288,-3604,2607,8,-1604,-2631,5076,49,23,815
370735,3584656,3876456,3587377,3882289,1667,3277,-3267,2785,165,-1754,-2671,5219,49,23,815
371735,3584832,3876604,3587574,3882486,1702,3424,-2943,2973,336,-1857,-2507,5452,30,35,816
372736,3585048,3876808,3587771,3882683,1444,3072,-2640,3188,473,-2008,-1825,5508,30,35,816
373737,3585228,3876964,3587968,3882880,1678,3391,-2362,3257,571,-2173,-1577,5334,32,25,814
374738,3585388,3877128,3588165,3883077,1819,3357,-2116,3259,657,-2185,-1587,5390,32,25,814
375739,3585596,3877284,3588362,3883274,1515,3426,-1883,3115,747,-2081,-1375,4954,33,42,813
376740,3585800,3877444,3588559,3883471,1537,3418,-1654,2793,851,-1924,-1231,4604,33,42,813
377741,3585976,3877648,3588756,3883668,1722,3142,-1421,2396,995,-1751,-1160,4480,48,35,814
378742,3586156,3877844,3588953,3883865,1705,3193,-1179,1951,1159,-1700,-1169,4374,48,35,814
379743,3586344,3878056,3589150,3884062,1660,3088,-941,1491,1313,-1678,-1028,4541,50,29,816
380744,3586516,3878252,3589347,3884259,1771,3189,-704,998,1443,-1707,-733,4580,50,29,816
381745,3586708,3878412,3589544,3884456,1649,3432,-467,453,1588,-2080,-649,4490,35,37,817
382746,3586920,3878604,3589741,3884653,1517,3235,-205,-844,1744,-2613,-549,3162,35,37,817
383747,3587064,3878808,3589938,3884850,1966,3158,62,-2325,1879,-2409,-454,3690,49,41,815
384748,3587220,3878996,3590135,3885047,1910,3264,284,-2922,2069,-2002,-154,5720,49,41,815
385749,3587428,3879156,3590332,3885244,1581,3456,452,-2747,2302,-1491,-233,6312,40,30,815
386750,3587576,3879360,3590529,3885441,1978,3179,602,-2666,2447,-1268,-238,5738,40,30,815
387751,3587748,3879560,3590726,3885638,1839,3203,777,-2739,2551,-1707,-168,6281,30,43,813
388752,3587916,3879776,3590923,3885835,1878,3096,953,-2790,2604,-1390,45,6320,30,43,813
389753,3588064,3879988,3591120,3886032,2024,3116,1142,-2753,2592,-1209,237,6290,33,47,815
390754,3588196,3880184,3591317,3886229,2154,3218,1349,-2607,2576,-1600,467,6723,33,47,815
391756,3588388,3880376,3591514,3886426,1781,3246,1569,-2535,2501,-1451,356,6396,45,41,814
392757,3588548,3880568,3591711,3886623,1998,3249,1812,-2434,2430,-1234,104,6616,45,41,814
393758,3588664,3880780,3591908,3886820,2310,3119,2067,-2228,2417,-1017,-231,6732,28,30,815
394758,3588828,3880976,3592105,3887017,2025,3220,2287,-2056,2410,-734,-651,6450,28,30,815
395760,3588952,3881168,3592302,3887214,2308,3248,2510,-1984,2438,-689,-742,6282,25,30,813
396760,3589072,3881336,3592499,3887411,2368,3412,2741,-1920,2483,-356,-739,6153,25,30,813
397761,3589216,3881496,3592696,3887608,2241,3480,2962,-1870,2474,-69,-620,5788,41,28,811
398762,3589352,3881672,3592893,3887805,2319,3391,3191,-1884,2439,-292,-323,5565,41,28,811
399764,3589476,3881844,3593090,3888002,2427,3428,3400,-2000,2357,-231,152,5223,39,35,810
400764,3589624,3882036,3593287,3888199,2298,3306,3576,-2124,2248,-93,466,5073,39,35,810
401765,3589792,3882244,3593484,3888396,2187,3202,3720,-2141,2166,-195,634,5214,30,32,810
402766,3589920,3882456,3593681,3888593,2468,3171,3831,-2119,2085,-194,708,5132,30,32,810
403767,3590060,3882624,3593878,3888790,2418,3461,3914,-2028,2023,-312,769,5450,28,27,813
404768,3590212,3882804,3594075,3888987,2364,3395,3979,-1775,1993,-408,618,5612,28,27,813
405769,3590332,3882956,3594272,3889184,2599,3590,4021,-1457,1944,-465,338,5672,33,42,810
406770,3590488,3883144,3594469,3889381,2393,3370,4065,-1108,1902,-701,25,5682,33,42,810
407772,3590648,3883348,3594666,3889578,2384,3268,4126,-822,1885,-703,-379,5473,33,31,808
408772,3590788,3883528,3594863,3889775,2535,3428,4186,-490,1845,-600,-137,5358,33,31,808
409774,3590936,3883696,3595060,3889972,2508,3517,4237,-161,1788,-762,-5,5131,29,43,809
410774,3591132,3883868,3595257,3890169,2209,3503,4271,180,1727,-942,-59,5055,29,43,809
411776,3591312,3884036,3595454,3890366,2317,3542,4276,494,1676,-1017,-67,5004,31,31,809
412776,3591468,3884196,3595651,3890563,2486,3609,4249,859,1643,-932,-57,5028,31,31,809
413777,3591684,3884372,3595848,3890760,2103,3521,4194,1233,1602,-818,-138,4820,45,33,810
414778,3591832,3884584,3596045,3890957,2551,3290,4133,1515,1556,-861,-157,4430,45,33,810
415780,3591992,3884824,3596242,3891154,2493,3097,4056,1722,1507,-824,91,4135,35,40,811
416781,3592188,3885024,3596439,3891351,2269,3347,3955,1831,1449,-578,278,3665,35,40,811
417782,3592384,3885220,3596636,3891548,2270,3373,3835,1871,1391,-427,356,3341,40,40,812
418782,3592560,3885416,3596833,3891745,2405,3376,3705,1824,1335,-384,418,3048,40,40,812
419783,3592788,3885620,3597030,3891942,2068,3324,3572,1736,1272,-336,362,2854,40,44,811
420784,3592988,3885840,3597227,3892139,2242,3215,3435,1599,1211,-235,377,2579,40,44,811
421785,3593172,3886112,3597424,3892336,2348,2858,3295,1402,1146,-129,408,2159,35,50,812
422786,3593380,3886384,3597621,3892533,2194,2826,3129,1100,1051,20,446,1886,35,50,812
423787,3593584,3886652,3597818,3892730,2217,2821,2948,724,953,177,435,1597,53,44,814
424795,3593796,3886904,3598048,3892960,2176,2913,2767,303,889,303,459,1485,53,44,814
425789,3594008,3887152,3598245,3893157,2170,2916,2606,-38,875,203,511,1529,39,45,815
426790,3594224,3887480,3598442,3893354,2137,2360,2471,-345,870,74,566,1509,39,45,815
427791,3594432,3887792,3598639,3893551,2183,2410,2346,-698,831,-23,643,1270,51,70,816
428792,3594628,3888096,3598836,3893748,2260,2414,2219,-1066,747,23,605,1188,51,70,816
429793,3594860,3888376,3599033,3893945,2020,2529,2078,-1394,656,90,301,1279,35,52,819
430794,3595068,3888668,3599230,3894142,2167,2413,1931,-1652,599,-24,447,1459,35,52,819
431795,3595272,3889028,3599427,3894339,2188,1917,1787,-1740,603,-59,455,1872,36,69,818
432796,3595504,3889420,3599624,3894536,1999,1633,1626,-1678,662,-38,314,2128,36,69,818
433797,3595712,3889740,3599821,3894733,2145,2030,1448,-1539,749,-51,353,2318,56,75,821
434798,3595912,3890048,3600018,3894930,2195,2057,1261,-1387,842,30,240,2311,56,75,821
435799,3596136,3890432,3600215,3895127,2034,1501,1079,-1260,915,56,666,2273,56,60,822
436800,3596328,3890816,3600412,3895324,2236,1420,909,-1154,984,100,812,2232,56,60,822
437801,3596548,3891172,3600609,3895521,2052,1526,744,-1086,1066,229,835,2119,52,76,823
438802,3596792,3891488,3600806,3895718,1882,1724,572,-1019,1160,366,946,2029,52,76,823
439803,3596980,3891860,3601003,3895915,2237,1298,400,-1021,1250,532,637,1846,52,71,823
440805,3597180,3892220,3601200,3896112,2161,1302,236,-1006,1313,771,452,1728,52,71,823
441805,3597400,3892544,3601397,3896309,2027,1472,78,-1106,1296,854,1231,1495,51,61,822
442806,3597572,3892840,3601594,3896506,2339,1605,-72,-1220,1241,1058,1184,1593,51,61,822
443807,3597740,3893196,3601791,3896703,2378,1161,-216,-1299,1227,1271,476,1848,30,70,823
444808,3597952,3893544,3601988,3896900,2097,1144,-373,-1272,1247,1412,388,2029,30,70,823
445809,3598160,3893852,3602185,3897097,2117,1347,-572,-1173,1263,1614,388,2258,43,50,823
446810,3598356,3894136,3602382,3897294,2194,1459,-801,-1020,1290,1886,67,2409,43,50,823
447811,3598544,3894408,3602579,3897491,2249,1501,-1028,-885,1296,2047,161,2487,43,63,824
448812,3598772,3894776,3602776,3897688,1986,827,-1228,-773,1234,2158,319,2488,43,63,824
449813,3598968,3895100,3602973,3897885,2187,1046,-1424,-605,1127,2321,314,2751,42,58,823
450814,3599184,3895396,3603170,3898082,2054,1179,-1612,-382,1020,2474,229,2849,42,58,823
451815,3599492,3895680,3603367,3898279,1431,1216,-1816,-76,903,2590,368,3146,44,60,826
452816,3599772,3895940,3603564,3898476,1571,1339,-2021,301,755,2622,467,3273,44,60,826
453817,3600024,3896248,3603761,3898673,1722,990,-2220,689,570,2725,338,3233,62,58,827
454818,3600292,3896592,3603958,3898870,1592,702,-2398,1054,376,2839,-7,3240,62,58,827
455819,3600532,3896884,3604155,3899067,1749,985,-2573,1396,171,2802,-135,3251,61,52,827
456821,3600828,3897160,3604352,3899264,1355,1051,-2734,1710,-69,2728,-94,3202,61,52,827
457822,3601152,3897404,3604549,3899461,1125,1230,-2869,1975,-352,2637,32,2999,59,50,828
458823,3601396,3897684,3604746,3899658,1606,969,-2986,2213,-629,2688,-201,2861,59,50,828
459824,3601660,3897980,3604943,3899855,1451,826,-3104,2453,-860,2703,-316,2842,63,51,829
460825,3601964,3898204,3605140,3900052,1155,1265,-3178,2670,-1048,2562,-408,2808,63,51,829
461826,3602260,3898460,3605337,3900249,1163,1039,-3222,2889,-1236,2351,-306,2830,68,43,829
462827,3602536,3898700,3605534,3900446,1253,1121,-3238,3093,-1420,2212,-325,2810,68,43,829
463828,3602796,3898936,3605731,3900643,1326,1129,-3217,3281,-1595,2153,-333,2766,55,36,829
464828,3603036,3899168,3605928,3900840,1432,1138,-3160,3447,-1776,1919,-102,2827,55,36,829
465830,3603312,3899376,3606125,3901037,1174,1284,-3068,3680,-1973,1568,370,2945,43,44,828
466831,3603612,3899552,3606322,3901234,978,1494,-2984,4022,-2148,1565,800,3452,43,44,828
467832,3603880,3899716,3606519,3901431,1148,1583,-2941,4533,-2298,1446,1009,4048,63,23,829
468833,3604108,3899848,3606716,3901628,1385,1813,-2874,4963,-2453,1076,1026,3568,63,23,829
469833,3604320,3899980,3606913,3901825,1479,1841,-2766,5285,-2586,918,1007,3573,42,39,828
470834,3604608,3900176,3607110,3902022,964,1442,-2585,5419,-2657,828,976,2909,42,39,828
471836,3604828,3900360,3607307,3902219,1380,1523,-2328,5292,-2714,405,804,1980,60,26,825
472836,3605052,3900512,3607504,3902416,1343,1743,-2059,4972,-2780,249,601,1626,60,26,825
473838,3605268,3900684,3607701,3902613,1386,1630,-1867,4615,-2833,63,182,1663,51,38,827
474839,3605488,3900836,3607898,3902810,1351,1775,-1753,4266,-2844,-105,-430,1809,51,38,827
475840,3605716,3900980,3608095,3903007,1288,1848,-1726,3978,-2805,-170,-672,2041,48,31,825
476840,3605944,3901140,3608292,3903204,1274,1766,-1785,3794,-2739,-324,-522,2253,48,31,825
477842,3606120,3901244,3608489,3903401,1610,2156,-1857,3607,-2672,-499,-203,2175,26,27,825
478842,3606316,3901388,3608686,3903598,1485,1930,-1888,3386,-2585,-557,-506,2179,26,27,825
479844,3606480,3901552,3608883,3903795,1701,1820,-1888,3062,-2491,-626,-767,2123,43,36,823
480845,3606632,3901728,3609080,3903992,1795,1754,-1898,2703,-2421,-674,-629,2161,43,36,823
481846,3606776,3901884,3609277,3904189,1870,1898,-1930,2315,-2345,-740,-379,2168,22,20,824
482847,3606944,3902028,3609474,3904386,1732,1997,-1974,1901,-2194,-624,-338,2156,22,20,824
483848,3607084,3902172,3609671,3904583,1932,2021,-2017,1452,-1936,-426,-280,2148,39,34,822
484849,3607252,3902316,3609868,3904780,1771,2044,-2073,1037,-1608,-300,-19,2379,39,34,822
485850,3607432,3902452,3610065,3904977,1704,2122,-2160,583,-1245,-285,279,2220,39,25,820
486850,3607568,3902576,3610262,3905174,2006,2229,-2249,53,-871,-321,515,2167,39,25,820
487852,3607752,3902736,3610459,3905371,1712,2021,-2339,-494,-508,-201,533,2310,21,23,821
488852,3607888,3902864,3610656,3905568,2040,2252,-2457,-1026,-161,3,212,2398,21,23,821
489854,3608060,3903028,3610853,3905765,1827,2042,-2605,-1512,140,207,-118,2681,24,35,822
490855,3608224,3903220,3611050,3905962,1891,1869,-2764,-2045,380,568,-380,2501,24,35,822
491856,3608352,3903392,3611247,3906159,2148,2006,-2946,-2639,557,1178,-635,2461,23,36,821
492857,3608500,3903588,3611444,3906356,2044,1857,-3130,-3226,716,1641,-1031,2653,23,36,821
493858,3608648,3903732,3611641,3906553,2067,2206,-3309,-3713,871,1890,-1394,3083,20,40,821
494858,3608828,3903872,3611838,3906750,1874,2256,-3473,-4078,1023,2025,-1485,3487,20,40,821
495860,3609016,3904024,3612035,3906947,1829,2202,-3821,-3984,1149,2291,-1629,5395,39,38,820
496861,3609200,3904208,3612232,3907144,1860,2008,-4378,-3300,1247,2436,-2073,6771,39,38,820
497862,3609380,3904384,3612429,3907341,1893,2068,-4619,-3063,1289,2372,-1890,4420,22,29,819
498863,3609572,3904580,3612626,3907538,1822,1943,-4705,-2942,1263,2367,-2079,5827,22,29,819
499864,3609740,3904724,3612823,3907735,1984,2293,-4780,-2711,1182,2308,-2203,6107,32,33,821
500865,3609956,3904900,3613020,3907932,1677,2103,-4798,-2407,1051,2261,-2386,6137,32,33,821
501866,3610148,3905040,3613217,3908129,1829,2353,-4735,-2223,894,2228,-2673,5917,45,35,820
502867,3610332,3905204,3613414,3908326,1886,2218,-4661,-1956,746,2374,-2886,6523,45,35,820
503868,3610516,3905376,3613611,3908523,1892,2179,-4574,-1683,616,2440,-2979,6399,26,39,820
504869,3610728,3905504,3613808,3908720,1711,2486,-4481,-1350,483,2451,-2789,6821,26,39,820
505870,3610916,3905676,3614005,3908917,1866,2222,-4327,-995,315,2340,-2628,6715,36,28,821
506871,3611132,3905796,3614202,3909114,1683,2582,-4073,-842,82,2257,-2239,6316,36,28,821
507879,3611368,3905940,3614432,3909344,1556,2470,-3832,-640,-223,2264,-1161,6823,52,35,819
508872,3611580,3906084,3614629,3909541,1699,2494,-3644,-359,-516,2133,-653,7062,52,35,819
509873,3611788,3906248,3614826,3909738,1721,2384,-3438,35,-744,1726,-595,7448,31,36,819
510874,3612020,3906388,3615023,3909935,1556,2560,-3172,404,-895,1347,-460,7512,31,36,819
511875,3612260,3906540,3615220,3910132,1487,2505,-2856,819,-1009,1091,-303,7843,31,23,820
512877,3612448,3906664,3615417,3910329,1817,2713,-2027,1866,-1014,522,-898,13995,31,23,820
513877,3612684,3906824,3615614,3910526,1500,2505,319,5962,-634,-1014,-2994,32767,33,30,821
514878,3612900,3907064,3615811,3910723,1618,1986,2545,9330,-323,287,-1053,21181,33,30,821
515879,3613084,3907296,3616008,3910920,1823,2022,3208,9432,-336,1806,994,4759,34,38,820
516880,3613296,3907496,3616205,3911117,1643,2222,2989,7611,-532,2629,1161,2763,34,38,820
517881,3613508,3907748,3616402,3911314,1636,1874,2784,5787,-676,3137,691,2493,35,49,822
518882,3613704,3907980,3616599,3911511,1738,1983,2801,4463,-603,3190,139,2685,35,49,822
519884,3613884,3908164,3616796,3911708,1846,2290,2820,3639,-387,2993,-388,3729,46,48,822
520884,3614080,3908372,3616993,3911905,1747,2136,2770,3053,-159,2432,-345,4094,46,48,822
521885,3614232,3908592,3617190,3912102,2042,2051,2686,2475,-6,1897,-136,4394,35,52,820
522887,3614380,3908796,3617387,3912299,2089,2149,2578,2079,24,1450,46,4994,35,52,820
523888,3614568,3909012,3617584,3912496,1844,2067,2465,1789,-45,759,270,5196,37,47,821
524889,3614724,3909192,3617781,3912693,2062,2299,2343,1648,-210,221,241,5516,37,47,821
525890,3614864,3909416,3617978,3912890,2188,2013,2208,1544,-456,-283,131,5636,36,39,821
526891,3615044,3909624,3618175,3913087,1946,2109,2087,1532,-718,-859,26,5700,36,39,821
527892,3615176,3909828,3618372,3913284,2275,2131,1982,1555,-973,-1202,-429,5551,25,50,819
528893,3615312,3910028,3618569,3913481,2278,2156,1849,1657,-1139,-1502,-987,5888,25,50,819
529894,3615476,3910216,3618766,3913678,2117,2236,1694,1863,-1230,-1827,-1026,6106,24,50,818
530895,3615612,3910432,3618963,3913875,2320,2053,1582,2040,-1301,-1912,-873,5746,24,50,818
531896,3615760,3910668,3619160,3914072,2268,1911,1531,2121,-1332,-2078,-444,5500,35,38,818
532897,3615896,3910840,3619357,3914269,2369,2323,1547,2118,-1322,-2101,-354,5136,35,38,818
533897,3616056,3911016,3619554,3914466,2237,2308,1644,1998,-1288,-2062,-398,4595,19,35,819
534899,3616196,3911208,3619751,3914663,2388,2211,1779,1831,-1211,-2135,-475,4353,19,35,819
535900,3616352,3911388,3619948,3914860,2306,2293,1923,1532,-1092,-2162,-440,3815,26,41,818
536900,3616492,3911612,3620145,3915057,2432,2007,2073,1130,-894,-2088,-549,3471,26,41,818
537902,3616608,3911808,3620342,3915254,2618,2184,2214,698,-558,-1934,-587,3254,40,31,817
538903,3616776,3911996,3620539,3915451,2306,2238,2343,177,-110,-1845,20,2955,40,31,817
539904,3616940,3912168,3620736,3915648,2347,2350,2424,-301,381,-1870,597,2951,33,38,817
540905,3617100,3912344,3620933,3915845,2389,2335,2439,-754,894,-1858,653,2942,33,38,817
541906,3617244,3912548,3621130,3916042,2513,2157,2428,-1144,1372,-1908,762,3112,43,46,817
542906,3617436,3912784,3621327,3916239,2215,1941,2437,-1401,1756,-2047,614,3395,43,46,817
543908,3617592,3912996,3621524,3916436,2459,2085,2493,-1545,2057,-2125,344,3529,27,50,817
544909,3617748,3913204,3621721,3916633,2478,2105,2580,-1615,2289,-2064,125,3757,27,50,817
545910,3617948,3913400,3621918,3916830,2203,2182,2678,-1548,2467,-2102,125,4013,26,49,819
546911,3618100,3913580,3622115,3917027,2523,2290,2763,-1337,2585,-2168,121,4282,26,49,819
547912,3618248,3913804,3622312,3917224,2570,2003,2796,-1101,2607,-2164,196,4273,35,45,817
548913,3618428,3914000,3622509,3917421,2379,2180,2770,-849,2578,-1941,-15,4339,35,45,817
549913,3618580,3914184,3622706,3917618,2575,2262,2695,-639,2548,-1536,-507,4085,38,44,816
550915,3618720,3914396,3622903,3917815,2675,2080,2595,-474,2545,-1267,-661,3980,38,44,816
551916,3618920,3914592,3623100,3918012,2299,2181,2473,-381,2543,-1145,-418,3711,27,41,818
552916,3619084,3914788,3623297,3918209,2540,2183,2351,-346,2555,-779,-916,3474,27,41,818
553917,3619256,3914992,3623494,3918406,2502,2130,2244,-415,2536,-551,-738,3051,46,46,816
554918,3619420,3915200,3623691,3918603,2567,2101,2152,-576,2474,-336,-462,2789,46,46,816
555920,3619584,3915424,3623888,3918800,2582,1990,2051,-810,2408,-72,-306,2570,23,43,817
556920,3619716,3915648,3624085,3918997,2811,1978,1952,-1090,2382,142,-79,2368,23,43,817
557922,3619848,3915880,3624282,3919194,2841,1914,1834,-1356,2404,393,34,2402,21,52,817
558922,3620028,3916128,3624479,3919391,2550,1791,1721,-1600,2471,564,199,2363,21,52,817
559924,3620164,3916316,3624676,3919588,2852,2171,1613,-1812,2518,580,698,2455,41,38,816
560925,3620292,3916552,3624873,3919785,2934,1855,1514,-1933,2544,646,80,2680,41,38,816
561925,3620448,3916804,3625070,3919982,2778,1731,1461,-1966,2557,716,-373,2855,45,56,819
562926,3620584,3917072,3625267,3920179,2929,1601,1434,-1908,2511,576,319,3134,45,56,819
563928,3620748,3917304,3625464,3920376,2770,1812,1388,-1733,2424,430,500,3453,30,43,815
564928,3620944,3917624,3625661,3920573,2571,1207,1319,-1458,2331,332,190,3644,30,43,815
565929,3621136,3917788,3625858,3920770,2600,2198,1241,-1045,2222,187,210,3991,44,49,817
566930,3621300,3917916,3626055,3920967,2790,2453,1134,-520,2096,55,-30,4239,44,49,817
567932,3621500,3918080,3626252,3921164,2565,2244,1012,49,1998,65,-560,4345,42,27,821
568932,3621664,3918244,3626449,3921361,2805,2258,895,610,1902,-81,347,4310,42,27,821
569934,3621804,3918440,3626646,3921558,2981,2060,771,1166,1784,-160,1002,4268,29,40,814
570934,3621964,3918664,3626843,3921755,2874,1874,671,1670,1636,-131,536,4005,29,40,814
571936,3622132,3918916,3627040,3921952,2837,1675,637,2121,1462,-69,-113,3864,27,47,815
572936,3622272,3919220,3627237,3922149,3037,1304,660,2473,1229,-141,765,3562,27,47,815
573938,3622432,3919496,3627434,3922346,2930,1444,674,2840,962,-110,957,3500,42,51,817
574938,3622560,3919744,3627631,3922543,3161,1598,653,3094,742,-31,470,3180,42,51,817
575939,3622696,3920072,3627828,3922740,3139,1040,586,3229,600,78,277,2955,21,57,817
576940,3622824,3920356,3628025,3922937,3220,1278,479,3270,524,303,461,2664,21,57,817
577941,3622980,3920648,3628222,3923134,3064,1186,329,3273,533,506,132,2479,36,68,814
578942,3623140,3920972,3628419,3923331,3056,931,127,3276,619,599,246,2481,36,68,814
579944,3623304,3921284,3628616,3923528,3047,956,-88,3220,771,724,-224,2218,27,69,816
580944,3623500,3921596,3628813,3923725,2848,906,-266,3094,960,814,-311,2224,27,69,816
581945,3623664,3921888,3629010,3923922,3064,989,-435,2978,1055,778,280,2083,36,55,819
582946,3623836,3922212,3629207,3924119,3026,735,-611,2796,984,576,574,1926,36,55,819
583948,3624040,3922500,3629404,3924316,2824,920,-796,2627,790,301,839,2091,47,53,821
584948,3624204,3922832,3629601,3924513,3089,585,-962,2479,536,92,1170,2105,47,53,821
585950,3624404,3923140,3629798,3924710,2864,687,-1106,2419,271,46,1382,2405,42,69,819
586950,3624612,3923440,3629995,3924907,2810,692,-1224,2408,33,65,1380,2564,42,69,819
587952,3624808,3923788,3630192,3925104,2887,326,-1358,2465,-187,25,1419,2830,50,61,820
588953,3624996,3924072,3630389,3925301,2942,688,-1516,2596,-411,-27,1367,3165,50,61,820
589954,3625220,3924360,3630586,3925498,2707,624,-1708,2775,-620,-3,713,3426,56,57,822
590964,3625428,3924596,3630816,3925728,2817,946,-1933,3058,-813,3,8,3761,56,57,822
591956,3625652,3924864,3631013,3925925,2706,715,-2110,3321,-1040,-174,232,3663,34,50,822
592957,3625868,3925052,3631210,3926122,2749,1219,-2235,3519,-1320,-255,534,3569,34,50,822
593958,3626076,3925248,3631407,3926319,2795,1169,-2410,3609,-1661,-221,999,3346,41,39,822
594959,3626296,3925428,3631604,3926516,2711,1278,-2630,3638,-2020,-118,1092,3266,41,39,822
595960,3626504,3925592,3631801,3926713,2782,1392,-2836,3716,-2304,-45,664,3510,41,28,821
596961,3626720,3925748,3631998,3926910,2725,1460,-2974,3759,-2504,-153,668,3370,41,28,821
597961,3626928,3925896,3632195,3927107,2771,1532,-3086,3761,-2661,-87,402,3410,39,28,820
598962,3627156,3926064,3632392,3927304,2633,1420,-3172,3731,-2838,-73,360,3228,39,28,820
599964,3627400,3926240,3632589,3927501,2514,1380,-3245,3641,-3059,-280,436,3140,52,27,820
600964,3627624,3926412,3632786,3927698,2628,1416,-3293,3446,-3289,-517,71,2985,52,27,820
601966,3627828,3926572,3632983,3927895,2751,1507,-3296,3105,-3474,-463,-856,2735,54,28,821
602966,3628040,3926732,3633180,3928092,2695,1523,-3271,2803,-3596,-341,-1362,2946,54,28,821
603967,3628236,3926872,3633377,3928289,2797,1674,-3223,2462,-3674,-309,-1370,2796,50,26,821
604969,3628416,3927024,3633574,3928486,2905,1619,-3210,2173,-3701,-429,-1355,3122,50,26,821
605970,3628632,3927188,3633771,3928683,2673,1558,-3243,1986,-3667,-504,-1214,3634,49,28,820
606970,3628820,3927356,3633968,3928880,2853,1547,-3276,1830,-3611,-474,-889,3803,49,28,820
607972,3629028,3927500,3634165,3929077,2724,1721,-3291,1761,-3582,-770,-657,4182,40,33,817
608973,3629232,3927684,3634362,3929274,2747,1476,-3284,1747,-3579,-1141,-1081,4458,40,33,817
609973,3629448,3927892,3634559,3929471,2664,1321,-3260,1727,-3597,-1351,-1647,4574,35,42,818
610974,3629660,3928088,3634756,3929668,2683,1398,-3196,1660,-3645,-1498,-1648,4441,35,42,818
611975,3629880,3928220,3634953,3929865,2624,1826,-3140,1651,-3690,-1575,-1902,4842,32,30,819
612977,3630072,3928376,3635150,3930062,2802,1694,-3094,1729,-3680,-1758,-2235,5154,32,30,819
613977,3630316,3928472,3635347,3930259,2457,2115,-3045,1791,-3565,-1790,-2466,5383,49,35,819
614978,3630548,3928588,3635544,3930456,2518,2025,-2987,1872,-3364,-1555,-2517,5511,49,35,819
615980,3630772,3928728,3635741,3930653,2557,1900,-2899,1907,-3110,-1494,-2517,5232,39,21,818
616981,3631008,3928884,3635938,3930850,2466,1819,-2780,1760,-2838,-1626,-2362,4765,39,21,818
617982,3631220,3929040,3636135,3931047,2610,1837,-2618,1389,-2588,-1608,-2169,4454,35,33,818
618982,3631464,3929164,3636332,3931244,2391,2071,-2437,969,-2392,-1601,-2095,4587,35,33,818
619983,3631700,3929320,3636529,3931441,2425,1889,-2269,616,-2258,-1640,-2231,4733,52,41,819
620985,3631964,3929476,3636726,3931638,2221,1907,-2107,317,-2167,-1711,-2475,4956,52,41,819
621986,3632252,3929660,3636923,3931835,2032,1738,-1930,104,-2076,-1737,-2672,5402,40,35,819
622986,3632484,3929776,3637120,3932032,2368,2199,-1762,6,-1958,-1535,-2821,5809,40,35,819
623988,3632752,3929900,3637317,3932229,2113,2182,-1573,-12,-1794,-1326,-2850,5997,48,22,821
624989,3633052,3930044,3637514,3932426,1867,2080,-1339,-69,-1616,-1300,-2322,6098,48,22,821
625989,3633320,3930176,3637711,3932623,2037,2184,-975,-104,-1501,-1084,-1220,7222,59,38,819
626991,3633612,3930324,3637908,3932820,1846,2106,125,466,-1541,419,-215,16564,59,38,819
627991,3633892,3930452,3638105,3933017,1886,2262,1694,1559,-1666,1176,62,18876,44,26,821
628993,3634172,3930580,3638302,3933214,1850,2293,2540,1869,-1661,-117,-222,7513,44,26,821
629994,3634468,3930700,3638499,3933411,1708,2377,2615,1378,-1523,-319,-232,5086,49,34,821
630994,3634788,3930840,3638696,3933608,1504,2278,2504,686,-1380,-204,-207,4686,49,34,821
631996,3635072,3930968,3638893,3933805,1692,2383,2491,42,-1305,-224,-53,4436,49,31,819
632997,3635376,3931056,3639090,3934002,1521,2682,2568,-511,-1293,-214,-20,4388,49,31,819
633998,3635680,3931184,3639287,3934199,1475,2463,2653,-995,-1326,-116,25,4398,51,37,821
634998,3635956,3931320,3639484,3934396,1615,2440,2714,-1436,-1349,2,-16,4564,51,37,821
636000,3636260,3931448,3639681,3934593,1394,2522,2765,-1855,-1350,46,-116,4560,66,31,820
637001,3636572,3931568,3639878,3934790,1294,2605,2838,-2204,-1341,22,-167,4762,66,31,820
638002,3636864,3931692,3640075,3934987,1378,2613,2958,-2439,-1313,23,-267,4870,58,27,820
639002,3637116,3931808,3640272,3935184,1604,2700,3102,-2606,-1264,51,-325,4964,58,27,820
640004,3637428,3931928,3640469,3935381,1179,2709,3236,-2752,-1229,-62,-294,4984,64,23,821
641005,3637700,3932052,3640666,3935578,1397,2717,3365,-2838,-1205,-190,-231,4998,64,23,821
642005,3637956,3932184,3640863,3935775,1472,2697,3492,-2889,-1183,-247,-166,4940,62,18,818
643006,3638220,3932288,3641060,3935972,1393,2912,3624,-2909,-1156,-357,-123,4869,62,18,818
644007,3638488,3932400,3641257,3936169,1337,2901,3737,-2870,-1106,-483,-132,4971,41,32,818
645008,3638700,3932520,3641454,3936366,1681,2886,3840,-2764,-1045,-604,-14,5012,41,32,818
646009,3638944,3932652,3641651,3936563,1461,2839,3919,-2656,-977,-676,111,4912,43,35,819
647010,3639180,3932776,3641848,3936760,1494,2922,3998,-2438,-901,-732,180,4904,43,35,819
648012,3639376,3932908,3642045,3936957,1745,2902,4060,-2244,-820,-866,206,4825,38,26,818
649012,3639620,3933004,3642242,3937154,1425,3172,4138,-2071,-739,-1026,309,4566,38,26,818
650013,3639892,3933148,3642439,3937351,1218,2896,4183,-1913,-652,-1056,417,4376,57,22,817
651014,3640120,3933292,3642636,3937548,1479,2920,4218,-1749,-551,-1069,526,4178,57,22,817
652015,3640360,3933444,3642833,3937745,1386,2891,4230,-1634,-443,-1179,597,3901,40,23,815
653016,3640616,3933592,3643030,3937942,1260,2938,4233,-1543,-336,-1160,584,3672,40,23,815
654018,3640844,3933708,3643227,3938139,1423,3175,4217,-1471,-208,-1082,492,3414,58,28,817
655018,3641100,3933860,3643424,3938336,1222,2970,4176,-1417,-63,-1059,409,3283,58,28,817
656020,3641360,3934000,3643621,3938533,1169,3071,4119,-1366,68,-1087,405,3021,47,27,817
657021,3641628,3934172,3643818,3938730,1089,2883,4021,-1385,178,-1082,434,2748,47,27,817
658022,3641900,3934348,3644015,3938927,1031,2868,3903,-1419,269,-1006,475,2513,62,46,819
659023,3642172,3934528,3644212,3939124,999,2851,3749,-1554,332,-988,592,2259,62,46,819
660024,3642464,3934716,3644409,3939321,832,2806,3603,-1667,362,-1067,683,2009,62,28,820
661024,3642732,3934888,3644606,3939518,951,2918,3437,-1902,367,-1099,739,1777,62,28,820
662026,3642960,3935064,3644803,3939715,1188,2903,3291,-2124,364,-1023,659,1617,42,47,821
663027,3643256,3935248,3645000,3939912,720,2859,3135,-2349,377,-959,588,1409,42,47,821
664028,3643504,3935480,3645197,3940109,998,2545,2970,-2595,400,-996,503,1312,66,49,819
665028,3643740,3935704,3645394,3940306,1056,2584,2733,-2856,430,-1008,515,1325,66,49,819
666030,3643952,3935884,3645591,3940503,1200,2867,2471,-3097,461,-835,512,1185,38,46,822
667030,3644180,3936072,3645788,3940700,1086,2822,2211,-3339,552,-572,253,1119,38,46,822
668031,3644404,3936264,3645985,3940897,1100,2800,1991,-3585,745,-398,245,1063,35,38,822
669032,3644628,3936476,3646182,3941094,1088,2670,1759,-3882,1005,-233,297,1020,35,38,822
670034,3644828,3936696,3646379,3941291,1237,2611,1529,-4084,1287,-118,272,1101,50,51,821
671034,3645020,3936904,3646576,3941488,1290,2682,1268,-4243,1576,-51,240,1124,50,51,821
672036,3645224,3937128,3646773,3941685,1212,2570,1014,-4423,1837,72,352,1091,45,50,822
673037,3645392,3937352,3646970,3941882,1450,2559,779,-4598,2061,136,575,1079,45,50,822
674045,3645588,3937564,3647200,3942112,1291,2643,544,-4723,2237,180,761,1173,49,39,820
675039,3645760,3937804,3647397,3942309,1452,2450,302,-4801,2347,186,882,1295,49,39,820
676039,3645932,3938052,3647594,3942506,1463,2379,46,-4823,2394,219,909,1512,44,42,820
677040,3646064,3938268,3647791,3942703,1741,2571,-209,-4814,2425,477,517,1720,44,42,820
678041,3646240,3938448,3647988,3942900,1477,2805,-490,-4698,2484,828,65,2125,41,42,821
679042,3646384,3938640,3648185,3943097,1700,2732,-786,-4452,2583,1040,-212,2512,41,42,821
680044,3646520,3938832,3648382,3943294,1777,2735,-1104,-4080,2700,1035,-373,2954,39,41,819
681044,3646724,3939044,3648579,3943491,1350,2605,-1430,-3586,2788,1089,-453,3284,39,41,819
682046,3646880,3939220,3648776,3943688,1668,2840,-1756,-3088,2819,1302,-465,3432,26,31,819
683046,3647000,3939392,3648973,3943885,1928,2877,-2051,-2585,2786,1455,-379,3512,26,31,819
684048,3647180,3939552,3649170,3944082,1560,2969,-2312,-2132,2677,1397,-230,3473,36,31,820
685048,3647348,3939720,3649367,3944279,1648,2933,-2539,-1743,2481,1307,-87,3452,36,31,820
686050,3647492,3939876,3649564,3944476,1822,3026,-2740,-1459,2211,1389,98,3339,24,29,815
687050,3647648,3940052,3649761,3944673,1765,2911,-2926,-1180,1877,1590,169,3347,24,29,815
688051,3647852,3940196,3649958,3944870,1462,3136,-3081,-938,1532,1695,185,3383,22,21,817
689052,3648000,3940308,3650155,3945067,1835,3374,-3213,-724,1197,1731,131,3488,22,21,817
690053,3648140,3940420,3650352,3945264,1910,3412,-3322,-490,888,1782,-33,3691,34,26,816
691054,3648364,3940576,3650549,3945461,1374,3156,-3433,-205,638,1794,-302,4080,34,26,816
692055,3648516,3940724,3650746,3945658,1843,3229,-3554,196,463,1800,-608,4657,46,38,813
693056,3648676,3940908,3650943,3945855,1811,3010,-3659,583,345,1706,-575,4541,46,38,813
694057,3648920,3941052,3651140,3946052,1265,3285,-3730,932,225,1590,-45,4608,47,25,816
695058,3649096,3941172,3651337,3946249,1699,3470,-3774,1253,67,1432,563,4575,47,25,816
696060,3649264,3941320,3651534,3946446,1763,3317,-3768,1498,-116,1230,845,4388,29,22,814
697060,3649500,3941452,3651731,3946643,1321,3447,-3728,1587,-299,992,1016,4285,29,22,814
698061,3649708,3941592,3651928,3946840,1492,3423,-3672,1657,-483,820,1073,4363,53,28,812
699062,3649888,3941752,3652125,3947037,1675,3315,-3619,1766,-638,639,799,4491,53,28,812
700063,3650116,3941912,3652322,3947234,1362,3332,-3559,1857,-749,315,565,4594,39,39,814
701064,3650324,3942060,3652519,3947431,1482,3430,-3503,1896,-804,-67,138,4654,39,39,814
702065,3650520,3942224,3652716,3947628,1558,3345,-3453,1923,-830,-396,-141,4745,36,28,814
703066,3650724,3942376,3652913,3947825,1505,3441,-3403,1964,-821,-722,-368,4962,36,28,814
704067,3650928,3942544,3653110,3948022,1502,3355,-3333,2042,-771,-1201,-538,5192,45,26,814
705069,3651116,3942716,3653307,3948219,1607,3342,-3236,2133,-677,-1645,-757,5441,45,26,814
706069,3651312,3942904,3653504,3948416,1558,3247,-3121,2238,-536,-2062,-848,5642,41,44,814
707070,3651524,3943076,3653701,3948613,1451,3359,-2981,2341,-353,-2302,-843,5698,41,44,814
708071,3651712,3943244,3653898,3948810,1606,3397,-2812,2391,-140,-2528,-856,5610,33,36,813
709072,3651864,3943436,3654095,3949007,1851,3251,-2607,2321,83,-2779,-903,5517,33,36,813
710073,3652080,3943660,3654292,3949204,1444,3040,-2363,2146,298,-2940,-835,5176,48,45,815
711074,3652248,3943856,3654489,3949401,1756,3216,-2103,1898,496,-3051,-656,5227,48,45,815
712075,3652412,3944044,3654686,3949598,1797,3271,-1829,1413,703,-3533,-470,4535,33,42,814
713076,3652596,3944260,3654883,3949795,1678,3089,-1490,-456,918,-4690,-633,2043,33,42,814
714077,3652752,3944412,3655080,3949992,1871,3510,-1128,-2955,1107,-4481,-1161,2494,27,28,814
715078,3652896,3944600,3655277,3950189,1970,3290,-795,-4421,1372,-3786,-1538,5066,27,28,814
716079,3653100,3944804,3655474,3950386,1592,3188,-523,-4135,1791,-2917,-1756,7682,33,48,816
717080,3653260,3945016,3655671,3950583,1884,3132,-288,-3153,2176,-2745,-1102,7702,33,48,816
718081,3653380,3945244,3655868,3950780,2168,3019,-31,-2671,2376,-2886,-262,7171,45,40,812
719083,3653548,3945448,3656065,3950977,1882,3168,276,-2370,2554,-2795,-524,7754,45,40,812
720084,3653704,3945640,3656262,3951174,1975,3246,575,-2183,2754,-2102,-745,7053,36,46,814
721085,3653804,3945852,3656459,3951371,2368,3116,838,-1830,2944,-1974,-249,7407,36,46,814
722086,3654000,3946064,3656656,3951568,1769,3110,1081,-1658,3103,-1925,-107,7003,43,40,814
723087,3654140,3946312,3656853,3951765,2145,2864,1353,-1584,3175,-1312,-332,6619,43,40,814
724088,3654264,3946524,3657050,3951962,2277,3083,1642,-1563,3172,-788,46,6252,24,33,812
725089,3654380,3946720,3657247,3952159,2363,3185,1934,-1663,3128,-336,199,5818,24,33,812
726089,3654492,3946940,3657444,3952356,2426,3026,2200,-1948,3070,9,-31,5476,36,35,815
727091,3654624,3947132,3657641,3952553,2330,3204,2471,-2227,3064,328,-123,5438,36,35,815
728092,3654740,3947328,3657838,3952750,2466,3180,2709,-2373,3038,872,23,5529,39,37,811
729093,3654884,3947516,3658035,3952947,2315,3235,2903,-2550,2933,1149,211,5227,39,37,811
730094,3655024,3947756,3658232,3953144,2366,2892,3066,-2744,2789,1202,248,5416,39,54,810
731095,3655128,3948000,3658429,3953341,2632,2848,3203,-2887,2602,1382,438,5324,39,54,810
732095,3655312,3948208,3658626,3953538,2139,3069,3316,-2911,2394,1266,518,5649,24,49,811
733096,3655448,3948428,3658823,3953735,2466,2985,3405,-2802,2207,971,337,5897,24,49,811
734097,3655556,3948624,3659020,3953932,2681,3136,3455,-2648,2030,756,208,5913,39,36,810
735098,3655708,3948864,3659217,3954129,2427,2843,3467,-2413,1856,674,-34,6099,39,36,810
736100,3655836,3949100,3659414,3954326,2607,2852,3467,-2142,1720,674,-424,5954,38,42,813
737101,3655956,3949340,3659611,3954523,2692,2809,3461,-1860,1607,507,-602,5906,38,42,813
738102,3656148,3949556,3659808,3954720,2245,2952,3476,-1620,1543,274,-554,5673,26,44,814
739102,3656288,3949752,3660005,3954917,2595,3078,3501,-1417,1507,147,-181,5445,26,44,814
740104,3656428,3949988,3660202,3955114,2621,2812,3522,-1199,1480,-13,229,5212,45,35,811
741105,3656600,3950224,3660399,3955311,2433,2796,3531,-1017,1468,-251,528,5089,45,35,811
742105,3656764,3950484,3660596,3955508,2498,2619,3540,-803,1474,-471,717,5049,27,55,810
743106,3656940,3950720,3660793,3955705,2433,2753,3556,-559,1494,-584,678,4999,27,55,810
744108,3657108,3950940,3660990,3955902,2496,2844,3581,-254,1529,-685,404,4971,47,38,814
745108,3657280,3951176,3661187,3956099,2483,2728,3616,28,1593,-826,-25,4757,47,38,814
746110,3657444,3951408,3661384,3956296,2549,2739,3653,296,1687,-972,-348,4604,29,58,815
747110,3657620,3951668,3661581,3956493,2483,2537,3683,560,1810,-997,-655,4462,29,58,815
748112,3657784,3951944,3661778,3956690,2574,2403,3705,823,1944,-821,-803,4234,51,43,815
749112,3657976,3952216,3661975,3956887,2402,2395,3710,1046,2071,-643,-797,4002,51,43,815
750113,3658204,3952484,3662172,3957084,2164,2390,3714,1204,2189,-471,-777,3762,39,51,815
751114,3658388,3952740,3662369,3957281,2445,2440,3724,1340,2305,-367,-830,3639,39,51,815
752116,3658592,3953052,3662566,3957478,2318,2041,3733,1470,2422,-308,-853,3401,40,65,815
753117,3658792,3953372,3662763,3957675,2343,1937,3718,1505,2484,-147,-514,3064,40,65,815
754117,3658996,3953672,3662960,3957872,2315,2018,3655,1471,2452,47,86,2815,55,67,817
755118,3659232,3953956,3663157,3958069,2098,2081,3542,1404,2362,321,178,2512,55,67,817
756120,3659452,3954244,3663354,3958266,2189,2016,3402,1262,2258,503,121,2252,52,51,819
757127,3659672,3954616,3663584,3958496,2195,1430,3258,1099,2165,668,162,2070,52,51,819
758121,3659880,3954956,3663781,3958693,2266,1568,3126,882,2110,939,-393,1787,35,56,821
759122,3660080,3955288,3663978,3958890,2314,1559,3017,550,2068,1088,-475,1407,35,56,821
760124,3660320,3955568,3664175,3959087,2047,1848,2930,171,2001,1293,-420,1275,35,69,823
761125,3660544,3955948,3664372,3959284,2136,1144,2853,-253,1882,1464,-315,985,35,69,823
762126,3660748,3956340,3664569,3959481,2259,984,2756,-643,1722,1482,312,1083,42,74,820
763126,3660980,3956676,3664766,3959678,2068,1273,2622,-899,1543,1448,620,1308,42,74,820
764128,3661220,3956964,3664963,3959875,2000,1534,2457,-1045,1396,1404,297,1705,54,64,823
765128,3661416,3957280,3665160,3960072,2277,1306,2281,-1069,1275,1331,285,1924,54,64,823
766129,3661636,3957620,3665357,3960269,2117,1095,2079,-1047,1139,1384,367,2039,54,72,824
767130,3661828,3957944,3665554,3960466,2295,1139,1844,-937,1013,1521,461,2218,54,72,824
768132,3662064,3958256,3665751,3960663,2004,1164,1607,-799,935,1560,411,2229,46,68,823
769133,3662312,3958520,3665948,3960860,1907,1435,1380,-546,927,1562,178,2465,46,68,823
770134,3662520,3958872,3666145,3961057,2153,818,1168,-297,957,1540,332,2379,46,61,824
771134,3662712,3959144,3666342,3961254,2256,1285,969,-91,978,1625,534,2252,46,61,824
772136,3662944,3959400,3666539,3961451,1991,1359,785,20,942,1667,1084,1860,47,54,825
773137,3663108,3959712,3666736,3961648,2431,959,625,-19,845,1674,1559,1496,47,54,825
774138,3663276,3959964,3666933,3961845,2420,1310,488,-84,721,1734,1437,1475,48,48,822
775138,3663496,3960260,3667130,3962042,2085,993,380,-78,619,1728,1042,1546,48,48,822
776140,3663728,3960560,3667327,3962239,1995,922,275,49,549,1768,943,1718,36,62,823
777140,3663916,3960856,3667524,3962436,2275,904,157,237,525,1901,560,1973,36,62,823
778141,3664112,3961068,3667721,3962633,2226,1423,27,503,537,2034,277,2271,35,44,825
779142,3664336,3961316,3667918,3962830,2040,1176,-124,788,535,2032,219,2323,35,44,825
780143,3664552,3961612,3668115,3963027,2082,832,-290,1137,482,1950,-46,2491,35,56,824
781144,3664804,3961868,3668312,3963224,1834,1056,-463,1573,412,1990,-225,2688,35,56,824
782145,3665108,3962136,3668509,3963421,1462,951,-651,2061,336,2002,-447,2816,59,47,824
783146,3665380,3962380,3668706,3963618,1630,1081,-870,2568,246,2034,-424,2987,59,47,824
784147,3665664,3962600,3668903,3963815,1518,1220,-1089,3037,115,2025,-142,2722,59,49,825
785149,3665940,3962832,3669100,3964012,1533,1130,-1313,3434,-71,2024,254,2504,59,49,825
786150,3666212,3963080,3669297,3964209,1526,1009,-1521,3701,-314,1974,642,2217,49,52,826
787151,3666508,3963340,3669494,3964406,1334,906,-1706,3891,-596,1919,719,2092,49,52,826
788151,3666796,3963536,3669691,3964603,1344,1306,-1846,4089,-897,1814,792,1921,68,36,828
789153,3667076,3963752,3669888,3964800,1358,1173,-1975,4153,-1202,1799,826,1758,68,36,828
790153,3667352,3963964,3670085,3964997,1349,1191,-2091,4200,-1509,1844,806,1716,64,50,829
791154,3667684,3964176,3670282,3965194,940,1186,-2206,4181,-1801,1812,973,1561,64,50,829
792156,3667932,3964368,3670479,3965391,1443,1313,-2302,4152,-2088,1684,1004,1633,69,30,828
793157,3668192,3964564,3670676,3965588,1341,1289,-2372,4098,-2330,1541,623,1758,69,30,828
794158,3668452,3964744,3670873,3965785,1313,1396,-2469,4217,-2501,1621,602,2486,60,36,830
795158,3668708,3964932,3671070,3965982,1313,1350,-2640,4536,-2652,1558,854,2964,60,36,830
796160,3668964,3965080,3671267,3966179,1288,1622,-2795,4748,-2811,1210,632,2412,48,23,827
797161,3669236,3965212,3671464,3966376,1156,1751,-2934,4781,-2956,1019,491,2353,48,23,827
798161,3669476,3965324,3671661,3966573,1337,1913,-3036,4596,-3053,1112,384,1819,39,35,827
799162,3669716,3965444,3671858,3966770,1318,1897,-3058,4174,-3119,900,-40,815,39,35,827
800163,3669904,3965612,3672055,3966967,1648,1611,-3012,3454,-3189,620,-75,162,54,23,826
801165,3670116,3965788,3672252,3967164,1491,1570,-2976,2758,-3230,591,-351,438,54,23,826
802166,3670284,3965964,3672449,3967361,1780,1579,-2994,2129,-3187,482,-715,628,48,36,825
803167,3670444,3966088,3672646,3967558,1846,1936,-3071,1596,-3071,445,-731,975,48,36,825
804167,3670584,3966240,3672843,3967755,1996,1782,-3207,1200,-2887,363,-571,1583,32,21,825
805169,3670720,3966388,3673040,3967952,2049,1829,-3371,825,-2647,312,-165,1635,32,21,825
806169,3670868,3966536,3673237,3968149,1996,1850,-3549,409,-2398,251,390,1724,35,20,821
807170,3671028,3966696,3673434,3968346,1938,1792,-3708,-28,-2130,34,567,1734,35,20,821
808172,3671200,3966808,3673631,3968543,1874,2130,-3822,-482,-1829,-140,458,1805,42,36,820
809173,3671388,3966932,3673828,3968740,1779,2087,-3890,-941,-1496,-279,599,1969,42,36,820
810173,3671588,3967076,3674025,3968937,1702,1985,-3925,-1290,-1119,-396,574,2459,28,36,822
811174,3671748,3967244,3674222,3969134,1970,1849,-3960,-1467,-717,-460,512,2976,28,36,822
812175,3671908,3967388,3674419,3969331,1986,2022,-4050,-1475,-364,-632,506,3607,35,22,821
813176,3672088,3967516,3674616,3969528,1869,2154,-4185,-1371,-83,-762,110,3939,35,22,821
814177,3672276,3967664,3674813,3969725,1823,2050,-4333,-1279,124,-759,116,3960,46,28,821
815178,3672424,3967788,3675010,3969922,2095,2232,-4479,-1250,261,-670,384,4036,46,28,821
816179,3672608,3967912,3675207,3970119,1877,2265,-4620,-1275,365,-403,-76,4088,32,27,820
817181,3672740,3968084,3675404,3970316,2230,1976,-4764,-1333,473,-123,-707,4242,32,27,820
818182,3672908,3968192,3675601,3970513,2019,2416,-4890,-1388,608,109,-1107,4290,32,21,818
819183,3673088,3968312,3675798,3970710,1951,2375,-5003,-1441,764,441,-1395,4395,32,21,818
820183,3673244,3968448,3675995,3970907,2120,2302,-5104,-1477,905,818,-1382,4553,25,39,819
821184,3673400,3968620,3676192,3971104,2139,2089,-5186,-1577,1006,1333,-1384,4546,25,39,819
822185,3673608,3968800,3676389,3971301,1810,2047,-5220,-1762,1062,1921,-1501,4346,31,24,819
823186,3673824,3969008,3676586,3971498,1752,1868,-5162,-2096,1062,2357,-1482,4045,31,24,819
824187,3674028,3969168,3676783,3971695,1824,2184,-5030,-2455,995,2675,-1394,4145,29,23,819
825188,3674208,3969308,3676980,3971892,1983,2335,-4898,-2763,883,2884,-1328,4608,29,23,819
826190,3674448,3969412,3677177,3972089,1589,2601,-4804,-2900,732,2885,-1117,5168,33,35,822
827190,3674632,3969568,3677374,3972286,1945,2295,-4740,-2829,563,2959,-1159,5869,33,35,822
828191,3674860,3969752,3677571,3972483,1657,2126,-4675,-2604,393,3024,-1263,6520,29,32,818
829192,3675068,3969948,3677768,3972680,1778,2052,-4569,-2328,214,3093,-1257,6763,29,32,818
830193,3675264,3970140,3677965,3972877,1853,2079,-4438,-1989,-16,3089,-1308,7110,49,26,818
831194,3675480,3970284,3678162,3973074,1721,2404,-4253,-1658,-305,3080,-1464,7148,49,26,818
832195,3675720,3970456,3678359,3973271,1552,2240,-4008,-1340,-616,3121,-1835,7012,29,26,822
833196,3675920,3970612,3678556,3973468,1802,2359,-3722,-1070,-916,3156,-2008,7005,29,26,822
834197,3676120,3970788,3678753,3973665,1801,2243,-3410,-809,-1175,3131,-1943,7155,45,26,820
835198,3676348,3970932,3678950,3973862,1613,2467,-3091,-537,-1370,2930,-1850,7394,45,26,820
836199,3676544,3971076,3679147,3974059,1813,2491,-2813,-146,-1503,2577,-1533,7853,39,24,820
837200,3676712,3971240,3679344,3974256,2002,2381,-2573,339,-1617,2248,-703,8078,39,24,820
838201,3676936,3971376,3679541,3974453,1640,2584,-2359,854,-1735,2063,93,8234,49,29,820
839202,3677136,3971540,3679738,3974650,1790,2423,-2147,1401,-1788,1915,-147,8414,49,29,820
840210,3677340,3971732,3679968,3974880,1776,2266,-1857,1844,-1746,1864,-566,8047,42,27,818
841204,3677520,3971924,3680165,3975077,1935,2269,-1511,2211,-1646,1753,-881,8144,42,27,818
842206,3677764,3972124,3680362,3975274,1514,2218,-781,3153,-1425,1142,-1942,13601,49,33,819
843206,3677948,3972316,3680559,3975471,1896,2271,498,5320,-1018,64,-3015,22344,49,33,819
844207,3678132,3972488,3680756,3975668,1902,2407,1412,6596,-754,723,-1055,10517,44,51,820
845208,3678372,3972724,3680953,3975865,1534,1991,1690,6389,-656,1099,-75,5852,44,51,820
846209,3678568,3972952,3681150,3976062,1809,2028,1720,5517,-606,1316,539,4979,43,35,820
847210,3678752,3973168,3681347,3976259,1891,2095,1785,4774,-479,1200,599,4921,43,35,820
848211,3678976,3973376,3681544,3976456,1629,2141,1928,4249,-280,944,506,5008,47,37,823
849212,3679164,3973592,3681741,3976653,1859,2083,2013,4056,-96,804,332,5893,47,37,823
850214,3679344,3973760,3681938,3976850,1916,2396,1975,4094,34,553,400,6283,45,48,820
851215,3679540,3973920,3682135,3977047,1818,2463,1957,4076,37,159,531,5702,45,48,820
852216,3679720,3974136,3682332,3977244,1925,2105,2019,3819,-78,-231,143,5252,27,39,819
853217,3679860,3974336,3682529,3977441,2201,2205,2111,3435,-198,-411,-909,5211,27,39,819
854217,3680024,3974524,3682726,3977638,2066,2284,2175,3209,-254,-364,-1921,5417,20,33,819
855218,3680176,3974700,3682923,3977835,2162,2369,2178,3073,-260,-445,-2440,5420,20,33,819
856220,3680304,3974900,3683120,3978032,2342,2218,2114,3031,-245,-680,-2546,5688,26,30,818
857220,3680476,3975084,3683317,3978229,2079,2325,2038,2979,-241,-897,-2273,5492,26,30,818
858222,3680640,3975264,3683514,3978426,2143,2358,1984,2961,-231,-928,-1935,5451,42,43,818
859223,3680756,3975432,3683711,3978623,2480,2446,1965,2807,-224,-1039,-1475,4937,42,43,818
860224,3680940,3975624,3683908,3978820,2061,2299,1963,2534,-208,-1126,-959,4652,27,32,818
861224,3681092,3975784,3684105,3979017,2282,2515,1970,2177,-159,-1066,-561,4343,27,32,818
862226,3681228,3975980,3684302,3979214,2409,2292,1975,1800,-54,-946,-137,4051,31,29,815
863226,3681384,3976196,3684499,3979411,2302,2159,1979,1363,82,-958,239,3861,31,29,815
864228,3681556,3976364,3684696,3979608,2214,2472,1989,918,189,-1003,300,3734,23,49,816
865228,3681720,3976520,3684893,3979805,2279,2566,2015,467,258,-999,213,3695,23,49,816
866229,3681844,3976684,3685090,3980002,2562,2532,2057,84,305,-1034,70,3665,39,43,818
867230,3682048,3976864,3685287,3980199,2060,2439,2087,-273,366,-1070,-186,3675,39,43,818
868231,3682184,3977064,3685484,3980396,2512,2314,2100,-571,480,-1175,-370,3724,21,41,816
869232,3682324,3977252,3685681,3980593,2513,2393,2104,-835,616,-1288,-181,3697,21,41,816
870233,3682524,3977464,3685878,3980790,2136,2237,2107,-1084,747,-1470,121,3631,31,45,818
871234,3682668,3977592,3686075,3980987,2511,2793,2097,-1289,881,-1640,131,3787,31,45,818
872236,3682804,3977760,3686272,3981184,2589,2556,2070,-1440,1044,-1739,-172,3837,45,29,813
873236,3683000,3977940,3686469,3981381,2214,2490,2042,-1533,1259,-1751,-798,3961,45,29,813
874237,3683164,3978148,3686666,3981578,2429,2311,2032,-1587,1523,-1726,-1043,3868,28,33,813
875238,3683328,3978336,3686863,3981775,2445,2440,2056,-1566,1771,-1735,-867,3959,28,33,813
876239,3683504,3978548,3687060,3981972,2379,2284,2096,-1533,1947,-1862,-254,3912,25,35,817
877240,3683696,3978760,3687257,3982169,2282,2279,2124,-1502,2072,-1880,-9,3951,25,35,817
878241,3683840,3978968,3687454,3982366,2607,2299,2131,-1420,2162,-1854,202,4009,46,46,816
879242,3684016,3979196,3687651,3982563,2416,2161,2116,-1302,2237,-1771,53,4069,46,46,816
880243,3684176,3979400,3687848,3982760,2533,2309,2093,-1163,2303,-1651,-263,4039,40,44,818
881244,3684328,3979632,3688045,3982957,2604,2119,2085,-1024,2365,-1491,-777,3934,40,44,818
882245,3684500,3979836,3688242,3983154,2491,2292,2089,-895,2393,-1393,-900,3918,46,43,817
883247,3684664,3980076,3688439,3983351,2555,2048,2093,-788,2380,-1326,-1007,3732,46,43,817
884248,3684848,3980316,3688636,3983548,2437,2030,2082,-736,2342,-1202,-1238,3578,26,54,816
885249,3684984,3980520,3688833,3983745,2765,2253,2019,-753,2304,-1032,-1226,3366,26,54,816
886249,3685160,3980744,3689030,3983942,2524,2116,1934,-809,2226,-926,-468,3211,33,41,817
887250,3685308,3980992,3689227,3984139,2722,1944,1854,-890,2110,-769,-106,3030,33,41,817
888251,3685428,3981276,3689424,3984336,2932,1682,1792,-969,2063,-397,-924,3083,33,49,816
889252,3685556,3981540,3689621,3984533,2913,1778,1741,-1030,2129,-40,-1386,3082,33,49,816
890253,3685704,3981780,3689818,3984730,2809,1910,1690,-1056,2233,71,-1078,3224,29,56,817
891254,3685844,3982012,3690015,3984927,2885,1945,1642,-1013,2289,5,-393,3404,29,56,817
892256,3685964,3982280,3690212,3985124,3045,1689,1621,-966,2249,13,-369,3332,23,44,816
893256,3686084,3982528,3690409,3985321,3080,1792,1647,-935,2177,202,-976,3276,23,44,816
894257,3686284,3982796,3690606,3985518,2580,1637,1698,-932,2110,282,-689,3187,46,47,815
895258,3686472,3983136,3690803,3985715,2659,1124,1713,-912,2044,229,196,3242,46,47,815
896259,3686664,3983316,3691000,3985912,2637,2132,1712,-891,2039,233,793,3217,39,52,814
897261,3686824,3983448,3691197,3986109,2854,2461,1675,-814,2082,301,1349,3404,39,52,814
898261,3687012,3983608,3691394,3986306,2684,2303,1595,-657,2148,490,831,3491,32,40,821
899262,3687176,3983768,3691591,3986503,2850,2319,1396,-183,2231,264,1019,3907,32,40,821
900263,3687344,3984008,3691788,3986700,2838,1802,1370,147,2184,84,1025,3824,31,48,814
901264,3687480,3984228,3691985,3986897,3065,1916,1436,544,2115,64,79,4039,31,48,814
902265,3687616,3984536,3692182,3987094,3093,1319,1580,905,2020,-31,177,3935,39,57,814
903266,3687772,3984824,3692379,3987291,2987,1404,1697,1306,1859,-185,1050,4033,39,57,814
904268,3687936,3985148,3692576,3987488,2953,1124,1726,1772,1669,-206,1102,4182,40,54,815
905268,3688076,3985436,3692773,3987685,3129,1309,1710,2298,1539,-194,590,4316,40,54,815
906269,3688204,3985696,3692970,3987882,3235,1457,1678,2845,1481,-123,-143,4508,41,56,816
907270,3688336,3986008,3693167,3988079,3239,1082,1620,3368,1505,33,-1174,4308,41,56,816
908272,3688476,3986364,3693364,3988276,3216,738,1504,3833,1523,44,-451,4045,22,58,817
909272,3688660,3986708,3693561,3988473,2947,748,1330,4164,1453,-41,240,3538,22,58,817
910273,3688816,3987036,3693758,3988670,3141,791,1128,4314,1377,93,-131,3184,43,78,817
911274,3689012,3987308,3693955,3988867,2892,1109,915,4364,1305,229,466,2868,43,78,817
912275,3689184,3987684,3694152,3989064,3054,380,722,4321,1203,375,883,2588,47,67,820
913276,3689360,3988012,3694349,3989261,3039,622,532,4221,1037,414,1344,2372,47,67,820
914277,3689564,3988360,3694546,3989458,2862,431,343,4032,806,356,1553,2104,53,71,820
915278,3689736,3988628,3694743,3989655,3074,901,151,3791,557,350,1646,2062,53,71,820
916280,3689928,3988936,3694940,3989852,2952,602,-24,3578,339,425,1606,2087,54,76,819
917280,3690136,3989300,3695137,3990049,2848,179,-186,3353,155,447,1593,2106,54,76,819
918281,3690328,3989596,3695334,3990246,2951,560,-378,3145,-22,444,1791,2190,42,60,818
919282,3690532,3989840,3695531,3990443,2874,864,-641,2940,-223,391,2056,2346,42,60,818
920284,3690776,3990072,3695728,3990640,2605,924,-945,2823,-432,328,2140,2558,52,61,823
921284,3690984,3990320,3695925,3990837,2826,802,-1248,2744,-650,194,2316,2695,52,61,823
922285,3691208,3990580,3696122,3991034,2715,700,-1529,2736,-867,146,2539,2967,38,44,821
923295,3691432,3990780,3696352,3991264,2719,1088,-1783,2780,-1066,75,2654,3040,38,44,821
924288,3691636,3990944,3696549,3991461,2842,1328,-2021,2834,-1232,82,2638,3207,35,32,822
925288,3691852,3991124,3696746,3991658,2759,1235,-2234,2838,-1385,9,2671,3046,35,32,822
926289,3692048,3991304,3696943,3991855,2886,1243,-2435,2842,-1538,-56,2374,3054,47,42,821
927290,3692244,3991448,3697140,3992052,2887,1491,-2622,2794,-1695,-83,1907,2982,47,42,821
928292,3692424,3991620,3697337,3992249,2995,1327,-2778,2729,-1866,-124,1215,2971,43,27,819
929292,3692632,3991800,3697534,3992446,2816,1284,-2905,2679,-2059,-218,598,3062,43,27,819
930293,3692868,3991956,3697731,3992643,2625,1452,-2997,2622,-2295,-428,117,3125,35,26,818
931294,3693076,3992128,3697928,3992840,2796,1363,-3075,2567,-2580,-678,36,3210,35,26,818
932295,3693264,3992296,3698125,3993037,2926,1402,-3133,2464,-2894,-750,71,3102,38,35,819
933296,3693468,3992484,3698322,3993234,2824,1281,-3193,2404,-3195,-680,112,3241,38,35,819
934297,3693644,3992608,3698519,3993431,3009,1713,-3257,2334,-3410,-583,-353,3240,41,26,819
935298,3693840,3992728,3698716,3993628,2885,1772,-3340,2289,-3523,-540,-870,3520,41,26,819
936300,3694028,3992908,3698913,3993825,2940,1404,-3436,2178,-3564,-536,-1173,3509,46,29,819
937300,3694212,3993080,3699110,3994022,2972,1465,-3550,2159,-3572,-405,-1463,3857,46,29,819
938301,3694416,3993260,3699307,3994219,2845,1424,-3647,2236,-3572,-460,-1642,4072,27,29,815
939302,3694592,3993468,3699504,3994416,3030,1244,-3709,2274,-3581,-653,-1827,4029,27,29,815
940304,3694788,3993636,3699701,3994613,2907,1507,-3724,2207,-3594,-780,-1991,3929,32,26,815
941304,3694980,3993788,3699898,3994810,2935,1627,-3699,2090,-3602,-833,-1987,3832,32,26,815
942305,3695188,3993924,3700095,3995007,2831,1753,-3634,1875,-3612,-937,-1969,3637,50,38,818
943306,3695356,3994080,3700292,3995204,3094,1647,-3538,1598,-3632,-1155,-1967,3529,50,38,818
944307,3695548,3994252,3700489,3995401,2947,1558,-3431,1351,-3629,-1326,-2069,3833,25,26,817
945308,3695752,3994388,3700686,3995598,2870,1810,-3337,1128,-3602,-1381,-2130,3984,25,26,817
946309,3695940,3994524,3700883,3995795,2975,1837,-3255,1010,-3561,-1529,-2247,4440,49,28,816
947310,3696156,3994660,3701080,3995992,2792,1864,-3163,972,-3522,-1780,-2419,4646,49,28,816
948312,3696372,3994848,3701277,3996189,2785,1544,-3037,906,-3478,-1951,-2690,4867,27,35,817
949312,3696576,3995016,3701474,3996386,2858,1682,-2874,831,-3402,-1995,-2802,4981,27,35,817
950313,3696796,3995200,3701671,3996583,2749,1587,-2697,767,-3273,-1932,-2868,5093,52,31,816
951314,3697060,3995328,3701868,3996780,2445,1968,-2541,747,-3077,-1894,-2943,5395,52,31,816
952316,3697256,3995456,3702065,3996977,2872,1999,-2398,706,-2817,-1913,-2730,5460,39,23,818
953317,3697528,3995580,3702262,3997174,2365,2056,-2260,656,-2539,-1838,-2161,5601,39,23,818
954317,3697792,3995752,3702459,3997371,2386,1767,-2113,567,-2290,-1778,-1562,5501,38,39,818
955318,3698056,3995920,3702656,3997568,2358,1806,-1920,411,-2070,-1839,-1217,5441,38,39,818
956319,3698312,3996048,3702853,3997765,2382,2086,-1711,207,-1889,-1784,-927,5300,62,39,818
957320,3698604,3996140,3703050,3997962,2116,2357,-1481,-20,-1749,-1663,-881,5361,62,39,818
958321,3698904,3996296,3703247,3998159,2022,1976,-1243,-211,-1621,-1516,-1150,5624,63,25,820
959322,3699180,3996412,3703444,3998356,2138,2262,-993,-369,-1506,-1412,-1265,5771,63,25,820
960323,3699480,3996564,3703641,3998553,1944,2057,-739,-458,-1398,-1224,-1480,6239,48,27,817
961324,3699788,3996680,3703838,3998750,1846,2318,-348,-432,-1289,-724,-1427,7756,48,27,817
962325,3700060,3996788,3704035,3998947,2038,2407,423,55,-1240,241,-1262,12746,55,23,818
963326,3700396,3996896,3704232,3999144,1578,2446,1293,608,-1246,291,-884,11586,55,23,818
964327,3700728,3996984,3704429,3999341,1545,2620,1786,600,-1248,-335,-474,6510,54,20,820
965328,3700996,3997128,3704626,3999538,1915,2294,1937,132,-1234,-323,-260,5126,54,20,820
966329,3701316,3997280,3704823,3999735,1536,2264,2000,-474,-1208,-111,-206,4721,54,35,819
967330,3701656,3997392,3705020,3999932,1349,2552,2093,-1036,-1155,79,-349,4676,54,35,819
968331,3701948,3997520,3705217,4000129,1608,2483,2217,-1468,-1102,169,-387,4695,54,29,820
969332,3702244,3997624,3705414,4000326,1540,2674,2341,-1860,-1072,270,-333,4784,54,29,820
970333,3702580,3997736,3705611,4000523,1229,2662,2458,-2174,-1065,370,-325,4829,65,29,820
971334,3702860,3997868,3705808,4000720,1543,2566,2575,-2444,-1077,386,-214,4933,65,29,820
972335,3703104,3997992,3706005,4000917,1748,2649,2729,-2634,-1100,314,-243,5154,55,25,817
973336,3703448,3998136,3706202,4001114,1059,2547,2909,-2728,-1121,300,-720,5349,55,25,817
974337,3703728,3998224,3706399,4001311,1423,2946,3092,-2735,-1131,262,-892,5415,44,24,819
975338,3703984,3998348,3706596,4001508,1547,2754,3248,-2719,-1145,165,-758,5397,44,24,819
976339,3704252,3998460,3706793,4001705,1442,2867,3387,-2638,-1156,70,-824,5444,55,21,821
977340,3704496,3998616,3706990,4001902,1571,2611,3528,-2546,-1134,-54,-846,5352,55,21,821
978341,3704712,3998764,3707187,4002099,1739,2682,3648,-2458,-1078,-108,-638,5268,60,35,817
979342,3704972,3998908,3707384,4002296,1436,2731,3755,-2318,-1017,-206,-360,5143,60,35,817
980343,3705256,3999036,3707581,4002493,1249,2863,3848,-2221,-944,-337,-255,4950,62,22,819
981345,3705492,3999156,3707778,4002690,1532,2947,3945,-2126,-852,-412,-228,4867,62,22,819
982346,3705756,3999264,3707975,4002887,1329,3062,4032,-2027,-727,-540,-199,4683,40,22,817
983347,3706020,3999432,3708172,4003084,1299,2700,4117,-1854,-595,-676,-196,4539,40,22,817
984348,3706260,3999548,3708369,4003281,1431,3061,4201,-1781,-461,-773,-189,4182,61,40,815
985349,3706504,3999712,3708566,4003478,1386,2776,4277,-1698,-315,-845,-239,4132,61,40,815
986350,3706832,3999864,3708763,4003675,803,2872,4339,-1638,-177,-905,32,3823,41,34,819
987351,3707096,4000016,3708960,4003872,1175,2893,4377,-1624,-66,-1011,156,3641,41,34,819
988352,3707380,4000188,3709157,4004069,1011,2779,4409,-1595,26,-1135,228,3450,46,41,819
989353,3707676,4000348,3709354,4004266,893,2871,4409,-1626,117,-1147,249,3226,46,41,819
990354,3707972,4000492,3709551,4004463,850,2996,4392,-1573,206,-1145,329,3199,52,33,819
991355,3708248,4000660,3709748,4004660,941,2859,4326,-1600,279,-1236,380,2898,52,33,819
992356,3708556,4000848,3709945,4004857,692,2738,4228,-1584,338,-1235,363,2807,49,39,820
993357,3708848,4001052,3710142,4005054,751,2636,4086,-1631,382,-1271,409,2508,49,39,820
994358,3709084,4001248,3710339,4005251,1084,2688,3917,-1725,414,-1231,424,2295,62,49,819
995359,3709380,4001436,3710536,4005448,666,2743,3726,-1834,443,-1233,427,2178,62,49,819
996360,3709628,4001624,3710733,4005645,943,2747,3535,-2019,497,-1175,490,1833,43,31,822
997361,3709864,4001804,3710930,4005842,1002,2805,3334,-2251,568,-1006,558,1563,43,31,822
998362,3710112,4001980,3711127,4006039,905,2840,3142,-2502,671,-790,496,1334,46,49,821
999362,3710344,4002200,3711324,4006236,989,2556,2947,-2807,830,-556,271,1130,46,49,821
1000364,3710560,4002420,3711521,4006433,1081,2546,2742,-3142,1041,-342,-50,951,56,54,820
1001364,3710764,4002620,3711718,4006630,1153,2671,2519,-3509,1285,-224,-62,885,56,54,820
1002366,3710980,4002832,3711915,4006827,1069,2590,2285,-3883,1527,-48,249,775,48,53,822
1003366,3711196,4003060,3712112,4007024,1062,2477,2048,-4243,1752,74,484,771,48,53,822
1004368,3711360,4003288,3712309,4007221,1402,2464,1819,-4525,1959,135,638,948,32,56,819
1005368,3711544,4003552,3712506,4007418,1282,2210,1586,-4731,2145,201,800,1132,32,56,819
1006376,3711708,4003768,3712736,4007648,1436,2518,1344,-4881,2306,295,843,1307,40,42,821
1007370,3711852,4003996,3712933,4007845,1585,2430,1085,-4943,2421,417,797,1597,40,42,821
1008372,3712004,4004208,3713130,4008042,1555,2523,811,-4901,2517,628,570,1734,22,50,823
1009373,3712164,4004384,3713327,4008239,1522,2759,511,-4788,2630,869,290,2109,22,50,823
1010373,3712300,4004592,3713524,4008436,1698,2555,179,-4603,2738,980,213,2353,20,34,821
1011374,3712460,4004772,3713721,4008633,1565,2738,-161,-4305,2816,1006,225,2747,20,34,821
1012375,3712600,4004976,3713918,4008830,1715,2585,-493,-3930,2837,1056,345,2932,17,42,819
1013376,3712708,4005168,3714115,4009027,1955,2663,-810,-3549,2783,1155,480,3042,17,42,819
1014378,3712868,4005328,3714312,4009224,1646,2881,-1108,-3146,2676,1390,448,3157,29,39,818
1015379,3713036,4005472,3714509,4009421,1609,3005,-1385,-2797,2521,1545,557,3043,29,39,818
1016380,3713184,4005616,3714706,4009618,1756,3028,-1655,-2478,2320,1661,549,3134,23,33,816
1017381,3713332,4005716,3714903,4009815,1778,3347,-1933,-2208,2098,1808,376,3081,23,33,816
1018382,3713508,4005876,3715100,4010012,1612,2989,-2223,-1930,1855,2022,314,3172,43,24,816
1019383,3713672,4006020,3715297,4010209,1702,3113,-2538,-1665,1645,2197,182,3267,43,24,816
1020384,3713832,4006164,3715494,4010406,1744,3137,-2844,-1376,1456,2395,233,3534,45,25,813
1021384,3714016,4006276,3715691,4010603,1600,3375,-3134,-1062,1242,2505,624,3677,45,25,813
1022386,3714192,4006400,3715888,4010800,1659,3333,-3394,-734,1010,2519,994,3948,45,17,815
1023386,3714364,4006504,3716085,4010997,1696,3500,-3629,-287,754,2435,1201,4348,45,17,815
1024388,3714556,4006648,3716282,4011194,1573,3274,-3814,132,494,2264,1307,4369,45,32,813
1025389,3714736,4006764,3716479,4011391,1655,3486,-3940,536,271,2106,1094,4566,45,32,813
1026390,3714928,4006884,3716676,4011588,1584,3496,-4010,889,79,1937,1024,4534,50,17,811
1027390,3715144,4007000,3716873,4011785,1425,3556,-4056,1267,-91,1767,789,4826,50,17,811
1028391,3715328,4007120,3717070,4011982,1631,3566,-4073,1635,-227,1582,405,4963,36,28,811
1029392,3715524,4007244,3717267,4012179,1557,3574,-4065,2001,-329,1329,184,4994,36,28,811
1030394,3715708,4007376,3717464,4012376,1638,3554,-4009,2369,-416,952,227,5091,41,35,813
1031395,3715912,4007536,3717661,4012573,1510,3396,-3900,2626,-520,477,368,4979,41,35,813
1032396,3716100,4007684,3717858,4012770,1615,3494,-3750,2847,-644,51,310,5130,34,23,812
1033396,3716296,4007828,3718055,4012967,1565,3543,-3574,3028,-769,-327,185,5082,34,23,812
1034398,3716488,4007976,3718252,4013164,1593,3540,-3384,3195,-875,-652,-197,5188,46,27,813
1035398,3716676,4008132,3718449,4013361,1623,3509,-3198,3357,-940,-998,-662,5220,46,27,813
1036400,3716856,4008308,3718646,4013558,1680,3395,-3027,3463,-942,-1248,-999,5248,28,30,812
1037400,3717060,4008516,3718843,4013755,1527,3191,-2883,3508,-896,-1470,-1072,5168,28,30,812
1038402,3717256,4008648,3719040,4013952,1578,3695,-2749,3488,-811,-1762,-949,5103,38,42,811
1039402,3717428,4008828,3719237,4014149,1739,3404,-2598,3390,-700,-1951,-791,4787,38,42,811
1040404,3717616,4009028,3719434,4014346,1643,3279,-2416,3137,-555,-2195,-592,4622,38,33,815
1041405,3717800,4009232,3719631,4014543,1675,3251,-2223,2867,-369,-2479,-456,4786,38,33,815
1042406,3717996,4009444,3719828,4014740,1601,3196,-2004,2558,-160,-2719,-317,4574,48,32,813
1043406,3718152,4009664,3720025,4014937,1869,3137,-1750,2252,70,-2952,-374,4659,48,32,813
1044407,3718320,4009836,3720222,4015134,1807,3449,-1475,1880,340,-3059,-665,4618,36,38,814
1045408,3718500,4010032,3720419,4015331,1740,3300,-1195,1506,633,-3049,-897,4832,36,38,814
1046409,3718660,4010220,3720616,4015528,1881,3355,-936,1252,943,-3122,-1388,5093,36,37,814
1047411,3718824,4010460,3720813,4015725,1872,3012,-674,986,1245,-3227,-1474,4954,36,37,814
1048412,3718968,4010728,3721010,4015922,2020,2807,-435,644,1498,-3149,-1189,4981,36,45,813
1049412,3719136,4010944,3721207,4016119,1884,3125,-221,222,1715,-3122,-1001,4987,36,45,813
1050414,3719288,4011152,3721404,4016316,2003,3171,-28,-253,1913,-2988,-940,4880,36,51,814
1051414,3719444,4011376,3721601,4016513,1996,3060,158,-591,2123,-2896,-640,5321,36,51,814
1052416,3719600,4011608,3721798,4016710,2015,2996,327,-849,2312,-2696,-304,5334,30,51,815
1053416,3719744,4011856,3721995,4016907,2114,2874,496,-1056,2424,-2493,-177,5391,30,51,815
1054417,3719880,4012140,3722192,4017104,2192,2612,655,-1285,2507,-2427,-327,5501,26,54,814
1055418,3719992,4012372,3722389,4017301,2379,2923,832,-1582,2596,-2012,-387,5338,26,54,814
1056420,3720112,4012588,3722586,4017498,2364,3015,1022,-1884,2701,-1623,-398,5302,39,53,815
1057421,3720240,4012808,3722783,4017695,2344,2981,1260,-2195,2817,-1440,-432,5118,39,53,815
1058421,3720348,4012988,3722980,4017892,2509,3240,1507,-2549,2906,-1085,-749,4979,39,54,813
1059423,3720508,4013280,3723177,4018089,2200,2499,1755,-2946,2964,-814,-753,4922,39,54,813
1060423,3720628,4013552,3723374,4018286,2485,2592,1996,-3302,2986,-617,-522,4998,41,45,811
1061424,3720780,4013788,3723571,4018483,2305,2800,2219,-3604,2982,-449,-455,4987,41,45,811
1062425,3720928,4013972,3723768,4018680,2353,3131,2439,-3875,2994,-360,-346,5095,22,41,816
1063427,3721060,4014188,3723965,4018877,2481,2924,2636,-4056,3003,-294,-154,5247,22,41,816
1064428,3721192,4014448,3724162,4019074,2511,2622,2817,-4152,2977,-221,-207,5419,30,52,814
1065429,3721324,4014708,3724359,4019271,2539,2596,2976,-4153,2908,-251,-196,5578,30,52,814
1066429,3721480,4014952,3724556,4019468,2408,2676,3120,-4116,2816,-209,-223,5743,24,44,813
1067430,3721616,4015152,3724753,4019665,2560,2951,3233,-3993,2742,-57,-260,5874,24,44,813
1068431,3721760,4015348,3724950,4019862,2534,2977,3316,-3775,2694,-104,-69,5966,44,35,814
1069432,3721912,4015560,3725147,4020059,2505,2872,3376,-3491,2653,-115,12,6036,44,35,814
1070433,3722064,4015828,3725344,4020256,2525,2490,3417,-3186,2590,-193,285,6083,43,36,811
1071434,3722244,4016040,3725541,4020453,2358,2835,3442,-2818,2493,-300,599,6078,43,36,811
1072436,3722432,4016268,3725738,4020650,2312,2722,3458,-2476,2373,-347,617,5846,47,39,811
1073437,3722596,4016464,3725935,4020847,2478,2924,3476,-2133,2277,-382,408,5748,47,39,811
1074437,3722780,4016676,3726132,4021044,2360,2818,3496,-1811,2216,-361,180,5540,37,40,813
1075439,3722952,4016872,3726329,4021241,2446,2919,3525,-1524,2172,-257,-112,5280,37,40,813
1076439,3723132,4017100,3726526,4021438,2404,2706,3565,-1244,2136,-243,-239,5114,31,39,812
1077440,3723304,4017364,3726723,4021635,2466,2452,3595,-1010,2077,-219,-217,4872,31,39,812
1078441,3723504,4017652,3726920,4021832,2290,2263,3620,-782,1996,-197,-130,4710,35,58,813
1079443,3723732,4017892,3727117,4022029,2102,2546,3640,-530,1953,-194,-179,4647,35,58,813
1080444,3723924,4018096,3727314,4022226,2330,2768,3650,-253,1937,-134,-95,4522,33,54,816
1081445,3724124,4018304,3727511,4022423,2279,2739,3649,-12,1945,-32,-20,4317,33,54,816
1082446,3724320,4018616,3727708,4022620,2305,2039,3629,190,1917,132,47,4006,32,49,816
1083447,3724532,4018904,3727905,4022817,2200,2150,3593,299,1842,337,287,3664,32,49,816
1084448,3724744,4019184,3728102,4023014,2193,2165,3534,411,1752,445,542,3544,33,50,816
1085448,3724968,4019452,3728299,4023211,2107,2208,3456,529,1667,537,513,3464,33,50,816
1086450,3725196,4019704,3728496,4023408,2069,2285,3377,701,1608,516,500,3521,50,47,819
1087450,3725412,4020064,3728693,4023605,2136,1540,3299,866,1555,587,389,3438,50,47,819
1088451,3725616,4020392,3728890,4023802,2209,1683,3219,1021,1474,779,341,3207,55,51,819
1089459,3725844,4020688,3729120,4024032,2060,1854,3135,1095,1335,941,868,2815,55,51,819
1090453,3726076,4020976,3729317,4024229,2021,1865,3045,1073,1183,1177,612,2459,39,56,822
1091454,3726300,4021308,3729514,4024426,2060,1531,2959,991,1097,1219,326,2285,39,56,822
1092455,3726492,4021660,3729711,4024623,2262,1339,2856,889,1035,1010,771,2111,56,66,820
1093456,3726728,4022020,3729908,4024820,1971,1218,2723,679,955,980,952,1645,56,66,820
1094457,3726936,4022312,3730105,4025017,2141,1601,2554,353,868,1178,841,1346,37,57,821
1095458,3727136,4022568,3730302,4025214,2191,1801,2369,1,781,1350,694,1205,37,57,821
1096460,3727340,4022924,3730499,4025411,2164,1106,2204,-334,730,1393,265,1166,56,60,824
1097460,3727560,4023252,3730696,4025608,2054,1225,2066,-524,737,1306,169,1469,56,60,824
1098462,3727788,4023580,3730893,4025805,1991,1167,1920,-613,788,1288,215,1676,52,57,821
1099462,3727992,4023844,3731090,4026002,2138,1538,1756,-613,844,1379,154,1785,52,57,821
1100463,3728200,4024104,3731287,4026199,2109,1536,1576,-609,869,1313,306,1788,40,49,824
1101464,3728392,4024424,3731484,4026396,2212,1107,1399,-601,797,1151,1148,1634,40,49,824
1102465,3728580,4024716,3731681,4026593,2241,1241,1233,-648,629,1022,1735,1545,36,47,822
1103466,3728744,4025012,3731878,4026790,2407,1173,1063,-596,477,1068,1058,1861,36,47,822
1104468,3728924,4025288,3732075,4026987,2314,1263,883,-433,428,1050,283,2093,39,67,822
1105468,3729168,4025560,3732272,4027184,1895,1256,675,-190,465,1007,132,2317,39,67,822
1106469,3729348,4025864,3732469,4027381,2303,1009,444,70,538,1210,56,2475,34,63,822
1107470,3729544,4026176,3732666,4027578,2203,909,204,363,604,1409,184,2424,34,63,822
1108471,3729736,4026428,3732863,4027775,2232,1260,-26,644,622,1439,317,2376,35,45,825
1109472,3729944,4026680,3733060,4027972,2127,1236,-227,890,589,1385,287,2300,35,45,825
1110473,3730164,4026964,3733257,4028169,2043,998,-413,1111,526,1412,237,2283,51,56,824
1111474,3730412,4027248,3733454,4028366,1845,960,-603,1359,431,1567,256,2229,51,56,824
1112476,3730672,4027548,3733651,4028563,1744,815,-806,1588,318,1685,205,2162,59,52,823
1113477,3730932,4027780,3733848,4028760,1717,1225,-1012,1731,211,1810,95,2037,59,52,823
1114478,3731188,4028004,3734045,4028957,1716,1263,-1210,1853,110,1891,104,1916,62,47,825
1115478,3731448,4028272,3734242,4029154,1664,957,-1416,1999,7,2053,-16,1970,62,47,825
1116480,3731684,4028532,3734439,4029351,1797,979,-1611,2107,-94,2157,-180,1844,43,58,825
1117480,3731944,4028768,3734636,4029548,1621,1112,-1810,2187,-203,2168,-176,1892,43,58,825
1118482,3732228,4029012,3734833,4029745,1432,1043,-1994,2225,-308,2188,-50,1894,56,53,827
1119482,3732484,4029220,3735030,4029942,1582,1263,-2183,2238,-433,2298,152,1932,56,53,827
1120484,3732732,4029440,3735227,4030139,1610,1178,-2351,2247,-594,2280,559,1865,44,37,827
1121485,3733036,4029692,3735424,4030336,1214,954,-2507,2269,-785,2195,862,1971,44,37,827
1122486,3733324,4029880,3735621,4030533,1274,1357,-2629,2370,-981,2068,741,2122,43,50,827
1123486,3733592,4030108,3735818,4030730,1369,1094,-2749,2488,-1153,2026,380,2292,43,50,827
1124488,3733864,4030268,3736015,4030927,1311,1535,-2859,2656,-1290,1990,-144,2375,67,37,829
1125489,3734116,4030444,3736212,4031124,1412,1444,-2970,2743,-1419,1808,-132,2312,67,37,829
1126489,3734388,4030576,3736409,4031321,1255,1749,-3062,2826,-1575,1613,211,2370,53,22,827
1127490,3734692,4030744,3736606,4031518,1008,1537,-3184,3026,-1755,1606,392,3087,53,22,827
1128492,3734964,4030884,3736803,4031715,1176,1737,-3322,3381,-1935,1574,403,3329,44,37,826
1129493,3735168,4031004,3737000,4031912,1598,1896,-3388,3549,-2095,1416,63,2615,44,37,826
1130494,3735432,4031152,3737197,4032109,1193,1742,-3430,3598,-2222,1424,25,2864,58,23,827
1131495,3735672,4031360,3737394,4032306,1325,1362,-3426,3448,-2328,1410,447,2095,58,23,827
1132496,3735860,4031516,3737591,4032503,1654,1705,-3348,3072,-2400,1066,118,1436,40,37,823
1133496,3736052,4031672,3737788,4032700,1631,1724,-3233,2535,-2378,1075,-707,1202,40,37,823
1134497,3736208,4031828,3737985,4032897,1875,1742,-3144,1995,-2281,1000,-1006,1399,28,38,827
1135498,3736360,4031948,3738182,4033094,1920,2001,-3134,1576,-2162,834,-846,1719,28,38,827
1136499,3736488,4032092,3738379,4033291,2101,1874,-3227,1235,-2020,798,-471,2082,25,19,823
1137501,3736644,4032244,3738576,4033488,1945,1845,-3407,976,-1839,693,-176,2481,25,19,823
1138501,3736784,4032368,3738773,4033685,2070,2052,-3601,697,-1665,526,390,2452,28,36,819
1139502,3736988,4032512,3738970,4033882,1666,1951,-3744,420,-1524,505,717,2532,28,36,819
1140503,3737184,4032664,3739167,4034079,1718,1920,-3852,198,-1391,367,862,2847,42,34,821
1141504,3737376,4032800,3739364,4034276,1745,2048,-3930,54,-1257,164,766,3076,42,34,821
1142505,3737572,4032956,3739561,4034473,1722,1941,-3997,-50,-1127,68,525,3364,33,18,822
1143506,3737780,4033112,3739758,4034670,1642,1959,-4068,-98,-985,8,-11,3704,33,18,822
1144507,3737960,4033232,3739955,4034867,1824,2218,-4136,-136,-845,0,-238,3717,30,23,821
1145509,3738152,4033360,3740152,4035064,1752,2199,-4189,-185,-720,52,-407,3862,30,23,821
1146510,3738320,4033472,3740349,4035261,1915,2337,-4217,-243,-605,148,-483,3934,43,31,822
1147510,3738476,4033604,3740546,4035458,2008,2240,-4211,-374,-509,276,-458,3616,43,31,822
1148512,3738636,4033740,3740743,4035655,2000,2243,-4186,-642,-397,513,-595,3471,33,32,819
1149512,3738824,4033888,3740940,4035852,1829,2190,-4172,-950,-264,758,-813,3571,33,32,819
1150513,3738960,4034028,3741137,4036049,2182,2265,-4178,-1290,-133,1047,-925,3546,31,29,819
1151514,3739116,4034204,3741334,4036246,2075,2050,-4171,-1665,-21,1463,-1087,3446,31,29,819
1152515,3739304,4034376,3741531,4036443,1880,2086,-4126,-2063,65,1853,-1257,3524,21,37,820
1153517,3739516,4034568,3741728,4036640,1724,1964,-4054,-2362,126,2128,-1506,3931,21,37,820
1154517,3739692,4034724,3741925,4036837,1958,2207,-3966,-2595,173,2295,-1567,4141,47,37,820
1155518,3739932,4034900,3742122,4037034,1540,2091,-3892,-2762,201,2362,-1549,4567,47,37,820
1156519,3740144,4035028,3742319,4037231,1708,2423,-3833,-2778,224,2361,-1552,5162,51,31,822
1157520,3740360,4035176,3742516,4037428,1676,2319,-3789,-2644,242,2285,-1540,5740,51,31,822
1158521,3740548,4035344,3742713,4037625,1855,2208,-3735,-2404,214,2163,-1074,6088,27,41,821
1159522,3740784,4035524,3742910,4037822,1538,2140,-3659,-2054,108,2101,-322,6416,27,41,821
1160523,3740992,4035680,3743107,4038019,1709,2309,-3552,-1640,-23,2136,-566,6704,32,26,818
1161525,3741184,4035864,3743304,4038216,1811,2140,-3410,-1245,-104,2271,-1654,6721,32,26,818
1162526,3741408,4036056,3743501,4038413,1600,2092,-3224,-854,-132,2346,-2246,6870,29,41,821
1163526,3741604,4036212,3743698,4038610,1776,2336,-3011,-476,-182,2342,-2226,6902,29,41,821
1164528,3741792,4036344,3743895,4038807,1830,2515,-2797,-84,-265,2387,-2404,6966,40,24,820
1165528,3741988,4036468,3744092,4039004,1781,2598,-2587,340,-357,2376,-2615,7221,40,24,820
1166529,3742196,4036644,3744289,4039201,1701,2282,-2399,773,-454,2312,-2589,7218,49,39,820
1167530,3742332,4036788,3744486,4039398,2179,2506,-2260,1187,-580,2240,-2274,7246,49,39,820
1168531,3742560,4036936,3744683,4039595,1590,2503,-2166,1547,-720,2209,-1942,7220,29,23,817
1169533,3742752,4037120,3744880,4039792,1818,2285,-2086,1892,-843,2185,-1875,7279,29,23,817
1170533,3742928,4037264,3745077,4039989,1928,2558,-1969,2269,-890,2027,-1895,7298,31,38,816
1171534,3743104,4037420,3745274,4040186,1937,2502,-1817,2638,-880,1673,-1963,7406,31,38,816
1172542,3743312,4037620,3745504,4040416,1748,2240,-1634,2949,-857,1319,-1775,7184,40,35,819
1173536,3743476,4037800,3745701,4040613,2037,2374,-1441,3145,-868,1019,-886,6925,40,35,819
1174537,3743676,4037996,3745898,4040810,1811,2274,-1266,3228,-869,884,-477,6671,44,32,818
1175538,3743864,4038216,3746095,4041007,1891,2115,-1084,3211,-810,908,-106,6420,44,32,818
1176540,3744056,4038420,3746292,4041204,1868,2212,-886,3133,-684,870,311,6256,34,43,819
1177540,3744240,4038616,3746489,4041401,1925,2263,-691,3046,-499,867,446,6218,34,43,819
1178542,3744468,4038832,3746686,4041598,1636,2131,-487,2927,-280,864,613,6032,51,41,820
1179542,3744680,4039016,3746883,4041795,1731,2337,-276,2822,-91,811,794,6060,51,41,820
1180543,3744840,4039176,3747080,4041992,2072,2504,-70,2793,15,484,1073,6232,29,43,818
1181544,3745036,4039340,3747277,4042189,1847,2494,132,2739,36,137,1102,6105,29,43,818
1182545,3745224,4039520,3747474,4042386,1902,2402,341,2652,11,-24,300,6106,44,37,819
1183546,3745396,4039724,3747671,4042583,2013,2249,539,2673,36,-55,-1018,6367,44,37,819
1184547,3745556,4039924,3747868,4042780,2106,2274,748,2730,87,-154,-1533,6278,29,42,819
1185548,3745724,4040120,3748065,4042977,2068,2299,936,2799,99,-360,-1553,6351,29,42,819
1186550,3745860,4040328,3748262,4043174,2296,2220,1101,2861,73,-589,-1443,6393,42,33,819
1187550,3746016,4040484,3748459,4043371,2189,2563,1259,3003,30,-644,-1339,6557,42,33,819
1188551,3746192,4040676,3748656,4043568,2074,2341,1434,3097,-7,-692,-1437,6304,23,31,818
1189552,3746324,4040856,3748853,4043765,2378,2424,1613,3105,-20,-807,-1453,5998,23,31,818
1190553,3746488,4041036,3749050,4043962,2193,2432,1778,2997,-40,-849,-1125,5653,34,40,816
1191554,3746656,4041196,3749247,4044159,2181,2575,1930,2798,-71,-748,-755,5285,34,40,816
1192556,3746796,4041404,3749444,4044356,2381,2270,2056,2504,-67,-631,-594,4989,27,36,814
1193556,3746936,4041560,3749641,4044553,2407,2614,2160,2190,-14,-543,-345,4867,27,36,814
1194558,3747072,4041760,3749838,4044750,2460,2337,2251,1842,50,-507,-52,4616,21,33,816
1195558,3747240,4041940,3750035,4044947,2273,2471,2326,1457,91,-460,-132,4450,21,33,816
1196560,3747372,4042108,3750232,4045144,2527,2559,2388,1093,115,-423,-306,4449,30,50,814
1197560,3747540,4042304,3750429,4045341,2315,2385,2429,716,146,-468,-292,4234,30,50,814
1198562,3747684,4042468,3750626,4045538,2489,2601,2451,330,180,-615,-139,4197,19,31,816
1199562,3747808,4042656,3750823,4045735,2646,2455,2451,-50,222,-747,-74,4162,19,31,816
1200563,3747972,4042852,3751020,4045932,2412,2406,2447,-416,324,-807,-237,4135,26,34,816
1201564,3748136,4043048,3751217,4046129,2426,2406,2438,-733,484,-789,-276,4185,26,34,816
1202565,3748300,4043216,3751414,4046326,2442,2595,2423,-982,688,-936,-195,4284,46,31,813
1203566,3748448,4043400,3751611,4046523,2564,2502,2400,-1143,913,-1052,-293,4417,46,31,813
1204567,3748620,4043584,3751808,4046720,2425,2508,2383,-1263,1131,-1191,-504,4411,44,31,814
1205568,3748784,4043780,3752005,4046917,2491,2434,2373,-1312,1344,-1285,-726,4664,44,31,814
1206569,3748972,4043976,3752202,4047114,2345,2435,2368,-1297,1508,-1429,-343,4666,42,31,815
1207570,3749116,4044212,3752399,4047311,2644,2168,2339,-1200,1614,-1590,-205,4868,42,31,815
1208571,3749288,4044432,3752596,4047508,2481,2258,2300,-1031,1737,-1701,-354,4920,37,42,815
1209572,3749440,4044636,3752793,4047705,2626,2356,2262,-859,1883,-1651,-430,4933,37,42,815
1210574,3749612,4044828,3752990,4047902,2513,2434,2224,-638,2032,-1605,-588,4836,40,35,816
1211574,3749800,4045044,3753187,4048099,2418,2276,2199,-445,2158,-1599,-939,4713,40,35,816
1212576,3749940,4045252,3753384,4048296,2743,2322,2187,-295,2234,-1549,-1028,4565,47,35,815
1213576,3750108,4045492,3753581,4048493,2582,2103,2177,-206,2288,-1473,-1038,4378,47,35,815
1214578,3750308,4045724,3753778,4048690,2380,2139,2162,-66,2310,-1395,-488,4342,29,51,815
1215578,3750476,4045936,3753975,4048887,2594,2258,2141,-12,2302,-1346,53,4011,29,51,815
1216579,3750632,4046136,3754172,4049084,2688,2332,2126,-12,2288,-1197,142,3927,43,39,816
1217580,3750788,4046372,3754369,4049281,2706,2091,2111,-52,2293,-893,-60,3708,43,39,816
1218582,3750920,4046620,3754566,4049478,2886,1993,2093,-103,2349,-572,-342,3713,43,47,816
1219582,3751068,4046916,3754763,4049675,2808,1651,2051,-165,2475,-282,-843,3672,43,47,816
1220584,3751184,4047156,3754960,4049872,3045,1982,1993,-213,2652,-44,-1027,3729,42,55,815
1221584,3751352,4047372,3755157,4050069,2733,2125,1935,-197,2806,15,-285,3720,42,55,815
1222585,3751476,4047628,3755354,4050266,3041,1849,1890,-193,2864,93,-62,3631,24,58,817
1223586,3751600,4047908,3755551,4050463,3074,1663,1885,-222,2860,214,-506,3504,24,58,817
1224587,3751788,4048180,3755748,4050660,2678,1680,1912,-332,2794,180,326,3288,38,55,814
1225588,3751996,4048500,3755945,4050857,2549,1327,1934,-406,2656,166,890,3319,38,55,814
1226589,3752176,4048748,3756142,4051054,2732,1755,1955,-491,2497,215,865,3234,29,44,815
1227590,3752340,4048916,3756339,4051251,2848,2269,1952,-488,2346,187,730,3528,29,44,815
1228591,3752528,4049068,3756536,4051448,2703,2388,1917,-389,2242,256,-146,3673,31,33,820
1229592,3752688,4049248,3756733,4051645,2894,2222,1818,-205,2230,278,-908,3977,31,33,820
1230593,3752844,4049444,3756930,4051842,2938,2122,1675,124,2260,138,-252,4416,36,28,814
1231594,3753008,4049664,3757127,4052039,2904,1962,1563,482,2241,-80,649,4202,36,28,814
1232595,3753152,4049928,3757324,4052236,3053,1659,1533,873,2191,-144,-108,4434,25,49,814
1233596,3753276,4050200,3757521,4052433,3210,1576,1600,1217,2118,-212,-255,4203,25,49,814
1234597,3753472,4050524,3757718,4052630,2761,1196,1704,1537,1984,-317,599,4063,24,51,815
1235598,3753588,4050752,3757915,4052827,3298,1782,1789,1825,1823,-371,937,3948,24,51,815
1236599,3753700,4051128,3758112,4053024,3361,780,1830,2091,1713,-352,853,3946,32,72,813
1237600,3753856,4051432,3758309,4053221,3105,1183,1825,2403,1668,-337,429,4025,32,72,813
1238601,3753992,4051752,3758506,4053418,3258,1029,1778,2698,1726,-221,-430,3870,38,64,813
1239602,3754152,4052080,3758703,4053615,3124,922,1682,3005,1824,-162,-351,3852,38,64,813
1240603,3754324,4052424,3758900,4053812,3061,757,1544,3214,1890,-188,-243,3564,48,61,817
1241604,3754516,4052756,3759097,4054009,2940,773,1408,3308,1930,-215,-128,3312,48,61,817
1242605,3754668,4053088,3759294,4054206,3210,714,1280,3430,1928,-160,303,3225,35,75,818
1243607,3754844,4053448,3759491,4054403,3071,468,1149,3477,1883,-71,646,2962,35,75,818
1244608,3755048,4053868,3759688,4054600,2894,-5,1020,3525,1759,-93,1001,2949,34,72,820
1245609,3755232,4054320,3759885,4054797,3025,-317,887,3489,1572,-162,1091,2701,34,72,820
1246609,3755436,4054656,3760082,4054994,2898,347,754,3458,1359,-122,1029,2723,35,69,819
1247610,3755644,4054932,3760279,4055191,2868,687,620,3391,1160,-75,1026,2728,35,69,819
1248612,3755848,4055088,3760476,4055388,2891,1455,496,3385,986,31,1023,2811,45,59,819
1249613,3756064,4055372,3760673,4055585,2809,617,346,3344,814,80,1342,2711,45,59,819
1250613,3756300,4055644,3760870,4055782,2668,659,151,3201,604,88,1886,2508,52,51,821
1251615,3756524,4055940,3761067,4055979,2732,466,-95,3085,323,187,2220,2632,52,51,821
1252616,3756752,4056212,3761264,4056176,2694,583,-355,2978,9,178,2367,2594,53,48,821
1253617,3756992,4056432,3761461,4056373,2601,898,-607,2926,-286,187,2348,2840,53,48,821
1254617,3757208,4056612,3761658,4056570,2744,1155,-877,2907,-535,313,2395,2887,58,41,823
1255627,3757436,4056784,3761888,4056800,2670,1231,-1162,2926,-747,330,2398,3013,58,41,823
1256620,3757672,4056940,3762085,4056997,2604,1349,-1440,2996,-964,219,2300,3145,55,39,822
1257620,3757892,4057076,3762282,4057194,2695,1500,-1686,3049,-1220,15,2421,3018,55,39,822
1258621,3758116,4057272,3762479,4057391,2659,1126,-1906,3016,-1500,-92,2145,2936,41,42,819
1259623,3758332,4057440,3762676,4057588,2701,1314,-2113,2985,-1760,-20,1315,2986,41,42,819
1260624,3758592,4057576,3762873,4057785,2400,1540,-2280,2944,-1951,-148,253,2889,50,41,819
1261625,3758784,4057692,3763070,4057982,2827,1701,-2389,2859,-2079,-274,-452,2828,50,41,819
1262626,3758992,4057816,3763267,4058179,2723,1683,-2455,2656,-2194,-349,-575,2611,58,30,820
1263626,3759212,4058008,3763464,4058376,2639,1260,-2516,2503,-2337,-560,21,2745,58,30,820
1264628,3759388,4058116,3763661,4058573,2924,1825,-2564,2285,-2536,-885,488,2549,31,36,817
1265629,3759560,4058248,3763858,4058770,2961,1704,-2597,2080,-2778,-1061,175,2725,31,36,817
1266629,3759772,4058392,3764055,4058967,2705,1652,-2617,1862,-2985,-1145,-426,2824,47,37,820
1267630,3759932,4058500,3764252,4059164,3047,1916,-2615,1830,-3124,-1080,-1325,3362,47,37,820
1268631,3760112,4058672,3764449,4059361,2930,1527,-2609,1924,-3219,-1273,-1860,3747,47,35,815
1269632,3760324,4058872,3764646,4059558,2725,1351,-2657,2171,-3301,-1495,-2280,4499,47,35,815
1270633,3760508,4059032,3764843,4059755,2907,1617,-2732,2433,-3383,-1583,-2556,4428,47,37,814
1271634,3760680,4059164,3765040,4059952,2994,1821,-2786,2645,-3423,-1547,-2753,4347,47,37,814
1272635,3760864,4059284,3765237,4060149,2924,1930,-2820,2806,-3399,-1526,-2866,4403,39,20,818
1273636,3761040,4059392,3765434,4060346,2984,2045,-2800,2706,-3313,-1580,-2691,3495,39,20,818
1274637,3761244,4059556,3765631,4060543,2807,1709,-2712,2352,-3209,-1561,-2090,2820,26,17,815
1275638,3761456,4059692,3765828,4060740,2752,1911,-2617,1787,-3148,-1537,-1249,2512,26,17,815
1276640,3761664,4059784,3766025,4060937,2773,2232,-2551,1305,-3128,-1532,-1239,2914,36,32,814
1277640,3761864,4059888,3766222,4061134,2823,2198,-2494,821,-3094,-1619,-1403,2922,36,32,814
1278641,3762096,4060048,3766419,4061331,2607,1865,-2455,439,-3043,-1537,-1870,3456,48,24,816
1279642,3762312,4060172,3766616,4061528,2700,2122,-2427,192,-2969,-1486,-2076,3869,48,24,816
1280644,3762528,4060376,3766813,4061725,2693,1619,-2365,-51,-2845,-1409,-2392,3801,51,25,814
1281645,3762764,4060532,3767010,4061922,2551,1937,-2283,-359,-2678,-1380,-2538,3906,51,25,814
1282645,3763028,4060644,3767207,4062119,2348,2251,-2194,-646,-2482,-1395,-2220,4115,38,41,816
1283646,3763288,4060756,3767404,4062316,2345,2288,-2115,-842,-2304,-1382,-1372,4462,38,41,816
1284648,3763548,4060872,3767601,4062513,2319,2299,-2033,-1006,-2163,-1457,-583,4598,54,21,818
1285648,3763832,4061000,3767798,4062710,2131,2255,-1948,-1078,-2041,-1500,-168,5051,54,21,818
1286649,3764084,4061152,3767995,4062907,2308,2125,-1867,-1059,-1948,-1473,-69,5338,45,22,817
1287650,3764376,4061268,3768192,4063104,2016,2385,-1803,-1007,-1895,-1480,-171,5649,45,22,817
1288652,3764696,4061384,3768389,4063301,1788,2422,-1696,-901,-1870,-1453,-769,5753,49,33,818
1289652,3764956,4061516,3768586,4063498,2137,2350,-1540,-836,-1836,-1337,-1594,5794,49,33,818
1290653,3765224,4061640,3768783,4063695,2057,2433,-1339,-758,-1796,-1202,-1638,5863,68,32,817
1291654,3765552,4061800,3768980,4063892,1624,2225,-1145,-670,-1748,-973,-1615,5838,68,32,817
1292656,3765864,4061920,3769177,4064089,1674,2509,-987,-621,-1693,-772,-1468,5720,67,31,816
1293657,3766124,4062068,3769374,4064286,1973,2356,-836,-695,-1652,-694,-1062,5516,63,35,820
1294657,3766448,4062152,3769571,4064483,1517,2806,-672,-822,-1657,-572,-432,5373,63,35,820
1295658,3766756,4062272,3769768,4064680,1569,2615,-451,-1019,-1661,-366,-280,5201,67,21,819
1296660,3767032,4062400,3769965,4064877,1734,2596,-177,-1236,-1623,-120,-563,5177,67,21,819
1297660,3767360,4062540,3770162,4065074,1353,2546,107,-1459,-1561,74,-723,5128,64,37,819
1298661,3767648,4062684,3770359,4065271,1563,2545,362,-1661,-1514,169,-557,5237,64,37,819
1299662,3767924,4062816,3770556,4065468,1604,2649,598,-1853,-1488,353,-595,5184,63,36,820
1300663,3768240,4062928,3770753,4065665,1302,2812,831,-2024,-1453,497,-546,5162,63,36,820
1301664,3768512,4063060,3770950,4065862,1545,2716,1065,-2186,-1410,537,-370,5225,70,32,817
1302665,3768788,4063168,3771147,4066059,1485,2906,1296,-2345,-1383,510,52,5193,70,32,817
1303666,3769064,4063312,3771344,4066256,1451,2704,1515,-2434,-1402,467,396,5297,45,24,818
1304668,3769324,4063444,3771541,4066453,1524,2809,1724,-2513,-1427,450,180,5336,45,24,818
1305668,3769580,4063576,3771738,4066650,1524,2838,1930,-2515,-1424,429,-132,5511,51,21,818
1306669,3769812,4063696,3771935,4066847,1658,2947,2117,-2468,-1393,388,-223,5519,51,21,818
1307670,3770056,4063828,3772132,4067044,1564,2902,2301,-2378,-1344,309,-163,5525,58,20,817
1308672,3770312,4063944,3772329,4067241,1463,3037,2462,-2301,-1284,297,-189,5506,58,20,817
1309673,3770536,4064104,3772526,4067438,1651,2780,2624,-2176,-1201,243,-267,5451,39,26,817
1310674,3770808,4064268,3772723,4067635,1319,2770,2779,-2084,-1105,108,-192,5294,39,26,817
1311674,3771052,4064384,3772920,4067832,1473,3106,2943,-1982,-1021,17,-119,5148,56,39,816
1312675,3771288,4064516,3773117,4068029,1506,3035,3104,-1918,-943,-58,-89,4988,56,39,816
1313676,3771540,4064656,3773314,4068226,1383,3011,3274,-1850,-872,-157,-91,4842,41,31,815
1314677,3771792,4064788,3773511,4068423,1359,3090,3441,-1801,-796,-221,-170,4693,41,31,815
1315678,3772064,4064920,3773708,4068620,1201,3119,3597,-1763,-701,-299,-239,4506,50,36,817
1316679,3772332,4065040,3773905,4068817,1196,3229,3729,-1721,-596,-367,-141,4369,50,36,817
1317680,3772592,4065220,3774102,4069014,1218,2862,3825,-1731,-492,-413,-16,4134,54,25,817
1318681,3772876,4065376,3774299,4069211,1030,3031,3872,-1696,-393,-495,6,4087,54,25,817
1319682,3773172,4065532,3774496,4069408,912,3050,3868,-1727,-294,-578,76,3815,55,42,819
1320684,3773456,4065696,3774693,4069605,949,3015,3850,-1745,-197,-656,120,3629,55,42,819
1321684,3773700,4065872,3774890,4069802,1178,2950,3813,-1805,-105,-765,128,3476,45,45,818
1322685,3774004,4066040,3775087,4069999,756,3013,3760,-1871,-28,-854,289,3306,45,45,818
1323686,3774260,4066192,3775284,4070196,1031,3134,3683,-1944,27,-967,391,3157,64,32,817
1324687,3774504,4066420,3775481,4070393,1086,2646,3589,-2042,76,-1009,338,2896,64,32,817
1325688,3774784,4066592,3775678,4070590,824,3007,3470,-2129,133,-1020,290,2864,51,31,818
1326689,3774988,4066784,3775875,4070787,1296,2886,3332,-2229,201,-977,331,2616,51,31,818
1327690,3775216,4066952,3776072,4070984,1133,3049,3160,-2362,282,-837,207,2540,57,27,819
1328691,3775432,4067128,3776269,4071181,1199,3010,2971,-2496,407,-641,-44,2435,57,27,819
1329693,3775668,4067304,3776466,4071378,1058,3019,2775,-2686,583,-480,-67,2186,48,36,818
1330693,3775872,4067468,3776663,4071575,1255,3109,2577,-2868,789,-371,-41,2066,48,36,818
1331694,3776064,4067632,3776860,4071772,1332,3125,2382,-3081,1003,-276,63,1883,51,45,818
1332695,3776268,4067820,3777057,4071969,1254,2980,2178,-3294,1232,-96,61,1871,51,45,818
1333696,3776448,4068032,3777254,4072166,1412,2823,1976,-3527,1469,106,110,1653,31,36,815
1334697,3776656,4068224,3777451,4072363,1232,2951,1773,-3751,1687,249,241,1705,31,36,815
1335698,3776804,4068444,3777648,4072560,1628,2767,1576,-3926,1873,373,214,1792,36,33,817
1336699,3776996,4068624,3777845,4072757,1357,3026,1372,-4106,2007,505,243,1860,36,33,817
1337700,3777152,4068804,3778042,4072954,1600,3034,1168,-4138,2094,638,253,2179,24,30,818
1338708,3777272,4068996,3778272,4073184,1873,2976,957,-4139,2157,831,186,2271,24,30,818
1339702,3777440,4069208,3778469,4073381,1586,2845,731,-4059,2214,1089,31,2588,34,33,816
1340703,3777584,4069400,3778666,4073578,1759,2974,475,-3881,2288,1229,-85,2843,34,33,816
1341704,3777696,4069532,3778863,4073775,1996,3378,192,-3610,2367,1401,-150,3101,21,26,817
1342706,3777884,4069704,3779060,4073972,1526,3140,-106,-3308,2417,1520,118,3297,21,26,817
1343706,3778020,4069876,3779257,4074169,1878,3151,-396,-2978,2418,1630,249,3388,39,28,812
1344707,3778156,4070056,3779454,4074366,1905,3110,-648,-2644,2359,1762,331,3311,39,28,812
1345709,3778332,4070264,3779651,4074563,1664,2931,-880,-2408,2237,1908,287,3182,30,45,813
1346709,3778500,4070460,3779848,4074760,1728,3007,-1107,-2205,2066,2051,116,3271,30,45,813
1347710,3778664,4070616,3780045,4074957,1767,3276,-1347,-2014,1854,2025,20,3212,34,27,816
1348711,3778816,4070780,3780242,4075154,1862,3242,-1587,-1786,1615,1966,36,3428,34,27,816
