"Data file recorded 2014/9/22  15:29:47"
"%  Right Stride Frequency         = 3.0"
"%  Left Stride Frequency         = 3.0"
"%  Phase (Fractional)         = 32768.0"
"%  Experiment.py "
"%  Motor Gains    = [1800, 200, 100, 0, 0, 1800, 200, 100, 0, 0]
"% Columns: "
"% time | Right Leg Pos | Left Leg Pos | Commanded Right Leg Pos | Commanded Left Leg Pos | DCR | DCL | GyroX | GryoY | GryoZ | AX | AY | AZ | RBEMF | LBEMF | VBatt "
11575,606952,575448,623968,591200,3800,3800,5,131,239,94,-449,4056,-4,-7,916
12569,606956,575452,624165,591397,3800,3800,7,127,238,83,-440,4068,-4,-7,916
13570,607004,575492,624362,591594,3800,3800,7,126,240,68,-431,4072,-10,16,915
14571,607148,575616,624559,591791,3800,3800,8,109,246,78,-551,4058,-10,16,915
15572,607276,575784,624756,591988,3800,3800,10,117,241,72,-806,4095,15,40,873
16573,607456,575968,624953,592185,3800,3800,7,203,199,36,-1126,4235,15,40,873
17574,607676,576200,625150,592382,3800,3800,2,298,158,173,-1217,4395,31,49,873
18575,607948,576504,625347,592579,3800,3800,-17,419,145,324,-1082,4450,31,49,873
19576,608212,576816,625544,592776,3800,3800,-46,522,147,554,-875,4526,66,75,875
20577,608516,577208,625741,592973,3800,3800,-80,640,146,799,-486,4417,66,75,875
21578,608876,577748,625938,593170,3800,3800,-95,691,146,1043,78,4142,64,93,878
22579,609224,578220,626135,593367,3800,3800,-67,683,124,1117,568,3819,64,93,878
23580,609584,578792,626332,593564,3800,3800,-12,563,88,1147,646,3613,93,98,879
24581,609984,579304,626529,593761,3800,3800,75,446,52,1076,542,3601,93,98,879
25582,610368,579868,626726,593958,3800,3800,179,333,15,944,445,3810,95,117,879
26570,610764,580512,626923,594155,3800,3245,277,366,-3,994,466,4235,95,117,879
27571,611200,581100,627120,594352,3800,3426,366,478,48,1198,690,4391,104,121,880
28572,611588,581728,627317,594549,3800,2989,471,647,103,1383,1189,4551,104,121,880
29573,611944,582320,627514,594746,3800,3043,592,890,117,1587,1599,4783,100,133,883
30574,612320,582972,627711,594943,3800,2470,749,1140,85,1601,2098,4693,100,133,883
31575,612652,583536,627908,595140,3800,2861,937,1289,31,1637,2640,4583,94,122,885
32576,612968,584196,628105,595337,3800,2060,1160,1403,-46,1717,3202,4580,94,122,885
33577,613276,584776,628302,595534,3800,2394,1410,1555,-136,1708,3411,4932,63,117,887
34578,613536,585304,628499,595731,3800,2576,2392,3081,-196,2170,3641,16816,63,117,887
35579,613744,585776,628696,595928,3800,2807,3880,5532,-242,2272,3458,19774,58,101,888
36580,613948,586140,628893,596125,3800,3410,4673,6449,-264,1465,2865,4800,58,101,888
37581,614092,586496,629090,596322,3800,3393,4692,6311,-238,1364,2782,4819,33,79,882
38582,614224,586816,629287,596519,3800,3565,4531,6170,-192,1468,2393,5436,33,79,882
39596,614320,587064,629484,596716,3800,3800,4278,6727,-138,1340,1866,6873,20,62,878
40597,614412,587272,629681,596913,3800,3800,4028,7631,-95,1059,1800,6660,20,62,878
41598,614480,587440,629878,597110,3800,3800,3700,8406,-155,1180,2473,6373,35,37,875
42599,614540,587564,630075,597307,3800,3800,3317,8951,-296,1134,2818,5868,35,37,875
43600,614608,587660,630272,597504,3800,3800,2978,9120,-375,1062,2776,4688,10,30,871
44601,614672,587720,630469,597701,3800,3800,2706,8946,-383,979,2552,3756,10,30,871
45602,614756,587752,630666,597898,3800,3800,2485,8540,-445,-32,2686,3083,7,15,870
46603,614868,587764,630863,598095,3800,3800,2270,8012,-602,-1016,2645,2828,7,15,870
47603,614972,587796,631060,598292,3800,3800,2055,7558,-821,-1569,2487,2515,18,16,869
48605,615088,587812,631257,598489,3800,3800,1836,6966,-1024,-2151,2257,2203,18,16,869
49605,615252,587832,631454,598686,3800,3800,1591,6457,-1231,-2616,1870,2689,18,2,869
50607,615392,587864,631651,598883,3800,3800,1262,6076,-1436,-2932,1455,2996,18,2,869
51608,615560,587880,631848,599080,3800,3800,904,5670,-1578,-3196,1261,2859,44,6,867
52609,615744,587884,632045,599277,3800,3800,551,5196,-1616,-3285,980,2607,44,6,867
53610,615892,587908,632242,599474,3800,3800,280,4560,-1564,-3368,803,2051,25,4,870
54611,616048,587924,632439,599671,3800,3800,24,3759,-1486,-3463,699,1601,25,4,870
55612,616224,587956,632636,599868,3800,3800,-185,2803,-1439,-3480,627,1058,44,8,870
56613,616368,587980,632833,600065,3800,3800,-302,1712,-1411,-3627,460,599,44,8,870
57614,616520,588024,633030,600262,3800,3800,-365,546,-1385,-3706,277,564,44,7,868
58615,616692,588056,633227,600459,3800,3800,-434,-530,-1326,-3626,155,760,44,7,868
59616,616852,588100,633424,600656,3800,3800,-520,-1443,-1206,-3592,-385,1335,23,17,869
60617,616984,588148,633621,600853,3800,3800,-697,-1976,-975,-3492,-1131,2422,23,17,869
61618,617148,588188,633818,601050,3800,3800,-943,-2365,-672,-3169,-1161,2782,42,10,870
62619,617288,588204,634015,601247,3800,3800,-1221,-2670,-421,-2867,-711,3001,42,10,870
63620,617420,588240,634212,601444,3800,3800,-1477,-3018,-258,-2708,-457,2999,30,3,870
64621,617584,588248,634409,601641,3800,3800,-1668,-3454,-179,-2453,-238,2656,30,3,870
65622,617724,588272,634606,601838,3800,3800,-1799,-3956,-159,-2265,-196,2474,35,3,870
66623,617872,588312,634803,602035,3800,3800,-1866,-4461,-145,-2164,-581,2328,35,3,870
67624,618024,588356,635000,602232,3800,3800,-1865,-4918,-112,-1895,-857,2463,37,13,870
68625,618220,588396,635197,602429,3800,3800,-1855,-5261,-22,-1586,-1102,2809,37,13,870
69626,618388,588432,635394,602626,3800,3800,-1843,-5472,162,-1238,-1265,3285,34,5,870
70627,618568,588464,635591,602823,3800,3800,-1823,-5593,382,-776,-1128,3465,34,5,870
71628,618760,588488,635788,603020,3800,3800,-1767,-5657,576,-466,-685,3533,29,5,870
72629,618952,588528,635985,603217,3800,3800,-1705,-5677,759,-184,-729,3655,29,5,870
73630,619120,588548,636182,603414,3800,3800,-1607,-5641,927,55,-1152,3586,33,1,870
74631,619320,588576,636379,603611,3800,3800,-1445,-5656,1038,200,-1165,3420,33,1,870
75632,619508,588600,636576,603808,3800,3800,-1263,-5600,1073,276,-1061,3612,44,3,871
76633,619688,588640,636773,604005,3800,3800,-1089,-5575,1053,393,-987,3448,44,3,871
77634,619900,588672,636970,604202,3800,3800,-940,-5510,1026,535,-1010,3377,41,10,868
78635,620088,588708,637167,604399,3800,3800,-816,-5415,1003,634,-1102,3425,41,10,868
79636,620256,588744,637364,604596,3800,3800,-701,-5217,954,647,-1166,3518,47,7,870
80637,620460,588772,637561,604793,3800,3800,-591,-4966,870,657,-1220,3746,47,7,870
81638,620684,588816,637758,604990,3800,3800,-470,-4634,754,599,-1332,3866,53,6,870
82639,620876,588848,637955,605187,3800,3800,-332,-4311,599,621,-1233,3817,53,6,870
83640,621112,588860,638152,605384,3800,3800,-165,-4029,399,601,-909,3462,53,5,871
84641,621360,588916,638349,605581,3800,3800,0,-3881,187,708,-684,3134,53,5,871
85642,621564,588964,638546,605778,3800,3800,135,-3745,31,945,-736,2962,41,11,871
86643,621828,589008,638743,605975,3800,3800,241,-3699,-45,1144,-717,2614,41,11,871
87644,622076,589056,638940,606172,3800,3800,309,-3623,-117,1350,-394,2824,60,13,872
88645,622324,589108,639137,606369,3800,3800,304,-3389,-247,1637,281,3389,60,13,872
89646,622632,589156,639334,606566,3800,3800,252,-3101,-424,1840,574,3378,47,15,871
90647,622880,589196,639531,606763,3800,3800,157,-2776,-614,1981,639,3543,47,15,871
91648,623112,589212,639728,606960,3800,3800,28,-2376,-774,1980,673,3751,51,11,870
92649,623380,589260,639925,607157,3800,3800,-163,-1969,-908,1960,792,3769,51,11,870
93657,623648,589276,640352,607584,3800,3800,-375,-1583,-1013,1961,589,3805,48,3,870
94650,623908,589312,640549,607781,3800,3800,-591,-1214,-1065,1913,569,3711,48,3,870
95652,624128,589380,640746,607978,3800,3800,-726,-983,-1096,1940,995,3321,59,14,870
96653,624384,589420,640943,608175,3800,3800,-822,-838,-1149,1959,1383,3210,59,14,870
97654,624624,589468,641140,608372,3800,3800,-869,-643,-1217,1744,1621,3345,41,15,871
98655,624860,589524,641337,608569,3800,3800,-864,-477,-1273,1434,1587,3045,41,15,871
99656,625192,589580,641534,608766,3800,3800,-780,-360,-1314,1183,1447,3133,46,9,872
100657,625456,589612,641731,608963,3800,3800,-671,-197,-1326,857,1314,3309,46,9,872
101658,625732,589676,641928,609160,3800,3800,-560,-11,-1324,536,1101,3452,56,7,871
102659,626048,589724,642125,609357,3800,3800,-452,221,-1324,204,934,3447,56,7,871
103660,626368,589784,642322,609554,3800,3800,-321,402,-1305,-128,791,3518,67,19,871
104661,626700,589860,642519,609751,3800,3800,-178,768,-1265,-404,570,4048,67,19,871
105662,627088,589912,642716,609948,3800,3800,-56,1206,-1218,-720,389,4251,73,22,872
106663,627472,589976,642913,610145,3800,3800,66,1641,-1176,-1034,347,4214,73,22,872
107664,627880,590060,643110,610342,3800,3800,177,2068,-1133,-1243,359,4326,81,22,872
108665,628324,590140,643307,610539,3800,3800,308,2425,-1093,-1482,444,4117,81,22,872
109666,628756,590236,643504,610736,3800,3800,417,2690,-1085,-1643,446,4158,90,30,873
110666,629212,590316,643701,610933,3800,3800,509,3005,-1083,-1504,445,4295,90,30,873
111668,629712,590392,643898,611130,3800,3800,555,3308,-1083,-1428,599,4184,102,19,874
112669,630216,590476,644095,611327,3800,3800,583,3441,-1087,-1264,738,3821,102,19,874
113670,630696,590588,644292,611524,3800,3800,600,3422,-1095,-1184,868,3453,98,26,873
114670,631228,590716,644489,611721,3800,3800,629,3225,-1097,-1206,818,3115,98,26,873
115659,631780,590836,644686,611918,3774,3800,678,2854,-1104,-1132,830,2567,115,27,874
116660,632352,590960,644883,612115,3487,3800,726,2346,-1122,-1028,875,2404,115,27,874
117661,632908,591100,645080,612312,3432,3800,772,1807,-1134,-1003,825,2293,109,40,875
118662,633524,591268,645277,612509,2875,3800,820,1215,-1128,-1057,552,2196,109,40,875
119663,634124,591396,645474,612706,2800,3800,815,564,-1100,-1317,111,2254,122,46,878
120664,634704,591560,645671,612903,2759,3800,772,25,-1036,-1775,-346,2640,122,46,878
121665,635340,591684,645868,613100,2218,3800,696,-453,-947,-2174,-653,2835,120,47,881
122666,635952,591872,646065,613297,2188,3800,634,-994,-850,-2338,-819,2762,120,47,881
123667,636556,592012,646262,613494,2061,3800,558,-1488,-756,-2318,-835,3045,115,37,882
124668,637212,592204,646459,613691,1536,3800,433,-1966,-650,-2568,-1043,3103,115,37,882
125669,637800,592388,646656,613888,1791,3800,281,-2454,-506,-2786,-1420,3201,138,50,883
126670,638312,592576,646853,614085,2129,3800,126,-3017,-335,-2804,-1529,3300,138,50,883
127671,638860,592740,647050,614282,1752,3800,-35,-3616,-125,-2572,-1490,3367,106,43,887
128672,639416,592940,647247,614479,1545,3800,-213,-4172,97,-2467,-1442,3562,106,43,887
129673,639840,593132,647444,614676,2272,3800,-422,-4606,348,-2452,-1655,3956,102,48,885
130674,640312,593336,647641,614873,1852,3800,-673,-5086,578,-2207,-1413,3739,102,48,885
131675,640696,593560,647838,615070,2322,3800,-904,-5708,793,-1623,-1129,3475,100,44,887
132676,641032,593748,648035,615267,2562,3800,-1129,-6483,965,-1132,-1088,3115,100,44,887
133677,641368,593952,648232,615464,2502,3800,-1329,-7378,1082,-764,-1634,2960,93,53,885
134678,641632,594156,648429,615661,2924,3800,-1512,-8176,1157,-434,-1544,3148,93,53,885
135680,641888,594336,648626,615858,2950,3800,-1952,-8695,1343,202,-2676,4557,72,42,880
136680,642176,594576,648823,616055,2711,3800,-3154,-8031,1819,853,-5499,8418,72,42,880
137681,642432,594800,649020,616252,2887,3800,-4279,-7655,1913,4768,-9177,5763,53,57,879
138682,642656,595036,649217,616449,3076,3800,-4483,-8696,-769,19841,-22504,6212,53,57,879
139683,642880,595280,649414,616646,3065,3800,-4754,-9608,-2105,5220,-6137,5703,47,56,881
140684,643088,595520,649611,616843,3161,3800,-5057,-10281,-1856,2599,-2740,3692,47,56,881
141685,643336,595804,649808,617040,2891,3800,-4987,-11416,-1374,2824,-2806,6277,58,58,878
142686,643568,596104,650005,617237,2976,3800,-3932,-11150,-1264,6285,-1556,14793,58,58,878
143687,643788,596384,650202,617434,3042,3800,-979,-6330,-1174,6319,-5287,32767,47,66,877
144688,643968,596656,650399,617631,3301,3800,1324,-3130,-837,789,-3027,14229,47,66,877
145689,644120,596952,650596,617828,3497,3800,1514,-3464,-482,177,-1256,3338,50,55,879
146690,644280,597264,650793,618025,3465,3800,968,-5421,-331,1247,-911,1344,50,55,879
147691,644468,597608,650990,618222,3295,3800,559,-7162,-239,1743,-1038,1715,28,57,875
148692,644672,597908,651187,618419,3193,3800,588,-8071,-52,1131,-1209,2151,28,57,875
149693,644908,598220,651384,618616,2976,3800,677,-8663,158,1094,-1762,2522,52,59,876
150694,645112,598528,651581,618813,3175,3800,629,-8778,383,252,-2119,3839,52,59,876
151695,645224,598828,651778,619010,3789,3800,602,-8987,694,-1101,-2380,3396,55,56,878
152696,645348,599116,651975,619207,3747,3800,597,-9355,930,-792,-2401,3384,55,56,878
153710,645456,599400,652172,619404,3800,3800,612,-9319,1118,-603,-2368,4219,33,58,877
154698,645588,599684,652369,619601,3767,3800,654,-9081,1348,-914,-1899,4669,33,58,877
155699,645788,599964,652566,619798,3342,3800,698,-8453,1585,-725,-2349,5577,36,51,872
156700,645976,600232,652763,619995,3422,3800,667,-7582,1824,-1022,-1982,6516,36,51,872
157701,646204,600508,652960,620192,3160,3800,675,-6356,2150,-1426,-1977,7191,49,53,872
158702,646396,600808,653157,620389,3389,3800,720,-5263,2402,-1302,-1786,6317,49,53,872
159703,646532,601080,653354,620586,3766,3800,817,-4414,2598,-1585,-1479,6254,54,57,875
160717,646608,601404,653551,620783,3800,3800,852,-3437,2832,-1745,-1285,6774,54,57,875
161718,646680,601688,653748,620980,3800,3800,936,-2674,2989,-1246,-1216,4820,16,52,875
162719,646780,601984,653945,621177,3800,3800,1109,-2362,3080,-812,-1130,3825,16,52,875
163720,646884,602248,654142,621374,3800,3800,1282,-2104,3190,-262,-888,3954,26,49,872
164708,647064,602560,654339,621571,3698,3800,1405,-1900,3316,587,-959,3501,26,49,872
165709,647272,602872,654536,621768,3519,3800,1516,-1737,3446,840,-968,3397,26,60,871
166710,647488,603184,654733,621965,3462,3800,1667,-1597,3616,1060,-850,3162,26,60,871
167711,647672,603504,654930,622162,3669,3800,1792,-1560,3764,1615,-921,2764,52,72,875
168725,647804,603844,655127,622359,3800,3800,1902,-1603,3907,1776,-975,2421,52,72,875
169726,647888,604212,655324,622556,3800,3800,2029,-1856,4094,1972,-993,1872,41,62,874
170727,647940,604540,655521,622753,3800,3800,2168,-2157,4219,2584,-790,1737,41,62,874
171728,648000,604868,655718,622950,3800,3800,2293,-2379,4267,3136,-280,1965,24,63,871
172729,648056,605164,655915,623147,3800,3800,2393,-2464,4321,3621,29,2155,24,63,871
173730,648160,605548,656112,623344,3800,3800,2432,-2405,4352,3699,159,2618,29,65,872
174731,648284,605932,656309,623541,3800,3800,2436,-2133,4387,3277,160,3099,29,65,872
175732,648424,606316,656506,623738,3800,3800,2415,-1673,4458,3132,75,3712,36,67,871
176740,648620,606712,656736,623968,3800,3800,2373,-1050,4563,3250,-119,4168,36,67,871
177721,648880,607160,656933,624165,3558,3800,2274,-186,4646,3130,459,5241,41,79,873
178735,649068,607560,657130,624362,3800,3800,2133,997,4706,2828,755,5795,41,79,873
179736,649264,608040,657327,624559,3800,3800,2084,1999,4794,2353,510,4934,40,80,874
180737,649436,608520,657524,624756,3800,3800,2128,2881,4943,2027,431,4962,40,80,874
181738,649656,609052,657721,624953,3800,3800,2163,3883,5041,1891,908,5126,27,86,873
182726,649936,609592,657918,625150,3409,3800,2179,4904,4991,1840,1248,4674,27,86,873
183727,650240,610176,658115,625347,3214,3800,2184,5799,4860,1864,1475,4575,51,106,875
184728,650600,610752,658312,625544,2794,3800,2118,6948,4789,1831,1480,5689,51,106,875
185729,650976,611396,658509,625741,2617,3800,2069,8214,4863,1628,1345,5305,79,125,880
186717,651336,612128,658706,625938,2646,3286,2064,9148,4997,1382,1284,4209,79,125,880
187718,651712,612864,658903,626135,2470,3027,2093,9688,5022,1613,1758,3193,70,129,884
188719,652108,613616,659100,626332,2258,2686,2089,9913,4909,1987,2125,2322,70,129,884
189720,652508,614376,659297,626529,2146,2391,2089,9892,4748,1959,2210,1622,90,142,889
190721,652916,615164,659494,626726,2004,1958,2051,9845,4621,1939,2038,1756,90,142,889
191722,653348,615968,659691,626923,1752,1594,2011,9854,4537,1844,2038,1720,95,160,893
192723,653792,616824,659888,627120,1569,981,1921,9875,4456,1981,2173,1652,95,160,893
193724,654260,617692,660085,627317,1301,613,1756,10032,4338,2034,2193,1966,87,141,900
194725,654720,618324,660282,627514,1238,1899,1560,10006,4220,1856,1854,1408,87,141,900
195726,655192,619052,660479,627711,1043,1068,1412,9801,4129,1858,1586,884,104,155,905
196727,655728,619752,660676,627908,495,1024,1331,9534,4046,1899,1409,358,104,155,905
197728,656116,620568,660873,628105,1337,28,1281,9234,4017,1869,1086,278,96,159,904
198729,656560,621204,661070,628302,878,962,1211,9016,4013,1771,884,614,96,159,904
199731,657016,621864,661267,628499,691,609,1137,8969,4021,1515,577,805,78,130,909
200731,657440,622524,661464,628696,792,407,1052,9275,3953,1032,193,1655,78,130,909
201733,657880,623120,661661,628893,586,632,925,9811,3758,463,-381,2205,94,118,907
202733,658244,623696,661858,629090,989,592,668,10510,3535,343,-1207,2944,94,118,907
203734,658596,624264,662055,629287,996,481,343,11370,3367,605,-1385,3096,86,109,909
204735,658928,624724,662252,629484,1062,1040,58,12063,3238,798,-797,2419,86,109,909
205736,659292,625176,662449,629681,790,979,-172,12617,3085,1269,-304,2128,62,98,909
206737,659632,625544,662646,629878,877,1430,-380,12956,2890,1689,-20,1528,62,98,909
207738,659980,625872,662843,630075,762,1624,-554,13089,2588,1696,232,755,83,68,907
208739,660336,626272,663040,630272,642,1085,-630,12980,2113,1494,373,-312,83,68,907
209740,660748,626632,663237,630469,198,1265,-621,12529,1522,1091,88,-857,80,83,906
210741,661032,626952,663434,630666,960,1461,-657,12229,1012,849,-704,17,80,83,906
211742,661356,627216,663631,630863,655,1782,-786,12210,660,684,-2302,273,60,58,908
212743,661624,627528,663828,631060,974,1433,-980,12174,344,600,-2051,271,60,58,908
213744,661928,627816,664025,631257,703,1543,-1201,12233,-25,646,-1077,735,64,65,904
214745,662228,628096,664222,631454,683,1557,-1378,12136,-466,301,-602,67,64,65,904
215747,662500,628336,664419,631651,825,1789,-1452,11760,-962,44,-342,-861,49,48,905
216747,662784,628592,664616,631848,713,1663,-1470,11271,-1460,-809,-234,-781,49,48,905
217749,663036,628820,664813,632045,888,1826,-1434,10728,-1992,-1712,-315,-1029,38,49,905
218749,663264,629024,665010,632242,1025,1974,-1377,10254,-2552,-2151,-257,-827,38,49,905
219750,663516,629252,665207,632439,852,1810,-1322,9897,-2996,-2438,-473,-258,52,51,905
220751,663728,629476,665404,632636,1095,1824,-1298,9606,-3352,-2552,-790,-38,52,51,905
221753,663960,629648,665601,632833,955,2160,-1300,9266,-3659,-2805,-804,-11,59,40,902
222753,664184,629868,665798,633030,994,1851,-1273,8708,-3835,-2892,-1046,-470,59,40,902
223755,664388,630064,665995,633227,1116,2002,-1217,7844,-3935,-2514,-1550,-1289,54,42,901
224756,664600,630280,666192,633424,1059,1869,-1115,6609,-3949,-2260,-2157,-2091,54,42,901
225756,664784,630540,666389,633621,1241,1567,-979,5018,-3869,-2129,-2713,-2795,32,54,902
226757,664992,630764,666586,633818,1086,1781,-865,3152,-3740,-2033,-2756,-3183,32,54,902
227758,665220,630972,666783,634015,947,1877,-815,1279,-3571,-2117,-2368,-2896,37,41,902
228759,665404,631184,666980,634212,1229,1846,-818,-534,-3359,-2165,-2176,-2694,37,41,902
229760,665608,631388,667177,634409,1101,1893,-871,-2337,-3092,-2181,-2441,-2425,36,46,902
230761,665792,631600,667374,634606,1232,1837,-971,-4029,-2733,-2110,-2819,-1783,36,46,902
231762,666004,631804,667571,634803,1050,1884,-1094,-5596,-2301,-1931,-2913,-1315,40,40,901
232763,666176,632028,667768,635000,1312,1749,-1196,-7138,-1849,-1793,-3073,-999,40,40,901
233764,666376,632240,667965,635197,1136,1817,-1260,-8637,-1400,-1674,-3147,-660,49,53,901
234765,666548,632440,668162,635394,1322,1892,-1266,-10126,-984,-1431,-3140,-454,49,53,901
235766,666708,632612,668359,635591,1414,2079,48,-12723,-912,-407,-14152,1503,45,47,901
236767,666904,632820,668556,635788,1189,1849,3067,-16341,-1310,865,-21241,4347,45,47,901
237768,667076,633000,668753,635985,1350,2032,4275,-17306,-1267,404,-3368,3657,25,32,901
238769,667228,633196,668950,636182,1496,1933,3511,-17115,-890,708,-3170,5744,25,32,901
239770,667420,633380,669147,636379,1248,2014,2615,-15637,-440,974,-3043,7588,36,29,901
240771,667560,633564,669344,636576,1598,2020,709,-12962,253,1499,-4711,14964,36,29,901
241772,667736,633816,669541,636773,1384,1572,-1070,-10606,918,1065,-5417,8982,36,46,899
242773,667880,634004,669738,636970,1607,1976,-1789,-10337,1174,1033,-2030,4512,36,46,899
243774,668028,634164,669935,637167,1604,2168,-2634,-10053,1263,1031,-3037,7776,44,47,898
244775,668204,634316,670132,637364,1439,2239,-3938,-9525,1425,2104,-3592,6729,44,47,898
245776,668348,634524,670329,637561,1662,1884,-5134,-9454,1627,2488,-2042,4069,43,47,898
246778,668552,634700,670526,637758,1284,2094,-5914,-10309,1852,3554,-806,2202,43,47,898
247779,668740,634904,670723,637955,1389,1916,-6345,-11640,2039,4690,-652,945,34,46,897
248780,668900,635104,670920,638152,1580,1941,-5924,-13065,2205,5561,-541,2844,34,46,897
249781,669072,635292,671117,638349,1517,2021,-231,-4572,2041,15030,1036,32767,26,33,899
250782,669220,635492,671314,638546,1689,1945,6678,5327,1830,10600,-364,32767,26,33,899
251783,669388,635680,671511,638743,1576,2025,8955,5738,1966,4637,-971,-4275,34,38,899
252784,669536,635916,671708,638940,1724,1707,8101,1120,2196,4112,185,-4726,34,38,899
253785,669700,636092,671905,639137,1638,2093,6417,-3273,2349,4445,-899,-3270,41,32,898
254786,669856,636276,672102,639334,1708,2048,4934,-4752,2635,3764,-2746,842,41,32,898
255787,670024,636460,672299,639531,1645,2055,3859,-4847,2827,3135,1151,1311,30,40,900
256788,670192,636636,672496,639728,1658,2115,3366,-5549,2652,2635,1943,-1055,30,40,900
257789,670348,636848,672693,639925,1752,1884,3195,-7058,2554,1079,-850,-1662,40,38,897
258790,670504,637056,672890,640122,1770,1905,3060,-8376,2805,-351,-1667,-227,40,38,897
259800,670596,637240,673120,640352,2232,2075,2877,-8977,3241,-683,-2936,1146,19,38,897
260792,670716,637416,673317,640549,2091,2135,2759,-9171,3813,-1979,-3354,1192,19,38,897
261792,670844,637624,673514,640746,2072,1931,2653,-8992,4561,-3327,-3845,2899,34,47,898
262794,670956,637844,673711,640943,2209,1846,2413,-8066,5241,-3467,-3579,5297,34,47,898
263795,671052,638064,673908,641140,2355,1837,2177,-6624,5830,-4433,-3782,6760,36,44,895
264796,671180,638260,674105,641337,2185,1988,1921,-4663,6328,-5192,-2517,8492,36,44,895
265797,671284,638488,674302,641534,2377,1775,1814,-2840,6580,-5413,-1272,6285,31,38,896
266798,671376,638704,674499,641731,2498,1842,2020,-1941,6616,-6135,-728,3440,31,38,896
267799,671520,638928,674696,641928,2197,1781,2446,-1919,6599,-6174,-683,1714,21,47,893
268800,671672,639136,674893,642125,2168,1877,2880,-1868,6592,-5455,-561,2388,21,47,893
269801,671816,639372,675090,642322,2241,1685,3260,-1317,6668,-4795,-259,3627,35,53,893
270801,671972,639584,675287,642519,2185,1829,3518,-233,6769,-3645,331,4791,35,53,893
271803,672116,639820,675484,642716,2284,1662,3643,998,6853,-2230,794,5143,44,48,896
272804,672252,640096,675681,642913,2361,1378,3713,2150,7007,-1172,875,5362,44,48,896
273804,672404,640356,675878,643110,2282,1451,3726,3160,7142,-254,1246,4945,26,46,895
274805,672536,640644,676075,643307,2436,1237,3787,3819,7119,404,1800,3786,26,46,895
275806,672664,640868,676272,643504,2492,1625,3895,4150,6848,1118,2228,3150,22,56,897
276807,672792,641008,676469,643701,2523,2176,3942,4360,6420,2281,3087,3008,22,56,897
277808,672932,641112,676666,643898,2473,2442,3893,4480,5898,3304,4011,2589,32,28,897
278809,673044,641216,676863,644095,2687,2484,3783,4533,5333,4029,4426,2845,32,28,897
279811,673156,641368,677060,644292,2725,2204,3638,4699,4716,4825,4928,3343,32,25,891
280812,673288,641540,677257,644489,2630,2090,3428,4962,4037,5513,5259,3614,32,25,891
281813,673392,641712,677454,644686,2846,2102,3179,5214,3320,5744,5538,3541,38,44,889
282813,673504,641932,677651,644883,2834,1792,2884,5384,2563,5935,5944,3532,38,44,889
283815,673628,642184,677848,645080,2792,1569,2513,5541,1729,5996,6055,3568,20,43,891
284815,673732,642424,678045,645277,2959,1625,2112,5728,837,5845,6081,3900,20,43,891
285817,673852,642672,678242,645474,2894,1554,1718,5950,-72,5599,6085,4027,18,49,891
286817,674004,642960,678439,645671,2713,1264,1339,6155,-969,5161,5769,3692,18,49,891
287819,674124,643228,678636,645868,2948,1359,990,6253,-1791,4481,5128,3430,42,47,892
288820,674268,643480,678833,646065,2823,1434,679,6297,-2483,3814,4113,3479,42,47,892
289821,674408,643720,679030,646262,2874,1492,380,6354,-3044,3146,3031,3382,42,50,894
290822,674540,643988,679227,646459,2953,1285,98,6416,-3448,2527,2208,3412,42,50,894
291823,674656,644248,679424,646656,3090,1309,-188,6524,-3718,1972,1500,3687,21,66,893
292823,674780,644508,679621,646853,3073,1281,-466,6587,-3910,1284,1299,3241,21,66,893
293824,674924,644760,679818,647050,2972,1308,-713,6486,-4080,314,1346,2736,38,54,893
294825,675064,645032,680015,647247,3023,1150,-894,6335,-4203,-632,883,2504,38,54,893
295827,675216,645316,680212,647444,2968,1038,-1005,6026,-4245,-1478,322,2093,33,58,892
296828,675368,645620,680409,647641,2989,866,-1052,5758,-4189,-2159,112,2007,33,58,892
297829,675532,645880,680606,647838,2929,1113,-1050,5415,-4054,-2927,3,1801,25,64,893
298829,675684,646124,680803,648035,3025,1193,-1008,5099,-3869,-3642,-158,1786,25,64,893
299831,675860,646364,681000,648232,2885,1199,-955,4846,-3596,-4198,-525,1941,35,52,895
300831,676004,646620,681197,648429,3110,1074,-929,4694,-3226,-4625,-777,2243,35,52,895
301833,676176,646868,681394,648626,2947,1102,-952,4698,-2821,-5003,-748,2708,40,51,892
302833,676328,647120,681591,648823,3092,1053,-968,4719,-2405,-5375,-813,2525,40,51,892
303835,676476,647332,681788,649020,3140,1297,-957,4637,-1996,-5577,-982,2330,25,38,893
304836,676608,647516,681985,649217,3269,1478,-920,4474,-1616,-5614,-702,2261,25,38,893
305837,676744,647692,682182,649414,3272,1537,-870,4207,-1335,-5695,7,1926,27,34,893
306837,676868,647900,682379,649611,3380,1332,-826,3892,-1129,-5550,292,1888,27,34,893
307839,677000,648128,682576,649808,3360,1195,-822,3586,-911,-5213,207,2128,33,33,890
308839,677136,648292,682773,650005,3363,1609,-871,3327,-687,-4624,368,2272,33,33,890
309840,677248,648480,682970,650202,3552,1463,-956,3026,-491,-3853,957,2272,30,46,890
310841,677368,648644,683167,650399,3537,1629,-1047,2549,-319,-3059,1320,1934,30,46,890
311843,677500,648808,683364,650596,3491,1643,-1122,1957,-166,-2226,1740,1697,33,41,887
312844,677620,648968,683561,650793,3601,1685,-1195,1210,-99,-1651,2687,1309,33,41,887
313845,677784,649144,683758,650990,3342,1595,-1283,448,-167,-1048,3435,1678,25,32,885
314845,677948,649296,683955,651187,3357,1765,-1420,-150,-290,-95,3716,2198,25,32,885
315846,678108,649496,684152,651384,3400,1464,-1594,-653,-351,672,3603,2628,26,47,887
316847,678244,649668,684349,651581,3577,1650,-1814,-1027,-376,1179,3502,3149,26,47,887
317848,678396,649856,684546,651778,3499,1554,-2074,-1294,-459,1574,3578,3548,39,41,888
318849,678524,650036,684743,651975,3680,1613,-2383,-1418,-634,1832,3572,4293,39,41,888
319850,678644,650228,684940,652172,3765,1540,-2734,-1290,-859,1992,3251,5030,31,35,886
320852,678764,650380,685137,652369,3800,1810,-3078,-1061,-1118,2016,2886,5315,31,35,886
321865,678884,650560,685334,652566,3800,1643,-3369,-759,-1400,2067,2606,5622,31,32,885
322866,678996,650736,685531,652763,3800,1677,-3618,-446,-1685,2022,2152,5831,31,32,885
323867,679100,650932,685728,652960,3800,1553,-3835,-178,-1954,1974,1645,5702,31,43,882
324868,679224,651124,685925,653157,3800,1581,-4012,10,-2197,1969,1296,5437,31,43,882
325869,679352,651296,686122,653354,3800,1717,-4150,80,-2403,2068,1146,5222,28,37,884
326870,679468,651448,686319,653551,3800,1863,-4259,64,-2572,2239,1121,5004,28,37,884
327871,679616,651596,686516,653748,3800,1909,-4333,7,-2707,2258,1005,4880,36,31,884
328872,679768,651732,686713,653945,3800,2011,-4360,-139,-2818,2146,818,4658,36,31,884
329861,679936,651892,686910,654142,3776,1878,-4343,-437,-2906,2004,585,4235,34,37,883
330861,680168,652056,687107,654339,3362,1868,-4280,-805,-2961,1759,285,3998,34,37,883
331863,680364,652220,687304,654536,3588,1883,-4161,-1276,-2960,1461,-163,3806,53,41,883
332864,680568,652380,687501,654733,3537,1925,-4007,-1761,-2901,1225,-544,3749,53,41,883
333865,680800,652528,687698,654930,3348,2022,-3829,-2175,-2778,888,-822,3962,53,30,886
334865,680992,652688,687895,655127,3601,1963,-3621,-2576,-2629,365,-844,4175,53,30,886
335867,681192,652852,688092,655324,3552,1954,-3119,-2630,-2451,-188,-872,7437,34,45,885
336868,681388,652972,688289,655521,3578,2263,-1282,-692,-1911,-2257,-3379,28053,34,45,885
337868,681580,653084,688486,655718,3606,2350,1007,1732,-1255,-2150,-2806,22518,49,24,885
338869,681768,653216,688683,655915,3636,2255,2021,2103,-953,-796,-71,4478,49,24,885
339870,681952,653312,688880,656112,3669,2525,1996,1096,-882,-853,-143,2806,30,23,883
340871,682128,653428,689077,656309,3729,2436,1804,101,-781,-720,-716,3096,30,23,883
341872,682296,653544,689274,656506,3793,2472,1768,-334,-544,-875,-1218,3960,40,24,883
342880,682468,653648,689504,656736,3795,2603,1808,-454,-245,-928,-1505,3968,40,24,883
343874,682644,653724,689701,656933,3781,2832,1817,-556,-28,-977,-1627,3780,36,33,879
344876,682820,653812,689898,657130,3791,2805,1806,-844,87,-1305,-1546,3250,36,33,879
345877,683012,653892,690095,657327,3695,2907,1769,-1244,112,-1424,-1454,3237,42,30,877
346878,683212,653992,690292,657524,3645,2826,1726,-1573,63,-1417,-1183,3336,42,30,877
347879,683392,654096,690489,657721,3779,2842,1699,-1723,26,-1415,-1085,3650,25,33,877
348879,683588,654176,690686,657918,3681,3044,1641,-1728,13,-1169,-1141,4195,25,33,877
349881,683816,654260,690883,658115,3468,3070,1538,-1621,22,-882,-1409,4365,29,25,879
350881,684032,654352,691080,658312,3537,3066,1433,-1483,47,-790,-1623,4415,29,25,879
351883,684224,654440,691277,658509,3690,3140,1359,-1344,8,-659,-1714,4302,34,27,878
352884,684448,654548,691474,658706,3479,3055,1305,-1275,-114,-481,-1617,4111,34,27,878
353885,684636,654680,691671,658903,3710,2934,1260,-1221,-239,-217,-1247,4032,51,19,878
354886,684816,654796,691868,659100,3769,3071,1224,-1268,-332,255,-692,3667,51,19,878
355887,685040,654900,692065,659297,3483,3187,1191,-1305,-380,658,-600,3698,45,37,878
356888,685224,655020,692262,659494,3740,3122,1153,-1339,-372,903,-549,3735,45,37,878
357901,685384,655136,692459,659691,3800,3183,1111,-1351,-333,1262,-463,3565,48,34,875
358889,685608,655240,692656,659888,3497,3300,1046,-1408,-328,1518,-142,3316,48,34,875
359890,685796,655340,692853,660085,3728,3369,996,-1541,-378,1547,133,3013,45,23,876
360891,685988,655448,693050,660282,3706,3359,961,-1740,-491,1645,380,3021,45,23,876
361893,686176,655548,693247,660479,3736,3452,921,-1852,-633,1732,622,3295,50,17,877
362893,686388,655632,693444,660676,3581,3603,849,-1813,-746,1754,539,3718,50,17,877
363895,686604,655724,693641,660873,3549,3600,746,-1613,-807,1783,399,3987,47,35,875
364895,686824,655836,693838,661070,3515,3514,647,-1392,-832,1710,503,3997,47,35,875
365896,687032,655940,694035,661267,3587,3605,580,-1167,-870,1550,715,4026,37,18,874
366897,687224,656044,694232,661464,3690,3647,540,-893,-958,1300,787,3996,37,18,874
367898,687412,656152,694429,661661,3720,3662,523,-673,-1092,934,935,3791,53,18,874
368899,687612,656268,694626,661858,3646,3649,528,-521,-1239,674,892,3777,53,18,874
369900,687824,656392,694823,662055,3565,3632,530,-245,-1344,561,620,4057,51,35,872
370901,688024,656524,695020,662252,3640,3612,506,164,-1367,415,345,4219,51,35,872
371902,688228,656644,695217,662449,3614,3722,453,591,-1312,210,144,4296,37,22,873
372916,688400,656776,695414,662646,3800,3676,390,966,-1208,29,25,4140,37,22,873
373904,688584,656896,695611,662843,3758,3786,337,1286,-1095,-150,90,3895,42,39,874
374905,688764,657040,695808,663040,3792,3660,311,1486,-1026,-392,262,3509,42,39,874
375906,688972,657180,696005,663237,3613,3711,320,1543,-1017,-770,431,3055,33,27,871
376907,689168,657348,696202,663434,3690,3551,357,1527,-1021,-1084,413,2748,33,27,871
377909,689372,657544,696399,663631,3639,3377,394,1457,-1004,-1240,331,2557,29,37,871
378910,689572,657708,696596,663828,3663,3593,413,1374,-948,-1318,259,2685,29,37,871
379911,689772,657876,696793,664025,3663,3582,392,1370,-871,-1417,213,2800,30,33,872
380911,689992,658060,696990,664222,3530,3488,334,1345,-795,-1555,146,2803,30,33,872
381913,690192,658256,697187,664419,3654,3415,289,1208,-717,-1770,179,2387,42,44,873
382915,690440,658464,697384,664616,3333,3337,276,933,-656,-1930,398,1952,50,46,876
383915,690732,658684,697581,664813,3018,3253,277,648,-586,-2029,359,1995,50,46,876
384916,690960,658932,697778,665010,3406,3056,269,385,-474,-2125,298,2126,42,44,878
385917,691212,659156,697975,665207,3233,3196,242,57,-360,-2147,251,2112,42,44,878
386918,691468,659380,698172,665404,3184,3185,184,-159,-270,-2194,142,2268,41,57,880
387919,691736,659588,698369,665601,3078,3281,95,-419,-183,-2249,9,2235,41,57,880
388920,692008,659800,698566,665798,3021,3250,-31,-702,-96,-2101,51,2453,58,53,879
389921,692292,660080,698763,665995,2909,2791,-179,-913,7,-2067,127,2605,58,53,879
390921,692628,660344,698960,666192,2525,2862,-323,-1146,102,-2025,228,2528,68,70,882
391923,692936,660612,699157,666389,2652,2807,-469,-1379,157,-1953,276,2565,68,70,882
392923,693236,660872,699354,666586,2658,2831,-606,-1679,184,-2042,326,2656,50,57,888
393925,693588,661172,699551,666783,2266,2536,-756,-1935,190,-1999,340,2826,50,57,888
394926,693912,661484,699748,666980,2386,2412,-926,-2162,179,-1881,300,2822,71,67,887
395927,694236,661792,699945,667177,2331,2389,-1106,-2463,150,-1845,417,2816,71,67,887
396928,694596,662056,700142,667374,2037,2636,-1276,-2795,104,-1758,477,2718,63,68,891
397929,694916,662336,700339,667571,2234,2500,-1452,-3198,55,-1478,299,2652,63,68,891
398929,695224,662616,700536,667768,2261,2465,-1631,-3614,70,-1293,-149,2918,54,69,892
399931,695580,662896,700733,667965,1892,2429,-1789,-3994,138,-1177,67,2676,54,69,892
400932,695904,663196,700930,668162,2037,2260,-1924,-4479,217,-820,376,2438,65,53,891
401933,696224,663440,701127,668359,2009,2590,-2079,-4962,279,-525,353,2808,65,53,891
402934,696588,663700,701324,668556,1662,2463,-2217,-5447,366,-259,-8,2810,71,47,894
403934,696888,663952,701521,668753,2016,2490,-2311,-5961,488,-133,-167,2559,71,47,894
404935,697200,664208,701718,668950,1892,2440,-2349,-6521,625,-26,-116,2526,65,43,895
405936,697500,664452,701915,669147,1923,2496,-2346,-7059,760,141,-250,2784,65,43,895
406937,697792,664708,702112,669344,1932,2396,-2372,-7431,925,432,-674,3545,64,45,893
407938,698056,664924,702309,669541,2078,2638,-2436,-7564,1108,668,-773,4047,64,45,893
408939,698348,665156,702506,669738,1863,2523,-2481,-7663,1292,814,-843,3998,62,42,894
409940,698648,665388,702703,669935,1767,2509,-2497,-7723,1466,962,-834,4424,62,42,894
410942,698952,665608,702900,670132,1696,2575,-2481,-7697,1627,1048,-781,4606,54,54,892
411943,699244,665852,703097,670329,1731,2405,-2433,-7697,1758,1178,-630,4471,54,54,892
412943,699512,666084,703294,670526,1851,2466,-2382,-7625,1852,1258,-641,4873,55,42,894
413945,699832,666300,703491,670723,1471,2558,-2352,-7331,1936,1324,-662,5386,55,42,894
414945,700124,666492,703688,670920,1606,2711,-2304,-7030,2022,1522,-806,5258,72,51,894
415946,700444,666712,703885,671117,1378,2526,-2221,-6783,2120,1615,-1130,5305,72,51,894
416948,700740,666936,704082,671314,1484,2490,-2131,-6466,2220,1371,-1210,5491,53,43,894
417948,701060,667176,704279,671511,1281,2373,-2026,-6140,2296,1074,-1248,5558,53,43,894
418950,701380,667388,704476,671708,1228,2542,-1916,-5845,2369,923,-1517,5536,64,38,895
419950,701660,667588,704673,671905,1442,2617,-1817,-5452,2485,797,-1922,6082,64,38,895
420951,701924,667796,704870,672102,1513,2563,-1723,-4961,2651,846,-2168,6139,66,41,895
421952,702216,668000,705067,672299,1296,2585,-1291,-4367,2792,1366,-2161,8217,66,41,895
422953,702472,668228,705264,672496,1496,2422,21,-2042,2772,3398,-2106,24766,61,50,894
423955,702728,668460,705461,672693,1471,2383,1241,-432,2755,1925,-2051,9391,61,50,894
424956,702988,668712,705658,672890,1419,2235,1546,-436,2821,1503,-1946,3961,66,59,896
425963,703224,668940,705888,673120,1567,2386,1500,-1216,2931,1740,-1655,3127,66,59,896
426957,703432,669180,706085,673317,1737,2293,1371,-1776,3030,2084,-1483,3943,49,56,897
427959,703648,669428,706282,673514,1680,2221,1240,-1818,3120,2012,-2107,4363,49,56,897
428959,703876,669716,706479,673711,1591,1932,1130,-1967,3246,1981,-2693,3788,52,45,895
429960,704056,669964,706676,673908,1900,2161,1007,-2135,3305,2084,-2394,3810,52,45,895
430961,704252,670192,706873,674105,1800,2272,895,-2426,3264,1912,-2246,3582,42,45,898
431962,704404,670420,707070,674302,2096,2259,755,-2727,3205,2065,-2293,3605,42,45,898
432963,704560,670636,707267,674499,2089,2327,580,-2929,3162,2357,-2271,3792,34,60,894
433964,704708,670884,707464,674696,2162,2106,356,-3022,3119,2408,-2157,4173,34,60,894
434966,704856,671148,707661,674893,2183,1976,98,-2878,3058,2373,-2377,4733,36,59,893
435967,704984,671404,707858,675090,2339,2001,-125,-2708,2962,2117,-2511,4526,36,59,893
436967,705112,671648,708055,675287,2370,2057,-298,-2583,2821,1819,-2450,4751,22,38,895
437968,705248,671844,708252,675484,2348,2358,-429,-2329,2711,1645,-2760,5051,22,38,895
438969,705332,672080,708449,675681,2722,2091,-539,-2035,2685,1516,-3071,5091,30,57,892
439971,705408,672376,708646,675878,2826,1673,-641,-1693,2727,1477,-3092,5290,30,57,892
440971,705488,672640,708843,676075,2853,1845,-698,-1422,2741,1541,-2626,4924,10,49,890
441972,705520,672856,709040,676272,3226,2137,-717,-1228,2680,1796,-2153,4633,10,49,890
442974,705580,673052,709237,676469,3113,2263,-695,-1003,2601,2123,-1798,4737,15,39,889
443975,705644,673280,709434,676666,3146,2050,-654,-773,2563,2251,-1787,4913,15,39,889
444976,705708,673560,709631,676863,3205,1689,-618,-391,2571,2380,-1861,5281,20,41,885
445977,705784,673800,709828,677060,3185,1921,-579,101,2621,2596,-1647,5294,20,41,885
446978,705864,674044,710025,677257,3212,1875,-536,582,2687,2791,-1357,5175,8,39,887
447979,705960,674280,710222,677454,3157,1909,-472,905,2733,2759,-1036,4792,8,39,887
448979,706076,674496,710419,677651,3068,2027,-376,1152,2745,2525,-825,4594,18,51,887
449980,706272,674704,710616,677848,2569,2072,-272,1415,2726,2199,-784,4600,18,51,887
450981,706432,675008,710813,678045,2812,1426,-174,1696,2694,1712,-839,4590,48,60,888
451982,706596,675280,711010,678242,2802,1593,-81,2021,2668,1274,-947,4712,48,60,888
452983,706768,675540,711207,678439,2764,1641,6,2460,2669,932,-1030,4885,49,53,892
453984,706916,675788,711404,678636,2937,1695,90,2849,2667,769,-799,4763,49,53,892
454985,707056,676004,711601,678833,3012,1887,193,3137,2624,839,-347,4344,23,45,891
455987,707236,676328,711798,679030,2770,1157,308,3290,2541,888,-150,3822,23,45,891
456987,707400,676620,711995,679227,2886,1315,414,3444,2447,796,-289,3807,50,55,890
457988,707620,676912,712192,679424,2527,1274,489,3618,2383,543,-643,3829,50,55,890
458989,707876,677184,712389,679621,2277,1366,549,3777,2344,219,-706,3720,58,64,894
459991,708136,677500,712586,679818,2225,1040,589,3975,2249,-42,-477,3682,58,64,894
460991,708360,677824,712783,680015,2439,934,695,4085,2094,-632,-256,3082,44,56,897
461992,708600,678180,712980,680212,2320,664,839,4002,1893,-987,-212,2693,44,56,897
462993,708896,678484,713177,680409,1928,943,1002,3934,1698,-1027,-269,2670,68,57,899
463995,709180,678740,713374,680606,1966,1218,1128,3917,1570,-1026,-513,2667,68,57,899
464995,709472,679060,713571,680803,1875,764,1245,3929,1513,-1132,-853,2545,72,52,900
465996,709764,679384,713768,681000,1834,684,1337,3828,1504,-1504,-1150,2294,72,52,900
466997,710032,679696,713965,681197,1953,708,1419,3722,1531,-1623,-1282,2366,57,64,901
467999,710332,679992,714162,681394,1709,765,1500,3630,1589,-1334,-1388,2020,57,64,901
468999,710636,680212,714359,681591,1638,1231,1600,3462,1657,-1162,-1532,1667,72,50,902
470000,710936,680500,714556,681788,1618,766,1738,3177,1763,-1131,-1882,1388,72,50,902
471001,711220,680812,714753,681985,1680,565,1896,2881,1896,-1204,-1984,1248,54,58,902
472002,711556,681052,714950,682182,1295,996,2048,2611,2046,-1140,-1966,1212,54,58,902
473003,711856,681336,715147,682379,1476,684,2171,2420,2201,-711,-1830,1403,62,50,905
474004,712156,681644,715344,682576,1430,485,2280,2270,2339,-429,-1717,1336,62,50,905
475005,712472,681964,715541,682773,1279,356,2370,2095,2469,-269,-1733,1434,56,46,905
476007,712728,682216,715738,682970,1628,757,2429,2051,2578,-335,-1653,1781,56,46,905
477007,713044,682412,715935,683167,1202,1107,2453,2068,2634,-348,-1463,1871,70,46,906
478009,713348,682632,716132,683364,1231,947,2450,2151,2620,-38,-1363,1726,70,46,906
479009,713588,682868,716329,683561,1612,831,2436,2233,2561,210,-1365,1771,58,41,904
480011,713832,683084,716526,683758,1567,948,2397,2381,2489,319,-1378,2156,58,41,904
481012,714064,683348,716723,683955,1627,618,2319,2657,2400,442,-1177,2364,57,50,904
482012,714312,683596,716920,684152,1506,696,2214,2969,2324,744,-1077,2345,57,50,904
483013,714572,683796,717117,684349,1403,995,2085,3310,2264,1239,-904,2422,62,56,904
484015,714824,684084,717314,684546,1430,405,1940,3648,2182,1497,-934,2298,62,56,904
485015,715040,684300,717511,684743,1646,846,1807,3889,2073,1465,-1116,2102,46,43,904
486016,715280,684532,717708,684940,1478,731,1690,3993,1909,1335,-984,1531,46,43,904
487017,715492,684808,717905,685137,1647,421,1569,4035,1692,1590,-802,1299,58,53,903
488019,715752,684980,718102,685334,1319,1082,1416,4038,1459,1820,-666,1362,58,53,903
489019,716024,685192,718299,685531,1212,826,1266,4022,1245,1832,-667,1202,42,47,904
490021,716300,685428,718496,685728,1153,659,1130,4021,1052,1833,-871,1159,42,47,904
491021,716576,685660,718693,685925,1119,669,1004,4066,878,1559,-995,1327,45,55,906
492023,716780,685884,718890,686122,1566,707,831,4199,669,1168,-1098,1731,45,55,906
493023,717008,686048,719087,686319,1403,1097,601,4363,410,883,-1226,1605,43,54,907
494024,717288,686148,719284,686516,1042,1539,357,4459,115,638,-900,1451,43,54,907
495025,717580,686388,719481,686713,925,645,107,4520,-234,348,-477,1512,64,49,903
496026,717800,686640,719678,686910,1366,546,-109,4545,-653,-350,-557,1363,64,49,903
497027,718060,686848,719875,687107,1088,816,-282,4610,-1062,-1170,-1104,1411,57,52,907
498028,718296,687016,720072,687304,1221,1079,-398,4660,-1391,-1440,-1785,1456,57,52,907
499029,718552,687220,720269,687501,1071,851,-538,4648,-1647,-1432,-2101,1484,50,44,906
500030,718800,687452,720466,687698,1099,661,-662,4531,-1924,-1768,-1642,1166,50,44,906
501031,719012,687672,720663,687895,1317,725,-802,4241,-2261,-2063,-1320,1051,38,38,906
502032,719224,687836,720860,688092,1311,1090,-947,3952,-2600,-1995,-1264,1056,38,38,906
503033,719436,688008,721057,688289,1305,1051,-1106,3583,-2914,-1901,-934,860,35,37,905
504034,719660,688156,721254,688486,1218,1223,-1260,3113,-3192,-1972,-1158,738,35,37,905
505035,719884,688308,721451,688683,1207,1217,-1438,2534,-3396,-2058,-1571,718,39,24,904
506036,720100,688440,721648,688880,1249,1371,-1603,1962,-3476,-2075,-1987,763,39,24,904
507037,720288,688544,721845,689077,1428,1588,-1763,1244,-3440,-2179,-2430,598,37,21,903
508038,720424,688644,722042,689274,1780,1655,-1892,382,-3329,-2087,-2642,237,37,21,903
509047,720628,688800,722272,689504,1367,1338,-2002,-658,-3177,-1762,-2415,-37,37,24,900
510041,720800,688964,722469,689701,1578,1302,-2110,-1799,-3017,-1343,-2210,-251,37,24,900
511042,721020,689140,722666,689898,1268,1237,-2254,-2919,-2855,-895,-1993,195,51,28,901
512043,721196,689288,722863,690095,1553,1433,-2470,-3895,-2702,-620,-1553,918,51,28,901
513044,721404,689440,723060,690292,1348,1428,-3053,-4300,-2468,-602,-2280,3409,46,24,903
514045,721596,689580,723257,690489,1450,1528,-3663,-4592,-2164,-734,-2204,2513,46,24,903
515046,721764,689696,723454,690686,1614,1715,-3897,-5321,-1969,-713,-934,1676,24,34,902
516046,721936,689828,723651,690883,1600,1643,-3897,-6277,-1870,-425,-480,2097,24,34,902
517048,722084,689948,723848,691080,1772,1752,-3831,-7183,-1822,119,-93,2416,40,19,899
518048,722248,690076,724045,691277,1687,1732,-3983,-7547,-1646,625,-1220,4371,40,19,899
519049,722504,690208,724242,691474,1086,1736,-4609,-7066,-1307,578,-2721,7052,33,38,898
520051,722704,690372,724439,691671,1435,1551,-5184,-6696,-1097,467,-1518,5422,33,38,898
521052,722904,690544,724636,691868,1435,1512,-5277,-6979,-1081,864,-7,3996,30,26,900
522053,723120,690680,724833,692065,1326,1764,-4190,-6407,-1035,2770,-358,10375,30,26,900
523053,723280,690832,725030,692262,1693,1684,381,2778,-1421,11944,629,32767,46,30,901
524055,723472,690960,725227,692459,1496,1865,4465,9842,-1600,5155,-1561,15946,46,30,901
525056,723684,691088,725424,692656,1364,1896,4867,9994,-1486,2286,-301,2404,45,34,899
526057,723920,691228,725621,692853,1197,1846,3939,6628,-1416,2546,403,-1010,45,34,899
527057,724116,691348,725818,693050,1448,2005,3041,3197,-1284,3202,-1191,-899,51,25,899
528059,724364,691484,726015,693247,1101,1932,2559,1553,-1043,2750,-1563,394,51,25,899
529060,724632,691628,726212,693444,945,1906,2102,301,-890,2787,-263,383,36,31,899
530061,724836,691808,726409,693641,1343,1689,1436,-580,-914,3150,-58,1544,36,31,899
531062,725144,691996,726606,693838,644,1643,871,-1838,-875,2344,-359,349,37,37,900
532062,725376,692152,726803,694035,1104,1861,428,-3264,-794,1986,-523,887,37,37,900
533064,725636,692316,727000,694232,901,1826,-7,-4245,-738,1608,-1127,1852,39,33,901
534065,725892,692448,727197,694429,901,2055,-311,-5188,-597,481,-1506,1514,39,33,901
535066,726160,692584,727394,694626,795,2057,-433,-5948,-447,9,-1637,1681,45,32,901
536067,726372,692716,727591,694823,1138,2111,-346,-6799,-337,-602,-1715,1608,45,32,901
537067,726672,692872,727788,695020,543,1979,-255,-7208,-222,-1188,-1757,3993,39,33,901
538068,726968,693044,727985,695217,525,1891,-264,-6701,-106,-1196,-1772,6012,39,33,901
539069,727284,693208,728182,695414,348,1956,-260,-5911,34,-1427,-1765,6172,42,25,901
540070,727492,693372,728379,695611,1018,1970,-207,-4914,146,-1589,-1133,6934,42,25,901
541071,727704,693528,728576,695808,987,2039,-95,-3971,156,-1713,-678,6544,45,38,903
542073,727836,693684,728773,696005,1515,2057,51,-3152,66,-1888,-278,6357,45,38,903
543073,728060,693828,728970,696202,928,2157,192,-2266,-33,-1681,59,6561,45,35,899
544075,728300,694004,729167,696399,811,1966,349,-1491,-77,-1212,238,5697,45,35,899
545076,728508,694156,729364,696596,1006,2137,501,-813,-96,-669,396,5544,53,44,899
546077,728700,694316,729561,696793,1108,2103,611,-345,-141,-23,524,4957,53,44,899
547077,728924,694464,729758,696990,896,2201,697,-94,-218,724,461,4230,40,39,898
548078,729092,694608,729955,697187,1259,2249,758,-36,-312,1172,361,3199,40,39,898
549079,729268,694748,730152,697384,1218,2300,823,-373,-391,1697,303,2090,42,21,899
550080,729456,694920,730349,697581,1148,2111,824,-850,-440,2459,419,1783,42,21,899
551081,729604,695060,730546,697778,1419,2337,766,-1405,-454,2859,545,1348,38,37,897
552083,729776,695232,730743,697975,1280,2148,669,-2015,-449,3235,627,1072,38,37,897
553083,729940,695404,730940,698172,1345,2160,534,-2638,-474,3644,893,1086,44,45,896
554085,730108,695544,731137,698369,1333,2385,367,-3192,-552,3778,1200,1210,44,45,896
555085,730252,695720,731334,698566,1507,2170,174,-3599,-681,3899,1160,1645,29,34,897
556087,730416,695888,731531,698763,1396,2233,-17,-3909,-815,3894,768,1752,29,34,897
557087,730552,696060,731728,698960,1598,2220,-202,-4097,-915,3623,316,2378,32,28,897
558089,730720,696208,731925,699157,1411,2391,-407,-4008,-979,3404,-200,3265,32,28,897
559089,730868,696384,732122,699354,1558,2227,-612,-3713,-1024,3262,-607,3805,37,40,896
560090,731012,696600,732319,699551,1607,1968,-806,-3166,-1056,3078,-887,4602,37,40,896
561091,731176,696792,732516,699748,1496,2122,-963,-2426,-1061,2918,-1115,5173,26,45,896
562092,731328,696940,732713,699945,1591,2419,-1087,-1635,-1067,2667,-1189,5496,26,45,896
563093,731492,697084,732910,700142,1531,2467,-1162,-850,-1097,2387,-1097,5503,24,32,897
564094,731632,697272,733107,700339,1707,2197,-1186,-208,-1148,2249,-932,5281,24,32,897
565095,731800,697452,733304,700536,1544,2255,-1174,363,-1195,2222,-877,5072,22,46,893
566096,731956,697636,733501,700733,1637,2236,-1128,865,-1195,2080,-936,4802,22,46,893
567097,732120,697816,733698,700930,1603,2269,-1053,1338,-1141,1979,-1007,4747,33,37,895
568099,732272,698016,733895,701127,1698,2144,-970,1723,-1052,1905,-1063,4474,33,37,895
569099,732456,698172,734092,701324,1503,2438,-873,2044,-928,1701,-1052,4263,28,48,895
570101,732624,698364,734289,701521,1616,2215,-765,2260,-780,1421,-1012,4008,28,48,895
571101,732800,698548,734486,701718,1576,2272,-654,2406,-618,1239,-983,3682,42,47,895
572102,732960,698760,734683,701915,1693,2090,-538,2460,-451,997,-933,3388,42,47,895
573103,733124,698936,734880,702112,1682,2325,-432,2467,-279,768,-874,3145,41,41,895
574105,733296,699120,735077,702309,1644,2282,-358,2401,-101,567,-979,3080,41,41,895
575106,733464,699308,735274,702506,1682,2261,-327,2423,95,322,-1185,3241,29,50,894
576107,733632,699540,735471,702703,1695,1971,-132,2790,353,-158,-1746,5876,29,50,894
577108,733780,699744,735668,702900,1842,2144,592,4453,764,-1112,-2995,16483,34,44,894
578109,733960,699924,735865,703097,1650,2302,1184,5509,1094,-1060,-1932,5903,34,44,894
579110,734144,700120,736062,703294,1630,2203,1294,5421,1276,-1188,-1390,2451,42,49,896
580111,734316,700312,736259,703491,1717,2231,1172,4877,1409,-1279,-1358,2248,42,49,896
581112,734484,700528,736456,703688,1755,2073,1090,4545,1592,-1430,-1686,2924,31,37,895
582112,734632,700728,736653,703885,1903,2173,1066,4477,1869,-1634,-1953,3244,31,37,895
583113,734784,700900,736850,704082,1897,2359,1102,4495,2212,-1676,-2049,3320,42,34,895
584115,734972,701100,737047,704279,1676,2184,1167,4544,2546,-1806,-1931,3529,42,34,895
585115,735132,701308,737244,704476,1869,2129,1279,4426,2841,-2115,-1801,3315,40,33,894
586116,735304,701480,737441,704673,1805,2366,1448,4278,3081,-2136,-1516,3418,40,33,894
587117,735464,701656,737638,704870,1897,2351,1630,4158,3281,-2127,-1164,3667,34,45,894
588118,735664,701884,737835,705067,1646,2012,1825,4105,3478,-2049,-1052,4033,34,45,894
589119,735816,702096,738032,705264,1965,2107,2000,4157,3689,-1903,-1047,4512,34,51,893
590120,735956,702284,738229,705461,2066,2261,2176,4299,3918,-1839,-1024,4825,34,51,893
591121,736108,702520,738426,705658,2011,1945,2345,4504,4142,-1686,-979,5136,30,46,895
592132,736224,702728,738656,705888,2287,2130,2524,4730,4340,-1527,-786,5034,30,46,895
593124,736344,702924,738853,706085,2296,2206,2721,4798,4498,-1451,-583,4798,18,48,894
594124,736476,703184,739050,706282,2251,1779,2914,4784,4625,-1306,-387,4666,18,48,894
595125,736596,703392,739247,706479,2359,2099,3078,4639,4735,-1031,-286,4234,22,46,892
596126,736728,703596,739444,706676,2314,2122,3201,4456,4817,-764,208,4250,22,46,892
597127,736844,703784,739641,706873,2450,2227,3280,4253,4825,-600,640,4074,40,44,892
598128,736940,704028,739838,707070,2620,1856,3380,3954,4756,-404,745,3733,40,44,892
599129,737092,704284,740035,707267,2290,1756,3446,3653,4613,-213,1093,3941,45,39,890
600131,737276,704520,740232,707464,2097,1864,3488,3391,4430,-192,1344,4046,45,39,890
601131,737408,704736,740429,707661,2450,1982,3499,2835,3974,-17,1339,3937,43,54,893
602132,737544,704948,740626,707858,2453,2000,3490,2540,3768,39,1412,4054,43,54,893
603133,737676,705160,740823,708055,2507,1995,3463,2335,3569,-2,1346,4250,21,39,893
604134,737804,705376,741020,708252,2563,1961,3394,2176,3264,-393,1597,4384,21,39,893
605135,737932,705648,741217,708449,2594,1579,3291,1995,2852,-625,1995,4352,36,54,892
606136,738048,705896,741414,708646,2705,1708,3154,1858,2374,-755,2182,4472,36,54,892
607137,738172,706116,741611,708843,2688,1873,2924,1838,1795,-1017,2362,5092,22,52,893
608139,738272,706364,741808,709040,2881,1676,2611,2026,1244,-1028,2180,5723,22,52,893
609140,738392,706496,742005,709237,2790,2430,2255,2229,830,-757,1987,5418,24,45,890
610140,738512,706624,742202,709434,2825,2486,1876,2379,479,-906,1901,5228,24,45,890
611141,738624,706744,742399,709631,2913,2570,1493,2397,97,-1305,1890,4879,34,33,887
612142,738720,706900,742596,709828,3058,2364,1155,2150,-335,-1408,2002,3956,34,33,887
613143,738828,707056,742793,710025,3023,2382,863,1692,-749,-1260,2107,3308,36,45,884
614144,738936,707276,742990,710222,3063,1973,589,1114,-1058,-1269,2157,3038,36,45,884
615145,739016,707512,743187,710419,3290,1856,290,576,-1261,-1051,2155,3234,33,44,885
616147,739116,707800,743384,710616,3208,1492,22,0,-1372,-855,1944,2799,33,44,885
617147,739228,708024,743581,710813,3171,1880,-161,-563,-1352,-600,1189,2798,35,59,886
618148,739324,708308,743778,711010,3317,1468,-334,-1165,-1219,-495,848,2772,35,59,886
619149,739480,708624,743975,711207,2961,1217,-492,-1896,-1026,-608,861,2441,37,54,888
620151,739612,708908,744172,711404,3140,1378,-621,-2582,-829,-783,896,2555,37,54,888
621151,739748,709204,744369,711601,3143,1260,-710,-3135,-629,-884,618,2781,32,54,890
622152,739888,709488,744566,711798,3144,1298,-786,-3507,-405,-1084,516,3465,32,54,890
623153,740044,709756,744763,711995,3062,1366,-881,-3586,-169,-1254,591,4081,24,53,891
624155,740176,710052,744960,712192,3242,1149,-971,-3519,34,-1278,632,4471,24,53,891
625156,740316,710324,745157,712389,3218,1266,-1039,-3267,183,-1458,652,4829,24,52,891
626156,740472,710628,745354,712586,3137,1020,-1070,-2936,287,-1742,645,5076,24,52,891
627157,740612,710948,745551,712783,3263,866,-1078,-2491,361,-1764,689,5443,37,61,890
628158,740792,711268,745748,712980,3021,812,-1069,-1901,420,-1618,652,5922,37,61,890
629159,740956,711560,745945,713177,3137,946,-1038,-1179,465,-1527,574,6165,47,65,891
630160,741124,711784,746142,713374,3126,1359,-1001,-370,486,-1263,545,6395,47,65,891
631161,741292,712052,746339,713571,3139,1053,-963,465,504,-777,771,6497,39,68,891
632162,741468,712364,746536,713768,3100,728,-906,1180,517,-49,1150,6102,39,68,891
633163,741644,712636,746733,713965,3110,946,-813,1748,490,461,1387,5501,51,51,888
634164,741804,712852,746930,714162,3227,1287,-697,2062,415,689,1339,4770,51,51,888
635165,741996,713056,747127,714359,3030,1359,-597,2224,294,1106,1419,4484,28,45,893
636166,742140,713240,747324,714556,3355,1491,-524,2346,158,1602,1553,4202,28,45,893
637167,742288,713452,747521,714753,3352,1309,-469,2448,36,2036,1619,4021,37,37,890
638168,742464,713680,747718,714950,3187,1196,-422,2507,-82,2307,1446,3820,37,37,890
639169,742604,713868,747915,715147,3438,1450,-392,2463,-244,2464,1424,3684,44,47,888
640171,742748,714044,748112,715344,3438,1535,-375,2413,-436,2628,1299,3633,44,47,888
641172,742892,714216,748309,715541,3462,1571,-382,2309,-641,2719,1148,3428,22,46,890
642173,743016,714372,748506,715738,3620,1689,-438,2258,-842,2690,841,3595,22,46,890
643173,743180,714548,748703,715935,3386,1573,-551,2354,-1041,2563,739,3959,36,43,886
644175,743364,714708,748900,716132,3267,1690,-693,2487,-1238,2409,740,4057,36,43,886
645176,743536,714872,749097,716329,3354,1680,-837,2617,-1432,2263,713,4038,44,40,883
646176,743704,715064,749294,716526,3393,1507,-970,2732,-1627,1994,631,3980,44,40,883
647177,743848,715244,749491,716723,3567,1589,-1084,2842,-1826,1684,285,3901,45,32,887
648179,744012,715416,749688,716920,3458,1651,-1151,2907,-2000,1478,-173,3524,45,32,887
649179,744136,715600,749885,717117,3741,1582,-1171,2855,-2144,1213,-338,3334,36,37,887
650180,744260,715764,750082,717314,3774,1722,-1168,2804,-2268,874,-226,3318,36,37,887
651181,744396,715908,750279,717511,3727,1871,-1166,2741,-2369,477,-327,3399,35,43,886
652195,744516,716068,750476,717708,3800,1787,-1151,2723,-2418,99,-826,3472,35,43,886
653196,744632,716216,750673,717905,3800,1884,-1101,2690,-2429,-377,-1231,3338,19,40,882
654197,744760,716404,750870,718102,3800,1638,-1007,2541,-2442,-733,-1325,3013,19,40,882
655198,744868,716568,751067,718299,3800,1803,-899,2413,-2494,-1074,-1213,2981,36,44,881
656199,744988,716752,751264,718496,3800,1684,-794,2210,-2567,-1349,-1016,2903,36,44,881
657200,745112,716900,751461,718693,3800,1930,-697,1995,-2619,-1441,-791,3062,26,27,883
658201,745252,717052,751658,718890,3800,1926,-617,1835,-2629,-1567,-689,3293,26,27,883
659202,745384,717196,751855,719087,3800,2000,-553,1761,-2619,-1764,-703,3551,39,35,883
660203,745524,717344,752052,719284,3800,1997,-503,1713,-2585,-1807,-764,3634,39,35,883
661204,745672,717492,752249,719481,3800,2019,-438,1597,-2525,-1933,-863,3417,43,40,882
662205,745820,717652,752446,719678,3800,1960,-356,1387,-2445,-1863,-960,3387,43,40,882
663206,745972,717812,752643,719875,3800,1977,-292,1115,-2343,-1569,-609,3255,40,44,882
664207,746100,717956,752840,720072,3800,2100,-262,757,-2253,-1319,27,3217,40,44,882
665208,746240,718124,753037,720269,3800,1963,-247,434,-2157,-1039,288,3455,39,33,880
666209,746392,718248,753234,720466,3800,2271,-238,212,-2037,-821,358,3604,39,33,880
667210,746548,718384,753431,720663,3800,2223,-230,3,-1873,-596,438,3588,42,22,881
668211,746712,718488,753628,720860,3800,2465,-217,-280,-1717,-277,627,3467,42,22,881
669212,746892,718572,753825,721057,3800,2640,-205,-628,-1586,124,790,3427,23,19,880
670213,747048,718692,754022,721254,3800,2449,-205,-962,-1462,378,905,3555,23,19,880
671214,747208,718820,754219,721451,3800,2430,-233,-1225,-1330,542,875,3913,39,30,877
672215,747384,718932,754416,721648,3800,2568,-282,-1296,-1182,563,745,4450,39,30,877
673216,747556,719048,754613,721845,3800,2579,-341,-1189,-1027,556,563,4889,47,24,877
674217,747720,719144,754810,722042,3800,2749,-407,-1025,-911,728,379,5033,47,24,877
675225,747920,719236,755040,722272,3800,2835,-487,-854,-840,906,340,5088,47,29,877
676219,748084,719336,755237,722469,3800,2828,-567,-673,-768,1074,211,5176,47,29,877
677220,748252,719420,755434,722666,3800,2978,-636,-496,-689,1204,127,5240,40,25,876
678221,748436,719500,755631,722863,3800,3055,-685,-283,-618,1090,121,5230,40,25,876
679222,748612,719568,755828,723060,3800,3188,-736,-100,-559,868,35,5255,31,30,875
680223,748784,719648,756025,723257,3800,3164,-783,102,-511,764,-177,5196,31,30,875
681224,748956,719704,756222,723454,3800,3377,-807,239,-440,682,-432,5008,42,17,875
682225,749152,719788,756419,723651,3800,3253,-800,326,-363,579,-571,4759,42,17,875
683226,749340,719864,756616,723848,3800,3356,-763,263,-316,398,-518,4328,52,31,874
684227,749504,719956,756813,724045,3800,3303,-684,75,-311,137,-452,3907,52,31,874
685228,749708,720060,757010,724242,3800,3270,-573,-170,-352,-111,-265,3652,51,17,874
686229,749876,720172,757207,724439,3800,3259,-439,-427,-431,-345,-85,3521,51,17,874
687230,750052,720292,757404,724636,3800,3243,-296,-701,-523,-474,-94,3554,42,23,873
688231,750248,720384,757601,724833,3800,3465,-165,-866,-596,-527,-321,3786,42,23,873
689232,750440,720492,757798,725030,3800,3405,-42,-1014,-652,-562,-451,3782,34,30,873
690233,750620,720600,757995,725227,3800,3445,68,-1181,-688,-585,-444,3787,34,30,873
691234,750840,720692,758192,725424,3800,3592,160,-1307,-689,-619,-605,3909,32,17,870
692235,751044,720772,758389,725621,3800,3719,224,-1356,-665,-622,-646,4111,32,17,870
693236,751248,720868,758586,725818,3800,3665,247,-1248,-619,-622,-772,4509,44,29,872
694237,751460,720972,758783,726015,3800,3657,249,-1057,-559,-670,-778,4691,44,29,872
695238,751692,721068,758980,726212,3800,3752,250,-814,-512,-689,-607,4824,39,19,871
696226,751924,721196,759177,726409,3789,3583,259,-618,-501,-760,-223,4786,39,19,871
697227,752208,721328,759374,726606,3427,3588,289,-491,-524,-797,158,4528,48,39,870
698228,752432,721476,759571,726803,3792,3510,343,-486,-561,-671,280,4186,48,39,870
699242,752652,721620,759768,727000,3800,3560,404,-498,-592,-676,170,4091,42,28,869
700230,752876,721764,759965,727197,3772,3584,481,-520,-611,-802,35,3833,42,28,869
701231,753096,721884,760162,727394,3789,3769,549,-644,-636,-909,-132,3804,38,32,873
702245,753308,722048,760359,727591,3800,3509,610,-733,-669,-987,-168,3996,38,32,873
703233,753540,722200,760556,727788,3694,3605,665,-780,-685,-920,-78,3961,41,37,872
704247,753752,722364,760753,727985,3800,3546,702,-790,-698,-765,93,4103,41,37,872
705236,753972,722500,760950,728182,3755,3748,720,-787,-709,-529,323,4120,52,45,872
706237,754232,722672,761147,728379,3478,3535,726,-806,-712,-245,660,3923,52,45,872
707238,754504,722848,761344,728576,3372,3521,718,-920,-740,138,1120,3715,48,51,872
708238,754776,723044,761541,728773,3340,3397,706,-1154,-742,422,1331,3648,48,51,872
709240,755044,723256,761738,728970,3335,3292,655,-1355,-659,651,467,4120,43,44,874
710240,755312,723444,761935,729167,3305,3446,529,-1261,-532,735,-349,4648,43,44,874
711241,755580,723656,762132,729364,3276,3292,399,-1129,-435,403,32,4368,68,48,877
712243,755832,723860,762329,729561,3353,3340,310,-1292,-392,695,240,3835,68,48,877
713244,756132,724100,762526,729758,3008,3097,194,-1432,-386,905,169,3874,49,45,878
714245,756408,724352,762723,729955,3125,2999,91,-1692,-372,577,489,3492,49,45,878
715245,756656,724620,762920,730152,3279,2869,2,-1948,-399,655,611,3719,45,44,878
716246,756928,724832,763117,730349,3097,3213,-129,-2100,-434,833,296,3908,45,44,878
717247,757212,725056,763314,730546,2985,3127,-239,-2371,-429,655,116,3625,48,53,882
718248,757488,725276,763511,730743,3001,3143,-344,-2624,-457,531,-16,3556,48,53,882
719249,757792,725512,763708,730940,2780,3027,-414,-2945,-524,405,-64,3296,69,48,880
720250,758104,725824,763905,731137,2681,2502,-482,-3257,-580,344,98,3538,69,48,880
721251,758436,726092,764102,731334,2498,2747,-554,-3538,-613,481,3,3548,52,55,881
722252,758812,726356,764299,731531,2146,2744,-617,-3857,-593,264,-166,3352,52,55,881
723253,759144,726660,764496,731728,2362,2448,-678,-4052,-554,14,-299,3838,72,59,889
724254,759500,726948,764693,731925,2144,2509,-751,-4238,-528,-96,-569,3778,72,59,889
725255,759888,727228,764890,732122,1861,2523,-824,-4379,-493,-368,-849,3970,60,61,890
726256,760200,727548,765087,732319,2286,2220,-889,-4465,-426,-599,-818,4020,60,61,890
727257,760556,727828,765284,732516,1942,2435,-944,-4602,-333,-632,-779,3991,67,53,892
728258,760944,728108,765481,732713,1658,2399,-993,-4625,-205,-604,-661,4253,67,53,892
729259,761288,728388,765678,732910,1870,2364,-1025,-4583,-53,-730,-423,4250,76,61,893
730260,761596,728648,765875,733107,2047,2461,-1028,-4645,103,-774,-542,3857,76,61,893
731261,761912,728928,766072,733304,1946,2301,-1009,-4746,288,-731,-702,3973,52,65,894
732262,762252,729180,766269,733501,1734,2452,-968,-4759,510,-872,-710,4077,52,65,894
733263,762588,729424,766466,733698,1699,2483,-856,-4913,713,-1135,-649,3484,70,49,892
734264,762864,729676,766663,733895,2039,2410,-659,-5185,871,-1294,-506,3205,70,49,892
735265,763184,729916,766860,734092,1711,2467,-429,-5369,1035,-1298,-571,3506,56,52,894
736266,763476,730128,767057,734289,1845,2635,-239,-5339,1217,-1201,-814,3989,56,52,894
737267,763748,730376,767254,734486,1937,2389,-79,-5260,1396,-1175,-775,4043,69,44,892
738268,764056,730564,767451,734683,1664,2769,71,-5145,1581,-1144,-855,4357,69,44,892
739269,764328,730772,767648,734880,1857,2640,191,-4862,1783,-906,-925,4817,68,40,892
740270,764588,730984,767845,735077,1905,2609,282,-4496,1971,-743,-742,4933,68,40,892
741271,764876,731180,768042,735274,1691,2710,354,-4070,2126,-619,-581,5137,52,47,891
742272,765152,731396,768239,735471,1732,2577,398,-3565,2245,-342,-401,5279,52,47,891
743273,765416,731596,768436,735668,1778,2677,429,-3169,2346,-25,-267,4916,59,52,890
744274,765744,731796,768633,735865,1321,2677,436,-2817,2430,291,-251,4856,59,52,890
745275,766004,731996,768830,736062,1718,2675,418,-2520,2517,455,-503,4732,45,39,892
746277,766272,732208,769027,736259,1638,2595,437,-2380,2600,503,-662,4127,45,39,892
747277,766576,732448,769224,736456,1366,2402,522,-2381,2647,550,-528,3618,48,54,894
748279,766852,732684,769421,736653,1507,2411,683,-2559,2652,506,-545,3041,48,54,894
749279,767128,732896,769618,736850,1473,2555,771,-2602,2664,681,-983,3906,65,36,893
750280,767412,733088,769815,737047,1386,2682,677,-2393,2785,1026,-1611,4718,65,36,893
751281,767636,733268,770012,737244,1749,2766,545,-2119,2909,1133,-1543,4302,44,51,895
752282,767900,733476,770209,737441,1470,2587,464,-1971,2902,1209,-1303,4146,44,51,895
753283,768184,733704,770406,737638,1307,2449,385,-1922,2813,1468,-1269,4313,42,43,892
754284,768424,733912,770603,737835,1564,2569,244,-1714,2749,1716,-1610,4701,42,43,892
755285,768636,734140,770800,738032,1732,2432,42,-1532,2714,1846,-1562,4359,59,44,893
756286,768880,734360,770997,738229,1512,2473,-107,-1490,2685,2073,-1534,4138,59,44,893
757287,769076,734568,771194,738426,1813,2543,-261,-1557,2643,2346,-1503,4014,46,50,894
758295,769248,734820,771424,738656,1989,2259,-373,-1666,2601,2564,-1749,3782,46,50,894
759289,769452,735060,771621,738853,1787,2316,-507,-1865,2555,2606,-1880,3803,42,40,894
760290,769644,735280,771818,739050,1864,2432,-622,-1997,2467,2569,-1786,3863,42,40,894
761291,769828,735488,772015,739247,1920,2502,-718,-2140,2392,2609,-1891,3938,46,41,893
762292,769972,735700,772212,739444,2194,2472,-773,-2255,2343,2641,-1898,3854,46,41,893
763293,770132,735904,772409,739641,2110,2520,-834,-2401,2302,2750,-1812,3967,30,54,891
764294,770260,736132,772606,739838,2341,2357,-879,-2476,2215,2827,-1667,4219,30,54,891
765295,770408,736312,772803,740035,2238,2665,-905,-2531,2073,2693,-1641,4244,29,49,891
766296,770560,736580,773000,740232,2234,2084,-896,-2470,1918,2509,-1783,4558,29,49,891
767297,770692,736840,773197,740429,2387,2108,-896,-2289,1831,2213,-2006,5178,24,40,891
768298,770796,737068,773394,740626,2604,2294,-905,-1903,1826,1768,-1919,5678,24,40,891
769299,770880,737264,773591,740823,2779,2496,-881,-1497,1874,1399,-1751,5591,35,38,892
770300,770952,737504,773788,741020,2910,2203,-788,-1269,1915,1296,-1420,5214,35,38,892
771302,771016,737760,773985,741217,3018,2077,-632,-1114,1921,1639,-977,4878,30,51,888
772303,771052,738012,774182,741414,3265,2079,-436,-1079,1895,1882,-638,4356,30,51,888
773304,771104,738272,774379,741611,3229,2002,-227,-1053,1892,1750,-750,4574,22,54,887
774304,771136,738488,774576,741808,3427,2268,-74,-862,1968,1503,-1099,5208,22,54,887
775306,771192,738728,774773,742005,3340,2101,31,-456,2114,1394,-1253,5469,5,44,882
776307,771260,738996,774970,742202,3322,1895,112,1,2250,1363,-1019,5528,5,44,882
777308,771344,739268,775167,742399,3273,1837,200,389,2318,1134,-825,5246,14,47,882
778309,771404,739544,775364,742596,3484,1779,276,737,2345,862,-966,5398,14,47,882
779310,771496,739816,775561,742793,3330,1771,320,1243,2392,750,-1023,5785,21,49,885
780311,771600,740056,775758,742990,3297,1953,351,1804,2506,637,-1075,5838,21,49,885
781312,771788,740320,775955,743187,2777,1773,358,2408,2649,616,-1201,6072,23,58,885
782312,771960,740636,776152,743384,2889,1397,337,3052,2788,367,-1371,6048,23,58,885
783313,772116,740940,776349,743581,3008,1426,336,3604,2912,-170,-1484,5686,52,61,886
784315,772276,741236,776546,743778,2999,1433,361,3936,3029,-479,-1546,5274,52,61,886
785316,772436,741492,776743,743975,3016,1658,424,4109,3140,-592,-1501,4763,50,64,891
786316,772564,741812,776940,744172,3248,1204,539,4082,3198,-440,-831,3970,50,64,891
787318,772720,742128,777137,744369,3092,1176,733,3816,3200,164,-251,2931,42,60,889
788319,772884,742424,777334,744566,3057,1259,956,3437,3190,613,-106,2762,42,60,889
789320,773088,742712,777531,744763,2805,1269,1128,3168,3247,749,-426,3261,42,70,890
790320,773304,743000,777728,744960,2722,1230,1257,2949,3347,570,-685,3257,42,70,890
791322,773540,743320,777925,745157,2581,976,1393,2784,3373,235,-710,3398,40,56,892
792323,773772,743672,778122,745354,2591,708,1536,2748,3300,-131,-312,3455,40,56,892
793324,773984,743972,778319,745551,2711,988,1688,2597,3145,-174,355,3115,37,50,894
794324,774212,744224,778516,745748,2598,1264,1830,2440,2931,80,899,3173,37,50,894
795326,774472,744548,778713,745945,2371,758,1954,2492,2688,45,873,3537,54,68,897
796327,774740,744860,778910,746142,2290,784,2035,2710,2465,-210,169,3909,54,68,897
797327,775020,745212,779107,746339,2180,466,2039,3044,2314,-835,-831,4456,56,70,894
798329,775284,745492,779304,746536,2251,879,2007,3510,2255,-1242,-1254,4741,56,70,894
799329,775544,745744,779501,746733,2249,1030,1981,3908,2202,-831,-817,4042,65,51,899
800331,775876,746076,779698,746930,1740,471,2054,4084,2066,-149,-111,2842,65,51,899
801332,776160,746332,779895,747127,2003,921,2187,3881,1918,305,60,2064,55,59,899
802332,776472,746636,780092,747324,1778,574,2331,3621,1884,498,-457,2109,55,59,899
803334,776792,746980,780289,747521,1675,259,2421,3566,1994,151,-972,2582,54,61,904
804335,777124,747244,780486,747718,1541,730,2447,3727,2151,-7,-1014,3039,54,61,904
805335,777416,747524,780683,747915,1750,593,2410,3994,2244,461,-811,3002,74,52,903
806336,777768,747712,780880,748112,1307,1172,2401,4140,2277,741,-422,2276,74,52,903
807337,778080,747944,781077,748309,1508,882,2432,4057,2239,623,-274,1883,53,41,903
808339,778380,748188,781274,748506,1538,786,2452,4053,2166,472,-593,2118,53,41,903
809339,778688,748452,781471,748703,1439,632,2450,4117,2070,287,-913,2090,54,59,902
810340,778988,748652,781668,748900,1445,1030,2440,4169,1958,339,-980,1816,54,59,902
811341,779256,748936,781865,749097,1614,467,2444,4206,1856,317,-1185,1695,64,43,903
812343,779516,749196,782062,749294,1637,590,2417,4389,1785,-93,-1731,2162,64,43,903
813343,779776,749392,782259,749491,1610,990,2333,4789,1727,-240,-2057,2528,42,40,902
814344,780076,749636,782456,749688,1315,669,2224,5110,1675,-25,-1940,2012,42,40,902
815345,780332,749884,782653,749885,1564,622,2143,5237,1603,195,-1657,1457,61,51,904
816346,780604,750120,782850,750082,1433,680,2070,5285,1496,272,-1433,1332,61,51,904
817347,780860,750352,783047,750279,1507,689,1970,5293,1365,185,-1686,1146,42,54,905
818348,781112,750552,783244,750476,1507,888,1808,5302,1216,122,-1864,1050,42,54,905
819349,781412,750780,783441,750673,1163,699,1608,5304,1017,60,-1700,812,43,40,903
820351,781692,751004,783638,750870,1252,713,1379,5220,798,58,-1845,837,43,40,903
821351,781984,751224,783835,751067,1136,728,1138,5232,577,-47,-2003,1042,65,52,903
822352,782256,751424,784032,751264,1228,851,869,5220,359,-352,-2113,1061,65,52,903
823353,782504,751512,784229,751461,1356,1599,579,5234,102,-505,-1830,1106,53,37,905
824355,782796,751732,784426,751658,1040,764,263,5252,-198,-693,-1453,1147,53,37,905
825355,783084,751988,784623,751855,1025,513,-96,5328,-518,-864,-1180,1350,50,52,905
826357,783344,752200,784820,752052,1172,781,-507,5410,-831,-990,-1207,1373,50,52,905
827357,783588,752408,785017,752249,1251,802,-903,5370,-1128,-1062,-983,987,57,54,906
828358,783884,752572,785214,752446,884,1091,-1268,5163,-1441,-997,-571,621,57,54,906
829359,784168,752788,785411,752643,921,758,-1616,4756,-1771,-1005,-357,364,42,44,904
830360,784404,752992,785608,752840,1204,830,-1951,4300,-2115,-964,12,455,42,44,904
831361,784656,753200,785805,753037,1079,800,-2317,3864,-2483,-1045,295,759,60,42,904
832362,784880,753380,786002,753234,1244,982,-2659,3421,-2798,-1261,-270,579,60,42,904
833363,785116,753540,786199,753431,1151,1124,-2927,2835,-2966,-1273,-1148,259,39,40,905
834364,785344,753676,786396,753628,1188,1300,-3125,2086,-3007,-1184,-1699,242,39,40,905
835365,785592,753832,786593,753825,1040,1193,-3246,1172,-2948,-1281,-1798,-136,60,30,904
836367,785836,753964,786790,754022,1045,1372,-3304,153,-2863,-1569,-1814,-308,60,30,904
837368,786036,754076,786987,754219,1319,1534,-3337,-1005,-2833,-1474,-1337,-432,39,37,903
838368,786244,754180,787184,754416,1265,1625,-3381,-2018,-2846,-1378,-1061,82,39,37,903
839369,786424,754344,787381,754613,1447,1265,-3444,-2978,-2825,-1357,-1271,208,37,23,903
840371,786664,754536,787578,754810,1053,1092,-3521,-3953,-2705,-1198,-1784,516,37,23,903
841378,786864,754728,787808,755040,1316,1109,-3620,-4906,-2477,-1108,-2023,991,54,28,900
842373,787020,754904,788005,755237,1610,1218,-3729,-5639,-2224,-1274,-2040,1487,54,28,900
843373,787220,755048,788202,755434,1334,1441,-3828,-6381,-2014,-1440,-2037,1579,40,24,904
844375,787448,755184,788399,755631,1145,1518,-3896,-7237,-1849,-1376,-1877,1531,40,24,904
845376,787636,755316,788596,755828,1399,1572,-3930,-7978,-1708,-1007,-1671,1855,27,37,901
846377,787780,755440,788793,756025,1698,1655,-3928,-8606,-1584,-694,-1527,2235,27,37,901
847377,788032,755580,788990,756222,998,1580,-3949,-9109,-1472,-382,-1384,3085,44,37,902
848379,788220,755736,789187,756419,1403,1498,-4069,-9311,-1353,13,-1333,4263,44,37,902
849380,788372,755872,789384,756616,1648,1649,-4249,-9092,-1240,395,-1200,5352,46,24,899
850380,788584,756032,789581,756813,1267,1516,-4419,-8824,-1151,712,-1047,5171,46,24,899
851381,788776,756180,789778,757010,1394,1612,-4537,-8707,-1105,1321,-774,5045,48,34,900
852382,788980,756336,789975,757207,1316,1580,-4628,-8662,-1119,2048,-349,4874,48,34,900
853383,789188,756472,790172,757404,1287,1733,-4686,-8844,-1189,2570,-302,4097,43,35,900
854384,789428,756588,790369,757601,1068,1894,-4729,-9149,-1291,2923,-492,4073,43,35,900
855385,789608,756728,790566,757798,1450,1769,-3232,-7612,-1358,5315,-2259,14793,50,22,900
856386,789796,756848,790763,757995,1404,1928,1373,1227,-1710,12286,-5915,32767,50,22,900
857387,790028,756956,790960,758192,1114,2042,4750,6132,-1989,4832,-1585,7073,48,28,900
858388,790220,757072,791157,758389,1366,2028,4973,4989,-2120,3465,-225,91,48,28,900
859389,790456,757244,791354,758586,1075,1689,4069,1294,-2235,3995,209,-3069,49,37,898
860390,790676,757412,791551,758783,1165,1727,3470,-1849,-2242,4810,-1145,-1886,49,37,898
861391,790940,757564,791748,758980,861,1847,2839,-3020,-1960,4270,-3251,1332,39,37,898
862392,791192,757724,791945,759177,911,1814,1974,-3347,-1618,3745,-3318,1942,39,37,898
863393,791408,757884,792142,759374,1128,1830,1386,-4116,-1564,3724,-1359,-129,48,22,899
864394,791612,758024,792339,759571,1200,1980,1147,-5806,-1654,2974,-757,-1688,48,22,899
865396,791804,758168,792536,759768,1278,1979,943,-7414,-1715,2752,-1374,-47,49,22,901
866396,792048,758292,792733,759965,933,2137,280,-8051,-1636,2642,-2536,2334,49,22,901
867397,792264,758456,792930,760162,1099,1901,-480,-8046,-1451,1874,-2898,3381,43,38,899
868398,792444,758620,793127,760359,1332,1916,-1125,-7607,-1317,1740,-2649,4475,43,38,899
869400,792696,758792,793324,760556,857,1878,-1405,-7354,-1322,1339,-1983,3609,49,41,899
870401,792880,758940,793521,760753,1288,2049,-1448,-7251,-1358,1044,-1322,4028,49,41,899
871401,793084,759080,793718,760950,1160,2124,-1444,-6789,-1373,895,-880,5165,39,39,899
872402,793284,759244,793915,761147,1184,1990,-1468,-6152,-1322,649,-623,5731,39,39,899
873403,793480,759412,794112,761344,1210,1978,-1501,-5063,-1159,968,-443,7108,39,42,897
874404,793692,759564,794309,761541,1104,2097,-1451,-3810,-947,1240,74,6819,39,42,897
875405,793888,759700,794506,761738,1204,2225,-1301,-2852,-755,1228,386,6138,27,42,897
876406,794096,759856,794703,761935,1124,2118,-1169,-1938,-632,1329,744,6077,27,42,897
877407,794260,759992,794900,762132,1414,2271,-1142,-1065,-524,1336,538,5858,28,33,898
878408,794472,760116,795097,762329,1107,2378,-1084,-319,-465,1281,660,5192,28,33,898
879409,794656,760260,795294,762526,1288,2276,-638,880,-480,2140,972,10444,43,20,898
880410,794852,760392,795491,762723,1213,2381,-6,2330,-527,2688,963,10697,43,20,898
881412,795028,760556,795688,762920,1349,2195,322,3079,-502,2339,841,4066,29,23,897
882412,795220,760676,795885,763117,1251,2505,301,3181,-428,2545,1117,3160,29,23,897
883413,795396,760812,796082,763314,1360,2432,240,2956,-392,2764,1256,2301,32,25,896
884414,795572,760968,796279,763511,1369,2326,169,2705,-384,3026,1185,2122,32,25,896
885416,795760,761124,796476,763708,1298,2344,135,2519,-330,3065,800,1944,40,33,895
886416,795932,761248,796673,763905,1409,2577,44,2418,-259,2986,427,2363,40,33,895
887417,796100,761396,796870,764102,1447,2449,-122,2445,-194,2772,220,2898,22,37,896
888419,796268,761556,797067,764299,1460,2391,-339,2620,-121,2555,4,3462,22,37,896
889419,796424,761700,797264,764496,1554,2514,-574,3011,-58,2409,-289,4018,35,22,893
890421,796604,761856,797461,764693,1411,2458,-740,3349,-12,2018,-280,3890,35,22,893
891421,796780,762016,797658,764890,1445,2449,-656,3886,48,1422,-659,6735,23,37,894
892422,796936,762208,797855,765087,1588,2253,-316,4846,164,1067,-977,9059,23,37,894
893423,797100,762360,798052,765284,1553,2522,-34,5324,237,1213,-486,4146,43,29,895
894424,797268,762504,798249,765481,1541,2597,96,5445,300,1108,-672,3928,43,29,895
895425,797428,762640,798446,765678,1608,2675,199,5561,389,876,-1059,4065,44,28,894
896426,797564,762856,798643,765875,1785,2166,318,5834,551,633,-1699,4667,44,28,894
897427,797748,763016,798840,766072,1490,2533,463,6307,783,340,-2097,5046,33,32,893
898428,797924,763208,799037,766269,1550,2336,625,6706,1001,112,-2056,4763,33,32,893
899429,798060,763388,799234,766466,1826,2419,799,7036,1145,-223,-1888,4637,33,46,895
900430,798248,763588,799431,766663,1506,2293,1001,7252,1231,-590,-1669,4309,33,46,895
901431,798428,763752,799628,766860,1564,2533,1202,7359,1284,-749,-1618,4027,39,36,895
902433,798564,763968,799825,767057,1866,2201,1380,7434,1368,-790,-1855,4080,39,36,895
903433,798728,764168,800022,767254,1705,2300,1500,7543,1528,-817,-2071,4075,36,40,894
904435,798880,764360,800219,767451,1801,2353,1575,7618,1733,-821,-2128,3995,36,40,894
905435,799032,764544,800416,767648,1821,2409,1598,7620,1932,-961,-2032,3766,35,36,894
906437,799192,764748,800613,767845,1787,2281,1608,7438,2101,-1035,-1761,3179,35,36,894
907437,799348,764976,800810,768042,1830,2119,1609,7152,2222,-1079,-1502,2913,45,41,893
908439,799524,765188,801007,768239,1715,2212,1620,6701,2308,-1303,-1278,2351,45,41,893
909439,799692,765388,801204,768436,1778,2287,1633,6078,2378,-1443,-1219,2039,46,47,894
910441,799892,765604,801401,768633,1577,2179,1617,5468,2434,-1574,-1336,2179,46,47,894
911441,800056,765824,801598,768830,1817,2144,1575,4854,2482,-1740,-1369,2137,28,37,894
912443,800220,766020,801795,769027,1832,2295,1510,4264,2497,-1912,-1318,2338,28,37,894
913444,800392,766248,801992,769224,1793,2082,1434,3735,2499,-2046,-1349,2627,36,51,895
914445,800572,766424,802189,769421,1750,2418,1363,3301,2518,-2157,-1489,2897,36,51,895
915446,800700,766624,802386,769618,2106,2266,1333,2898,2546,-2269,-1465,3128,39,36,894
916446,800900,766812,802583,769815,1655,2346,1343,2433,2567,-2424,-1515,3126,39,36,894
917447,801064,767016,802780,770012,1895,2243,1403,1974,2592,-2458,-1607,3322,22,42,892
918448,801240,767240,802977,770209,1830,2107,1495,1564,2630,-2446,-1552,3496,22,42,892
919449,801400,767448,803174,770406,1946,2202,1594,1172,2675,-2516,-1391,3753,39,34,893
920451,801532,767644,803371,770603,2150,2279,1671,985,2707,-2509,-1234,4422,39,34,893
921451,801656,767856,803568,770800,2233,2173,1751,862,2717,-2393,-862,4553,33,48,894
922453,801784,768068,803765,770997,2238,2167,1812,675,2696,-2354,-381,4548,33,48,894
923453,801912,768304,803962,771194,2268,2001,1890,426,2666,-2277,-124,4475,20,45,892
924464,802028,768536,804192,771424,2394,2025,1989,197,2637,-2133,-54,4516,20,45,892
925455,802152,768760,804389,771621,2377,2064,2104,-1,2601,-1879,300,4526,18,44,892
926457,802260,768996,804586,771818,2517,1972,2191,-227,2580,-1696,704,4528,18,44,892
927457,802372,769184,804783,772015,2529,2277,2231,-374,2577,-1481,907,4633,39,46,892
928458,802476,769420,804980,772212,2621,1959,2278,-591,2568,-1380,974,4371,39,46,892
929459,802616,769668,805177,772409,2421,1863,2326,-821,2526,-1254,1184,4452,36,53,890
930460,802784,769896,805374,772606,2260,1974,2369,-1021,2414,-1297,1580,4457,36,53,890
931461,802940,770140,805571,772803,2353,1855,2422,-1255,2270,-1368,1603,4226,36,41,891
932462,803076,770356,805768,773000,2506,2021,2447,-1430,2116,-1390,1427,4520,36,41,891
933463,803208,770544,805965,773197,2559,2201,2415,-1501,1966,-1537,1278,4800,44,49,893
934465,803344,770800,806162,773394,2562,1750,2368,-1514,1827,-1691,1359,4834,44,49,893
935466,803456,771072,806359,773591,2749,1618,2319,-1573,1690,-1790,1096,4572,22,55,892
936467,803568,771328,806556,773788,2788,1693,2274,-1654,1539,-1855,1167,4601,22,55,892
937468,803676,771556,806753,773985,2852,1855,2174,-1597,1310,-1966,1393,5141,18,58,891
938469,803800,771836,806950,774182,2785,1493,2026,-1444,1061,-1643,1295,5168,18,58,891
939469,803912,772020,807147,774379,2897,2100,1861,-1335,876,-1239,1062,4836,31,41,889
940470,804008,772168,807344,774576,3043,2347,1675,-1297,728,-1046,1225,4804,31,41,889
941471,804124,772288,807541,774773,2954,2557,1448,-1218,563,-899,1270,4978,32,25,890
942472,804232,772416,807738,774970,3043,2537,1201,-1150,381,-874,1179,4847,32,25,890
943473,804340,772568,807935,775167,3083,2408,972,-1166,195,-776,1291,4423,16,28,885
944474,804428,772748,808132,775364,3257,2240,747,-1190,13,-535,1670,4380,16,28,885
945475,804512,772940,808329,775561,3332,2168,526,-1242,-133,-275,1825,4341,12,31,884
946476,804596,773200,808526,775758,3383,1716,328,-1345,-195,8,1498,4158,12,31,884
947477,804692,773436,808723,775955,3353,1849,182,-1538,-176,245,1309,3617,13,59,884
948478,804784,773656,808920,776152,3425,1939,44,-1786,-120,425,1214,3454,13,59,884
949479,804908,773980,809117,776349,3257,1235,-88,-2111,-34,519,988,3287,16,51,886
950480,805016,774296,809314,776546,3397,1232,-198,-2497,87,657,562,3057,16,51,886
951481,805132,774628,809511,776743,3384,1073,-271,-2773,227,782,154,3354,36,66,883
952483,805268,774892,809708,776940,3287,1470,-351,-2836,377,802,-71,3965,36,66,883
953483,805380,775192,809905,777137,3475,1199,-448,-2762,524,940,-195,4346,30,70,888
954484,805512,775488,810102,777334,3380,1182,-534,-2536,644,1142,-285,4616,30,70,888
955485,805644,775764,810299,777531,3408,1272,-591,-2241,706,1156,-176,4862,30,64,888
956486,805772,776020,810496,777728,3464,1371,-640,-1814,682,1203,194,5230,30,64,888
957487,805924,776372,810693,777925,3335,704,-699,-1349,601,1364,443,5433,22,52,889
958488,806052,776672,810890,778122,3517,984,-753,-766,492,1592,574,5638,22,52,889
959489,806212,776972,811087,778319,3334,938,-798,-91,358,1765,826,5800,31,57,887
960490,806376,777248,811284,778516,3324,1054,-821,581,217,1911,955,5758,31,57,887
961491,806540,777508,811481,778713,3340,1127,-826,1236,56,2059,1132,5816,33,54,888
962492,806696,777820,811678,778910,3409,752,-797,1811,-102,2203,1373,5494,33,54,888
963493,806896,778116,811875,779107,3134,808,-742,2303,-271,2376,1549,5292,46,59,889
964494,807044,778360,812072,779304,3481,1112,-679,2768,-449,2433,1441,5149,46,59,889
965495,807228,778584,812269,779501,3263,1226,-620,3223,-661,2271,1266,5079,51,45,890
966496,807384,778800,812466,779698,3457,1268,-558,3691,-906,2230,1384,4876,51,45,890
967497,807536,779032,812663,779895,3503,1153,-503,4043,-1131,2280,1392,4481,24,48,889
968499,807668,779284,812860,780092,3657,1004,-446,4244,-1282,2326,1474,4071,24,48,889
969500,807820,779500,813057,780289,3553,1220,-361,4319,-1413,2168,1706,3573,23,39,888
970501,807960,779672,813254,780486,3654,1506,-233,4244,-1581,1957,1788,3202,23,39,888
971501,808116,779860,813451,780683,3573,1411,-76,4131,-1756,1884,1911,3041,23,40,887
972502,808280,780024,813648,780880,3538,1576,72,4000,-1902,1798,1960,2944,23,40,887
973503,808440,780168,813845,781077,3581,1724,182,3884,-2019,1611,1873,3083,44,30,884
974504,808592,780352,814042,781274,3652,1480,252,3862,-2083,1307,1643,3407,44,30,884
975505,808780,780524,814239,781471,3431,1566,283,3974,-2132,927,1554,3671,29,42,886
976507,808956,780700,814436,781668,3517,1550,302,4111,-2173,597,1497,3716,29,42,886
977508,809148,780868,814633,781865,3420,1614,305,4338,-2203,314,1255,4036,30,47,884
978508,809360,781052,814830,782062,3289,1519,273,4678,-2233,-122,972,4299,30,47,884
979510,809556,781228,815027,782259,3391,1579,221,5009,-2249,-627,670,4168,47,46,886
980510,809748,781388,815224,782456,3419,1695,160,5256,-2232,-823,380,4150,47,46,886
981511,809936,781548,815421,782653,3449,1711,103,5476,-2159,-998,-25,3836,32,39,888
982512,810140,781704,815618,782850,3347,1755,75,5481,-2058,-1358,-447,3279,32,39,888
983513,810320,781876,815815,783047,3505,1666,72,5371,-1950,-1690,-759,2908,48,40,886
984514,810500,782068,816012,783244,3514,1543,72,5185,-1849,-1935,-827,2689,48,40,886
985515,810684,782248,816209,783441,3495,1626,44,4979,-1777,-1993,-774,2741,34,43,885
986516,810864,782380,816406,783638,3529,1954,-16,4782,-1674,-1908,-949,2924,34,43,885
987517,811008,782516,816603,783835,3778,1957,-82,4555,-1491,-2008,-1219,2813,47,27,886
988518,811208,782680,816800,784032,3428,1797,-153,4283,-1298,-2039,-1435,2917,47,27,886
989519,811356,782800,816997,784229,3775,2105,-222,3975,-1163,-1987,-1524,2792,24,27,884
990533,811492,782976,817194,784426,3800,1765,-281,3612,-1103,-1984,-1337,2628,24,27,884
991534,811604,783160,817391,784623,3800,1721,-330,3120,-1096,-1864,-931,2431,18,32,885
992535,811720,783344,817588,784820,3800,1727,-396,2478,-1102,-1788,-534,2320,18,32,885
993536,811844,783516,817785,785017,3800,1813,-473,1883,-1098,-1666,-297,2626,20,49,882
994537,811964,783720,817982,785214,3800,1611,-584,1351,-1100,-1500,-125,2875,20,49,882
995538,812108,783928,818179,785411,3800,1581,-730,931,-1102,-1192,-125,3261,37,51,881
996539,812232,784068,818376,785608,3800,2031,-887,591,-1088,-890,7,3364,37,51,881
997540,812384,784200,818573,785805,3800,2110,-1022,142,-1075,-684,247,3119,37,40,882
998541,812504,784340,818770,786002,3800,2086,-1148,-391,-1082,-456,426,3145,37,40,882
999542,812636,784492,818967,786199,3800,2031,-1258,-1021,-1093,-294,574,3027,37,29,880
1000543,812780,784620,819164,786396,3800,2211,-1346,-1675,-1124,-191,746,3031,37,29,880
1001544,812920,784740,819361,786593,3800,2296,-1434,-2182,-1173,-129,803,3394,40,29,880
1002545,813068,784852,819558,786790,3800,2383,-1516,-2647,-1191,-93,649,3693,40,29,880
1003546,813228,784964,819755,786987,3800,2421,-1596,-2960,-1173,157,370,4082,41,25,879
1004547,813392,785056,819952,787184,3800,2593,-1664,-3264,-1139,332,267,4097,41,25,879
1005548,813552,785152,820149,787381,3800,2612,-1722,-3603,-1093,378,403,4205,41,27,878
1006549,813712,785248,820346,787578,3800,2657,-1781,-3845,-1046,509,474,4553,41,27,878
1007557,813896,785336,820576,787808,3800,2770,-1810,-4015,-991,599,376,4559,35,16,876
1008551,814068,785420,820773,788005,3800,2845,-1831,-4099,-919,662,179,4887,35,16,876
1009552,814232,785544,820970,788202,3800,2628,-1842,-4127,-839,637,153,4980,46,21,877
1010553,814424,785656,821167,788399,3800,2741,-1828,-4118,-769,538,149,5169,46,21,877
1011554,814620,785776,821364,788596,3800,2725,-1782,-4004,-697,443,83,5416,32,37,876
1012555,814812,785936,821561,788793,3800,2492,-1684,-3888,-617,311,-61,5324,32,37,876
1013556,815000,786052,821758,788990,3800,2803,-1553,-3779,-552,198,-153,5548,53,39,877
1014557,815196,786164,821955,789187,3800,2866,-1376,-3519,-538,54,185,6279,53,39,877
1015558,815364,786260,822152,789384,3800,3010,-1034,-3018,-545,187,317,8374,46,18,878
1016559,815568,786348,822349,789581,3800,3109,-555,-2329,-562,294,324,9233,46,18,878
1017560,815736,786452,822546,789778,3800,3050,-216,-1917,-564,-206,414,6104,46,34,874
1018561,815904,786572,822743,789975,3800,2985,-68,-1734,-572,-502,432,5433,46,34,874
1019562,816076,786676,822940,790172,3800,3127,1,-1599,-589,-785,89,5201,27,33,873
1020563,816260,786792,823137,790369,3800,3087,98,-1459,-584,-1011,-197,4926,27,33,873
1021564,816424,786896,823334,790566,3800,3204,239,-1367,-545,-987,-275,4598,24,37,875
1022565,816616,787024,823531,790763,3800,3086,396,-1331,-502,-835,-139,4179,24,37,875
1023566,816760,787156,823728,790960,3800,3090,522,-1336,-479,-897,-166,4105,24,22,873
1024567,816928,787264,823925,791157,3800,3279,617,-1318,-465,-1068,-318,4063,24,22,873
1025568,817136,787384,824122,791354,3800,3239,717,-1334,-431,-1012,-412,3896,44,31,874
1026569,817324,787492,824319,791551,3800,3354,814,-1368,-372,-743,-373,3734,44,31,874
1027570,817528,787624,824516,791748,3800,3233,883,-1403,-294,-573,-335,3713,56,24,872
1028571,817752,787752,824713,791945,3800,3289,926,-1467,-203,-501,-342,3404,56,24,872
1029572,817984,787888,824910,792142,3800,3267,975,-1561,-124,-358,-378,3281,40,32,872
1030573,818220,788004,825107,792339,3800,3429,1045,-1633,-66,-306,-238,3260,40,32,872
1031574,818432,788136,825304,792536,3800,3358,1142,-1762,-45,-241,-31,3139,48,40,873
1032562,818692,788252,825501,792733,3643,3495,1226,-1818,-63,-138,66,3382,48,40,873
1033564,818932,788392,825698,792930,3751,3370,1288,-1761,-69,-135,33,3712,43,42,873
1034577,819152,788556,825895,793127,3800,3235,1326,-1592,-65,-39,18,3953,43,42,873
1035565,819400,788728,826092,793324,3670,3197,1367,-1337,-86,44,127,4109,49,29,871
1036579,819604,788864,826289,793521,3800,3450,1411,-1047,-139,118,253,4347,49,29,871
1037580,819820,789008,826486,793718,3800,3424,1461,-719,-210,308,439,4516,38,28,873
1038568,820048,789192,826683,793915,3774,3181,1497,-399,-306,532,727,4384,38,28,873
1039582,820256,789396,826880,794112,3800,3054,1494,-35,-417,684,955,4574,33,42,871
1040583,820456,789604,827077,794309,3800,3025,1461,279,-516,846,1043,4393,33,42,871
1041572,820680,789836,827274,794506,3785,2860,1409,508,-587,1064,939,4258,46,44,874
1042585,820864,790032,827471,794703,3800,3086,1352,749,-612,1204,757,4299,46,44,874
1043586,821064,790252,827668,794900,3800,2927,1287,977,-608,1267,654,4164,54,35,875
1044574,821292,790460,827865,795097,3755,2998,1200,1060,-616,1244,637,3951,54,35,875
1045575,821512,790660,828062,795294,3796,3048,1080,1124,-631,1166,688,3786,54,54,875
1046576,821768,790888,828259,795491,3546,2860,951,1081,-634,1165,729,3332,54,54,875
1047577,822032,791124,828456,795688,3468,2794,805,920,-639,1172,673,3019,54,60,875
1048579,822280,791352,828653,795885,3546,2832,641,729,-657,940,422,3091,54,60,875
1049580,822524,791608,828850,796082,3552,2632,473,541,-684,724,228,2954,62,49,879
1050580,822804,791876,829047,796279,3292,2525,304,274,-720,643,138,2667,62,49,879
1051581,823140,792168,829244,796476,2882,2335,135,-66,-728,391,225,2654,55,65,879
1052582,823432,792436,829441,796673,3116,2454,-32,-427,-724,5,255,2501,55,65,879
1053583,823768,792708,829638,796870,2781,2398,-190,-837,-750,-202,92,2427,73,49,884
1054584,824140,792972,829835,797067,2480,2419,-338,-1312,-788,-526,63,2401,73,49,884
1055585,824472,793240,830032,797264,2673,2363,-457,-1702,-818,-856,-9,2425,62,70,885
1056586,824836,793528,830229,797461,2400,2199,-554,-2170,-847,-1107,-105,2304,62,70,885
1057588,825236,793788,830426,797658,2087,2347,-660,-2610,-818,-1321,-318,2572,63,70,890
1058588,825588,794072,830623,797855,2320,2160,-793,-2940,-714,-1564,-419,2789,63,70,890
1059589,825932,794320,830820,798052,2307,2363,-916,-3228,-575,-1735,-471,2693,62,49,891
1060590,826304,794572,831017,798249,2056,2314,-1022,-3492,-389,-1991,-697,3077,62,49,891
1061591,826648,794836,831214,798446,2166,2211,-1115,-3652,-159,-2206,-770,3395,59,62,891
1062592,826988,795112,831411,798643,2129,2101,-1181,-3828,70,-2200,-527,3110,59,62,891
1063593,827352,795356,831608,798840,1907,2282,-1200,-4129,280,-2071,-8,2788,56,46,891
1064594,827700,795604,831805,799037,1941,2235,-1204,-4435,496,-1978,143,2879,56,46,891
1065596,828004,795824,832002,799234,2170,2400,-1223,-4794,722,-1732,78,2925,69,42,894
1066597,828332,796016,832199,799431,1964,2578,-1248,-5028,980,-1591,-12,3186,69,42,894
1067597,828660,796252,832396,799628,1906,2287,-1252,-5242,1245,-1621,-222,3255,63,55,893
1068599,828956,796488,832593,799825,2064,2270,-1232,-5460,1500,-1453,-535,3408,63,55,893
1069600,829276,796696,832790,800022,1861,2441,-1180,-5666,1737,-1242,-511,3390,70,49,891
1070601,829600,796904,832987,800219,1780,2437,-1082,-5866,1926,-1120,-300,3213,70,49,891
1071601,829888,797120,833184,800416,1966,2379,-976,-6084,2081,-910,-198,3392,71,37,890
1072602,830176,797372,833381,800613,1927,2131,-922,-6197,2263,-560,-638,3876,71,37,890
1073603,830468,797580,833578,800810,1860,2402,-965,-5987,2526,-100,-1146,4749,61,45,892
1074604,830776,797816,833775,801007,1712,2210,-1011,-5803,2770,151,-989,4347,61,45,892
1075605,831088,798064,833972,801204,1637,2113,-1006,-5792,2942,433,-980,4261,54,40,894
1076606,831440,798308,834169,801401,1320,2118,-992,-5671,3066,467,-1182,4570,54,40,894
1077607,831752,798552,834366,801598,1519,2098,-984,-5531,3199,320,-1649,4526,51,56,895
1078608,832056,798752,834563,801795,1523,2373,-999,-5267,3342,471,-1857,4970,51,56,895
1079609,832384,798964,834760,801992,1316,2291,-1034,-4966,3444,760,-1422,5064,53,46,897
1080610,832668,799180,834957,802189,1553,2259,-1077,-4746,3498,1087,-1353,4966,53,46,897
1081611,832932,799416,835154,802386,1649,2117,-1129,-4451,3521,1568,-1632,5211,52,58,894
1082613,833216,799668,835351,802583,1487,1994,-1182,-4179,3523,1685,-1862,5163,52,58,894
1083613,833496,799916,835548,802780,1475,1996,-1238,-3932,3503,1908,-2040,5138,65,46,894
1084614,833756,800124,835745,802977,1574,2242,-1279,-3838,3447,2229,-1770,4585,65,46,894
1085615,834016,800376,835942,803174,1546,1943,-1306,-3913,3370,2455,-1523,4106,56,49,897
1086616,834236,800636,836139,803371,1786,1866,-1330,-4018,3266,2788,-1452,4191,56,49,897
1087617,834448,800864,836336,803568,1830,2054,-1338,-4221,3123,3037,-1360,3792,41,52,895
1088618,834660,801108,836533,803765,1824,1933,-1334,-4472,2970,3243,-1448,3788,41,52,895
1089619,834868,801340,836730,803962,1844,1994,-1340,-4643,2799,3399,-1688,3806,35,41,896
1090627,835064,801556,836960,804192,1935,2100,-1339,-4814,2635,3436,-1842,3742,35,41,896
1091621,835264,801744,837157,804389,1908,2280,-1386,-4891,2492,3426,-2068,4209,32,54,895
1092622,835412,801964,837354,804586,2255,2070,-1428,-4857,2398,3361,-2196,4253,32,54,895
1093623,835544,802224,837551,804783,2384,1793,-1439,-4891,2328,3344,-2237,4189,28,57,892
1094624,835672,802472,837748,804980,2440,1846,-1434,-4869,2246,3233,-2177,4371,28,57,892
1095625,835792,802692,837945,805177,2525,2012,-1405,-4843,2111,3101,-1989,4221,34,49,891
1096626,835932,802872,838142,805374,2425,2269,-1066,-4378,1965,3376,-2366,8487,34,49,891
1097627,836072,803092,838339,805571,2450,2009,-136,-2707,1867,3358,-3478,17584,19,38,892
1098629,836200,803316,838536,805768,2556,1973,573,-1578,1749,2448,-2293,7420,19,38,892
1099629,836320,803580,838733,805965,2640,1694,711,-1339,1626,1822,-2172,4174,19,56,890
1100631,836408,803804,838930,806162,2889,1933,585,-1451,1578,1483,-2643,4253,19,56,890
1101631,836484,804008,839127,806359,3017,2055,456,-1325,1652,1518,-2996,4683,28,49,890
1102633,836552,804200,839324,806556,3125,2133,436,-997,1785,1470,-2808,4306,28,49,890
1103633,836596,804436,839521,806753,3342,1841,487,-779,1861,1471,-2244,3844,22,46,887
1104635,836648,804668,839718,806950,3357,1851,543,-527,1850,1357,-1926,4015,22,46,887
1105635,836684,804928,839915,807147,3527,1649,624,-358,1834,995,-2046,3758,15,38,884
1106636,836720,805164,840112,807344,3599,1782,720,-162,1845,951,-1953,3812,15,38,884
1107637,836780,805380,840309,807541,3510,1899,793,158,1896,1271,-1779,4090,23,39,884
1108638,836832,805588,840506,807738,3624,1944,862,486,1992,1395,-1611,4020,23,39,884
1109639,836888,805788,840703,807935,3662,1994,947,854,2087,1506,-1354,3981,12,47,883
1110640,836972,806080,840900,808132,3538,1377,1057,1188,2151,1518,-1108,3902,12,47,883
1111641,837056,806360,841097,808329,3587,1417,1194,1542,2195,1406,-1024,4050,26,56,881
1112643,837188,806612,841294,808526,3317,1568,1335,1945,2185,1202,-959,4086,26,56,881
1113643,837360,806860,841491,808723,3079,1570,1454,2314,2161,1101,-1249,3983,40,54,885
1114645,837540,807076,841688,808920,3037,1763,1534,2764,2167,785,-1641,4406,40,54,885
1115646,837696,807396,841885,809117,3206,1059,1572,3278,2232,407,-2212,4664,33,50,887
1116646,837848,807692,842082,809314,3251,1165,1581,3888,2361,16,-2657,4711,33,50,887
1117647,837972,807976,842279,809511,3459,1203,1614,4313,2494,-158,-2361,4223,48,67,888
1118648,838096,808236,842476,809708,3492,1325,1671,4548,2575,473,-1826,3730,48,67,888
1119649,838252,808488,842673,809905,3311,1351,1748,4664,2585,1263,-1166,3050,36,64,889
1120650,838400,808772,842870,810102,3384,1113,1842,4518,2521,1671,-526,2423,36,64,889
1121651,838576,809112,843067,810299,3219,701,1879,4438,2437,1864,-713,2832,44,51,887
1122652,838820,809384,843264,810496,2773,1093,1841,4503,2402,1514,-1098,3022,44,51,887
1123653,839044,809636,843461,810693,2888,1194,1803,4602,2422,1288,-1148,2963,46,57,889
1124654,839244,809904,843658,810890,3037,1063,1803,4608,2403,1339,-820,2719,46,57,889
1125655,839424,810200,843855,811087,3171,845,1849,4538,2330,1122,-360,2542,40,61,894
1126656,839648,810444,844052,811284,2885,1150,1942,4328,2203,1161,236,2251,40,61,894
1127657,839884,810704,844249,811481,2794,1022,2031,4094,1988,1475,661,2109,45,49,891
1128658,840152,810920,844446,811678,2563,1289,2121,3914,1765,1615,624,2097,45,49,891
1129659,840412,811132,844643,811875,2586,1307,2204,3814,1603,1435,294,2267,65,41,893
1130660,840648,811344,844840,812072,2720,1300,2260,3888,1501,683,-282,2980,65,41,893
1131661,840876,811576,845037,812269,2757,1160,2279,4119,1453,-149,-553,3565,44,37,894
1132663,841140,811828,845234,812466,2504,1012,2302,4409,1363,-133,11,3423,44,37,894
1133663,841400,812044,845431,812663,2501,1229,2343,4714,1153,267,536,3122,46,55,893
1134664,841664,812232,845628,812860,2447,1407,2385,4890,939,594,458,2818,46,55,893
1135665,841940,812460,845825,813057,2339,1144,2393,5092,852,516,220,3114,66,41,896
1136666,842212,812632,846022,813254,2332,1505,2369,5361,887,-310,136,3159,66,41,896
1137667,842480,812864,846219,813451,2326,1114,2338,5627,952,-753,189,2956,52,38,894
1138668,842788,813240,846416,813648,2028,136,2288,5786,942,-223,278,2515,52,38,894
1139669,843060,813492,846613,813845,2221,887,2242,5817,899,279,128,1909,69,48,894
1140670,843340,813720,846810,814042,2134,1023,2156,5736,936,150,-165,1837,69,48,894
1141671,843636,813976,847007,814239,1992,822,2055,5633,1014,-710,-398,1994,65,52,902
1142672,843920,814188,847204,814436,2030,1090,1924,5663,1100,-1161,-689,2165,65,52,902
1143673,844216,814500,847401,814633,1911,416,1733,5833,1155,-622,-445,2295,73,42,899
1144674,844520,814732,847598,814830,1815,901,1500,5864,1144,-162,-149,1736,73,42,899
1145675,844772,814940,847795,815027,2117,1046,1298,5717,1128,-358,-323,1441,59,54,899
1146676,845024,815192,847992,815224,2093,747,1144,5504,1139,-917,-722,1352,59,54,899
1147677,845248,815476,848189,815421,2257,508,989,5367,1141,-1103,-737,1494,37,59,901
1148678,845548,815704,848386,815618,1737,845,787,5334,1119,-926,-579,1581,37,59,901
1149679,845796,815956,848583,815815,2040,671,585,5161,1065,-686,-363,1083,51,58,899
1150680,846076,816188,848780,816012,1804,780,398,4959,977,-810,-173,1376,51,58,899
1151681,846308,816404,848977,816209,2089,872,226,4752,858,-1253,-258,1403,62,56,902
1152682,846548,816648,849174,816406,2021,675,23,4555,707,-1279,-427,1485,62,56,902
1153683,846804,816912,849371,816603,1896,521,-224,4404,483,-1098,-265,1556,47,44,901
1154684,847144,817156,849568,816800,1308,625,-493,4173,221,-1130,-125,1433,47,44,901
1155685,847428,817288,849765,816997,1621,1354,-772,4013,-35,-1413,-636,1967,46,56,901
1156686,847684,817468,849962,817194,1770,1061,-1071,3984,-251,-2094,-1212,2345,46,56,901
1157687,847988,817696,850159,817391,1424,747,-1369,3991,-444,-2366,-1371,2474,69,42,905
1158688,848264,817948,850356,817588,1564,573,-1672,3932,-699,-2093,-878,2225,69,42,905
1159689,848524,818152,850553,817785,1637,870,-1987,3740,-1012,-1988,-545,2010,59,55,900
1160691,848852,818376,850750,817982,1155,733,-2277,3477,-1325,-1931,-399,1887,59,55,900
1161691,849116,818608,850947,818179,1525,668,-2532,3058,-1608,-1995,-642,1722,67,46,902
1162692,849420,818812,851144,818376,1229,840,-2790,2704,-1858,-1929,-900,2124,67,46,902
1163693,849736,819004,851341,818573,1102,917,-3070,2378,-2062,-1799,-1592,2166,59,45,905
1164695,850004,819176,851538,818770,1371,1053,-3286,1815,-2220,-1690,-1743,1596,59,45,905
1165695,850252,819332,851735,818967,1474,1171,-3463,1178,-2371,-1779,-1585,1804,67,30,904
1166696,850524,819496,851932,819164,1291,1136,-3581,379,-2511,-1636,-1304,1417,67,30,904
1167697,850772,819604,852129,819361,1419,1524,-3638,-507,-2650,-1291,-1180,1209,61,34,902
1168699,851040,819712,852326,819558,1263,1563,-3655,-1481,-2775,-1062,-1051,1119,61,34,902
1169699,851324,819876,852523,819755,1125,1227,-3670,-2464,-2863,-894,-1102,1442,63,22,902
1170700,851552,820056,852720,819952,1462,1135,-3688,-3344,-2907,-860,-1372,1910,63,22,902
1171701,851764,820204,852917,820149,1555,1356,-3677,-4236,-2921,-1012,-1462,1911,59,25,899
1172702,852052,820348,853114,820346,1040,1405,-3659,-5046,-2918,-642,-1542,2590,59,25,899
1173710,852268,820492,853344,820576,1496,1442,-3630,-5744,-2898,-48,-1285,2783,43,24,901
1174704,852468,820624,853541,820773,1596,1546,-3592,-6382,-2852,171,-1151,3073,43,24,901
1175705,852708,820740,853738,820970,1327,1682,-3553,-6917,-2802,118,-1270,3529,35,37,902
1176707,852920,820888,853935,821167,1496,1503,-3522,-7460,-2749,-12,-1360,3762,35,37,902
1177707,853108,821016,854132,821364,1650,1658,-3513,-7804,-2691,182,-1355,4461,43,35,899
1178708,853300,821108,854329,821561,1627,1931,-3512,-8000,-2642,589,-1129,4729,43,35,899
1179709,853528,821240,854526,821758,1389,1709,-2203,-6418,-2629,3275,-1741,20527,47,31,900
1180711,853772,821376,854723,821955,1268,1711,1240,-215,-2857,7232,-2690,32767,47,31,900
1181711,853980,821540,854920,822152,1489,1550,3185,2458,-2997,2129,-719,6738,46,25,896
1182713,854212,821668,855117,822349,1323,1806,3241,1622,-3038,1500,-144,2547,46,25,896
1183713,854428,821824,855314,822546,1415,1649,2553,-827,-3056,1974,-290,834,52,20,897
1184714,854656,821928,855511,822743,1327,2015,2170,-2431,-2993,2709,-723,1522,52,20,897
1185715,854876,822060,855708,822940,1367,1868,2031,-3519,-2853,2779,-648,1095,40,18,898
1186716,855128,822188,855905,823137,1143,1924,1882,-4493,-2732,3320,-847,1042,40,18,898
1187717,855316,822340,856102,823334,1547,1794,1652,-5366,-2665,3570,-703,1376,54,22,896
1188718,855608,822460,856299,823531,855,2028,1408,-6365,-2610,2995,-690,975,54,22,896
1189719,855836,822600,856496,823728,1242,1928,1200,-7292,-2674,2834,-702,1333,49,31,898
1190720,856092,822760,856693,823925,1041,1819,995,-8033,-2819,2544,-706,1870,49,31,898
1191721,856364,822936,856890,824122,909,1729,791,-8397,-2928,2316,-696,2896,51,37,899
1192723,856604,823108,857087,824319,1090,1766,558,-8222,-3041,2235,-1187,4069,51,37,899
1193723,856848,823292,857284,824516,1044,1696,360,-7961,-3118,1704,-1444,4110,47,42,898
1194724,857104,823468,857481,824713,943,1756,202,-7482,-3118,1419,-1654,5260,47,42,898
1195725,857332,823620,857678,824910,1105,1925,66,-6795,-3097,1175,-1842,5250,41,27,900
1196727,857560,823752,857875,825107,1091,2080,0,-6343,-3062,959,-1694,4442,41,27,900
1197727,857808,823900,858072,825304,944,2001,20,-5875,-3004,1027,-1535,4501,45,41,901
1198728,858016,824084,858269,825501,1189,1782,102,-5596,-2936,1104,-1566,3539,45,41,901
1199729,858228,824248,858466,825698,1157,1922,174,-5298,-2855,1367,-1676,3802,45,33,898
1200731,858456,824408,858663,825895,1043,1964,182,-4866,-2718,1738,-1718,4046,45,33,898
1201731,858644,824560,858860,826092,1297,2034,-140,-4045,-2372,2100,-3084,5389,49,40,899
1202732,858836,824708,859057,826289,1275,2080,-530,-3244,-2005,2066,-2281,4239,49,40,899
1203733,859016,824868,859254,826486,1357,2023,-584,-3078,-1922,2115,136,2268,27,32,898
1204735,859196,825036,859451,826683,1365,1985,-483,-3367,-1984,2569,328,1797,27,32,898
1205735,859392,825180,859648,826880,1265,2159,-446,-3502,-1933,3164,-154,2145,45,27,896
1206736,859548,825304,859845,827077,1533,2317,-701,-3242,-1602,3411,-1174,3404,45,27,896
1207737,859732,825452,860042,827274,1364,2188,-1129,-2600,-1305,3373,-832,3902,43,23,897
1208738,859912,825584,860239,827471,1397,2317,-1614,-2033,-1105,3240,-1259,3462,43,23,897
1209739,860096,825728,860436,827668,1378,2266,-2038,-1793,-866,3105,-1696,2450,44,37,894
1210740,860264,825852,860633,827865,1491,2423,-2345,-1908,-677,3073,-885,1662,44,37,894
1211741,860412,825976,860830,828062,1637,2455,-2465,-2151,-578,3178,147,1336,24,20,893
1212742,860556,826136,861027,828259,1685,2247,-2502,-2240,-506,3361,423,2237,24,20,893
1213743,860752,826280,861224,828456,1361,2371,-2558,-1965,-417,3567,343,3314,44,35,894
1214744,860920,826452,861421,828653,1549,2208,-2652,-1388,-292,3505,224,4113,44,35,894
1215745,861092,826592,861618,828850,1535,2433,-2620,-520,-145,3292,-18,5704,41,33,893
1216746,861256,826728,861815,829047,1599,2485,-1169,3077,304,1714,-2478,30756,41,33,893
1217747,861408,826864,862012,829244,1694,2512,660,6437,702,2023,-1114,17883,24,25,895
1218748,861568,827012,862209,829441,1660,2459,1309,6987,746,2702,612,1083,24,25,895
1219749,861736,827148,862406,829638,1623,2562,1132,5933,625,2547,375,759,36,31,893
1220750,861892,827284,862603,829835,1717,2589,791,5114,580,2801,-477,1879,36,31,893
1221751,862048,827460,862800,830032,1735,2349,566,5404,696,2712,-990,3801,37,24,892
1222752,862204,827644,862997,830229,1753,2304,430,5956,932,2366,-1384,3520,37,24,892
1223753,862372,827800,863194,830426,1691,2499,296,6417,1113,2312,-1484,3473,36,25,891
1224754,862536,827956,863391,830623,1730,2517,212,6510,1214,1596,-1285,2425,36,25,891
1225755,862696,828108,863588,830820,1771,2562,193,6141,1253,1215,-937,1674,24,34,891
1226756,862864,828260,863785,831017,1735,2582,232,5848,1212,1167,-902,2036,24,34,891
1227757,863036,828436,863982,831214,1721,2442,248,5733,1223,675,-1294,2868,44,30,891
1228758,863204,828604,864179,831411,1759,2505,228,6136,1333,334,-1957,4478,44,30,891
1229759,863364,828776,864376,831608,1825,2492,127,6838,1501,67,-2409,5145,46,30,892
1230760,863580,828980,864573,831805,1467,2289,52,7586,1707,-468,-2398,5413,46,30,892
1231761,863736,829208,864770,832002,1860,2126,22,8202,1913,-678,-2184,5150,40,49,892
1232762,863960,829384,864967,832199,1424,2461,85,8517,2053,-873,-1844,4178,40,49,892
1233763,864124,829584,865164,832396,1814,2310,176,8623,2156,-1038,-1540,4211,29,35,895
1234764,864300,829776,865361,832593,1748,2362,264,8805,2243,-1003,-1409,4188,29,35,895
1235765,864468,829952,865558,832790,1811,2473,321,8933,2351,-1086,-1703,4012,40,31,894
1236766,864640,830180,865755,832987,1796,2135,324,9120,2519,-1336,-1940,4468,40,31,894
1237767,864816,830376,865952,833184,1782,2335,299,9217,2720,-1604,-2091,4200,36,33,892
1238768,864988,830592,866149,833381,1818,2203,258,9184,2942,-1603,-2216,4155,36,33,892
1239769,865192,830784,866346,833578,1615,2355,238,9084,3175,-1658,-2038,3883,32,40,894
1240770,865396,830988,866543,833775,1612,2278,242,8685,3375,-1775,-1747,3135,32,40,894
1241771,865596,831236,866740,833972,1636,1981,261,8133,3521,-1802,-1571,2933,34,52,894
1242772,865788,831452,866937,834169,1688,2173,293,7490,3659,-1953,-1434,2767,34,52,894
1243773,865964,831672,867134,834366,1798,2138,346,6823,3799,-2020,-1287,2852,47,41,894
1244774,866148,831864,867331,834563,1753,2317,905,6008,3912,-2626,-1366,6449,47,41,894
1245775,866340,832088,867528,834760,1706,2105,3212,4870,4137,-4098,-1640,22191,27,48,895
1246776,866508,832308,867725,834957,1869,2121,5293,4214,4325,-2390,-1684,13862,27,48,895
1247777,866712,832568,867922,835154,1641,1843,5636,3863,4406,-1922,-1472,4445,43,52,892
1248778,866876,832760,868119,835351,1906,2271,5082,3787,4382,-1895,-1100,4862,43,52,892
1249780,867048,832984,868316,835548,1867,2059,4614,3800,4275,-1923,-478,4705,44,39,892
1250780,867200,833200,868513,835745,2013,2102,4460,3495,4117,-2065,46,4097,44,39,892
1251781,867344,833440,868710,835942,2086,1933,4404,3136,3880,-2056,551,4047,22,43,893
1252782,867472,833700,868907,836139,2216,1781,4366,2616,3631,-2180,795,3468,22,43,893
1253783,867616,833944,869104,836336,2139,1861,4236,2214,3390,-1758,816,4046,22,41,893
1254784,867768,834196,869301,836533,2110,1788,4044,2016,3188,-1303,722,4102,22,41,893
1255785,867888,834416,869498,836730,2344,1977,3831,1737,3065,-1127,695,4072,43,41,893
1256795,867972,834640,869728,836960,2633,1956,3621,1513,2985,-840,776,3936,43,41,893
1257787,868124,834864,869925,837157,2229,1944,3442,1022,2881,-728,1227,3010,41,44,894
1258788,868296,835120,870122,837354,2115,1718,3327,348,2748,-733,1313,2638,41,44,894
1259789,868440,835376,870319,837551,2313,1693,3271,-515,2596,-795,1193,1827,31,43,890
1260790,868608,835624,870516,837748,2177,1721,3257,-1467,2443,-966,1068,1575,31,43,890
1261791,868728,835876,870713,837945,2511,1673,3223,-2213,2313,-1157,518,2204,46,56,894
1262792,868876,836076,870910,838142,2357,1996,3159,-2737,2232,-1411,-508,2491,46,56,894
1263793,869036,836364,871107,838339,2300,1406,3078,-3106,2157,-1632,-814,2758,30,47,894
1264794,869152,836624,871304,838536,2610,1555,3005,-3322,2078,-1815,-761,3170,30,47,894
1265795,869284,836904,871501,838733,2540,1393,2942,-3481,1986,-1861,-970,3315,35,63,892
1266796,869416,837128,871698,838930,2568,1732,2895,-3469,1875,-1997,-914,3496,35,63,892
1267797,869544,837448,871895,839127,2624,1078,2897,-3477,1773,-2268,-493,3257,39,47,892
1268798,869652,837608,872092,839324,2789,2095,2905,-3470,1658,-2207,147,3238,39,47,892
1269799,869772,837768,872289,839521,2748,2111,2903,-3424,1539,-2257,799,3154,17,50,890
1270800,869884,837908,872486,839718,2836,2262,2878,-3405,1434,-2312,835,2998,17,50,890
1271801,869976,838060,872683,839915,3007,2207,2851,-3421,1341,-2080,670,2754,29,32,887
1272802,870068,838216,872880,840112,3054,2201,2832,-3489,1243,-2112,659,2521,29,32,887
1273803,870152,838420,873077,840309,3154,1898,2817,-3449,1132,-2173,976,2725,24,31,886
1274804,870240,838656,873274,840506,3178,1680,2767,-3325,1015,-2080,1316,2825,24,31,886
1275805,870344,838912,873471,840703,3119,1531,2687,-3128,951,-1899,1492,2934,31,46,884
1276806,870444,839116,873668,840900,3187,1852,2558,-2870,945,-1694,1505,3114,31,46,884
1277807,870560,839396,873865,841097,3124,1341,2376,-2569,955,-1348,1439,3037,39,56,888
1278808,870700,839676,874062,841294,2999,1306,1934,-2142,1035,-886,1240,2535,39,56,888
1279809,870836,839960,874259,841491,3052,1242,1665,-2083,1066,-497,1551,2309,34,60,885
1280810,870964,840240,874456,841688,3133,1231,1328,-1926,1080,-70,1847,2448,34,60,885
1281811,871076,840468,874653,841885,3270,1542,940,-1747,1076,264,2222,2665,39,63,890
1282812,871224,840736,874850,842082,3068,1262,523,-1481,1043,690,2239,2761,39,63,890
1283813,871344,841016,875047,842279,3278,1151,114,-1197,1006,1060,2318,2820,42,49,890
1284814,871492,841284,875244,842476,3124,1194,-288,-892,947,1343,2667,2921,42,49,890
1285815,871640,841572,875441,842673,3147,1029,-695,-631,837,1629,2900,2876,38,52,889
1286816,871768,841884,875638,842870,3303,830,-1093,-385,704,1906,2867,2809,38,52,889
1287817,871904,842188,875835,843067,3280,833,-1457,-188,566,2274,2787,2632,32,71,890
1288818,872076,842492,876032,843264,3067,786,-1769,-159,444,2609,2703,2151,32,71,890
1289819,872208,842756,876229,843461,3347,1006,-2050,-176,318,2832,2792,2109,40,52,890
1290820,872364,843020,876426,843658,3216,977,-2310,-176,174,3011,2880,2184,40,52,890
1291821,872528,843320,876623,843855,3181,707,-2542,-179,13,3246,2848,2356,29,61,891
1292822,872692,843592,876820,844052,3196,850,-2739,-125,-187,3421,2851,2483,29,61,891
1293823,872856,843836,877017,844249,3211,1004,-2904,39,-438,3529,3006,2897,46,47,890
1294824,873020,844048,877214,844446,3227,1197,-3093,390,-709,3657,3154,3505,46,47,890
1295825,873168,844236,877411,844643,3349,1351,-3283,861,-947,3721,3259,3862,24,37,891
1296827,873312,844460,877608,844840,3397,1114,-3466,1372,-1166,3671,3203,4136,24,37,891
1297828,873464,844660,877805,845037,3368,1263,-3610,1943,-1415,3487,2922,4359,34,41,889
1298829,873600,844844,878002,845234,3496,1369,-3728,2511,-1685,3175,2532,4522,34,41,889
1299830,873728,845024,878199,845431,3577,1401,-3819,3134,-1939,2907,2072,4539,40,31,888
1300831,873880,845204,878396,845628,3448,1409,-3888,3756,-2142,2714,1632,4596,40,31,888
1301832,873996,845384,878593,845825,3710,1416,-3930,4390,-2267,2402,1056,4726,39,31,886
1302832,874128,845560,878790,846022,3639,1451,-3953,4995,-2366,1984,556,4703,39,31,886
1303834,874284,845720,878987,846219,3507,1567,-3942,5525,-2504,1569,400,4422,29,34,885
1304835,874456,845876,879184,846416,3419,1610,-3901,5934,-2660,1244,433,4200,29,34,885
1305836,874612,846072,879381,846613,3538,1361,-3836,6267,-2788,1029,370,3968,27,44,885
1306837,874776,846252,879578,846810,3504,1469,-3733,6515,-2868,598,17,3671,27,44,885
1307838,874936,846452,879775,847007,3546,1342,-3594,6640,-2931,82,-170,3291,30,46,886
1308839,875084,846624,879972,847204,3644,1528,-3421,6550,-3012,-332,-181,2959,30,46,886
1309839,875220,846800,880169,847401,3746,1513,-3229,6416,-3104,-659,-154,2899,22,43,886
1310841,875368,846948,880366,847598,3694,1709,-3024,6250,-3185,-990,-225,2869,22,43,886
1311854,875496,847100,880563,847795,3800,1704,-2835,6102,-3255,-1352,-431,3132,24,37,884
1312855,875616,847272,880760,847992,3800,1590,-2649,6022,-3294,-1719,-765,3332,24,37,884
1313857,875752,847448,880957,848189,3800,1574,-2451,5891,-3285,-2074,-1411,3223,22,45,881
1314857,875888,847612,881154,848386,3800,1665,-2207,5620,-3234,-2449,-1873,2953,22,45,881
1315858,876024,847784,881351,848583,3800,1626,-1923,5204,-3149,-2886,-2084,2674,33,39,881
1316859,876168,847948,881548,848780,3800,1690,-1639,4651,-3046,-3124,-1884,2453,33,39,881
1317860,876324,848120,881745,848977,3800,1651,-1380,4058,-2987,-3238,-1416,2612,40,35,882
1318861,876464,848280,881942,849174,3800,1742,-1145,3544,-2961,-3537,-1287,2973,40,35,882
1319850,876648,848416,882139,849371,3695,1919,-946,3114,-2915,-3668,-1508,3359,33,43,882
1320863,876808,848568,882336,849568,3800,1840,-793,2737,-2818,-3669,-1873,3690,33,43,882
1321864,876968,848756,882533,849765,3800,1619,-613,2308,-2665,-3714,-1973,4126,42,37,882
1322865,877120,848924,882730,849962,3800,1757,986,1322,-2348,-4313,-1986,16127,42,37,882
1323866,877252,849100,882927,850159,3800,1716,3780,297,-2011,-2763,-1598,23231,40,37,882
1324867,877420,849272,883124,850356,3800,1752,4985,-65,-1698,-2307,-1691,7098,40,37,882
1325868,877572,849424,883321,850553,3800,1898,4631,-117,-1463,-2557,-1299,5062,35,39,880
1326869,877748,849540,883518,850750,3800,2158,3923,55,-1318,-2257,-712,5213,35,39,880
1327870,877912,849672,883715,850947,3800,2087,3510,-141,-1226,-2092,271,4259,40,43,882
1328871,878088,849824,883912,851144,3800,1982,3284,-425,-1199,-1466,620,4451,40,43,882
1329872,878248,849948,884109,851341,3800,2190,3051,-677,-1196,-966,825,4315,43,26,879
1330873,878428,850080,884306,851538,3800,2168,2696,-900,-1186,-512,1217,4796,43,26,879
1331874,878588,850164,884503,851735,3800,2518,2257,-831,-1133,282,1024,5111,42,36,881
1332875,878780,850276,884700,851932,3800,2380,1819,-926,-992,831,964,4579,42,36,881
1333876,878964,850376,884897,852129,3800,2499,1376,-984,-816,1198,975,5053,45,33,879
1334877,879128,850484,885094,852326,3800,2488,929,-1112,-671,1664,1207,4429,45,33,879
1335866,879336,850560,885291,852523,3765,2741,510,-1468,-575,1974,1310,3723,37,19,877
1336880,879520,850636,885488,852720,3800,2795,113,-1859,-527,2112,1374,3557,37,19,877
1337880,879716,850692,885685,852917,3800,2982,-249,-2359,-512,2055,1104,3046,26,26,875
1338882,879908,850756,885882,853114,3800,2992,-588,-2887,-480,2015,596,3168,26,26,875
1339876,880124,850852,886112,853344,3735,2851,-902,-3313,-415,1796,117,3221,31,28,876
1340883,880320,850928,886309,853541,3800,3029,-1171,-3778,-346,1483,-276,2944,31,28,876
1341871,880552,850984,886506,853738,3622,3217,-1404,-4179,-286,1209,-526,3017,54,13,873
1342872,880756,851064,886703,853935,3795,3118,-1588,-4580,-222,956,-572,2940,54,13,873
1343886,880952,851132,886900,854132,3800,3251,-1737,-4903,-164,815,-536,3327,45,13,874
1344875,881188,851200,887097,854329,3581,3309,-1848,-5012,-124,526,-550,3672,45,13,874
1345876,881404,851316,887294,854526,3699,3044,-1911,-5015,-98,91,-534,3809,37,31,873
1346877,881620,851408,887491,854723,3692,3241,-1949,-4863,-87,-247,-557,4308,37,31,873
1347877,881896,851508,887688,854920,3283,3234,-1932,-4633,-88,-593,-326,4463,45,19,871
1348879,882156,851604,887885,855117,3356,3304,-1862,-4432,-65,-685,-232,4341,45,19,871
1349880,882428,851712,888082,855314,3249,3269,-1740,-4212,-37,-772,-522,4325,65,18,874
1350880,882712,851804,888279,855511,3137,3416,-1592,-3920,-14,-1062,-1032,4519,65,18,874
1351881,882948,851904,888476,855708,3421,3409,-1418,-3503,-17,-1276,-963,4557,66,34,876
1352883,883236,852020,888673,855905,3057,3346,-1242,-3126,-23,-1213,-788,4573,66,34,876
1353883,883512,852116,888870,856102,3098,3516,-1050,-2736,-20,-1068,-718,4612,48,25,877
1354885,883748,852220,889067,856299,3332,3507,-832,-2386,-10,-1045,-584,4313,48,25,877
1355885,883968,852320,889264,856496,3423,3576,-579,-2129,-16,-911,-537,4048,54,29,878
1356887,884200,852440,889461,856693,3333,3485,-327,-1847,-50,-624,-527,4051,54,29,878
1357887,884448,852552,889658,856890,3212,3574,-67,-1649,-94,-380,-570,3629,56,33,873
1358888,884660,852696,889855,857087,3431,3398,213,-1630,-136,-99,-702,3097,56,33,873
1359889,884880,852796,890052,857284,3372,3716,491,-1720,-187,104,-716,2858,57,22,873
1360891,885084,852924,890249,857481,3470,3572,738,-1797,-237,340,-604,2896,57,22,873
1361892,885292,853072,890446,857678,3441,3470,927,-1828,-267,747,-459,3068,43,37,874
1362893,885492,853232,890643,857875,3491,3412,1091,-1792,-275,829,-460,3140,43,37,874
1363894,885700,853396,890840,858072,3437,3402,1243,-1720,-288,866,-578,3185,49,40,873
1364895,885892,853540,891037,858269,3540,3552,1389,-1656,-315,1092,-617,3103,49,40,873
1365896,886064,853708,891234,858466,3677,3415,1510,-1604,-352,1085,-763,3314,49,34,874
1366896,886280,853848,891431,858663,3395,3616,1592,-1424,-420,901,-851,3657,49,34,874
1367897,886464,854056,891628,858860,3602,3188,1630,-1174,-523,818,-761,3907,28,39,872
1368899,886668,854248,891825,859057,3475,3290,1627,-826,-652,823,-523,4235,28,39,872
1369900,886924,854440,892022,859254,3125,3293,1551,-328,-786,948,-355,4671,46,49,872
1370901,887180,854636,892219,859451,3100,3269,1461,102,-901,1044,-71,4317,46,49,872
1371902,887460,854804,892416,859648,2914,3458,1378,251,-992,1051,-178,3863,61,37,875
1372903,887748,855016,892613,859845,2825,3178,1233,618,-1069,974,-664,4570,61,37,875
1373903,888032,855240,892810,860042,2813,3092,1067,962,-1122,705,-288,4034,46,54,879
1374905,888296,855436,893007,860239,2910,3268,930,928,-1171,822,-82,3400,46,54,879
1375905,888612,855656,893204,860436,2533,3109,744,1004,-1228,998,-345,3687,59,38,881
1376907,888936,855856,893401,860633,2429,3234,565,870,-1250,759,-16,2763,59,38,881
1377908,889252,856060,893598,860830,2427,3207,435,417,-1254,968,281,2177,67,43,880
1378909,889644,856288,893795,861027,1867,3044,309,13,-1250,1160,404,2388,67,43,880
1379910,889980,856524,893992,861224,2157,2977,199,-519,-1189,840,414,1784,71,58,882
1380911,890324,856760,894189,861421,2043,2961,74,-1083,-1139,637,377,2016,71,58,882
1381912,890676,857012,894386,861618,1926,2838,-61,-1586,-1081,251,130,2003,59,63,886
1382913,891072,857292,894583,861815,1563,2627,-220,-1979,-976,-93,-222,2563,59,63,886
1383913,891420,857608,894780,862012,1798,2351,-410,-2127,-848,-399,-517,3110,72,51,888
1384914,891760,857888,894977,862209,1786,2540,-622,-2198,-705,-1092,-631,3220,73,60,892
1385915,892116,858148,895174,862406,1616,2639,-853,-2202,-564,-1352,-549,3815,73,60,892
1386916,892444,858424,895371,862603,1735,2504,-1073,-2127,-431,-1527,-380,3749,54,65,892
1387917,892740,858720,895568,862800,1892,2336,-1234,-2153,-327,-1978,-132,3266,54,65,892
1388918,893076,858960,895765,862997,1581,2669,-1360,-2254,-221,-2141,-166,3363,60,55,892
1389919,893368,859264,895962,863194,1815,2223,-1462,-2352,-71,-2227,-102,3341,60,55,892
1390920,893664,859548,896159,863391,1747,2310,-1539,-2495,131,-2360,-188,3257,69,50,891
1391921,893940,859792,896356,863588,1838,2540,-1593,-2640,354,-2449,-288,3206,69,50,891
1392922,894224,860040,896553,863785,1750,2493,-1612,-2912,601,-2510,-365,2857,56,58,893
1393924,894500,860272,896750,863982,1765,2579,-1616,-3118,887,-2431,-691,3217,56,58,893
1394925,894776,860540,896947,864179,1732,2323,-1598,-3358,1194,-2308,-1034,2879,54,56,891
1395925,895012,860788,897144,864376,1964,2426,-1537,-3694,1483,-2115,-1071,2723,54,56,891
1396926,895268,861016,897341,864573,1814,2539,-1466,-4046,1751,-1865,-817,2872,46,41,892
1397928,895548,861216,897538,864770,1628,2712,-1395,-4348,2007,-1681,-1018,3114,46,41,892
1398928,895800,861420,897735,864967,1779,2685,-1344,-4486,2255,-1462,-1321,3470,62,50,891
1399929,896024,861620,897932,865164,1943,2710,-1316,-4587,2496,-1208,-1332,3534,62,50,891
1400931,896308,861824,898129,865361,1530,2683,-1286,-4749,2714,-914,-1453,3444,47,50,889
1401932,896572,862044,898326,865558,1626,2573,-1284,-4847,2909,-621,-1723,3802,47,50,889
1402933,896856,862220,898523,865755,1463,2858,-1275,-4927,3094,-393,-1689,3864,49,49,889
1403933,897148,862420,898720,865952,1371,2708,-1263,-4985,3243,-78,-1587,3976,49,49,889
1404935,897388,862612,898917,866149,1677,2760,-1283,-4929,3355,272,-1451,4408,47,48,890
1405935,897656,862848,899114,866346,1472,2469,-1337,-4810,3457,500,-1578,4782,47,48,890
1406936,897960,863028,899311,866543,1200,2827,-1427,-4606,3543,606,-1753,5014,56,52,890
