"Data file recorded 2014/9/24  18:10:37"
"%  Right Stride Frequency         = 3.0"
"%  Left Stride Frequency         = 3.0"
"%  Phase (Fractional)         = 32768.0"
"%  Experiment.py "
"%  Motor Gains    = [1800, 200, 100, 0, 0, 1800, 200, 100, 0, 0]
"% Columns: "
"% time | Right Leg Pos | Left Leg Pos | Commanded Right Leg Pos | Commanded Left Leg Pos | DCR | DCL | GyroX | GryoY | GryoZ | AX | AY | AZ | RBEMF | LBEMF | VBatt "
11935,8276620,8711664,8297538,8723522,3800,3800,-134,-704,309,315,-569,4071,-11,-10,887
12929,8276632,8711676,8297735,8723719,3800,3800,-137,-705,309,321,-558,4068,9,6,887
13930,8276708,8711716,8297932,8723916,3800,3800,-138,-698,308,315,-594,4062,9,6,887
14931,8276828,8711884,8298129,8724113,3800,3800,-122,-658,300,451,-678,4233,9,31,843
15932,8277004,8712096,8298326,8724310,3800,3800,-64,-590,255,663,-498,4866,9,31,843
16933,8277216,8712320,8298523,8724507,3800,3800,20,-522,225,44,-250,5035,31,38,845
17934,8277512,8712548,8298720,8724704,3800,3800,103,-561,176,497,-242,5207,31,38,845
18936,8277832,8712772,8298917,8724901,3800,3800,174,-574,4,1573,-232,5293,51,50,846
19936,8278168,8713036,8299114,8725098,3800,3800,223,-574,-101,548,620,5086,51,50,846
20937,8278544,8713296,8299311,8725295,3800,3800,224,-639,-101,278,-696,4476,72,43,847
21938,8279004,8713544,8299508,8725492,3800,3800,287,-622,-177,882,142,6017,72,43,847
22939,8279404,8713788,8299705,8725689,3800,3800,339,-591,-310,685,795,5759,92,54,847
23940,8279824,8713988,8299902,8725886,3800,3800,343,-671,-331,-645,-468,4867,92,54,847
24941,8280316,8714192,8300099,8726083,3800,3800,374,-850,-349,-662,-50,5309,106,45,847
25942,8280784,8714376,8300296,8726280,3800,3800,408,-1051,-433,-747,202,4509,106,45,847
26943,8281280,8714544,8300493,8726477,3800,3800,460,-1205,-637,-221,1200,5008,92,31,847
27944,8281792,8714684,8300690,8726674,3800,3800,507,-1183,-916,59,1089,5462,92,31,847
28945,8282292,8714792,8300887,8726871,3800,3800,537,-1101,-1221,243,1045,5162,104,38,847
29946,8282796,8714884,8301084,8727068,3800,3800,592,-1086,-1554,821,-36,5081,104,38,847
30947,8283356,8714964,8301281,8727265,3800,3800,716,-1084,-1847,1020,-163,5825,95,22,846
31948,8283888,8715040,8301478,8727462,3800,3800,841,-1063,-2086,1094,62,5312,95,22,846
32949,8284420,8715096,8301675,8727659,3800,3800,939,-1043,-2229,503,724,5552,106,10,847
33950,8285040,8715144,8301872,8727856,3800,3800,1024,-997,-2400,1457,629,5043,106,10,847
34951,8285572,8715168,8302069,8728053,3800,3800,1012,-1060,-2474,1021,-457,4593,100,21,847
35953,8286156,8715212,8302266,8728250,3800,3800,1107,-942,-2460,1184,-734,5987,100,21,847
36954,8286808,8715256,8302463,8728447,3800,3800,1140,-1006,-2518,1789,23,4687,106,10,845
37955,8287392,8715284,8302660,8728644,3800,3800,1203,-1018,-2651,1613,1170,4495,106,10,845
38956,8288016,8715320,8302857,8728841,3800,3800,1261,-1020,-2774,819,-94,4794,124,23,845
39957,8288624,8715340,8303054,8729038,3800,3800,1246,-940,-2831,761,971,4232,124,23,845
40945,8289312,8715364,8303251,8729235,3160,3800,1164,-1108,-2858,970,678,2219,129,16,847
41945,8289976,8715388,8303448,8729432,3108,3800,1085,-1315,-2863,1199,53,3697,129,16,847
42947,8290636,8715424,8303645,8729629,2931,3800,1162,-1268,-2892,1562,-209,5067,123,5,847
43948,8291420,8715464,8303842,8729826,1901,3800,1177,-1372,-2983,1627,817,2562,123,5,847
44949,8292116,8715500,8304039,8730023,2234,3800,1086,-1618,-2997,417,361,1923,146,25,851
45950,8292812,8715560,8304236,8730220,2017,3800,1025,-1873,-2873,-738,-730,3213,146,25,851
46951,8293588,8715644,8304433,8730417,1265,3800,954,-2083,-2680,-1266,-1178,1667,147,16,857
47952,8294272,8715696,8304630,8730614,1628,3800,872,-2401,-2623,-392,-198,1888,147,16,857
48953,8295000,8715772,8304827,8730811,1122,3800,809,-2541,-2690,-247,-260,2791,134,29,855
49954,8295784,8715860,8305024,8731008,516,3800,648,-2753,-2719,-1347,-148,824,134,29,855
50955,8296528,8715960,8305221,8731205,527,3800,399,-3037,-2729,-1526,-941,580,129,17,858
51956,8297224,8716084,8305418,8731402,609,3800,206,-3172,-2780,-608,-1408,2275,129,17,858
52957,8297936,8716220,8305615,8731599,285,3800,21,-3337,-2817,-1104,-1621,1560,125,27,862
53958,8298548,8716408,8305812,8731796,729,3800,-255,-3515,-2868,-622,-2865,1179,125,27,862
54959,8299192,8716588,8306009,8731993,333,3800,-582,-3642,-2742,-1596,-4315,1203,126,34,861
55960,8299772,8716800,8306206,8732190,567,3800,-835,-3495,-2534,-847,-4461,2989,126,34,861
56961,8300380,8717036,8306403,8732387,212,3800,-1164,-3192,-2523,1448,-4285,1609,126,45,862
57962,8300932,8717252,8306600,8732584,407,3800,-1498,-3191,-2295,-1941,-3473,961,126,45,862
58963,8301416,8717516,8306797,8732781,707,3800,-1591,-3091,-1880,-1987,-3819,3958,119,50,861
59964,8301880,8717812,8306994,8732978,716,3800,-1510,-2959,-1676,245,-2181,4077,119,50,861
60965,8302340,8718080,8307191,8733175,626,3800,-1493,-3106,-1543,-545,-170,1790,89,61,862
61966,8302736,8718428,8307388,8733372,940,3800,-1532,-3508,-1326,-1022,-897,1679,89,61,862
62967,8303140,8718752,8307585,8733569,800,3800,-1519,-3939,-1146,-126,-2376,3045,74,64,864
63968,8303496,8719048,8307782,8733766,1031,3800,-1411,-4209,-945,-979,-722,2941,74,64,864
64968,8303820,8719404,8307979,8733963,1176,3800,-1362,-4564,-728,-1213,-1055,2018,61,77,863
65969,8304144,8719720,8308176,8734160,1120,3800,-1270,-4585,-510,-1299,-2437,3994,61,77,863
66971,8304428,8720024,8308373,8734357,1333,3800,-1056,-4589,-252,-1691,-1049,4625,51,59,862
67971,8304688,8720296,8308570,8734554,1456,3800,-748,-4614,79,-1746,-55,4492,51,59,862
68973,8304932,8720536,8308767,8734751,1537,3800,-379,-4730,492,-1953,-41,5012,53,56,861
69974,8305144,8720792,8308964,8734948,1730,3800,26,-4851,886,-1605,-863,5218,53,56,861
70975,8305360,8721052,8309161,8735145,1698,3800,408,-5034,1275,-1145,-1250,4635,61,52,858
71976,8305552,8721296,8309358,8735342,1851,3800,735,-5322,1769,-1691,355,4241,61,52,858
72977,8305712,8721512,8309555,8735539,2068,3800,828,-5876,2150,-123,-1381,1951,34,53,858
73978,8305884,8721732,8309752,8735736,2004,3800,807,-6431,2001,6236,-1714,3509,34,53,858
74979,8306060,8721936,8309949,8735933,1990,3800,835,-6144,741,16892,3648,7724,43,38,857
75980,8306240,8722176,8310146,8736130,1973,3800,1043,-5209,225,4133,932,9560,43,38,857
76981,8306400,8722372,8310343,8736327,2115,3800,1113,-4782,826,-2294,1033,4932,27,45,856
77982,8306516,8722564,8310540,8736524,2426,3800,884,-5394,1715,-760,981,-140,27,45,856
78983,8306676,8722740,8310737,8736721,2168,3800,729,-5682,2104,3646,978,6036,39,41,855
79984,8306788,8722928,8310934,8736918,2506,3800,794,-5031,2203,3128,321,8773,39,41,855
80985,8306920,8723112,8311131,8737115,2411,3800,764,-4434,2351,1416,54,4864,26,44,850
81986,8307080,8723296,8311328,8737312,2252,3800,594,-4121,2459,2522,-914,4483,26,44,850
82987,8307224,8723504,8311525,8737509,2377,3800,474,-3571,2491,2663,-3572,7022,31,42,851
83988,8307348,8723676,8311722,8737706,2535,3800,460,-2697,2531,1438,83,7800,31,42,851
84989,8307476,8723876,8311919,8737903,2541,3800,398,-2054,2524,1320,2810,5708,20,43,854
85990,8307580,8724072,8312116,8738100,2733,3800,239,-1751,2454,1950,1986,5061,20,43,854
86991,8307688,8724256,8312313,8738297,2748,3800,77,-1380,2337,1747,709,6273,17,34,852
87991,8307816,8724432,8312510,8738494,2653,3800,-39,-994,2246,941,891,6118,17,34,852
88993,8307920,8724608,8312707,8738691,2845,3800,-101,-809,2143,1254,714,5373,17,46,850
89993,8308020,8724812,8312904,8738888,2914,3800,-67,-802,2041,784,197,6045,17,46,850
90995,8308116,8724988,8313101,8739085,2984,3800,5,-875,1926,1018,488,6115,32,31,850
91996,8308220,8725164,8313298,8739282,2976,3800,33,-978,1747,1804,952,5916,32,31,850
92997,8308372,8725364,8313495,8739479,2697,3800,56,-1050,1623,1485,475,6459,31,40,847
94005,8308500,8725520,8313922,8739906,2979,3800,48,-1194,1535,1297,482,5857,31,40,847
94999,8308640,8725676,8314119,8740103,2930,3800,3,-1337,1527,494,-482,5833,40,41,849
96000,8308768,8725844,8314316,8740300,3037,3800,-34,-1219,1478,1011,-745,7196,40,41,849
97001,8308900,8725984,8314513,8740497,3041,3800,-85,-1138,1423,473,-1466,5796,24,32,849
98001,8309040,8726148,8314710,8740694,3017,3800,-129,-1262,1342,485,-829,4959,24,32,849
99003,8309144,8726308,8314907,8740891,3284,3800,-167,-1563,1264,292,-1309,4411,19,36,849
100003,8309260,8726448,8315104,8741088,3246,3800,-172,-1738,1230,531,-1047,4870,19,36,849
101005,8309400,8726584,8315301,8741285,3123,3800,-205,-1856,1215,1165,-1830,4117,29,26,847
102006,8309520,8726724,8315498,8741482,3283,3800,-278,-1900,1179,1355,-2388,3855,29,26,847
103007,8309684,8726848,8315695,8741679,3023,3800,-322,-1613,1123,1013,-2331,5998,21,24,844
104008,8309888,8727004,8315892,8741876,2771,3800,-419,-1300,1078,822,-2859,4275,21,24,844
105009,8310072,8727144,8316089,8742073,2903,3800,-609,-1082,1076,477,-2617,4226,39,33,846
106010,8310244,8727276,8316286,8742270,2990,3800,-872,-888,1144,-828,-1856,3951,39,33,846
107011,8310420,8727440,8316483,8742467,2975,3800,-1196,-838,1226,-1217,-423,2979,43,38,850
108012,8310572,8727624,8316680,8742664,3147,3800,-1433,-815,1240,-660,94,3714,43,38,850
109012,8310732,8727812,8316877,8742861,3114,3800,-1487,-865,1184,-354,-545,4147,48,28,849
110014,8310928,8728004,8317074,8743058,2890,3800,-1367,-1204,1100,-274,84,3595,48,28,849
111015,8311164,8728188,8317271,8743255,2624,3800,-1210,-1750,986,-187,1069,2976,54,31,848
112016,8311356,8728392,8317468,8743452,2902,3800,-1114,-2195,928,-856,344,3358,54,31,848
113016,8311552,8728588,8317665,8743649,2879,3800,-1017,-2310,937,-1084,-1347,4377,37,40,850
114018,8311732,8728804,8317862,8743846,2988,3800,-924,-2307,871,-451,-1113,4328,37,40,850
115019,8311924,8729096,8318059,8744043,2917,3800,-825,-2256,677,977,-191,3987,51,51,849
116020,8312108,8729360,8318256,8744240,2973,3800,-805,-2282,495,1124,-210,2762,51,51,849
117021,8312332,8729624,8318453,8744437,2712,3800,-687,-2308,547,-527,172,3697,39,49,850
118022,8312576,8729864,8318650,8744634,2568,3800,-480,-2357,703,-91,190,3650,39,49,850
119023,8312796,8730136,8318847,8744831,2709,3800,-363,-2512,719,1283,-143,2349,49,60,851
120023,8313052,8730400,8319044,8745028,2460,3800,-314,-2653,758,-83,-1960,2423,49,60,851
121025,8313300,8730708,8319241,8745225,2488,3800,-207,-2518,792,374,-5031,4085,48,46,853
122025,8313532,8730956,8319438,8745422,2574,3800,0,-2138,548,2069,-1015,4878,48,46,853
123027,8313800,8731224,8319635,8745619,2319,3800,63,-2101,425,-320,730,1707,49,54,853
124028,8314068,8731464,8319832,8745816,2289,3800,-4,-2332,540,-297,758,1475,49,54,853
125029,8314328,8731736,8320029,8746013,2312,3800,-77,-2240,681,-14,63,3463,60,63,852
126030,8314620,8732096,8320226,8746210,2071,3800,-111,-1976,769,-213,-962,3380,60,63,852
127031,8314856,8732412,8320423,8746407,2405,3800,-172,-1640,768,681,-1491,3607,68,61,853
128032,8315156,8732700,8320620,8746604,1961,3800,-189,-1245,830,27,-1889,3824,68,61,853
129033,8315432,8733084,8320817,8746801,2077,3800,-211,-1181,830,1158,-232,2022,54,61,857
130034,8315728,8733492,8321014,8746998,1909,3800,-271,-1310,757,1483,-444,1007,54,61,857
131035,8316004,8733892,8321211,8747195,2001,3800,-257,-1196,820,-479,577,4259,64,70,858
132035,8316232,8734388,8321408,8747392,2288,3800,-195,-839,841,1144,635,3596,64,70,858
133036,8316532,8734896,8321605,8747589,1794,3800,-205,-870,714,2210,-48,902,61,80,859
134038,8316832,8735372,8321802,8747786,1750,3800,-186,-1025,601,1218,-261,1996,61,80,859
135026,8317096,8735892,8321999,8747983,1946,3621,-94,-738,698,-548,-1102,4333,52,93,857
136027,8317388,8736460,8322196,8748180,1730,3160,-106,-455,794,1015,-1103,2188,52,93,857
137028,8317632,8737008,8322393,8748377,2011,3134,-213,-341,643,3540,-1004,1636,49,102,859
138029,8317900,8737708,8322590,8748574,1831,1965,-227,111,566,1477,-563,4564,49,102,859
139030,8318236,8738268,8322787,8748771,1345,2682,-266,449,653,714,324,2039,58,108,866
140031,8318524,8738948,8322984,8748968,1606,1722,-377,378,706,1811,483,-77,58,108,866
141032,8318812,8739564,8323181,8749165,1567,1940,-446,518,745,1539,505,3764,53,124,872
142033,8319124,8740240,8323378,8749362,1368,1356,-414,931,812,1587,-1016,3041,53,124,872
143034,8319428,8740900,8323575,8749559,1371,1254,-401,1107,905,1786,-2318,1480,64,114,874
144035,8319720,8741496,8323772,8749756,1405,1480,-356,1241,1039,549,-239,2509,64,114,874
145036,8320012,8742136,8323969,8749953,1364,1012,-408,1139,1145,1051,-56,456,72,121,876
146037,8320320,8742688,8324166,8750150,1217,1408,-477,1188,1170,1719,-1409,1130,72,121,876
147038,8320656,8743364,8324363,8750347,981,423,-389,1529,1171,899,-226,4080,73,114,875
148039,8320960,8743944,8324560,8750544,1135,857,-234,1866,1247,-231,-665,2058,73,114,875
149040,8321272,8744604,8324757,8750741,1035,154,-184,1781,1214,1324,-232,32,71,106,876
150041,8321584,8745152,8324954,8750938,984,701,-140,1639,1128,1363,-575,1071,71,106,876
151042,8321860,8745688,8325151,8751135,1176,628,-4,1633,1038,1278,29,1353,76,119,880
152043,8322204,8746248,8325348,8751332,687,320,149,1553,972,1348,-60,158,76,119,880
153044,8322520,8746736,8325545,8751529,810,643,248,1585,888,1766,-528,454,64,108,881
154044,8322768,8747256,8325742,8751726,1213,302,346,1665,783,1754,185,356,64,108,881
155046,8323036,8747772,8325939,8751923,1057,188,485,1967,750,1157,411,1815,75,99,883
156047,8323344,8748108,8326136,8752120,759,1253,588,2118,746,1513,-493,38,75,99,883
157048,8323620,8748608,8326333,8752317,926,95,601,2297,686,2002,-950,319,63,78,881
158049,8323888,8749052,8326530,8752514,945,337,572,2537,610,1154,-705,660,63,78,881
159050,8324132,8749420,8326727,8752711,1075,738,450,2779,474,886,-398,-344,44,73,878
160051,8324376,8749756,8326924,8752908,1054,878,311,3021,340,80,-649,-177,44,73,878
161052,8324656,8750136,8327121,8753105,794,522,306,3355,357,-835,-647,1871,47,75,882
162053,8324908,8750504,8327318,8753302,945,523,404,3681,349,95,-333,1901,47,75,882
163054,8325104,8750812,8327515,8753499,1295,849,540,3633,322,-92,635,927,46,74,880
164055,8325376,8751148,8327712,8753696,788,614,629,3196,273,-358,533,-288,46,74,880
165056,8325624,8751560,8327909,8753893,916,45,753,2630,228,-320,-412,775,46,63,881
166056,8325828,8751892,8328106,8754090,1189,486,963,2461,179,248,-445,3632,46,63,881
167058,8326080,8752148,8328303,8754287,864,935,986,2240,152,-449,-87,235,45,62,882
168059,8326352,8752352,8328500,8754484,707,1258,782,2120,126,-243,423,1633,45,62,882
169060,8326576,8752560,8328697,8754681,996,1229,464,2419,48,289,152,3402,38,52,880
170061,8326812,8752800,8328894,8754878,903,1010,119,2869,-36,-726,-784,3415,38,52,880
171062,8327084,8753020,8329091,8755075,646,1126,-182,3302,-145,-1097,-610,4265,43,49,878
172063,8327304,8753216,8329288,8755272,961,1276,-424,3582,-359,-1009,1438,3761,43,49,878
173064,8327536,8753368,8329485,8755469,872,1572,-721,3501,-648,-1341,705,3626,39,27,879
174065,8327824,8753532,8329682,8755666,482,1511,-922,3601,-896,-1223,-17,6536,39,27,879
175066,8328056,8753676,8329879,8755863,817,1660,-858,3042,-1143,-1102,264,3774,38,27,878
176067,8328312,8753828,8330076,8756060,642,1630,-563,1848,-1382,-799,-1559,3921,38,27,878
177075,8328556,8753956,8330306,8756290,711,1825,-219,814,-1661,-468,1605,5088,47,19,878
178069,8328784,8754088,8330503,8756487,797,1830,39,-74,-1905,-1236,2626,4091,47,19,878
179070,8328984,8754216,8330700,8756684,972,1885,339,-1222,-2051,-1443,1674,4512,38,31,877
180071,8329220,8754316,8330897,8756881,729,2104,732,-2379,-2150,-165,500,5268,38,31,877
181072,8329396,8754440,8331094,8757078,1114,1986,975,-3407,-2077,-1084,-22,4574,38,27,874
182073,8329600,8754560,8331291,8757275,937,2046,1008,-3975,-1989,-88,1359,5218,38,27,874
183074,8329784,8754672,8331488,8757472,1067,2133,821,-3822,-1935,974,1630,6273,48,24,874
184075,8329988,8754748,8331685,8757669,939,2412,455,-3402,-1868,1499,574,4551,48,24,874
185076,8330164,8754864,8331882,8757866,1124,2198,18,-2581,-1738,2155,-135,7175,27,24,872
186077,8330340,8754964,8332079,8758063,1134,2341,-397,-1737,-1578,2793,-10,7462,27,24,872
187078,8330504,8755068,8332276,8758260,1223,2357,-740,-1369,-1310,2348,-84,6289,29,21,871
188079,8330660,8755172,8332473,8758457,1292,2399,-1031,-1699,-876,2000,-1027,4369,29,21,871
189080,8330816,8755284,8332670,8758654,1310,2387,-1139,-2183,-490,3105,-1197,6693,34,23,871
190081,8330948,8755360,8332867,8758851,1489,2666,-1047,-2172,-206,4780,-3298,9612,34,23,871
191082,8331068,8755464,8333064,8759048,1599,2533,-971,-2029,-20,5977,-2584,7587,14,9,868
192083,8331192,8755556,8333261,8759245,1606,2654,-984,-1730,208,5804,-3416,8678,14,9,868
193084,8331328,8755672,8333458,8759442,1558,2540,-969,-1264,525,5824,-3598,9752,25,9,864
194085,8331480,8755772,8333655,8759639,1478,2684,-967,-791,840,5877,-2472,9820,25,9,864
195086,8331616,8755904,8333852,8759836,1605,2513,-969,-328,1269,5030,-3407,10423,40,28,866
196087,8331824,8756020,8334049,8760033,1151,2649,-854,-239,1875,4720,-4574,9273,40,28,866
197088,8331988,8756136,8334246,8760230,1441,2686,-670,-551,2377,4574,-3577,7393,41,19,866
198088,8332144,8756228,8334443,8760427,1510,2883,-507,-941,2685,4458,-3807,6911,41,19,866
199090,8332260,8756364,8334640,8760624,1795,2636,-329,-1114,2889,4635,-3879,7490,38,19,868
200091,8332412,8756480,8334837,8760821,1590,2797,-76,-994,3044,4990,-3037,9070,38,19,868
201092,8332568,8756580,8335034,8761018,1584,2940,290,-657,3173,4745,-3107,10072,16,16,865
202093,8332696,8756716,8335231,8761215,1790,2743,685,-229,3381,2891,-3453,9484,16,16,865
203094,8332844,8756828,8335428,8761412,1687,2931,898,-141,3593,2917,-2896,5524,17,29,863
204095,8332972,8756964,8335625,8761609,1842,2809,960,-140,3827,2531,-1170,5119,17,29,863
205096,8333104,8757088,8335822,8761806,1847,2917,1110,155,4088,1515,-2759,7269,29,16,864
206097,8333272,8757200,8336019,8762003,1635,3030,1388,222,4133,1631,-1560,6104,29,16,864
207098,8333420,8757368,8336216,8762200,1782,2694,1517,-802,3966,-536,-612,114,20,32,864
208099,8333568,8757512,8336413,8762397,1804,2868,1810,-1803,3593,-239,-818,6459,20,32,864
209100,8333720,8757664,8336610,8762594,1800,2839,2196,-2201,2942,1239,398,7494,40,37,864
210101,8333856,8757836,8336807,8762791,1927,2725,2140,-2560,2162,-362,2091,1912,40,37,864
211102,8334024,8758060,8337004,8762988,1740,2389,1833,-2673,1431,326,3172,3440,21,32,864
212103,8334220,8758332,8337201,8763185,1567,2057,1554,-2099,810,1599,4665,5290,21,32,864
213104,8334400,8758596,8337398,8763382,1674,2079,1216,-1467,406,1425,3872,2746,39,53,864
214105,8334564,8758856,8337595,8763579,1789,2077,896,-1132,152,951,2281,2921,39,53,864
215106,8334764,8759184,8337792,8763776,1563,1595,721,-662,46,259,299,4874,39,64,869
216107,8334956,8759500,8337989,8763973,1616,1619,594,-197,239,-871,-2166,3626,39,64,869
217108,8335140,8759780,8338186,8764170,1673,1809,415,-87,543,129,-1187,1959,47,57,869
218109,8335288,8760064,8338383,8764367,1920,1746,355,-145,677,1994,100,3718,47,57,869
219110,8335500,8760332,8338580,8764564,1514,1815,376,-429,605,3090,174,2414,46,47,873
220111,8335684,8760600,8338777,8764761,1695,1785,367,-905,513,2855,833,1004,46,47,873
221112,8335864,8760876,8338974,8764958,1728,1701,420,-1209,536,2270,1558,3198,33,65,871
222113,8336064,8761160,8339171,8765155,1602,1614,466,-1223,616,2118,590,3460,33,65,871
223114,8336272,8761432,8339368,8765352,1548,1657,462,-1296,643,1623,93,1831,52,65,872
224115,8336472,8761700,8339565,8765549,1598,1651,452,-1419,680,441,1263,3078,52,65,872
225116,8336668,8762004,8339762,8765746,1623,1380,489,-1530,715,-66,1062,3747,32,63,872
226117,8336852,8762324,8339959,8765943,1705,1227,506,-1788,687,-297,841,2855,32,63,872
227118,8337012,8762588,8340156,8766140,1871,1547,460,-2048,554,513,581,3065,30,49,873
228119,8337204,8762848,8340353,8766337,1674,1546,326,-2246,370,864,251,3158,30,49,873
229120,8337388,8763072,8340550,8766534,1731,1760,134,-2250,203,635,2005,3290,29,45,874
230121,8337568,8763280,8340747,8766731,1764,1855,-119,-2266,95,576,1489,2640,29,45,874
231122,8337764,8763472,8340944,8766928,1665,1958,-336,-2240,28,827,1045,3100,35,34,872
232123,8337940,8763656,8341141,8767125,1799,2015,-479,-2103,-8,1188,222,3368,35,34,872
233124,8338092,8763844,8341338,8767322,1970,1994,-555,-2023,-83,1614,-94,2815,43,25,871
234125,8338256,8764016,8341535,8767519,1910,2106,-549,-1870,-242,2202,2296,3553,43,25,871
235126,8338416,8764184,8341732,8767716,1952,2145,-522,-1738,-365,1983,1757,3080,24,35,868
236127,8338564,8764348,8341929,8767913,2049,2184,-464,-1633,-382,2222,1321,3870,24,35,868
237128,8338700,8764528,8342126,8768110,2152,2093,-470,-1700,-217,1063,-2855,2226,40,35,867
238129,8338840,8764696,8342323,8768307,2152,2181,-533,-1923,-73,1876,442,1400,40,35,867
239130,8338956,8764864,8342520,8768504,2339,2194,-546,-1887,43,2748,2918,3840,21,34,867
240131,8339068,8765056,8342717,8768701,2402,2047,-650,-1532,357,2000,-3015,3081,21,34,867
241132,8339244,8765260,8342914,8768898,2011,1970,-866,-1175,672,2395,-2345,2037,42,34,867
242133,8339452,8765460,8343111,8769095,1807,1995,-1056,-719,788,2518,1481,3429,42,34,867
243134,8339612,8765688,8343308,8769292,2125,1806,-1070,-22,845,2200,1819,5726,49,49,866
244135,8339800,8765892,8343505,8769489,1954,1954,-1039,920,994,1731,-904,5990,49,49,866
245136,8339960,8766112,8343702,8769686,2146,1845,-1210,1693,1134,1998,-4331,3415,28,36,870
246137,8340148,8766356,8343899,8769883,1976,1674,-1435,2327,1041,2171,2115,4301,28,36,870
247138,8340344,8766608,8344096,8770080,1926,1601,-1505,3096,878,1700,2582,5931,51,58,868
248138,8340504,8766904,8344293,8770277,2169,1284,-1503,3835,892,455,-2324,4747,51,58,868
249140,8340668,8767292,8344490,8770474,2159,625,-1629,4179,941,146,-722,1986,50,58,870
250141,8340852,8767484,8344687,8770671,2041,1853,-2060,3608,840,-640,1404,-3386,50,58,870
251142,8341028,8767664,8344884,8770868,2100,1936,-2296,3270,765,-1459,-739,2884,43,55,871
252143,8341184,8767876,8345081,8771065,2244,1730,-2054,3709,660,-439,-1446,6540,43,55,871
253144,8341360,8768108,8345278,8771262,2129,1591,-1870,3805,476,-456,224,1117,41,35,869
254145,8341536,8768416,8345475,8771459,2140,1067,-1855,3668,308,-210,2830,1948,41,35,869
255146,8341732,8768716,8345672,8771656,2015,1072,-1740,3881,231,39,1885,4896,52,46,868
256147,8341916,8769052,8345869,8771853,2097,786,-1518,4107,299,-546,88,3489,52,46,868
257148,8342112,8769312,8346066,8772050,2023,1235,-1330,4018,440,-419,486,2160,36,66,871
258149,8342308,8769556,8346263,8772247,2025,1315,-1179,3947,632,-359,-180,3451,36,66,871
259150,8342508,8769880,8346460,8772444,1998,759,-1062,3951,892,-484,-1810,2779,38,64,873
260160,8342712,8770192,8346690,8772674,1986,799,-948,4003,1093,69,-421,3539,38,64,873
261152,8342900,8770532,8346887,8772871,2091,561,-979,4064,1192,-1085,-572,2716,38,72,872
262153,8343088,8770848,8347084,8773068,2096,659,-945,3960,1099,-121,-1030,3773,38,72,872
263154,8343324,8771116,8347281,8773265,1778,929,-931,3563,841,33,-1592,2726,39,59,875
264155,8343524,8771316,8347478,8773462,2003,1353,-1037,2996,602,-1227,-2659,2313,39,59,875
265156,8343720,8771548,8347675,8773659,2030,1138,-1125,2707,451,-2120,-2282,4865,44,55,875
266157,8343948,8771732,8347872,8773856,1817,1444,-1155,2572,377,-3665,-2332,4411,44,55,875
267158,8344152,8771920,8348069,8774053,1964,1423,-1126,2294,324,-4733,-2867,5206,41,28,872
268159,8344348,8772080,8348266,8774250,2015,1615,-991,2047,159,-4330,-2988,7363,41,28,872
269160,8344540,8772248,8348463,8774447,2043,1578,-888,1513,-178,-3790,-2209,5660,44,26,871
270161,8344748,8772424,8348660,8774644,1940,1538,-905,1003,-661,-2460,-2438,6092,44,26,871
271162,8344936,8772600,8348857,8774841,2069,1547,-1088,1219,-1238,-896,-175,7832,51,42,870
272163,8345116,8772772,8349054,8775038,2127,1584,-1378,1936,-1683,-1219,2033,6903,51,42,870
273164,8345304,8772988,8349251,8775235,2082,1301,-1480,2153,-1756,-3172,-640,5665,41,39,871
274165,8345464,8773240,8349448,8775432,2274,1052,-1190,1478,-1576,-2780,-3294,5866,41,39,871
275166,8345612,8773468,8349645,8775629,2371,1189,-685,216,-1427,-847,-3567,5627,34,37,870
276167,8345804,8773720,8349842,8775826,2099,1015,-203,-1056,-1324,-339,-2920,4829,34,37,870
277168,8345976,8773924,8350039,8776023,2236,1313,164,-1853,-1209,156,-1844,4839,27,43,872
278169,8346124,8774096,8350236,8776220,2409,1524,426,-2304,-1083,301,-3700,4633,27,43,872
279170,8346276,8774280,8350433,8776417,2403,1455,612,-2379,-966,-331,-4094,5334,44,30,871
280171,8346404,8774488,8350630,8776614,2585,1301,649,-2293,-910,-627,-3684,4552,44,30,871
281172,8346540,8774676,8350827,8776811,2562,1430,603,-1869,-976,-36,-3541,5971,19,40,867
282173,8346664,8774872,8351024,8777008,2671,1381,591,-1313,-1069,-902,-2458,6396,19,40,867
283174,8346804,8775024,8351221,8777205,2597,1676,574,-1123,-1094,-1429,-1915,4177,16,35,868
284175,8346916,8775180,8351418,8777402,2810,1669,637,-1300,-1155,-514,-1800,5423,16,35,868
285176,8347044,8775328,8351615,8777599,2740,1741,794,-1682,-1312,-87,-1818,5268,20,24,867
286177,8347176,8775456,8351812,8777796,2745,1897,920,-2094,-1466,120,-732,4917,20,24,867
287177,8347316,8775600,8352009,8777993,2721,1821,965,-2330,-1565,719,-994,5382,34,22,864
288179,8347452,8775736,8352206,8778190,2774,1898,883,-2214,-1704,1592,-440,5176,34,22,864
289179,8347620,8775904,8352403,8778387,2587,1712,706,-1805,-1815,1471,170,5111,42,38,864
290181,8347772,8776068,8352600,8778584,2708,1751,478,-1198,-1813,985,-627,5088,42,38,864
291182,8347940,8776232,8352797,8778781,2622,1767,287,-559,-1724,1497,-283,5152,45,34,863
292183,8348128,8776352,8352994,8778978,2502,2076,183,-236,-1640,1830,-573,4243,45,34,863
293184,8348296,8776512,8353191,8779175,2641,1843,255,-289,-1587,1588,-432,3940,25,27,865
294185,8348460,8776632,8353388,8779372,2681,2127,453,-627,-1548,1625,-1526,3606,25,27,865
295186,8348632,8776736,8353585,8779569,2642,2268,649,-975,-1478,1590,-1010,3183,29,21,864
296187,8348824,8776860,8353782,8779766,2520,2176,760,-1142,-1392,1763,-461,2945,29,21,864
297188,8349008,8776976,8353979,8779963,2577,2262,778,-1109,-1353,1878,-210,2789,43,17,863
298189,8349240,8777084,8354176,8780160,2263,2351,764,-855,-1309,1149,-69,3233,43,17,863
299190,8349428,8777192,8354373,8780357,2543,2391,748,-493,-1255,941,547,3281,47,24,863
300191,8349640,8777324,8354570,8780554,2387,2271,682,-143,-1224,1219,152,2617,47,24,863
301192,8349884,8777464,8354767,8780751,2167,2246,613,197,-1203,1290,156,3334,46,17,863
302193,8350108,8777604,8354964,8780948,2281,2272,575,481,-1160,1013,-26,3379,46,17,863
303194,8350316,8777748,8355161,8781145,2378,2270,573,584,-1168,1714,328,3411,46,29,864
304195,8350548,8777896,8355358,8781342,2213,2268,587,475,-1227,1857,339,3147,46,29,864
305196,8350836,8778008,8355555,8781539,1824,2531,601,186,-1238,1366,490,3259,39,19,865
306197,8351080,8778108,8355752,8781736,2080,2649,595,-86,-1239,1551,203,3425,39,19,865
307198,8351324,8778204,8355949,8781933,2060,2719,552,-227,-1282,1375,506,3781,53,25,865
308199,8351624,8778320,8356146,8782130,1666,2631,450,-227,-1315,825,413,3890,53,25,865
309200,8351884,8778432,8356343,8782327,1888,2693,287,-127,-1338,827,691,3954,48,26,864
310201,8352172,8778560,8356540,8782524,1674,2624,133,-2,-1340,392,-164,3914,48,26,864
311202,8352444,8778668,8356737,8782721,1742,2790,22,-22,-1287,-439,-249,4124,64,27,866
312203,8352728,8778776,8356934,8782918,1630,2830,-3,-229,-1267,-68,-215,3493,64,27,866
313204,8353020,8778896,8357131,8783115,1539,2790,-28,-607,-1339,479,155,3756,65,15,865
314205,8353312,8778988,8357328,8783312,1497,3011,-28,-933,-1426,254,-164,3721,65,15,865
315206,8353596,8779100,8357525,8783509,1510,2924,-31,-1209,-1488,241,306,3624,67,25,864
316207,8353856,8779192,8357722,8783706,1633,3096,-94,-1468,-1511,53,-22,2836,67,25,864
317208,8354140,8779292,8357919,8783903,1446,3090,-152,-1551,-1477,-25,-199,3355,66,14,864
318209,8354436,8779376,8358116,8784100,1328,3240,-250,-1541,-1412,-18,-385,3584,66,14,864
319210,8354716,8779468,8358313,8784297,1392,3238,-288,-1530,-1369,285,-304,3002,59,14,862
320211,8355004,8779596,8358510,8784494,1303,3044,-257,-1680,-1279,-488,-756,3217,59,14,862
321212,8355284,8779720,8358707,8784691,1317,3101,-163,-1996,-1175,-719,-584,2789,46,24,863
322213,8355544,8779812,8358904,8784888,1415,3348,-33,-2528,-1154,-261,-221,2213,46,24,863
323214,8355804,8779928,8359101,8785085,1388,3235,68,-2970,-1163,-554,10,2411,47,18,863
324215,8356092,8780056,8359298,8785282,1173,3191,108,-3255,-1179,-548,91,2156,47,18,863
325216,8356344,8780172,8359495,8785479,1375,3303,72,-3316,-1236,-247,281,2496,66,21,860
326217,8356608,8780324,8359692,8785676,1272,3098,18,-3183,-1309,-269,19,2920,66,21,860
327218,8356880,8780460,8359889,8785873,1189,3226,-76,-2943,-1400,359,-607,3261,49,19,861
328219,8357108,8780608,8360086,8786070,1451,3174,-95,-2653,-1487,607,-422,3491,49,19,861
329220,8357372,8780748,8360283,8786267,1197,3250,-112,-2698,-1456,-257,-166,2839,57,20,864
330221,8357604,8780900,8360480,8786464,1382,3197,-74,-2948,-1411,75,-121,2008,57,20,864
331222,8357836,8781060,8360677,8786661,1367,3164,-30,-3331,-1365,270,-257,2888,45,42,863
332223,8358068,8781252,8360874,8786858,1353,2967,51,-3605,-1311,227,-387,2728,45,42,863
333224,8358336,8781444,8361071,8787055,1096,2970,81,-3855,-1315,769,105,2841,53,29,863
334225,8358580,8781640,8361268,8787252,1227,2947,111,-3836,-1313,378,625,3795,53,29,863
335226,8358804,8781808,8361465,8787449,1341,3135,61,-3873,-1293,143,49,2788,46,32,864
336227,8359068,8782000,8361662,8787646,1061,2989,9,-3780,-1242,-27,418,3674,46,32,864
337228,8359288,8782232,8361859,8787843,1327,2724,-37,-3677,-1210,391,233,3530,59,49,865
338229,8359524,8782432,8362056,8788040,1210,2924,-93,-3728,-1198,455,314,2779,59,49,865
339230,8359768,8782644,8362253,8788237,1140,2843,-75,-3820,-1097,-38,-374,3994,47,50,866
340231,8360012,8782844,8362450,8788434,1120,2918,21,-3728,-1078,1477,339,5352,47,50,866
341232,8360256,8783068,8362647,8788631,1099,2757,-28,-3675,-1126,1639,-38,2819,43,51,866
342233,8360520,8783276,8362844,8788828,946,2853,-161,-3586,-976,-55,581,4094,43,51,866
343241,8360740,8783520,8363074,8789058,1225,2623,-219,-3254,-756,584,-127,5266,44,51,867
344235,8360976,8783724,8363271,8789255,1109,2871,-260,-3148,-633,1338,-203,3624,44,51,867
345236,8361220,8783932,8363468,8789452,1038,2843,-287,-3120,-544,1501,204,4170,36,50,867
346237,8361468,8784176,8363665,8789649,992,2599,-263,-3106,-469,1789,-114,4762,36,50,867
347238,8361688,8784384,8363862,8789846,1157,2820,-192,-3153,-397,1620,265,4401,45,51,866
348239,8361920,8784584,8364059,8790043,1066,2869,-132,-3338,-317,1774,-25,4073,45,51,866
349240,8362120,8784788,8364256,8790240,1266,2842,-74,-3403,-235,1911,214,5072,48,35,869
350241,8362324,8785016,8364453,8790437,1238,2680,-57,-3315,-141,1663,-300,4482,48,35,869
351242,8362500,8785228,8364650,8790634,1423,2774,-46,-3075,-111,2255,-314,5378,42,52,867
352243,8362704,8785452,8364847,8790831,1245,2688,-41,-2751,-130,2502,-409,5611,42,52,867
353244,8362860,8785648,8365044,8791028,1563,2865,-96,-2545,-45,1572,-378,4301,46,36,868
354244,8363052,8785892,8365241,8791225,1341,2545,-137,-2390,163,979,-715,5113,46,36,868
355246,8363240,8786068,8365438,8791422,1370,2980,-109,-2282,322,1400,-724,5176,44,41,868
356247,8363416,8786264,8365635,8791619,1456,2857,-112,-2366,461,978,-608,3904,44,41,868
357248,8363576,8786480,8365832,8791816,1572,2724,-153,-2454,582,958,-371,4391,23,42,866
358249,8363752,8786680,8366029,8792013,1482,2824,-129,-2485,608,1405,-740,5343,23,42,866
359250,8363928,8786892,8366226,8792210,1491,2744,-97,-2477,595,1359,-833,5106,35,37,865
360251,8364068,8787092,8366423,8792407,1741,2818,-119,-2422,628,1167,-678,4998,35,37,865
361252,8364228,8787288,8366620,8792604,1634,2845,-192,-2320,716,924,-940,5356,34,39,866
362252,8364396,8787484,8366817,8792801,1596,2846,-283,-2154,824,843,-1008,5315,34,39,866
363254,8364560,8787672,8367014,8792998,1637,2901,-398,-2070,911,885,-916,4964,28,43,865
364255,8364728,8787832,8367211,8793195,1625,3093,-478,-2041,1020,479,-977,5222,28,43,865
365256,8364888,8788052,8367408,8793392,1692,2709,-502,-2148,1103,883,-1337,4869,26,42,864
366257,8365040,8788232,8367605,8793589,1762,2968,-425,-2213,1132,956,-1072,5859,26,42,864
367258,8365208,8788404,8367802,8793786,1675,3030,-380,-2273,1148,855,-1492,4942,41,28,861
368259,8365384,8788576,8367999,8793983,1635,3042,-396,-2354,1183,658,-807,4310,41,28,861
369260,8365548,8788740,8368196,8794180,1725,3107,-373,-2270,1209,897,-1206,5584,27,34,861
370261,8365684,8788944,8368393,8794377,1927,2855,-315,-2182,1199,954,-1103,4896,27,34,861
371262,8365888,8789128,8368590,8794574,1500,2987,-255,-2178,1241,600,-653,4642,37,29,863
372263,8366080,8789300,8368787,8794771,1577,3074,-210,-2196,1259,1051,-544,4662,37,29,863
373264,8366256,8789492,8368984,8794968,1687,2952,-195,-2299,1306,483,-1079,3905,49,40,862
374265,8366452,8789668,8369181,8795165,1563,3062,-165,-2258,1324,805,-720,4956,49,40,862
375266,8366632,8789856,8369378,8795362,1671,2992,-144,-2171,1397,-80,-1616,4333,48,34,864
376267,8366800,8790048,8369575,8795559,1759,2970,-119,-1956,1409,960,-1011,4758,48,34,864
377268,8366964,8790200,8369772,8795756,1799,3241,-50,-1828,1367,1061,-1086,4970,44,30,863
378268,8367152,8790396,8369969,8795953,1653,2969,3,-1862,1383,-47,-1326,3857,44,30,863
379270,8367324,8790576,8370166,8796150,1765,3077,32,-1973,1387,271,-608,3968,44,27,861
380271,8367520,8790760,8370363,8796347,1616,3059,63,-1931,1400,-440,-1361,4717,44,27,861
381272,8367700,8790944,8370560,8796544,1724,3065,88,-1751,1372,-187,-1405,4710,43,41,863
382273,8367900,8791128,8370757,8796741,1599,3072,111,-1537,1279,500,-1526,5006,43,41,863
383274,8368072,8791292,8370954,8796938,1785,3213,106,-1515,1200,448,-1082,3748,40,34,863
384275,8368288,8791476,8371151,8797135,1503,3094,73,-1831,1161,707,-837,3049,40,34,863
385276,8368452,8791652,8371348,8797332,1842,3155,130,-2098,1182,499,-746,4007,30,42,863
386277,8368648,8791844,8371545,8797529,1644,3058,205,-2237,1200,659,-561,3883,30,42,863
387278,8368876,8792004,8371742,8797726,1430,3275,240,-2107,1262,102,-547,4330,29,23,863
388279,8369040,8792180,8371939,8797923,1845,3185,235,-1729,1294,510,-2045,4718,29,23,863
389280,8369236,8792344,8372136,8798120,1646,3276,225,-1347,1265,295,-821,4632,37,33,861
390281,8369408,8792520,8372333,8798317,1808,3211,234,-1089,1204,333,-1141,4434,37,33,861
391282,8369588,8792672,8372530,8798514,1766,3383,278,-973,1169,148,-1235,4735,49,35,860
392283,8369756,8792816,8372727,8798711,1854,3457,312,-1056,1205,-259,-427,3975,49,35,860
393284,8369952,8793016,8372924,8798908,1681,3107,282,-1366,1292,-659,36,2692,28,38,861
394285,8370120,8793212,8373121,8799105,1868,3133,309,-1425,1369,-468,124,5327,28,38,861
395286,8370284,8793396,8373318,8799302,1909,3215,303,-1344,1262,884,-167,4188,25,28,859
396287,8370432,8793588,8373515,8799499,2030,3168,306,-1174,1075,881,-249,5236,25,28,859
397288,8370612,8793748,8373712,8799696,1839,3385,297,-1069,954,526,-544,4695,33,43,861
398289,8370764,8793924,8373909,8799893,2035,3296,312,-1040,945,-3,107,4459,33,43,861
399290,8370924,8794076,8374106,8800090,2001,3467,235,-1247,999,-174,-492,2786,46,36,859
400291,8371076,8794252,8374303,8800287,2072,3328,143,-1335,1060,-230,-590,3554,46,36,859
401292,8371216,8794444,8374500,8800484,2172,3231,67,-1300,1204,-1319,-926,3774,38,28,857
402293,8371340,8794636,8374697,8800681,2305,3234,96,-1011,1538,-2964,-586,5144,38,28,857
403294,8371520,8794824,8374894,8800878,1963,3264,97,-852,1772,-1198,141,3615,21,45,858
404295,8371684,8795012,8375091,8801075,2078,3269,-9,-1003,1284,5883,1340,1942,21,45,858
405296,8371864,8795180,8375288,8801272,1986,3408,43,-798,854,2914,-1372,7362,37,35,858
406297,8371992,8795340,8375485,8801469,2343,3476,99,-825,853,-203,-340,2776,37,35,858
407298,8372152,8795500,8375682,8801666,2159,3493,9,-1305,987,-308,701,700,26,41,859
408299,8372296,8795680,8375879,8801863,2283,3377,18,-1440,1120,-191,372,5421,26,41,859
409300,8372472,8795856,8376076,8802060,2093,3412,87,-1131,1169,530,256,5092,35,39,856
410301,8372648,8796012,8376273,8802257,2103,3556,52,-979,1211,232,404,3011,35,39,856
411302,8372796,8796160,8376470,8802454,2300,3628,-59,-1084,1226,87,322,2796,26,37,855
412303,8372940,8796324,8376667,8802651,2349,3545,-131,-1085,1324,-1194,-752,3712,26,37,855
413304,8373084,8796492,8376864,8802848,2373,3534,-120,-888,1360,-279,-230,4524,40,21,852
414305,8373220,8796652,8377061,8803045,2450,3601,-96,-719,1266,457,318,4107,40,21,852
415306,8373344,8796824,8377258,8803242,2559,3538,-130,-715,1158,976,-174,3523,22,33,855
416307,8373488,8796984,8377455,8803439,2458,3631,-173,-778,1118,1198,-244,3626,22,33,855
417308,8373624,8797140,8377652,8803636,2535,3675,-204,-934,1171,449,-490,3111,43,33,854
418309,8373732,8797364,8377849,8803833,2750,3239,-182,-1046,1280,-61,-298,3562,43,33,854
419310,8373900,8797608,8378046,8804030,2388,3095,-94,-905,1355,28,560,5045,21,34,854
420311,8374020,8797860,8378243,8804227,2723,3021,-79,-827,1406,-88,571,3285,21,34,854
421312,8374180,8798064,8378440,8804424,2490,3320,-192,-1003,1445,439,-435,2028,37,52,855
422312,8374320,8798272,8378637,8804621,2641,3292,-259,-1081,1435,761,-1135,3922,37,52,855
423314,8374464,8798572,8378834,8804818,2640,2672,-250,-990,1445,-152,-1238,3902,28,55,856
424314,8374608,8798828,8379031,8805015,2664,2922,-243,-927,1474,-519,13,3176,28,55,856
425316,8374732,8799100,8379228,8805212,2822,2790,-257,-923,1511,-143,399,3406,24,48,856
426323,8374876,8799384,8379458,8805442,2736,2694,-255,-951,1500,1019,-507,3342,24,48,856
427318,8375000,8799636,8379655,8805639,2893,2871,-217,-1020,1469,929,-124,3249,41,45,856
428319,8375180,8799964,8379852,8805836,2552,2339,-199,-1137,1461,499,62,2654,41,45,856
429320,8375352,8800268,8380049,8806033,2614,2443,-196,-1284,1555,-536,-203,2890,23,46,859
430321,8375552,8800568,8380246,8806230,2438,2424,-157,-1218,1758,-1083,-210,4307,23,46,859
431322,8375708,8800872,8380443,8806427,2732,2353,-151,-1126,1886,-59,-870,2928,33,52,863
432323,8375880,8801116,8380640,8806624,2644,2708,-165,-1129,1787,1711,-921,3334,33,52,863
433324,8376044,8801468,8380837,8806821,2710,1966,-117,-969,1641,1134,-995,4360,39,66,862
434325,8376216,8801812,8381034,8807018,2672,1952,-89,-867,1604,262,-829,3164,39,66,862
435326,8376400,8802120,8381231,8807215,2603,2130,-64,-873,1640,370,213,3170,39,70,859
436327,8376604,8802384,8381428,8807412,2476,2376,-70,-956,1705,384,263,2381,39,70,859
437328,8376816,8802764,8381625,8807609,2421,1572,-99,-1063,1726,894,-603,2429,34,54,864
438329,8377032,8803092,8381822,8807806,2387,1840,-37,-896,1751,309,-911,4216,34,54,864
439330,8377224,8803428,8382019,8808003,2541,1730,28,-652,1793,-105,-1151,3600,35,74,864
440331,8377416,8803704,8382216,8808200,2544,2071,72,-524,1749,917,-726,2929,35,74,864
441332,8377620,8804036,8382413,8808397,2467,1663,51,-534,1593,1666,-293,2565,39,60,867
442333,8377844,8804392,8382610,8808594,2331,1444,69,-471,1452,1181,-154,3011,39,60,867
443334,8378056,8804732,8382807,8808791,2400,1481,132,-312,1435,57,44,3196,46,69,865
444335,8378284,8805024,8383004,8808988,2288,1740,158,-238,1566,-732,-25,2324,46,69,865
445336,8378496,8805324,8383201,8809185,2382,1646,166,-137,1647,355,-43,3074,42,64,868
446337,8378696,8805648,8383398,8809382,2457,1441,268,219,1513,1838,-269,4424,42,64,868
447338,8378928,8805956,8383595,8809579,2242,1493,373,451,1313,1376,-419,2982,38,53,868
448339,8379156,8806240,8383792,8809776,2254,1605,339,265,1216,911,-234,410,38,53,868
449340,8379384,8806496,8383989,8809973,2241,1755,303,100,1215,1136,218,2102,38,63,868
450341,8379624,8806756,8384186,8810170,2148,1703,375,282,1245,849,35,3334,38,63,868
451342,8379888,8807080,8384383,8810367,1970,1248,486,499,1226,858,-283,2550,43,57,869
452343,8380132,8807404,8384580,8810564,2075,1193,583,596,1171,880,-100,2473,43,57,869
453344,8380360,8807716,8384777,8810761,2163,1218,628,765,1155,650,231,2993,43,62,869
454345,8380648,8808020,8384974,8810958,1749,1222,535,922,1235,1050,-739,2169,43,62,869
455346,8380924,8808328,8385171,8811155,1789,1148,248,1210,1258,1941,-1110,2046,49,67,870
456347,8381176,8808688,8385368,8811352,1916,752,21,1784,1279,1447,-1869,4250,49,67,870
457348,8381444,8809008,8385565,8811549,1785,949,75,2301,1136,1555,-514,3923,50,53,872
458349,8381664,8809312,8385762,8811746,2076,1002,249,2224,828,1061,1205,1471,50,53,872
459350,8381880,8809636,8385959,8811943,2094,821,364,2022,589,1290,94,2118,56,62,875
460351,8382140,8809996,8386156,8812140,1791,526,343,2230,543,1260,-105,3713,56,62,875
461352,8382388,8810336,8386353,8812337,1845,588,249,2604,584,1189,170,2912,51,57,873
462353,8382604,8810640,8386550,8812534,2038,767,292,2756,601,849,-456,2995,51,57,873
463354,8382844,8810876,8386747,8812731,1870,1175,478,2754,540,2168,-426,3627,43,56,876
464355,8383072,8811200,8386944,8812928,1931,569,652,2566,462,2104,124,2144,43,56,876
465355,8383288,8811572,8387141,8813125,1999,193,724,2274,493,1141,36,1822,52,53,874
466357,8383556,8811844,8387338,8813322,1644,785,733,1935,508,1928,-204,744,52,53,874
467358,8383800,8812092,8387535,8813519,1774,913,706,1951,563,1264,-1434,3059,61,66,873
468359,8384068,8812292,8387732,8813716,1593,1212,719,2383,620,1007,-1809,4763,61,66,873
469360,8384304,8812536,8387929,8813913,1777,917,745,2479,596,351,-295,3052,51,56,876
470361,8384548,8812784,8388126,8814110,1707,869,752,2008,577,-990,-154,2223,51,56,876
471362,8384796,8813020,8388323,8814307,1659,927,786,1672,482,329,-621,4650,51,35,875
472363,8385068,8813204,8388520,8814504,1477,1259,724,1516,452,-34,-1809,4811,51,35,875
473364,8385368,8813376,8388717,8814701,1258,1345,670,1343,430,-762,-1588,4257,61,45,876
474365,8385652,8813512,8388914,8814898,1320,1597,590,1179,436,-1075,-1371,4762,61,45,876
475366,8385888,8813720,8389111,8815095,1604,1142,431,1153,367,163,272,4478,44,31,875
476367,8386184,8813940,8389308,8815292,1186,1058,246,979,260,376,-697,4539,44,31,875
477368,8386456,8814152,8389505,8815489,1303,1101,149,454,144,-6,-1481,5059,42,31,873
478369,8386720,8814352,8389702,8815686,1325,1175,138,-286,54,-350,-1971,4205,42,31,873
479370,8386992,8814544,8389899,8815883,1242,1227,-22,-759,-62,209,-1505,5445,64,35,875
480371,8387208,8814692,8390096,8816080,1585,1524,-317,-548,-279,733,1481,5352,64,35,875
481372,8387476,8814840,8390293,8816277,1228,1546,-763,-178,-490,49,2200,5263,41,41,876
482373,8387756,8814996,8390490,8816474,1118,1514,-912,-220,-652,218,180,4658,41,41,876
483374,8388004,8815172,8390687,8816671,1296,1398,-714,-1142,-753,672,-720,4625,61,27,873
484375,8388220,8815412,8390884,8816868,1488,980,-338,-2529,-811,1396,-753,3896,61,27,873
485376,8388444,8815620,8391081,8817065,1427,1176,-33,-3913,-865,1739,-766,3821,53,47,875
486377,8388676,8815852,8391278,8817262,1362,1010,9,-4671,-961,1435,-465,3881,53,47,875
487378,8388888,8816068,8391475,8817459,1481,1103,-145,-4605,-1071,806,213,4772,56,32,876
488379,8389096,8816284,8391672,8817656,1502,1094,-473,-4018,-1109,397,-22,5126,56,32,876
489380,8389280,8816456,8391869,8817853,1657,1380,-819,-3271,-1158,1540,88,4428,49,48,875
490380,8389436,8816676,8392066,8818050,1851,1070,-1118,-2712,-1210,2342,74,4301,49,48,875
491382,8389608,8816912,8392263,8818247,1762,954,-1352,-2488,-1263,2785,26,2948,27,40,875
492383,8389780,8817120,8392460,8818444,1774,1124,-1484,-2428,-1367,3807,573,4231,27,40,875
493383,8389920,8817328,8392657,8818641,1999,1120,-1533,-2249,-1443,3437,774,4599,42,43,873
494385,8390096,8817520,8392854,8818838,1785,1222,-1555,-2048,-1374,2267,716,4688,42,43,873
495386,8390292,8817680,8393051,8819035,1661,1439,-1505,-1932,-1263,2633,456,4684,38,40,874
496387,8390460,8817836,8393248,8819232,1849,1482,-1403,-1998,-1215,3120,213,4464,38,40,874
497388,8390620,8817980,8393445,8819429,1916,1580,-1253,-2077,-1122,2398,1251,4710,43,38,873
498389,8390820,8818208,8393642,8819626,1665,1042,-1185,-2176,-921,2371,817,3808,48,38,870
499390,8390984,8818368,8393839,8819823,1905,1484,-1213,-2162,-727,3668,394,3666,48,38,870
500391,8391156,8818536,8394036,8820020,1866,1447,-1300,-2048,-604,4507,414,4046,23,23,873
501392,8391332,8818700,8394233,8820217,1851,1486,-1353,-1816,-549,4352,652,4381,23,23,873
502393,8391524,8818828,8394430,8820414,1754,1742,-1352,-1654,-442,2953,426,4237,36,34,872
503394,8391696,8818952,8394627,8820611,1891,1800,-1311,-1583,-277,2797,95,3881,36,34,872
504395,8391868,8819060,8394824,8820808,1902,1939,-1261,-1541,-69,3043,-303,4297,44,16,871
505396,8392064,8819196,8395021,8821005,1753,1790,-1130,-1390,162,3065,-172,5590,44,16,871
506397,8392256,8819312,8395218,8821202,1781,1952,-905,-1109,359,3016,-84,6251,26,21,868
507398,8392488,8819444,8395415,8821399,1516,1881,-710,-872,514,2755,-729,5148,26,21,868
508399,8392708,8819556,8395612,8821596,1582,2044,-677,-811,604,2960,-320,3501,44,17,869
509407,8392908,8819688,8395842,8821826,1720,1962,-723,-646,722,2622,-1018,4343,44,17,869
510400,8393092,8819796,8396039,8822023,1827,2151,-696,-237,770,3598,-1588,5936,32,26,867
511402,8393312,8819916,8396236,8822220,1591,2111,-500,366,743,3560,-1959,7252,32,26,867
512403,8393504,8820028,8396433,8822417,1770,2198,-232,1054,790,2453,-1356,7502,28,19,867
513404,8393708,8820140,8396630,8822614,1692,2237,-146,1612,910,2303,-1392,5271,28,19,867
514405,8393956,8820244,8396827,8822811,1395,2328,-363,1721,1019,2271,-1955,1880,45,25,867
515406,8394180,8820380,8397024,8823008,1534,2155,-632,1322,1231,556,-1856,1358,45,25,867
516407,8394400,8820488,8397221,8823205,1549,2369,-557,1026,1367,1888,-2902,5051,33,19,869
517408,8394632,8820584,8397418,8823402,1460,2490,-167,870,1264,3275,-2621,6585,33,19,869
518408,8394844,8820708,8397615,8823599,1578,2347,137,322,1206,943,-2585,2892,39,22,868
519410,8395068,8820832,8397812,8823796,1492,2380,249,-213,1233,648,-2401,4992,39,22,868
520411,8395292,8820960,8398009,8823993,1480,2385,216,-515,1234,1241,-2826,4840,42,19,867
521412,8395520,8821112,8398206,8824190,1443,2256,63,-687,1288,169,-2006,3945,42,19,867
522412,8395732,8821228,8398403,8824387,1536,2517,-65,-579,1323,395,-2508,5782,34,19,867
523414,8395948,8821344,8398600,8824584,1504,2553,-95,-289,1192,1390,-2131,6084,34,19,867
524415,8396212,8821472,8398797,8824781,1174,2510,-72,-171,1065,577,-1676,5398,51,23,867
525416,8396384,8821588,8398994,8824978,1761,2620,-10,-220,1069,-125,-1287,5174,51,23,867
526417,8396616,8821728,8399191,8825175,1371,2496,72,-250,1057,441,-819,5363,32,19,868
527418,8396876,8821840,8399388,8825372,1169,2710,136,-438,1006,-332,-916,4397,32,19,868
528419,8397100,8821980,8399585,8825569,1383,2560,173,-642,957,-476,-945,4395,47,34,867
529420,8397336,8822120,8399782,8825766,1291,2586,235,-630,922,-197,-1137,5318,47,34,867
530421,8397580,8822268,8399979,8825963,1221,2558,312,-645,909,-361,-1033,4623,36,23,867
531422,8397836,8822424,8400176,8826160,1121,2526,359,-809,806,568,-303,3730,36,23,867
532423,8398036,8822588,8400373,8826357,1470,2492,357,-1109,796,-788,-43,3207,34,35,867
533424,8398260,8822728,8400570,8826554,1308,2668,373,-1110,841,-134,-522,4668,34,35,867
534424,8398456,8822896,8400767,8826751,1484,2507,416,-1022,795,935,-29,4154,40,31,867
535426,8398640,8823060,8400964,8826948,1565,2546,365,-1108,705,1061,553,2193,40,31,867
536427,8398860,8823248,8401161,8827145,1331,2401,251,-1176,587,1905,816,2879,34,30,867
537428,8399064,8823460,8401358,8827342,1428,2245,148,-1000,511,2177,184,3498,34,30,867
538428,8399268,8823696,8401555,8827539,1426,2078,12,-716,369,3137,1285,2578,30,39,867
539430,8399484,8823960,8401752,8827736,1342,1875,-216,-520,265,2533,1126,1408,30,39,867
540431,8399668,8824208,8401949,8827933,1549,1953,-367,-210,324,1927,-1305,2766,36,45,871
541432,8399856,8824456,8402146,8828130,1528,1932,-253,139,539,909,-346,4050,36,45,871
542433,8400024,8824712,8402343,8828327,1666,1856,-65,35,801,-213,-130,1395,27,49,870
543434,8400240,8825016,8402540,8828524,1358,1510,117,-382,951,530,-232,2389,27,49,870
544435,8400436,8825320,8402737,8828721,1484,1464,293,-602,933,1831,-62,4112,48,60,870
545436,8400620,8825564,8402934,8828918,1565,1818,348,-868,807,1830,-47,1728,48,60,870
546437,8400800,8825820,8403131,8829115,1598,1718,373,-1178,710,810,409,2849,28,43,873
547438,8400964,8826064,8403328,8829312,1713,1774,478,-1343,530,881,959,4307,28,43,873
548439,8401128,8826344,8403525,8829509,1728,1512,539,-1295,292,671,1118,4215,43,43,872
549440,8401292,8826624,8403722,8829706,1743,1477,470,-1197,84,566,820,3696,43,43,872
550441,8401444,8826876,8403919,8829903,1838,1628,317,-1123,-47,325,213,3482,45,54,872
551442,8401604,8827120,8404116,8830100,1804,1658,236,-833,-124,168,189,4922,45,54,872
552443,8401788,8827368,8404313,8830297,1661,1612,254,-467,-267,145,1158,4720,38,43,871
553444,8401960,8827632,8404510,8830494,1747,1482,235,-379,-434,114,513,3229,38,43,871
554444,8402116,8827908,8404707,8830691,1866,1373,144,-419,-526,537,-744,3370,40,43,870
555445,8402284,8828124,8404904,8830888,1804,1740,95,-397,-535,1179,-607,4090,40,43,870
556447,8402424,8828344,8405101,8831085,2005,1706,141,-292,-392,844,21,4297,42,46,871
557447,8402564,8828528,8405298,8831282,2030,1937,209,-277,-118,832,-662,3214,42,46,871
558448,8402712,8828704,8405495,8831479,2002,1997,220,-380,184,1572,-641,2576,39,27,869
559449,8402856,8828916,8405692,8831676,2051,1765,172,-213,359,2959,-35,3917,39,27,869
560451,8403008,8829104,8405889,8831873,2022,1920,83,213,486,2975,-404,4882,34,38,868
561452,8403172,8829280,8406086,8832070,1962,2005,-12,763,618,3452,-1000,5063,34,38,868
562453,8403356,8829448,8406283,8832267,1843,2068,-45,1281,887,2313,-1185,5467,23,27,868
563454,8403516,8829640,8406480,8832464,2010,1921,-120,1507,1178,1562,-123,3643,23,27,868
564455,8403680,8829792,8406677,8832661,2000,2191,-289,1504,1285,2625,-389,2827,20,25,867
565456,8403840,8829964,8406874,8832858,2042,2077,-354,1629,1422,1218,-1455,4957,20,25,867
566457,8404000,8830112,8407071,8833055,2058,2250,-383,1691,1647,1050,-427,3710,21,40,865
567458,8404148,8830276,8407268,8833252,2156,2165,-459,1610,1802,1301,-465,3345,21,40,865
568459,8404296,8830460,8407465,8833449,2178,2046,-492,1661,1825,946,119,5454,43,45,866
569460,8404440,8830664,8407662,8833646,2226,1919,-557,1636,1808,455,-813,3251,43,45,866
570461,8404548,8830880,8407859,8833843,2492,1836,-659,1554,1743,357,-19,3697,42,31,867
571462,8404696,8831084,8408056,8834040,2263,1909,-675,1686,1668,7,-176,5145,42,31,867
572463,8404872,8831288,8408253,8834237,2098,1905,-710,1876,1525,-558,69,3862,28,49,865
573464,8405064,8831480,8408450,8834434,2001,1984,-769,1923,1429,-583,-115,3325,28,49,865
574465,8405264,8831724,8408647,8834631,1950,1639,-718,2061,1356,-122,-158,5151,51,39,868
575466,8405428,8831956,8408844,8834828,2191,1699,-641,2209,1294,-488,-814,4204,51,39,868
576467,8405600,8832248,8409041,8835025,2153,1283,-601,2298,1215,-170,164,3569,52,49,869
577468,8405796,8832524,8409238,8835222,2003,1348,-627,2287,1086,466,1068,3555,52,49,869
578469,8405960,8832844,8409435,8835419,2219,1020,-682,2175,1003,101,410,3355,37,42,870
579470,8406124,8833032,8409632,8835616,2234,1849,-670,1971,1084,-856,-912,3555,37,42,870
580471,8406288,8833168,8409829,8835813,2249,2202,-600,1777,1180,-869,-394,3839,46,36,871
581472,8406472,8833324,8410026,8836010,2130,2095,-546,1535,1188,-656,-377,3805,46,36,871
582473,8406632,8833488,8410223,8836207,2298,2060,-517,1485,1082,31,886,4741,39,41,865
583474,8406776,8833668,8410420,8836404,2421,1968,-629,1541,925,-87,1449,3652,39,41,865
584475,8406932,8833852,8410617,8836601,2365,1950,-861,1548,763,-788,1411,3395,23,41,865
585476,8407076,8834068,8410814,8836798,2464,1741,-978,1622,679,-1642,74,5687,23,41,865
586477,8407220,8834344,8411011,8836995,2487,1332,-924,1580,656,-1951,-771,5806,46,53,864
587478,8407400,8834612,8411208,8837192,2271,1351,-810,1360,640,-1577,-397,4624,46,53,864
588479,8407560,8834816,8411405,8837389,2413,1749,-713,1193,697,-1259,170,5195,36,67,867
589480,8407708,8835136,8411602,8837586,2511,970,-650,971,802,-723,-53,4252,36,67,867
590481,8407900,8835452,8411799,8837783,2238,944,-599,724,963,-826,-1004,3812,28,60,867
591482,8408036,8835700,8411996,8837980,2616,1346,-516,395,1105,-410,-2371,3481,28,60,867
592492,8408212,8836024,8412226,8838210,2390,831,-406,254,1159,-143,-2176,4682,41,65,871
593484,8408384,8836340,8412423,8838407,2427,829,-350,278,1269,-1046,-2584,4282,41,65,871
594485,8408548,8836592,8412620,8838604,2492,1205,-328,399,1341,-188,-2684,5144,39,59,871
595486,8408720,8836812,8412817,8838801,2454,1396,-303,468,1208,625,-2856,5017,39,59,871
596487,8408888,8837048,8413014,8838998,2493,1278,-300,373,924,120,-2168,4979,27,58,869
597488,8409072,8837312,8413211,8839195,2399,1075,-292,426,570,-133,-1646,6553,27,58,869
598489,8409232,8837572,8413408,8839392,2566,1072,-431,610,129,-409,-1248,5681,31,42,867
599490,8409408,8837812,8413605,8839589,2476,1178,-719,1082,-342,-853,385,5830,31,42,867
600491,8409600,8838028,8413802,8839786,2379,1321,-1017,1583,-745,-1294,717,5775,45,52,869
601492,8409768,8838240,8413999,8839983,2543,1339,-1172,1837,-948,-1233,-623,5191,45,52,869
602493,8409912,8838476,8414196,8840180,2717,1172,-1008,1860,-942,-985,-1155,6589,29,47,869
603494,8410080,8838748,8414393,8840377,2580,915,-616,1387,-803,-605,-1800,5133,29,47,869
604495,8410228,8839036,8414590,8840574,2727,775,-138,362,-653,466,-2073,3868,25,45,867
605496,8410384,8839256,8414787,8840771,2696,1190,399,-533,-519,1476,-2917,5299,25,45,867
606497,8410544,8839484,8414984,8840968,2689,1127,765,-1121,-472,1989,-3039,3797,35,46,868
607498,8410692,8839664,8415181,8841165,2786,1435,906,-1209,-438,1019,-3181,4531,35,46,868
608499,8410828,8839872,8415378,8841362,2889,1255,924,-846,-447,359,-2619,4892,41,52,866
609500,8410992,8840124,8415575,8841559,2730,956,784,-252,-566,89,-2358,4574,41,52,866
610501,8411164,8840344,8415772,8841756,2691,1147,606,342,-823,197,-2509,5038,42,35,864
611502,8411320,8840540,8415969,8841953,2810,1297,506,796,-1127,-99,-611,5707,42,35,864
612503,8411512,8840748,8416166,8842150,2588,1218,417,771,-1330,-994,-164,3295,45,37,867
613504,8411692,8840936,8416363,8842347,2671,1347,420,405,-1529,-377,-222,4857,45,37,867
614505,8411844,8841088,8416560,8842544,2867,1592,503,-78,-1718,-668,-836,4795,26,39,867
615506,8412012,8841252,8416757,8842741,2781,1532,530,-627,-1904,358,-594,3807,26,39,867
616507,8412196,8841404,8416954,8842938,2687,1627,504,-845,-2014,821,-290,5096,44,24,865
617508,8412380,8841572,8417151,8843135,2694,1539,382,-895,-2075,733,-78,3627,44,24,865
618509,8412540,8841716,8417348,8843332,2861,1714,239,-762,-2020,-190,-201,4599,26,22,865
619510,8412744,8841860,8417545,8843529,2583,1737,190,-507,-1928,365,-173,4920,26,22,865
620511,8412932,8842016,8417742,8843726,2688,1680,129,-401,-1898,1580,-202,3296,37,26,862
621512,8413116,8842148,8417939,8843923,2720,1860,103,-304,-1915,2217,-675,4413,37,26,862
622513,8413352,8842288,8418136,8844120,2379,1835,175,-252,-1911,1793,-970,4769,42,28,864
623514,8413544,8842428,8418333,8844317,2657,1860,307,-355,-1882,1250,-856,3787,42,28,864
624515,8413768,8842548,8418530,8844514,2446,2019,443,-500,-1886,1362,-242,4064,34,32,866
625516,8413996,8842668,8418727,8844711,2409,2053,500,-578,-1901,1009,-266,3669,34,32,866
626517,8414192,8842812,8418924,8844908,2610,1928,470,-580,-1879,333,414,3491,38,22,865
627518,8414416,8842964,8419121,8845105,2424,1897,403,-532,-1782,-254,-188,3561,38,22,865
628519,8414652,8843076,8419318,8845302,2333,2185,352,-505,-1760,554,62,3149,34,28,864
629520,8414876,8843220,8419515,8845499,2397,2009,320,-511,-1788,435,249,3120,34,28,864
630521,8415104,8843332,8419712,8845696,2359,2246,299,-519,-1833,718,-165,3822,41,17,864
631522,8415356,8843448,8419909,8845893,2185,2258,293,-542,-1930,1350,-446,3769,41,17,864
632523,8415600,8843576,8420106,8846090,2216,2213,263,-633,-1991,1108,-333,3394,51,22,863
633524,8415828,8843692,8420303,8846287,2303,2325,199,-704,-1979,1174,-251,3593,51,22,863
634525,8416092,8843768,8420500,8846484,2050,2628,119,-705,-1977,1862,-2,4055,53,30,865
635526,8416388,8843872,8420697,8846681,1807,2495,44,-615,-1929,1503,61,3856,53,30,865
636527,8416632,8843984,8420894,8846878,2112,2482,-16,-569,-1864,1551,213,3728,41,33,863
637528,8416900,8844116,8421091,8847075,1931,2387,-69,-558,-1777,1137,-34,3491,41,33,863
638529,8417204,8844252,8421288,8847272,1660,2389,-71,-631,-1666,462,142,3034,56,16,863
639530,8417484,8844332,8421485,8847469,1775,2791,-51,-749,-1587,518,3,3168,56,16,863
640531,8417764,8844464,8421682,8847666,1739,2495,-25,-856,-1592,866,-126,3134,64,27,866
641532,8418056,8844572,8421879,8847863,1623,2685,-8,-881,-1605,427,-268,3074,64,27,866
642533,8418320,8844676,8422076,8848060,1769,2752,-14,-969,-1626,147,-160,2855,51,32,864
643534,8418608,8844832,8422273,8848257,1580,2445,-3,-1067,-1670,301,-211,3145,51,32,864
644535,8418928,8844932,8422470,8848454,1327,2838,-23,-1163,-1698,416,-107,2873,49,32,864
645536,8419196,8845048,8422667,8848651,1621,2775,-35,-1205,-1689,346,280,3261,49,32,864
646537,8419460,8845172,8422864,8848848,1617,2757,-30,-1261,-1662,405,82,2910,46,30,865
647538,8419764,8845296,8423061,8849045,1321,2790,-77,-1347,-1591,3,-330,2738,46,30,865
648539,8420016,8845452,8423258,8849242,1622,2609,-67,-1303,-1510,93,-501,3558,45,22,864
649540,8420300,8845568,8423455,8849439,1385,2895,-34,-1319,-1500,526,-197,3274,45,22,864
650541,8420572,8845712,8423652,8849636,1427,2744,-35,-1515,-1491,-35,-448,2482,67,33,866
651542,8420852,8845832,8423849,8849833,1342,2929,18,-1730,-1477,-203,-521,3274,67,33,866
652543,8421124,8845968,8424046,8850030,1360,2857,90,-1950,-1498,18,-284,3131,46,35,864
653544,8421372,8846088,8424243,8850227,1487,2990,114,-2283,-1558,199,-194,2092,46,35,864
654545,8421648,8846236,8424440,8850424,1278,2838,122,-2489,-1598,-50,16,3081,66,21,864
655546,8421896,8846360,8424637,8850621,1431,3021,107,-2557,-1569,-249,-102,2927,66,21,864
656547,8422168,8846480,8424834,8850818,1249,3081,50,-2632,-1513,-19,65,2246,55,36,865
657548,8422424,8846616,8425031,8851015,1323,3009,23,-2613,-1457,29,82,2992,55,36,865
658549,8422676,8846776,8425228,8851212,1325,2875,-36,-2619,-1362,-159,-407,2516,50,40,864
659550,8422916,8846956,8425425,8851409,1381,2758,-18,-2640,-1292,412,-737,2764,50,40,864
660551,8423172,8847120,8425622,8851606,1256,2874,64,-2674,-1273,646,-551,3665,38,29,864
661552,8423404,8847304,8425819,8851803,1391,2756,178,-2798,-1242,420,-766,2373,38,29,864
662553,8423616,8847464,8426016,8852000,1510,2923,272,-3030,-1188,299,-280,3299,40,44,865
663554,8423908,8847632,8426213,8852197,968,2887,315,-3206,-1105,76,-209,3025,40,44,865
664555,8424144,8847804,8426410,8852394,1301,2874,265,-3333,-1038,562,264,2863,52,39,863
665556,8424380,8848012,8426607,8852591,1285,2645,168,-3322,-987,526,547,3736,52,39,863
666557,8424648,8848192,8426804,8852788,1054,2827,59,-3394,-874,-388,-64,2855,40,30,865
667558,8424884,8848380,8427001,8852985,1238,2782,11,-3501,-798,106,365,3782,40,30,865
668559,8425124,8848560,8427198,8853182,1194,2841,12,-3678,-803,672,94,3459,60,45,867
669560,8425372,8848748,8427395,8853379,1123,2796,32,-3865,-812,688,-2,3575,60,45,867
670561,8425632,8848964,8427592,8853576,1020,2613,62,-4061,-772,262,130,3723,48,50,866
671562,8425880,8849144,8427789,8853773,1072,2847,63,-4207,-645,-252,259,3473,48,50,866
672563,8426112,8849312,8427986,8853970,1158,2935,32,-4058,-559,824,549,4609,56,31,868
673564,8426368,8849524,8428183,8854167,982,2655,-108,-3876,-529,1129,-213,3295,56,31,868
674565,8426572,8849724,8428380,8854364,1304,2729,-249,-3604,-377,136,1005,3909,42,41,864
675573,8426808,8849908,8428610,8854594,1102,2850,-286,-3361,-194,585,209,4444,42,41,864
676567,8427044,8850112,8428807,8854791,1085,2723,-263,-3251,-115,1605,-77,3837,31,45,865
677568,8427264,8850284,8429004,8854988,1175,2935,-231,-3269,-48,1538,589,3865,31,45,865
678569,8427480,8850496,8429201,8855185,1193,2679,-226,-3311,17,1853,-404,4008,36,40,867
679570,8427688,8850692,8429398,8855382,1238,2781,-204,-3310,75,1727,147,4493,36,40,867
680571,8427896,8850912,8429595,8855579,1233,2621,-229,-3262,114,1801,119,4039,45,48,867
681572,8428068,8851124,8429792,8855776,1470,2666,-277,-3166,211,1047,168,4601,45,48,867
682573,8428268,8851348,8429989,8855973,1294,2580,-300,-3022,313,1514,-207,5016,45,38,867
683574,8428424,8851548,8430186,8856170,1587,2729,-290,-2829,305,2624,-549,5307,45,38,867
684575,8428604,8851728,8430383,8856367,1445,2862,-287,-2647,269,2197,-253,5331,35,34,867
685576,8428788,8851936,8430580,8856564,1426,2683,-323,-2555,370,1093,-162,4657,35,34,867
686577,8428988,8852160,8430777,8856761,1325,2572,-364,-2394,505,1678,-942,5269,45,47,864
687578,8429152,8852396,8430974,8856958,1565,2481,-393,-2274,638,1066,-571,5312,45,47,864
688578,8429320,8852596,8431171,8857155,1553,2706,-392,-2264,798,453,-412,4725,25,38,867
689579,8429516,8852796,8431368,8857352,1378,2706,-346,-2314,884,1084,-460,5429,25,38,867
690580,8429688,8853020,8431565,8857549,1540,2545,-300,-2396,892,1064,-706,4896,37,47,866
691582,8429832,8853232,8431762,8857746,1739,2613,-308,-2482,896,831,-790,4547,37,47,866
692583,8430020,8853424,8431959,8857943,1468,2741,-313,-2353,894,1172,-484,6063,24,42,866
693584,8430172,8853624,8432156,8858140,1713,2691,-347,-2119,912,1184,-962,5355,24,42,866
694585,8430332,8853796,8432353,8858337,1680,2878,-438,-2016,992,643,-959,4728,23,41,864
695586,8430488,8853960,8432550,8858534,1724,2944,-482,-2023,1130,101,-923,5232,23,41,864
696587,8430660,8854120,8432747,8858731,1635,2986,-445,-2126,1198,714,-1705,4900,24,38,860
697588,8430828,8854280,8432944,8858928,1672,3003,-351,-2292,1231,544,-1433,5008,24,38,860
698589,8431016,8854464,8433141,8859125,1552,2859,-276,-2436,1216,1080,-1278,4648,44,28,861
699590,8431152,8854632,8433338,8859322,1904,2973,-217,-2455,1211,680,-1349,5210,44,28,861
700591,8431312,8854788,8433535,8859519,1771,3067,-185,-2353,1215,460,-967,5039,23,40,864
701592,8431480,8854952,8433732,8859716,1734,3032,-182,-2268,1270,238,-1295,4460,23,40,864
702593,8431688,8855112,8433929,8859913,1479,3074,-203,-2106,1237,1550,-1038,5315,38,28,861
703594,8431852,8855288,8434126,8860110,1770,2985,-233,-1996,1244,536,-979,4377,38,28,861
704595,8432024,8855448,8434323,8860307,1731,3102,-267,-2065,1335,-32,-1984,3758,34,24,862
705596,8432204,8855600,8434520,8860504,1689,3173,-173,-2025,1366,822,-1472,5803,34,24,862
706597,8432372,8855744,8434717,8860701,1777,3247,-64,-2016,1335,1125,-1932,4353,41,28,861
707598,8432532,8855916,8434914,8860898,1844,3084,35,-1960,1240,1654,-892,5135,41,28,861
708599,8432716,8856076,8435111,8861095,1700,3176,168,-1891,1173,1209,-1411,5268,38,40,856
709600,8432912,8856264,8435308,8861292,1626,3006,242,-1908,1238,-176,-1349,4218,38,40,856
710601,8433088,8856432,8435505,8861489,1761,3145,282,-1970,1287,822,-1390,4067,37,29,860
711602,8433284,8856620,8435702,8861686,1636,3025,267,-1787,1268,1082,-1328,5248,37,29,860
712603,8433484,8856768,8435899,8861883,1611,3297,167,-1613,1336,-354,-1832,3430,38,41,861
713604,8433672,8856940,8436096,8862080,1690,3158,123,-1381,1376,121,-1001,5293,38,41,861
714605,8433872,8857128,8436293,8862277,1614,3063,181,-1192,1275,1119,-1648,4815,49,43,861
715606,8434060,8857324,8436490,8862474,1693,3015,222,-1334,1181,353,-790,3602,49,43,861
716607,8434236,8857488,8436687,8862671,1779,3230,276,-1579,1184,-164,-776,4191,29,23,861
717608,8434468,8857628,8436884,8862868,1413,3406,378,-1660,1189,-70,-760,5053,29,23,861
718609,8434624,8857816,8437081,8863065,1907,3111,442,-1644,1144,-247,-1114,3810,49,23,859
719610,8434812,8857960,8437278,8863262,1711,3410,483,-1543,1118,-748,-747,5006,49,23,859
720611,8434992,8858132,8437475,8863459,1770,3247,507,-1361,1120,-763,-1475,4591,48,36,859
721612,8435152,8858304,8437672,8863656,1911,3259,501,-1278,1186,-1439,-287,3867,48,36,859
722613,8435328,8858460,8437869,8863853,1821,3378,450,-1261,1338,-1701,-363,3497,34,42,859
723614,8435508,8858632,8438066,8864050,1804,3290,378,-1173,1485,-1531,65,3752,34,42,859
724615,8435680,8858824,8438263,8864247,1866,3170,361,-839,1600,-1228,8,5275,26,37,858
725616,8435852,8858996,8438460,8864444,1877,3307,359,-564,1568,-94,-804,4164,26,37,858
726617,8436012,8859180,8438657,8864641,1969,3238,432,-497,1565,-865,-353,4844,47,30,859
727618,8436212,8859336,8438854,8864838,1718,3432,493,-749,1382,2095,641,3256,47,30,859
728619,8436364,8859492,8439051,8865035,2038,3451,475,-1203,701,7219,1737,2675,41,31,857
729620,8436512,8859632,8439248,8865232,2085,3577,482,-1339,458,1226,-931,4801,41,31,857
730621,8436656,8859792,8439445,8865429,2134,3470,418,-1436,675,-650,596,2903,21,30,855
731622,8436816,8859968,8439642,8865626,2050,3380,316,-1349,960,-566,-104,3713,21,30,855
732623,8436960,8860144,8439839,8865823,2175,3390,257,-988,1045,205,-694,5438,28,36,855
733624,8437148,8860332,8440036,8866020,1904,3320,223,-520,1044,183,459,5306,28,36,855
734625,8437296,8860496,8440233,8866217,2176,3486,110,-403,1037,577,213,3523,42,37,856
735626,8437456,8860640,8440430,8866414,2117,3635,-28,-526,992,1138,-268,3489,42,37,856
736627,8437616,8860800,8440627,8866611,2135,3552,-26,-671,998,-156,-130,4457,45,37,856
737628,8437772,8860968,8440824,8866808,2178,3516,-19,-932,1059,-702,-607,2727,45,37,856
738629,8437928,8861140,8441021,8867005,2197,3504,16,-1173,1088,-272,492,4012,38,26,854
739630,8438108,8861300,8441218,8867202,2055,3596,47,-1290,1117,-246,-209,3891,38,26,854
740631,8438252,8861452,8441415,8867399,2303,3667,20,-1264,1077,173,1157,4198,26,30,854
741632,8438408,8861600,8441612,8867596,2248,3714,-86,-1286,1062,21,211,3182,26,30,854
742633,8438556,8861772,8441809,8867793,2319,3576,-237,-1277,1056,375,13,3552,38,34,852
743634,8438672,8861960,8442006,8867990,2556,3481,-321,-1122,1094,303,362,4342,38,34,852
744635,8438808,8862148,8442203,8868187,2458,3486,-368,-1061,1124,534,315,3408,42,39,852
745636,8438940,8862296,8442400,8868384,2512,3759,-380,-1018,1165,361,-56,4377,42,39,852
746637,8439096,8862476,8442597,8868581,2381,3568,-377,-1081,1197,425,-900,3370,40,30,852
747638,8439220,8862628,8442794,8868778,2614,3764,-348,-1172,1238,-93,-876,3803,40,30,852
748639,8439352,8862884,8442991,8868975,2593,3089,-286,-1264,1276,-184,-704,4046,20,42,851
749640,8439488,8863136,8443188,8869172,2595,3091,-237,-1279,1202,1055,205,3873,20,42,851
750641,8439632,8863360,8443385,8869369,2570,3255,-229,-1386,1157,162,673,3060,22,49,851
751642,8439784,8863580,8443582,8869566,2540,3271,-258,-1578,1229,-438,530,2996,22,49,851
752643,8439924,8863804,8443779,8869763,2641,3236,-315,-1766,1284,353,454,2891,35,40,855
753644,8440060,8864084,8443976,8869960,2693,2851,-390,-1923,1248,1012,463,2993,35,40,855
754645,8440188,8864384,8444173,8870157,2775,2681,-421,-1952,1284,-235,-19,3752,22,55,854
755646,8440328,8864668,8444370,8870354,2725,2744,-423,-1972,1425,-608,-1285,3350,22,55,854
756647,8440472,8864948,8444567,8870551,2724,2734,-416,-1942,1501,558,-2515,3365,20,51,857
757648,8440620,8865224,8444764,8870748,2722,2725,-382,-1873,1429,1069,-464,3984,20,51,857
758656,8440776,8865536,8444994,8870978,2705,2465,-354,-1853,1320,1085,152,3397,31,54,858
759650,8440956,8865868,8445191,8871175,2564,2282,-350,-1961,1283,812,-252,2542,31,54,858
760651,8441136,8866168,8445388,8871372,2571,2437,-303,-2010,1398,-435,-504,4083,42,65,859
761652,8441320,8866448,8445585,8871569,2553,2527,-284,-1987,1550,-462,-530,3172,42,65,859
762653,8441484,8866712,8445782,8871766,2693,2598,-313,-2032,1556,953,-620,2577,38,53,862
763654,8441636,8867060,8445979,8871963,2789,2008,-270,-1961,1453,1478,-811,4393,38,53,862
764655,8441788,8867420,8446176,8872160,2810,1863,-186,-1821,1422,475,-910,3552,45,60,860
765656,8441988,8867756,8446373,8872357,2509,1952,-129,-1843,1453,763,-260,2434,45,60,860
766657,8442172,8868052,8446570,8872554,2615,2160,-131,-1959,1509,669,543,2343,39,58,862
767658,8442400,8868416,8446767,8872751,2328,1663,-114,-1943,1532,1209,-253,2899,39,58,862
768659,8442608,8868772,8446964,8872948,2449,1643,-89,-1647,1540,1124,-565,4355,56,67,864
769660,8442792,8869076,8447161,8873145,2605,1922,-83,-1236,1605,-35,-720,3658,56,67,864
770661,8442980,8869368,8447358,8873342,2585,1956,-142,-912,1596,968,-261,3595,35,73,867
771662,8443180,8869760,8447555,8873539,2509,1246,-228,-687,1431,1805,559,3038,35,73,867
772663,8443392,8870112,8447752,8873736,2429,1429,-317,-628,1211,1746,816,2295,52,59,865
773664,8443608,8870412,8447949,8873933,2396,1709,-369,-498,1142,605,133,2700,52,59,865
774665,8443840,8870688,8448146,8874130,2282,1825,-367,-302,1260,34,-619,2879,52,52,867
775666,8444048,8871036,8448343,8874327,2428,1310,-371,-112,1378,555,-707,2363,52,52,867
776667,8444232,8871404,8448540,8874524,2585,1110,-348,132,1350,1413,-572,3041,36,70,866
777668,8444468,8871720,8448737,8874721,2243,1383,-270,480,1253,1348,-1457,3542,36,70,866
778668,8444708,8872016,8448934,8874918,2200,1465,-248,602,1253,983,-4462,1500,35,52,868
779670,8444916,8872320,8449131,8875115,2396,1369,-224,663,1163,2075,-997,2214,35,52,868
780671,8445164,8872668,8449328,8875312,2124,1027,-166,795,1086,717,-209,2372,52,71,869
781672,8445416,8873008,8449525,8875509,2076,1016,-32,1062,1018,578,140,3105,52,71,869
782673,8445632,8873376,8449722,8875706,2293,765,138,1231,925,1079,-380,2459,58,74,868
783674,8445872,8873660,8449919,8875903,2125,1253,282,1374,867,961,-936,2378,58,74,868
784675,8446132,8874016,8450116,8876100,1973,733,358,1559,770,2062,-787,2152,63,69,872
785676,8446412,8874372,8450313,8876297,1813,664,382,1660,676,1445,21,1590,63,69,872
786677,8446648,8874676,8450510,8876494,2071,942,389,1896,701,565,-27,2745,62,66,869
787678,8446920,8875004,8450707,8876691,1814,735,385,2277,751,1240,-306,2632,62,66,869
788678,8447144,8875336,8450904,8876888,2103,652,404,2509,606,2313,219,1891,40,62,875
789680,8447364,8875672,8451101,8877085,2119,565,480,2744,390,2070,335,3148,40,62,875
790681,8447636,8876008,8451298,8877282,1761,504,503,3044,289,1629,8,2928,40,64,875
791682,8447896,8876320,8451495,8877479,1809,605,411,3150,383,404,-152,1035,40,64,875
792683,8448128,8876560,8451692,8877676,1970,1036,384,3212,479,1423,-556,2407,41,57,874
793684,8448376,8876928,8451889,8877873,1847,161,602,3510,484,2324,-1083,5285,41,57,874
794685,8448584,8877236,8452086,8878070,2093,487,846,3679,499,1783,-351,3329,56,52,875
795686,8448808,8877508,8452283,8878267,1983,679,835,3450,573,1393,333,474,56,52,875
796687,8449100,8877704,8452480,8878464,1516,1154,723,3142,665,1662,-484,2034,53,49,874
797688,8449368,8877944,8452677,8878661,1636,862,733,3080,682,1521,-1275,3788,53,49,874
798689,8449636,8878208,8452874,8878858,1605,682,887,2953,681,151,-1303,2883,42,36,873
799690,8449904,8878428,8453071,8879055,1574,947,1052,2418,731,-829,-568,2406,42,36,873
800691,8450148,8878624,8453268,8879252,1705,1097,1234,1812,748,-93,129,3133,64,37,875
801692,8450400,8878808,8453465,8879449,1630,1178,1314,1281,653,526,-600,3453,64,37,875
802693,8450720,8878960,8453662,8879646,1152,1398,1368,1100,619,-1473,-1600,4369,62,38,875
803694,8450996,8879120,8453859,8879843,1394,1364,1265,1097,634,-1495,-1414,4685,62,38,875
804695,8451268,8879328,8454056,8880040,1386,1059,995,1328,514,-78,-99,4587,62,39,874
805696,8451516,8879544,8454253,8880237,1514,1002,690,1783,337,-287,-296,6158,62,39,874
806697,8451836,8879736,8454450,8880434,1010,1154,381,1934,200,-473,-1358,4566,43,33,874
807698,8452096,8879932,8454647,8880631,1359,1130,273,1951,104,-113,-1807,5647,43,33,874
808699,8452356,8880100,8454844,8880828,1331,1317,205,1634,12,236,-914,4608,55,30,874
809700,8452632,8880220,8455041,8881025,1197,1651,198,1108,-75,191,373,3638,55,30,874
810700,8452872,8880384,8455238,8881222,1403,1391,224,442,-137,852,-205,4189,57,32,875
811702,8453136,8880532,8455435,8881419,1225,1512,201,196,-209,1282,615,5442,57,32,875
812703,8453392,8880668,8455632,8881616,1249,1615,179,-100,-295,852,1118,3842,58,39,874
813704,8453620,8880872,8455829,8881813,1410,1187,207,-888,-351,238,504,4255,58,39,874
814705,8453840,8881084,8456026,8882010,1451,1130,448,-2111,-447,1000,-603,4487,57,39,874
815706,8454068,8881308,8456223,8882207,1388,1044,651,-3488,-627,2024,-512,4346,57,39,874
816707,8454252,8881480,8456420,8882404,1669,1380,616,-4415,-806,1321,124,4523,52,44,875
817708,8454436,8881664,8456617,8882601,1675,1310,363,-4621,-887,388,-12,5580,52,44,875
818709,8454616,8881844,8456814,8882798,1707,1344,-56,-4063,-936,1004,398,6487,26,36,875
819710,8454760,8882012,8457011,8882995,1957,1431,-548,-3457,-1060,2118,1145,4366,26,36,875
820711,8454916,8882252,8457208,8883192,1900,963,-1010,-2859,-1246,3385,688,5855,26,30,872
821712,8455052,8882492,8457405,8883389,2053,944,-1342,-2235,-1398,3623,951,6051,26,30,872
822713,8455208,8882700,8457602,8883586,1946,1139,-1631,-1947,-1422,3012,1035,4370,27,38,870
823714,8455360,8882884,8457799,8883783,1991,1296,-1773,-1958,-1318,2648,666,4797,27,38,870
824715,8455504,8883064,8457996,8883980,2065,1328,-1690,-2251,-1133,2564,-152,4643,39,24,872
825716,8455704,8883220,8458193,8884177,1714,1496,-1449,-2666,-971,3067,263,4480,39,24,872
826717,8455876,8883384,8458390,8884374,1900,1461,-1229,-3005,-870,3142,1478,4516,24,38,870
827718,8456028,8883512,8458587,8884571,2046,1716,-1177,-3116,-772,3334,1162,4125,24,38,870
828719,8456180,8883712,8458784,8884768,2066,1265,-1275,-3024,-653,3412,1531,4086,29,24,872
829720,8456336,8883896,8458981,8884965,2060,1371,-1453,-2759,-584,4476,1099,4200,29,24,872
830721,8456492,8884052,8459178,8885162,2078,1564,-1690,-2330,-577,4423,549,4499,38,34,867
831722,8456680,8884212,8459375,8885359,1883,1556,-1856,-1953,-548,3888,670,4615,38,34,867
832723,8456848,8884344,8459572,8885556,2021,1759,-1874,-1752,-393,3211,171,4124,41,37,870
833724,8457016,8884488,8459769,8885753,2034,1708,-1779,-1791,-154,2631,182,3665,41,37,870
834725,8457204,8884616,8459966,8885950,1913,1839,-1604,-1895,36,2610,-37,3936,44,17,870
835726,8457396,8884744,8460163,8886147,1891,1869,-1372,-1834,154,3002,-89,5065,44,17,870
836727,8457560,8884892,8460360,8886344,2081,1766,-1143,-1490,263,3302,-489,5830,47,24,869
837728,8457792,8885032,8460557,8886541,1642,1842,-1015,-1020,382,2984,-645,5173,47,24,869
838729,8458028,8885180,8460754,8886738,1599,1813,-1006,-700,386,3089,-681,3937,37,25,868
839730,8458244,8885280,8460951,8886935,1717,2156,-1045,-463,353,2312,-666,3875,37,25,868
840731,8458472,8885396,8461148,8887132,1628,2091,-1057,-116,394,1888,-817,4807,33,25,868
841739,8458684,8885488,8461378,8887362,1737,2303,-1035,438,392,2859,-1420,5746,33,25,868
842733,8458912,8885600,8461575,8887559,1624,2215,-908,1173,334,2462,-1575,6974,30,29,867
843734,8459140,8885704,8461772,8887756,1611,2307,-717,1809,357,1532,-1518,6438,30,29,867
844735,8459368,8885820,8461969,8887953,1598,2268,-685,1911,400,2107,-1743,2809,43,16,866
845736,8459616,8885940,8462166,8888150,1451,2277,-857,1328,448,1800,-1968,-248,43,16,866
846737,8459852,8886048,8462363,8888347,1509,2392,-873,689,602,761,-2555,3393,35,14,867
847738,8460084,8886144,8462560,8888544,1520,2511,-583,402,684,1604,-2708,5455,35,14,867
848739,8460324,8886260,8462757,8888741,1451,2423,-312,122,668,1446,-2461,4107,48,18,868
849740,8460532,8886388,8462954,8888938,1647,2378,-208,-77,707,451,-2271,4489,48,18,868
850741,8460784,8886508,8463151,8889135,1348,2463,-243,6,703,1643,-2344,5936,40,27,867
851742,8461028,8886636,8463348,8889332,1378,2443,-309,181,671,1395,-1856,5467,40,27,867
852743,8461240,8886760,8463545,8889529,1571,2501,-357,177,734,43,-1548,4959,40,27,865
853744,8461520,8886888,8463742,8889726,1110,2507,-335,135,794,552,-1295,5318,40,27,865
854745,8461768,8887032,8463939,8889923,1289,2431,-223,-13,829,244,-1373,5386,44,26,867
855746,8461980,8887156,8464136,8890120,1507,2588,-72,-240,875,-150,-1409,5235,44,26,867
856747,8462248,8887296,8464333,8890317,1127,2514,42,-504,894,358,-743,4662,34,27,868
857748,8462476,8887424,8464530,8890514,1363,2619,99,-682,948,-89,-1204,4754,34,27,868
858749,8462692,8887560,8464727,8890711,1430,2597,163,-788,1040,-551,-1461,5020,40,32,865
859750,8462956,8887708,8464924,8890908,1101,2545,218,-845,1057,-584,-1013,4620,40,32,865
860751,8463180,8887872,8465121,8891105,1339,2459,209,-914,1005,-1156,-1098,4075,33,26,866
861752,8463388,8888032,8465318,8891302,1436,2502,236,-750,859,-463,-1244,5715,33,26,866
862753,8463596,8888180,8465515,8891499,1431,2598,306,-573,724,-766,-852,4983,31,27,867
863754,8463808,8888328,8465712,8891696,1399,2621,368,-574,643,-657,-722,4237,31,27,867
864755,8464008,8888504,8465909,8891893,1474,2456,405,-663,585,-92,-85,4248,31,34,865
865756,8464188,8888684,8466106,8892090,1606,2438,429,-842,592,169,-832,3599,31,34,865
866756,8464428,8888848,8466303,8892287,1212,2554,437,-902,584,1004,-482,3948,32,27,866
867758,8464644,8889012,8466500,8892484,1355,2569,301,-1000,601,604,287,1964,32,27,866
868759,8464844,8889244,8466697,8892681,1454,2129,55,-800,585,1635,636,2734,34,52,867
869760,8465052,8889520,8466894,8892878,1400,1820,-178,-342,447,2989,1329,3474,34,52,867
870761,8465244,8889800,8467091,8893075,1502,1760,-444,10,253,3153,1998,1228,41,55,867
871762,8465440,8890104,8467288,8893272,1478,1563,-721,160,204,2293,439,1002,41,55,867
872763,8465660,8890376,8467485,8893469,1319,1731,-711,453,409,801,-1210,4237,40,57,872
873764,8465876,8890664,8467682,8893666,1335,1591,-474,441,769,-464,-1472,2360,40,57,872
874765,8466084,8890944,8467879,8893863,1380,1605,-200,-67,1002,34,71,1324,34,48,872
875766,8466280,8891244,8468076,8894060,1457,1435,73,-376,1137,217,-615,4415,34,48,872
876767,8466464,8891508,8468273,8894257,1537,1632,236,-565,1111,1442,-820,3280,44,61,873
877768,8466620,8891820,8468470,8894454,1730,1282,286,-864,899,1622,530,2188,44,61,873
878769,8466808,8892108,8468667,8894651,1535,1392,315,-1143,604,937,1378,3865,45,52,873
879770,8466988,8892408,8468864,8894848,1593,1273,337,-1043,346,680,86,5254,45,52,873
880771,8467152,8892664,8469061,8895045,1707,1522,262,-934,122,384,590,3846,32,55,872
881772,8467348,8892916,8469258,8895242,1509,1523,141,-844,-7,-239,689,4202,32,55,872
882773,8467544,8893212,8469455,8895439,1509,1205,172,-648,-106,-306,1216,5293,44,45,874
883774,8467692,8893448,8469652,8895636,1831,1563,280,-519,-230,-415,934,3983,44,45,874
884775,8467872,8893676,8469849,8895833,1639,1600,292,-625,-376,-480,319,2642,33,51,871
885776,8468036,8893860,8470046,8896030,1754,1881,256,-652,-463,170,726,4307,33,51,871
886777,8468192,8894052,8470243,8896227,1823,1834,234,-594,-429,1063,646,4336,42,35,870
887778,8468308,8894224,8470440,8896424,2108,1970,204,-718,-292,1479,162,2101,42,35,870
888779,8468496,8894428,8470637,8896621,1662,1767,202,-948,-69,1684,-62,2119,26,35,869
889780,8468644,8894588,8470834,8896818,1935,2059,212,-1079,212,1762,-1128,2164,26,35,869
890781,8468780,8894748,8471031,8897015,2037,2076,183,-901,516,2186,-1182,3447,24,32,867
891782,8468956,8894900,8471228,8897212,1797,2147,90,-320,791,3445,-847,4806,24,32,867
892783,8469112,8895072,8471425,8897409,1940,2033,-18,486,1110,2879,-505,5765,24,24,867
893784,8469288,8895248,8471622,8897606,1824,2018,-144,1134,1362,3439,-777,4603,24,24,867
894785,8469432,8895412,8471819,8897803,2048,2107,-290,1562,1562,2630,-1260,3933,21,32,867
895786,8469584,8895540,8472016,8898000,2018,2363,-416,1870,1793,1645,-1178,4254,21,32,867
896787,8469712,8895668,8472213,8898197,2200,2394,-521,2221,2016,2036,-1320,4545,38,20,865
897788,8469864,8895816,8472410,8898394,2069,2290,-555,2632,2270,1301,-2064,5143,38,20,865
898789,8470000,8895972,8472607,8898591,2197,2259,-545,2904,2449,966,-821,4653,25,31,865
899790,8470096,8896188,8472804,8898788,2492,1876,-718,2405,2535,163,-784,-356,25,31,865
900791,8470236,8896368,8473001,8898985,2243,2110,-761,1758,2458,491,-479,3146,34,44,865
901792,8470444,8896564,8473198,8899182,1813,2010,-496,1457,2277,-41,-1106,5779,34,44,865
902793,8470600,8896748,8473395,8899379,2157,2092,-331,965,2049,-377,149,1203,41,46,865
903794,8470780,8896940,8473592,8899576,2014,2044,-239,663,1811,-219,628,3907,41,46,865
904795,8470944,8897140,8473789,8899773,2130,1994,-159,846,1525,7,244,5115,28,34,868
905796,8471124,8897364,8473986,8899970,2037,1832,-314,1304,1296,26,1106,3527,28,34,868
906797,8471268,8897604,8474183,8900167,2287,1714,-609,1754,1258,-312,-478,3669,46,51,865
907798,8471452,8897868,8474380,8900364,2043,1534,-735,2248,1293,-458,-787,5390,46,51,865
908799,8471600,8898176,8474577,8900561,2290,1212,-723,2426,1297,0,257,4076,25,40,867
909800,8471744,8898428,8474774,8900758,2339,1537,-699,2187,1371,-649,-966,2827,25,40,867
910801,8471912,8898640,8474971,8900955,2202,1782,-614,1797,1510,-375,-1271,3673,24,54,869
911802,8472064,8898808,8475168,8901152,2323,2070,-444,1376,1578,-2,-457,3679,24,54,869
912803,8472204,8898976,8475365,8901349,2423,2083,-303,1053,1560,-26,-1055,3837,24,29,868
913804,8472352,8899164,8475562,8901546,2395,1962,-175,1009,1391,919,831,4918,24,29,868
914805,8472484,8899376,8475759,8901743,2525,1807,-196,1073,1248,153,1221,3750,26,44,865
915806,8472612,8899616,8475956,8901940,2580,1613,-366,1092,1143,-676,1468,3004,26,44,865
916807,8472772,8899908,8476153,8902137,2397,1246,-483,1358,1090,-1339,-300,6515,37,43,865
917808,8472924,8900100,8476350,8902334,2468,1874,-460,1664,1104,-1651,-909,6285,37,43,865
918809,8473072,8900380,8476547,8902531,2515,1288,-401,1494,1067,-1045,234,4157,32,63,865
919810,8473212,8900700,8476744,8902728,2591,985,-311,1030,992,-103,-252,4373,32,63,865
920811,8473384,8901000,8476941,8902925,2403,1064,-171,580,964,83,-1221,5188,46,53,866
921812,8473524,8901296,8477138,8903122,2628,1046,-58,168,1028,-773,-2065,4043,46,53,866
922813,8473684,8901608,8477335,8903319,2520,896,5,-192,1036,-141,-1416,3900,46,68,868
923814,8473848,8901896,8477532,8903516,2510,1006,27,-323,1099,-1251,-2368,4409,46,68,868
924824,8474008,8902156,8477762,8903746,2566,1168,71,-196,1233,-775,-2735,5455,47,59,868
925816,8474152,8902368,8477959,8903943,2690,1463,88,-106,1198,703,-2866,4619,47,59,868
926817,8474316,8902604,8478156,8904140,2581,1296,49,-73,933,691,-2263,4883,47,44,869
927818,8474484,8902876,8478353,8904337,2569,1038,-8,13,538,566,-1369,5946,47,44,869
928819,8474628,8903104,8478550,8904534,2743,1300,-54,168,79,288,-615,6609,29,42,865
929820,8474800,8903320,8478747,8904731,2580,1367,-178,105,-426,-358,-690,5102,29,42,865
930821,8474976,8903536,8478944,8904928,2565,1358,-364,155,-869,-1099,-363,6038,48,36,867
931822,8475136,8903736,8479141,8905125,2682,1457,-637,301,-1139,-1554,-229,5138,48,36,867
932823,8475328,8903980,8479338,8905322,2485,1162,-862,599,-1228,-973,177,6145,38,39,867
933824,8475472,8904220,8479535,8905519,2809,1168,-843,993,-1235,-82,-703,7269,38,39,867
934825,8475612,8904464,8479732,8905716,2860,1123,-726,1212,-1224,787,-1460,5590,42,52,865
935826,8475768,8904716,8479929,8905913,2779,1049,-510,1360,-1145,566,-1667,6243,42,52,865
936827,8475960,8904920,8480126,8906110,2556,1346,-193,1308,-1064,839,-1615,5333,25,52,866
937828,8476124,8905096,8480323,8906307,2747,1531,141,876,-981,1353,-2246,3503,25,52,866
938829,8476272,8905304,8480520,8906504,2869,1326,535,380,-930,1811,-1958,4666,34,34,867
939830,8476428,8905520,8480717,8906701,2838,1267,869,-75,-898,1160,-2064,3643,34,34,867
940831,8476604,8905756,8480914,8906898,2724,1126,1066,-420,-866,364,-2020,3625,50,47,864
941832,8476784,8905952,8481111,8907095,2706,1377,1121,-447,-959,1010,-2366,4792,50,47,864
942833,8476996,8906144,8481308,8907292,2500,1404,1005,-82,-1146,551,-198,5052,38,37,866
943834,8477184,8906352,8481505,8907489,2655,1299,730,374,-1265,-1034,-503,4001,38,37,866
944835,8477364,8906516,8481702,8907686,2714,1589,488,760,-1397,-697,-548,5809,28,44,866
945836,8477592,8906676,8481899,8907883,2401,1631,337,880,-1570,-521,-974,5002,28,44,866
946837,8477756,8906844,8482096,8908080,2816,1594,257,739,-1722,164,-964,4958,27,31,867
947838,8477932,8907024,8482293,8908277,2751,1526,279,445,-1823,831,-439,5677,27,31,867
948839,8478132,8907184,8482490,8908474,2601,1667,295,-74,-1842,478,-1007,4156,26,25,866
949840,8478328,8907368,8482687,8908671,2627,1524,302,-517,-1806,376,-548,4899,26,25,866
950841,8478528,8907508,8482884,8908868,2602,1824,256,-680,-1793,1108,181,4700,43,29,862
951842,8478732,8907656,8483081,8909065,2575,1796,108,-576,-1808,1646,441,4344,43,29,862
952843,8478976,8907756,8483278,8909262,2304,2138,-26,-276,-1801,1440,-337,4942,35,34,864
953844,8479200,8907884,8483475,8909459,2418,1995,-75,-19,-1798,1239,-595,4609,35,34,864
954845,8479400,8907992,8483672,8909656,2568,2159,45,-33,-1783,1141,-404,3635,34,25,864
955846,8479632,8908100,8483869,8909853,2353,2198,106,-172,-1710,799,-281,3671,34,25,864
956847,8479856,8908216,8484066,8910050,2393,2184,143,-260,-1583,10,137,3409,34,17,864
957848,8480088,8908320,8484263,8910247,2328,2300,132,-318,-1468,-291,227,3042,34,17,864
958849,8480340,8908436,8484460,8910444,2179,2261,84,-307,-1497,706,43,3193,46,17,864
959850,8480580,8908560,8484657,8910641,2236,2244,45,-227,-1589,471,276,4098,46,17,864
960851,8480824,8908712,8484854,8910838,2191,2089,27,-182,-1706,629,-373,3603,42,28,864
961852,8481076,8908828,8485051,8911035,2118,2349,54,-235,-1822,834,-395,3940,42,28,864
962853,8481332,8908952,8485248,8911232,2067,2332,125,-459,-1911,664,-108,3656,61,26,864
963854,8481572,8909060,8485445,8911429,2150,2472,127,-649,-1933,780,183,3185,61,26,864
964855,8481864,8909160,8485642,8911626,1784,2565,61,-765,-1851,413,240,3108,47,29,864
965856,8482132,8909264,8485839,8911823,1904,2581,-16,-712,-1754,242,159,3631,47,29,864
966857,8482396,8909384,8486036,8912020,1899,2516,-76,-678,-1700,126,-72,2847,59,20,863
967858,8482680,8909508,8486233,8912217,1737,2523,-117,-754,-1714,591,-132,2838,59,20,863
968859,8482956,8909644,8486430,8912414,1753,2476,-79,-806,-1753,511,-768,3285,46,36,864
969860,8483252,8909784,8486627,8912611,1585,2476,27,-912,-1799,284,-893,3330,46,36,864
970861,8483540,8909904,8486824,8912808,1596,2636,97,-1163,-1827,83,-332,2298,52,35,865
971862,8483832,8910028,8487021,8913005,1530,2643,133,-1432,-1822,-7,-25,2185,52,35,865
972863,8484112,8910168,8487218,8913202,1568,2569,59,-1601,-1798,250,13,2761,48,34,865
973864,8484388,8910304,8487415,8913399,1560,2621,-51,-1546,-1761,211,-64,2536,48,34,865
974865,8484688,8910428,8487612,8913596,1364,2729,-151,-1408,-1748,365,-173,3166,50,33,864
975866,8484968,8910540,8487809,8913793,1454,2842,-219,-1324,-1727,142,-111,2927,50,33,864
976867,8485228,8910676,8488006,8913990,1551,2719,-202,-1438,-1692,78,-602,2573,71,22,865
977868,8485556,8910832,8488203,8914187,1070,2613,-136,-1598,-1661,290,-656,3294,71,22,865
978869,8485832,8910984,8488400,8914384,1361,2659,-73,-1786,-1675,344,-225,2602,66,26,864
979870,8486104,8911116,8488597,8914581,1353,2812,-43,-2021,-1671,-372,-303,2584,66,26,864
980871,8486408,8911260,8488794,8914778,1106,2761,-34,-2254,-1661,-318,-207,2674,63,22,867
981872,8486684,8911404,8488991,8914975,1247,2786,-34,-2391,-1678,-231,79,2818,63,22,867
982873,8486924,8911564,8489188,8915172,1453,2702,-72,-2497,-1691,-277,-144,2429,60,23,865
983874,8487200,8911704,8489385,8915369,1195,2853,-68,-2587,-1738,403,78,3092,60,23,865
984875,8487456,8911840,8489582,8915566,1294,2906,-37,-2660,-1740,190,-97,3071,64,22,864
985876,8487728,8911980,8489779,8915763,1162,2906,8,-2768,-1685,332,-215,2417,64,22,864
986877,8487984,8912104,8489976,8915960,1236,3039,67,-2862,-1625,532,24,2787,46,24,865
987878,8488236,8912268,8490173,8916157,1237,2805,99,-3025,-1497,-112,-176,2246,46,24,865
988879,8488476,8912448,8490370,8916354,1294,2713,160,-3150,-1371,164,189,2487,58,36,865
989880,8488692,8912624,8490567,8916551,1435,2747,179,-3245,-1255,-143,482,2449,58,36,865
990881,8488924,8912788,8490764,8916748,1320,2838,185,-3309,-1180,97,-183,2224,39,42,866
991882,8489172,8912964,8490961,8916945,1199,2773,191,-3213,-1190,618,205,3574,39,42,866
992883,8489408,8913124,8491158,8917142,1257,2890,179,-3102,-1203,588,-28,2948,41,37,865
993884,8489672,8913340,8491355,8917339,1052,2532,154,-3090,-1215,1163,425,3495,41,37,865
994885,8489912,8913516,8491552,8917536,1184,2792,152,-3166,-1163,524,-5,3666,43,45,864
995886,8490144,8913732,8491749,8917733,1219,2535,150,-3424,-1038,-257,331,3058,43,45,864
996887,8490384,8913912,8491946,8917930,1150,2768,139,-3730,-919,55,757,3474,39,35,866
997888,8490636,8914112,8492143,8918127,1052,2642,72,-4012,-860,244,876,2976,39,35,866
998889,8490888,8914328,8492340,8918324,1028,2535,1,-4119,-845,332,736,4014,50,52,868
999890,8491140,8914548,8492537,8918521,1003,2500,-64,-4135,-847,386,584,3851,50,52,868
1000890,8491364,8914720,8492734,8918718,1168,2812,-111,-4068,-772,285,280,4264,40,38,867
1001891,8491608,8914944,8492931,8918915,1022,2476,-165,-3819,-783,1943,-390,5139,40,38,867
1002893,8491840,8915152,8493128,8919112,1082,2572,-276,-3578,-777,1286,229,3699,36,50,869
1003894,8492076,8915388,8493325,8919309,1039,2381,-405,-3364,-575,104,1130,3877,36,50,869
1004895,8492300,8915584,8493522,8919506,1104,2632,-453,-3209,-359,1078,165,4301,38,49,869
1005896,8492544,8915788,8493719,8919703,958,2579,-428,-3124,-225,1517,301,4313,38,49,869
1006897,8492764,8915996,8493916,8919900,1098,2550,-423,-3246,-84,1292,476,3002,43,51,868
1007905,8492980,8916224,8494146,8920130,1129,2427,-414,-3328,39,1708,120,4340,43,51,868
1008899,8493196,8916460,8494343,8920327,1121,2361,-343,-3251,114,1531,190,5015,45,46,869
1009900,8493388,8916652,8494540,8920524,1274,2638,-306,-3264,139,1396,-64,3724,45,46,869
1010901,8493568,8916892,8494737,8920721,1356,2320,-279,-3214,210,1124,-157,5246,30,38,869
1011902,8493760,8917084,8494934,8920918,1283,2623,-270,-3034,249,2140,-557,5274,30,38,869
1012903,8493924,8917264,8495131,8921115,1473,2707,-296,-2835,199,2750,-1155,4981,35,32,867
1013904,8494100,8917476,8495328,8921312,1408,2500,-308,-2653,210,1780,-864,5699,35,32,867
1014905,8494284,8917676,8495525,8921509,1364,2575,-308,-2557,346,1268,-450,4875,26,34,867
1015906,8494472,8917904,8495722,8921706,1343,2387,-363,-2457,526,1521,-903,5036,26,34,867
1016906,8494644,8918140,8495919,8921903,1454,2320,-363,-2374,711,1155,-952,5384,42,48,866
1017908,8494792,8918320,8496116,8922100,1625,2679,-328,-2357,854,1012,-1273,5315,42,48,866
1018909,8494964,8918524,8496313,8922297,1487,2527,-297,-2397,870,1805,-1172,4715,21,42,866
1019910,8495140,8918724,8496510,8922494,1472,2551,-310,-2484,842,1536,-1097,4801,21,42,866
1020911,8495292,8918912,8496707,8922691,1641,2630,-358,-2424,897,603,-703,5036,46,30,865
1021912,8495472,8919100,8496904,8922888,1475,2635,-416,-2290,960,1067,-1142,4839,46,30,865
1022913,8495628,8919284,8497101,8923085,1643,2667,-472,-2052,936,1783,-1278,5284,40,29,866
1023914,8495768,8919460,8497298,8923282,1768,2726,-479,-1880,1007,615,-1844,5311,40,29,866
1024915,8495932,8919608,8497495,8923479,1632,2924,-449,-1829,1051,1266,-1729,5022,37,39,865
1025916,8496076,8919772,8497692,8923676,1782,2839,-377,-1893,1081,831,-1684,4799,37,39,865
1026917,8496244,8919928,8497889,8923873,1644,2908,-296,-1978,1123,700,-1751,4759,34,39,864
1027918,8496404,8920124,8498086,8924070,1711,2659,-223,-1975,1158,876,-1390,4971,34,39,864
1028919,8496572,8920280,8498283,8924267,1674,2928,-151,-1945,1153,990,-962,4856,28,31,862
1029920,8496724,8920452,8498480,8924464,1794,2840,-132,-1951,1134,858,-1293,4130,28,31,862
1030921,8496884,8920604,8498677,8924661,1760,2985,-81,-1978,1146,538,-1032,4623,39,38,864
1031922,8497044,8920764,8498874,8924858,1778,2952,-34,-1873,1123,1229,-733,5127,39,38,864
1032923,8497220,8920916,8499071,8925055,1687,3022,-47,-1943,1073,937,-1261,3178,35,22,862
1033924,8497380,8921076,8499268,8925252,1803,2990,-45,-1848,1106,426,-1083,5097,35,22,862
1034925,8497576,8921212,8499465,8925449,1580,3167,11,-1634,1118,943,-2092,4961,40,21,861
1035926,8497748,8921352,8499662,8925646,1741,3169,59,-1548,1141,70,-1487,3977,40,21,861
1036927,8497932,8921512,8499859,8925843,1671,3060,156,-1449,1109,1192,-1368,4852,48,30,861
1037928,8498096,8921680,8500056,8926040,1812,3024,329,-1363,1091,687,-1233,5633,48,30,861
1038929,8498296,8921832,8500253,8926237,1586,3144,407,-1561,1075,704,-1518,2800,43,38,858
1039930,8498460,8921980,8500450,8926434,1825,3192,435,-1813,1157,-302,-1073,3743,43,38,858
1040931,8498672,8922156,8500647,8926631,1519,3027,472,-1749,1161,687,-1642,4958,34,25,859
1041932,8498852,8922304,8500844,8926828,1727,3225,457,-1665,1142,-2,-931,3650,34,25,859
1042933,8499048,8922464,8501041,8927025,1628,3167,457,-1474,1113,495,-978,4849,50,25,858
1043934,8499240,8922624,8501238,8927222,1656,3183,439,-1396,1026,856,-993,3879,50,25,858
1044934,8499436,8922824,8501435,8927419,1631,2933,479,-1418,968,275,-463,4289,46,36,860
1045936,8499632,8922992,8501632,8927616,1632,3147,501,-1512,1000,-280,-307,3899,46,36,860
1046936,8499820,8923160,8501829,8927813,1686,3160,488,-1527,1043,435,-339,4528,33,38,860
1047938,8500032,8923312,8502026,8928010,1531,3281,425,-1425,1056,410,-849,4281,33,38,860
1048938,8500228,8923460,8502223,8928207,1631,3329,387,-1344,1032,122,-575,4575,31,37,861
1049940,8500416,8923632,8502420,8928404,1685,3191,383,-1346,1014,223,-708,4560,31,37,861
1050940,8500600,8923780,8502617,8928601,1717,3363,400,-1360,1009,523,-159,4695,50,39,859
1051942,8500764,8923948,8502814,8928798,1856,3252,342,-1388,1043,381,298,4007,50,39,859
1052943,8500956,8924120,8503011,8928995,1684,3238,222,-1359,1105,-150,509,3900,32,42,860
1053944,8501140,8924316,8503208,8929192,1740,3089,149,-1212,1222,-909,215,4936,32,42,860
1054945,8501328,8924488,8503405,8929389,1719,3251,127,-1038,1295,-682,-108,4379,28,30,859
1055946,8501488,8924688,8503602,8929586,1912,3076,121,-1027,1313,-502,-770,4381,28,30,859
1056947,8501660,8924856,8503799,8929783,1847,3290,208,-1044,1364,-903,-487,5040,33,26,861
1057948,8501824,8925028,8503996,8929980,1912,3277,226,-1285,1439,-723,565,3449,33,26,861
1058948,8501976,8925172,8504193,8930177,2008,3476,80,-1633,1224,2803,2012,1925,24,30,860
1059950,8502132,8925328,8504390,8930374,2001,3420,-51,-1612,714,5362,702,4844,24,30,860
1060951,8502264,8925512,8504587,8930571,2180,3252,-73,-1179,688,-831,-449,5978,38,25,857
1061952,8502388,8925688,8504784,8930768,2262,3312,-125,-1019,966,-1616,243,2415,38,25,857
1062953,8502540,8925856,8504981,8930965,2108,3376,-164,-981,1151,-728,596,4234,27,40,855
1063954,8502716,8926008,8505178,8931162,1967,3496,-102,-857,1117,760,-786,5024,27,40,855
1064955,8502880,8926152,8505375,8931359,2058,3571,-108,-907,1005,769,-451,2836,33,27,856
1065956,8503048,8926292,8505572,8931556,2046,3622,-151,-1116,990,102,-690,2491,33,27,856
1066956,8503200,8926452,8505769,8931753,2165,3514,-160,-1264,983,295,-364,3939,41,35,856
1067958,8503360,8926616,8505966,8931950,2133,3505,-149,-1198,1002,-33,98,3775,41,35,856
1068959,8503492,8926784,8506163,8932147,2336,3493,-217,-1124,1022,343,2,3259,43,25,855
1069960,8503680,8926920,8506360,8932344,1991,3721,-245,-918,1015,409,268,4977,43,25,855
1070961,8503816,8927076,8506557,8932541,2343,3615,-251,-768,1040,-138,-932,3882,31,34,855
1071962,8503976,8927240,8506754,8932738,2210,3581,-269,-866,1040,-39,-972,2872,31,34,855
1072963,8504124,8927420,8506951,8932935,2308,3489,-248,-932,1056,-115,-358,4187,27,38,852
1073976,8504264,8927552,8507148,8933132,2383,3800,-239,-952,1014,705,190,3555,27,38,852
1074964,8504380,8927728,8507345,8933329,2569,3554,-275,-921,975,614,109,3698,21,26,854
1075979,8504524,8927868,8507542,8933526,2418,3800,-315,-915,982,254,-813,3720,21,26,854
1076967,8504652,8928032,8507739,8933723,2549,3670,-292,-904,993,431,-456,4430,20,28,851
1077968,8504776,8928196,8507936,8933920,2606,3686,-264,-967,997,167,-420,3470,20,28,851
1078968,8504920,8928428,8508133,8934117,2505,3247,-239,-997,955,629,-354,4093,39,51,850
1079970,8505052,8928660,8508330,8934314,2610,3233,-210,-1027,910,583,22,3757,39,51,850
1080970,8505188,8928876,8508527,8934511,2612,3326,-189,-1166,956,-450,363,2791,27,50,851
1081972,8505312,8929076,8508724,8934708,2720,3426,-184,-1343,1055,-216,-137,3191,27,50,851
1082972,8505464,8929280,8508921,8934905,2565,3398,-178,-1512,1063,1077,-1522,3118,29,50,854
1083974,8505604,8929560,8509118,8935102,2666,2888,-156,-1530,1022,726,-1575,3535,29,50,854
1084975,8505736,8929844,8509315,8935299,2745,2826,-123,-1563,1078,-720,-430,3117,39,59,852
1085976,8505872,8930120,8509512,8935496,2747,2842,-86,-1645,1174,-291,5,3143,39,59,852
1086977,8506012,8930388,8509709,8935693,2748,2862,-66,-1691,1191,1065,-96,3377,23,59,857
1087978,8506128,8930672,8509906,8935890,2935,2725,-73,-1665,1098,1704,70,3686,23,59,857
1088979,8506308,8931036,8510103,8936087,2543,2152,-71,-1582,1007,1143,26,3780,41,62,857
1089980,8506476,8931364,8510300,8936284,2631,2321,-124,-1639,1074,-120,-596,2866,41,62,857
1090988,8506648,8931676,8510530,8936514,2632,2386,-181,-1641,1289,-952,-812,3833,43,61,857
1091982,8506836,8931972,8510727,8936711,2537,2443,-234,-1554,1412,-10,-434,3596,43,61,857
1092983,8506984,8932248,8510924,8936908,2810,2534,-263,-1507,1319,1208,-304,3251,34,59,862
1093984,8507116,8932612,8511121,8937105,2939,1912,-294,-1511,1191,953,-490,3328,34,59,862
1094985,8507288,8933028,8511318,8937302,2700,1491,-273,-1480,1158,577,-374,3314,47,62,861
1095986,8507456,8933320,8511515,8937499,2739,2225,-165,-1443,1256,-89,90,3981,47,62,861
1096987,8507648,8933636,8511712,8937696,2592,2024,-60,-1536,1267,1079,434,2448,49,74,861
1097988,8507844,8933996,8511909,8937893,2568,1678,-13,-1622,1124,1846,364,2936,49,74,861
1098989,8508044,8934364,8512106,8938090,2543,1554,76,-1348,1072,133,-58,4786,49,69,861
1099990,8508228,8934704,8512303,8938287,2649,1666,193,-1111,1172,-925,-292,3744,49,69,861
1100991,8508392,8935048,8512500,8938484,2790,1577,236,-1177,1148,1219,-762,1903,34,60,865
1101992,8508592,8935404,8512697,8938681,2563,1434,209,-1292,990,1988,-1778,2495,34,60,865
1102993,8508776,8935756,8512894,8938878,2670,1390,246,-1129,875,1160,-2170,3422,39,56,865
1103994,8508984,8936052,8513091,8939075,2516,1698,253,-941,910,560,-428,2248,39,56,865
1104995,8509212,8936360,8513288,8939272,2379,1574,115,-829,1035,1069,-606,1611,32,53,865
1105996,8509400,8936736,8513485,8939469,2634,1072,-30,-430,1109,1485,-1194,3722,32,53,865
1106997,8509600,8937072,8513682,8939666,2557,1260,38,52,1109,951,-1042,3802,55,53,864
1107998,8509800,8937372,8513879,8939863,2557,1441,224,141,970,1541,-613,1805,55,53,864
1108999,8510008,8937644,8514076,8940060,2503,1583,281,19,854,950,-183,914,41,51,868
1110000,8510252,8937956,8514273,8940257,2259,1284,201,57,823,1397,150,1425,41,51,868
1111001,8510496,8938360,8514470,8940454,2238,618,169,493,819,1364,41,3104,36,56,867
1112002,8510716,8938696,8514667,8940651,2379,983,216,1092,851,547,-254,3327,36,56,867
1113003,8510964,8939024,8514864,8940848,2182,975,168,1634,829,1369,58,2900,56,73,869
1114004,8511212,8939352,8515061,8941045,2161,917,-13,2216,695,2373,106,3278,56,73,869
1115005,8511428,8939720,8515258,8941242,2353,593,-169,2768,540,1025,-1367,3858,61,70,870
1116006,8511672,8940056,8515455,8941439,2158,732,-179,2943,322,419,-1180,2469,61,70,870
1117007,8511972,8940400,8515652,8941636,1764,618,-93,2935,136,236,131,2786,64,72,871
1118008,8512216,8940696,8515849,8941833,2094,875,-42,3028,43,674,55,2549,64,72,871
1119009,8512472,8941052,8516046,8942030,1993,430,-9,3107,-63,2157,-183,2347,50,71,872
1120010,8512708,8941392,8516243,8942227,2102,467,68,3353,-130,2458,287,4197,50,71,872
1121011,8512948,8941696,8516440,8942424,2059,645,108,3549,-169,2563,478,2263,44,55,872
1122012,8513188,8941928,8516637,8942621,2040,1080,57,3238,-102,1413,-1033,577,44,55,872
1123013,8513432,8942264,8516834,8942818,1996,369,178,2907,4,990,-887,3159,53,52,873
1124014,8513708,8942576,8517031,8943015,1762,468,473,2781,57,1241,-1386,4235,53,52,873
1125015,8513956,8942864,8517228,8943212,1914,579,684,2782,-8,2826,-712,2999,51,65,872
1126016,8514176,8943112,8517425,8943409,2080,807,611,2668,-19,1752,-563,1646,51,65,872
1127017,8514420,8943312,8517622,8943606,1910,1106,502,2647,40,806,-644,3430,60,40,874
1128018,8514708,8943548,8517819,8943803,1596,864,500,2531,22,892,-62,3079,60,40,874
1129019,8514964,8943772,8518016,8944000,1771,927,577,2254,92,-688,-531,2758,57,46,872
1130020,8515228,8943972,8518213,8944197,1691,1075,748,1887,178,256,-1182,3914,57,46,872
1131021,8515476,8944156,8518410,8944394,1770,1181,959,1465,115,889,-177,3957,42,42,875
1132022,8515728,8944328,8518607,8944591,1721,1267,1115,946,79,-937,-697,3090,42,42,875
1133023,8516020,8944488,8518804,8944788,1430,1358,1245,670,104,-970,-732,5191,48,24,874
1134024,8516292,8944628,8519001,8944985,1522,1508,1241,418,71,-481,-786,3883,48,24,874
1135025,8516560,8944800,8519198,8945182,1517,1319,1105,112,29,-1150,-1613,4063,44,30,873
1136026,8516796,8944980,8519395,8945379,1700,1277,928,135,-29,-744,-1853,6277,44,30,873
1137027,8517084,8945164,8519592,8945576,1336,1258,674,492,-282,1094,-199,5462,59,28,872
1138028,8517348,8945340,8519789,8945773,1456,1317,325,934,-514,-318,517,5908,59,28,872
1139029,8517612,8945524,8519986,8945970,1428,1272,111,1167,-693,196,319,5238,49,26,871
1140030,8517860,8945672,8520183,8946167,1505,1519,19,810,-839,712,-9,4268,49,26,871
1141031,8518104,8945832,8520380,8946364,1511,1461,229,2,-923,547,402,4224,42,24,874
1142032,8518308,8945952,8520577,8946561,1758,1745,472,-1262,-948,554,-162,3717,42,24,874
1143033,8518552,8946096,8520774,8946758,1488,1618,688,-2165,-914,581,-413,5029,37,37,872
1144034,8518764,8946312,8520971,8946955,1681,1160,663,-2653,-852,744,-286,4550,37,37,872
1145034,8518936,8946572,8521168,8947152,1942,857,426,-2727,-907,2391,804,4207,49,39,870
1146036,8519120,8946764,8521365,8947349,1874,1285,124,-2654,-1066,3471,792,4874,49,39,870
1147036,8519288,8946988,8521562,8947546,1987,1073,-169,-2270,-1229,3604,925,6284,34,35,873
1148038,8519452,8947204,8521759,8947743,2027,1114,-439,-1833,-1185,1830,941,5571,34,35,873
1149039,8519624,8947368,8521956,8947940,1988,1454,-645,-1540,-944,1740,478,5359,35,31,870
1150040,8519808,8947584,8522153,8948137,1920,1122,-703,-1519,-736,2985,-388,5268,35,31,870
1151041,8519980,8947800,8522350,8948334,2006,1113,-641,-1643,-580,2576,-214,5337,46,33,871
1152042,8520168,8948032,8522547,8948531,1911,998,-615,-1896,-426,1858,919,4036,46,33,871
1153043,8520324,8948256,8522744,8948728,2129,1036,-629,-2253,-320,2721,1623,3558,23,46,871
1154044,8520476,8948448,8522941,8948925,2174,1238,-654,-2469,-241,3393,1011,4458,23,46,871
1155045,8520640,8948632,8523138,8949122,2114,1294,-693,-2413,-123,3345,1010,4545,35,39,872
1156046,8520824,8948804,8523335,8949319,1995,1380,-828,-2162,1,3755,774,4665,35,39,872
1157047,8520992,8948936,8523532,8949516,2109,1658,-1025,-1803,89,3733,1033,4652,23,37,869
1158048,8521172,8949084,8523729,8949713,2041,1580,-1288,-1413,181,2935,839,5075,23,37,869
1159049,8521356,8949296,8523926,8949910,2023,1173,-1563,-902,247,2730,1037,5313,42,26,870
1160050,8521548,8949472,8524123,8950107,1975,1409,-1773,-728,307,3245,166,4209,42,26,870
1161051,8521696,8949656,8524320,8950304,2273,1364,-1789,-834,392,3186,800,4458,32,27,868
1162052,8521912,8949808,8524517,8950501,1839,1584,-1664,-1088,540,2452,533,4590,32,27,868
1163053,8522104,8949944,8524714,8950698,1992,1711,-1471,-1216,692,2160,56,4633,33,39,870
1164054,8522324,8950088,8524911,8950895,1807,1684,-1347,-1287,796,1915,179,4623,33,39,870
1165055,8522560,8950204,8525108,8951092,1691,1895,-1301,-1199,839,1911,127,4426,51,36,869
1166056,8522752,8950344,8525305,8951289,1968,1770,-1326,-1039,843,2097,408,4377,51,36,869
1167057,8522952,8950524,8525502,8951486,1918,1528,-1371,-797,809,2417,-411,4455,51,20,870
1168058,8523168,8950636,8525699,8951683,1810,1991,-1368,-509,704,2615,-188,4724,51,20,870
1169059,8523388,8950748,8525896,8951880,1776,2028,-1350,-294,547,2519,232,4178,48,32,868
1170060,8523664,8950864,8526093,8952077,1391,2039,-1316,-210,501,1393,-566,3898,48,32,868
1171061,8523920,8950964,8526290,8952274,1491,2181,-1238,-185,547,1339,-215,4429,50,21,867
1172062,8524152,8951108,8526487,8952471,1626,1930,-1156,-143,594,1456,-1739,3879,50,21,867
1173063,8524388,8951200,8526684,8952668,1584,2302,-1036,37,556,1771,-2054,5329,42,13,868
1174071,8524628,8951308,8526914,8952898,1555,2255,-888,31,534,703,-1091,3753,42,13,868
1175065,8524884,8951424,8527111,8953095,1429,2242,-782,-265,564,472,-867,2721,49,27,869
1176066,8525144,8951540,8527308,8953292,1377,2277,-693,-407,544,1409,-2333,4317,49,27,869
1177067,8525388,8951620,8527505,8953489,1457,2554,-682,-433,439,1390,-1904,3779,49,14,868
1178068,8525652,8951752,8527702,8953686,1303,2258,-749,-515,398,75,-1388,2868,49,14,868
1179068,8525884,8951884,8527899,8953883,1488,2287,-765,-378,376,652,-2019,5702,55,25,868
1180070,8526104,8952000,8528096,8954080,1553,2423,-750,-199,304,809,-1486,4508,55,25,868
1181071,8526368,8952132,8528293,8954277,1249,2352,-744,-205,236,286,-830,4299,38,23,869
1182072,8526620,8952252,8528490,8954474,1300,2461,-732,-325,214,-28,-722,4517,38,23,869
1183073,8526872,8952396,8528687,8954671,1277,2334,-761,-592,140,485,-313,3308,38,29,865
1184074,8527120,8952548,8528884,8954868,1280,2305,-778,-730,150,-585,-1008,4506,38,29,865
1185075,8527344,8952680,8529081,8955065,1418,2459,-706,-816,277,-927,-1631,5185,36,33,867
1186076,8527560,8952820,8529278,8955262,1460,2435,-624,-1054,300,729,-756,3764,36,33,867
1187077,8527796,8952952,8529475,8955459,1318,2513,-573,-1254,165,2301,-1117,4357,47,19,869
1188078,8528000,8953096,8529672,8955656,1515,2463,-565,-1125,-1,2768,-1309,5463,47,19,869
1189079,8528188,8953280,8529869,8955853,1620,2218,-629,-934,-65,2182,-493,3992,42,29,867
1190080,8528424,8953460,8530066,8956050,1303,2252,-697,-785,87,583,-1032,3866,42,29,867
1191081,8528652,8953628,8530263,8956247,1339,2339,-569,-463,307,565,-939,6048,35,29,866
1192082,8528868,8953812,8530460,8956444,1406,2246,-451,-253,466,589,554,3928,35,29,866
1193083,8529080,8954008,8530657,8956641,1426,2172,-578,-518,510,1015,1174,321,31,42,868
1194084,8529300,8954192,8530854,8956838,1365,2253,-703,-495,478,1946,-79,4639,31,42,868
1195085,8529512,8954404,8531051,8957035,1409,2072,-733,-219,437,1879,513,3391,29,36,867
1196086,8529700,8954624,8531248,8957232,1564,2013,-789,-316,336,2204,1800,929,29,36,867
1197087,8529912,8954852,8531445,8957429,1407,1949,-786,-384,252,2029,1031,3007,47,55,869
1198088,8530096,8955088,8531642,8957626,1588,1883,-721,-257,307,1293,-596,3479,47,55,869
1199089,8530300,8955324,8531839,8957823,1461,1866,-665,25,400,1436,-1119,3222,33,49,869
1200090,8530496,8955596,8532036,8958020,1511,1609,-581,199,576,119,-642,2982,33,49,869
1201091,8530656,8955844,8532233,8958217,1753,1736,-520,75,716,653,-496,1853,32,44,870
1202092,8530852,8956092,8532430,8958414,1528,1715,-398,45,676,2272,162,3716,32,44,870
1203093,8531024,8956344,8532627,8958611,1690,1666,-278,326,511,1833,-335,4958,38,45,872
1204094,8531224,8956596,8532824,8958808,1514,1642,-271,467,284,1734,-586,3659,38,45,872
1205095,8531396,8956836,8533021,8959005,1700,1699,-278,451,200,912,255,4243,38,44,870
1206096,8531592,8957092,8533218,8959202,1551,1573,-257,249,250,856,82,3440,38,44,870
1207097,8531756,8957332,8533415,8959399,1766,1655,-152,66,318,472,-633,3917,25,55,872
1208098,8531924,8957572,8533612,8959596,1753,1636,-43,-13,334,314,-460,4615,25,55,872
1209099,8532088,8957780,8533809,8959793,1794,1831,-35,-67,310,458,-578,3570,25,56,871
1210100,8532280,8958024,8534006,8959990,1621,1586,-83,65,165,1441,-166,5123,25,56,871
1211101,8532424,8958264,8534203,8960187,1944,1593,-113,278,-7,299,644,4826,30,54,871
1212102,8532584,8958452,8534400,8960384,1862,1923,-156,159,-103,-435,-421,3045,30,54,871
1213103,8532772,8958672,8534597,8960581,1691,1712,-184,66,-141,570,-321,4183,38,44,871
1214104,8532960,8958880,8534794,8960778,1694,1783,-216,90,-60,977,-977,4304,38,44,871
1215105,8533136,8959076,8534991,8960975,1780,1859,-215,179,167,861,-1205,4154,43,44,868
1216106,8533320,8959272,8535188,8961172,1735,1859,-180,281,485,1041,-1776,4199,43,44,868
1217107,8533496,8959464,8535385,8961369,1795,1887,-109,431,746,1738,-1359,4520,27,42,869
1218108,8533640,8959628,8535582,8961566,2019,2077,-85,567,916,2484,-1740,4088,27,42,869
1219109,8533828,8959780,8535779,8961763,1748,2172,-74,656,1105,2226,-1661,4123,34,29,870
1220110,8533988,8959944,8535976,8961960,1939,2112,-51,715,1326,1969,-1408,4353,34,29,870
1221111,8534164,8960116,8536173,8962157,1849,2073,-7,744,1543,1514,-2108,4185,42,23,867
1222112,8534352,8960256,8536370,8962354,1778,2298,41,847,1708,1263,-1599,5176,42,23,867
1223112,8534548,8960416,8536567,8962551,1730,2191,56,890,1857,472,-1153,3958,34,20,867
1224114,8534712,8960560,8536764,8962748,1944,2314,-4,784,1976,522,-1150,3831,34,20,867
1225115,8534892,8960720,8536961,8962945,1852,2230,-28,790,1999,1034,-878,4956,23,19,866
1226116,8535024,8960856,8537158,8963142,2181,2408,-64,758,2046,-225,-832,4093,23,19,866
1227117,8535184,8961012,8537355,8963339,2023,2301,-95,643,2046,497,-592,4085,36,37,864
1228118,8535316,8961148,8537552,8963536,2227,2454,-96,530,2069,-64,-942,4502,36,37,864
1229119,8535472,8961300,8537749,8963733,2095,2374,-106,450,2106,-496,-638,3785,43,32,862
1230120,8535584,8961464,8537946,8963930,2407,2314,-111,410,2161,-409,-146,4364,43,32,862
1231121,8535708,8961660,8538143,8964127,2366,2115,-115,508,2206,-352,-1418,4391,43,27,863
1232122,8535900,8961852,8538340,8964324,1943,2143,-123,655,2203,-213,-979,4625,43,27,863
1233123,8536088,8962044,8538537,8964521,1973,2145,-141,853,2271,-466,-644,4347,34,47,863
1234124,8536256,8962248,8538734,8964718,2110,2068,-143,902,2264,713,134,4137,34,47,863
1235125,8536440,8962472,8538931,8964915,2017,1931,-99,923,2200,337,-440,4382,29,34,866
1236126,8536592,8962672,8539128,8965112,2237,2081,-71,933,2201,-299,-229,4136,29,34,866
1237127,8536764,8962904,8539325,8965309,2124,1865,-64,843,2288,-328,-839,4123,28,38,865
1238128,8536932,8963152,8539522,8965506,2162,1743,36,790,2356,-318,-1508,4688,28,38,865
1239129,8537080,8963440,8539719,8965703,2309,1454,153,658,2328,-458,-400,4079,40,57,864
1240130,8537224,8963776,8539916,8965900,2358,1093,190,454,2316,-856,-470,3518,40,57,864
1241131,8537392,8964012,8540113,8966097,2221,1702,218,246,2304,-778,-1052,4008,42,53,867
1242132,8537544,8964180,8540310,8966294,2341,2140,252,39,2246,-425,-689,3784,42,53,867
1243133,8537688,8964364,8540507,8966491,2415,2046,275,42,2168,-516,-1015,4497,36,51,870
1244134,8537820,8964568,8540704,8966688,2519,1918,301,206,2078,-4,-321,4961,36,51,870
1245135,8537960,8964804,8540901,8966885,2495,1701,280,422,2007,497,616,4313,20,48,864
1246136,8538088,8965052,8541098,8967082,2600,1605,151,409,2029,110,-262,2791,20,48,864
1247137,8538220,8965304,8541295,8967279,2605,1555,175,552,2118,37,-1326,6111,42,47,864
1248138,8538380,8965580,8541492,8967476,2447,1371,319,688,2213,-376,-1663,5095,42,47,864
1249139,8538548,8965792,8541689,8967673,2410,1765,405,554,2224,-415,-899,3237,34,46,865
1250140,8538688,8966144,8541886,8967870,2611,822,495,370,2177,-360,-1374,4617,34,46,865
1251141,8538852,8966460,8542083,8968067,2475,996,644,260,2038,696,-1024,5125,36,60,867
1252142,8539004,8966752,8542280,8968264,2571,1104,696,115,1956,214,-1848,3654,36,60,867
1253143,8539148,8967060,8542477,8968461,2645,955,656,-120,1878,619,-1064,3420,29,52,868
1254144,8539344,8967372,8542674,8968658,2321,880,631,-132,1815,-340,-1361,4945,29,52,868
1255145,8539496,8967628,8542871,8968855,2617,1205,600,28,1744,-291,-1270,4680,34,62,867
1256146,8539644,8967892,8543068,8969052,2663,1125,487,166,1647,-368,-2042,4052,34,62,867
1257156,8539824,8968148,8543298,8969282,2486,1164,411,358,1487,-119,-1592,5841,28,60,870
1258148,8539996,8968400,8543495,8969479,2548,1165,402,454,1221,58,-805,5522,28,60,870
1259149,8540176,8968644,8543692,8969676,2506,1195,414,362,790,15,-146,5874,50,39,866
1260150,8540336,8968868,8543889,8969873,2648,1308,431,204,290,-389,-62,6331,50,39,866
1261151,8540516,8969112,8544086,8970070,2531,1162,365,39,-152,-579,175,5532,43,52,865
1262152,8540696,8969324,8544283,8970267,2539,1356,190,-24,-484,-537,417,5076,43,52,865
1263153,8540876,8969544,8544480,8970464,2547,1296,-39,250,-747,72,1868,5852,42,53,866
1264154,8541056,8969792,8544677,8970661,2556,1098,-290,603,-923,87,1933,4687,42,53,866
1265155,8541216,8970012,8544874,8970858,2698,1264,-378,827,-914,-81,-441,5211,37,40,867
1266156,8541384,8970236,8545071,8971055,2661,1227,-255,836,-880,1563,-1124,5386,37,40,867
1267157,8541576,8970460,8545268,8971252,2514,1216,-103,632,-834,1888,-1109,3650,27,36,868
1268158,8541740,8970656,8545465,8971449,2704,1391,124,604,-759,1437,-432,5569,27,36,868
1269159,8541900,8970832,8545662,8971646,2746,1525,362,635,-667,719,-701,4134,29,34,867
1270160,8542084,8971048,8545859,8971843,2602,1267,537,496,-569,373,-1010,3114,29,34,867
1271161,8542280,8971296,8546056,8972040,2529,1045,695,392,-488,298,-1420,4421,43,50,864
1272162,8542476,8971520,8546253,8972237,2529,1184,754,272,-605,1379,-471,3739,43,50,864
1273163,8542704,8971736,8546450,8972434,2317,1225,721,307,-907,1276,761,4362,38,49,867
1274164,8542900,8971928,8546647,8972631,2518,1377,599,403,-1232,-41,656,4490,38,49,867
1275164,8543076,8972092,8546844,8972828,2653,1567,370,541,-1442,-571,-141,4357,50,31,868
1276166,8543276,8972256,8547041,8973025,2502,1581,142,690,-1540,-245,-747,4954,50,31,868
1277167,8543472,8972448,8547238,8973222,2528,1409,-48,808,-1657,516,-720,4844,47,43,867
1278168,8543668,8972668,8547435,8973419,2530,1224,-186,869,-1733,117,-1214,4629,47,43,867
1279168,8543876,8972836,8547632,8973616,2451,1562,-221,856,-1742,-96,-932,4966,40,45,866
1280169,8544076,8973008,8547829,8973813,2500,1548,-166,583,-1697,-357,-87,3910,40,45,866
1281171,8544272,8973140,8548026,8974010,2526,1827,-69,47,-1638,-312,-804,3444,50,36,866
1282172,8544484,8973276,8548223,8974207,2421,1829,51,-404,-1728,1453,-1227,4428,50,36,866
1283173,8544720,8973384,8548420,8974404,2253,2043,105,-640,-1797,982,-640,4161,50,35,864
1284174,8544924,8973508,8548617,8974601,2451,1975,34,-654,-1817,657,-455,3918,50,35,864
1285175,8545140,8973620,8548814,8974798,2369,2088,-109,-374,-1804,200,-106,4944,53,15,865
1286176,8545368,8973720,8549011,8974995,2280,2206,-266,-142,-1766,-636,-705,3714,53,15,865
1287177,8545588,8973828,8549208,8975192,2321,2195,-341,-68,-1725,-452,-211,4653,45,30,864
1288178,8545816,8973952,8549405,8975389,2259,2127,-315,-120,-1744,173,-198,4147,45,30,864
1289179,8546068,8974060,8549602,8975586,2086,2267,-259,-320,-1806,208,-530,3991,43,14,864
1290180,8546300,8974196,8549799,8975783,2195,2119,-174,-513,-1899,352,-685,4261,43,14,864
1291181,8546544,8974328,8549996,8975980,2100,2172,-106,-768,-1940,64,-487,3670,38,27,865
1292182,8546792,8974444,8550193,8976177,2054,2309,-93,-1005,-1937,9,-784,3052,38,27,865
1293183,8547048,8974564,8550390,8976374,1978,2318,-111,-992,-1935,678,-613,3913,50,17,864
1294184,8547308,8974660,8550587,8976571,1926,2512,-153,-871,-1884,132,-779,3489,50,17,864
1295185,8547584,8974796,8550784,8976768,1792,2290,-165,-741,-1823,64,-200,3558,42,19,865
1296186,8547836,8974892,8550981,8976965,1919,2584,-141,-656,-1771,-44,-447,3329,42,19,865
1297187,8548104,8975028,8551178,8977162,1788,2361,-130,-721,-1730,40,-334,2855,48,20,864
1298188,8548384,8975152,8551375,8977359,1677,2469,-51,-818,-1757,636,-337,3441,48,20,864
1299189,8548656,8975292,8551572,8977556,1695,2394,33,-1020,-1805,260,-12,3262,65,24,864
1300190,8548928,8975428,8551769,8977753,1662,2447,101,-1263,-1826,-148,-406,2359,65,24,864
1301191,8549188,8975560,8551966,8977950,1710,2501,130,-1508,-1826,-231,-489,2820,54,29,865
1302192,8549504,8975696,8552163,8978147,1308,2504,170,-1628,-1825,47,-343,2888,54,29,865
1303193,8549780,8975808,8552360,8978344,1524,2691,190,-1673,-1838,419,-106,2440,58,32,864
1304194,8550052,8975936,8552557,8978541,1516,2621,130,-1646,-1830,554,-172,2717,58,32,864
1305195,8550340,8976052,8552754,8978738,1377,2733,110,-1480,-1764,338,-21,2712,44,19,866
1306196,8550608,8976188,8552951,8978935,1471,2635,48,-1489,-1652,-39,354,2224,44,19,866
1307197,8550888,8976308,8553148,8979132,1361,2770,31,-1496,-1540,-15,-473,2225,48,32,865
1308198,8551176,8976432,8553345,8979329,1271,2778,37,-1499,-1505,555,-712,3011,48,32,865
1309199,8551440,8976572,8553542,8979526,1392,2703,72,-1540,-1520,409,-74,2639,57,18,865
1310200,8551716,8976712,8553739,8979723,1283,2729,138,-1766,-1565,259,-530,2120,57,18,865
1311201,8551980,8976860,8553936,8979920,1328,2700,170,-2002,-1612,246,-226,3165,55,28,865
1312201,8552256,8976996,8554133,8980117,1219,2803,202,-2147,-1621,-82,124,2548,55,28,865
1313202,8552512,8977148,8554330,8980314,1318,2723,152,-2359,-1586,-69,436,2166,61,26,865
1314204,8552800,8977296,8554527,8980511,1078,2770,60,-2465,-1561,338,799,2873,61,26,865
1315205,8553028,8977428,8554724,8980708,1441,2900,-36,-2481,-1483,-181,502,2772,45,31,864
1316206,8553284,8977548,8554921,8980905,1240,3009,-110,-2444,-1400,158,-68,3006,45,31,864
1317207,8553516,8977704,8555118,8981102,1375,2803,-123,-2416,-1390,728,-100,3546,37,22,866
1318208,8553756,8977872,8555315,8981299,1307,2742,-105,-2540,-1385,307,-114,2425,37,22,866
1319209,8553996,8978036,8555512,8981496,1288,2781,-66,-2723,-1386,406,-159,3308,34,42,864
1320210,8554208,8978208,8555709,8981693,1456,2743,42,-2842,-1381,-70,452,3300,34,42,864
1321211,8554444,8978372,8555906,8981890,1290,2807,55,-3131,-1357,-66,335,1867,39,31,865
1322212,8554672,8978584,8556103,8982087,1326,2502,62,-3239,-1292,147,503,3630,39,31,865
1323212,8554900,8978768,8556300,8982284,1313,2684,28,-3262,-1175,-54,272,3058,53,36,865
1324214,8555172,8978940,8556497,8982481,1005,2770,-23,-3299,-1094,530,608,2928,53,36,865
1325215,8555404,8979132,8556694,8982678,1240,2648,-25,-3341,-1054,727,317,3815,35,39,865
1326216,8555632,8979312,8556891,8982875,1252,2731,-26,-3455,-981,420,23,2995,35,39,865
1327217,8555872,8979516,8557088,8983072,1158,2579,12,-3577,-895,823,87,3633,52,32,864
1328218,8556128,8979724,8557285,8983269,1032,2549,32,-3683,-863,1187,140,3459,52,32,864
1329218,8556376,8979916,8557482,8983466,1061,2653,-15,-3738,-813,790,375,3135,43,35,866
1330220,8556612,8980092,8557679,8983663,1118,2763,-51,-3743,-736,712,906,4054,43,35,866
1331221,8556860,8980276,8557876,8983860,1021,2719,-102,-3776,-629,369,788,3240,42,50,868
1332222,8557116,8980484,8558073,8984057,945,2565,-175,-3851,-482,197,285,3461,42,50,868
1333223,8557332,8980696,8558270,8984254,1187,2534,-170,-3691,-366,716,477,5236,51,48,866
1334224,8557568,8980916,8558467,8984451,1046,2474,-226,-3616,-343,1327,347,3557,51,48,866
1335224,8557796,8981112,8558664,8984648,1082,2625,-291,-3642,-221,320,278,3805,34,32,868
1336226,8558012,8981280,8558861,8984845,1149,2814,-301,-3528,-91,1136,-276,4868,34,32,868
1337226,8558252,8981472,8559058,8985042,980,2666,-299,-3399,-48,1623,288,4246,35,42,867
1338228,8558464,8981680,8559255,8985239,1148,2563,-353,-3381,-18,1643,58,3741,35,42,867
1339228,8558676,8981912,8559452,8985436,1142,2398,-391,-3282,36,1682,269,4739,47,46,865
1340237,8558896,8982132,8559682,8985666,1097,2478,-398,-3184,107,1554,-103,4445,47,46,865
1341231,8559064,8982328,8559879,8985863,1435,2629,-408,-3250,206,1268,-377,3916,41,52,868
1342232,8559248,8982520,8560076,8986060,1340,2657,-393,-3281,305,1479,-369,5065,41,52,868
1343233,8559420,8982716,8560273,8986257,1426,2633,-382,-3162,314,2450,-842,5016,44,47,868
1344234,8559600,8982908,8560470,8986454,1384,2661,-400,-3056,303,2457,-1155,4600,44,47,868
1345234,8559768,8983116,8560667,8986651,1472,2557,-401,-2770,336,2142,-1068,6058,28,42,866
1346236,8559972,8983352,8560864,8986848,1243,2365,-432,-2562,395,2070,-800,4980,28,42,866
1347237,8560128,8983564,8561061,8987045,1563,2509,-510,-2430,585,1087,-965,4561,30,43,864
1348238,8560292,8983764,8561258,8987242,1527,2584,-565,-2257,774,1787,-1302,5712,30,43,864
1349239,8560484,8983956,8561455,8987439,1354,2636,-513,-2149,888,1732,-1381,5459,40,31,867
1350240,8560664,8984176,8561652,8987636,1437,2452,-466,-2224,926,1618,-1025,4660,40,31,867
1351241,8560808,8984384,8561849,8987833,1685,2523,-408,-2348,941,1428,-1204,5142,47,34,866
1352242,8560972,8984568,8562046,8988030,1575,2679,-350,-2346,980,1016,-919,5346,47,34,866
1353243,8561144,8984744,8562243,8988227,1536,2739,-354,-2375,1023,977,-1214,4309,41,45,866
1354244,8561288,8984916,8562440,8988424,1735,2776,-354,-2259,1003,1344,-811,5579,41,45,866
1355245,8561436,8985076,8562637,8988621,1731,2867,-362,-2129,1042,431,-1651,4907,32,43,865
1356246,8561588,8985260,8562834,8988818,1726,2724,-317,-2033,1051,1100,-1521,5137,32,43,865
1357247,8561764,8985424,8563031,8989015,1586,2865,-223,-1971,1053,1082,-1638,5438,26,30,863
1358248,8561912,8985612,8563228,8989212,1783,2719,-134,-1979,1041,1237,-1343,4618,26,30,863
1359249,8562104,8985764,8563425,8989409,1510,2964,-58,-1973,1052,1050,-1471,4928,25,26,862
1360250,8562240,8985932,8563622,8989606,1887,2878,11,-1886,1038,1456,-1249,5031,25,26,862
1361251,8562396,8986104,8563819,8989803,1781,2864,45,-1968,1081,627,-1570,3778,43,37,863
1362251,8562552,8986264,8564016,8990000,1799,2956,94,-1952,1113,878,-987,5082,43,37,863
1363253,8562744,8986408,8564213,8990197,1576,3081,135,-1941,1109,881,-775,4219,22,24,861
1364254,8562896,8986560,8564410,8990394,1847,3051,106,-1955,1077,1033,-781,3940,22,24,861
1365255,8563088,8986704,8564607,8990591,1599,3125,60,-1845,1068,649,-661,4267,42,39,861
1366256,8563244,8986860,8564804,8990788,1842,3069,4,-1665,1101,-34,-1584,4265,42,39,861
1367257,8563420,8987060,8565001,8990985,1726,2793,23,-1448,1094,590,-1409,4877,41,37,860
