"Data file recorded 2014/9/24  17:58:0"
"%  Right Stride Frequency         = 3.0"
"%  Left Stride Frequency         = 3.0"
"%  Phase (Fractional)         = 32768.0"
"%  Experiment.py "
"%  Motor Gains    = [1800, 200, 100, 0, 0, 1800, 200, 100, 0, 0]
"% Columns: "
"% time | Right Leg Pos | Left Leg Pos | Commanded Right Leg Pos | Commanded Left Leg Pos | DCR | DCL | GyroX | GryoY | GryoZ | AX | AY | AZ | RBEMF | LBEMF | VBatt "
10973,1224760,1190384,1207554,1240322,-3800,3800,-144,-703,309,621,-377,4062,-10,6,927
11967,1224744,1190364,1207751,1240519,-3800,3800,-141,-700,309,638,-379,4081,-10,6,927
12968,1224692,1190400,1207948,1240716,-3800,3800,-140,-702,310,641,-372,4071,6,3,927
13969,1224536,1190464,1208145,1240913,-3800,3800,-145,-735,312,580,-371,4019,6,3,927
14970,1224268,1190552,1208342,1241110,-3800,3800,-143,-717,316,478,-334,4255,-31,4,879
15959,1223932,1190632,1208539,1241307,-3450,3800,-133,-591,331,478,-432,4640,-31,4,879
16959,1223536,1190740,1208736,1241504,-2817,3800,-61,-417,379,830,-386,5234,-77,0,882
17961,1223104,1190836,1208933,1241701,-2319,3800,57,-162,432,1447,-89,6188,-77,0,882
18961,1222584,1190976,1209130,1241898,-1457,3800,121,-206,446,1689,353,3900,-94,16,886
19963,1222056,1191136,1209327,1242095,-1090,3800,97,-336,463,1863,19,4373,-94,16,886
20963,1221596,1191296,1209524,1242292,-1230,3800,89,-268,517,1763,-424,4861,-94,20,893
21965,1221092,1191504,1209721,1242489,-649,3800,86,-181,608,1717,-407,4486,-94,20,893
22965,1220660,1191684,1209918,1242686,-824,3800,93,-228,694,2094,-197,4154,-80,36,899
23966,1220272,1191904,1210115,1242883,-844,3800,116,-149,792,2439,-146,4483,-80,36,899
24967,1219896,1192108,1210312,1243080,-669,3800,143,-159,872,2515,220,4082,-77,43,900
25968,1219564,1192348,1210509,1243277,-714,3800,161,-282,920,2473,414,3722,-77,43,900
26969,1219288,1192620,1210706,1243474,-858,3800,216,-277,983,2324,287,4617,-48,34,899
27970,1219056,1192892,1210903,1243671,-946,3800,325,-47,1051,2286,376,5510,-48,34,899
28971,1218880,1193180,1211100,1243868,-1133,3800,474,201,1102,2232,119,5203,-31,40,901
29973,1218752,1193468,1211297,1244065,-1293,3800,598,263,1164,2144,-46,4379,-31,40,901
30974,1218644,1193800,1211494,1244262,-1285,3800,723,361,1268,2105,-397,5302,-34,60,900
31975,1218568,1194144,1211691,1244459,-1366,3800,844,550,1394,2025,-615,5424,-34,60,900
32976,1218504,1194476,1211888,1244656,-1328,3800,926,649,1484,1844,-314,4360,-18,50,899
33977,1218476,1194800,1212085,1244853,-1455,3800,963,676,1550,1735,-259,4099,-18,50,899
34977,1218472,1195176,1212282,1245050,-1518,3800,1001,729,1620,1655,-74,4519,-5,60,896
35978,1218452,1195620,1212479,1245247,-1323,3800,1050,839,1657,1418,467,4542,-5,60,896
36979,1218456,1196012,1212676,1245444,-1390,3800,1084,863,1628,1123,894,4030,-7,71,898
37980,1218448,1196476,1212873,1245641,-1226,3800,1122,805,1586,863,871,3868,-7,71,898
38981,1218444,1196988,1213070,1245838,-1164,3800,1186,726,1559,674,1103,3732,10,84,900
39982,1218432,1197536,1213267,1246035,-1023,3800,1239,695,1562,231,875,3819,10,84,900
40983,1218428,1198112,1213464,1246232,-986,3800,1302,683,1587,-45,724,3634,5,100,901
41984,1218416,1198712,1213661,1246429,-845,3800,1392,539,1630,-169,942,3306,5,100,901
42985,1218400,1199268,1213858,1246626,-726,3800,1478,415,1629,-332,1367,3351,0,100,903
43986,1218396,1199920,1214055,1246823,-714,3800,1564,229,1622,-377,1344,3112,0,100,903
44987,1218392,1200568,1214252,1247020,-627,3800,1624,81,1693,-681,840,3451,16,110,905
45988,1218388,1201344,1214449,1247217,-540,3800,1620,195,1839,-969,642,4151,16,110,905
46989,1218404,1202076,1214646,1247414,-586,3800,1587,463,2042,-1001,710,4332,-2,131,904
47991,1218384,1202848,1214843,1247611,-266,3800,1521,876,2282,-1129,542,4835,-2,131,904
48991,1218380,1203704,1215040,1247808,-278,3800,1465,1369,2545,-1097,707,4924,10,129,906
49992,1218396,1204500,1215237,1248005,-325,3800,1448,1670,2799,-1005,1166,4425,10,129,906
50993,1218376,1205496,1215434,1248202,-4,3800,1463,1945,3022,-957,1293,4352,7,145,909
51994,1218380,1206380,1215631,1248399,-71,3800,1511,2141,3229,-1074,1122,4004,7,145,909
52995,1218364,1207352,1215828,1248596,148,3800,1596,2299,3426,-1074,1016,3691,1,176,909
53996,1218360,1208332,1216025,1248793,160,3800,1700,2394,3584,-1030,995,3458,1,176,909
54997,1218348,1209268,1216222,1248990,302,3800,1798,2503,3703,-772,834,3417,19,191,911
55998,1218336,1210340,1216419,1249187,393,3800,1863,2677,3763,-541,667,3423,19,191,911
56999,1218328,1211420,1216616,1249384,458,3800,1882,2842,3759,-655,4,3340,11,195,910
58000,1218300,1212544,1216813,1249581,682,3800,1885,2914,3679,-573,-250,2801,11,195,910
59001,1218268,1213596,1217010,1249778,807,3800,1865,2952,3572,-337,-759,2687,4,194,910
60002,1218272,1214660,1217207,1249975,666,3800,1788,3051,3484,-210,-1484,2866,4,194,910
61003,1218300,1215812,1217404,1250172,591,3800,1690,3109,3340,-131,-1685,2422,27,211,910
62004,1218344,1216996,1217601,1250369,558,3800,1580,3136,3107,30,-1845,2328,27,211,910
63005,1218380,1218100,1217798,1250566,678,3800,1452,3222,2804,129,-1879,2426,21,213,911
64006,1218436,1219216,1217995,1250763,615,3800,1353,3236,2437,232,-1955,2033,21,213,911
65007,1218492,1220220,1218192,1250960,677,3800,1258,3236,2040,529,-2125,2016,31,207,912
66008,1218556,1221252,1218389,1251157,685,3800,1149,3203,1608,1015,-2148,1675,31,207,912
67009,1218616,1222352,1218586,1251354,770,3800,1064,3039,1119,1443,-2119,1040,13,206,910
68010,1218704,1223384,1218783,1251551,643,3800,1021,2727,615,1683,-2185,614,13,206,910
69011,1218784,1224384,1218980,1251748,745,3800,983,2354,125,1879,-2249,459,18,206,909
70012,1218860,1225412,1219177,1251945,823,3800,885,1989,-368,1918,-1820,245,18,206,909
71013,1218952,1226512,1219374,1252142,769,3800,682,1568,-1027,1599,249,-205,31,196,910
72014,1219072,1227740,1219571,1252339,628,3800,439,1082,-1929,1209,177,-453,31,196,910
73015,1219184,1228708,1219768,1252536,715,3800,202,635,-2918,736,-53,-114,18,197,911
74016,1219304,1229680,1219965,1252733,700,3800,-75,381,-3860,148,869,394,18,197,911
75017,1219436,1230832,1220162,1252930,654,3800,-418,287,-4785,-425,1150,602,20,196,911
76018,1219568,1231708,1220359,1253127,682,3800,-736,144,-5622,-918,1056,110,20,196,911
77019,1219744,1232788,1220556,1253324,416,3800,-1039,-210,-6236,-959,518,-280,39,179,911
78007,1219920,1233872,1220753,1253521,426,3629,-1371,-586,-6537,-654,-667,70,39,179,911
79008,1220052,1234960,1220950,1253718,729,3216,-1700,-556,-6352,-352,-2671,1411,46,201,911
80009,1220152,1236144,1221147,1253915,972,2186,-1913,-278,-5760,-488,-3259,1487,46,201,911
81010,1220328,1237304,1221344,1254112,507,1916,-1999,-440,-5111,-908,-2797,251,46,208,912
82011,1220484,1238376,1221541,1254309,650,2085,-2052,-737,-4489,-1391,-2548,275,46,208,912
83012,1220648,1239532,1221738,1254506,615,1142,-2081,-1160,-3813,-1553,-2705,120,49,226,918
84013,1220848,1240696,1221935,1254703,388,669,-2058,-1556,-3048,-1128,-2760,430,49,226,918
85014,1221020,1241780,1222132,1254900,574,782,-1970,-1875,-2229,-965,-1887,171,40,215,919
86015,1221140,1242788,1222329,1255097,934,904,-1854,-2534,-1421,-721,-1103,-894,40,215,919
87016,1221320,1243664,1222526,1255294,566,1432,-1749,-3290,-610,-364,-1066,-506,38,195,924
88017,1221488,1244396,1222723,1255491,654,2099,-1697,-3940,221,-583,-651,44,38,195,924
89018,1221660,1245088,1222920,1255688,640,2134,-1741,-4248,995,-750,-704,1080,51,159,921
90019,1221804,1245600,1223117,1255885,840,3122,-1866,-4208,1712,-999,-847,1985,51,159,921
91020,1221924,1246008,1223314,1256082,1023,3682,-2035,-3943,2447,-1136,-1138,3114,26,111,916
92034,1222068,1246384,1223511,1256279,897,3800,-2280,-3347,3150,-1011,-1562,4288,26,111,916
93042,1222208,1246688,1223938,1256706,1048,3800,-2609,-2611,3765,-1167,-1602,4753,46,61,907
94036,1222336,1247012,1224135,1256903,1154,3800,-3026,-1679,4216,-1560,-1537,5917,46,61,907
95037,1222472,1247272,1224332,1257100,1131,3800,-3500,-651,4434,-2046,-1358,6441,36,66,901
96038,1222652,1247536,1224529,1257297,863,3800,-4031,438,4433,-2348,-1076,7045,36,66,901
97039,1222808,1247764,1224726,1257494,1032,3800,-4608,1514,4268,-2278,-946,6939,46,45,899
98040,1222972,1247940,1224923,1257691,997,3800,-5173,2182,3885,-2114,-394,6132,46,45,899
99041,1223172,1248148,1225120,1257888,771,3800,-5148,3454,3188,-797,198,13247,31,46,900
100042,1223324,1248344,1225317,1258085,1091,3800,-1292,11929,1887,8021,-749,32767,31,46,900
101043,1223496,1248516,1225514,1258282,977,3800,4596,21112,339,7959,-2799,32767,32,30,899
102044,1223656,1248664,1225711,1258479,1070,3800,7196,22491,-922,3393,-1435,12340,32,30,899
103045,1223828,1248808,1225908,1258676,1006,3800,7187,17571,-1890,1712,-1702,3495,26,39,897
104046,1223992,1248960,1226105,1258873,1070,3800,6346,11407,-2577,2099,-1954,-286,26,39,897
105047,1224168,1249124,1226302,1259070,1005,3800,5382,6116,-3048,2974,-1640,-5743,46,24,898
106048,1224332,1249272,1226499,1259267,1095,3800,4473,1091,-3212,5238,-3119,-1067,46,24,898
107049,1224480,1249400,1226696,1259464,1217,3800,3571,-3580,-2935,5750,-4736,1820,43,34,898
108050,1224632,1249548,1226893,1259661,1212,3800,2111,-7451,-2111,3408,-5845,-1160,43,34,898
109051,1224788,1249724,1227090,1259858,1205,3800,476,-10564,-1329,2556,-4092,-2700,42,30,898
110052,1224912,1249916,1227287,1260055,1438,3800,-772,-13644,-964,1624,-2435,-3773,42,30,898
111053,1225064,1250124,1227484,1260252,1283,3800,-1483,-16750,-1047,890,-1294,-3571,42,44,897
112054,1225244,1250332,1227681,1260449,1116,3800,-1930,-19248,-1259,487,-745,-1869,42,44,897
113055,1225384,1250536,1227878,1260646,1391,3800,-2351,-20650,-1247,269,-1243,902,23,42,896
114056,1225516,1250760,1228075,1260843,1471,3800,-2827,-20799,-908,101,-1831,3848,23,42,896
115057,1225676,1251004,1228272,1261040,1312,3800,-3337,-20142,-307,-446,-2161,6385,25,50,898
116058,1225816,1251240,1228469,1261237,1463,3800,-3010,-17681,386,-737,-1899,19442,25,50,898
117059,1225952,1251476,1228666,1261434,1515,3800,-4,-9174,952,-173,80,32767,22,38,895
118060,1226104,1251708,1228863,1261631,1436,3800,2833,-2400,1216,-3077,886,26432,22,38,895
119061,1226212,1251936,1229060,1261828,1750,3800,3296,-1065,1268,-4311,1539,5951,30,45,897
120062,1226336,1252172,1229257,1262025,1683,3800,2599,-1796,1319,-3736,1719,5622,30,45,897
121063,1226520,1252480,1229454,1262222,1314,3800,1997,-2301,1604,-2824,1252,4718,39,37,897
122064,1226644,1252704,1229651,1262419,1722,3800,1894,-2058,2109,-2565,1205,4239,39,37,897
123065,1226820,1252968,1229848,1262616,1407,3800,1984,-1792,2737,-2085,1310,3656,21,60,896
124066,1226968,1253224,1230045,1262813,1604,3800,2088,-1725,3361,-1783,1679,3011,21,60,896
125067,1227108,1253480,1230242,1263010,1680,3800,2159,-2072,3907,-1889,2175,2057,25,52,895
126068,1227272,1253788,1230439,1263207,1544,3800,2287,-2698,4357,-1851,2349,1296,25,52,895
127069,1227444,1254084,1230636,1263404,1506,3800,2411,-3376,4733,-1636,2746,1441,33,55,897
128070,1227608,1254388,1230833,1263601,1571,3800,2506,-3908,5138,-1234,2603,1570,33,55,897
129072,1227720,1254664,1231030,1263798,1934,3800,2588,-4373,5496,-970,2664,1285,46,53,897
130072,1227896,1254964,1231227,1263995,1544,3800,2753,-5038,5772,-1090,2734,570,46,53,897
131073,1228056,1255252,1231424,1264192,1661,3800,2999,-5806,5993,-1008,2525,625,43,64,897
132074,1228228,1255548,1231621,1264389,1598,3800,3244,-6349,6221,-782,1947,1366,43,64,897
133075,1228400,1255820,1231818,1264586,1610,3800,3413,-6470,6473,-905,1658,2411,32,54,897
134076,1228572,1256064,1232015,1264783,1621,3800,3488,-6293,6553,-1150,2252,2976,32,54,897
135077,1228720,1256304,1232212,1264980,1793,3800,3534,-6069,6384,-1418,2634,2818,42,57,896
136078,1228896,1256556,1232409,1265177,1628,3800,3588,-5762,6084,-1504,2357,3194,42,57,896
137080,1229084,1256820,1232606,1265374,1557,3800,3605,-5332,5784,-1531,1557,3628,33,42,895
138080,1229252,1257080,1232803,1265571,1696,3800,3532,-4822,5495,-1420,1361,3764,33,42,895
139081,1229448,1257316,1233000,1265768,1522,3800,3413,-4301,5166,-1265,1297,3375,49,53,897
140082,1229608,1257544,1233197,1265965,1764,3800,3261,-3878,4765,-1068,993,3005,49,53,897
141083,1229736,1257780,1233394,1266162,1995,3800,3095,-3497,4329,-946,751,2906,25,47,896
142084,1229904,1258036,1233591,1266359,1759,3800,2907,-3195,3935,-658,311,2618,25,47,896
143085,1230052,1258300,1233788,1266556,1905,3800,2689,-2942,3600,-247,-184,2366,46,48,895
144086,1230208,1258556,1233985,1266753,1874,3800,2458,-2856,3316,59,-463,1790,46,48,895
145088,1230360,1258800,1234182,1266950,1920,3800,2222,-2958,3059,320,-476,1044,43,60,895
146076,1230556,1259092,1234379,1267147,1647,3618,1999,-3252,2833,510,-548,458,43,60,895
147077,1230684,1259392,1234576,1267344,2102,3525,1809,-3665,2655,736,-626,10,44,56,894
148078,1230840,1259716,1234773,1267541,1946,3320,1598,-4069,2525,998,-856,153,44,56,894
149079,1230992,1260028,1234970,1267738,1992,3347,1385,-4436,2480,1150,-940,152,45,53,898
150080,1231140,1260328,1235167,1267935,2039,3377,1191,-4819,2447,1118,-584,-82,45,53,898
151080,1231256,1260640,1235364,1268132,2275,3254,1028,-5229,2392,1125,-366,-239,31,54,899
152082,1231428,1261028,1235561,1268329,1937,2696,886,-5671,2352,1362,-29,-344,31,54,899
153083,1231576,1261424,1235758,1268526,2109,2560,742,-6009,2329,1847,373,-209,43,67,899
154084,1231720,1261784,1235955,1268723,2159,2715,578,-6185,2302,1946,471,347,43,67,899
155085,1231900,1262220,1236152,1268920,1941,2136,435,-6127,2289,1687,788,784,34,83,904
156086,1232092,1262644,1236349,1269117,1869,2113,324,-5897,2234,1211,1131,1244,34,83,904
157087,1232276,1263028,1236546,1269314,1926,2282,225,-5421,2171,737,1172,2103,38,89,902
158087,1232460,1263496,1236743,1269511,1933,1639,121,-4697,2168,327,908,2638,38,89,902
159088,1232608,1263916,1236940,1269708,2180,1842,45,-3966,2182,100,1196,2494,30,85,908
160090,1232768,1264288,1237137,1269905,2122,2066,-7,-3209,2149,174,1420,2623,30,85,908
161091,1232944,1264640,1237334,1270102,2032,2124,-31,-2515,2134,470,1300,2299,27,68,911
162092,1233128,1265068,1237531,1270299,1988,1548,5,-1993,2141,798,1513,1718,27,68,911
163093,1233336,1265472,1237728,1270496,1835,1608,69,-1553,2144,870,1583,1513,51,83,908
164094,1233544,1265844,1237925,1270693,1831,1732,121,-1091,2122,793,1386,1469,51,83,908
165095,1233736,1266260,1238122,1270890,1934,1362,133,-569,2095,659,999,1765,35,66,911
166096,1233916,1266660,1238319,1271087,2017,1374,136,-69,2070,641,1002,1525,35,66,911
167097,1234124,1267024,1238516,1271284,1838,1527,144,380,2004,1009,1128,1340,39,79,911
168098,1234308,1267428,1238713,1271481,1994,1187,161,680,1910,1467,1033,884,39,79,911
169098,1234516,1267916,1238910,1271678,1840,535,186,781,1806,1846,873,456,32,72,911
170100,1234740,1268288,1239107,1271875,1730,1183,232,869,1701,1982,772,353,32,72,911
171100,1234932,1268632,1239304,1272072,1933,1294,261,960,1600,1730,376,555,44,72,913
172102,1235156,1269048,1239501,1272269,1722,749,238,1222,1521,1466,-88,1020,44,72,913
173102,1235360,1269408,1239698,1272466,1844,1027,208,1436,1447,1557,19,589,40,83,914
174103,1235548,1269748,1239895,1272663,1949,1091,176,1555,1317,1949,244,456,40,83,914
175104,1235756,1270104,1240092,1272860,1820,921,146,1546,1137,2285,134,224,33,59,916
176113,1235984,1270488,1240322,1273090,1697,679,131,1422,949,2618,244,-50,33,59,916
177106,1236200,1270844,1240519,1273287,1764,784,105,1404,760,2621,137,389,44,69,913
178108,1236416,1271176,1240716,1273484,1757,876,43,1525,603,2236,-319,865,44,69,913
179108,1236640,1271472,1240913,1273681,1695,1057,-41,1780,458,2053,-275,1088,45,59,915
180110,1236852,1271868,1241110,1273878,1765,346,-118,2013,299,2219,68,974,45,59,915
181110,1237056,1272220,1241307,1274075,1813,553,-172,2129,94,2538,319,916,34,73,914
182112,1237312,1272516,1241504,1274272,1463,860,-235,2270,-133,2765,311,1051,34,73,914
183112,1237560,1272788,1241701,1274469,1491,977,-292,2446,-341,2837,358,1070,44,66,917
184114,1237784,1273060,1241898,1274666,1629,944,-349,2727,-515,2774,346,1422,44,66,917
185115,1238008,1273388,1242095,1274863,1619,537,-401,3045,-663,2580,412,1498,48,62,917
186116,1238244,1273680,1242292,1275060,1527,721,-459,3349,-831,2489,683,1481,48,62,917
187117,1238464,1273920,1242489,1275257,1618,1027,-512,3648,-1041,2457,856,1546,48,48,916
188118,1238720,1274132,1242686,1275454,1367,1195,-567,4002,-1230,2363,648,1830,48,48,916
189119,1239000,1274376,1242883,1275651,1182,976,-631,4429,-1359,2272,298,2124,59,50,917
190119,1239232,1274664,1243080,1275848,1468,661,-700,4956,-1457,2055,197,2179,59,50,917
191120,1239484,1274944,1243277,1276045,1319,674,-769,5459,-1559,1780,110,1910,57,39,915
192122,1239716,1275176,1243474,1276242,1429,959,-853,5754,-1684,1694,117,1549,57,39,915
193122,1239928,1275400,1243671,1276439,1548,997,-939,5934,-1823,1637,359,1192,38,53,918
194124,1240220,1275600,1243868,1276636,1008,1147,-1068,6058,-1950,1422,56,1196,38,53,918
195125,1240496,1275832,1244065,1276833,1074,931,-1229,6285,-2024,1079,-730,1558,60,41,917
196126,1240748,1276116,1244262,1277030,1200,568,-1361,6473,-2025,814,-1338,1397,60,41,917
197127,1240960,1276408,1244459,1277227,1444,476,-1458,6507,-2043,657,-1300,978,46,56,918
198128,1241224,1276604,1244656,1277424,1091,1077,-1593,6377,-2169,390,-814,674,46,56,918
199128,1241444,1276816,1244853,1277621,1356,970,-1836,6174,-2422,-204,-653,771,59,42,919
200130,1241704,1277064,1245050,1277818,1079,724,-2189,6061,-2719,-591,-922,1345,59,42,919
201131,1241972,1277376,1245247,1278015,998,273,-2603,5989,-3005,-843,-722,1170,41,47,916
202132,1242208,1277624,1245444,1278212,1182,651,-3060,5902,-3278,-1110,-869,1448,41,47,916
203133,1242416,1277864,1245641,1278409,1353,682,-3472,5673,-3533,-1128,-732,1072,53,42,918
204134,1242668,1278096,1245838,1278606,1054,717,-3856,5390,-3774,-1352,-309,1052,53,42,918
205135,1242928,1278272,1246035,1278803,977,1076,-4219,5041,-4006,-1603,81,921,45,38,920
206136,1243152,1278496,1246232,1279000,1191,764,-4583,4617,-4236,-1587,493,1023,45,38,920
207137,1243380,1278772,1246429,1279197,1152,404,-4890,4152,-4419,-1730,759,1019,45,35,920
208138,1243588,1279012,1246626,1279394,1274,610,-5175,3720,-4520,-1863,496,1596,45,35,920
209139,1243768,1279220,1246823,1279591,1456,807,-5455,3340,-4563,-2117,426,2061,41,32,919
210140,1243992,1279408,1247020,1279788,1170,935,-5730,2899,-4573,-2492,364,2065,41,32,919
211141,1244204,1279592,1247217,1279985,1239,966,-5967,2351,-4556,-2638,-118,2039,50,35,919
212142,1244376,1279748,1247414,1280182,1501,1159,-6192,1745,-4451,-2626,-856,2408,50,35,919
213142,1244580,1279900,1247611,1280379,1298,1204,-6419,1171,-4197,-2536,-1395,2964,45,41,917
214143,1244744,1280080,1247808,1280576,1563,1036,-6614,595,-3831,-2373,-1462,3073,45,41,917
215144,1244916,1280280,1248005,1280773,1525,910,-6790,40,-3376,-2244,-1698,3466,26,25,915
216145,1245092,1280404,1248202,1280970,1509,1417,-7248,-108,-2728,-1929,-2375,5335,26,25,915
217147,1245284,1280572,1248399,1281167,1412,1155,-7867,-153,-2080,-1974,-2129,5183,33,18,915
218147,1245448,1280704,1248596,1281364,1603,1409,-7241,652,-1569,-1137,-1215,15357,33,18,915
219148,1245632,1280812,1248793,1281561,1484,1598,-1994,9409,-1109,3094,-2371,32767,24,14,914
220149,1245732,1280932,1248990,1281758,2052,1557,4040,17287,-577,2762,-5223,32767,24,14,914
221150,1245864,1281036,1249187,1281955,1881,1698,5441,17709,46,878,-3043,3688,35,15,913
222151,1246028,1281140,1249384,1282152,1696,1739,3793,13785,644,1331,-2673,-1934,35,15,913
223152,1246172,1281264,1249581,1282349,1846,1646,1824,9658,1160,2564,-3045,-2494,32,30,908
224154,1246328,1281380,1249778,1282546,1789,1732,716,6423,1764,2478,-3082,-3761,32,30,908
225154,1246476,1281532,1249975,1282743,1861,1528,56,3337,2303,2928,-2474,-4326,17,16,909
226155,1246648,1281680,1250172,1282940,1723,1574,-694,334,2483,3292,-769,-3492,17,16,909
227157,1246824,1281800,1250369,1283137,1707,1783,-1560,-2562,2406,2809,666,-2384,42,18,911
228158,1247000,1281940,1250566,1283334,1718,1683,-2448,-4947,2203,2898,459,-899,42,18,911
229159,1247180,1282060,1250763,1283531,1701,1843,-3245,-6910,1997,2802,27,356,25,27,912
230159,1247368,1282148,1250960,1283728,1655,2091,-3793,-8216,1919,2605,-89,2158,25,27,912
231160,1247548,1282232,1251157,1283925,1713,2165,-4235,-9280,1772,2235,450,2591,33,25,911
232162,1247756,1282376,1251354,1284122,1535,1814,-4549,-10436,1360,1222,1497,2514,33,25,911
233163,1247936,1282468,1251551,1284319,1717,2186,-4276,-11489,818,-57,435,6238,34,21,909
234164,1248108,1282612,1251748,1284516,1779,1884,-2500,-11423,440,-1442,-3369,23825,34,21,909
235165,1248308,1282748,1251945,1284713,1604,1961,-641,-9249,273,-1637,-3545,28117,37,32,910
236165,1248504,1282876,1252142,1284910,1629,2042,188,-7332,109,-1802,-1769,13841,37,32,910
237166,1248716,1283000,1252339,1285107,1524,2099,-43,-6150,-197,-1890,-1599,9771,28,14,909
238167,1248944,1283104,1252536,1285304,1411,2266,-448,-5413,-569,-1890,-1232,8604,28,14,909
239168,1249176,1283228,1252733,1285501,1371,2173,-621,-4745,-918,-1739,-970,8053,29,27,909
240170,1249368,1283344,1252930,1285698,1624,2259,-599,-4109,-1196,-1654,-1162,7254,29,27,909
241170,1249624,1283460,1253127,1285895,1199,2296,-557,-3468,-1344,-1739,-1634,7180,52,21,909
242171,1249876,1283584,1253324,1286092,1200,2278,-598,-2814,-1359,-1728,-2250,6939,52,21,909
243173,1250092,1283704,1253521,1286289,1417,2337,-617,-2419,-1297,-1706,-2553,5771,45,26,908
244174,1250360,1283836,1253718,1286486,1062,2291,-537,-2289,-1171,-1466,-2752,5121,45,26,908
245175,1250592,1283960,1253915,1286683,1272,2374,-391,-2409,-1035,-1005,-2604,4039,49,32,909
246175,1250804,1284084,1254112,1286880,1391,2406,-238,-2760,-874,-515,-2590,3331,49,32,909
247176,1251064,1284224,1254309,1287077,1065,2332,-70,-3189,-673,-205,-2578,2751,44,25,909
248178,1251268,1284356,1254506,1287274,1411,2411,117,-3756,-429,194,-2666,2288,44,25,909
249179,1251512,1284480,1254703,1287471,1142,2494,312,-4269,-185,452,-2622,2179,37,32,908
250179,1251740,1284620,1254900,1287668,1229,2420,527,-4918,17,531,-2259,1594,37,32,908
251181,1251940,1284776,1255097,1287865,1403,2338,769,-5547,103,670,-1671,1677,56,26,908
252181,1252156,1284912,1255294,1288062,1296,2491,1042,-6148,225,838,-2206,1525,56,26,908
253183,1252416,1285056,1255491,1288259,993,2464,1317,-6584,430,760,-2750,1985,44,33,908
254183,1252628,1285216,1255688,1288456,1287,2381,1589,-6814,646,617,-2738,2464,44,33,908
255184,1252828,1285388,1255885,1288653,1362,2318,1851,-6804,885,403,-2967,3081,48,41,908
256186,1253028,1285580,1256082,1288850,1361,2196,2112,-6688,1118,127,-2960,3136,48,41,908
257186,1253228,1285820,1256279,1289047,1360,1878,2370,-6523,1308,-70,-2701,3297,46,38,907
258187,1253392,1286044,1256476,1289244,1600,1966,2626,-6199,1483,-207,-2463,3816,46,38,907
259197,1253576,1286304,1256706,1289474,1496,1729,2838,-5634,1672,-62,-2235,4438,46,41,910
260190,1253732,1286524,1256903,1289671,1689,1969,3021,-4897,1854,278,-1692,4537,46,41,910
261191,1253916,1286784,1257100,1289868,1521,1692,3214,-4252,1985,751,-807,4260,42,48,911
262192,1254096,1287056,1257297,1290065,1554,1585,3413,-3691,2068,1251,-347,4087,42,48,911
263192,1254320,1287352,1257494,1290262,1267,1391,3561,-3067,2136,1635,-256,4284,26,46,910
264194,1254472,1287640,1257691,1290459,1738,1402,3663,-2379,2215,1801,-214,4214,26,46,910
265195,1254644,1287896,1257888,1290656,1624,1577,3753,-1653,2284,1789,-159,4093,42,58,913
266196,1254824,1288192,1258085,1290853,1583,1284,3837,-879,2337,1665,-53,4049,42,58,913
267197,1255004,1288436,1258282,1291050,1591,1589,3871,-234,2396,1736,88,3800,42,63,911
268198,1255140,1288696,1258479,1291247,1893,1462,3860,314,2428,2043,316,3341,42,63,911
269198,1255316,1288944,1258676,1291444,1653,1515,3804,797,2426,2392,486,3047,38,41,912
270199,1255476,1289192,1258873,1291641,1770,1493,3692,1195,2376,2578,792,2653,38,41,912
271200,1255628,1289404,1259070,1291838,1840,1711,3473,1415,2221,2464,1274,2177,20,47,911
272202,1255808,1289648,1259267,1292035,1674,1491,3211,1536,1979,2291,1479,1721,20,47,911
273203,1255956,1289872,1259464,1292232,1896,1605,2964,1491,1676,2255,1465,1070,34,34,912
274204,1256120,1290076,1259661,1292429,1811,1728,2695,1296,1313,2291,1669,604,34,34,912
275204,1256288,1290312,1259858,1292626,1799,1510,2313,1000,852,2170,2074,323,23,35,913
276206,1256456,1290512,1260055,1292823,1813,1735,1862,589,295,2019,2309,-152,23,35,913
277207,1256604,1290708,1260252,1293020,1960,1761,1384,97,-266,1959,2180,-279,22,48,911
278208,1256776,1290912,1260449,1293217,1822,1708,893,-318,-683,2003,1655,-124,22,48,911
279208,1256936,1291104,1260646,1293414,1914,1786,408,-555,-846,2217,775,386,38,40,909
280210,1257088,1291304,1260843,1293611,1984,1734,-49,-563,-762,2343,-65,1067,38,40,909
281211,1257264,1291496,1261040,1293808,1844,1788,-458,-432,-546,2146,-362,1417,26,33,910
282211,1257404,1291684,1261237,1294005,2095,1816,-789,-324,-378,1759,-117,1270,26,33,910
283212,1257584,1291856,1261434,1294202,1853,1928,-1018,-359,-259,1560,-69,945,21,37,909
284214,1257744,1292020,1261631,1294399,1995,1993,-1165,-395,-110,1493,-113,1096,21,37,909
285215,1257924,1292208,1261828,1294596,1878,1848,-1259,-325,100,1466,-91,1412,27,29,907
286215,1258088,1292384,1262025,1294793,1994,1932,-1337,-133,366,1379,-45,1762,27,29,907
287216,1258284,1292576,1262222,1294990,1795,1835,-1422,169,656,1266,110,2022,26,28,908
288218,1258468,1292764,1262419,1295187,1876,1864,-1513,476,932,1054,131,2122,26,28,908
289219,1258644,1292960,1262616,1295384,1936,1816,-1588,851,1177,806,166,2345,38,38,907
290220,1258840,1293120,1262813,1295581,1812,2057,-1640,1289,1379,492,239,2593,38,38,907
291220,1259016,1293296,1263010,1295778,1948,1966,-1676,1815,1520,221,248,2915,40,26,907
292222,1259180,1293484,1263207,1295975,2037,1896,-1703,2426,1616,-48,196,3176,40,26,907
293223,1259352,1293676,1263404,1296172,1999,1873,-1705,3010,1681,-135,219,3156,46,43,907
294224,1259540,1293884,1263601,1296369,1904,1770,-1692,3501,1720,-167,319,3007,46,43,907
295224,1259704,1294096,1263798,1296566,2070,1738,-1697,3909,1734,-256,327,2849,47,33,908
296226,1259880,1294296,1263995,1296763,2004,1813,-1735,4264,1701,-333,540,2669,47,33,908
297227,1260084,1294468,1264192,1296960,1827,1999,-1796,4500,1596,-413,832,2465,41,35,909
298228,1260260,1294656,1264389,1297157,2012,1904,-1896,4680,1422,-492,983,2286,41,35,909
299229,1260400,1294804,1264586,1297354,2263,2175,-2065,4794,1182,-610,1113,2179,44,26,908
300230,1260568,1294960,1264783,1297551,2102,2144,-2283,4782,858,-732,1321,1870,44,26,908
301231,1260712,1295124,1264980,1297748,2275,2109,-2542,4602,438,-761,1650,1501,38,28,907
302231,1260852,1295308,1265177,1297945,2326,1990,-2841,4345,-38,-729,1700,1325,38,28,907
303232,1261024,1295472,1265374,1298142,2138,2130,-3171,4117,-495,-666,1403,1519,22,40,906
304233,1261140,1295688,1265571,1298339,2525,1797,-3523,3903,-918,-603,1190,1567,22,40,906
305234,1261284,1295896,1265768,1298536,2374,1843,-3856,3476,-1332,-549,1010,973,27,44,905
306235,1261488,1296156,1265965,1298733,1996,1491,-4124,2864,-1750,-536,1010,571,27,44,905
307236,1261664,1296324,1266162,1298930,2181,2079,-4381,2232,-2106,-562,813,939,50,30,905
308237,1261852,1296448,1266359,1299127,2111,2387,-4681,1773,-2294,-528,182,1687,50,30,905
309238,1262020,1296608,1266556,1299324,2250,2178,-4977,1589,-2286,-404,-579,2412,46,26,910
310239,1262200,1296760,1266753,1299521,2183,2249,-5197,1479,-2140,-386,-1093,2506,46,26,910
311240,1262364,1296924,1266950,1299718,2299,2188,-5335,1287,-1928,-446,-1305,2749,31,40,902
312242,1262560,1297120,1267147,1299915,2100,1990,-5407,1109,-1667,-556,-1407,3213,31,40,902
313243,1262700,1297360,1267344,1300112,2476,1696,-3617,3955,-1037,-1650,-3848,29684,45,32,903
314243,1262860,1297640,1267541,1300309,2368,1410,891,12543,88,-2629,-5847,32767,45,32,903
315244,1263036,1297876,1267738,1300506,2278,1668,3786,16328,668,215,-877,9082,25,48,906
316245,1263192,1298144,1267935,1300703,2422,1438,3957,14519,659,686,940,-2128,25,48,906
317247,1263336,1298408,1268132,1300900,2521,1434,3105,10684,455,1329,1072,-3534,25,65,908
318247,1263496,1298676,1268329,1301097,2438,1378,2398,7983,370,1753,1314,-2073,25,65,908
319248,1263660,1298900,1268526,1301294,2429,1642,1969,6128,503,1507,1347,-2122,33,49,908
320250,1263844,1299156,1268723,1301491,2311,1417,1587,4700,634,1667,492,-1299,33,49,908
321250,1264032,1299376,1268920,1301688,2291,1632,1041,3495,629,863,903,-101,46,56,908
322251,1264196,1299596,1269117,1301885,2456,1622,418,2350,462,-152,1275,434,46,56,908
323252,1264384,1299812,1269314,1302082,2311,1639,-281,1421,87,-584,1023,1296,42,36,907
324253,1264564,1300004,1269511,1302279,2369,1791,-922,564,-370,-1527,1123,1501,42,36,907
325255,1264744,1300200,1269708,1302476,2378,1768,-1524,24,-827,-2149,949,2863,41,36,907
326256,1264944,1300396,1269905,1302673,2252,1768,-2114,-277,-1299,-2695,635,3417,41,36,907
327256,1265148,1300628,1270102,1302870,2225,1529,-2437,-283,-1659,-3649,-25,6233,50,42,906
328258,1265356,1300828,1270299,1303067,2196,1727,-1322,1420,-1646,-5658,-2458,25015,50,42,906
329259,1265536,1301072,1270496,1303264,2379,1433,1119,4389,-1371,-6610,-3693,32767,35,44,907
330259,1265732,1301324,1270693,1303461,2281,1359,2420,5840,-1385,-4433,-177,11656,35,44,907
331261,1265964,1301536,1270890,1303658,2041,1602,2072,5192,-1723,-3157,1116,2668,34,41,908
332261,1266156,1301748,1271087,1303855,2294,1596,1215,3830,-2030,-2411,72,2069,34,41,908
333263,1266364,1302036,1271284,1304052,2191,1081,574,2820,-2046,-2027,-604,2241,38,40,908
334264,1266572,1302280,1271481,1304249,2187,1337,136,2125,-1839,-1456,-851,2463,38,40,908
335264,1266764,1302532,1271678,1304446,2290,1263,-236,1589,-1542,-1037,-1195,2452,51,42,907
336266,1266964,1302768,1271875,1304643,2240,1345,-531,817,-1232,-1163,-1209,1688,51,42,907
337267,1267176,1302948,1272072,1304840,2159,1704,-696,-225,-1004,-1223,-1129,1153,49,52,910
338268,1267344,1303136,1272269,1305037,2448,1658,-782,-1402,-859,-1357,-1142,1140,49,52,910
339268,1267536,1303324,1272466,1305234,2301,1662,-851,-2519,-731,-1413,-1394,1096,34,49,910
340270,1267768,1303544,1272663,1305431,2037,1453,-938,-3553,-635,-1125,-1572,1201,34,49,910
341271,1267968,1303740,1272860,1305628,2236,1603,-1035,-4450,-578,-1051,-1435,1804,46,41,907
342279,1268164,1303900,1273090,1305858,2276,1860,-1164,-5011,-536,-1038,-1571,2837,46,41,907
343272,1268376,1304052,1273287,1306055,2171,1930,-1296,-5378,-524,-924,-1567,3108,52,29,910
344274,1268588,1304180,1273484,1306252,2165,2110,-1386,-5729,-553,-976,-1292,3593,52,29,910
345275,1268772,1304332,1273681,1306449,2347,1981,-1404,-5888,-617,-958,-1118,4487,52,34,905
346275,1268976,1304460,1273878,1306646,2220,2161,-1087,-5645,-739,-547,-891,8358,52,34,905
347276,1269164,1304604,1274075,1306843,2325,2085,-50,-4126,-921,526,-862,18752,35,38,905
348277,1269360,1304744,1274272,1307040,2276,2135,1007,-2483,-1082,101,-928,13642,35,38,905
349278,1269592,1304880,1274469,1307237,2037,2187,1360,-2028,-1167,-647,-761,5262,29,30,905
350280,1269772,1304988,1274666,1307434,2370,2402,1248,-2396,-1182,-577,-490,3898,46,30,904
351280,1269992,1305116,1274863,1307631,2111,2308,1095,-2998,-1161,-208,-566,3135,46,30,904
352282,1270220,1305208,1275060,1307828,2048,2580,1067,-3481,-1119,93,-581,2843,43,28,902
353282,1270412,1305292,1275257,1308025,2277,2680,1126,-3949,-1065,380,-290,2541,43,28,902
354283,1270612,1305380,1275454,1308222,2226,2703,1161,-4350,-1016,663,-51,2706,38,9,901
355284,1270836,1305464,1275651,1308419,2065,2778,1171,-4742,-961,747,158,2703,38,9,901
356285,1271060,1305544,1275848,1308616,2055,2856,1161,-5055,-904,838,299,2876,32,21,898
357286,1271280,1305648,1276045,1308813,2069,2746,1122,-5292,-860,894,68,3033,32,21,898
358287,1271540,1305752,1276242,1309010,1793,2788,1072,-5404,-827,772,-134,3291,57,26,900
359288,1271764,1305824,1276439,1309207,2007,3044,1000,-5418,-836,626,-70,3629,57,26,900
360290,1271992,1305896,1276636,1309404,1969,3099,882,-5224,-909,631,38,4279,50,21,902
361290,1272260,1305992,1276833,1309601,1689,2994,716,-4749,-949,740,-190,4955,50,21,902
362292,1272472,1306088,1277030,1309798,2034,3040,543,-4207,-1018,806,96,4991,40,30,899
363292,1272724,1306224,1277227,1309995,1760,2817,399,-3725,-1128,861,279,4836,40,30,899
364293,1273008,1306348,1277424,1310192,1523,2925,302,-3253,-1266,838,451,4671,55,34,899
365294,1273268,1306492,1277621,1310389,1645,2824,237,-2865,-1416,929,364,4418,55,34,899
366295,1273492,1306624,1277818,1310586,1860,2929,191,-2513,-1509,1018,109,4283,39,34,902
367296,1273768,1306740,1278015,1310783,1501,3064,190,-2241,-1536,925,-191,3825,39,34,902
368298,1274060,1306856,1278212,1310980,1360,3101,225,-2113,-1531,947,-570,3401,65,16,901
369298,1274336,1306964,1278409,1311177,1426,3191,312,-2124,-1530,795,-769,2925,65,16,901
370299,1274584,1307064,1278606,1311374,1579,3285,431,-2182,-1506,757,-1117,2755,66,14,902
371300,1274876,1307176,1278803,1311571,1263,3248,557,-2265,-1469,777,-1343,2687,66,14,902
372301,1275168,1307280,1279000,1311768,1222,3339,678,-2280,-1434,717,-1363,2782,64,25,899
373302,1275424,1307452,1279197,1311965,1423,2926,814,-2185,-1398,678,-1459,2950,64,25,899
374304,1275708,1307584,1279394,1312162,1209,3205,919,-2020,-1365,700,-1612,3146,45,25,901
375304,1275948,1307724,1279591,1312359,1466,3181,988,-1758,-1327,675,-1712,3510,45,25,901
376306,1276192,1307868,1279788,1312556,1422,3181,1028,-1461,-1308,617,-1653,3569,63,23,901
377306,1276496,1308004,1279985,1312753,1000,3258,1041,-1176,-1367,592,-1317,3296,63,23,901
378308,1276748,1308168,1280182,1312950,1302,3099,1052,-933,-1513,459,-870,3235,62,30,899
379308,1276988,1308324,1280379,1313147,1359,3168,1032,-696,-1672,494,-828,3279,62,30,899
380309,1277268,1308472,1280576,1313344,1072,3240,1018,-460,-1794,614,-1027,3161,59,36,903
381310,1277516,1308640,1280773,1313541,1251,3128,1016,-265,-1863,720,-1100,2875,59,36,903
382311,1277784,1308804,1280970,1313738,1096,3169,1038,-177,-1911,739,-1023,2637,60,42,903
383312,1278032,1308972,1281167,1313935,1198,3158,1069,-180,-1994,714,-699,2341,60,42,903
384314,1278272,1309180,1281364,1314132,1230,2904,1085,-260,-2115,668,-377,2262,42,36,903
385314,1278520,1309340,1281561,1314329,1158,3221,1063,-300,-2246,686,-259,2201,42,36,903
386315,1278796,1309500,1281758,1314526,949,3238,1032,-382,-2349,633,-466,2022,38,40,904
387316,1279012,1309668,1281955,1314723,1317,3202,1010,-461,-2409,514,-618,1993,38,40,904
388317,1279240,1309820,1282152,1314920,1228,3323,992,-610,-2435,420,-636,1800,54,27,902
389318,1279492,1309988,1282349,1315117,1055,3236,962,-789,-2424,343,-703,1804,54,27,902
390320,1279692,1310196,1282546,1315314,1379,2983,934,-949,-2380,280,-729,1865,34,33,901
391320,1279900,1310380,1282743,1315511,1325,3139,883,-1044,-2335,235,-586,1951,34,33,901
392322,1280148,1310572,1282940,1315708,1052,3093,823,-1178,-2317,108,-274,1810,38,32,903
393323,1280384,1310760,1283137,1315905,1111,3122,738,-1352,-2313,5,-188,1748,38,32,903
394323,1280624,1310960,1283334,1316102,1067,3047,648,-1548,-2300,-104,-251,1755,38,37,904
395325,1280872,1311208,1283531,1316299,996,2726,540,-1722,-2250,-269,-331,1910,38,37,904
396326,1281084,1311436,1283728,1316496,1214,2838,440,-1857,-2168,-365,-426,1902,51,48,905
397326,1281312,1311624,1283925,1316693,1102,3093,345,-2015,-2056,-437,-400,1920,51,48,905
398327,1281572,1311856,1284122,1316890,874,2804,253,-2119,-1922,-448,-264,2038,58,47,904
399329,1281816,1312064,1284319,1317087,954,2950,148,-2215,-1774,-410,-147,2162,58,47,904
400330,1282068,1312308,1284516,1317284,880,2705,44,-2326,-1616,-449,8,2118,42,54,906
401331,1282312,1312512,1284713,1317481,911,2953,-58,-2514,-1462,-449,191,1969,42,54,906
402332,1282588,1312748,1284910,1317678,676,2737,-167,-2701,-1309,-357,353,1992,45,46,908
403332,1282836,1313008,1285107,1317875,829,2559,-283,-2921,-1151,-309,517,1996,45,46,908
404334,1283072,1313232,1285304,1318072,887,2773,-430,-3154,-997,-231,735,2051,60,59,909
405334,1283316,1313488,1285501,1318269,818,2549,-595,-3379,-853,-125,958,2057,60,59,909
406335,1283536,1313740,1285698,1318466,958,2550,-766,-3617,-712,-14,1119,2188,35,58,908
407337,1283772,1314008,1285895,1318663,840,2420,-924,-3814,-570,67,1242,2258,35,58,908
408338,1284012,1314256,1286092,1318860,798,2524,-1096,-4072,-424,243,1392,2248,58,58,909
409339,1284236,1314492,1286289,1319057,886,2583,-1268,-4314,-284,437,1478,2314,58,58,909
410340,1284424,1314728,1286486,1319254,1116,2566,-1439,-4511,-129,531,1562,2566,41,56,909
411341,1284636,1314972,1286683,1319451,959,2497,-1749,-4859,229,776,1587,2805,41,56,909
412342,1284828,1315196,1286880,1319648,1086,2610,-1902,-4949,402,921,1803,3188,27,56,908
413343,1285016,1315428,1287077,1319845,1116,2546,-2071,-4963,551,1108,1846,3474,27,56,908
414343,1285224,1315668,1287274,1320042,986,2478,-2250,-4938,703,1158,1736,3635,34,56,908
415344,1285388,1315908,1287471,1320239,1277,2460,-2411,-4952,854,1225,1620,3607,34,56,908
416346,1285580,1316144,1287668,1320436,1104,2469,-2564,-4975,977,1413,1368,3773,26,42,910
417347,1285768,1316380,1287865,1320633,1133,2452,-2710,-4963,1094,1482,991,3866,26,42,910
418348,1285964,1316628,1288062,1320830,1084,2355,-2846,-4996,1215,1526,654,3934,27,44,909
419348,1286140,1316844,1288259,1321027,1219,2548,-2729,-4750,1333,1903,199,6602,27,44,909
420350,1286336,1317044,1288456,1321224,1095,2647,-903,-1013,1372,5015,-1131,32767,30,45,908
421350,1286512,1317252,1288653,1321421,1229,2594,1476,3422,1310,4046,-1033,27856,30,45,908
422351,1286680,1317444,1288850,1321618,1292,2697,2218,4303,1250,1808,177,2804,27,41,906
423353,1286856,1317628,1289047,1321815,1252,2752,1809,2694,1201,1955,343,937,27,41,906
424354,1287008,1317812,1289244,1322012,1422,2759,1249,859,1120,2375,54,713,42,31,906
425362,1287152,1318004,1289474,1322242,1511,2727,885,-292,1080,2262,-238,1181,42,31,906
426356,1287328,1318172,1289671,1322439,1320,2891,677,-1088,1086,2179,-651,1159,24,37,905
427357,1287512,1318376,1289868,1322636,1277,2664,377,-1710,1041,2083,-828,1727,24,37,905
428358,1287680,1318552,1290065,1322833,1390,2848,1,-2374,946,1635,-745,1754,43,27,905
429359,1287840,1318696,1290262,1323030,1456,3072,-369,-3003,812,1405,-1032,2039,43,27,905
430359,1287996,1318872,1290459,1323227,1500,2882,-692,-3547,650,1069,-1247,2200,32,41,904
431361,1288160,1319024,1290656,1323424,1464,3053,-996,-3939,518,577,-1423,2896,32,41,904
432362,1288356,1319184,1290853,1323621,1266,3020,-1314,-4005,416,297,-1829,3613,32,40,902
433363,1288528,1319360,1291050,1323818,1427,2931,-1588,-4013,344,-149,-2025,3807,32,40,902
434364,1288712,1319512,1291247,1324015,1359,3100,-1796,-3766,326,-587,-2148,4682,43,27,903
435364,1288880,1319664,1291444,1324212,1471,3121,-1929,-3522,325,-910,-2120,4618,43,27,903
436365,1289068,1319800,1291641,1324409,1351,3249,-1453,-2423,407,-1567,-2522,12632,34,17,902
437366,1289256,1319928,1291838,1324606,1355,3330,-123,302,666,-2172,-2840,23617,34,17,902
438367,1289424,1320080,1292035,1324803,1494,3201,799,1639,867,-1716,-1592,6679,30,25,901
439368,1289640,1320212,1292232,1325000,1186,3356,952,1506,971,-1696,-1091,3878,30,25,901
440370,1289820,1320352,1292429,1325197,1419,3332,806,882,1063,-1423,-1013,3360,47,34,900
441371,1290008,1320500,1292626,1325394,1373,3304,720,481,1173,-1286,-990,3412,47,34,900
442371,1290224,1320636,1292823,1325591,1191,3407,743,220,1342,-1193,-656,3210,30,32,898
443372,1290428,1320764,1293020,1325788,1263,3488,795,7,1489,-845,-284,3266,30,32,898
444373,1290596,1320880,1293217,1325985,1501,3600,827,-308,1577,-888,-43,2899,29,14,899
445374,1290816,1321016,1293414,1326182,1166,3503,870,-776,1631,-1058,226,2729,29,14,899
446375,1291020,1321132,1293611,1326379,1264,3663,868,-1192,1639,-1025,605,3064,51,14,897
447376,1291188,1321260,1293808,1326576,1502,3620,835,-1564,1633,-1106,911,3040,51,14,897
448378,1291380,1321380,1294005,1326773,1355,3704,774,-1790,1614,-1109,1081,3478,29,26,897
449378,1291568,1321492,1294202,1326970,1384,3794,668,-1950,1568,-1135,1124,3686,29,26,897
450392,1291736,1321608,1294399,1327167,1523,3800,531,-2068,1517,-1128,1192,3976,31,24,896
451380,1291916,1321736,1294596,1327364,1455,3762,378,-2158,1477,-881,1237,4084,31,24,896
452382,1292108,1321864,1294793,1327561,1383,3793,232,-2293,1449,-724,1223,4076,37,31,894
453382,1292264,1322028,1294990,1327758,1626,3584,109,-2321,1450,-744,1134,4295,37,31,894
454383,1292468,1322180,1295187,1327955,1324,3679,29,-2404,1476,-730,964,4253,36,20,894
455384,1292624,1322332,1295384,1328152,1642,3700,-43,-2425,1540,-720,604,4647,36,20,894
456399,1292796,1322468,1295581,1328349,1554,3800,-112,-2412,1645,-764,413,4637,32,30,897
457400,1292972,1322608,1295778,1328546,1539,3800,-191,-2499,1745,-543,403,4420,32,30,897
458387,1293128,1322764,1295975,1328743,1683,3748,-255,-2637,1835,-256,443,4328,24,25,895
459401,1293264,1322900,1296172,1328940,1834,3800,-321,-2779,1918,-166,465,4439,24,25,895
460402,1293412,1323012,1296369,1329137,1782,3800,-394,-2858,1987,-32,339,4574,26,28,894
461403,1293556,1323148,1296566,1329334,1831,3800,-476,-2895,2061,-72,96,4712,26,28,894
462404,1293712,1323280,1296763,1329531,1774,3800,-566,-2883,2132,-130,-34,4887,42,36,893
463405,1293896,1323444,1296960,1329728,1606,3800,-636,-2919,2178,33,49,4712,42,36,893
464406,1294064,1323592,1297157,1329925,1719,3800,-681,-3015,2198,69,136,4590,44,36,891
465395,1294204,1323784,1297354,1330122,1920,3690,-712,-3108,2213,109,60,4685,44,36,891
466408,1294376,1323944,1297551,1330319,1731,3800,-734,-3208,2237,147,-88,4561,27,37,893
467409,1294544,1324108,1297748,1330516,1770,3800,-748,-3280,2246,-18,-17,4722,27,37,893
468410,1294724,1324268,1297945,1330713,1703,3800,-741,-3322,2218,-47,70,4694,36,31,894
469411,1294872,1324448,1298142,1330910,1925,3800,-711,-3425,2162,-46,181,4660,36,31,894
470399,1295040,1324664,1298339,1331107,1813,3592,-668,-3467,2111,-133,-64,4857,34,44,894
471400,1295184,1324860,1298536,1331304,1988,3718,-625,-3467,2100,-262,-423,4946,34,44,894
472402,1295328,1325056,1298733,1331501,2011,3720,-559,-3435,2104,-286,-518,4881,24,37,895
473403,1295472,1325272,1298930,1331698,2035,3587,-471,-3436,2122,-276,-644,4873,24,37,895
474404,1295636,1325488,1299127,1331895,1925,3581,-356,-3476,2143,-131,-546,4780,34,50,893
475404,1295768,1325712,1299324,1332092,2154,3520,-215,-3531,2134,47,-184,4710,34,50,893
476406,1295920,1325932,1299521,1332289,2050,3536,-60,-3548,2135,37,-295,4919,43,48,894
477407,1296092,1326172,1299718,1332486,1937,3393,77,-3405,2207,-117,-1005,5362,43,48,894
478408,1296232,1326492,1299915,1332683,2162,2840,202,-3210,2316,-298,-1303,5410,46,61,895
479408,1296376,1326776,1300112,1332880,2161,3029,345,-3044,2421,-377,-1420,5231,46,61,895
480410,1296532,1327028,1300309,1333077,2105,3206,513,-2947,2476,-254,-1355,4896,24,61,900
481410,1296688,1327360,1300506,1333274,2123,2647,706,-2970,2491,-149,-938,4687,24,61,900
482411,1296836,1327684,1300703,1333471,2196,2643,899,-2927,2514,-36,-1030,4829,35,50,898
483412,1296984,1328028,1300900,1333668,2218,2454,1082,-2877,2529,137,-1191,4745,35,50,898
484413,1297116,1328332,1301097,1333865,2348,2658,1270,-2841,2542,288,-1277,4607,35,57,901
485414,1297296,1328652,1301294,1334062,2055,2505,1453,-2782,2556,343,-1411,4632,35,57,901
486415,1297452,1329048,1301491,1334259,2224,1943,1631,-2754,2548,362,-1592,4461,29,60,901
487416,1297644,1329388,1301688,1334456,2003,2232,1790,-2750,2521,319,-1618,4505,29,60,901
488417,1297828,1329700,1301885,1334653,2059,2357,1924,-2603,2506,245,-1628,4790,35,57,904
489419,1298008,1329976,1302082,1334850,2092,2548,2045,-2471,2471,277,-1525,4516,35,57,904
490420,1298164,1330308,1302279,1335047,2261,2140,2177,-2408,2398,604,-1091,4289,46,59,904
491420,1298348,1330680,1302476,1335244,2093,1814,2327,-2367,2316,1095,-627,3982,46,59,904
492421,1298528,1331024,1302673,1335441,2126,1926,2485,-2411,2230,1563,-318,3649,47,60,905
493422,1298724,1331312,1302870,1335638,2026,2237,2629,-2396,2163,1611,-140,3799,47,60,905
494423,1298952,1331676,1303067,1335835,1814,1689,2754,-2353,2102,1342,163,3930,55,75,907
495424,1299144,1332048,1303264,1336032,2042,1562,2850,-2084,2019,971,114,4340,55,75,907
496426,1299344,1332392,1303461,1336229,1992,1674,2942,-1750,1952,731,26,4222,36,65,909
497426,1299556,1332740,1303658,1336426,1911,1583,3058,-1533,1919,879,331,3805,36,65,909
498428,1299744,1333124,1303855,1336623,2065,1277,3167,-1304,1868,1225,721,3695,32,75,908
499428,1299964,1333516,1304052,1336820,1856,1141,3267,-1096,1791,1414,852,3359,32,75,908
500429,1300184,1333848,1304249,1337017,1847,1458,3345,-843,1739,1377,576,3430,49,63,910
501430,1300396,1334160,1304446,1337214,1891,1533,3421,-575,1714,974,499,3381,49,63,910
502431,1300612,1334592,1304643,1337411,1859,680,3478,-161,1695,611,295,3830,49,73,911
503432,1300796,1334944,1304840,1337608,2065,1113,3528,255,1657,566,473,3375,49,73,911
504433,1301024,1335276,1305037,1337805,1777,1179,3583,566,1602,850,622,2917,34,66,913
505435,1301248,1335580,1305234,1338002,1791,1308,3621,849,1576,1368,569,2778,34,66,913
506435,1301452,1335944,1305431,1338199,1914,859,3651,1042,1564,1478,661,2369,42,74,912
507436,1301708,1336308,1305628,1338396,1563,786,3665,1305,1498,1023,495,2434,42,74,912
508444,1301932,1336676,1305858,1338626,1767,701,3678,1611,1397,577,117,2302,38,58,912
509438,1302136,1336972,1306055,1338823,1890,1108,3676,1898,1360,700,-129,2294,38,58,912
510439,1302368,1337296,1306252,1339020,1700,878,3654,2163,1341,969,178,1906,36,71,914
511440,1302576,1337624,1306449,1339217,1846,796,3628,2329,1244,1131,455,1294,36,71,914
512442,1302812,1337952,1306646,1339414,1654,738,3597,2416,1097,1232,134,1126,59,53,914
513442,1303072,1338264,1306843,1339611,1478,787,3563,2447,993,1114,-247,1037,59,53,914
514443,1303288,1338504,1307040,1339808,1745,1220,3512,2594,954,939,-556,1243,39,53,915
515444,1303504,1338812,1307237,1340005,1737,746,3442,2805,931,793,-594,1108,39,53,915
516445,1303728,1339116,1307434,1340202,1676,724,3340,2931,841,902,-370,902,50,62,914
517446,1303932,1339388,1307631,1340399,1799,891,3197,3075,700,1163,-291,851,50,62,914
518447,1304172,1339616,1307828,1340596,1555,1153,3015,3275,580,1258,-300,927,47,56,915
519448,1304460,1339864,1308025,1340793,1216,1006,2802,3592,482,1055,-413,1277,47,56,915
520449,1304692,1340124,1308222,1340990,1552,903,2606,3873,364,743,-416,1044,48,54,913
521451,1304916,1340396,1308419,1341187,1590,795,2435,4073,206,701,-284,750,48,54,913
522452,1305144,1340652,1308616,1341384,1552,869,2247,4222,15,869,-64,607,54,47,916
523453,1305364,1340884,1308813,1341581,1593,1004,2022,4366,-153,1195,4,628,54,47,916
524454,1305600,1341128,1309010,1341778,1476,909,1727,4414,-329,1425,374,331,42,42,915
525454,1305880,1341364,1309207,1341975,1166,942,1382,4383,-573,1529,586,210,42,42,915
526455,1306104,1341592,1309404,1342172,1505,978,1018,4300,-855,1653,675,24,37,44,915
527456,1306332,1341876,1309601,1342369,1466,590,643,4034,-1131,1826,963,-375,37,44,915
528458,1306572,1342092,1309798,1342566,1373,1007,250,3675,-1467,1761,1415,-640,36,50,916
529458,1306800,1342328,1309995,1342763,1436,865,-158,3276,-1868,1505,1736,-763,36,50,916
530460,1307024,1342576,1310192,1342960,1449,767,-566,2884,-2276,1349,1745,-692,44,55,915
531460,1307272,1342816,1310389,1343157,1277,798,-959,2497,-2621,1197,1460,-431,44,55,915
532462,1307516,1343088,1310586,1343354,1282,565,-1343,2164,-2880,1025,1465,-259,51,39,915
533462,1307756,1343376,1310783,1343551,1289,425,-1734,1829,-3117,1031,1572,-232,51,39,915
534464,1307992,1343572,1310980,1343748,1297,1001,-2128,1565,-3365,803,1627,63,56,55,918
535464,1308236,1343768,1311177,1343945,1227,1001,-2508,1362,-3598,405,1575,401,56,55,918
536465,1308440,1343972,1311374,1344142,1475,948,-2859,1146,-3802,85,1432,358,50,45,917
537466,1308648,1344244,1311571,1344339,1445,490,-3192,996,-3943,-113,1182,799,50,45,917
538468,1308832,1344468,1311768,1344536,1602,778,-3521,761,-3985,-85,1061,861,50,40,916
539468,1309004,1344696,1311965,1344733,1688,740,-3861,469,-3977,-33,816,925,50,40,916
540470,1309184,1344932,1312162,1344930,1646,673,-4217,298,-3908,-255,242,1372,43,48,916
541470,1309344,1345144,1312359,1345127,1787,816,-4533,119,-3772,-236,141,1341,43,48,916
542471,1309548,1345304,1312556,1345324,1510,1157,-4842,-48,-3591,-93,119,1641,27,46,914
543472,1309744,1345512,1312753,1345521,1562,852,-5187,-192,-3323,-96,-151,2083,27,46,914
544474,1309952,1345704,1312950,1345718,1482,955,-5546,-327,-2999,5,-286,2186,28,29,914
545474,1310136,1345912,1313147,1345915,1639,850,-5892,-551,-2667,64,-9,2124,28,29,914
546476,1310312,1346068,1313344,1346112,1698,1193,-6221,-847,-2346,177,333,2247,45,19,915
547476,1310500,1346212,1313541,1346309,1628,1291,-6526,-1149,-2047,344,660,2365,45,19,915
548477,1310652,1346320,1313738,1346506,1873,1556,-6825,-1477,-1769,432,821,2530,44,25,913
549478,1310812,1346440,1313935,1346703,1840,1515,-7164,-1657,-1503,526,903,3375,44,25,913
550479,1310988,1346548,1314132,1346900,1750,1629,-7546,-1837,-1220,608,509,3464,44,22,911
551480,1311164,1346660,1314329,1347097,1759,1642,-7936,-2018,-900,652,48,3629,44,22,911
552481,1311312,1346784,1314526,1347294,1957,1599,-8360,-2165,-553,767,-109,4132,36,33,909
553482,1311484,1346924,1314723,1347491,1818,1524,-8665,-2474,-262,855,-116,3565,36,33,909
554484,1311648,1347096,1314920,1347688,1883,1335,-8876,-2810,-8,956,-485,4050,26,37,908
555485,1311824,1347248,1315117,1347885,1819,1479,-9011,-3161,242,995,-957,4207,26,37,908
556486,1311988,1347416,1315314,1348082,1908,1392,-9115,-3445,489,1185,-1240,4823,40,34,911
557487,1312164,1347544,1315511,1348279,1843,1672,-6742,182,715,5256,-3126,32767,40,34,911
558487,1312312,1347668,1315708,1348476,2041,1730,-889,11138,802,8832,-6071,32767,20,19,910
559488,1312516,1347792,1315905,1348673,1688,1763,2505,15325,749,3329,-824,6103,20,19,910
560490,1312660,1347900,1316102,1348870,2087,1902,2642,12978,712,3096,415,-1319,43,15,908
561490,1312848,1348012,1316299,1349067,1817,1914,1500,8463,769,4144,-734,-2288,43,15,908
562492,1313064,1348144,1316496,1349264,1634,1818,616,5448,962,4168,-1690,-1678,45,31,907
563492,1313280,1348284,1316693,1349461,1626,1793,162,3249,1164,3188,-1698,-1763,45,31,907
564494,1313448,1348412,1316890,1349658,1939,1899,-274,1631,1121,3092,-1753,-638,46,18,907
565494,1313680,1348548,1317087,1349855,1525,1876,-934,139,891,2396,-1669,61,46,18,907
566496,1313880,1348668,1317284,1350052,1724,2010,-1582,-1321,621,1586,-1723,529,42,25,907
567496,1314064,1348788,1317481,1350249,1830,2044,-2251,-2516,301,1405,-2255,1553,42,25,907
568498,1314296,1348924,1317678,1350446,1516,1971,-2714,-3611,18,1041,-2242,1656,31,32,908
569498,1314516,1349048,1317875,1350643,1582,2078,-3079,-4425,-255,1019,-2083,2560,31,32,908
570499,1314712,1349176,1318072,1350840,1732,2084,-3293,-5247,-623,804,-2000,2108,52,32,909
571500,1314944,1349296,1318269,1351037,1493,2169,-3479,-5813,-937,-10,-2699,3797,52,32,909
572501,1315192,1349424,1318466,1351234,1371,2149,-3615,-5762,-1171,-573,-3259,5012,46,22,907
573502,1315416,1349568,1318663,1351431,1509,2072,-3670,-5642,-1436,-920,-3210,5097,46,22,907
574503,1315672,1349688,1318860,1351628,1284,2257,-3125,-4502,-1568,-1954,-4435,13153,39,20,907
575504,1315900,1349812,1319057,1351825,1446,2264,-1037,-255,-1204,-3944,-7492,32767,39,20,907
576505,1316132,1349960,1319254,1352022,1406,2136,771,2846,-1024,-2185,-3905,14644,55,30,907
577506,1316396,1350080,1319451,1352219,1178,2345,1154,3318,-1239,-1476,-1900,5049,55,30,907
578507,1316628,1350204,1319648,1352416,1363,2353,869,2521,-1530,-936,-2144,3995,36,30,908
579508,1316868,1350352,1319845,1352613,1295,2225,584,1956,-1656,-449,-2633,4308,36,30,908
580509,1317068,1350492,1320042,1352810,1543,2300,565,1755,-1586,-425,-2228,3771,35,29,907
581510,1317328,1350628,1320239,1353007,1142,2352,664,1463,-1483,155,-2453,2914,35,29,907
582511,1317548,1350736,1320436,1353204,1382,2567,783,935,-1406,203,-2438,2242,36,30,907
583512,1317756,1350876,1320633,1353401,1453,2392,869,240,-1288,-52,-2505,2254,36,30,907
584513,1318000,1351048,1320830,1353598,1208,2204,910,-362,-1193,134,-2485,2179,30,37,906
585514,1318212,1351216,1321027,1353795,1402,2242,961,-1070,-1033,-30,-2664,1694,30,37,906
586515,1318416,1351376,1321224,1353992,1449,2309,990,-1574,-761,43,-2913,2385,48,25,907
587517,1318604,1351528,1321421,1354189,1553,2379,952,-2034,-466,199,-2815,2430,48,25,907
588518,1318816,1351692,1321618,1354386,1398,2319,896,-2370,-145,-159,-2881,2919,45,36,906
589519,1318972,1351852,1321815,1354583,1766,2361,861,-2525,153,-432,-2673,2978,45,36,906
590519,1319184,1352016,1322012,1354780,1410,2351,859,-2701,426,-532,-2739,2980,48,42,907
591529,1319368,1352180,1322242,1355010,1605,2380,852,-2635,725,-743,-2632,3883,48,42,907
592521,1319556,1352364,1322439,1355207,1585,2262,864,-2501,1021,-845,-2309,3793,45,36,907
593522,1319776,1352620,1322636,1355404,1375,1786,894,-2387,1276,-756,-1928,3695,45,36,907
594523,1319968,1352928,1322833,1355601,1554,1413,957,-2253,1529,-857,-1655,3841,45,57,906
595524,1320144,1353192,1323030,1355798,1664,1659,1025,-2064,1816,-667,-1657,3857,45,57,906
596526,1320344,1353472,1323227,1355995,1512,1523,1091,-1834,2107,-535,-1495,3922,24,52,910
597526,1320524,1353800,1323424,1356192,1646,1166,1189,-1680,2393,-506,-1228,3527,24,52,910
598527,1320672,1354104,1323621,1356389,1867,1270,1319,-1599,2609,-341,-907,3249,43,51,910
599528,1320868,1354408,1323818,1356586,1569,1223,1454,-1522,2745,-423,-420,3163,43,51,910
600529,1321032,1354644,1324015,1356783,1783,1631,1562,-1461,2831,-479,-9,3300,39,59,912
601531,1321208,1354880,1324212,1356980,1719,1614,1625,-1341,2866,-329,331,3173,39,59,912
602531,1321392,1355108,1324409,1357177,1674,1652,1659,-1230,2845,-212,767,2966,45,55,913
603532,1321584,1355344,1324606,1357374,1628,1585,1677,-1170,2732,-64,1085,2602,45,55,913
604533,1321756,1355564,1324803,1357571,1765,1674,1684,-1361,2529,43,1231,1804,35,53,910
605534,1321944,1355812,1325000,1357768,1668,1478,1671,-1631,2247,167,1296,1646,35,53,910
606535,1322116,1356028,1325197,1357965,1780,1670,1633,-1988,1902,360,1520,1374,35,48,911
607536,1322324,1356224,1325394,1358162,1551,1795,1570,-2322,1529,572,1645,1372,35,48,911
608538,1322512,1356444,1325591,1358359,1681,1636,1445,-2551,1196,665,1538,1672,32,49,910
609538,1322696,1356632,1325788,1358556,1712,1840,1282,-2762,954,839,1313,1559,32,49,910
610539,1322856,1356844,1325985,1358753,1879,1684,1078,-2897,837,1170,892,1812,29,39,909
611540,1323032,1357020,1326182,1358950,1789,1919,884,-3021,786,1228,789,1734,29,39,909
612542,1323192,1357204,1326379,1359147,1905,1874,752,-3246,748,1245,588,1519,40,30,909
613542,1323364,1357352,1326576,1359344,1842,2122,685,-3468,747,1380,362,1678,40,30,909
614543,1323528,1357508,1326773,1359541,1908,2090,667,-3554,807,1451,279,1999,29,40,908
615544,1323708,1357716,1326970,1359738,1815,1760,667,-3450,937,1508,181,2435,29,40,908
616545,1323900,1357904,1327167,1359935,1743,1890,675,-3264,1117,1487,123,2582,29,31,907
617546,1324076,1358092,1327364,1360132,1852,1894,664,-3016,1342,1499,102,2874,29,31,907
618547,1324264,1358276,1327561,1360329,1782,1926,625,-2656,1593,1578,39,3229,25,34,909
619548,1324424,1358456,1327758,1360526,1975,1958,576,-2218,1847,1547,74,3311,25,34,909
620549,1324584,1358644,1327955,1360723,1991,1912,528,-1790,2078,1382,192,3325,36,37,905
621550,1324752,1358836,1328152,1360920,1955,1890,496,-1347,2284,1312,162,3408,36,37,905
622551,1324912,1358992,1328349,1361117,2022,2133,473,-825,2462,1210,34,3663,41,44,907
623552,1325076,1359184,1328546,1361314,2011,1912,455,-235,2579,1062,-36,3812,41,44,907
624554,1325244,1359392,1328743,1361511,2000,1807,450,276,2629,862,80,3577,41,34,907
625554,1325436,1359620,1328940,1361708,1853,1668,437,735,2626,735,31,3499,41,34,907
626555,1325584,1359864,1329137,1361905,2150,1548,398,1160,2588,639,-211,3435,37,50,907
627556,1325740,1360072,1329334,1362102,2119,1769,327,1592,2512,584,-220,3274,37,50,907
628557,1325892,1360276,1329531,1362299,2165,1791,230,1930,2359,480,52,3077,20,40,909
629558,1326032,1360452,1329728,1362496,2265,1976,105,2190,2093,409,373,2973,20,40,909
630559,1326176,1360648,1329925,1362693,2264,1851,-65,2369,1719,280,620,2516,27,42,906
631560,1326308,1360852,1330122,1362890,2369,1799,-293,2423,1261,41,901,2320,27,42,906
632561,1326444,1361044,1330319,1363087,2370,1876,-582,2420,753,-251,925,2269,39,27,904
633562,1326584,1361220,1330516,1363284,2371,1986,-874,2352,201,-448,936,1926,39,27,904
634563,1326684,1361396,1330713,1363481,2665,1996,-1154,2215,-375,-511,1064,1795,27,25,905
635564,1326824,1361612,1330910,1363678,2441,1737,-1479,2051,-902,-484,1012,1871,27,25,905
636565,1327028,1361772,1331107,1363875,2038,2105,-1914,2000,-1306,-392,875,2417,46,25,904
637566,1327184,1361884,1331304,1364072,2357,2442,-2435,2101,-1598,-364,781,2670,46,25,904
638567,1327344,1361964,1331501,1364269,2349,2693,-2900,2023,-1860,-344,823,2010,36,28,905
639568,1327524,1362040,1331698,1364466,2233,2773,-3233,1695,-2136,-264,1106,1430,36,28,905
640570,1327680,1362116,1331895,1364663,2402,2826,-3493,1283,-2388,-143,1240,1583,38,19,901
641570,1327816,1362208,1332092,1364860,2554,2773,-3747,1025,-2505,101,758,2303,38,19,901
642571,1327972,1362336,1332289,1365057,2448,2578,-4050,1012,-2429,323,428,3208,43,14,898
643572,1328112,1362472,1332486,1365254,2574,2556,-4362,1168,-2231,339,287,3538,43,14,898
644573,1328240,1362632,1332683,1365451,2680,2422,-4483,1295,-1945,157,-468,3869,43,21,897
645574,1328400,1362840,1332880,1365648,2497,2118,-2516,4644,-1318,-941,-2507,32767,43,21,897
646575,1328548,1363100,1333077,1365845,2595,1766,999,10818,-482,-935,-2583,32767,23,43,899
647576,1328692,1363372,1333274,1366042,2643,1659,2646,12669,-124,989,655,2881,23,43,899
648577,1328816,1363596,1333471,1366239,2801,1947,2372,10728,-116,1378,1641,-1140,20,57,901
649578,1328976,1363876,1333668,1366436,2593,1562,1622,7818,-205,1943,1527,-2005,20,57,901
650579,1329112,1364180,1333865,1366633,2771,1364,1105,5963,-145,1816,1113,-639,26,68,904
651580,1329268,1364436,1334062,1366830,2665,1640,799,4774,82,1605,731,-257,26,68,904
652582,1329444,1364668,1334259,1367027,2550,1774,425,3900,251,1742,318,565,48,43,904
653583,1329612,1364964,1334456,1367224,2614,1332,13,3052,273,912,853,747,48,43,904
654584,1329780,1365220,1334653,1367421,2628,1556,-397,2134,118,141,1195,1088,45,60,904
655585,1329980,1365452,1334850,1367618,2428,1691,-820,1356,-238,-379,1386,1740,45,60,904
656586,1330148,1365676,1335047,1367815,2641,1729,-1195,731,-643,-1159,1286,2409,46,51,906
657587,1330332,1365892,1335244,1368012,2547,1771,-1594,598,-1066,-1564,926,4064,46,51,906
658588,1330528,1366188,1335441,1368209,2474,1229,-1332,1918,-1326,-2701,-1029,15483,35,49,906
659588,1330720,1366432,1335638,1368406,2502,1533,71,5770,-1210,-4205,-3100,32531,35,49,906
660589,1330924,1366692,1335835,1368603,2425,1406,938,7896,-1311,-2473,44,9203,42,55,904
661590,1331132,1366948,1336032,1368800,2396,1405,680,7541,-1651,-1879,687,2972,42,55,904
662592,1331304,1367184,1336229,1368997,2633,1513,9,6308,-1966,-1663,136,2604,56,43,906
663592,1331504,1367432,1336426,1369194,2457,1417,-550,5345,-2100,-1270,-561,2595,56,43,906
664593,1331728,1367756,1336623,1369391,2297,886,-949,4840,-2032,-1104,-989,2941,41,59,906
665595,1331936,1368016,1336820,1369588,2393,1258,-1210,4413,-1896,-955,-1274,2791,41,59,906
666595,1332140,1368252,1337017,1369785,2416,1392,-1401,3810,-1788,-1121,-1448,2465,42,42,907
667596,1332348,1368456,1337214,1369982,2387,1589,-1510,2985,-1722,-1341,-1252,2331,42,42,907
668597,1332560,1368624,1337411,1370179,2356,1827,-1481,2106,-1716,-1191,-1049,2844,51,47,908
669599,1332748,1368832,1337608,1370376,2511,1573,-959,1495,-1704,-1107,-1507,7853,51,47,908
670599,1332960,1369028,1337805,1370573,2356,1648,96,1316,-1636,-1252,-1821,12377,53,45,906
671600,1333176,1369204,1338002,1370770,2323,1783,780,956,-1580,-951,-1070,6363,53,45,906
672602,1333376,1369380,1338199,1370967,2422,1792,770,140,-1570,-981,-391,2505,51,34,906
673603,1333632,1369540,1338396,1371164,2047,1909,490,-894,-1606,-1159,-378,1940,51,34,906
674611,1333848,1369712,1338626,1371394,2304,1860,272,-1872,-1632,-1251,-1113,2083,52,25,905
675604,1334056,1369840,1338823,1371591,2350,2165,151,-2581,-1599,-1348,-1724,3022,52,25,905
676606,1334284,1369948,1339020,1371788,2213,2330,75,-2970,-1533,-1399,-1779,3748,34,35,906
677607,1334500,1370064,1339217,1371985,2280,2316,24,-3151,-1478,-1541,-1564,4458,34,35,906
678608,1334688,1370176,1339414,1372182,2460,2378,23,-3125,-1437,-1641,-1104,5273,47,18,903
679608,1334932,1370304,1339611,1372379,2091,2309,87,-3127,-1409,-1496,-633,5653,47,18,903
680610,1335144,1370416,1339808,1372576,2285,2447,180,-3049,-1407,-1249,-258,6300,45,17,902
681610,1335352,1370504,1340005,1372773,2306,2646,288,-2974,-1436,-1240,120,6237,45,17,902
682611,1335592,1370600,1340202,1372970,2087,2640,386,-3024,-1490,-1289,215,5702,49,20,904
683612,1335816,1370684,1340399,1373167,2177,2765,421,-3095,-1525,-1225,71,5187,49,20,904
684613,1336016,1370768,1340596,1373364,2326,2815,419,-3229,-1504,-1122,-446,4754,33,16,899
685615,1336232,1370876,1340793,1373561,2219,2704,417,-3328,-1432,-990,-635,4653,33,16,899
686615,1336484,1370984,1340990,1373758,1971,2745,437,-3532,-1343,-869,-404,4292,56,26,898
687617,1336728,1371076,1341187,1373955,2001,2891,471,-3771,-1259,-612,-223,4123,56,26,898
688618,1336960,1371196,1341384,1374152,2062,2751,511,-3974,-1193,-392,145,4051,58,15,899
689619,1337228,1371292,1341581,1374349,1806,2946,552,-4222,-1168,-321,687,3787,58,15,899
690620,1337472,1371388,1341778,1374546,1936,2990,574,-4471,-1175,-115,1009,3816,57,22,900
691620,1337696,1371492,1341975,1374743,2050,2982,571,-4668,-1170,128,899,3884,57,22,900
692621,1337976,1371592,1342172,1374940,1664,3050,544,-4732,-1131,308,425,4086,49,29,900
693623,1338236,1371720,1342369,1375137,1763,2906,500,-4800,-1081,302,81,3828,49,29,900
694624,1338516,1371844,1342566,1375334,1602,2964,466,-4940,-1055,270,-33,3746,47,17,899
695624,1338776,1371980,1342763,1375531,1700,2916,408,-4977,-1079,361,-142,4114,47,17,899
696626,1339040,1372128,1342960,1375728,1646,2864,335,-4908,-1116,546,-397,4185,58,24,900
697627,1339324,1372236,1343157,1375925,1484,3154,265,-4805,-1118,680,-531,4193,58,24,900
698628,1339612,1372352,1343354,1376122,1420,3139,231,-4743,-1151,700,-306,3932,58,23,901
699629,1339892,1372476,1343551,1376319,1433,3122,205,-4657,-1260,764,-152,4078,58,23,901
700629,1340176,1372576,1343748,1376516,1371,3316,179,-4453,-1402,911,-121,4344,66,16,900
701631,1340456,1372704,1343945,1376713,1361,3172,164,-4214,-1524,1020,-362,4184,66,16,900
702631,1340736,1372824,1344142,1376910,1324,3256,159,-4009,-1603,1089,-806,4158,51,18,901
703632,1341008,1372960,1344339,1377107,1342,3184,195,-3898,-1646,1080,-1008,3626,51,18,901
704634,1341304,1373104,1344536,1377304,1150,3158,276,-3911,-1705,1117,-1101,3108,56,20,901
705634,1341560,1373236,1344733,1377501,1374,3263,406,-3992,-1763,1104,-1313,2971,56,20,901
706635,1341820,1373384,1344930,1377698,1322,3185,555,-4029,-1778,1190,-1452,3147,60,22,901
707636,1342124,1373540,1345127,1377895,1000,3153,678,-3921,-1749,1375,-1470,3590,60,22,901
708637,1342380,1373724,1345324,1378092,1275,2985,783,-3694,-1714,1366,-1346,3661,64,35,899
709638,1342636,1373848,1345521,1378289,1250,3393,878,-3459,-1728,1224,-1085,3604,64,35,899
710639,1342936,1374016,1345718,1378486,930,3132,995,-3237,-1810,1113,-851,3405,46,23,901
711640,1343164,1374156,1345915,1378683,1367,3333,1119,-3037,-1916,1031,-792,3580,46,23,901
712642,1343428,1374336,1346112,1378880,1113,3091,1245,-2721,-2002,951,-855,3727,62,39,900
713642,1343696,1374492,1346309,1379077,1058,3259,1367,-2385,-2049,849,-940,3746,62,39,900
714643,1343960,1374648,1346506,1379274,1053,3278,1489,-2017,-2073,742,-934,3781,46,32,900
715644,1344180,1374820,1346703,1379471,1319,3190,1610,-1731,-2097,633,-821,3457,46,32,900
716645,1344456,1374968,1346900,1379668,935,3363,1722,-1437,-2112,545,-723,3265,50,24,902
717646,1344684,1375140,1347097,1379865,1222,3225,1837,-1205,-2114,406,-623,3023,50,24,902
718648,1344884,1375284,1347294,1380062,1396,3424,1937,-1019,-2115,312,-528,2940,47,29,897
719649,1345136,1375444,1347491,1380259,1046,3341,2023,-867,-2124,207,-187,2734,47,29,897
720650,1345352,1375632,1347688,1380456,1264,3171,2070,-811,-2152,46,-37,2423,55,45,900
721651,1345552,1375808,1347885,1380653,1363,3257,2093,-811,-2164,-10,-261,2268,55,45,900
722652,1345760,1376004,1348082,1380850,1309,3133,2106,-848,-2121,-7,-504,2040,36,40,901
723653,1346032,1376216,1348279,1381047,876,3026,2125,-923,-2023,-16,-592,1833,36,40,901
724654,1346252,1376424,1348476,1381244,1192,3048,2132,-1058,-1912,-46,-499,1538,50,48,901
725654,1346468,1376620,1348673,1381441,1208,3124,2099,-1263,-1809,-1,-376,1496,50,48,901
726656,1346700,1376828,1348870,1381638,1094,3045,2020,-1460,-1707,70,-183,1507,39,35,905
727656,1346932,1377064,1349067,1381835,1079,2854,1925,-1680,-1602,124,-33,1287,39,35,905
728658,1347172,1377304,1349264,1382032,1010,2811,1812,-1937,-1494,151,38,1246,56,40,903
729659,1347432,1377512,1349461,1382229,858,3007,1684,-2207,-1363,202,61,1082,56,40,903
730660,1347668,1377736,1349658,1382426,991,2897,1540,-2547,-1206,282,82,1125,40,44,904
731660,1347920,1377968,1349855,1382623,868,2832,1372,-2800,-1040,333,157,1241,40,44,904
732661,1348180,1378192,1350052,1382820,790,2871,1179,-3020,-866,364,308,1347,45,58,906
733662,1348412,1378444,1350249,1383017,950,2673,962,-3227,-694,467,467,1495,45,58,906
734664,1348652,1378696,1350446,1383214,882,2649,719,-3410,-533,536,728,1601,41,42,907
735665,1348896,1378944,1350643,1383411,836,2653,443,-3535,-387,625,997,1780,41,42,907
736666,1349148,1379160,1350840,1383608,762,2845,162,-3622,-246,649,1144,1822,40,55,907
737666,1349368,1379384,1351037,1383805,953,2784,-129,-3741,-108,777,1280,1948,40,55,907
738668,1349620,1379648,1351234,1384002,729,2506,-418,-3826,35,921,1341,1996,53,56,908
739668,1349844,1379884,1351431,1384199,892,2665,-721,-3868,192,967,1442,2180,53,56,908
740670,1350040,1380104,1351628,1384396,1068,2755,-1027,-3906,345,1000,1581,2277,33,57,905
741670,1350236,1380340,1351825,1384593,1069,2638,-1336,-3946,485,1058,1652,2450,33,57,905
742672,1350432,1380556,1352022,1384790,1069,2756,-1641,-3892,634,984,1638,2629,40,43,907
743672,1350604,1380760,1352219,1384987,1230,2829,-1951,-3828,787,969,1618,2610,40,43,907
744674,1350792,1381008,1352416,1385184,1135,2533,-2233,-3840,937,1032,1544,2505,47,49,907
745675,1351000,1381244,1352613,1385381,1005,2591,-2492,-3873,1069,1125,1539,2630,47,49,907
746676,1351196,1381472,1352810,1385578,1081,2628,-2743,-3968,1161,1267,1350,2448,29,44,905
747676,1351368,1381680,1353007,1385775,1243,2749,-2981,-4046,1238,1360,1038,2599,29,44,905
748677,1351560,1381944,1353204,1385972,1120,2371,-3209,-4178,1311,1422,810,2530,32,50,907
749678,1351728,1382188,1353401,1386169,1283,2476,-3435,-4254,1378,1556,370,2843,32,50,907
750679,1351896,1382440,1353598,1386366,1296,2402,-3646,-4284,1441,1350,-5,2978,28,46,906
751680,1352064,1382664,1353795,1386563,1309,2566,-3823,-4363,1487,1228,-349,3030,28,46,906
752682,1352240,1382872,1353992,1386760,1268,2662,-3996,-4350,1503,1298,-685,3531,27,52,906
753682,1352420,1383092,1354189,1386957,1252,2578,-4185,-4204,1490,1247,-913,3935,27,52,906
754683,1352544,1383300,1354386,1387154,1634,2648,-4383,-3944,1438,1185,-1117,4295,35,35,906
755684,1352700,1383528,1354583,1387351,1452,2511,-4568,-3755,1350,1134,-1221,4306,35,35,906
756685,1352876,1383724,1354780,1387548,1337,2712,-4707,-3604,1245,1185,-1348,4347,38,48,907
757693,1353032,1383928,1355010,1387778,1495,2673,-3680,-1825,1114,2875,-2222,19601,38,48,907
758687,1353204,1384100,1355207,1387975,1406,2885,-478,4270,931,5022,-3722,32767,39,46,906
759688,1353348,1384288,1355404,1388172,1605,2790,1715,7235,713,2193,-1644,9208,39,46,906
760689,1353512,1384496,1355601,1388369,1495,2662,2059,6213,503,1863,-923,-211,42,44,904
761690,1353684,1384644,1355798,1388566,1457,3058,1622,3447,327,2306,-1205,-1444,42,44,904
762691,1353876,1384820,1355995,1388763,1334,2893,1344,1422,182,2369,-1638,-746,31,27,901
763692,1354076,1384996,1356192,1388960,1282,2903,1269,53,183,2025,-2187,-316,31,27,901
764693,1354256,1385148,1356389,1389157,1416,3074,1197,-713,301,2080,-3060,1042,31,38,900
765694,1354440,1385312,1356586,1389354,1397,3014,1023,-1358,396,1436,-2560,1271,31,38,900
766695,1354624,1385480,1356783,1389551,1403,3003,852,-2094,378,557,-1851,1279,43,26,903
767696,1354796,1385624,1356980,1389748,1489,3177,665,-2674,241,115,-1713,2035,43,26,903
768698,1354980,1385756,1357177,1389945,1420,3281,467,-3162,103,-527,-1368,2504,37,37,902
769698,1355188,1385920,1357374,1390142,1266,3097,226,-3163,31,-958,-1357,3993,37,37,902
770699,1355352,1386028,1357571,1390339,1556,3486,-31,-2915,14,-1421,-1589,4524,41,18,900
771700,1355564,1386188,1357768,1390536,1250,3178,-269,-2476,62,-1881,-1707,5487,41,18,900
772701,1355772,1386320,1357965,1390733,1270,3383,-461,-1825,141,-2048,-1504,5803,45,14,900
773702,1355956,1386428,1358162,1390930,1426,3573,-565,-1319,243,-2162,-1288,5367,45,14,900
774703,1356148,1386548,1358359,1391127,1379,3533,-614,-862,390,-2336,-1021,5642,41,15,900
775704,1356356,1386664,1358556,1391324,1274,3594,-598,-613,590,-2331,-741,5123,41,15,900
776705,1356548,1386796,1358753,1391521,1377,3523,-552,-428,812,-2250,-678,5137,45,14,897
777706,1356716,1386920,1358950,1391718,1540,3606,-457,-257,1054,-2387,-567,4927,45,14,897
778707,1356916,1387036,1359147,1391915,1340,3693,-340,-212,1278,-2400,-373,4812,28,29,897
779708,1357084,1387144,1359344,1392112,1553,3783,-214,-153,1474,-2315,-152,5003,28,29,897
780709,1357260,1387284,1359541,1392309,1512,3609,-71,-101,1667,-2068,249,5077,41,28,895
781723,1357452,1387396,1359738,1392506,1415,3800,126,-16,1825,-1511,549,5959,41,28,895
782711,1357636,1387544,1359935,1392703,1471,3620,380,93,1966,-1205,847,6573,34,36,892
783713,1357796,1387688,1360132,1392900,1638,3669,572,23,2103,-1070,1218,5146,34,36,892
784727,1357988,1387808,1360329,1393097,1440,3800,655,-267,2195,-883,1485,4093,29,33,893
785715,1358136,1387944,1360526,1393294,1738,3782,658,-668,2240,-927,1787,3850,29,33,893
786728,1358312,1388072,1360723,1393491,1572,3800,620,-1065,2244,-957,1873,3940,28,21,893
787729,1358492,1388208,1360920,1393688,1555,3800,546,-1438,2205,-847,1835,4027,28,21,893
788730,1358644,1388340,1361117,1393885,1750,3800,452,-1801,2156,-534,1692,4127,26,24,893
789731,1358780,1388464,1361314,1394082,1877,3800,348,-2136,2126,-221,1308,4233,26,24,893
790732,1358936,1388588,1361511,1394279,1771,3800,246,-2462,2129,-99,907,4366,41,27,894
791733,1359072,1388704,1361708,1394476,1923,3800,152,-2675,2156,-88,775,4657,41,27,894
792734,1359244,1388824,1361905,1394673,1710,3800,58,-2843,2169,-8,745,4691,34,35,892
793735,1359392,1388972,1362102,1394870,1881,3800,-33,-3008,2183,110,533,4851,34,35,892
794736,1359580,1389116,1362299,1395067,1636,3800,-116,-3135,2198,191,422,4910,29,23,889
795737,1359724,1389240,1362496,1395264,1935,3800,-188,-3289,2192,281,325,4952,29,23,889
796738,1359900,1389360,1362693,1395461,1745,3800,-258,-3360,2177,253,77,5247,35,27,890
797739,1360060,1389456,1362890,1395658,1862,3800,-323,-3392,2160,87,-46,5311,35,27,890
798740,1360236,1389592,1363087,1395855,1771,3800,-367,-3406,2115,109,-109,5209,39,22,888
799741,1360396,1389712,1363284,1396052,1889,3800,-403,-3429,2074,104,-319,5251,39,22,888
800742,1360568,1389808,1363481,1396249,1825,3800,-424,-3425,2049,47,-422,5205,38,17,892
801743,1360700,1389952,1363678,1396446,2104,3800,-425,-3471,2012,18,-443,5047,38,17,892
802744,1360848,1390092,1363875,1396643,2026,3800,-376,-3565,1953,-86,-287,4867,23,17,892
803745,1361000,1390224,1364072,1396840,2022,3800,-293,-3682,1881,-63,-218,4882,23,17,892
804746,1361140,1390360,1364269,1397037,2122,3800,-198,-3727,1801,-11,-262,4955,25,31,891
805747,1361284,1390488,1364466,1397234,2121,3800,-86,-3812,1726,-6,-207,4836,25,31,891
806748,1361440,1390632,1364663,1397431,2065,3800,41,-3834,1666,159,-229,4915,20,21,889
807749,1361588,1390772,1364860,1397628,2136,3800,177,-3863,1633,172,-275,4912,20,21,889
808750,1361716,1390940,1365057,1397825,2293,3800,322,-3856,1613,118,-264,4959,36,21,889
809751,1361900,1391112,1365254,1398022,1949,3800,475,-3830,1619,87,-380,4939,36,21,889
810752,1362024,1391284,1365451,1398219,2357,3800,618,-3749,1673,-30,-783,5128,26,42,891
811753,1362176,1391468,1365648,1398416,2202,3800,765,-3639,1750,-174,-1024,5093,26,42,891
812754,1362324,1391656,1365845,1398613,2249,3800,938,-3561,1824,-284,-1202,4900,30,49,892
813742,1362468,1391928,1366042,1398810,2298,3638,1127,-3526,1905,-202,-1293,4808,30,49,892
814743,1362604,1392236,1366239,1399007,2376,3366,1329,-3505,1992,23,-1256,4719,23,52,889
815744,1362760,1392504,1366436,1399204,2269,3586,1522,-3473,2076,218,-1198,4708,23,52,889
816746,1362924,1392788,1366633,1399401,2234,3449,1710,-3401,2153,384,-939,4682,42,65,892
817746,1363100,1393136,1366830,1399598,2170,2984,1891,-3285,2208,368,-880,4703,42,65,892
818748,1363292,1393496,1367027,1399795,2073,2839,2030,-3045,2273,116,-1333,5113,48,62,892
819748,1363444,1393816,1367224,1399992,2343,3036,2132,-2719,2346,-148,-1569,5302,48,62,892
820750,1363584,1394196,1367421,1400189,2444,2581,2245,-2529,2394,-55,-1094,4602,26,60,899
821750,1363748,1394580,1367618,1400386,2309,2475,2379,-2431,2393,412,-692,4305,26,60,899
822751,1363912,1394940,1367815,1400583,2325,2554,2492,-2373,2356,848,-535,4232,38,66,898
823752,1364084,1395292,1368012,1400780,2286,2538,2558,-2261,2292,1150,-530,4266,38,66,898
824754,1364280,1395600,1368209,1400977,2137,2765,2612,-2079,2272,1301,-537,4147,50,76,902
825755,1364488,1396020,1368406,1401174,2058,1968,2688,-2019,2257,1337,-92,3747,50,76,902
826755,1364660,1396408,1368603,1401371,2294,2086,2739,-1896,2216,1111,-160,4030,43,80,902
827756,1364844,1396744,1368800,1401568,2226,2350,2740,-1582,2196,733,-445,4332,43,80,902
828757,1365060,1397124,1368997,1401765,2019,1995,2710,-1305,2211,745,-415,4136,51,78,905
829758,1365240,1397556,1369194,1401962,2252,1568,2695,-1077,2207,1055,137,3672,51,78,905
830759,1365444,1397968,1369391,1402159,2100,1599,2722,-976,2151,1207,586,3150,49,71,901
831760,1365656,1398332,1369588,1402356,2043,1827,2751,-856,2062,1342,517,3122,49,71,901
832762,1365872,1398744,1369785,1402553,2011,1433,2769,-757,2011,1244,475,3076,60,77,907
833763,1366076,1399172,1369982,1402750,2084,1232,2786,-564,1989,911,484,3213,60,77,907
834764,1366276,1399536,1370179,1402947,2108,1559,2806,-274,1937,546,386,3203,43,84,907
835764,1366468,1399980,1370376,1403144,2161,952,2852,-85,1853,418,463,2737,43,84,907
836765,1366680,1400432,1370573,1403341,2030,790,2910,67,1783,820,580,2619,50,77,910
837766,1366920,1400808,1370770,1403538,1837,1187,2964,176,1715,1163,631,2232,50,77,910
838767,1367132,1401136,1370967,1403735,2006,1430,3005,301,1607,1124,523,2243,47,80,911
839768,1367340,1401560,1371164,1403932,2027,731,3041,498,1493,775,149,2329,47,80,911
840776,1367560,1401932,1371394,1404162,1957,993,3078,722,1432,513,-247,2352,54,63,911
841770,1367748,1402340,1371591,1404359,2162,677,3086,983,1394,553,-96,2313,54,63,911
842771,1367948,1402676,1371788,1404556,2086,1066,3081,1178,1309,771,323,1818,37,76,912
843772,1368168,1403072,1371985,1404753,1952,604,3094,1191,1164,1304,596,1224,37,76,912
844773,1368428,1403424,1372182,1404950,1675,811,3120,1134,1005,1803,689,1011,38,72,912
845774,1368664,1403736,1372379,1405147,1809,1011,3114,1101,871,1920,472,1091,38,72,912
846775,1368924,1404036,1372576,1405344,1631,1040,3089,1200,798,1703,78,1269,55,70,913
847776,1369124,1404396,1372773,1405541,2006,595,3046,1332,739,1183,138,1288,55,70,913
848777,1369328,1404708,1372970,1405738,1979,844,2976,1446,631,1001,92,1174,45,52,913
849779,1369540,1404976,1373167,1405935,1922,1088,2863,1612,488,1365,28,1230,45,52,913
850780,1369828,1405204,1373364,1406132,1408,1324,2704,1837,340,1704,155,1277,50,62,912
851780,1370084,1405480,1373561,1406329,1583,990,2505,2170,201,1665,-3,1619,50,62,912
852782,1370344,1405824,1373758,1406526,1531,501,2327,2591,91,1193,-263,1700,63,49,911
853782,1370592,1406152,1373955,1406723,1584,543,2171,2992,-6,843,-448,1668,63,49,911
854783,1370792,1406396,1374152,1406920,1884,1048,2019,3380,-132,761,-367,1463,46,65,914
855784,1371064,1406608,1374349,1407117,1401,1241,1846,3652,-299,917,-143,1022,46,65,914
856785,1371352,1406872,1374546,1407314,1262,887,1651,3855,-446,1333,-318,1000,63,54,916
857787,1371612,1407200,1374743,1407511,1410,429,1422,4033,-543,1687,-583,1057,63,54,916
858787,1371896,1407504,1374940,1407708,1222,532,1169,4249,-594,1791,-851,1008,46,50,914
859788,1372136,1407732,1375137,1407905,1479,994,904,4343,-651,1755,-815,586,46,50,914
860789,1372388,1407972,1375334,1408102,1380,900,651,4241,-792,1741,-388,69,52,47,918
861790,1372644,1408288,1375531,1408299,1330,372,403,4016,-1001,1809,-24,-138,52,47,918
862791,1372956,1408584,1375728,1408496,930,454,148,3795,-1214,1905,9,-143,65,49,914
863792,1373208,1408900,1375925,1408693,1281,277,-112,3623,-1370,1890,-105,81,65,49,914
864793,1373448,1409120,1376122,1408890,1338,866,-381,3534,-1461,1762,-46,349,49,57,918
865795,1373736,1409332,1376319,1409087,999,910,-652,3445,-1607,1491,412,344,49,57,918
866796,1374000,1409572,1376516,1409284,1119,716,-974,3340,-1847,1103,887,409,60,42,919
867796,1374216,1409872,1376713,1409481,1412,296,-1335,3254,-2162,757,1204,456,60,42,919
868798,1374468,1410112,1376910,1409678,1163,652,-1732,3166,-2501,621,1255,604,57,45,918
869798,1374648,1410364,1377107,1409875,1621,553,-2130,3095,-2819,489,1376,747,57,45,918
870799,1374848,1410580,1377304,1410072,1495,769,-2554,3079,-3098,378,1304,1001,52,39,918
871800,1375044,1410756,1377501,1410269,1521,1028,-2980,2933,-3352,266,1359,589,52,39,918
872801,1375236,1410972,1377698,1410466,1548,770,-3367,2600,-3575,286,1497,388,35,46,915
873803,1375388,1411196,1377895,1410663,1819,708,-3723,2312,-3733,414,1371,750,35,46,915
874803,1375576,1411404,1378092,1410860,1598,802,-4088,2032,-3803,328,1211,938,44,42,914
875804,1375756,1411572,1378289,1411057,1657,1065,-4444,1745,-3798,160,1056,1050,44,42,914
876805,1375912,1411736,1378486,1411254,1825,1105,-4771,1389,-3734,16,792,1075,34,28,914
877806,1376100,1411888,1378683,1411451,1630,1199,-5082,1035,-3597,31,548,1390,34,28,914
878807,1376276,1412044,1378880,1411648,1714,1192,-5420,677,-3376,57,423,1437,40,27,913
879808,1376468,1412164,1379077,1411845,1617,1451,-5761,348,-3084,27,250,1660,40,27,913
880810,1376640,1412276,1379274,1412042,1753,1539,-6107,84,-2747,-106,72,2205,37,20,913
881810,1376776,1412408,1379471,1412239,2006,1442,-6466,-154,-2385,-276,2,2502,37,20,913
882811,1376944,1412576,1379668,1412436,1819,1230,-6838,-327,-2031,-324,228,3026,38,35,911
883812,1377116,1412716,1379865,1412633,1806,1430,-7205,-479,-1722,-261,515,3309,38,35,911
884813,1377260,1412860,1380062,1412830,2004,1428,-7562,-669,-1434,-233,393,3420,23,23,907
885814,1377440,1412992,1380259,1413027,1787,1532,-7900,-865,-1121,-250,52,3533,23,23,907
886815,1377608,1413108,1380456,1413224,1875,1667,-8240,-1028,-786,-239,-268,3989,42,15,910
887816,1377804,1413208,1380653,1413421,1702,1810,-8520,-1286,-448,-186,-474,3858,42,15,910
888817,1377960,1413336,1380850,1413618,1970,1665,-8726,-1636,-121,-73,-708,3923,40,15,910
889818,1378148,1413436,1381047,1413815,1774,1883,-8880,-1987,182,77,-1020,4287,40,15,910
890819,1378300,1413520,1381244,1414012,2019,2033,-9004,-2299,465,218,-1167,4640,43,17,909
891820,1378444,1413680,1381441,1414209,2094,1574,-7379,-183,738,3146,-2834,23635,43,17,909
892821,1378632,1413808,1381638,1414406,1823,1804,-1617,10925,777,9553,-7218,32767,24,31,908
893822,1378844,1413952,1381835,1414603,1667,1728,2742,17039,696,3866,-1782,16326,24,31,908
894823,1379028,1414060,1382032,1414800,1849,1992,3368,15467,535,2341,735,-1624,29,24,907
895824,1379236,1414208,1382229,1414997,1694,1764,2192,10596,342,2852,261,-3059,29,24,907
896825,1379460,1414284,1382426,1415194,1583,2267,1298,7050,268,3380,-713,-1901,48,23,908
897826,1379652,1414412,1382623,1415391,1785,1973,782,4765,494,2721,-2015,-1880,48,23,908
898827,1379884,1414560,1382820,1415588,1521,1869,202,2992,701,2795,-2517,-1121,48,30,909
899828,1380124,1414692,1383017,1415785,1453,1998,-593,1280,665,2494,-1982,-846,48,30,909
900829,1380332,1414828,1383214,1415982,1648,2000,-1209,-899,418,1732,-1160,-1763,50,18,907
901830,1380556,1414968,1383411,1416179,1537,2001,-1633,-3007,-14,1706,-994,-809,50,18,907
902831,1380788,1415064,1383608,1416376,1472,2320,-1950,-4804,-406,1116,-1321,-8,48,29,909
903832,1380996,1415200,1383805,1416573,1618,2097,-2282,-5926,-676,568,-1865,1705,48,29,909
904833,1381188,1415336,1384002,1416770,1720,2124,-2641,-6659,-938,240,-2455,2312,33,34,909
905834,1381440,1415472,1384199,1416967,1322,2151,-2936,-7202,-1172,-394,-2799,3496,33,34,909
906835,1381668,1415616,1384396,1417164,1458,2125,-3163,-7157,-1391,-657,-3136,5103,53,19,906
907836,1381900,1415740,1384593,1417361,1419,2282,-3336,-6926,-1653,-1139,-3221,5512,53,19,906
908837,1382132,1415872,1384790,1417558,1404,2261,-3340,-6337,-1847,-1949,-3569,7403,53,29,908
909838,1382364,1415992,1384987,1417755,1389,2370,-2049,-3406,-1621,-3852,-6001,27835,53,29,908
910839,1382580,1416096,1385184,1417952,1481,2511,98,1033,-1173,-4163,-5606,31717,54,32,907
911840,1382812,1416244,1385381,1418149,1366,2259,1160,2992,-1066,-2507,-2164,7350,54,32,907
912841,1383040,1416364,1385578,1418346,1378,2467,1119,2772,-1187,-2148,-1651,5015,41,28,906
913842,1383252,1416500,1385775,1418543,1472,2394,807,2097,-1261,-1442,-2231,4523,41,28,906
914844,1383520,1416632,1385972,1418740,1091,2449,678,1825,-1132,-1315,-2170,4197,50,28,908
915845,1383752,1416752,1386169,1418937,1302,2558,783,1576,-916,-1003,-2021,3207,50,28,908
916846,1384004,1416924,1386366,1419134,1152,2245,933,1155,-727,-617,-2265,2486,52,23,905
917846,1384224,1417048,1386563,1419331,1343,2577,1103,449,-515,-535,-2269,1963,52,23,905
918848,1384400,1417168,1386760,1419528,1628,2636,1224,-277,-261,-152,-2557,1958,28,26,905
919848,1384612,1417304,1386957,1419725,1397,2563,1308,-1021,34,-98,-2784,1586,28,26,905
920850,1384804,1417432,1387154,1419922,1524,2644,1392,-1827,352,-119,-2569,1532,40,27,906
921851,1384996,1417600,1387351,1420119,1526,2407,1439,-2507,630,50,-2434,1624,40,27,906
922852,1385188,1417760,1387548,1420316,1530,2474,1466,-3105,844,-295,-2130,1841,42,35,904
923862,1385396,1417928,1387778,1420546,1439,2452,1497,-3453,1043,-717,-2057,2617,42,35,904
924854,1385572,1418164,1387975,1420743,1650,2010,1558,-3655,1260,-877,-2061,2874,40,46,906
925854,1385760,1418388,1388172,1420940,1578,2074,1605,-3607,1511,-893,-1908,3714,40,46,906
926855,1385940,1418652,1388369,1421137,1637,1795,1658,-3416,1781,-828,-1631,3837,44,50,906
927856,1386112,1418956,1388566,1421334,1698,1499,1722,-3277,2010,-684,-1270,3473,44,50,906
928857,1386276,1419224,1388763,1421531,1763,1692,1775,-3173,2215,-670,-1040,3615,42,49,907
929858,1386460,1419488,1388960,1421728,1644,1689,1828,-3107,2400,-439,-840,3389,42,49,907
930859,1386648,1419732,1389157,1421925,1624,1793,1888,-2995,2583,-152,-652,3319,40,39,911
931860,1386816,1419992,1389354,1422122,1762,1666,1968,-2982,2759,-108,-380,3009,40,39,911
932862,1386976,1420232,1389551,1422319,1829,1773,2033,-3016,2898,43,-102,3066,42,55,910
933862,1387180,1420448,1389748,1422516,1551,1914,2058,-2950,2989,262,276,3089,42,55,910
934863,1387356,1420660,1389945,1422713,1736,1934,2067,-2899,3034,320,680,2936,31,54,909
935864,1387528,1420876,1390142,1422910,1772,1900,2076,-2829,3002,490,995,2771,31,54,909
936865,1387704,1421084,1390339,1423107,1757,1946,2088,-2890,2907,661,1182,2355,29,37,909
937866,1387880,1421308,1390536,1423304,1767,1835,2088,-3013,2773,934,1290,2188,29,37,909
938867,1388028,1421548,1390733,1423501,1964,1716,2045,-3223,2571,1170,1606,1841,42,38,907
939868,1388228,1421752,1390930,1423698,1638,1939,1965,-3509,2290,1308,1826,1684,42,38,907
940869,1388376,1421956,1391127,1423895,1985,1936,1885,-3765,1938,1303,1952,1645,41,46,907
941870,1388536,1422148,1391324,1424092,1927,2013,1803,-3951,1581,1377,1920,1771,41,46,907
942871,1388700,1422356,1391521,1424289,1917,1909,1662,-4063,1269,1546,1796,1989,30,42,908
943872,1388876,1422584,1391718,1424486,1851,1770,1478,-4120,1032,1760,1683,2084,30,42,908
944874,1389016,1422780,1391915,1424683,2102,1971,1274,-4125,856,1912,1380,2093,46,39,907
945874,1389216,1422964,1392112,1424880,1726,2052,1112,-4173,729,1948,1100,2012,46,39,907
946875,1389372,1423140,1392309,1425077,2020,2112,995,-4206,659,2009,684,2130,37,29,908
947877,1389560,1423332,1392506,1425274,1824,2014,897,-4096,656,2144,438,2415,37,29,908
948877,1389732,1423528,1392703,1425471,1936,1990,792,-3864,733,2130,426,2702,41,30,907
949878,1389908,1423744,1392900,1425668,1920,1857,689,-3535,846,2033,406,3047,41,30,907
950879,1390044,1423932,1393097,1425865,2198,2037,592,-3118,975,1933,355,3201,25,29,905
951880,1390212,1424148,1393294,1426062,2012,1854,507,-2678,1138,1838,432,3268,25,29,905
952882,1390380,1424352,1393491,1426259,2025,1926,419,-2249,1326,1771,385,3265,44,46,907
953883,1390524,1424524,1393688,1426456,2199,2138,326,-1752,1513,1631,232,3327,44,46,907
954883,1390692,1424740,1393885,1426653,2062,1854,237,-1224,1673,1438,199,3331,33,45,907
955885,1390828,1424936,1394082,1426850,2289,1980,160,-722,1791,1311,133,3338,33,45,907
956885,1390992,1425152,1394279,1427047,2130,1847,75,-169,1844,1149,167,3563,23,34,902
957887,1391148,1425364,1394476,1427244,2198,1866,-32,411,1803,898,274,3609,23,34,902
958887,1391292,1425544,1394673,1427441,2297,2073,-173,950,1666,690,392,3447,31,30,904
959888,1391432,1425752,1394870,1427638,2348,1894,-341,1364,1443,463,578,2950,31,30,904
960890,1391552,1425908,1395067,1427835,2507,2237,-527,1637,1134,178,901,2642,38,31,904
961890,1391696,1426124,1395264,1428032,2381,1855,-766,1909,787,7,665,2763,38,31,904
962891,1391812,1426344,1395461,1428229,2593,1820,-1040,2112,470,-45,209,2609,20,45,902
963893,1391948,1426556,1395658,1428426,2495,1863,-1314,2312,181,-25,186,2598,20,45,902
964894,1392072,1426808,1395855,1428623,2603,1590,-1573,2395,-99,65,-132,2136,19,54,904
965894,1392184,1427104,1396052,1428820,2716,1272,-1819,2341,-366,153,-80,1844,19,54,904
966895,1392312,1427308,1396249,1429017,2647,1844,-2065,2214,-592,300,393,1790,42,40,902
967896,1392488,1427428,1396446,1429214,2357,2403,-2361,2017,-769,454,618,1742,42,40,902
968898,1392676,1427520,1396643,1429411,2287,2625,-2645,1905,-908,509,516,1904,38,20,905
969899,1392848,1427584,1396840,1429608,2399,2858,-2848,1691,-1044,514,695,1540,38,20,905
970899,1393016,1427648,1397037,1429805,2437,2917,-2999,1426,-1171,678,880,1684,47,15,901
971900,1393184,1427684,1397234,1430002,2450,3163,-3189,1302,-1243,723,870,2284,47,15,901
972901,1393332,1427740,1397431,1430199,2598,3101,-3435,1271,-1267,726,1078,2643,44,17,895
973902,1393476,1427796,1397628,1430396,2647,3163,-3731,1438,-1283,678,1293,3252,44,17,895
974903,1393628,1427868,1397825,1430593,2618,3119,-4031,1604,-1336,388,1666,3324,32,6,893
975904,1393772,1427968,1398022,1430790,2691,2987,-4315,1795,-1475,138,2113,3681,32,6,893
976905,1393920,1428060,1398219,1430987,2689,3084,-4496,2113,-1602,-123,1483,4828,31,22,892
977906,1394060,1428180,1398416,1431184,2765,2943,-2984,5664,-1385,-998,-840,32767,31,22,892
978907,1394196,1428352,1398613,1431381,2818,2630,-128,11683,-951,-1123,-1415,32767,25,20,894
979908,1394332,1428556,1398810,1431578,2845,2427,1257,13515,-943,220,1817,3180,25,20,894
980910,1394460,1428804,1399007,1431775,2926,2130,1026,11833,-1224,582,2100,-435,21,34,894
981910,1394592,1429020,1399204,1431972,2930,2322,357,9393,-1484,1278,1243,-662,21,34,894
982911,1394748,1429332,1399401,1432169,2799,1672,-77,7939,-1503,1404,801,294,25,48,895
983912,1394908,1429620,1399598,1432366,2792,1782,-211,6861,-1317,1233,482,-383,25,48,895
984914,1395068,1429924,1399795,1432563,2809,1636,-330,5823,-1133,1308,1,19,38,70,896
985915,1395256,1430192,1399992,1432760,2639,1831,-503,4742,-990,611,-398,381,38,70,896
986915,1395444,1430508,1400189,1432957,2644,1479,-674,3617,-947,-16,-441,436,29,69,902
987916,1395600,1430804,1400386,1433154,2863,1560,-866,2624,-1083,-406,-192,902,29,69,902
988918,1395784,1431068,1400583,1433351,2694,1732,-1077,1791,-1257,-975,-223,1752,34,57,903
989918,1395960,1431276,1400780,1433548,2755,2077,-1298,1522,-1419,-1316,-817,4098,34,57,903
990919,1396148,1431508,1400977,1433745,2684,1913,-707,3179,-1376,-2654,-2886,20011,38,43,902
991920,1396344,1431804,1401174,1433942,2635,1469,536,6183,-1193,-3405,-3032,24139,38,43,902
992922,1396540,1432060,1401371,1434139,2636,1694,1022,7384,-1282,-2512,-921,5895,38,56,901
993922,1396748,1432308,1401568,1434336,2558,1722,669,6830,-1599,-2640,-640,3578,38,56,901
994923,1396944,1432552,1401765,1434533,2634,1726,56,5945,-1924,-2664,-915,3488,36,43,903
995924,1397164,1432792,1401962,1434730,2475,1733,-423,5325,-2147,-2575,-625,3181,36,43,903
996926,1397388,1433060,1402159,1434927,2439,1527,-700,4811,-2274,-2553,-423,3454,37,43,904
997926,1397588,1433340,1402356,1435124,2589,1415,-656,4441,-2316,-2630,-1057,6149,37,43,904
998927,1397808,1433604,1402553,1435321,2455,1487,114,4232,-2177,-3228,-2172,12496,46,44,905
999928,1398032,1433812,1402750,1435518,2419,1832,1096,3964,-1952,-2698,-2319,10923,46,44,905
1000930,1398232,1433988,1402947,1435715,2569,2041,1400,3083,-1829,-1552,-1430,3172,54,34,906
1001930,1398432,1434148,1403144,1435912,2567,2159,1121,1697,-1762,-1268,-1398,1393,54,34,906
1002931,1398636,1434360,1403341,1436109,2540,1827,710,329,-1684,-1246,-1499,1357,44,44,904
1003932,1398844,1434552,1403538,1436306,2511,1954,435,-938,-1567,-1339,-1544,1518,44,44,904
1004933,1399080,1434756,1403735,1436503,2320,1877,289,-2008,-1455,-1428,-1115,2216,56,38,900
1005934,1399316,1434956,1403932,1436700,2304,1901,240,-2934,-1427,-1449,-331,3101,56,38,900
1006942,1399516,1435128,1404162,1436930,2543,2101,341,-3556,-1486,-1209,-253,5400,57,28,902
1007936,1399744,1435332,1404359,1437127,2356,1899,567,-3857,-1564,-970,-608,6790,57,28,902
1008938,1399956,1435496,1404556,1437324,2450,2164,683,-3934,-1599,-928,-801,6106,47,42,905
1009938,1400120,1435644,1404753,1437521,2765,2286,618,-3961,-1592,-1031,-642,5644,47,42,905
1010939,1400348,1435788,1404950,1437718,2352,2335,465,-3993,-1619,-1086,-256,5522,44,36,903
1011940,1400552,1435944,1405147,1437915,2500,2278,304,-3992,-1698,-1006,76,5515,44,36,903
1012942,1400748,1436080,1405344,1438112,2551,2430,152,-3926,-1762,-713,185,5546,52,34,899
1013943,1401004,1436224,1405541,1438309,2151,2404,17,-3846,-1805,-547,295,5420,52,34,899
1014943,1401204,1436320,1405738,1438506,2501,2748,-96,-3796,-1833,-433,532,5277,50,21,900
1015944,1401416,1436420,1405935,1438703,2420,2767,-178,-3752,-1864,-292,421,5375,50,21,900
1016945,1401652,1436532,1406132,1438900,2254,2729,-199,-3716,-1892,15,412,5445,53,14,900
1017946,1401848,1436624,1406329,1439097,2506,2901,-123,-3716,-1917,286,453,5653,53,14,900
1018947,1402076,1436704,1406526,1439294,2292,3028,39,-3749,-1930,553,369,6174,38,27,897
1019948,1402332,1436828,1406723,1439491,2092,2786,172,-3886,-1917,630,421,4975,38,27,897
1020949,1402580,1436896,1406920,1439688,2121,3192,199,-4178,-1883,660,434,3792,53,11,896
1021950,1402812,1436984,1407117,1439885,2206,3116,162,-4505,-1850,583,337,3553,53,11,896
1022951,1403076,1437072,1407314,1440082,1978,3164,109,-4790,-1854,437,214,3749,38,25,899
1023952,1403308,1437192,1407511,1440279,2163,2999,48,-4848,-1903,391,216,4183,38,25,899
1024953,1403532,1437332,1407708,1440476,2202,2899,-14,-4761,-1977,365,220,4461,38,24,896
1025954,1403824,1437464,1407905,1440673,1736,2979,-68,-4595,-2073,244,75,4523,38,24,896
1026955,1404056,1437608,1408102,1440870,2097,2928,-117,-4496,-2145,197,-253,4394,41,20,896
1027956,1404320,1437732,1408299,1441067,1868,3085,-148,-4427,-2185,204,-456,4283,41,20,896
1028957,1404564,1437852,1408496,1441264,1972,3145,-159,-4341,-2197,213,-750,4140,58,34,899
1029958,1404828,1437992,1408693,1441461,1819,3046,-140,-4277,-2197,161,-892,3990,58,34,899
1030959,1405104,1438120,1408890,1441658,1710,3151,-98,-4187,-2197,142,-889,3946,44,34,899
1031960,1405376,1438232,1409087,1441855,1703,3290,-14,-4101,-2187,270,-721,3797,44,34,899
1032961,1405664,1438348,1409284,1442052,1563,3301,100,-4022,-2160,431,-459,3723,62,35,899
1033962,1405940,1438496,1409481,1442249,1605,3123,259,-3968,-2132,549,-330,3584,62,35,899
1034963,1406224,1438656,1409678,1442446,1517,3065,438,-3971,-2099,633,-406,3437,58,32,898
1035964,1406512,1438804,1409875,1442643,1452,3163,641,-3903,-2067,721,-435,3534,58,32,898
1036965,1406804,1438968,1410072,1442840,1387,3077,827,-3791,-2059,662,-518,3760,66,30,900
1037966,1407072,1439108,1410269,1443037,1506,3253,993,-3514,-2060,564,-807,4144,66,30,900
1038967,1407368,1439256,1410466,1443234,1288,3226,1122,-3093,-2049,497,-847,4415,70,23,898
1039968,1407664,1439404,1410663,1443431,1245,3248,1236,-2632,-2054,474,-601,4579,70,23,898
1040969,1407936,1439568,1410860,1443628,1362,3163,1333,-2118,-2092,522,-508,4600,67,28,899
1041970,1408256,1439720,1411057,1443825,1009,3258,1429,-1668,-2131,562,-533,4218,67,28,899
1042971,1408548,1439896,1411254,1444022,1143,3119,1530,-1327,-2154,611,-561,3796,50,42,901
1043972,1408820,1440064,1411451,1444219,1236,3182,1640,-1165,-2172,655,-581,3359,50,42,901
1044973,1409100,1440232,1411648,1444416,1149,3196,1735,-1048,-2189,708,-696,3084,62,26,901
1045975,1409360,1440412,1411845,1444613,1248,3129,1817,-991,-2177,733,-947,2908,62,26,901
1046976,1409616,1440572,1412042,1444810,1247,3271,1868,-979,-2123,686,-1110,2733,64,26,901
1047976,1409912,1440740,1412239,1445007,954,3235,1894,-1001,-2052,613,-1175,2610,64,26,901
1048977,1410168,1440920,1412436,1445204,1178,3168,1885,-978,-1982,547,-1230,2534,51,35,898
1049979,1410412,1441072,1412633,1445401,1234,3364,1843,-976,-1917,428,-1210,2390,51,35,898
1050979,1410680,1441300,1412830,1445598,1052,2875,1778,-1041,-1871,276,-1091,2150,50,48,900
1051980,1410940,1441516,1413027,1445795,1076,2943,1709,-1167,-1860,172,-689,2006,50,48,900
1052981,1411144,1441724,1413224,1445992,1423,2989,1591,-1290,-1917,95,-74,1954,46,38,900
1053983,1411400,1441940,1413421,1446189,1072,2932,1423,-1408,-2013,-34,112,1926,46,38,900
1054983,1411672,1442152,1413618,1446386,940,2951,1238,-1575,-2103,-195,244,1814,58,43,904
1055984,1411892,1442380,1413815,1446583,1255,2838,1076,-1742,-2154,-284,131,1607,58,43,904
1056986,1412164,1442644,1414012,1446780,897,2584,914,-1906,-2144,-408,-121,1608,60,43,904
1057987,1412416,1442896,1414209,1446977,998,2636,755,-2061,-2089,-565,-189,1555,60,43,904
1058988,1412676,1443108,1414406,1447174,921,2880,582,-2264,-2025,-592,-97,1613,42,42,904
1059988,1412940,1443340,1414603,1447371,867,2741,406,-2387,-1946,-595,-49,1724,42,42,904
1060989,1413192,1443588,1414800,1447568,918,2619,246,-2518,-1840,-662,16,1562,49,57,906
1061990,1413460,1443856,1414997,1447765,787,2463,115,-2747,-1714,-696,31,1392,49,57,906
1062991,1413744,1444124,1415194,1447962,649,2433,11,-3025,-1559,-673,90,1333,51,47,907
1063992,1413984,1444368,1415391,1448159,906,2563,-69,-3256,-1373,-651,83,1389,51,47,907
1064993,1414244,1444624,1415588,1448356,753,2463,-211,-3694,-936,-604,38,1451,44,46,909
1065994,1414500,1444848,1415785,1448553,752,2652,-290,-3920,-689,-544,225,1603,44,46,909
1066995,1414716,1445152,1415982,1448750,994,2106,-376,-4051,-449,-529,437,1708,55,43,909
1067996,1414980,1445424,1416179,1448947,665,2273,-450,-4195,-226,-626,605,1724,55,43,909
1068997,1415220,1445652,1416376,1449144,797,2535,-507,-4297,-10,-600,736,1860,52,49,908
1069998,1415464,1445880,1416573,1449341,751,2522,-564,-4476,200,-414,853,1818,52,49,908
1070999,1415656,1446104,1416770,1449538,1078,2536,-618,-4566,445,-218,842,2136,42,52,910
1072000,1415856,1446336,1416967,1449735,1028,2471,-675,-4580,716,-157,884,2265,42,52,910
1073001,1416056,1446596,1417164,1449932,1026,2270,-737,-4612,972,17,1020,2275,30,54,907
1074002,1416252,1446828,1417361,1450129,1052,2429,-808,-4585,1215,243,1204,2593,30,54,907
1075003,1416436,1447040,1417558,1450326,1133,2549,-880,-4506,1435,442,1355,2612,44,38,908
1076004,1416660,1447268,1417755,1450523,871,2436,-970,-4451,1610,623,1332,2725,44,38,908
1077005,1416836,1447500,1417952,1450720,1181,2396,-1066,-4389,1770,796,1190,2875,43,53,907
1078006,1417016,1447740,1418149,1450917,1163,2328,-1171,-4308,1912,1032,1071,2920,43,53,907
1079008,1417200,1447948,1418346,1451114,1144,2523,-1291,-4166,2025,1225,835,3034,40,34,909
1080008,1417396,1448132,1418543,1451311,1070,2680,-1408,-4119,2119,1276,602,2918,40,34,909
1081010,1417540,1448320,1418740,1451508,1418,2659,-1543,-4071,2198,1502,235,3093,42,42,908
1082010,1417736,1448476,1418937,1451705,1094,2877,-1693,-3994,2258,1809,21,2951,42,42,908
1083011,1417880,1448644,1419134,1451902,1443,2816,-1859,-3964,2289,1943,-139,2980,43,28,905
1084012,1418032,1448820,1419331,1452099,1412,2775,-2041,-3922,2298,2067,-460,3102,43,28,905
1085013,1418216,1448992,1419528,1452296,1218,2812,-2226,-3911,2279,2141,-861,3045,23,41,904
1086014,1418380,1449124,1419725,1452493,1359,3092,-2412,-3849,2244,2154,-1052,3112,23,41,904
1087015,1418544,1449268,1419922,1452690,1373,3040,-2589,-3824,2186,2175,-1326,3106,44,33,903
1088016,1418716,1449452,1420119,1452887,1334,2797,-2760,-3759,2136,2042,-1745,3415,44,33,903
1089018,1418864,1449636,1420316,1453084,1506,2804,-2909,-3627,2082,1907,-1633,3639,39,40,901
1090025,1419024,1449788,1420546,1453314,1462,3038,-2997,-3552,1963,1970,-1241,3377,39,40,901
1091019,1419204,1449932,1420743,1453511,1345,3112,-3074,-3474,1800,2127,-1061,3711,21,39,904
1092020,1419364,1450088,1420940,1453708,1486,3056,-3113,-3438,1617,2089,-906,3512,21,39,904
1093021,1419528,1450244,1421137,1453905,1477,3074,-3155,-3420,1424,2062,-963,3802,25,39,898
1094022,1419720,1450424,1421334,1454102,1304,2933,-3182,-3250,1206,1796,-760,4187,25,39,898
1095023,1419876,1450584,1421531,1454299,1547,3075,-2275,-1765,1039,2037,-957,16732,40,26,899
1096024,1420052,1450728,1421728,1454496,1432,3198,463,3712,1053,1868,-1908,32767,40,26,899
1097026,1420240,1450864,1421925,1454693,1361,3276,2346,6522,1015,1551,-729,9187,38,21,902
1098026,1420388,1451036,1422122,1454890,1633,3063,2627,5966,866,1694,5,1478,38,21,902
1099027,1420560,1451176,1422319,1455087,1494,3289,2179,3882,668,1873,-126,175,32,27,900
1100028,1420760,1451300,1422516,1455284,1318,3421,1841,2470,522,1627,-606,971,32,27,900
1101029,1420936,1451428,1422713,1455481,1477,3428,1665,1611,500,1097,-790,1320,40,21,900
1102030,1421128,1451568,1422910,1455678,1381,3379,1525,1019,489,1154,-910,1633,40,21,900
1103031,1421320,1451692,1423107,1455875,1383,3512,1277,543,455,721,-720,2145,38,17,898
1104032,1421508,1451808,1423304,1456072,1412,3598,1014,-116,389,126,-432,1729,38,17,898
1105033,1421668,1451920,1423501,1456269,1604,3661,750,-780,255,-31,-385,1985,48,23,896
1106034,1421848,1452040,1423698,1456466,1486,3646,507,-1408,136,-583,-47,2154,48,23,896
1107035,1422060,1452152,1423895,1456663,1280,3734,259,-1753,42,-988,73,2946,32,27,895
1108049,1422244,1452256,1424092,1456860,1462,3800,-44,-1924,-27,-1268,-180,3474,32,27,895
1109050,1422416,1452356,1424289,1457057,1548,3800,-348,-1930,-12,-1741,-217,4370,44,12,895
1110038,1422592,1452480,1424486,1457254,1532,3777,-642,-1638,62,-1930,-223,5137,44,12,895
1111039,1422764,1452612,1424683,1457451,1569,3757,-872,-1389,163,-2008,-21,4778,46,17,894
1112040,1422904,1452744,1424880,1457648,1794,3786,-1028,-1204,315,-1987,169,5141,46,17,894
1113054,1423096,1452876,1425077,1457845,1471,3800,-1133,-990,514,-1800,424,5268,42,33,893
1114055,1423252,1452996,1425274,1458042,1715,3800,-1204,-824,722,-1801,657,5262,42,33,893
1115056,1423420,1453132,1425471,1458239,1653,3800,-1239,-624,928,-2091,722,5435,41,20,889
1116044,1423584,1453304,1425668,1458436,1693,3640,-1235,-503,1119,-2245,792,5327,41,20,889
1117058,1423736,1453432,1425865,1458633,1788,3800,-1219,-316,1311,-2155,747,5665,28,35,892
1118059,1423892,1453580,1426062,1458830,1781,3800,-1120,-57,1511,-1915,778,6457,28,35,892
1119060,1424072,1453712,1426259,1459027,1640,3800,-645,773,1657,-719,908,12411,37,16,895
1120061,1424196,1453824,1426456,1459224,2022,3800,6,1715,1747,-156,1113,11296,37,16,895
1121062,1424340,1453952,1426653,1459421,1921,3800,326,1696,1843,-490,1349,4569,32,30,892
1122063,1424492,1454064,1426850,1459618,1891,3800,336,1079,1948,-393,991,3671,32,30,892
1123064,1424652,1454184,1427047,1459815,1857,3800,264,247,2073,-239,442,3118,40,16,890
1124065,1424816,1454288,1427244,1460012,1847,3800,225,-462,2218,12,113,3185,40,16,890
1125066,1424988,1454404,1427441,1460209,1808,3800,211,-1092,2341,186,-329,3068,38,19,891
1126067,1425160,1454520,1427638,1460406,1820,3800,182,-1795,2420,299,-640,2849,38,19,891
1127068,1425304,1454628,1427835,1460603,2019,3800,127,-2463,2467,285,-845,3254,26,19,887
1128069,1425492,1454732,1428032,1460800,1749,3800,63,-3133,2519,333,-861,3197,26,19,887
1129070,1425656,1454848,1428229,1460997,1913,3800,-25,-3635,2523,420,-729,3814,47,23,891
1130071,1425840,1454936,1428426,1461194,1795,3800,-134,-3969,2503,379,-581,4184,47,23,891
1131072,1426012,1455040,1428623,1461391,1881,3800,-253,-4225,2453,422,-691,4659,42,13,891
1132073,1426160,1455180,1428820,1461588,2053,3800,-387,-4328,2408,484,-750,5064,42,13,891
1133074,1426304,1455284,1429017,1461785,2102,3800,-497,-4419,2376,515,-726,5171,43,31,892
1134075,1426460,1455420,1429214,1461982,2046,3800,-586,-4464,2341,572,-720,5395,43,31,892
1135076,1426604,1455588,1429411,1462179,2144,3800,-626,-4539,2273,642,-573,5383,39,36,890
1136077,1426752,1455728,1429608,1462376,2142,3800,-601,-4545,2170,843,-481,5710,39,36,890
1137078,1426916,1455920,1429805,1462573,2056,3800,-507,-4474,2051,1005,-432,6243,42,37,890
1138079,1427068,1456092,1430002,1462770,2152,3800,-395,-4399,1956,871,-559,6056,42,37,890
1139080,1427220,1456248,1430199,1462967,2173,3800,-312,-4413,1907,715,-676,5510,25,40,888
1140081,1427368,1456448,1430396,1463164,2219,3800,-256,-4507,1889,731,-758,5070,25,40,888
1141082,1427532,1456648,1430593,1463361,2135,3800,-205,-4626,1902,718,-873,4946,48,32,890
1142083,1427692,1456860,1430790,1463558,2176,3800,-130,-4745,1940,597,-1010,4829,48,32,890
1143084,1427840,1457072,1430987,1463755,2273,3800,-28,-4877,1975,440,-1071,4834,41,45,890
1144072,1427988,1457348,1431184,1463952,2295,3670,97,-4971,2006,482,-1014,4855,41,45,890
1145074,1428124,1457644,1431381,1464149,2398,3502,252,-5085,2037,658,-814,4732,26,60,891
1146075,1428280,1457936,1431578,1464346,2292,3486,415,-5181,2080,836,-729,4918,26,60,891
1147075,1428460,1458236,1431775,1464543,2149,3393,598,-5203,2115,1002,-336,4931,27,65,892
1148077,1428636,1458632,1431972,1464740,2185,2707,801,-5184,2130,875,-455,5026,27,65,892
1149077,1428804,1459004,1432169,1464937,2248,2781,993,-5031,2178,316,-1408,5556,50,62,893
1150078,1428976,1459352,1432366,1465134,2234,2865,1186,-4790,2260,33,-1642,5483,50,62,893
1151079,1429124,1459712,1432563,1465331,2407,2720,1394,-4617,2326,246,-1386,5208,40,66,900
1152080,1429256,1460124,1432760,1465528,2535,2301,1610,-4450,2372,696,-1349,5207,40,66,900
1153081,1429432,1460536,1432957,1465725,2271,2208,1819,-4228,2430,1048,-1211,5080,34,74,899
1154082,1429588,1460876,1433154,1465922,2415,2596,2014,-3996,2504,1007,-1401,4997,34,74,899
1155083,1429784,1461216,1433351,1466119,2166,2534,2250,-3854,2530,963,-874,4718,44,69,901
1156084,1430004,1461620,1433548,1466316,2006,2044,2530,-3692,2506,998,-434,4658,44,69,901
1157085,1430192,1462024,1433745,1466513,2211,1954,2800,-3365,2474,726,-662,5021,53,84,900
1158086,1430388,1462348,1433942,1466710,2162,2399,3044,-2926,2478,424,-771,5282,53,84,900
1159087,1430588,1462780,1434139,1466907,2136,1622,3259,-2391,2508,485,-549,5233,36,64,904
1160088,1430772,1463188,1434336,1467104,2243,1679,3468,-1878,2485,715,57,4924,36,64,904
1161089,1430992,1463560,1434533,1467301,2009,1828,3707,-1486,2407,960,596,4289,38,82,901
1162090,1431208,1463912,1434730,1467498,2025,1886,3937,-1162,2335,1209,431,4082,38,82,901
1163091,1431432,1464340,1434927,1467695,1964,1311,4114,-732,2363,1200,111,4381,58,76,906
1164092,1431668,1464792,1435124,1467892,1873,1049,4216,-154,2433,868,-303,4575,58,76,906
1165093,1431876,1465124,1435321,1468089,2043,1740,4314,303,2479,680,-326,3649,57,79,907
1166094,1432096,1465544,1435518,1468286,1959,1092,4434,565,2518,950,-281,3123,57,79,907
1167095,1432320,1465924,1435715,1468483,1923,1263,4533,782,2541,1541,-194,2816,46,72,911
1168096,1432556,1466296,1435912,1468680,1831,1236,4602,957,2552,1881,-159,2365,46,72,911
1169097,1432788,1466684,1436109,1468877,1842,1053,4647,1210,2562,1741,-494,2397,60,72,911
1170098,1433024,1467096,1436306,1469074,1800,809,4681,1434,2591,1446,-819,2123,60,72,911
1171099,1433256,1467488,1436503,1469271,1810,849,4705,1600,2607,1312,-791,2006,60,75,910
1172100,1433472,1467864,1436700,1469468,1903,870,4708,1814,2582,1458,-641,1824,60,75,910
1173108,1433660,1468192,1436930,1469698,2097,1127,4707,1907,2509,1907,-353,1209,53,76,913
1174102,1433932,1468568,1437127,1469895,1540,750,4707,1897,2426,2381,-150,846,53,76,913
1175103,1434188,1468960,1437324,1470092,1615,564,4692,1892,2321,2362,-291,698,46,60,913
1176104,1434416,1469276,1437521,1470289,1776,987,4645,1992,2220,2029,-598,950,46,60,913
1177106,1434624,1469528,1437718,1470486,1897,1362,4574,2181,2142,1500,-696,1075,48,68,915
1178107,1434864,1469884,1437915,1470683,1678,643,4457,2386,2029,1350,-578,1208,48,68,915
1179108,1435076,1470184,1438112,1470880,1848,948,4306,2742,1849,1604,-433,1356,39,62,912
1180109,1435336,1470488,1438309,1471077,1520,876,4128,3183,1646,1722,-442,1336,39,62,912
1181110,1435608,1470752,1438506,1471274,1413,1097,3944,3748,1455,1471,-749,1635,59,63,913
1182111,1435868,1470984,1438703,1471471,1461,1282,3769,4298,1329,1039,-1082,1555,59,63,913
1183112,1436104,1471320,1438900,1471668,1594,570,3612,4856,1210,703,-1110,1491,60,63,913
1184113,1436344,1471620,1439097,1471865,1551,750,3446,5297,1036,716,-752,906,60,63,913
1185114,1436584,1471900,1439294,1472062,1532,839,3234,5543,802,973,-359,523,54,47,913
1186115,1436856,1472164,1439491,1472259,1300,909,2969,5846,602,1500,-459,579,54,47,913
1187116,1437164,1472424,1439688,1472456,1027,907,2690,6104,460,1743,-569,245,45,64,915
1188117,1437404,1472724,1439885,1472653,1434,611,2426,6271,355,1781,-679,-18,45,64,915
1189118,1437648,1473004,1440082,1472850,1388,700,2181,6164,252,1815,-459,-665,51,46,916
1190119,1437896,1473272,1440279,1473047,1342,744,1900,5916,81,1884,122,-862,51,46,916
1191120,1438172,1473516,1440476,1473244,1132,873,1527,5667,-207,1938,820,-921,53,51,916
1192121,1438412,1473828,1440673,1473441,1339,397,1123,5343,-621,1905,1240,-1387,53,51,916
1193122,1438692,1474144,1440870,1473638,1053,320,709,4892,-1077,1850,1441,-1395,57,49,915
1194123,1438920,1474436,1441067,1473835,1364,428,322,4397,-1521,1680,1602,-1646,57,49,915
1195124,1439152,1474652,1441264,1474032,1325,895,-78,3881,-1965,1524,1898,-1755,56,51,917
1196125,1439428,1474876,1441461,1474229,1015,833,-520,3399,-2407,1193,2168,-1537,56,51,917
1197126,1439660,1475088,1441658,1474426,1276,901,-1031,3074,-2827,954,2281,-882,60,49,917
1198127,1439876,1475368,1441855,1474623,1367,439,-1588,2987,-3193,841,2344,-179,60,49,917
1199128,1440116,1475600,1442052,1474820,1198,724,-2123,3060,-3547,534,2630,203,43,42,918
1200129,1440316,1475868,1442249,1475017,1448,468,-2650,3100,-3956,206,3039,47,43,42,918
1201130,1440528,1476092,1442446,1475214,1366,731,-3175,2963,-4417,-145,3180,-182,36,51,917
1202131,1440736,1476288,1442643,1475411,1387,906,-3678,2736,-4874,-528,3176,-194,36,51,917
1203132,1440940,1476472,1442840,1475608,1409,987,-4137,2375,-5315,-737,3206,-642,53,48,915
1204133,1441104,1476688,1443037,1475805,1674,777,-4561,1899,-5631,-699,2531,-526,53,48,915
1205134,1441260,1476848,1443234,1476002,1743,1144,-4966,1585,-5712,-533,1418,146,26,37,914
1206135,1441404,1477028,1443431,1476199,1841,1026,-5356,1306,-5605,-493,981,182,26,37,914
1207136,1441576,1477212,1443628,1476396,1677,1007,-5715,886,-5418,-494,967,-99,23,36,914
1208137,1441736,1477348,1443825,1476593,1770,1334,-6085,346,-5140,-387,716,30,23,36,914
1209138,1441972,1477496,1444022,1476790,1277,1280,-6421,-219,-4762,-285,356,164,32,35,912
1210139,1442160,1477628,1444219,1476987,1581,1408,-6732,-694,-4329,-483,193,582,32,35,912
1211140,1442344,1477752,1444416,1477184,1613,1490,-7068,-1114,-3876,-715,-38,982,45,27,911
1212141,1442540,1477856,1444613,1477381,1538,1656,-7405,-1544,-3424,-841,-51,1222,45,27,911
1213142,1442700,1477996,1444810,1477578,1781,1456,-7710,-1917,-2967,-954,-65,1535,46,17,912
1214143,1442904,1478124,1445007,1477775,1503,1561,-7992,-2347,-2517,-1008,-206,1749,46,17,912
1215144,1443056,1478252,1445204,1477972,1847,1591,-8279,-2684,-2094,-981,-382,2570,41,34,909
1216145,1443208,1478380,1445401,1478169,1868,1622,-8604,-2899,-1697,-1010,-518,3123,41,34,909
1217146,1443364,1478536,1445598,1478366,1861,1465,-9051,-2866,-1236,-874,-1519,3999,20,16,911
1218147,1443532,1478680,1445795,1478563,1800,1563,-9659,-2690,-649,-665,-2594,4640,20,16,911
1219148,1443660,1478800,1445992,1478760,2080,1747,-9992,-3022,-158,-313,-1655,2751,38,18,909
1220149,1443800,1478916,1446189,1478957,2031,1808,-10144,-3666,184,352,-1847,3148,38,18,909
1221150,1444000,1479028,1446386,1479154,1655,1870,-10343,-4104,496,716,-3133,4227,24,14,909
1222151,1444220,1479120,1446583,1479351,1520,2041,-10028,-3591,820,1835,-3903,9054,24,14,909
1223152,1444408,1479276,1446780,1479548,1725,1659,-4527,7299,918,11203,-7664,32767,32,16,907
1224153,1444596,1479416,1446977,1479745,1729,1784,2739,19419,981,8223,-7316,32767,32,16,907
1225154,1444800,1479520,1447174,1479942,1627,2050,5211,20901,1168,3431,-1442,-1529,27,32,906
1226155,1444988,1479652,1447371,1480139,1731,1904,4432,16045,1331,3554,-1061,-3700,27,32,906
1227156,1445208,1479736,1447568,1480336,1522,2253,3091,10796,1394,4070,-2352,-4481,42,13,907
1228157,1445432,1479864,1447765,1480533,1485,2008,2368,7745,1507,3822,-2414,-2802,42,13,907
1229158,1445652,1480000,1447962,1480730,1501,1985,1805,5499,1598,3623,-1683,-2892,29,21,907
1230159,1445876,1480128,1448159,1480927,1464,2067,1047,3643,1358,3706,-1184,-1686,29,21,907
1231160,1446080,1480240,1448356,1481124,1586,2204,258,1445,984,2332,-1310,-2062,51,16,908
1232161,1446304,1480388,1448553,1481321,1450,2001,-484,-577,573,1630,-1789,-770,51,16,908
1233162,1446544,1480512,1448750,1481518,1331,2183,-1108,-2330,153,1017,-2525,-223,33,23,908
1234163,1446736,1480624,1448947,1481715,1634,2295,-1585,-3790,-148,266,-2523,564,33,23,908
1235164,1446940,1480792,1449144,1481912,1556,1958,-1924,-4920,-480,76,-2216,954,43,33,908
1236165,1447176,1480928,1449341,1482109,1340,2185,-2204,-6109,-952,-468,-1717,1070,43,33,908
1237166,1447368,1481076,1449538,1482306,1617,2132,-2409,-6833,-1457,-1287,-1823,2932,46,19,905
1238166,1447572,1481200,1449735,1482503,1539,2314,-2563,-7204,-1923,-1496,-2655,3404,46,19,905
1239168,1447760,1481332,1449932,1482700,1644,2293,-2687,-7201,-2310,-1979,-3376,4725,42,33,908
1240168,1447972,1481452,1450129,1482897,1487,2403,-2847,-6760,-2535,-2364,-3849,5975,42,33,908
1241170,1448180,1481580,1450326,1483094,1509,2383,-3035,-6151,-2589,-1876,-3637,6429,50,32,905
1242171,1448404,1481704,1450523,1483291,1397,2440,-3224,-5286,-2501,-2005,-3211,7284,50,32,905
1243172,1448648,1481832,1450720,1483488,1251,2445,-3301,-4403,-2373,-2524,-2435,7170,53,24,906
1244173,1448876,1481948,1450917,1483685,1338,2557,-3272,-3558,-2244,-2713,-2340,7340,53,24,906
1245174,1449120,1482096,1451114,1483882,1218,2378,-2518,-1648,-1895,-3561,-3252,17274,34,35,906
1246175,1449408,1482224,1451311,1484079,904,2534,-837,2037,-1195,-4473,-4631,28648,34,35,906
1247176,1449620,1482376,1451508,1484276,1372,2404,332,3922,-636,-3187,-3025,8271,52,34,903
1248177,1449840,1482496,1451705,1484473,1312,2638,635,3725,-271,-2676,-2198,4059,52,34,903
1249178,1450060,1482612,1451902,1484670,1303,2700,639,2689,55,-1861,-2166,2729,50,17,906
1250179,1450280,1482772,1452099,1484867,1293,2441,803,1651,451,-1309,-2137,1720,50,17,906
1251180,1450468,1482900,1452296,1485064,1497,2671,1125,615,947,-1194,-1960,1128,46,24,905
1252181,1450692,1483032,1452493,1485261,1261,2676,1462,-383,1451,-725,-1972,1059,46,24,905
1253182,1450884,1483168,1452690,1485458,1463,2678,1732,-1358,1922,-401,-1706,1015,39,34,906
1254183,1451056,1483320,1452887,1485655,1599,2599,1973,-2311,2314,-220,-1383,1068,39,34,906
1255184,1451236,1483480,1453084,1485852,1558,2565,2191,-3210,2575,-1,-1333,1158,24,28,904
1256194,1451396,1483648,1453314,1486082,1713,2542,2408,-3947,2766,-207,-1519,1730,24,28,904
1257186,1451540,1483840,1453511,1486279,1837,2395,2580,-4415,2920,-443,-1764,2432,27,34,904
1258187,1451712,1484016,1453708,1486476,1674,2505,2684,-4728,3041,-570,-2165,2791,27,34,904
1259188,1451856,1484224,1453905,1486673,1872,2301,2718,-4760,3144,-618,-2156,3676,22,30,902
1260189,1452040,1484448,1454102,1486870,1629,2189,2704,-4584,3226,-563,-1775,4059,22,30,902
1261190,1452208,1484752,1454299,1487067,1741,1643,2657,-4278,3268,-392,-1253,4380,29,50,903
1262191,1452388,1485040,1454496,1487264,1674,1703,2601,-3932,3278,-180,-550,4507,29,50,903
1263192,1452540,1485316,1454693,1487461,1870,1744,2532,-3668,3254,279,60,4125,24,56,907
1264193,1452740,1485608,1454890,1487658,1568,1602,2450,-3507,3203,686,438,3790,24,56,907
1265194,1452908,1485872,1455087,1487855,1782,1748,2389,-3430,3138,839,707,3507,34,45,910
1266195,1453092,1486132,1455284,1488052,1688,1746,2353,-3486,3042,1031,823,3023,34,45,910
1267196,1453284,1486384,1455481,1488249,1640,1772,2312,-3519,2925,1145,1009,2983,25,49,910
1268197,1453484,1486616,1455678,1488446,1590,1883,2248,-3531,2789,1256,1243,2955,25,49,910
1269198,1453652,1486876,1455875,1488643,1802,1680,2153,-3579,2620,1451,1441,2716,41,54,908
1270199,1453828,1487104,1456072,1488840,1763,1866,2044,-3698,2422,1515,1615,2552,41,54,908
1271200,1454004,1487344,1456269,1489037,1772,1773,1951,-3827,2223,1609,1634,2345,43,54,908
1272201,1454176,1487564,1456466,1489234,1809,1888,1862,-4007,2004,1712,1718,2061,43,54,908
1273202,1454348,1487796,1456663,1489431,1820,1798,1779,-4214,1751,1762,1931,1924,29,40,908
1274203,1454536,1488004,1456860,1489628,1724,1944,1699,-4411,1463,1708,1767,1896,29,40,908
1275204,1454692,1488228,1457057,1489825,1943,1832,1624,-4531,1161,1645,1294,2001,26,48,907
1276205,1454864,1488436,1457254,1490022,1854,1927,1575,-4585,892,1652,923,2234,26,48,907
1277206,1455060,1488636,1457451,1490219,1705,1976,1540,-4594,667,1725,681,2269,40,36,908
1278207,1455232,1488840,1457648,1490416,1866,1949,1508,-4595,453,1748,856,2194,40,36,908
1279208,1455384,1489032,1457845,1490613,2012,2026,1470,-4552,276,1834,780,2280,23,32,907
1280209,1455556,1489212,1458042,1490810,1898,2109,1410,-4444,184,1915,691,2399,23,32,907
1281210,1455708,1489392,1458239,1491007,2044,2117,1330,-4240,185,1942,882,2641,26,34,906
1282211,1455852,1489616,1458436,1491204,2117,1830,1229,-3920,272,1995,902,2973,26,34,906
1283212,1456004,1489824,1458633,1491401,2088,1926,1123,-3520,402,1931,862,3131,25,40,905
1284213,1456152,1490004,1458830,1491598,2134,2109,1037,-3073,552,1767,873,3137,25,40,905
1285214,1456300,1490180,1459027,1491795,2157,2143,935,-2563,726,1699,912,3404,21,35,906
1286215,1456460,1490412,1459224,1491992,2098,1778,788,-1965,928,1720,1011,3626,21,35,906
1287216,1456616,1490632,1459421,1492189,2142,1843,631,-1331,1112,1655,1274,3708,39,38,904
1288216,1456740,1490872,1459618,1492386,2374,1700,487,-634,1229,1495,1558,3937,39,38,904
1289218,1456876,1491060,1459815,1492583,2327,2029,350,82,1265,1343,1727,3979,34,42,905
1290219,1457000,1491256,1460012,1492780,2434,1979,175,770,1236,1230,1899,4022,34,42,905
1291220,1457112,1491420,1460209,1492977,2547,2195,-50,1417,1126,1022,2032,3788,18,30,903
1292221,1457252,1491648,1460406,1493174,2398,1781,-258,1985,952,817,1892,3422,18,30,903
1293222,1457372,1491892,1460603,1493371,2557,1660,-454,2377,718,621,1799,3111,38,37,901
1294223,1457484,1492120,1460800,1493568,2646,1747,-709,2701,473,661,1075,3124,38,37,901
1295224,1457620,1492372,1460997,1493765,2523,1574,-1011,2982,277,715,293,2892,32,55,903
1296225,1457740,1492664,1461194,1493962,2657,1282,-1302,3126,142,843,-200,2371,32,55,903
1297226,1457864,1492872,1461391,1494159,2665,1802,-1548,3087,75,994,-375,2048,38,41,902
1298227,1458048,1493020,1461588,1494356,2296,2200,-1774,2975,16,1112,-116,1795,38,41,902
1299228,1458224,1493092,1461785,1494553,2356,2730,-2014,2873,-97,1202,230,1893,31,22,905
1300229,1458368,1493172,1461982,1494750,2581,2731,-2276,2748,-269,1229,887,2012,31,22,905
1301230,1458524,1493252,1462179,1494947,2524,2782,-2608,2783,-467,1364,1020,2530,47,9,902
1302231,1458676,1493328,1462376,1495144,2569,2862,-2953,2811,-684,1315,1233,2395,47,9,902
1303232,1458820,1493424,1462573,1495341,2644,2781,-3267,2760,-915,1205,1361,2247,42,8,895
1304233,1458964,1493544,1462770,1495538,2667,2665,-3573,2705,-1117,1137,1207,2372,42,8,895
1305234,1459120,1493684,1462967,1495735,2611,2566,-3877,2695,-1227,1059,679,2827,42,17,895
1306235,1459244,1493832,1463164,1495932,2844,2537,-4158,2811,-1261,976,106,3172,42,17,895
1307235,1459392,1494044,1463361,1496129,2717,2132,-4380,2845,-1277,728,0,2989,41,33,895
1308237,1459532,1494284,1463558,1496326,2792,1938,-4554,2857,-1336,594,-213,3202,41,33,895
1309238,1459700,1494512,1463755,1496523,2630,1999,-4006,3857,-1361,570,-1037,12231,43,48,895
1310239,1459836,1494720,1463952,1496720,2858,2120,-1489,8994,-1085,-269,-2895,32767,43,48,895
1311240,1459976,1494980,1464149,1496917,2859,1768,635,12372,-992,484,418,13709,35,45,899
1312241,1460120,1495208,1464346,1497114,2859,1954,949,11941,-1230,892,1552,365,35,45,899
1313242,1460260,1495452,1464543,1497311,2909,1834,438,9710,-1535,1172,918,-585,21,59,897
1314243,1460452,1495704,1464740,1497508,2587,1760,7,7916,-1715,1288,217,125,21,59,897
1315244,1460612,1495964,1464937,1497705,2804,1684,-169,6873,-1701,883,-230,570,46,57,899
1316245,1460788,1496204,1465134,1497902,2714,1790,-294,6166,-1634,743,-378,926,46,57,899
1317246,1460984,1496464,1465331,1498099,2591,1637,-487,5503,-1687,132,-51,1157,35,56,902
1318247,1461152,1496672,1465528,1498296,2779,1957,-734,4685,-1888,-725,115,1315,35,56,902
1319248,1461324,1496880,1465725,1498493,2766,1953,-1016,4035,-2211,-1079,-240,1929,48,57,901
1320249,1461508,1497152,1465922,1498690,2697,1520,-1323,3481,-2511,-1622,-679,2358,48,57,901
1321250,1461704,1497408,1466119,1498887,2624,1594,-1659,3237,-2706,-2099,-1139,3463,42,58,901
1322251,1461872,1497664,1466316,1499084,2812,1570,-1974,3167,-2828,-2417,-1264,3843,42,58,901
1323252,1462068,1497904,1466513,1499281,2639,1651,-1717,3832,-2736,-3444,-2527,11131,50,53,903
1324253,1462272,1498124,1466710,1499478,2586,1766,-205,6693,-2175,-5165,-5341,29254,50,53,903
1325254,1462468,1498376,1466907,1499675,2637,1541,1349,8779,-1645,-4124,-3388,15148,55,54,901
1326255,1462680,1498640,1467104,1499872,2532,1438,1783,8732,-1463,-3026,-1277,4183,55,54,901
1327256,1462884,1498852,1467301,1500069,2580,1756,1462,7445,-1516,-2645,-718,2025,39,52,903
1328257,1463064,1499088,1467498,1500266,2738,1589,1053,6052,-1626,-2401,10,1389,39,52,903
1329258,1463288,1499280,1467695,1500463,2452,1866,801,4787,-1637,-2255,151,896,53,51,905
1330259,1463476,1499452,1467892,1500660,2682,2003,639,3613,-1550,-1864,-255,792,53,51,905
1331260,1463680,1499588,1468089,1500857,2579,2255,427,2324,-1403,-1909,-705,878,46,29,903
1332261,1463892,1499720,1468286,1501054,2523,2309,195,1037,-1252,-1991,-872,1452,46,29,903
1333262,1464076,1499872,1468483,1501251,2705,2204,486,-299,-1168,-1584,-1523,6350,46,39,901
1334263,1464276,1500056,1468680,1501448,2605,2010,1510,-1256,-1214,-675,-2176,13386,46,39,901
1335264,1464476,1500232,1468877,1501645,2605,2069,2035,-2116,-1275,-1710,-1540,5326,54,40,899
1336265,1464712,1500428,1469074,1501842,2363,1945,1741,-2884,-1304,-2312,-1080,2967,54,40,899
1337266,1464908,1500572,1469271,1502039,2614,2293,1158,-3499,-1332,-2494,-579,3206,41,41,900
1338267,1465108,1500748,1469468,1502236,2589,2103,651,-3999,-1393,-2399,-47,3589,41,41,900
1339275,1465324,1500892,1469698,1502466,2496,2341,281,-4241,-1449,-2188,115,4074,36,25,903
1340269,1465520,1501044,1469895,1502663,2622,2311,0,-4387,-1469,-1905,-25,4248,36,25,903
1341270,1465704,1501176,1470092,1502860,2704,2466,-249,-4352,-1486,-1676,285,5029,45,37,901
1342271,1465908,1501328,1470289,1503057,2577,2360,-481,-4243,-1496,-1298,475,5532,45,37,901
1343272,1466096,1501480,1470486,1503254,2681,2380,-554,-4020,-1499,-550,544,7099,43,34,899
1344273,1466296,1501616,1470683,1503451,2605,2508,-243,-3489,-1564,310,1000,10687,43,34,899
1345274,1466516,1501708,1470880,1503648,2471,2829,307,-2905,-1676,458,878,11079,50,31,899
1346275,1466712,1501828,1471077,1503845,2623,2688,597,-2670,-1737,116,578,6969,50,31,899
1347276,1466896,1501920,1471274,1504042,2704,2910,542,-2962,-1698,-74,510,4117,34,19,896
1348277,1467108,1502032,1471471,1504239,2524,2822,350,-3490,-1641,80,657,3353,34,19,896
1349278,1467312,1502116,1471668,1504436,2571,3047,200,-4071,-1625,155,747,2924,50,14,896
