"Data file recorded 2014/9/22  16:6:11"
"%  Right Stride Frequency         = 3.0"
"%  Left Stride Frequency         = 3.0"
"%  Phase (Fractional)         = 32768.0"
"%  Experiment.py "
"%  Motor Gains    = [1800, 200, 100, 0, 0, 1800, 200, 100, 0, 0]
"% Columns: "
"% time | Right Leg Pos | Left Leg Pos | Commanded Right Leg Pos | Commanded Left Leg Pos | DCR | DCL | GyroX | GryoY | GryoZ | AX | AY | AZ | RBEMF | LBEMF | VBatt "
11333,5856676,6288612,5876040,6302024,3800,3800,-28,185,-229,-332,-215,4075,-11,-10,830
12327,5856664,6288576,5876237,6302221,3800,3800,-27,186,-231,-337,-221,4099,-10,7,830
13329,5856732,6288632,5876434,6302418,3800,3800,-27,189,-234,-331,-196,4075,-10,7,830
14329,5856892,6288844,5876631,6302615,3800,3800,-24,209,-224,-297,-221,4020,22,31,791
15331,5857056,6289000,5876828,6302812,3800,3800,-4,197,-240,-330,82,4020,22,31,791
16332,5857252,6289124,5877025,6303009,3800,3800,15,176,-294,-400,249,4056,49,44,792
17333,5857520,6289320,5877222,6303206,3800,3800,-1,167,-342,-419,-127,4072,49,44,792
18334,5857824,6289576,5877419,6303403,3800,3800,-45,157,-386,-483,302,4119,72,56,793
19335,5858128,6289840,5877616,6303600,3800,3800,-100,176,-452,-564,500,4102,72,56,793
20336,5858456,6290156,5877813,6303797,3800,3800,-172,169,-529,-701,373,4133,85,51,794
21337,5858844,6290404,5878010,6303994,3800,3800,-227,241,-580,-815,211,4288,85,51,794
22337,5859208,6290580,5878207,6304191,3800,3800,-235,285,-607,-925,469,4238,68,55,793
23339,5859588,6290764,5878404,6304388,3800,3800,-180,366,-661,-984,729,4321,68,55,793
24340,5860056,6290960,5878601,6304585,3800,3800,-77,395,-784,-1088,824,4122,77,52,794
25341,5860492,6291220,5878798,6304782,3800,3800,78,351,-991,-1043,981,3928,77,52,794
26342,5860952,6291492,5878995,6304979,3800,3800,247,258,-1250,-904,1015,3967,103,56,793
27343,5861484,6291676,5879192,6305176,3800,3800,431,166,-1515,-791,911,3870,103,56,793
28344,5861992,6291832,5879389,6305373,3800,3800,606,9,-1772,-635,462,3857,115,47,794
29345,5862504,6291972,5879586,6305570,3800,3800,732,-139,-1991,-407,-318,3951,115,47,794
30346,5863080,6292160,5879783,6305767,3800,3800,768,-329,-2164,-233,-346,3827,112,48,794
31347,5863696,6292376,5879980,6305964,3800,3800,734,-527,-2305,-133,166,3631,112,48,794
32348,5864240,6292612,5880177,6306161,3800,3800,659,-895,-2417,-131,753,3292,128,48,796
33349,5864884,6292808,5880374,6306358,3800,3800,665,-1285,-2518,-104,1237,3149,128,48,796
34337,5865576,6292964,5880571,6306555,3575,3800,690,-1807,-2610,-127,1449,2877,137,41,796
35351,5866196,6293116,5880768,6306752,3800,3800,750,-2310,-2724,-141,1481,2939,137,41,796
36339,5866872,6293276,5880965,6306949,3285,3800,794,-2828,-2825,-163,1278,2966,128,47,794
37340,5867640,6293524,5881162,6307146,2462,3800,818,-3232,-2897,-125,988,3420,128,47,794
38341,5868364,6293708,5881359,6307343,2507,3800,812,-3490,-2923,-137,637,3821,134,60,798
39342,5869012,6293936,5881556,6307540,2787,3800,768,-3601,-2881,-111,83,4376,134,60,798
40343,5869820,6294160,5881753,6307737,1520,3800,719,-3622,-2799,-242,-446,4524,136,58,799
41344,5870568,6294320,5881950,6307934,1655,3800,664,-3648,-2724,-401,-701,4666,136,58,799
42345,5871296,6294528,5882147,6308131,1550,3800,631,-3653,-2684,-574,-778,4618,138,46,805
43346,5872064,6294764,5882344,6308328,1051,3800,623,-3739,-2674,-703,-807,4394,138,46,805
44347,5872820,6294972,5882541,6308525,882,3800,644,-3806,-2662,-699,-779,4358,132,41,805
45348,5873560,6295160,5882738,6308722,746,3800,677,-3917,-2611,-608,-1080,4300,132,41,805
46349,5874296,6295348,5882935,6308919,535,3800,688,-3876,-2503,-523,-1392,4706,132,49,806
47350,5874920,6295568,5883132,6309116,1049,3800,645,-3833,-2342,-675,-1639,4809,132,49,806
48351,5875540,6295800,5883329,6309313,889,3800,584,-3699,-2174,-949,-2067,4995,135,62,806
49352,5876156,6296044,5883526,6309510,732,3800,530,-3707,-2027,-978,-2379,4377,135,62,806
50353,5876752,6296308,5883723,6309707,683,3800,528,-3749,-1893,-749,-2746,4252,111,70,807
51354,5877340,6296564,5883920,6309904,563,3800,577,-3912,-1751,-819,-3064,3842,111,70,807
52355,5877872,6296816,5884117,6310101,767,3800,668,-4046,-1540,-1180,-3494,4181,119,56,808
53356,5878400,6297092,5884314,6310298,647,3800,781,-4102,-1238,-1587,-3714,4255,119,56,808
54357,5878860,6297380,5884511,6310495,958,3800,884,-4075,-827,-1784,-3962,4632,91,55,808
55358,5879292,6297624,5884708,6310692,1031,3800,933,-3826,-307,-2111,-3909,5311,91,55,808
56359,5879720,6297872,5884905,6310889,955,3800,978,-3517,288,-2543,-3696,5369,72,55,807
57360,5880064,6298088,5885102,6311086,1416,3800,1058,-3262,910,-2742,-3284,5260,72,55,807
58361,5880384,6298312,5885299,6311283,1513,3800,1207,-3098,1535,-2728,-2617,4989,74,44,805
59362,5880732,6298560,5885496,6311480,1273,3800,1368,-2946,2112,-2404,-2003,4948,74,44,805
60363,5880992,6298756,5885693,6311677,1796,3800,1558,-3016,2640,-1906,-1542,4195,74,34,804
61364,5881280,6298944,5885890,6311874,1582,3800,1741,-3258,3111,-1310,-804,3960,74,34,804
62365,5881556,6299096,5886087,6312071,1624,3800,1932,-3579,3515,-757,-225,3642,48,44,802
63366,5881776,6299288,5886284,6312268,1965,3800,2075,-3795,3895,-419,-103,3936,48,44,802
64367,5881996,6299448,5886481,6312465,1955,3800,2223,-3932,4302,-265,-280,4198,63,27,803
65368,5882212,6299564,5886678,6312662,1973,3800,2350,-3954,4723,-105,-435,4749,63,27,803
66369,5882420,6299716,5886875,6312859,2018,3800,2483,-3849,5103,201,-535,5027,40,25,801
67370,5882592,6299868,5887072,6313056,2255,3800,2583,-3695,5393,566,-441,5073,40,25,801
68371,5882696,6300032,5887269,6313253,2722,3800,2640,-3557,5516,794,74,5049,48,23,800
69372,5882876,6300196,5887466,6313450,2256,3800,2659,-3513,5463,972,577,4751,48,23,800
70373,5882972,6300308,5887663,6313647,2826,3800,2635,-3412,5294,1185,956,5026,32,25,796
71374,5883044,6300388,5887860,6313844,3032,3800,2535,-3253,5017,1404,1420,5114,32,25,796
72375,5883196,6300504,5888057,6314041,2553,3800,2317,-3011,4631,1770,1942,5535,17,29,796
73376,5883300,6300644,5888254,6314238,2895,3800,1969,-2566,4112,2164,2430,6065,17,29,796
74377,5883384,6300784,5888451,6314435,3070,3800,1500,-2036,3502,2489,3007,6262,40,23,796
75378,5883524,6300880,5888648,6314632,2745,3800,956,-1502,2832,2362,3416,6221,40,23,796
76379,5883692,6300936,5888845,6314829,2584,3800,388,-1078,2170,2437,3653,6070,22,23,794
77380,5883816,6300980,5889042,6315026,2892,3800,-151,-652,1541,2467,3518,6075,22,23,794
78381,5883908,6301056,5889239,6315223,3139,3800,-635,-252,1003,2625,3032,5933,44,26,796
79382,5884068,6301140,5889436,6315420,2731,3800,-1004,52,552,2682,2848,5569,44,26,796
80383,5884208,6301220,5889633,6315617,2883,3800,-1250,202,177,2586,2409,5054,39,11,792
81384,5884288,6301288,5889830,6315814,3310,3800,-1360,225,-127,2570,1674,4704,39,11,792
82385,5884480,6301324,5890027,6316011,2614,3800,-1365,257,-351,2586,950,4589,27,8,794
83386,5884624,6301348,5890224,6316208,2938,3800,-1323,198,-503,2434,331,4300,27,8,794
84387,5884760,6301364,5890421,6316405,3016,3800,-1282,132,-610,2144,-142,4351,49,4,794
85388,5884944,6301432,5890618,6316602,2723,3800,-1243,96,-679,1671,-116,4486,49,4,794
86389,5885168,6301488,5890815,6316799,2462,3800,-1201,137,-728,1007,93,4669,55,8,793
87390,5885336,6301568,5891012,6316996,2826,3800,-1130,212,-798,224,338,4762,55,8,793
88391,5885508,6301644,5891209,6317193,2813,3800,-1010,357,-925,-504,437,4853,50,9,796
89392,5885708,6301680,5891406,6317390,2638,3800,-852,533,-1061,-894,-44,4912,50,9,796
90393,5885896,6301748,5891603,6317587,2717,3800,-656,694,-1156,-1119,-505,4776,34,15,794
91394,5886096,6301836,5891800,6317784,2642,3800,-457,899,-1165,-1236,-799,5016,34,15,794
92395,5886336,6301952,5891997,6317981,2374,3800,-272,1210,-1051,-1489,-1122,5299,64,27,792
93403,5886564,6302084,5892424,6318408,2538,3800,-105,1663,-813,-1897,-1385,5683,64,27,792
94397,5886784,6302228,5892621,6318605,2580,3800,62,2204,-481,-2247,-1483,5825,59,17,797
95398,5887000,6302316,5892818,6318802,2597,3800,253,2657,-113,-2296,-1276,5509,59,17,797
96399,5887252,6302424,5893015,6318999,2349,3800,482,2905,206,-2124,-777,4807,37,40,797
97400,5887468,6302580,5893212,6319196,2567,3800,746,2902,433,-1865,-275,4064,37,40,797
98401,5887752,6302744,5893409,6319393,2104,3800,1027,2661,605,-1676,-315,3383,46,41,798
99402,5887992,6302948,5893606,6319590,2362,3800,1295,2317,783,-1835,-633,3137,46,41,798
100403,5888212,6303136,5893803,6319787,2477,3800,1524,1941,952,-2052,-603,2950,57,28,799
101404,5888464,6303276,5894000,6319984,2254,3800,1684,1537,1111,-1821,-487,2787,57,28,799
102405,5888740,6303420,5894197,6320181,2071,3800,1764,1142,1242,-1259,-322,2680,55,41,797
103406,5888980,6303596,5894394,6320378,2278,3800,1803,732,1340,-697,-377,2535,55,41,797
104407,5889260,6303760,5894591,6320575,1992,3800,1826,344,1423,-527,-579,2747,65,41,799
105408,5889540,6303980,5894788,6320772,1957,3800,1834,40,1506,-551,-516,2986,65,41,799
106409,5889804,6304196,5894985,6320969,2028,3800,1826,-227,1550,-385,-144,3000,69,50,799
107410,5890068,6304420,5895182,6321166,2000,3800,1781,-452,1530,-71,303,2846,69,50,799
108411,5890340,6304632,5895379,6321363,1918,3800,1712,-707,1437,162,524,2751,59,50,801
109412,5890612,6304868,5895576,6321560,1886,3800,1634,-983,1299,133,482,2744,59,50,801
110413,5890896,6305120,5895773,6321757,1774,3800,1574,-1217,1172,2,212,3014,59,56,801
111414,5891136,6305380,5895970,6321954,2031,3800,1508,-1396,1069,102,207,3077,59,56,801
112415,5891344,6305660,5896167,6322151,2227,3800,1436,-1540,967,389,703,2973,57,55,801
113416,5891544,6305924,5896364,6322348,2277,3800,1351,-1695,859,599,876,2946,57,55,801
114417,5891800,6306164,5896561,6322545,1902,3800,1270,-1856,795,691,349,2847,44,57,799
115418,5892016,6306436,5896758,6322742,2144,3800,1215,-2008,818,591,-443,2915,44,57,799
116419,5892228,6306716,5896955,6322939,2164,3800,1187,-2143,890,518,-638,3020,56,63,801
117420,5892436,6307012,5897152,6323136,2185,3800,1166,-2298,956,604,-535,2933,56,63,801
118421,5892668,6307348,5897349,6323333,2020,3800,1129,-2334,1001,611,-411,3250,57,63,801
119422,5892880,6307656,5897546,6323530,2139,3800,1081,-2297,1005,458,-422,3352,57,63,801
120423,5893164,6307936,5897743,6323727,1652,3800,1017,-2175,976,386,-480,3615,43,70,801
121424,5893432,6308328,5897940,6323924,1722,3800,950,-1907,955,255,-340,4091,43,70,801
122425,5893708,6308704,5898137,6324121,1638,3800,882,-1452,916,104,44,4399,56,62,803
123426,5893988,6309056,5898334,6324318,1577,3800,779,-965,865,119,270,4427,56,62,803
124427,5894240,6309440,5898531,6324515,1729,3800,640,-549,813,168,368,4277,57,79,803
125428,5894556,6309872,5898728,6324712,1277,3800,500,-84,761,330,248,4384,57,79,803
126429,5894860,6310304,5898925,6324909,1306,3800,379,407,703,303,-176,4234,57,80,803
127430,5895116,6310760,5899122,6325106,1581,3800,280,816,649,210,-596,4082,57,80,803
128431,5895388,6311240,5899319,6325303,1449,3800,197,1107,591,258,-663,3672,72,86,806
129432,5895728,6311772,5899516,6325500,962,3800,117,1227,509,326,-547,3300,72,86,806
130433,5896012,6312268,5899713,6325697,1274,3800,52,1284,396,394,-481,2967,75,106,806
131421,5896296,6312876,5899910,6325894,1237,3482,-11,1217,295,428,-610,2681,75,106,806
132423,5896576,6313484,5900107,6326091,1226,3304,-53,1118,261,607,-853,2651,54,110,807
133424,5896836,6314152,5900304,6326288,1324,2725,-110,1001,284,934,-734,2562,54,110,807
134424,5897132,6314804,5900501,6326485,1056,2627,-166,921,331,1079,-677,2519,60,109,810
135425,5897420,6315520,5900698,6326682,1067,2001,-196,748,386,961,-630,2177,60,109,810
136426,5897708,6316196,5900895,6326879,1027,2042,-181,506,447,1031,-556,2042,56,128,814
137428,5898008,6316872,5901092,6327076,908,1834,-136,242,503,1069,-213,1866,56,128,814
138428,5898284,6317612,5901289,6327273,1023,1197,-67,-82,544,897,213,1657,67,138,818
139429,5898540,6318276,5901486,6327470,1123,1469,8,-356,557,789,112,1712,67,138,818
140431,5898776,6318908,5901683,6327667,1232,1480,96,-622,583,744,-146,1854,64,126,821
141431,5898968,6319532,5901880,6327864,1509,1344,194,-710,644,886,-323,2270,64,126,821
142432,5899176,6320140,5902077,6328061,1405,1264,300,-754,729,900,-395,2317,57,119,820
143433,5899368,6320660,5902274,6328258,1508,1674,414,-674,832,775,-326,2788,57,119,820
144434,5899552,6321332,5902471,6328455,1564,517,522,-542,934,742,-234,2806,33,121,819
145435,5899796,6321868,5902668,6328652,1169,1219,617,-356,1015,821,62,2846,33,121,819
146436,5900004,6322400,5902865,6328849,1390,1099,709,-119,1086,910,178,2929,37,102,819
147437,5900188,6322972,5903062,6329046,1545,685,789,69,1162,984,66,2806,37,102,819
148438,5900452,6323472,5903259,6329243,1017,1003,860,318,1259,1047,-146,3042,52,104,820
149439,5900660,6324056,5903456,6329440,1363,309,936,594,1371,1178,-205,2900,52,104,820
150440,5900876,6324504,5903653,6329637,1305,1049,992,941,1470,1502,-396,3109,38,95,821
151441,5901112,6324896,5903850,6329834,1164,1315,972,1445,1538,1801,-350,3679,38,95,821
152442,5901360,6325352,5904047,6330031,1066,802,931,1969,1522,1909,128,3394,52,87,821
153443,5901572,6325724,5904244,6330228,1286,1251,938,2269,1408,1854,711,2502,52,87,821
154444,5901756,6326028,5904441,6330425,1466,1630,929,2489,1257,2042,944,2776,49,71,821
155445,5902012,6326388,5904638,6330622,992,1209,933,2581,1079,2113,1156,1936,49,71,821
156446,5902204,6326700,5904835,6330819,1394,1460,991,2353,837,1891,1619,841,53,64,817
157447,5902404,6327012,5905032,6331016,1343,1409,1042,2078,583,2071,1898,892,53,64,817
158448,5902660,6327228,5905229,6331213,967,2002,1041,1829,333,2117,1776,773,49,38,819
159449,5902860,6327436,5905426,6331410,1317,2048,955,1712,126,2039,1324,1219,49,38,819
160450,5903036,6327648,5905623,6331607,1476,2017,751,1822,-32,2039,908,1843,30,52,819
161451,5903280,6327864,5905820,6331804,1032,1984,469,1940,-195,1921,717,1715,30,52,819
162452,5903484,6328084,5906017,6332001,1279,1950,158,2024,-425,1943,790,1477,48,34,815
163453,5903636,6328312,5906214,6332198,1624,1887,-184,2010,-698,1993,805,1258,48,34,815
164454,5903844,6328484,5906411,6332395,1270,2249,-518,1923,-988,1851,744,970,31,26,816
165455,5904008,6328624,5906608,6332592,1560,2474,-822,1796,-1258,1648,685,867,31,26,816
166456,5904112,6328796,5906805,6332789,1976,2286,-1120,1720,-1491,1572,622,1065,23,22,814
167457,5904332,6328980,5907002,6332986,1242,2218,-1413,1694,-1727,1563,758,1053,23,22,814
168458,5904504,6329144,5907199,6333183,1553,2358,-1705,1673,-1950,1702,905,1083,39,30,810
169459,5904600,6329308,5907396,6333380,2073,2373,-2016,1571,-2125,1941,705,999,39,30,810
170460,5904808,6329432,5907593,6333577,1368,2656,-2311,1374,-2254,2028,414,566,43,39,813
171461,5904956,6329608,5907790,6333774,1766,2341,-2591,1095,-2355,2033,-13,514,43,39,813
172462,5905108,6329784,5907987,6333971,1761,2351,-2865,821,-2390,2137,-921,556,23,23,809
173463,5905292,6329936,5908184,6334168,1567,2522,-3146,556,-2364,2308,-1283,606,23,23,809
174464,5905464,6330096,5908381,6334365,1653,2489,-3444,300,-2302,2426,-1401,715,38,27,811
175465,5905580,6330220,5908578,6334562,2040,2747,-3763,94,-2211,2252,-1417,1036,38,27,811
176473,5905724,6330316,5908808,6334792,1903,2981,-4095,47,-2084,1819,-1591,1608,17,23,811
177467,5905904,6330520,5909005,6334989,1686,2304,-4436,50,-1896,1594,-2145,1941,17,23,811
178468,5906020,6330700,5909202,6335186,2123,2463,-4775,96,-1642,1724,-2645,2192,27,24,807
179469,5906144,6330856,5909399,6335383,2105,2632,-5113,188,-1370,1873,-2737,2412,27,24,807
180471,5906352,6330988,5909596,6335580,1576,2810,-5543,371,-1073,1898,-3084,3310,20,35,809
181471,5906512,6331160,5909793,6335777,1892,2572,-6214,925,-746,1838,-3224,4723,20,35,809
182473,5906652,6331276,5909990,6335974,2043,2959,-6646,992,-535,1615,-2265,2182,38,27,808
183473,5906864,6331444,5910187,6336171,1588,2648,-7008,898,-335,1636,-3275,3181,38,27,808
184474,5907036,6331604,5910384,6336368,1849,2715,-7408,856,-92,1464,-3919,3501,27,37,809
185475,5907156,6331784,5910581,6336565,2209,2599,-7751,873,98,1369,-3301,3648,27,37,809
186476,5907380,6331964,5910778,6336762,1548,2607,-7913,718,208,1441,-2609,3232,42,35,810
187477,5907540,6332204,5910975,6336959,1964,2214,-7942,449,253,1390,-2454,3494,42,35,810
188479,5907680,6332444,5911172,6337156,2115,2196,-7857,206,226,1251,-1659,3805,31,33,807
189479,5907872,6332664,5911369,6337353,1793,2311,-7722,121,180,1057,-1061,4631,31,33,807
190480,5908064,6332888,5911566,6337550,1795,2275,-7569,251,163,1011,-1073,5581,44,52,810
191481,5908212,6333084,5911763,6337747,2093,2452,-7400,623,229,1155,-1384,6498,44,52,810
192482,5908380,6333292,5911960,6337944,1982,2373,-7238,1225,409,1342,-1712,7545,25,39,810
193483,5908596,6333532,5912157,6338141,1673,2155,-7078,1962,633,1041,-1537,8179,25,39,810
194484,5908784,6333784,5912354,6338338,1853,2057,-6879,2835,857,401,-1452,8913,51,40,809
195485,5908948,6333988,5912551,6338535,2019,2355,-6369,3781,1034,-131,-1285,10637,51,40,809
196486,5909160,6334232,5912748,6338732,1712,2085,-2991,9452,1423,-1350,-2384,32767,48,40,813
197487,5909340,6334436,5912945,6338929,1921,2333,3129,19516,2080,-2275,-3351,32767,48,40,813
198488,5909504,6334640,5913142,6339126,2036,2330,6740,23752,2186,580,941,17177,48,35,810
199489,5909704,6334852,5913339,6339323,1810,2274,6959,21522,1669,1926,3008,554,48,35,810
200490,5909896,6335064,5913536,6339520,1863,2269,6200,17357,964,2510,2739,-1287,44,48,810
201491,5910056,6335296,5913733,6339717,2080,2129,5875,12921,482,1299,1513,-3389,44,48,810
202492,5910264,6335524,5913930,6339914,1776,2142,5843,8203,679,-32,-1848,-2693,47,43,811
203493,5910432,6335728,5914127,6340111,2039,2290,5512,3804,1287,-1543,-3784,-193,47,43,811
204494,5910600,6335924,5914324,6340308,2053,2340,5076,-112,1610,-1984,-1211,474,43,52,811
205495,5910780,6336152,5914521,6340505,1986,2127,4726,-3057,1426,-2150,172,2589,43,52,811
206496,5910984,6336368,5914718,6340702,1833,2195,4414,-4537,909,-1711,872,4313,32,52,811
207497,5911148,6336568,5914915,6340899,2099,2295,4079,-4807,279,-1334,1377,5478,32,52,811
208498,5911332,6336784,5915112,6341096,1981,2187,3786,-4311,-321,-1278,1628,6243,30,33,812
209499,5911504,6336952,5915309,6341293,2067,2501,3577,-3998,-833,-1476,1703,5485,30,33,812
210500,5911708,6337188,5915506,6341490,1865,2059,3383,-4192,-1043,-1670,707,5185,42,45,810
211501,5911836,6337372,5915703,6341687,2371,2391,3197,-4329,-910,-1960,137,5521,42,45,810
212502,5912032,6337592,5915900,6341884,1947,2157,3096,-4368,-710,-2289,1008,5197,36,49,808
213503,5912196,6337820,5916097,6342081,2162,2094,3057,-4221,-556,-2501,1719,5855,36,49,808
214504,5912352,6338044,5916294,6342278,2231,2108,3079,-3873,-304,-2561,1584,6105,45,49,807
215505,5912536,6338248,5916491,6342475,2063,2230,3119,-3555,137,-2534,1511,5793,45,49,807
216506,5912712,6338508,5916688,6342672,2123,1853,3145,-3278,738,-2600,1751,5645,31,37,811
217507,5912864,6338716,5916885,6342869,2293,2175,3211,-3093,1417,-2698,1734,5255,31,37,811
218508,5913040,6338928,5917082,6343066,2153,2144,3319,-2953,2061,-2710,1819,4968,30,51,811
219509,5913172,6339148,5917279,6343263,2457,2085,3487,-2821,2618,-2796,1765,4590,30,51,811
220510,5913324,6339388,5917476,6343460,2353,1941,3702,-2700,3080,-2804,1477,4368,40,45,810
221511,5913432,6339604,5917673,6343657,2667,2084,3939,-2578,3453,-2709,1033,4253,40,45,810
222512,5913564,6339804,5917870,6343854,2547,2183,4176,-2366,3760,-2626,413,4589,19,47,809
223513,5913700,6340024,5918067,6344051,2550,2049,4413,-2014,3975,-2427,-196,4651,19,47,809
224514,5913808,6340268,5918264,6344248,2765,1880,4656,-1648,4055,-2258,-457,4600,36,47,807
225515,5913932,6340504,5918461,6344445,2698,1912,4899,-1246,4032,-1997,-713,4543,36,47,807
226516,5914068,6340752,5918658,6344642,2651,1816,5138,-928,3943,-1668,-707,4060,39,50,808
227517,5914168,6340996,5918855,6344839,2918,1821,5367,-677,3796,-1317,-617,3745,39,50,808
228518,5914288,6341232,5919052,6345036,2828,1855,5564,-550,3593,-936,-410,3250,44,58,809
229519,5914464,6341476,5919249,6345233,2488,1785,5709,-562,3331,-507,-200,2799,44,58,809
230520,5914632,6341736,5919446,6345430,2552,1658,5797,-661,3050,-47,-163,2393,49,50,807
231521,5914804,6342000,5919643,6345627,2539,1604,5790,-842,2799,415,-155,2065,49,50,807
232522,5914972,6342376,5919840,6345824,2578,826,5665,-1049,2603,868,50,1942,29,44,811
233523,5915116,6342556,5920037,6346021,2752,2059,5452,-1246,2448,1161,734,1816,29,44,811
234524,5915280,6342696,5920234,6346218,2643,2335,5178,-1459,2291,1367,1488,1672,44,37,810
235525,5915432,6342820,5920431,6346415,2738,2467,4835,-1673,2114,1493,1562,1556,44,37,810
236526,5915592,6342960,5920628,6346612,2706,2393,4462,-1893,1931,1526,1535,1559,37,41,806
237527,5915704,6343092,5920825,6346809,3044,2473,3686,-2174,1459,1435,2468,1604,37,41,806
238528,5915864,6343292,5921022,6347006,2761,2047,3263,-2183,1095,1199,3013,1776,39,29,805
239529,5916004,6343480,5921219,6347203,2912,2127,2875,-2120,640,988,3315,1859,39,29,805
240530,5916124,6343752,5921416,6347400,3072,1570,2551,-1972,199,844,3253,2074,43,39,803
241531,5916260,6344044,5921613,6347597,3000,1404,2258,-1620,-121,806,2956,2412,43,39,803
242532,5916388,6344280,5921810,6347794,3081,1737,1999,-1217,-280,750,2620,2494,33,51,806
243533,5916524,6344536,5922007,6347991,3059,1587,1759,-740,-286,691,2450,2678,33,51,806
244535,5916644,6344876,5922204,6348188,3194,1000,1503,-248,-183,633,2352,2640,33,53,809
245535,5916800,6345156,5922401,6348385,2988,1338,1191,274,-69,466,2249,2695,33,53,809
246536,5916936,6345428,5922598,6348582,3141,1357,861,808,-16,286,2084,2672,35,52,806
247537,5917116,6345728,5922795,6348779,2874,1136,558,1356,-16,205,1611,2534,35,52,806
248538,5917284,6346024,5922992,6348976,2963,1119,299,1903,-20,198,1414,2521,28,54,810
249539,5917432,6346344,5923189,6349173,3110,916,45,2431,-75,105,1758,2327,28,54,810
250540,5917620,6346604,5923386,6349370,2865,1263,-232,2978,-173,195,1165,2330,44,69,811
251541,5917792,6346944,5923583,6349567,2977,701,-533,3508,-254,183,623,2284,44,69,811
252543,5917972,6347308,5923780,6349764,2936,478,-868,4043,-332,179,858,2237,37,70,810
253543,5918160,6347716,5923977,6349961,2892,111,-1231,4478,-435,286,1097,1900,37,70,810
254545,5918352,6348124,5924174,6350158,2870,18,-1642,4765,-533,575,948,1605,32,60,812
255545,5918552,6348376,5924371,6350355,2820,969,-2059,4902,-632,833,509,1291,32,60,812
256546,5918768,6348544,5924568,6350552,2712,1508,-2415,4952,-754,915,99,1071,51,67,813
257547,5918948,6348848,5924765,6350749,2946,611,-2713,4932,-932,999,-104,1029,51,67,813
258548,5919180,6349156,5924962,6350946,2606,537,-3011,4902,-1157,1131,-195,1037,39,58,812
259558,5919420,6349408,5925192,6351176,2553,878,-3361,4919,-1426,1222,-189,1072,39,58,812
260551,5919616,6349720,5925389,6351373,2829,453,-3743,4917,-1730,1258,-268,1047,56,59,812
261551,5919824,6349964,5925586,6351570,2751,857,-4107,4851,-2017,1303,-145,1004,56,59,812
262552,5920076,6350200,5925783,6351767,2452,891,-4476,4761,-2296,1342,666,977,57,48,814
263553,5920292,6350424,5925980,6351964,2671,954,-4846,4621,-2594,1333,1153,902,57,48,814
264554,5920492,6350632,5926177,6352161,2771,1049,-5215,4498,-2873,1189,1156,1019,40,39,813
265555,5920728,6350792,5926374,6352358,2530,1367,-5562,4455,-3112,970,1194,1291,40,39,813
266556,5920980,6350996,5926571,6352555,2406,1089,-5858,4441,-3319,928,1151,1448,59,35,814
267557,5921204,6351180,5926768,6352752,2571,1219,-6111,4452,-3512,933,1006,1675,59,35,814
268559,5921432,6351348,5926965,6352949,2533,1333,-6278,4508,-3659,989,3,1858,53,46,811
269559,5921656,6351492,5927162,6353146,2547,1506,-6367,4597,-3768,884,-620,2017,53,46,811
270560,5921860,6351668,5927359,6353343,2670,1316,-6433,4682,-3866,558,-725,2149,54,29,813
271561,5922060,6351864,5927556,6353540,2695,1191,-6496,4850,-3987,243,-829,2536,54,29,813
272562,5922252,6352016,5927753,6353737,2748,1487,-6551,5090,-4178,-338,-734,2746,45,36,811
273563,5922432,6352152,5927950,6353934,2831,1614,-6602,5347,-4513,-1139,101,2989,45,36,811
274564,5922628,6352284,5928147,6354131,2733,1667,-6638,5623,-5013,-1743,578,3190,37,33,812
275565,5922812,6352468,5928344,6354328,2815,1349,-6652,5935,-5523,-2042,-423,3518,37,33,812
276567,5922988,6352656,5928541,6354525,2875,1328,-6636,6381,-5929,-2186,-1469,3977,41,28,809
277568,5923180,6352844,5928738,6354722,2778,1333,-6634,6914,-6203,-2434,-2288,4655,41,28,809
278568,5923404,6352956,5928935,6354919,2567,1845,-6623,7444,-6382,-2629,-2955,4796,47,35,809
279569,5923568,6353072,5929132,6355116,2958,1856,-6570,7846,-6514,-2739,-3662,4514,47,35,809
280570,5923764,6353188,5929329,6355313,2760,1892,-6438,8024,-6560,-2992,-4505,4347,30,36,809
281571,5924004,6353332,5929526,6355510,2467,1741,-6237,7984,-6500,-3170,-5148,3884,30,36,809
282572,5924184,6353468,5929723,6355707,2851,1817,-5945,7625,-6363,-3280,-5310,2920,31,31,807
283573,5924388,6353628,5929920,6355904,2699,1685,-5610,6954,-6149,-3239,-5318,2426,31,31,807
284574,5924620,6353756,5930117,6356101,2509,1915,-5264,6101,-5839,-3213,-5605,2268,30,37,810
285575,5924804,6353928,5930314,6356298,2816,1652,-4917,5184,-5434,-3328,-5933,2317,30,37,810
286576,5925012,6354072,5930511,6356495,2662,1850,-4555,4254,-4932,-3513,-6085,2533,53,31,810
287577,5925244,6354304,5930708,6356692,2498,1286,-4190,3344,-4371,-3505,-6039,2826,53,31,810
288578,5925484,6354464,5930905,6356889,2430,1752,-3798,2434,-3792,-3501,-6012,2911,51,28,809
289579,5925728,6354596,5931102,6357086,2385,1957,-3412,1515,-3224,-3534,-5840,3123,51,28,809
290580,5926012,6354724,5931299,6357283,2098,2012,-3049,460,-2674,-3617,-5514,3126,54,40,811
291581,5926268,6354908,5931496,6357480,2248,1669,-2687,-1228,-2143,-4185,-5081,2392,54,40,811
292582,5926524,6355044,5931693,6357677,2223,1996,-1069,-3578,-1664,-3495,-3957,12479,65,36,810
293583,5926836,6355224,5931890,6357874,1823,1729,3077,-4452,-1502,-205,-2051,32767,65,36,810
294584,5927156,6355368,5932087,6358071,1720,1977,5366,-4134,-1247,-2396,-2751,11606,69,37,813
295585,5927460,6355512,5932284,6358268,1774,2002,5227,-3588,-759,-2779,-2578,7750,69,37,813
296586,5927760,6355628,5932481,6358465,1755,2212,4314,-2988,-173,-2860,-2594,8324,51,22,814
297587,5928112,6355752,5932678,6358662,1363,2195,3854,-2555,274,-2799,-1854,7561,51,22,814
298588,5928420,6355876,5932875,6358859,1590,2227,3748,-2185,580,-2635,-1291,7379,70,23,813
299589,5928720,6356004,5933072,6359056,1595,2234,3777,-1999,757,-2494,-895,6570,70,23,813
300590,5929048,6356112,5933269,6359253,1363,2398,3699,-1835,814,-2222,-394,6702,66,23,813
301591,5929360,6356212,5933466,6359450,1414,2491,3551,-1634,874,-1565,-311,6670,66,23,813
302592,5929660,6356312,5933663,6359647,1445,2535,3436,-1353,890,-1020,82,6618,55,30,811
303593,5930004,6356408,5933860,6359844,1106,2604,3367,-1264,789,-652,409,5900,55,30,811
304594,5930304,6356536,5934057,6360041,1336,2436,3379,-1424,564,-300,914,5047,54,18,812
305595,5930584,6356652,5934254,6360238,1425,2546,3387,-1830,272,113,1309,4368,54,18,812
306596,5930868,6356764,5934451,6360435,1363,2610,3446,-2349,-27,473,1461,3801,60,29,812
307597,5931208,6356868,5934648,6360632,950,2702,3535,-2901,-274,861,1321,3687,60,29,812
308598,5931480,6356948,5934845,6360829,1343,2904,3656,-3437,-455,1182,1238,3492,57,28,812
309600,5931728,6357044,5935042,6361026,1472,2848,3740,-3983,-587,1454,1285,3418,57,28,812
310600,5932044,6357180,5935239,6361223,995,2626,3799,-4509,-719,1639,1542,3182,54,31,812
311601,5932284,6357272,5935436,6361420,1452,2948,3853,-5045,-854,1559,1546,3094,54,31,812
312602,5932528,6357408,5935633,6361617,1407,2701,3958,-5517,-1003,1268,1375,3101,57,16,808
313603,5932756,6357516,5935830,6361814,1493,2915,4088,-5963,-1166,949,1252,2991,57,16,808
314604,5932972,6357584,5936027,6362011,1561,3223,4263,-6283,-1350,554,1265,3124,38,31,808
315605,5933192,6357700,5936224,6362208,1526,2960,4429,-6537,-1520,131,1191,3252,38,31,808
316606,5933464,6357824,5936421,6362405,1169,2943,4556,-6595,-1611,-177,1000,3732,36,33,809
317607,5933692,6357940,5936618,6362602,1430,3029,4607,-6417,-1576,-447,685,4223,36,33,809
318608,5933892,6358064,5936815,6362799,1605,3012,4604,-5989,-1419,-654,292,4746,35,34,809
319609,5934156,6358180,5937012,6362996,1177,3099,4543,-5317,-1154,-918,271,5151,35,34,809
320610,5934356,6358320,5937209,6363193,1575,2975,4461,-4577,-831,-1210,349,5307,55,20,808
321611,5934568,6358448,5937406,6363390,1495,3080,4377,-3746,-500,-1460,314,5351,55,20,808
322612,5934852,6358592,5937603,6363587,1006,3005,4286,-2946,-181,-1634,600,5027,44,31,808
323613,5935088,6358700,5937800,6363784,1290,3270,4190,-2229,121,-1723,958,4565,44,31,808
324614,5935336,6358848,5937997,6363981,1193,3042,4092,-1675,407,-1754,1174,4036,43,38,807
325615,5935612,6359024,5938194,6364178,984,2877,4005,-1298,628,-1768,1604,3223,43,38,807
326616,5935860,6359184,5938391,6364375,1137,2995,3900,-1165,766,-1686,1875,2532,49,39,806
327617,5936116,6359368,5938588,6364572,1062,2851,3812,-1173,873,-1443,1901,1886,49,39,806
328618,5936372,6359540,5938785,6364769,1036,2938,3696,-1318,959,-1220,2005,1408,59,43,811
329619,5936612,6359724,5938982,6364966,1118,2870,3562,-1577,1048,-946,1854,1009,59,43,811
330620,5936868,6359912,5939179,6365163,992,2850,3368,-1870,1144,-502,1548,776,57,49,811
331621,5937116,6360124,5939376,6365360,1021,2694,3119,-2236,1263,-49,1111,617,57,49,811
332622,5937360,6360332,5939573,6365557,1025,2716,2802,-2541,1408,338,837,733,56,33,811
333623,5937540,6360528,5939770,6365754,1432,2792,2436,-2874,1588,671,540,728,56,33,811
334624,5937720,6360740,5939967,6365951,1441,2686,2032,-3121,1793,1013,431,996,32,32,811
335625,5937940,6360936,5940164,6366148,1181,2788,1605,-3291,2004,1244,576,1055,32,32,811
336626,5938144,6361112,5940361,6366345,1279,2923,1176,-3489,2144,1369,924,1040,30,43,810
337627,5938316,6361316,5940558,6366542,1490,2746,760,-3693,2187,1450,1100,1071,30,43,810
338628,5938520,6361496,5940755,6366739,1288,2905,374,-3882,2147,1581,1092,983,27,39,811
339629,5938708,6361708,5940952,6366936,1392,2699,27,-4110,2059,1780,908,925,27,39,811
340630,5938900,6361952,5941149,6367133,1369,2479,-293,-4352,1914,1951,758,906,36,57,810
341631,5939068,6362196,5941346,6367330,1533,2460,-618,-4580,1749,2112,644,970,36,57,810
342639,5939256,6362384,5941576,6367560,1426,2829,-961,-4786,1581,2210,560,1125,27,48,811
343633,5939436,6362604,5941773,6367757,1485,2620,-1314,-4915,1427,2234,414,1427,27,48,811
344634,5939592,6362804,5941970,6367954,1653,2745,-1675,-4908,1317,2314,201,1790,46,35,810
345635,5939768,6363032,5942167,6368151,1538,2557,-2043,-4762,1258,2348,-20,2266,46,35,810
346636,5939932,6363244,5942364,6368348,1627,2651,-2421,-4455,1246,2348,-283,2730,24,33,810
347637,5940072,6363404,5942561,6368545,1803,2994,-2786,-4029,1268,2355,-479,3106,24,33,810
348638,5940256,6363576,5942758,6368742,1534,2931,-3142,-3562,1289,2336,-497,3347,42,43,811
349639,5940412,6363752,5942955,6368939,1727,2916,-3457,-3099,1282,2299,-552,3532,42,43,811
350640,5940548,6363912,5943152,6369136,1880,3033,-3725,-2604,1233,2204,-521,3654,22,34,807
351641,5940760,6364124,5943349,6369333,1398,2703,-3939,-2083,1146,2034,-591,3841,22,34,807
352642,5940908,6364312,5943546,6369530,1821,2858,-4103,-1570,1018,1825,-651,3908,44,43,808
353643,5941048,6364464,5943743,6369727,1896,3103,-4223,-1092,857,1741,-750,3890,44,43,808
354644,5941248,6364608,5943940,6369924,1521,3178,-4297,-642,673,1677,-805,3975,39,40,810
355645,5941436,6364768,5944137,6370121,1599,3095,-4332,-204,487,1552,-894,4087,39,40,810
356646,5941604,6364916,5944334,6370318,1738,3192,-4336,220,302,1363,-1074,4198,44,26,804
357647,5941780,6365072,5944531,6370515,1697,3161,-4311,604,131,1201,-1218,4284,44,26,804
358648,5941988,6365224,5944728,6370712,1494,3207,-4251,990,-5,1171,-1323,4440,28,23,807
359649,5942160,6365372,5944925,6370909,1731,3255,-4176,1414,-82,1138,-1570,4625,28,23,807
360650,5942324,6365524,5945122,6371106,1795,3251,-4084,1816,-127,946,-1693,4727,45,39,805
361651,5942544,6365688,5945319,6371303,1436,3191,-3972,2163,-165,758,-1665,4764,45,39,805
362652,5942740,6365852,5945516,6371500,1586,3207,-3827,2428,-222,562,-1228,4753,32,32,805
363653,5942916,6366032,5945713,6371697,1722,3115,-3686,2640,-319,348,-678,4699,32,32,805
364654,5943160,6366220,5945910,6371894,1276,3070,-3575,2746,-426,78,-452,4605,31,41,807
365655,5943352,6366352,5946107,6372091,1604,3451,-3492,2835,-487,-222,-474,4646,31,41,807
366656,5943540,6366472,5946304,6372288,1633,3560,-3409,2860,-484,-461,-496,4710,36,40,805
367657,5943752,6366660,5946501,6372485,1478,3140,-3305,2869,-444,-694,-383,4747,36,40,805
368658,5943948,6366816,5946698,6372682,1578,3359,-3177,2850,-383,-922,-296,4803,52,42,803
369659,5944172,6367000,5946895,6372879,1392,3191,-3023,2763,-323,-1211,-189,4850,52,42,803
370660,5944360,6367176,5947092,6373076,1621,3251,-2848,2626,-258,-1516,-32,4957,34,28,805
371661,5944584,6367320,5947289,6373273,1385,3476,-2671,2555,-177,-1857,214,5195,34,28,805
372662,5944768,6367484,5947486,6373470,1641,3366,-2498,2508,-70,-2145,78,5455,34,29,807
373663,5944948,6367668,5947683,6373667,1674,3249,-2324,2470,69,-2362,-91,5655,34,29,807
374664,5945160,6367852,5947880,6373864,1468,3255,-2137,2439,220,-2585,-143,5741,51,44,805
375666,5945344,6368044,5948077,6374061,1650,3209,-1895,1383,439,-4383,-69,3728,51,44,805
376667,5945532,6368208,5948274,6374258,1628,3399,-1559,-1803,704,-5701,-283,987,45,29,806
377668,5945728,6368396,5948471,6374455,1580,3254,-1289,-5135,971,-5266,-816,3045,45,29,806
378668,5945908,6368584,5948668,6374652,1687,3259,-1126,-6351,1295,-3511,-1204,6566,44,36,805
379669,5946092,6368752,5948865,6374849,1669,3398,-1000,-5181,1757,-2629,-1235,9639,44,36,805
380671,5946268,6368924,5949062,6375046,1728,3386,-785,-3577,2160,-2761,-650,8983,42,26,805
381671,5946428,6369140,5949259,6375243,1846,3103,-504,-2805,2373,-2855,-302,8200,42,26,805
382672,5946600,6369292,5949456,6375440,1783,3524,-226,-2107,2516,-2898,225,9476,30,28,803
383673,5946768,6369460,5949653,6375637,1820,3438,14,-1447,2634,-2248,485,8652,30,28,803
384674,5946940,6369656,5949850,6375834,1807,3264,273,-834,2718,-2169,392,8176,40,39,805
385675,5947092,6369864,5950047,6376031,1952,3186,601,-563,2803,-2049,460,7485,40,39,805
386676,5947232,6370128,5950244,6376228,2053,2808,947,-441,2820,-1212,310,6996,45,51,804
387677,5947412,6370308,5950441,6376425,1811,3342,1286,-463,2806,-772,497,6236,45,51,804
388679,5947544,6370504,5950638,6376622,2140,3243,1578,-621,2789,-540,576,5910,25,36,804
389679,5947716,6370692,5950835,6376819,1902,3298,1821,-911,2748,-27,316,5492,25,36,804
390680,5947884,6370904,5951032,6377016,1940,3142,2050,-1229,2723,364,436,5469,45,34,803
391681,5948028,6371112,5951229,6377213,2114,3164,2261,-1403,2661,755,581,5536,45,34,803
392682,5948132,6371364,5951426,6377410,2405,2866,2451,-1753,2528,864,446,4886,22,48,803
393683,5948288,6371556,5951623,6377607,2099,3245,2644,-2127,2391,742,403,5121,22,48,803
394684,5948400,6371748,5951820,6377804,2412,3248,2819,-2441,2235,954,641,5072,41,51,804
395685,5948492,6371940,5952017,6378001,2584,3251,2954,-2580,2049,977,560,5415,41,51,804
396687,5948648,6372120,5952214,6378198,2203,3334,3072,-2660,1878,753,322,5550,40,54,802
397687,5948772,6372296,5952411,6378395,2436,3370,3195,-2728,1692,783,172,5549,40,54,802
398688,5948900,6372588,5952608,6378592,2441,2605,3309,-2640,1518,723,-25,5933,30,55,800
399689,5949072,6372824,5952805,6378789,2178,2939,3414,-2417,1381,295,-9,6104,30,55,800
400690,5949204,6373028,5953002,6378986,2458,3137,3479,-2156,1259,-82,90,6219,43,36,798
401691,5949324,6373212,5953199,6379183,2566,3268,3525,-1832,1201,-407,-187,6329,43,36,798
402692,5949468,6373404,5953396,6379380,2441,3222,3567,-1445,1196,-475,-495,6316,29,39,803
403693,5949604,6373648,5953593,6379577,2518,2877,3604,-1054,1193,-573,-637,6026,29,39,803
404694,5949736,6373904,5953790,6379774,2573,2777,3654,-755,1207,-899,-669,5733,25,56,801
405695,5949844,6374140,5953987,6379971,2762,2886,3716,-532,1222,-884,-426,5283,25,56,801
406696,5950016,6374352,5954184,6380168,2374,3031,3774,-355,1243,-846,-277,5108,42,50,804
407698,5950136,6374548,5954381,6380365,2734,3133,3820,-138,1275,-1043,-232,4959,42,50,804
408699,5950272,6374744,5954578,6380562,2662,3134,3864,32,1307,-1145,-345,4633,30,36,802
409700,5950444,6374984,5954775,6380759,2449,2841,3905,224,1367,-1248,-479,4652,30,36,802
410700,5950616,6375248,5954972,6380956,2460,2663,3928,487,1445,-1182,-464,4613,34,54,800
411701,5950760,6375484,5955169,6381153,2659,2822,3923,790,1511,-1123,-594,4526,34,54,800
412702,5950928,6375692,5955366,6381350,2523,2993,3906,1083,1599,-1170,-877,4486,44,40,803
413703,5951108,6375912,5955563,6381547,2456,2909,3875,1326,1692,-955,-884,4235,44,40,803
414704,5951248,6376116,5955760,6381744,2732,3007,3830,1530,1771,-672,-783,3895,27,47,803
415705,5951400,6376332,5955957,6381941,2678,2924,3786,1623,1843,-429,-634,3396,27,47,803
416706,5951596,6376632,5956154,6382138,2405,2355,3740,1578,1901,-148,-541,2933,33,62,804
417707,5951808,6376908,5956351,6382335,2298,2472,3679,1430,1927,-4,-267,2631,33,62,804
418708,5951992,6377172,5956548,6382532,2480,2519,3603,1269,1888,68,149,2357,43,45,803
419709,5952192,6377408,5956745,6382729,2379,2678,3521,1088,1812,77,339,2111,43,45,803
420710,5952392,6377652,5956942,6382926,2379,2608,3436,830,1714,138,491,1842,50,58,807
421711,5952580,6377944,5957139,6383123,2459,2267,3325,510,1594,589,39,1692,50,58,807
422712,5952760,6378272,5957336,6383320,2517,1986,3198,167,1475,1001,-411,1425,36,66,805
423713,5953008,6378560,5957533,6383517,2071,2197,3072,-212,1367,1161,-529,1361,36,66,805
424714,5953208,6378848,5957730,6383714,2370,2157,2938,-536,1274,1089,-603,1373,43,65,808
425722,5953412,6379152,5957960,6383944,2357,2025,2781,-804,1207,1017,-581,1434,43,65,808
426716,5953644,6379508,5958157,6384141,2168,1631,2579,-1021,1132,1009,-582,1410,42,55,810
427717,5953848,6379840,5958354,6384338,2341,1723,2342,-1217,1016,1016,-354,1380,42,55,810
428719,5954060,6380136,5958551,6384535,2285,1906,2114,-1387,869,1085,-138,1427,49,68,810
429719,5954284,6380432,5958748,6384732,2199,1863,1918,-1519,726,1208,-114,1495,49,68,810
430720,5954532,6380808,5958945,6384929,2028,1285,1713,-1546,608,1145,71,1766,48,70,812
431721,5954768,6381168,5959142,6385126,2086,1314,1462,-1468,546,1086,155,1999,48,70,812
432723,5954988,6381532,5959339,6385323,2177,1216,1194,-1353,536,1032,102,2022,39,57,810
433723,5955220,6381816,5959536,6385520,2087,1679,922,-1217,541,1055,306,2023,39,57,810
434724,5955436,6382128,5959733,6385717,2180,1455,668,-1092,527,1106,492,1892,38,69,813
435725,5955648,6382460,5959930,6385914,2199,1270,458,-955,507,1075,565,1821,38,69,813
436726,5955892,6382804,5960127,6386111,1980,1132,300,-843,519,1087,514,1925,55,57,813
437727,5956128,6383116,5960324,6386308,2012,1282,172,-693,571,1143,609,2051,55,57,813
438728,5956348,6383412,5960521,6386505,2103,1339,48,-563,634,1236,850,1918,39,68,814
439729,5956576,6383748,5960718,6386702,2041,1029,-89,-391,656,1319,1118,1826,39,68,814
440731,5956776,6384056,5960915,6386899,2215,1155,-219,-302,620,1367,1248,1685,48,68,815
441731,5956924,6384332,5961112,6387096,2563,1321,-334,-221,555,1478,1061,1810,48,68,815
442732,5957148,6384584,5961309,6387293,2076,1447,-439,-74,513,1616,746,1948,41,50,816
443733,5957368,6384900,5961506,6387490,2092,996,-551,111,493,1693,826,1998,41,50,816
444735,5957568,6385200,5961703,6387687,2217,1050,-679,328,485,1817,747,2113,45,63,811
445735,5957800,6385520,5961900,6387884,2002,872,-807,546,498,1996,472,2161,45,63,811
446736,5957984,6385772,5962097,6388081,2309,1273,-919,766,510,2092,291,2272,36,55,816
447737,5958188,6385980,5962294,6388278,2181,1544,-1022,1002,495,2087,204,2342,36,55,816
448739,5958396,6386308,5962491,6388475,2152,737,-1109,1244,440,2162,43,2307,47,55,817
449739,5958680,6386616,5962688,6388672,1640,814,-1197,1479,336,2252,160,2378,47,55,817
450740,5958948,6386920,5962885,6388869,1710,792,-1296,1726,172,2280,294,2498,41,55,814
451741,5959192,6387156,5963082,6389066,1839,1200,-1407,2017,-29,2286,324,2540,41,55,814
452743,5959496,6387384,5963279,6389263,1418,1237,-1510,2272,-262,2300,334,2406,52,49,819
453743,5959752,6387644,5963476,6389460,1693,1010,-1611,2517,-520,2302,290,2425,52,49,819
454744,5959992,6387912,5963673,6389657,1775,929,-1725,2798,-771,2308,61,2550,56,54,815
455745,5960332,6388200,5963870,6389854,1087,764,-1832,3063,-1017,2219,31,2552,56,54,815
456746,5960596,6388428,5964067,6390051,1534,1126,-1915,3303,-1273,2041,219,2582,54,46,817
457747,5960868,6388644,5964264,6390248,1452,1192,-1953,3525,-1544,1945,76,2578,54,46,817
458748,5961176,6388884,5964461,6390445,1178,1024,-1958,3691,-1812,1947,-74,2516,53,49,821
459749,5961496,6389112,5964658,6390642,1050,1086,-1978,3853,-2102,1733,771,2539,53,49,821
460750,5961756,6389336,5964855,6390839,1397,1099,-2010,4056,-2353,1673,775,2664,71,36,819
461751,5962036,6389536,5965052,6391036,1237,1249,-2075,4401,-2489,1767,116,3463,71,36,819
462752,5962292,6389740,5965249,6391233,1362,1221,-2153,4894,-2589,1432,335,3781,65,41,821
463753,5962596,6389900,5965446,6391430,1015,1512,-2198,5228,-2727,1133,879,3010,65,41,821
464754,5962888,6390056,5965643,6391627,1049,1555,-2255,5428,-2879,973,1033,3120,50,31,819
465755,5963184,6390176,5965840,6391824,981,1815,-2320,5400,-2992,842,777,2372,50,31,819
466756,5963436,6390300,5966037,6392021,1233,1822,-2322,5128,-3065,618,500,1511,60,23,818
467757,5963672,6390492,5966234,6392218,1315,1399,-2290,4723,-3100,425,518,1282,60,23,818
468758,5963956,6390668,5966431,6392415,978,1509,-2270,4301,-3134,149,449,1355,61,33,817
469759,5964208,6390824,5966628,6392612,1154,1652,-2270,3971,-3138,-87,110,1776,61,33,817
470760,5964400,6390984,5966825,6392809,1532,1644,-2315,3813,-3082,-240,-197,2375,55,35,818
471761,5964592,6391140,5967022,6393006,1534,1688,-2375,3779,-2934,-383,-636,2658,55,35,818
472762,5964752,6391264,5967219,6393203,1752,1920,-2417,3655,-2743,-549,-587,2457,42,22,818
473763,5964908,6391404,5967416,6393400,1795,1845,-2438,3482,-2570,-646,-332,2489,42,22,818
474764,5965064,6391532,5967613,6393597,1814,1951,-2455,3243,-2425,-777,-10,2325,21,35,816
475765,5965200,6391620,5967810,6393794,1965,2249,-2468,2878,-2276,-880,384,2154,21,35,816
476766,5965352,6391812,5968007,6393991,1886,1602,-2499,2437,-2101,-843,665,2250,29,20,812
477767,5965524,6391968,5968204,6394188,1772,1845,-2552,2010,-1867,-728,664,2341,29,20,812
478768,5965692,6392128,5968401,6394385,1811,1837,-2628,1617,-1584,-569,634,2484,36,20,809
479769,5965852,6392244,5968598,6394582,1877,2148,-2720,1288,-1260,-600,583,2787,36,20,809
480770,5966072,6392384,5968795,6394779,1493,2023,-2818,994,-917,-686,584,3004,47,32,813
481771,5966236,6392520,5968992,6394976,1858,2076,-2902,642,-589,-606,617,2854,47,32,813
482772,5966384,6392664,5969189,6395173,1980,2049,-2999,258,-287,-506,617,3047,44,18,811
483773,5966584,6392812,5969386,6395370,1654,2047,-3131,-123,-40,-364,622,3058,44,18,811
484774,5966752,6392944,5969583,6395567,1868,2175,-3283,-497,153,-270,642,3245,44,34,812
485775,5966880,6393056,5969780,6395764,2148,2339,-3454,-829,311,-155,620,3491,44,34,812
486776,5967096,6393160,5969977,6395961,1591,2429,-3629,-1157,441,24,558,3507,30,26,813
487777,5967284,6393340,5970174,6396158,1770,1963,-3829,-1446,540,194,251,3880,30,26,813
488778,5967476,6393528,5970371,6396355,1748,1917,-4035,-1689,618,377,-225,4065,46,25,808
489779,5967652,6393712,5970568,6396552,1857,1949,-4233,-1941,682,628,-752,4201,46,25,808
490780,5967884,6393908,5970765,6396749,1493,1874,-4374,-2165,704,807,-998,4359,30,37,813
491781,5968072,6394036,5970962,6396946,1773,2330,-4420,-2388,658,942,-1046,4323,30,37,813
492782,5968232,6394164,5971159,6397143,1964,2362,-4394,-2600,565,1154,-1186,4473,42,35,812
493783,5968468,6394304,5971356,6397340,1473,2312,-4362,-2800,462,1488,-1419,4714,42,35,812
494784,5968664,6394464,5971553,6397537,1723,2204,-4410,-2824,344,1943,-1459,5475,32,26,811
495785,5968820,6394668,5971750,6397734,1992,1926,-4575,-2606,195,2379,-1455,6152,32,26,811
496786,5969024,6394840,5971947,6397931,1689,2138,-4631,-2640,36,2546,-1600,4835,38,24,812
497787,5969248,6395012,5972144,6398128,1553,2149,-4545,-2914,-75,2678,-1717,4826,38,24,812
498788,5969424,6395168,5972341,6398325,1862,2268,-4407,-3105,-133,2458,-1940,5373,27,40,811
499789,5969628,6395316,5972538,6398522,1685,2340,-4286,-3069,-187,2066,-1931,6066,27,40,811
500790,5969804,6395452,5972735,6398719,1870,2442,-4178,-2848,-292,1810,-1702,6558,45,38,811
501791,5970020,6395640,5972932,6398916,1612,2122,-4073,-2509,-446,1773,-1556,7044,45,38,811
502792,5970216,6395784,5973129,6399113,1739,2420,-3954,-2094,-589,1618,-1659,7231,35,24,811
503793,5970428,6395932,5973326,6399310,1632,2418,-3803,-1636,-658,1354,-2145,7607,35,24,811
504794,5970628,6396096,5973523,6399507,1707,2333,-3595,-1198,-699,1129,-2229,7560,43,32,813
505795,5970852,6396236,5973720,6399704,1545,2509,-3344,-781,-744,990,-2145,7706,43,32,813
506796,5971052,6396352,5973917,6399901,1695,2695,-3065,-311,-769,937,-2042,7871,30,23,811
507797,5971280,6396520,5974114,6400098,1506,2384,-2756,93,-803,739,-1420,7816,30,23,811
508805,5971476,6396672,5974344,6400328,1722,2518,-2445,498,-873,580,-625,7913,45,38,811
509799,5971668,6396800,5974541,6400525,1749,2699,-2163,918,-902,650,-633,8018,45,38,811
510801,5971916,6396952,5974738,6400722,1378,2570,-1894,1351,-861,638,-887,7942,45,24,810
511801,5972072,6397112,5974935,6400919,1972,2537,-1580,1737,-763,475,-891,7983,45,24,810
512802,5972252,6397296,5975132,6401116,1829,2393,-1211,2229,-607,342,-848,9241,29,32,809
513803,5972448,6397532,5975329,6401313,1731,2052,-553,3324,-381,192,-621,14724,29,32,809
514804,5972628,6397756,5975526,6401510,1838,2116,316,4542,-122,62,-400,14700,31,42,809
515805,5972792,6398032,5975723,6401707,1954,1756,869,4881,70,682,-203,8044,31,42,809
516806,5973000,6398256,5975920,6401904,1674,2071,1085,4361,233,1222,-382,5518,31,39,813
517807,5973156,6398500,5976117,6402101,2018,1926,1167,3642,424,1388,-387,5141,31,39,813
518808,5973328,6398696,5976314,6402298,1929,2227,1280,3142,648,1081,-112,5357,22,42,813
519809,5973504,6398932,5976511,6402495,1914,1960,1451,2818,864,694,-48,5761,22,42,813
520810,5973684,6399140,5976708,6402692,1897,2131,1614,2658,1005,605,108,6189,25,44,811
521811,5973840,6399360,5976905,6402889,2065,2047,1730,2627,1030,479,445,6328,25,44,811
522812,5974000,6399564,5977102,6403086,2058,2144,1806,2629,928,343,472,6265,36,49,811
523813,5974192,6399768,5977299,6403283,1860,2142,1894,2535,684,114,424,6006,36,49,811
524814,5974332,6399952,5977496,6403480,2211,2274,2015,2395,392,106,-259,5925,43,35,811
525815,5974504,6400168,5977693,6403677,2022,2066,2110,2299,167,337,-1605,5950,43,35,811
526816,5974692,6400376,5977890,6403874,1927,2112,2110,2268,-11,283,-1626,6075,24,43,811
527817,5974840,6400560,5978087,6404071,2199,2268,2043,2183,-218,28,-961,5751,24,43,811
528818,5974996,6400736,5978284,6404268,2167,2328,1962,2032,-487,17,-232,5356,24,35,811
529819,5975152,6400944,5978481,6404465,2186,2124,1901,1693,-796,2,373,4741,24,35,811
530820,5975300,6401144,5978678,6404662,2259,2173,1895,1223,-1096,154,395,4394,26,43,808
531821,5975448,6401304,5978875,6404859,2281,2440,1953,655,-1291,396,85,4064,26,43,808
532822,5975620,6401468,5979072,6405056,2142,2430,2049,153,-1330,547,-172,4175,25,43,809
533823,5975772,6401636,5979269,6405253,2288,2419,2145,-388,-1301,566,285,3819,25,43,809
534824,5975888,6401800,5979466,6405450,2549,2459,2235,-935,-1246,411,316,3751,38,35,807
535825,5976068,6401988,5979663,6405647,2157,2313,2331,-1437,-1091,259,-298,3760,38,35,807
536826,5976224,6402192,5979860,6405844,2326,2211,2404,-1897,-819,95,-679,3738,30,45,807
537827,5976376,6402384,5980057,6406041,2371,2289,2442,-2273,-458,-281,-513,3900,30,45,807
538828,5976536,6402576,5980254,6406238,2338,2292,2475,-2558,-75,-715,-124,4031,47,45,809
539829,5976708,6402768,5980451,6406435,2275,2295,2526,-2703,288,-1075,9,4447,47,45,809
540831,5976856,6402968,5980648,6406632,2447,2244,2604,-2662,627,-1464,33,4776,49,49,808
541831,5977036,6403164,5980845,6406829,2255,2270,2672,-2341,918,-1761,16,5480,49,49,808
542833,5977216,6403412,5981042,6407026,2264,1924,2724,-1772,1162,-2093,-134,5893,33,39,807
543833,5977396,6403628,5981239,6407223,2272,2116,2769,-1062,1413,-2305,-869,6249,33,39,807
544835,5977540,6403832,5981436,6407420,2521,2188,2818,-312,1671,-2449,-1153,6197,31,35,807
545835,5977712,6404048,5981633,6407617,2358,2106,2884,355,1859,-2629,-424,5860,31,35,807
546836,5977888,6404248,5981830,6407814,2343,2206,2944,948,1939,-2656,-158,5570,45,36,809
547837,5978016,6404448,5982027,6408011,2674,2204,2973,1434,1971,-2413,-863,5131,45,36,809
548838,5978204,6404660,5982224,6408208,2303,2124,2964,1841,2031,-2062,-1655,4787,43,47,808
549839,5978356,6404912,5982421,6408405,2549,1851,2936,2106,2107,-1806,-1873,4239,43,47,808
550840,5978564,6405128,5982618,6408602,2195,2067,2886,2262,2170,-1550,-1928,3956,42,38,806
551841,5978720,6405312,5982815,6408799,2539,2274,2823,2295,2238,-1186,-1915,3387,42,38,806
552842,5978876,6405516,5983012,6408996,2557,2147,2742,2136,2328,-745,-1812,2846,41,45,808
553843,5979016,6405752,5983209,6409193,2683,1930,2633,1801,2415,-392,-1222,2267,41,45,808
554844,5979144,6406012,5983406,6409390,2789,1753,2496,1381,2486,-136,-363,1895,34,41,806
555845,5979292,6406252,5983603,6409587,2687,1860,2346,882,2537,143,99,1526,34,41,806
556846,5979440,6406472,5983800,6409784,2710,1975,2230,281,2576,387,405,1387,30,48,807
557847,5979580,6406688,5983997,6409981,2785,1993,2153,-269,2610,569,518,1500,30,48,807
558848,5979712,6406940,5984194,6410178,2864,1743,2100,-732,2625,736,18,1633,43,47,808
559849,5979864,6407180,5984391,6410375,2760,1801,2052,-1081,2633,792,-800,1919,43,47,808
560850,5980016,6407460,5984588,6410572,2781,1515,2003,-1344,2639,772,-908,2138,40,43,807
561851,5980200,6407716,5984785,6410769,2587,1639,1938,-1480,2608,624,-389,2401,40,43,807
562852,5980396,6407992,5984982,6410966,2514,1480,1848,-1512,2536,388,389,2623,38,48,808
563853,5980592,6408164,5985179,6411163,2515,2141,1716,-1354,2459,247,687,3261,38,48,808
564854,5980756,6408320,5985376,6411360,2730,2260,1560,-1080,2378,112,672,3494,44,34,809
565855,5980928,6408480,5985573,6411557,2692,2253,1431,-697,2288,13,452,3686,44,34,809
566856,5981080,6408676,5985770,6411754,2838,2028,1347,-190,2197,-68,198,4067,51,40,807
567857,5981236,6408892,5985967,6411951,2832,1896,1315,362,2123,-260,148,4074,51,40,807
568858,5981384,6409120,5986164,6412148,2904,1807,1299,943,2046,-408,-529,4092,47,35,806
569859,5981568,6409404,5986361,6412345,2686,1420,1302,1448,1954,-495,-641,3921,47,35,806
570860,5981716,6409724,5986558,6412542,2933,1141,1311,1918,1832,-492,543,3769,32,62,807
571861,5981848,6410032,5986755,6412739,3063,1168,1290,2395,1753,-339,943,3718,32,62,807
572863,5981988,6410320,5986952,6412936,3039,1254,1225,2796,1722,-178,1055,3507,42,62,810
573863,5982124,6410600,5987149,6413133,3092,1268,1135,3111,1661,-117,1184,3357,42,62,810
574864,5982272,6410880,5987346,6413330,3039,1232,1033,3440,1585,0,500,3219,44,72,809
575865,5982436,6411220,5987543,6413527,2955,794,914,3638,1569,139,-484,2934,44,72,809
576866,5982588,6411584,5987740,6413724,3051,571,766,3805,1577,179,-516,2795,39,76,807
577867,5982760,6411900,5987937,6413921,2938,820,577,3812,1513,109,264,2322,39,76,807
578868,5982944,6412208,5988134,6414118,2869,821,353,3753,1356,142,798,2218,32,67,811
579869,5983116,6412516,5988331,6414315,2955,773,155,3692,1212,250,669,2248,32,67,811
580870,5983300,6412840,5988528,6414512,2887,617,2,3699,1120,337,627,2452,48,59,811
581871,5983476,6413160,5988725,6414709,2947,588,-128,3747,1019,306,868,2470,48,59,811
582872,5983680,6413484,5988922,6414906,2770,508,-274,3744,846,276,1126,2382,35,70,811
583873,5983888,6413800,5989119,6415103,2741,506,-428,3695,619,270,1129,2339,35,70,811
584874,5984084,6414112,5989316,6415300,2818,481,-590,3559,387,273,1119,2130,38,56,812
585875,5984320,6414420,5989513,6415497,2552,457,-761,3391,166,331,1087,2182,38,56,812
586876,5984524,6414680,5989710,6415694,2750,729,-958,3169,-28,361,1220,2108,40,49,813
587877,5984724,6414920,5989907,6415891,2774,836,-1186,3003,-220,385,1514,2278,40,49,813
588879,5984964,6415148,5990104,6416088,2506,898,-1438,2887,-433,295,1770,2390,56,53,814
589879,5985176,6415352,5990301,6416285,2676,1045,-1700,2782,-682,157,2032,2472,56,53,814
590880,5985380,6415512,5990498,6416482,2724,1336,-1947,2721,-985,82,2138,2646,55,31,812
591890,5985616,6415660,5990728,6416712,2522,1447,-2178,2654,-1331,54,2205,2669,55,31,812
592882,5985828,6415800,5990925,6416909,2666,1523,-2403,2701,-1681,-35,1984,3069,37,41,812
593883,5986020,6415980,5991122,6417106,2795,1280,-2623,2857,-1985,-199,1369,3344,37,41,812
594884,5986268,6416120,5991319,6417303,2423,1555,-2857,3025,-2190,-243,413,3515,37,36,811
595885,5986496,6416240,5991516,6417500,2536,1714,-3088,3198,-2301,-303,16,3577,37,36,811
596886,5986688,6416364,5991713,6417697,2764,1721,-3289,3308,-2391,-553,177,3559,60,23,810
597887,5986940,6416528,5991910,6417894,2366,1487,-3449,3393,-2546,-926,784,3471,60,23,810
598888,5987160,6416724,5992107,6418091,2556,1287,-3561,3286,-2779,-1196,1093,2990,56,38,809
599889,5987352,6416904,5992304,6418288,2735,1395,-3648,3123,-3038,-1197,679,3082,56,38,809
600890,5987560,6417076,5992501,6418485,2631,1457,-3676,2896,-3244,-1203,-48,2889,47,38,812
601891,5987744,6417180,5992698,6418682,2788,1923,-3642,2684,-3374,-1236,-575,2985,47,38,812
602892,5987940,6417328,5992895,6418879,2714,1669,-3556,2427,-3433,-1259,-868,2922,41,31,810
603893,5988128,6417472,5993092,6419076,2769,1717,-3473,2168,-3422,-1156,-1194,3140,41,31,810
604894,5988336,6417676,5993289,6419273,2640,1340,-3458,2107,-3345,-1090,-1594,3867,52,42,807
605895,5988532,6417848,5993486,6419470,2717,1551,-3497,2084,-3205,-1216,-1864,4030,52,42,807
606896,5988708,6418028,5993683,6419667,2852,1509,-3516,2025,-3026,-1289,-2016,4001,53,41,809
607897,5988928,6418176,5993880,6419864,2568,1731,-3500,1881,-2856,-1288,-1957,3849,53,41,809
608898,5989104,6418352,5994077,6420061,2853,1566,-3465,1662,-2766,-1393,-1784,3779,41,39,808
609899,5989256,6418484,5994274,6420258,3023,1869,-3378,1313,-2764,-1624,-1766,3372,41,39,808
610900,5989472,6418684,5994471,6420455,2615,1444,-3213,903,-2787,-1728,-1992,3455,29,30,808
611901,5989664,6418804,5994668,6420652,2769,1978,-3028,614,-2772,-1730,-2317,4096,29,30,808
612902,5989836,6418884,5994865,6420849,2906,2279,-2865,523,-2696,-1802,-2651,4675,45,20,805
613903,5990056,6418972,5995062,6421046,2596,2278,-2706,483,-2556,-1786,-3105,4818,45,20,805
614904,5990240,6419148,5995259,6421243,2828,1737,-2559,404,-2373,-1737,-3331,4876,48,27,806
615905,5990436,6419320,5995456,6421440,2755,1773,-2426,232,-2207,-1690,-3118,4707,48,27,806
616906,5990680,6419516,5995653,6421637,2435,1625,-2296,-7,-2112,-1707,-2532,4589,49,26,807
617907,5990896,6419656,5995850,6421834,2603,2000,-2150,-260,-2056,-1687,-2439,4729,49,26,807
618908,5991080,6419772,5996047,6422031,2809,2186,-1984,-491,-1976,-1658,-2784,4982,56,39,808
619909,5991368,6419904,5996244,6422228,2120,2115,-1815,-580,-1877,-1601,-2865,5500,56,39,808
620910,5991604,6420064,5996441,6422425,2429,1956,-1651,-575,-1798,-1571,-2673,5727,41,31,807
621911,5991832,6420224,5996638,6422622,2467,1973,-1492,-582,-1739,-1515,-2314,5849,41,31,807
622912,5992076,6420368,5996835,6422819,2347,2097,-1313,-610,-1711,-1382,-1723,5747,52,35,810
623913,5992372,6420512,5997032,6423016,1979,2121,-1098,-665,-1698,-1186,-1320,5774,52,35,810
624914,5992628,6420628,5997229,6423213,2204,2331,-838,-738,-1675,-949,-1064,5789,44,25,809
625915,5992888,6420728,5997426,6423410,2152,2475,-548,-862,-1621,-737,-896,5733,44,25,809
626916,5993180,6420900,5997623,6423607,1911,2036,-244,-974,-1560,-616,-769,5800,59,28,810
627917,5993440,6421060,5997820,6423804,2084,2128,50,-1139,-1509,-411,-639,5728,59,28,810
628918,5993720,6421208,5998017,6424001,1924,2225,344,-1276,-1468,-180,-515,5783,57,24,808
629919,5994052,6421332,5998214,6424198,1541,2408,634,-1426,-1428,-98,-459,5674,57,24,808
630920,5994328,6421452,5998411,6424395,1857,2467,948,-1551,-1401,3,-648,5827,66,26,809
631921,5994620,6421516,5998608,6424592,1715,2876,1238,-1672,-1385,131,-720,5808,66,26,809
632922,5994916,6421636,5998805,6424789,1648,2561,1494,-1751,-1376,286,-351,5909,50,37,810
633923,5995200,6421772,5999002,6424986,1685,2488,1709,-1790,-1358,423,-91,6036,50,37,810
634924,5995504,6421920,5999199,6425183,1514,2435,1897,-1830,-1305,510,108,6009,50,23,808
635925,5995792,6422060,5999396,6425380,1574,2510,2063,-1830,-1256,584,420,6137,50,23,808
636926,5996084,6422188,5999593,6425577,1509,2617,2216,-1780,-1232,672,623,6130,66,21,810
637927,5996380,6422304,5999790,6425774,1441,2728,2367,-1701,-1238,723,617,6026,66,21,810
638928,5996640,6422432,5999987,6425971,1638,2684,2526,-1680,-1284,680,515,5898,58,18,810
639929,5996924,6422564,6000184,6426168,1451,2688,2708,-1667,-1348,665,364,5778,58,18,810
640930,5997196,6422696,6000381,6426365,1494,2718,2884,-1630,-1405,731,365,5834,62,35,810
641931,5997432,6422828,6000578,6426562,1702,2746,3031,-1542,-1452,760,225,5852,62,35,810
642932,5997724,6422924,6000775,6426759,1311,3017,3153,-1423,-1473,710,119,5837,39,33,808
643933,5997952,6423068,6000972,6426956,1698,2741,3272,-1280,-1460,655,106,5704,39,33,808
644934,5998180,6423176,6001169,6427153,1685,3006,3361,-1178,-1432,540,183,5527,54,36,808
645936,5998424,6423328,6001366,6427350,1564,2751,3430,-1087,-1408,440,198,5381,54,36,808
646936,5998656,6423468,6001563,6427547,1625,2852,3458,-1017,-1385,238,310,5158,40,37,808
647937,5998896,6423632,6001760,6427744,1557,2718,3488,-1017,-1371,49,514,4865,40,37,808
648938,5999156,6423748,6001957,6427941,1404,3054,3510,-1044,-1368,-81,509,4699,44,32,809
649939,5999388,6423888,6002154,6428138,1565,2929,3555,-1060,-1359,-279,395,4507,44,32,809
650940,5999640,6424004,6002351,6428335,1416,3116,3603,-1050,-1333,-461,263,4519,46,39,809
651941,5999868,6424160,6002548,6428532,1553,2885,3636,-1018,-1287,-586,80,4457,46,39,809
652942,6000136,6424312,6002745,6428729,1272,2931,3641,-939,-1203,-629,32,4331,55,38,806
653943,6000388,6424456,6002942,6428926,1349,3005,3603,-857,-1075,-724,30,4328,55,38,806
654944,6000660,6424616,6003139,6429123,1191,2922,3551,-782,-934,-916,88,4131,60,33,807
655945,6000924,6424760,6003336,6429320,1212,3046,3488,-752,-797,-1105,149,3996,60,33,807
656946,6001228,6424936,6003533,6429517,915,2856,3442,-717,-685,-1291,308,3725,51,28,808
657947,6001512,6425088,6003730,6429714,1003,3026,3398,-733,-598,-1439,469,3583,51,28,808
658948,6001800,6425252,6003927,6429911,938,2967,3353,-768,-531,-1524,557,3348,63,44,807
659949,6002060,6425436,6004124,6430108,1086,2849,3283,-827,-465,-1567,637,3255,63,44,807
660950,6002348,6425632,6004321,6430305,872,2775,3192,-903,-372,-1582,566,3108,60,32,810
661951,6002600,6425816,6004518,6430502,1072,2857,3070,-994,-260,-1512,541,2998,60,32,810
662952,6002872,6425988,6004715,6430699,915,2944,2928,-1085,-141,-1545,660,2792,59,43,810
663953,6003120,6426196,6004912,6430896,1043,2715,2772,-1210,-13,-1549,658,2510,59,43,810
664954,6003368,6426384,6005109,6431093,1021,2844,2621,-1416,114,-1524,698,2258,61,42,810
665955,6003588,6426568,6005306,6431290,1186,2876,2477,-1732,257,-1390,671,1893,61,42,810
666956,6003816,6426752,6005503,6431487,1123,2882,2337,-2075,435,-1210,554,1799,57,35,811
667957,6004056,6426936,6005700,6431684,1029,2889,2197,-2455,652,-1076,377,1480,57,35,811
668958,6004244,6427148,6005897,6431881,1359,2708,2037,-2857,901,-963,73,1438,35,38,810
669959,6004460,6427376,6006094,6432078,1176,2596,1856,-3198,1167,-848,4,1491,35,38,810
670960,6004664,6427636,6006291,6432275,1247,2369,1666,-3557,1429,-731,45,1475,47,39,810
671961,6004844,6427856,6006488,6432472,1405,2610,1488,-3829,1665,-667,225,1604,47,39,810
672962,6005032,6428060,6006685,6432669,1360,2708,1305,-4034,1861,-668,482,1734,44,50,812
673963,6005224,6428288,6006882,6432866,1337,2545,1082,-4180,1989,-660,626,2020,44,50,812
674971,6005388,6428488,6007112,6433096,1541,2734,839,-4266,2072,-574,385,2180,29,40,809
675965,6005560,6428724,6007309,6433293,1503,2492,579,-4250,2168,-376,-78,2409,29,40,809
676966,6005732,6428960,6007506,6433490,1514,2476,316,-4171,2303,-181,-415,2664,44,36,810
677968,6005852,6429140,6007703,6433687,1873,2835,55,-4052,2461,-32,-462,2775,44,36,810
678968,6006048,6429296,6007900,6433884,1399,3004,-203,-3934,2591,232,-412,2761,43,48,811
679969,6006188,6429476,6008097,6434081,1774,2862,-462,-3762,2682,385,-383,2954,43,48,811
680970,6006348,6429676,6008294,6434278,1666,2737,-724,-3564,2742,423,-317,3121,44,33,807
681971,6006532,6429888,6008491,6434475,1522,2656,-981,-3377,2746,516,-265,3058,44,33,807
682972,6006688,6430052,6008688,6434672,1715,2971,-1227,-3193,2710,637,-243,3140,43,28,807
683973,6006848,6430184,6008885,6434869,1708,3200,-1464,-3019,2613,739,-152,3155,43,28,807
684974,6007024,6430316,6009082,6435066,1617,3230,-1690,-2879,2445,827,-124,3187,24,24,809
685975,6007204,6430472,6009279,6435263,1599,3099,-1894,-2702,2226,842,-139,3350,24,24,809
686976,6007376,6430612,6009476,6435460,1661,3225,-2074,-2529,1974,931,-227,3493,42,22,804
687977,6007532,6430788,6009673,6435657,1779,3010,-2232,-2318,1727,1100,-356,3631,42,22,804
688978,6007712,6430912,6009870,6435854,1638,3368,-2378,-2066,1519,1194,-516,3867,40,25,806
689979,6007888,6431040,6010067,6436051,1672,3375,-2516,-1800,1330,1260,-616,4022,40,25,806
690980,6008052,6431168,6010264,6436248,1762,3406,-2652,-1487,1148,1355,-725,4273,44,20,806
691981,6008276,6431296,6010461,6436445,1376,3437,-2812,-1121,955,1402,-652,4680,44,20,806
692982,6008468,6431472,6010658,6436642,1578,3147,-2960,-763,752,1299,-613,4642,42,38,803
693983,6008648,6431620,6010855,6436839,1661,3345,-3081,-444,565,1084,-723,4679,42,38,803
694984,6008848,6431760,6011052,6437036,1535,3421,-3156,-126,406,918,-702,4765,44,37,805
695985,6009052,6431856,6011249,6437233,1507,3741,-3191,143,251,680,-407,4796,44,37,805
696986,6009248,6431980,6011446,6437430,1558,3600,-3187,404,95,468,-67,4817,33,18,803
697987,6009436,6432136,6011643,6437627,1612,3419,-3164,619,-37,330,79,4907,33,18,803
698988,6009660,6432316,6011840,6437824,1377,3277,-3116,832,-116,218,118,5011,33,27,801
699989,6009864,6432476,6012037,6438021,1498,3419,-3053,1037,-126,69,190,5171,33,27,801
700990,6010044,6432608,6012234,6438218,1657,3624,-2961,1234,-88,-210,270,5180,49,20,803
701991,6010240,6432736,6012431,6438415,1557,3680,-2840,1388,-19,-596,366,5262,49,20,803
702992,6010436,6432904,6012628,6438612,1558,3444,-2696,1560,49,-895,533,5298,44,27,804
703993,6010612,6433052,6012825,6438809,1693,3591,-2531,1663,115,-1126,620,5226,44,27,804
704994,6010800,6433260,6013022,6439006,1622,3213,-2338,1685,189,-1291,657,5245,35,37,801
705995,6011012,6433444,6013219,6439203,1466,3369,-2111,1663,259,-1476,707,5157,35,37,801
706996,6011156,6433612,6013416,6439400,1915,3483,-1869,1657,329,-1577,663,5290,37,45,802
707997,6011328,6433784,6013613,6439597,1751,3470,-1629,1573,413,-1645,623,5161,37,45,802
708998,6011524,6434012,6013810,6439794,1602,3108,-1419,1452,496,-1711,499,5047,50,41,804
709999,6011712,6434236,6014007,6439991,1656,3123,-1248,1305,577,-1780,389,5129,50,41,804
711000,6011860,6434444,6014204,6440188,1929,3219,-1073,1057,650,-1832,346,4953,46,31,802
712001,6012044,6434672,6014401,6440385,1709,3081,-852,770,705,-1879,326,4830,46,31,802
713002,6012216,6434848,6014598,6440582,1796,3416,-588,424,757,-1945,153,4640,31,35,805
714003,6012372,6435028,6014795,6440779,1914,3400,-355,208,833,-1970,-478,5223,31,35,805
715004,6012568,6435260,6014992,6440976,1666,3060,-161,37,945,-2006,-866,5313,25,52,806
716005,6012716,6435536,6015189,6441173,1987,2752,35,-148,1051,-2010,-888,5189,25,52,806
717006,6012836,6435780,6015386,6441370,2197,2932,210,-313,1151,-1906,-916,5463,33,41,803
718007,6013016,6436004,6015583,6441567,1830,3046,383,-511,1301,-1800,-1025,5364,33,41,803
719008,6013152,6436236,6015780,6441764,2131,2982,563,-785,1517,-1697,-1034,5139,46,45,806
720009,6013296,6436448,6015977,6441961,2106,3101,737,-1121,1736,-1544,-664,4915,46,45,806
721010,6013460,6436736,6016174,6442158,1995,2588,918,-1451,1907,-1480,-125,4839,31,44,805
722011,6013620,6436968,6016371,6442355,2037,2924,1108,-1836,1986,-1522,299,4681,31,44,805
723012,6013720,6437208,6016568,6442552,2456,2856,1286,-2166,2038,-1438,352,4944,43,53,804
724013,6013840,6437440,6016765,6442749,2365,2892,1443,-2429,2096,-1297,503,5111,43,53,804
725014,6013980,6437660,6016962,6442946,2266,2957,1605,-2548,2205,-1188,326,5292,26,39,805
726015,6014092,6437836,6017159,6443143,2478,3243,1771,-2620,2354,-1134,204,5385,26,39,805
727016,6014216,6438120,6017356,6443340,2436,2530,1925,-2670,2471,-1101,332,5541,30,46,804
728017,6014376,6438416,6017553,6443537,2228,2413,2077,-2686,2493,-1117,431,5486,30,46,804
729018,6014492,6438656,6017750,6443734,2539,2745,2244,-2671,2441,-1184,476,5458,22,43,801
730019,6014628,6438868,6017947,6443931,2442,2914,2415,-2616,2377,-1065,348,5601,22,43,801
731020,6014788,6439096,6018144,6444128,2308,2802,2564,-2536,2354,-856,14,5553,36,51,805
732021,6014908,6439348,6018341,6444325,2593,2629,2685,-2385,2379,-683,-323,5717,36,51,805
733022,6015016,6439628,6018538,6444522,2708,2417,2790,-2188,2424,-573,-587,5636,35,50,803
734023,6015168,6439856,6018735,6444719,2453,2730,2893,-2022,2470,-590,-643,5554,35,50,803
735024,6015324,6440092,6018932,6444916,2447,2663,3001,-1837,2506,-521,-586,5435,26,57,804
736025,6015452,6440300,6019129,6445113,2653,2835,3117,-1720,2517,-413,-492,5071,26,57,804
737026,6015616,6440544,6019326,6445310,2443,2590,3223,-1619,2504,-339,-415,4925,27,54,804
738027,6015776,6440800,6019523,6445507,2485,2490,3315,-1603,2481,-253,-377,4650,27,54,804
739028,6015940,6441036,6019720,6445704,2476,2599,3391,-1544,2458,-115,-377,4708,30,38,803
740029,6016108,6441232,6019917,6445901,2463,2850,3461,-1435,2451,-82,-367,4606,30,38,803
741030,6016328,6441492,6020114,6446098,2129,2424,3516,-1301,2451,-121,-116,4549,49,50,805
742031,6016476,6441700,6020311,6446295,2602,2745,3551,-1143,2434,-206,199,4570,49,50,805
743032,6016648,6441924,6020508,6446492,2464,2633,3573,-956,2404,-178,81,4419,52,53,803
744033,6016860,6442208,6020705,6446689,2207,2221,3588,-759,2356,-103,-92,4392,52,53,803
745034,6017020,6442496,6020902,6446886,2549,2157,3601,-568,2293,-119,-105,4269,40,44,804
746035,6017216,6442748,6021099,6447083,2326,2359,3594,-393,2203,-76,50,4071,40,44,804
747036,6017456,6442968,6021296,6447280,2033,2549,3572,-209,2131,110,-140,3948,47,56,809
748037,6017656,6443204,6021493,6447477,2282,2433,3534,9,2104,190,-208,3924,47,56,809
749038,6017848,6443532,6021690,6447674,2335,1802,3486,254,2106,190,-265,3904,56,60,808
750039,6018032,6443840,6021887,6447871,2392,1878,3430,476,2119,209,-340,3653,56,60,808
751040,6018268,6444140,6022084,6448068,2049,1884,3368,619,2088,382,144,3330,34,66,808
752041,6018476,6444380,6022281,6448265,2221,2241,3291,703,2005,639,477,2945,34,66,808
753042,6018680,6444676,6022478,6448462,2244,1848,3211,694,1904,757,423,2640,42,63,809
754043,6018920,6445004,6022675,6448659,2001,1591,3110,684,1828,733,329,2669,42,63,809
755044,6019120,6445352,6022872,6448856,2249,1400,2995,690,1786,747,275,2624,51,56,809
756045,6019336,6445664,6023069,6449053,2142,1576,2859,713,1764,905,241,2480,51,56,809
757046,6019560,6445948,6023266,6449250,2081,1713,2715,735,1722,1132,241,2335,36,55,813
758054,6019780,6446300,6023496,6449480,2111,1235,2580,730,1647,1239,375,2167,36,55,813
759048,6019996,6446628,6023693,6449677,2128,1328,2444,694,1545,1350,187,2122,57,56,813
760049,6020208,6446928,6023890,6449874,2148,1458,2306,675,1442,1263,304,2064,57,56,813
761050,6020432,6447248,6024087,6450071,2062,1280,2153,670,1343,1182,464,2018,37,52,814
762051,6020632,6447556,6024284,6450268,2210,1306,1982,618,1250,1264,268,1755,37,52,814
763052,6020856,6447896,6024481,6450465,2050,1044,1797,534,1155,1385,264,1673,50,70,812
764053,6021040,6448200,6024678,6450662,2306,1222,1599,482,1060,1463,247,1666,50,70,812
765054,6021256,6448512,6024875,6450859,2098,1123,1405,416,995,1443,198,1577,55,67,813
766055,6021524,6448760,6025072,6451056,1743,1500,1213,382,978,1472,80,1751,55,67,813
767056,6021736,6449064,6025269,6451253,2087,1104,1014,380,986,1554,332,1619,37,53,813
768057,6021928,6449388,6025466,6451450,2214,924,820,345,977,1673,635,1590,37,53,813
769058,6022116,6449688,6025663,6451647,2244,1028,642,311,927,1759,1012,1497,41,50,815
770059,6022316,6449936,6025860,6451844,2169,1332,483,204,827,1733,1718,1207,41,50,815
771060,6022484,6450196,6026057,6452041,2382,1229,322,132,692,1708,1779,1363,33,47,814
772061,6022668,6450484,6026254,6452238,2288,1014,175,151,585,1682,1399,1509,33,47,814
773062,6022900,6450812,6026451,6452435,1974,708,23,240,523,1665,1090,1689,28,49,813
774063,6023096,6451100,6026648,6452632,2199,918,-139,338,488,1704,854,1807,28,49,813
775064,6023276,6451404,6026845,6452829,2308,771,-308,498,468,1858,567,2008,49,63,813
776065,6023496,6451656,6027042,6453026,2049,1073,-473,718,443,1889,434,2173,49,63,813
777066,6023704,6451884,6027239,6453223,2119,1209,-638,980,383,1757,351,2311,48,60,815
778067,6023916,6452168,6027436,6453420,2088,821,-805,1286,279,1669,152,2458,48,60,815
779068,6024188,6452464,6027633,6453617,1681,702,-978,1589,154,1659,-37,2389,49,55,815
780069,6024476,6452704,6027830,6453814,1541,1034,-1164,1914,16,1703,-41,2529,49,55,815
781070,6024752,6452904,6028027,6454011,1583,1283,-1359,2209,-141,1712,68,2362,42,44,816
782071,6025024,6453172,6028224,6454208,1576,827,-1560,2489,-293,1661,72,2352,42,44,816
783072,6025292,6453436,6028421,6454405,1570,822,-1758,2801,-429,1699,-80,2427,48,41,818
784073,6025552,6453708,6028618,6454602,1593,739,-1948,3065,-567,1750,-237,2319,48,41,818
785074,6025872,6453932,6028815,6454799,1165,1029,-2102,3351,-731,1661,-253,2378,64,40,818
786075,6026156,6454124,6029012,6454996,1352,1231,-2222,3499,-920,1506,-298,2055,64,40,818
787076,6026432,6454320,6029209,6455193,1368,1206,-2323,3556,-1155,1465,-163,1922,56,36,818
788077,6026700,6454560,6029406,6455390,1387,912,-2416,3528,-1431,1394,277,1698,56,36,818
789078,6027024,6454752,6029603,6455587,982,1214,-2497,3431,-1737,1294,637,1606,64,34,818
790079,6027256,6454936,6029800,6455784,1541,1270,-2577,3425,-2009,1159,360,1886,64,34,818
791080,6027520,6455120,6029997,6455981,1313,1277,-2654,3473,-2186,1091,-8,2161,63,28,819
792081,6027764,6455288,6030194,6456178,1417,1390,-2766,3641,-2286,1265,-16,2671,63,28,819
793082,6028032,6455412,6030391,6456375,1237,1697,-2963,3987,-2324,1451,181,3599,41,27,817
794083,6028276,6455560,6030588,6456572,1367,1568,-3187,4393,-2364,1345,314,3498,41,27,817
795084,6028540,6455672,6030785,6456769,1212,1831,-3350,4498,-2447,1019,278,2596,42,35,817
796085,6028780,6455784,6030982,6456966,1344,1868,-3444,4415,-2561,990,240,2446,42,35,817
797086,6029004,6455944,6031179,6457163,1432,1585,-3454,4028,-2667,910,-123,1344,57,35,815
798087,6029240,6456108,6031376,6457360,1341,1575,-3372,3300,-2751,715,-272,474,57,35,815
799088,6029468,6456292,6031573,6457557,1378,1455,-3280,2450,-2809,594,-347,447,51,24,815
800089,6029672,6456428,6031770,6457754,1525,1782,-3249,1760,-2830,513,-499,1116,51,24,815
801091,6029848,6456568,6031967,6457951,1710,1783,-3317,1360,-2787,334,-842,1947,49,20,817
802091,6030004,6456712,6032164,6458148,1853,1782,-3449,1137,-2644,235,-1038,2402,49,20,817
803092,6030152,6456844,6032361,6458345,1925,1885,-3604,974,-2452,198,-862,2767,27,27,815
804093,6030296,6456976,6032558,6458542,1974,1914,-3744,754,-2258,164,-469,2764,27,27,815
805094,6030444,6457096,6032755,6458739,1971,2024,-3856,403,-2079,166,-106,2446,20,33,813
806095,6030584,6457212,6032952,6458936,2046,2084,-3949,-86,-1905,106,128,2330,20,33,813
807096,6030728,6457376,6033149,6459133,2044,1799,-4013,-583,-1718,18,510,2455,33,22,810
808097,6030932,6457516,6033346,6459330,1667,1975,-4087,-994,-1521,22,730,2886,33,22,810
809098,6031132,6457688,6033543,6459527,1691,1786,-4153,-1221,-1273,7,509,3505,48,37,809
810099,6031304,6457812,6033740,6459724,1878,2118,-4184,-1303,-975,-72,369,3986,48,37,809
811100,6031528,6457944,6033937,6459921,1541,2097,-4184,-1325,-664,-76,-13,4268,30,20,812
812101,6031736,6458084,6034134,6460118,1637,2072,-4147,-1344,-391,-139,-438,4395,30,20,812
813102,6031964,6458212,6034331,6460315,1499,2179,-4089,-1374,-173,-112,-605,4389,51,28,811
814103,6032144,6458340,6034528,6460512,1807,2209,-4038,-1465,-20,23,-659,4406,51,28,811
815104,6032324,6458476,6034725,6460709,1815,2186,-4015,-1541,83,141,-716,4599,48,35,812
816105,6032512,6458600,6034922,6460906,1770,2294,-4008,-1597,154,291,-727,4831,48,35,812
817106,6032656,6458704,6035119,6461103,2068,2460,-4014,-1687,198,631,-809,4814,37,26,810
818107,6032852,6458884,6035316,6461300,1744,1993,-4022,-1780,255,1113,-1150,4983,37,26,810
819108,6033036,6459072,6035513,6461497,1825,1947,-3991,-1929,340,1688,-1449,4808,37,37,809
820109,6033248,6459260,6035710,6461694,1643,1952,-3931,-2149,389,2207,-1224,4766,37,37,809
821110,6033440,6459424,6035907,6461891,1772,2117,-3863,-2257,362,2568,-922,5219,41,24,812
822111,6033692,6459580,6036104,6462088,1372,2186,-3795,-2273,260,2643,-694,5509,41,24,812
823112,6033900,6459732,6036301,6462285,1644,2230,-3719,-2149,156,2610,-768,6096,35,22,813
824113,6034140,6459856,6036498,6462482,1425,2438,-3648,-1930,63,2481,-658,6578,35,22,813
825114,6034352,6459984,6036695,6462679,1594,2444,-3594,-1590,-68,2428,-466,7022,47,37,813
826115,6034592,6460196,6036892,6462876,1400,1912,-3547,-1154,-233,2449,-287,7315,47,37,813
827116,6034800,6460376,6037089,6463073,1596,2121,-3485,-733,-414,2391,-331,7369,51,24,811
828117,6034988,6460552,6037286,6463270,1725,2156,-3390,-351,-599,2412,-709,7331,51,24,811
829118,6035204,6460684,6037483,6463467,1543,2459,-3245,-17,-725,2443,-1468,7458,31,35,813
830119,6035364,6460848,6037680,6463664,1909,2275,-3076,373,-792,2448,-1948,7645,31,35,813
831120,6035556,6461012,6037877,6463861,1711,2290,-2894,691,-855,2466,-1857,7401,41,33,810
832121,6035740,6461188,6038074,6464058,1768,2225,-2683,883,-920,2584,-1780,7015,41,33,810
833122,6035920,6461348,6038271,6464255,1801,2341,-2443,937,-962,2735,-1904,6603,27,39,810
834123,6036128,6461544,6038468,6464452,1622,2117,-2184,980,-959,2661,-2093,6629,27,39,810
835124,6036336,6461696,6038665,6464649,1617,2412,-1940,1068,-922,2465,-2037,6758,41,36,811
836125,6036552,6461892,6038862,6464846,1560,2139,-1709,1178,-871,2165,-1796,6852,41,36,811
837126,6036752,6462072,6039059,6465043,1658,2246,-1504,1353,-811,1784,-1030,7119,47,39,812
838127,6036988,6462304,6039256,6465240,1416,1907,-1323,1575,-755,1332,-279,7119,47,39,812
839128,6037204,6462472,6039453,6465437,1534,2320,-1161,1833,-682,940,-59,7422,48,29,812
840129,6037396,6462656,6039650,6465634,1686,2226,-1008,2152,-578,687,108,7573,48,29,812
841137,6037596,6462816,6039880,6465864,1650,2408,-833,2500,-473,630,189,7538,31,44,813
842131,6037840,6462976,6040077,6466061,1355,2424,-625,2794,-366,534,63,7300,31,44,813
843132,6038044,6463156,6040274,6466258,1602,2308,-371,2940,-315,365,306,6854,32,31,812
844133,6038224,6463396,6040471,6466455,1760,1914,-124,2971,-365,382,205,6485,32,31,812
845134,6038448,6463588,6040668,6466652,1473,2217,109,2967,-447,461,-369,6348,34,40,812
846135,6038620,6463780,6040865,6466849,1810,2220,356,3059,-502,357,-901,6445,34,40,812
847136,6038780,6463924,6041062,6467046,1901,2543,611,3115,-523,93,-1347,6237,45,37,813
848137,6038940,6464088,6041259,6467243,1919,2434,857,3089,-492,4,-1892,6196,45,37,813
849138,6039084,6464268,6041456,6467440,2042,2341,1083,3074,-421,11,-1879,6051,35,48,810
850139,6039232,6464488,6041653,6467637,2039,2082,1296,2990,-341,-98,-1529,5738,35,48,810
851140,6039372,6464668,6041850,6467834,2114,2341,1499,2834,-283,-381,-916,5538,22,36,807
852141,6039516,6464844,6042047,6468031,2114,2375,1696,2622,-244,-533,-412,5357,22,36,807
853142,6039664,6465020,6042244,6468228,2110,2385,1879,2442,-193,-452,-290,5331,21,41,809
854143,6039816,6465216,6042441,6468425,2106,2261,2048,2224,-107,-420,-306,5080,21,41,809
855144,6039960,6465432,6042638,6468622,2179,2128,2191,1964,5,-549,-412,5061,43,44,808
856145,6040064,6465612,6042835,6468819,2471,2362,2293,1755,134,-565,-763,5166,43,44,808
857146,6040256,6465788,6043032,6469016,1923,2396,2368,1564,294,-417,-1267,4996,35,39,809
858147,6040416,6465980,6043229,6469213,2141,2299,2420,1413,470,-443,-1528,5055,35,39,809
859148,6040520,6466124,6043426,6469410,2532,2623,2449,1274,622,-535,-1367,4950,31,43,807
860149,6040676,6466324,6043623,6469607,2226,2272,2465,1108,733,-637,-771,4855,31,43,807
861150,6040840,6466572,6043820,6469804,2190,1951,2469,977,787,-735,-159,4855,34,46,808
862151,6040996,6466736,6044017,6470001,2259,2490,2463,852,798,-821,19,4787,34,46,808
863152,6041128,6466888,6044214,6470198,2438,2586,2425,767,776,-963,0,4832,22,47,807
864153,6041308,6467044,6044411,6470395,2146,2580,2358,703,744,-1007,-194,4848,22,47,807
865154,6041440,6467228,6044608,6470592,2476,2411,2277,656,726,-938,-322,4844,39,47,807
866155,6041568,6467452,6044805,6470789,2531,2150,2190,641,709,-992,-513,4743,39,47,807
867156,6041712,6467656,6045002,6470986,2455,2272,2116,569,684,-1113,-989,4522,42,34,807
868157,6041908,6467848,6045199,6471183,2131,2350,2027,456,640,-1160,-1247,4381,42,34,807
869158,6042044,6468000,6045396,6471380,2534,2621,1978,261,577,-1254,-703,4035,26,32,807
870159,6042200,6468172,6045593,6471577,2428,2507,1945,41,514,-1305,-405,3852,26,32,807
871160,6042400,6468360,6045790,6471774,2151,2412,1909,-241,520,-1289,-592,3696,39,38,808
872161,6042540,6468612,6045987,6471971,2552,1989,1858,-511,633,-1331,-656,3683,39,38,808
873162,6042716,6468820,6046184,6472168,2338,2259,1805,-750,800,-1330,-714,3586,49,45,805
874163,6042904,6469060,6046381,6472365,2266,2041,1763,-951,1000,-1401,-952,3626,49,45,805
875164,6043044,6469264,6046578,6472562,2593,2264,1751,-1119,1236,-1554,-1102,3714,29,52,807
876165,6043188,6469476,6046775,6472759,2592,2207,1768,-1248,1474,-1717,-661,3707,29,52,807
877166,6043356,6469704,6046972,6472956,2455,2095,1793,-1286,1675,-1820,-150,3908,26,53,809
878167,6043536,6469944,6047169,6473153,2388,2001,1820,-1265,1839,-1859,-204,3997,26,53,809
879168,6043684,6470160,6047366,6473350,2611,2143,1834,-1135,1986,-1960,-439,4325,40,39,806
880169,6043848,6470424,6047563,6473547,2525,1815,1856,-950,2106,-2073,-417,4363,40,39,806
881170,6044060,6470648,6047760,6473744,2219,2053,1869,-677,2203,-2109,-594,4646,43,37,808
882171,6044212,6470832,6047957,6473941,2615,2310,1862,-376,2334,-1997,-1162,4630,43,37,808
883172,6044348,6471076,6048154,6474138,2743,1914,1835,-123,2497,-1951,-1065,4429,43,43,809
884173,6044524,6471308,6048351,6474335,2502,1975,1776,34,2606,-1916,-265,4097,43,43,809
885174,6044656,6471552,6048548,6474532,2807,1880,1721,76,2692,-1772,191,3742,29,47,805
886175,6044796,6471804,6048745,6474729,2783,1806,1671,61,2777,-1561,304,3605,29,47,805
887176,6044964,6472024,6048942,6474926,2621,1997,1619,26,2883,-1224,-102,3519,29,48,808
888177,6045108,6472232,6049139,6475123,2795,2067,1595,-2,3030,-948,-577,3530,29,48,808
889178,6045216,6472504,6049336,6475320,3060,1635,1608,-45,3158,-770,-479,3405,25,44,807
890179,6045344,6472768,6049533,6475517,2966,1656,1643,-87,3268,-501,-960,3341,25,44,807
891180,6045548,6473020,6049730,6475714,2489,1707,1703,-194,3376,-284,-981,3135,49,60,806
892181,6045732,6473280,6049927,6475911,2620,1630,1742,-349,3440,-102,-550,3099,49,60,806
893182,6045936,6473540,6050124,6476108,2493,1603,1741,-475,3444,-31,359,3146,49,54,807
894183,6046108,6473740,6050321,6476305,2705,1977,1714,-645,3426,121,780,3029,49,54,807
895184,6046272,6473872,6050518,6476502,2770,2431,1651,-721,3387,298,898,3333,52,35,808
896185,6046432,6474024,6050715,6476699,2813,2326,1584,-759,3375,430,339,3370,52,35,808
897186,6046636,6474204,6050912,6476896,2535,2160,1546,-704,3412,558,-340,3624,30,43,806
898187,6046756,6474432,6051109,6477093,3094,1846,1535,-583,3462,530,103,3745,30,43,806
899189,6046900,6474652,6051306,6477290,2969,1887,1549,-508,3442,361,843,3597,32,48,804
900190,6047076,6474956,6051503,6477487,2779,1315,1583,-382,3354,423,286,3819,32,48,804
901191,6047232,6475264,6051700,6477684,2923,1242,1654,-252,3219,380,729,3778,39,50,805
902192,6047368,6475496,6051897,6477881,3076,1702,1729,19,3050,401,1358,4113,39,50,805
903193,6047504,6475824,6052094,6478078,3103,1045,1783,361,2891,466,1501,4213,31,57,808
904194,6047648,6476132,6052291,6478275,3077,1121,1804,752,2756,484,1376,4430,31,57,808
905195,6047800,6476412,6052488,6478472,3048,1261,1797,1241,2648,534,552,4721,22,71,806
906196,6047968,6476768,6052685,6478669,2961,716,1780,1712,2623,618,-689,4595,22,71,806
907196,6048136,6477100,6052882,6478866,2975,807,1748,2171,2627,613,-557,4587,33,73,807
908198,6048304,6477404,6053079,6479063,2989,936,1683,2524,2575,538,163,4055,33,73,807
909199,6048496,6477648,6053276,6479260,2842,1290,1567,2715,2436,479,778,3788,36,69,810
910200,6048672,6477968,6053473,6479457,2952,761,1409,2921,2291,639,651,3761,36,69,810
911201,6048840,6478340,6053670,6479654,3016,360,1262,3063,2151,691,689,3450,36,67,809
912202,6049036,6478688,6053867,6479851,2842,444,1130,3218,1989,618,749,3413,36,67,809
913203,6049236,6478968,6054064,6480048,2816,832,995,3254,1763,444,966,3031,54,63,811
914203,6049432,6479252,6054261,6480245,2843,769,737,3166,1208,520,1151,2842,54,63,811
915204,6049632,6479580,6054458,6480442,2817,437,602,3102,983,653,945,2901,36,58,812
916206,6049852,6479896,6054655,6480639,2683,460,420,3100,754,648,1035,2924,39,61,810
917207,6050044,6480176,6054852,6480836,2861,649,203,3055,451,516,1397,2781,39,61,810
918208,6050256,6480412,6055049,6481033,2731,906,-50,3010,51,398,1657,2852,58,50,812
919209,6050500,6480636,6055246,6481230,2511,970,-310,2955,-381,264,1816,2810,58,50,812
920210,6050720,6480868,6055443,6481427,2652,904,-583,2988,-799,167,2001,3069,44,48,811
921211,6050916,6481076,6055640,6481624,2803,1049,-891,3017,-1177,168,2122,3047,44,48,811
922212,6051148,6481288,6055837,6481821,2564,1018,-1227,3070,-1469,299,1907,3234,56,35,812
923213,6051348,6481488,6056034,6482018,2764,1091,-1577,3252,-1639,339,1775,3495,56,35,812
924223,6051536,6481660,6056264,6482248,2857,1293,-1891,3374,-1720,374,1834,3191,53,45,812
925215,6051760,6481824,6056461,6482445,2621,1357,-2175,3377,-1742,452,1723,2940,53,45,812
926216,6051968,6481984,6056658,6482642,2718,1399,-2389,3192,-1748,525,1728,2388,57,44,808
927217,6052188,6482120,6056855,6482839,2633,1575,-2497,2910,-1800,414,1817,2149,57,44,808
928218,6052420,6482304,6057052,6483036,2544,1281,-2515,2549,-1881,201,1336,1961,38,26,808
929219,6052596,6482472,6057249,6483233,2904,1394,-2460,2125,-1974,123,715,1924,38,26,808
930219,6052780,6482636,6057446,6483430,2861,1433,-2368,1847,-2079,44,342,2232,43,33,811
931220,6052976,6482808,6057643,6483627,2787,1394,-2269,1629,-2194,-260,44,2485,43,33,811
932222,6053156,6482936,6057840,6483824,2896,1701,-2208,1586,-2383,-669,330,2948,47,29,808
933223,6053340,6483060,6058037,6484021,2877,1758,-2207,1564,-2646,-1019,446,3162,47,29,808
934224,6053516,6483208,6058234,6484218,2937,1629,-2266,1727,-2897,-990,-440,3796,35,29,807
935225,6053712,6483396,6058431,6484415,2813,1383,-2366,2088,-3080,-1082,-1306,4384,35,29,807
936226,6053884,6483564,6058628,6484612,2975,1521,-2479,2602,-3205,-1325,-1895,5109,46,26,807
937227,6054080,6483740,6058825,6484809,2827,1481,-2587,3157,-3324,-1401,-2248,5199,46,26,807
938228,6054288,6483876,6059022,6485006,2748,1758,-2659,3634,-3447,-1396,-2482,4925,31,30,806
939229,6054476,6484040,6059219,6485203,2878,1598,-2721,4011,-3545,-1423,-2656,4719,31,30,806
940230,6054640,6484180,6059416,6485400,3043,1773,-2753,4095,-3612,-1565,-2756,3908,48,30,806
941231,6054848,6484352,6059613,6485597,2764,1584,-2715,3909,-3638,-1590,-2711,3247,48,30,806
942232,6055040,6484484,6059810,6485794,2868,1863,-2633,3535,-3636,-1446,-2650,2739,31,37,805
943233,6055216,6484624,6060007,6485991,2978,1838,-2564,3126,-3627,-1440,-2622,2908,31,37,805
944234,6055440,6484768,6060204,6486188,2666,1837,-2496,2720,-3618,-1589,-2784,2879,31,42,806
945235,6055628,6484952,6060401,6486385,2896,1592,-2423,2271,-3609,-1700,-3118,2858,31,42,806
946235,6055836,6485100,6060598,6486582,2767,1840,-2363,1913,-3580,-1733,-3360,3345,40,30,808
947236,6056020,6485300,6060795,6486779,2924,1513,-2286,1548,-3491,-1780,-3592,3230,40,30,808
948237,6056240,6485472,6060992,6486976,2690,1699,-2178,1140,-3327,-1830,-3841,3225,38,40,807
949239,6056472,6485620,6061189,6487173,2600,1872,-2063,693,-3114,-1902,-3671,3320,38,40,807
950240,6056720,6485756,6061386,6487370,2479,1974,-1970,276,-2903,-1952,-2997,3583,44,43,807
951241,6056968,6485928,6061583,6487567,2458,1760,-1897,-73,-2728,-1968,-2256,3785,44,43,807
952241,6057212,6486072,6061780,6487764,2463,1958,-1826,-375,-2572,-1996,-2005,4155,45,38,808
953243,6057468,6486256,6061977,6487961,2362,1715,-1755,-567,-2407,-1973,-1838,4604,45,38,808
954243,6057740,6486404,6062174,6488158,2230,1961,-1672,-679,-2222,-2009,-1523,4868,56,38,808
955244,6058008,6486548,6062371,6488355,2225,2010,-1552,-740,-2035,-2017,-1154,5113,56,38,808
956245,6058280,6486684,6062568,6488552,2168,2087,-1377,-824,-1847,-1996,-1003,5175,67,31,810
957247,6058588,6486852,6062765,6488749,1895,1900,-1171,-858,-1656,-1918,-954,5405,67,31,810
958247,6058860,6486976,6062962,6488946,2088,2208,-956,-861,-1466,-1750,-672,5464,55,41,809
959249,6059156,6487116,6063159,6489143,1895,2133,-754,-886,-1292,-1497,-377,5546,55,41,809
960249,6059484,6487236,6063356,6489340,1638,2292,-566,-920,-1145,-1312,115,5571,70,23,809
961251,6059772,6487360,6063553,6489537,1849,2300,-369,-994,-1033,-1105,492,5511,70,23,809
962251,6060048,6487484,6063750,6489734,1890,2332,-152,-1127,-951,-918,717,5364,70,33,810
963252,6060340,6487624,6063947,6489931,1749,2258,107,-1320,-887,-682,803,5171,70,33,810
964253,6060664,6487728,6064144,6490128,1494,2524,407,-1548,-829,-361,658,5066,50,25,810
965255,6060960,6487868,6064341,6490325,1626,2324,704,-1785,-773,-68,525,5114,50,25,810
966256,6061268,6488004,6064538,6490522,1503,2377,977,-2007,-732,153,577,5129,62,25,810
967257,6061576,6488092,6064735,6490719,1455,2725,1211,-2210,-707,383,636,5143,62,25,810
968258,6061896,6488200,6064932,6490916,1327,2640,1424,-2390,-686,650,724,5145,53,29,811
969259,6062200,6488320,6065129,6491113,1380,2599,1616,-2571,-678,853,783,5181,53,29,811
970260,6062420,6488424,6065326,6491310,1896,2741,1794,-2722,-678,934,719,5071,51,26,810
971260,6062748,6488588,6065523,6491507,1163,2380,1964,-2875,-695,967,606,5075,51,26,810
972261,6063024,6488692,6065720,6491704,1454,2797,2139,-3001,-752,967,414,5079,43,37,806
973263,6063264,6488816,6065917,6491901,1660,2705,2318,-3026,-828,942,40,5361,43,37,806
974264,6063512,6488924,6066114,6492098,1589,2844,2467,-2967,-896,878,-246,5507,41,24,809
975265,6063772,6489020,6066311,6492295,1486,2965,2594,-2868,-934,835,-327,5535,41,24,809
976265,6064012,6489156,6066508,6492492,1593,2742,2684,-2709,-946,797,-192,5619,42,19,808
977267,6064240,6489328,6066705,6492689,1655,2529,2770,-2544,-967,724,257,5488,42,19,808
978268,6064492,6489444,6066902,6492886,1482,2915,2840,-2363,-1001,623,573,5449,56,21,809
979269,6064752,6489540,6067099,6493083,1404,3084,2914,-2188,-1018,428,602,5295,56,21,809
980269,6065000,6489644,6067296,6493280,1457,3076,2988,-2045,-1007,266,420,5128,58,28,808
981271,6065220,6489748,6067493,6493477,1622,3118,3062,-1914,-979,67,374,4909,58,28,808
982272,6065464,6489876,6067690,6493674,1452,2999,3140,-1864,-937,-111,397,4596,46,35,806
983273,6065740,6490056,6067887,6493871,1218,2682,3220,-1763,-888,-276,336,4564,46,35,806
984274,6065980,6490168,6068084,6494068,1424,3145,3286,-1692,-807,-387,70,4376,42,38,804
985275,6066280,6490288,6068281,6494265,1005,3130,3327,-1588,-698,-534,9,4275,42,38,804
986276,6066540,6490440,6068478,6494462,1227,2950,3321,-1458,-579,-725,108,4261,57,22,807
987277,6066840,6490580,6068675,6494659,932,3051,3293,-1327,-462,-901,143,4091,57,22,807
988277,6067116,6490768,6068872,6494856,1048,2756,3244,-1204,-351,-1021,94,4120,54,27,808
989279,6067376,6490924,6069069,6495053,1120,2975,3197,-1075,-241,-1182,117,3828,54,27,808
990280,6067656,6491076,6069266,6495250,959,3020,3127,-966,-136,-1286,101,3749,43,28,810
991281,6067952,6491256,6069463,6495447,817,2853,3031,-911,-52,-1348,142,3450,43,28,810
992281,6068212,6491452,6069660,6495644,1014,2755,2910,-900,5,-1430,225,3238,51,29,809
993282,6068448,6491628,6069857,6495841,1147,2890,2778,-951,44,-1460,242,2939,51,29,809
994283,6068672,6491816,6070054,6496038,1211,2820,2646,-1024,95,-1490,278,2734,45,30,810
995284,6068912,6491992,6070251,6496235,1092,2904,2484,-1224,161,-1381,286,2358,45,30,810
996285,6069100,6492160,6070448,6496432,1421,2968,2328,-1458,258,-1164,137,2147,54,44,810
997286,6069308,6492324,6070645,6496629,1291,3008,2158,-1721,411,-963,-12,1950,54,44,810
998288,6069544,6492508,6070842,6496826,1100,2890,2003,-2058,595,-801,-133,1612,30,37,808
999289,6069728,6492720,6071039,6497023,1431,2709,1831,-2404,801,-672,-36,1676,30,37,808
1000290,6069916,6492968,6071236,6497220,1410,2463,1672,-2772,1017,-496,110,1395,30,39,809
1001291,6070128,6493180,6071433,6497417,1253,2681,1510,-3199,1216,-368,211,1322,30,39,809
1002292,6070272,6493380,6071630,6497614,1702,2756,1360,-3599,1382,-383,494,1374,33,40,811
1003292,6070452,6493564,6071827,6497811,1485,2863,1194,-3922,1500,-320,606,1558,33,40,811
1004293,6070636,6493772,6072024,6498008,1465,2709,1005,-4170,1590,-210,494,1677,34,34,807
1005295,6070784,6494008,6072221,6498205,1712,2518,775,-4325,1704,-11,-153,2059,34,34,807
1006296,6070924,6494228,6072418,6498402,1788,2608,520,-4374,1853,199,-655,2322,29,32,807
1007304,6071088,6494400,6072648,6498632,1667,2934,258,-4405,2009,334,-765,2458,29,32,807
1008297,6071236,6494568,6072845,6498829,1789,2973,-20,-4338,2143,512,-672,2750,34,32,808
1009299,6071372,6494720,6073042,6499026,1891,3094,-316,-4219,2244,653,-624,2934,34,32,808
1010299,6071556,6494880,6073239,6499223,1597,3061,-612,-4003,2320,752,-533,3324,27,32,806
1011300,6071724,6495092,6073436,6499420,1710,2729,-870,-3700,2362,745,-329,3508,27,32,806
1012301,6071844,6495308,6073633,6499617,2045,2697,-1101,-3375,2342,812,-35,3646,40,33,805
1013302,6072024,6495452,6073830,6499814,1677,3171,-1300,-3043,2254,877,69,3733,40,33,805
1014304,6072184,6495604,6074027,6500011,1818,3142,-1500,-2718,2122,946,-19,3810,43,23,806
1015304,6072324,6495740,6074224,6500208,1969,3270,-1702,-2404,1971,1002,-112,3955,43,23,806
1016305,6072536,6495904,6074421,6500405,1513,3110,-1910,-2078,1805,1094,-182,4031,24,32,803
1017306,6072716,6496052,6074618,6500602,1720,3232,-2127,-1722,1628,1227,-253,4176,24,32,803
1018308,6072852,6496212,6074815,6500799,2023,3174,-2360,-1319,1467,1376,-349,4456,37,21,805
1019308,6073032,6496336,6075012,6500996,1756,3432,-2573,-936,1325,1460,-333,4465,37,21,805
1020309,6073228,6496444,6075209,6501193,1656,3572,-2768,-573,1200,1574,-295,4676,41,31,802
1021311,6073396,6496584,6075406,6501390,1845,3399,-2930,-177,1064,1607,-186,4824,41,31,802
1022312,6073560,6496752,6075603,6501587,1884,3237,-3065,171,901,1531,-130,4864,33,26,802
1023313,6073816,6496952,6075800,6501784,1284,3037,-3169,494,726,1366,-23,4906,33,26,802
1024313,6073996,6497076,6075997,6501981,1767,3545,-3262,781,548,1161,207,4865,41,30,803
1025314,6074184,6497212,6076194,6502178,1721,3498,-3340,1058,387,956,275,4996,41,30,803
1026315,6074424,6497340,6076391,6502375,1378,3579,-3402,1280,260,714,122,5125,50,22,801
1027316,6074620,6497492,6076588,6502572,1653,3450,-3423,1481,178,456,-43,5154,50,22,801
1028317,6074796,6497652,6076785,6502769,1788,3417,-3396,1686,131,237,-186,5206,54,36,801
1029318,6075028,6497812,6076982,6502966,1423,3434,-3316,1815,105,-16,-93,5177,54,36,801
1030320,6075228,6497988,6077179,6503163,1622,3345,-3184,1890,100,-314,185,5177,40,34,803
1031321,6075416,6498148,6077376,6503360,1702,3462,-3023,1934,109,-627,295,5167,40,34,803
1032322,6075608,6498272,6077573,6503557,1679,3719,-2865,1965,139,-960,320,5496,36,25,803
1033323,6075840,6498460,6077770,6503754,1414,3325,-2714,2041,186,-1280,386,5656,36,25,803
1034324,6076020,6498628,6077967,6503951,1747,3464,-2551,2097,238,-1641,400,5748,41,30,801
1035325,6076200,6498832,6078164,6504148,1755,3237,-2383,2175,307,-1980,208,5997,41,30,801
1036325,6076412,6499024,6078361,6504345,1548,3315,-2201,2193,393,-2186,87,5840,48,42,801
1037327,6076604,6499180,6078558,6504542,1676,3559,-2012,2159,503,-2215,58,5734,48,42,801
1038327,6076776,6499404,6078755,6504739,1812,3123,-1805,1973,631,-2285,20,5360,35,34,803
1039329,6077004,6499624,6078952,6504936,1450,3139,-1569,1095,795,-3276,-113,3940,35,34,803
1040329,6077180,6499848,6079149,6505133,1784,3103,-1269,-1201,961,-3988,-603,1708,39,42,804
1041331,6077332,6500076,6079346,6505330,1954,3065,-975,-3730,1171,-3990,-959,2919,39,42,804
1042331,6077532,6500284,6079543,6505527,1653,3187,-684,-4405,1539,-3108,-739,6816,35,38,805
1043333,6077700,6500504,6079740,6505724,1866,3102,-456,-3391,1964,-2374,-515,8408,35,38,805
1044333,6077864,6500712,6079937,6505921,1905,3174,-254,-2457,2263,-2292,-534,7450,43,39,805
1045335,6078040,6500960,6080134,6506118,1841,2902,-2,-1890,2531,-3150,-418,8182,43,39,805
1046336,6078204,6501208,6080331,6506315,1930,2881,280,-1660,2735,-2607,-222,7380,47,58,803
1047337,6078356,6501464,6080528,6506512,2026,2806,540,-1360,2873,-2173,95,7427,47,58,803
1048338,6078508,6501680,6080725,6506709,2046,3049,809,-1081,3048,-2451,512,7136,27,52,805
1049339,6078660,6501948,6080922,6506906,2066,2692,1074,-1060,3167,-1912,620,6510,27,52,805
1050339,6078820,6502188,6081119,6507103,2033,2849,1362,-1094,3272,-1382,717,6283,30,44,803
1051341,6078952,6502460,6081316,6507300,2236,2617,1697,-1236,3378,-953,708,5574,30,44,803
1052341,6079132,6502692,6081513,6507497,1945,2853,2007,-1475,3417,-547,364,5171,22,40,805
1053343,6079260,6502924,6081710,6507694,2300,2839,2304,-1915,3461,-624,426,4880,22,40,805
1054343,6079352,6503136,6081907,6507891,2572,2958,2574,-2236,3512,-135,214,5119,40,40,806
1055345,6079508,6503336,6082104,6508088,2190,3033,2809,-2476,3509,260,231,4877,40,40,806
1056346,6079628,6503580,6082301,6508285,2450,2738,3034,-2678,3469,93,332,5189,30,54,802
1057347,6079736,6503876,6082498,6508482,2564,2371,3236,-2895,3360,323,235,5105,30,54,802
1058347,6079892,6504108,6082695,6508679,2283,2756,3410,-3022,3206,550,330,5245,36,59,803
1059348,6080032,6504332,6082892,6508876,2408,2795,3561,-2910,3080,437,439,5661,36,59,803
1060349,6080168,6504564,6083089,6509073,2461,2730,3673,-2801,2961,280,119,5539,25,47,804
1061350,6080308,6504824,6083286,6509270,2461,2528,3752,-2622,2845,78,-176,5934,25,47,804
1062351,6080448,6505076,6083483,6509467,2487,2555,3821,-2367,2720,108,-108,5865,35,41,803
1063353,6080564,6505304,6083680,6509664,2673,2693,3880,-2078,2541,171,124,5604,35,41,803
1064354,6080696,6505540,6083877,6509861,2602,2626,3955,-1838,2369,-72,261,5456,32,56,805
1065355,6080860,6505752,6084074,6510058,2418,2771,4032,-1658,2234,-100,179,5179,32,56,805
1066356,6080972,6506024,6084271,6510255,2780,2363,4078,-1444,2144,60,-137,5111,32,53,803
1067357,6081108,6506264,6084468,6510452,2658,2545,4106,-1197,2117,-90,-180,4966,32,53,803
1068358,6081272,6506500,6084665,6510649,2499,2554,4108,-979,2088,-265,-165,4756,43,44,804
1069359,6081440,6506732,6084862,6510846,2486,2564,4109,-785,2044,-576,-26,4501,43,44,804
1070359,6081596,6506944,6085059,6511043,2580,2684,4120,-511,2011,-693,92,4591,50,50,803
1071361,6081796,6507164,6085256,6511240,2304,2624,4130,-186,1995,-664,-73,4372,50,50,803
1072361,6081968,6507404,6085453,6511437,2491,2481,4140,144,2038,-754,-219,4401,40,47,802
1073363,6082132,6507676,6085650,6511634,2556,2249,4148,473,2119,-669,-242,4199,40,47,802
1074363,6082296,6507932,6085847,6511831,2571,2324,4147,759,2206,-459,-338,3900,30,52,804
1075365,6082504,6508180,6086044,6512028,2292,2352,4142,1034,2290,-508,-285,3645,30,52,804
1076365,6082672,6508420,6086241,6512225,2556,2384,4120,1207,2371,-490,-226,3301,33,41,806
1077367,6082872,6508616,6086438,6512422,2355,2660,4078,1365,2450,-410,-216,3187,33,41,806
1078368,6083096,6508940,6086635,6512619,2194,1805,4028,1567,2532,-284,-360,3025,34,58,806
1079369,6083276,6509220,6086832,6512816,2477,2044,3966,1725,2594,-121,-478,2737,34,58,806
1080370,6083496,6509504,6087029,6513013,2218,1982,3899,1788,2623,-54,-418,2414,52,62,809
1081370,6083700,6509784,6087226,6513210,2315,1971,3820,1752,2617,204,-357,2075,52,62,809
1082371,6083904,6510028,6087423,6513407,2313,2175,3722,1682,2552,491,-145,1740,54,62,808
1083372,6084128,6510372,6087620,6513604,2177,1487,3602,1591,2446,551,-185,1560,54,62,808
1084373,6084360,6510660,6087817,6513801,2112,1798,3436,1519,2319,503,-182,1514,51,57,808
1085375,6084572,6510964,6088014,6513998,2231,1651,3226,1462,2184,529,62,1477,51,57,808
1086375,6084780,6511228,6088211,6514195,2252,1872,3005,1419,2066,843,184,1313,50,65,811
1087376,6085008,6511504,6088408,6514392,2114,1763,2797,1287,1960,1237,304,991,50,65,811
1088377,6085228,6511864,6088605,6514589,2155,1167,2602,1076,1872,1460,179,784,57,51,810
1089378,6085460,6512200,6088802,6514786,2064,1256,2389,783,1772,1472,507,613,57,51,810
1090386,6085680,6512484,6089032,6515016,2145,1558,2160,487,1658,1487,400,585,45,52,812
1091380,6085904,6512776,6089229,6515213,2109,1466,1930,233,1559,1548,375,574,45,52,812
1092381,6086124,6513080,6089426,6515410,2124,1345,1682,62,1463,1529,476,685,57,64,812
1093382,6086360,6513424,6089623,6515607,2007,1031,1424,-2,1364,1447,475,955,57,64,812
1094383,6086580,6513772,6089820,6515804,2098,940,1162,-6,1262,1424,277,1090,45,62,812
1095384,6086800,6514084,6090017,6516001,2088,1115,888,4,1155,1456,334,1168,45,62,812
1096386,6087080,6514332,6090214,6516198,1678,1493,597,58,1046,1474,647,1357,56,61,815
1097387,6087284,6514636,6090411,6516395,2150,1096,289,165,941,1498,1040,1277,56,61,815
1098388,6087484,6514948,6090608,6516592,2174,996,-27,278,856,1537,1149,1321,35,65,815
1099388,6087684,6515260,6090805,6516789,2174,945,-321,389,786,1651,1544,1267,35,65,815
1100390,6087872,6515572,6091002,6516986,2253,896,-582,423,697,1776,1936,1074,48,51,814
1101391,6088028,6515848,6091199,6517183,2472,1086,-820,483,591,1781,1989,1147,48,51,814
1102392,6088228,6516192,6091396,6517380,2196,597,-1020,552,512,1652,1522,1218,34,62,814
1103392,6088428,6516460,6091593,6517577,2195,1040,-1199,636,469,1684,1112,1255,34,62,814
1104393,6088612,6516660,6091790,6517774,2302,1465,-1371,653,431,1728,996,1001,45,62,813
1105395,6088820,6516976,6091987,6517971,2147,688,-1526,621,373,1875,880,871,45,62,813
1106395,6089020,6517204,6092184,6518168,2197,1224,-1671,508,273,1830,688,709,39,61,812
1107396,6089236,6517492,6092381,6518365,2089,809,-1831,443,146,1664,367,927,39,61,812
1108397,6089444,6517772,6092578,6518562,2135,823,-1993,414,14,1576,-43,1089,56,51,814
1109399,6089680,6518036,6092775,6518759,1944,894,-2137,543,-100,1527,-366,1685,56,51,814
1110400,6089968,6518292,6092972,6518956,1579,918,-2278,887,-207,1418,-471,2285,58,43,815
1111400,6090240,6518520,6093169,6519153,1647,1080,-2429,1301,-329,1304,-562,2449,58,43,815
1112402,6090532,6518780,6093366,6519350,1480,852,-2603,1800,-459,1286,-716,2780,49,40,817
1113403,6090748,6519004,6093563,6519547,1948,1065,-2795,2265,-615,1343,-720,2725,49,40,817
1114403,6091008,6519248,6093760,6519744,1645,919,-2981,2698,-832,1280,-618,2710,63,49,817
1115404,6091300,6519472,6093957,6519941,1404,1033,-3140,3078,-1086,1139,-424,2590,63,49,817
1116405,6091568,6519704,6094154,6520138,1523,967,-3259,3296,-1380,1113,3,2260,49,40,816
1117407,6091824,6519908,6094351,6520335,1573,1139,-3343,3421,-1677,1262,-241,2203,49,40,816
1118408,6092084,6520108,6094548,6520532,1520,1164,-3382,3451,-1931,1340,-490,1845,59,35,818
1119409,6092372,6520300,6094745,6520729,1306,1216,-3481,3500,-2156,1396,-409,2316,59,35,818
1120410,6092640,6520480,6094942,6520926,1400,1298,-3654,3625,-2347,1429,-365,2673,67,27,816
1121411,6092936,6520664,6095139,6521123,1183,1279,-3835,3598,-2510,1514,-554,2209,67,27,816
1122411,6093164,6520860,6095336,6521320,1594,1205,-4015,3596,-2630,1631,-705,2627,56,32,816
1123413,6093404,6520992,6095533,6521517,1501,1633,-4135,3422,-2664,1704,-731,2026,56,32,816
1124413,6093680,6521116,6095730,6521714,1241,1715,-4160,3023,-2663,1557,-805,1320,48,22,817
1125414,6093976,6521244,6095927,6521911,1073,1721,-4146,2448,-2681,1423,-531,1110,48,22,817
1126415,6094232,6521360,6096124,6522108,1298,1831,-4160,1913,-2755,1271,-304,1409,50,26,814
1127416,6094456,6521540,6096321,6522305,1486,1439,-4202,1450,-2852,975,-318,1724,50,26,814
1128417,6094692,6521732,6096518,6522502,1394,1367,-4270,1176,-2894,701,-648,2527,47,30,814
1129419,6094968,6521884,6096715,6522699,1110,1637,-4344,1112,-2870,518,-948,3133,47,30,814
1130419,6095192,6522024,6096912,6522896,1423,1737,-4427,1194,-2813,303,-937,3580,53,22,816
1131420,6095416,6522176,6097109,6523093,1412,1681,-4523,1378,-2747,92,-874,4036,53,22,816
1132421,6095608,6522304,6097306,6523290,1615,1862,-4591,1479,-2669,-53,-810,3931,30,19,815
1133423,6095772,6522436,6097503,6523487,1804,1865,-4582,1430,-2585,-142,-662,3704,30,19,815
1134423,6095932,6522580,6097700,6523684,1845,1815,-4522,1314,-2480,-163,-575,3683,46,19,813
1135425,6096092,6522684,6097897,6523881,1863,2106,-4439,1139,-2322,-118,-581,3648,46,19,813
1136425,6096264,6522808,6098094,6524078,1799,2013,-4382,929,-2109,-10,-476,3714,29,23,811
1137427,6096456,6522976,6098291,6524275,1676,1750,-4358,718,-1855,26,-173,3801,29,23,811
1138427,6096620,6523156,6098488,6524472,1866,1683,-4327,453,-1603,42,181,3754,39,28,810
1139428,6096784,6523312,6098685,6524669,1881,1852,-4258,161,-1366,-4,375,3835,39,28,810
1140429,6097016,6523448,6098882,6524866,1442,2004,-4184,-173,-1111,0,264,3894,32,20,812
1141431,6097212,6523568,6099079,6525063,1667,2137,-4115,-461,-846,78,-77,4167,32,20,812
1142431,6097416,6523684,6099276,6525260,1614,2199,-4046,-708,-593,166,-451,4362,31,15,812
1143432,6097612,6523808,6099473,6525457,1665,2181,-3975,-893,-367,298,-650,4561,31,15,812
1144433,6097772,6523996,6099670,6525654,1907,1785,-3901,-1072,-162,486,-956,4816,41,33,811
1145435,6097948,6524100,6099867,6525851,1816,2351,-3830,-1209,17,721,-1333,5097,41,33,811
1146436,6098116,6524212,6100064,6526048,1880,2339,-3772,-1334,155,1042,-1590,5185,27,36,811
1147436,6098264,6524344,6100261,6526245,2026,2243,-3719,-1540,238,1490,-1597,4969,27,36,811
1148437,6098460,6524524,6100458,6526442,1727,1951,-3659,-1840,249,2022,-1390,4690,46,41,807
1149439,6098652,6524704,6100655,6526639,1755,1959,-3593,-2146,207,2473,-1132,4776,46,41,807
1150439,6098868,6524920,6100852,6526836,1596,1725,-3539,-2395,157,2756,-873,5150,33,25,810
1151440,6099036,6525060,6101049,6527033,1910,2227,-3506,-2513,122,2590,-739,5725,33,25,810
1152441,6099244,6525196,6101246,6527230,1655,2278,-3509,-2427,127,2257,-753,6469,43,36,812
1153442,6099484,6525336,6101443,6527427,1436,2278,-3545,-2168,111,2101,-58,7036,43,36,812
1154443,6099684,6525464,6101640,6527624,1686,2385,-3592,-1759,48,2082,328,7580,29,23,810
1155444,6099880,6525668,6101837,6527821,1712,1907,-3597,-1296,-27,2113,-81,7733,29,23,810
1156445,6100104,6525856,6102034,6528018,1525,2012,-3498,-831,-60,2115,-1049,7769,28,24,810
1157447,6100300,6526028,6102231,6528215,1701,2123,-3307,-411,-55,1943,-1817,7886,28,24,810
1158447,6100488,6526180,6102428,6528412,1755,2267,-3070,4,-56,1861,-2209,8048,47,28,812
1159448,6100688,6526320,6102625,6528609,1680,2368,-2804,411,-76,1925,-2482,7939,47,28,812
1160449,6100860,6526484,6102822,6528806,1866,2233,-2501,740,-103,1993,-2553,7653,46,36,809
1161451,6101036,6526680,6103019,6529003,1850,2034,-2169,947,-141,2260,-2591,7337,46,36,809
1162452,6101196,6526824,6103216,6529200,1967,2383,-1807,1020,-201,2549,-2630,6990,44,36,809
1163453,6101412,6526956,6103413,6529397,1609,2487,-1454,1070,-247,2783,-2821,7081,44,36,809
1164454,6101552,6527136,6103610,6529594,2109,2195,-1181,1236,-245,2741,-3092,7403,47,40,810
1165455,6101748,6527236,6103807,6529791,1760,2738,-988,1481,-216,2379,-3065,7603,47,40,810
1166456,6101952,6527424,6104004,6529988,1707,2192,-715,1753,-216,1888,-2771,8212,29,24,809
1167457,6102124,6527608,6104201,6530185,1919,2224,0,2596,-161,1036,-2968,14589,29,24,809
1168458,6102300,6527812,6104398,6530382,1903,2096,1026,4013,-35,491,-2467,17215,23,30,807
1169459,6102508,6527972,6104595,6530579,1699,2387,1641,4669,40,1037,-1264,8915,23,30,807
1170459,6102672,6528156,6104792,6530776,1989,2244,1750,4364,47,1260,-364,6015,44,34,807
1171460,6102864,6528320,6104989,6530973,1816,2383,1731,3663,3,1326,423,5272,44,34,807
1172461,6103092,6528528,6105186,6531170,1579,2105,1777,3017,-32,1447,621,5075,47,35,809
1173469,6103284,6528748,6105416,6531400,1820,2034,1857,2547,29,1596,131,5262,47,35,809
1174464,6103456,6528968,6105613,6531597,1956,2025,1880,2307,175,1543,-104,5719,30,33,808
1175464,6103696,6529156,6105810,6531794,1514,2229,1925,2158,309,1104,32,5717,30,33,808
1176465,6103868,6529352,6106007,6531991,1949,2180,2017,1994,365,592,244,5835,42,41,811
1177466,6104044,6529508,6106204,6532188,1935,2448,2137,1836,341,362,437,5699,42,41,811
1178468,6104228,6529696,6106401,6532385,1890,2253,2264,1724,281,222,394,5731,36,48,810
1179469,6104416,6529872,6106598,6532582,1869,2338,2392,1680,215,-24,-59,5743,36,48,810
1180470,6104548,6530088,6106795,6532779,2249,2080,2500,1702,185,-319,-776,5973,44,38,808
1181471,6104708,6530260,6106992,6532976,2090,2367,2586,1838,211,-516,-1406,6241,44,38,808
1182472,6104896,6530452,6107189,6533173,1920,2244,2645,2045,247,-646,-1354,6232,20,38,808
1183473,6105028,6530656,6107386,6533370,2299,2167,2689,2231,258,-851,-1047,5975,20,38,808
1184473,6105156,6530872,6107583,6533567,2355,2084,2732,2281,248,-1126,-1099,5648,41,45,807
1185475,6105340,6531076,6107780,6533764,2011,2157,2785,2276,250,-1192,-1347,5328,41,45,807
1186475,6105488,6531236,6107977,6533961,2258,2448,2858,2203,268,-1150,-1382,4901,27,31,807
1187477,6105604,6531420,6108174,6534158,2494,2305,2940,2062,314,-1140,-1263,4535,27,31,807
1188477,6105804,6531604,6108371,6534355,1969,2310,3014,1785,411,-1050,-1059,4112,32,31,809
1189479,6105952,6531784,6108568,6534552,2315,2344,3065,1505,565,-987,-516,4047,32,31,809
1190480,6106064,6531980,6108765,6534749,2577,2244,3093,1201,747,-993,-206,3777,42,47,806
1191480,6106256,6532204,6108962,6534946,2081,2058,3112,897,921,-947,-266,3641,42,47,806
1192481,6106444,6532356,6109159,6535143,2111,2528,3137,583,1050,-1022,-203,3515,32,51,805
1193482,6106568,6532508,6109356,6535340,2543,2549,3174,255,1129,-1078,-184,3303,32,51,805
1194484,6106708,6532692,6109553,6535537,2469,2355,3207,-72,1153,-1093,-263,3183,37,35,808
1195485,6106928,6532908,6109750,6535734,1959,2147,3228,-415,1147,-1230,-244,3191,37,35,808
1196486,6107032,6533108,6109947,6535931,2726,2246,3230,-622,1163,-1198,-487,3422,38,42,804
1197487,6107172,6533328,6110144,6536128,2526,2112,3206,-793,1271,-1066,-959,3262,38,42,804
1198488,6107368,6533496,6110341,6536325,2177,2450,3137,-909,1421,-1165,-449,3366,22,41,809
1199489,6107528,6533680,6110538,6536522,2418,2356,3011,-999,1540,-1350,93,3404,22,41,809
1200489,6107660,6533880,6110735,6536719,2623,2256,2878,-1066,1667,-1427,215,3375,40,35,807
1201491,6107864,6534084,6110932,6536916,2170,2228,2771,-1149,1811,-1379,237,3244,40,35,807
1202492,6108044,6534312,6111129,6537113,2328,2065,2681,-1258,1943,-1402,177,3089,28,33,807
1203492,6108208,6534528,6111326,6537310,2444,2132,2599,-1327,2065,-1389,-118,3117,28,33,807
1204493,6108380,6534756,6111523,6537507,2405,2044,2522,-1345,2215,-1385,-597,3101,26,38,807
1205495,6108560,6534960,6111720,6537704,2363,2191,2441,-1307,2400,-1366,-688,3296,26,38,807
1206496,6108708,6535208,6111917,6537901,2585,1895,2343,-1254,2569,-1382,-24,3184,43,52,807
1207497,6108888,6535420,6112114,6538098,2393,2113,2223,-1193,2677,-1318,207,3159,43,52,807
1208498,6109060,6535652,6112311,6538295,2455,1974,2100,-1145,2730,-1312,267,3115,41,42,807
1209498,6109236,6535904,6112508,6538492,2439,1825,1972,-1097,2750,-1201,240,3160,41,42,807
1210500,6109392,6536132,6112705,6538689,2583,1962,1851,-1027,2749,-1108,170,3165,30,48,808
1211501,6109572,6536352,6112902,6538886,2442,2002,1756,-908,2737,-1012,-152,3212,30,48,808
1212502,6109740,6536568,6113099,6539083,2530,2020,1702,-780,2721,-915,-628,3204,25,58,808
1213503,6109868,6536804,6113296,6539280,2811,1878,1677,-655,2712,-760,-1009,3169,25,58,808
1214503,6110032,6537044,6113493,6539477,2600,1835,1651,-597,2721,-577,-1133,2992,23,48,807
1215504,6110192,6537288,6113690,6539674,2643,1789,1575,-581,2722,-471,-999,2909,23,48,807
1216505,6110344,6537520,6113887,6539871,2713,1850,1452,-603,2719,-414,-417,2807,43,53,805
1217506,6110468,6537756,6114084,6540068,2921,1808,1314,-641,2740,-255,82,2768,43,53,805
1218507,6110616,6538020,6114281,6540265,2793,1603,1210,-653,2783,30,288,2761,44,54,808
1219508,6110764,6538284,6114478,6540462,2816,1575,1154,-660,2878,335,-210,2821,44,54,808
1220509,6110864,6538532,6114675,6540659,3159,1652,1127,-656,2979,389,56,2806,44,58,806
1221510,6111048,6538776,6114872,6540856,2640,1658,1079,-715,3004,339,671,2604,44,58,806
1222511,6111260,6539076,6115069,6541053,2459,1262,1011,-750,2952,275,878,2765,37,43,808
1223512,6111440,6539252,6115266,6541250,2668,2047,936,-699,2878,335,949,2960,37,43,808
1224513,6111624,6539396,6115463,6541447,2649,2271,859,-622,2820,410,733,3045,43,28,809
1225514,6111808,6539544,6115660,6541644,2655,2267,773,-436,2804,444,632,3369,43,28,809
1226515,6111956,6539700,6115857,6541841,2903,2236,683,-210,2835,490,881,3485,51,33,805
1227517,6112140,6539904,6116054,6542038,2685,1933,602,77,2880,563,980,3657,51,33,805
1228517,6112296,6540144,6116251,6542235,2878,1689,551,412,2899,471,924,3836,29,36,805
1229519,6112456,6540408,6116448,6542432,2870,1511,568,803,2878,546,198,3912,29,36,805
1230520,6112596,6540728,6116645,6542629,3021,1107,658,1158,2818,533,-139,3819,42,49,807
1231521,6112748,6540980,6116842,6542826,2967,1509,754,1507,2697,410,610,3854,42,49,807
1232521,6112900,6541260,6117039,6543023,2986,1297,818,1787,2527,371,1305,3702,37,63,808
1233523,6113052,6541540,6117236,6543220,3007,1261,834,2112,2328,315,1669,3795,37,63,808
1234523,6113192,6541856,6117433,6543417,3108,984,793,2463,2145,370,1806,3792,41,67,807
1235525,6113352,6542152,6117630,6543614,3000,1066,694,2747,1981,506,1554,3699,41,67,807
1236525,6113516,6542480,6117827,6543811,2991,808,569,3082,1854,560,1056,3777,36,57,806
1237527,6113692,6542792,6118024,6544008,2926,858,454,3349,1792,651,356,3627,36,57,806
1238527,6113860,6543104,6118221,6544205,2989,808,342,3547,1727,634,401,3459,49,63,808
1239528,6114048,6543444,6118418,6544402,2869,570,210,3729,1661,708,-124,3425,49,63,808
1240529,6114208,6543844,6118615,6544599,3061,106,76,3833,1577,695,97,3040,49,60,809
1241530,6114384,6544240,6118812,6544796,2971,44,-50,3865,1446,674,677,2934,49,60,809
1242531,6114588,6544440,6119009,6544993,2794,1268,-154,3820,1260,568,1081,2650,32,75,811
1243533,6114784,6544712,6119206,6545190,2846,785,-258,3671,1022,560,1258,2491,32,75,811
1244533,6114984,6545032,6119403,6545387,2819,432,-362,3519,733,433,1565,2419,44,68,811
1245535,6115184,6545368,6119600,6545584,2819,270,-484,3309,389,317,1928,2292,44,68,811
1246536,6115388,6545652,6119797,6545781,2792,557,-663,3111,-27,237,2262,2457,56,64,811
1247537,6115592,6545844,6119994,6545978,2790,1134,-895,3043,-488,73,2252,2850,56,64,811
1248537,6115836,6546056,6120191,6546175,2520,1003,-1113,3105,-908,-121,1913,3238,36,52,811
1249539,6116044,6546300,6120388,6546372,2741,782,-1314,3328,-1252,-309,1709,3775,36,52,811
1250539,6116248,6546532,6120585,6546569,2763,842,-1555,3664,-1530,-466,2015,4076,50,38,810
1251541,6116448,6546732,6120782,6546766,2788,1040,-1842,4030,-1774,-524,2158,4071,50,38,810
1252541,6116672,6546896,6120979,6546963,2627,1280,-2145,4329,-1954,-436,1940,3971,46,44,811
1253543,6116868,6547056,6121176,6547160,2804,1321,-2441,4513,-2034,-351,1438,3854,46,44,811
1254544,6117056,6547228,6121373,6547357,2859,1257,-2669,4601,-2022,-261,1026,3571,53,28,810
1255545,6117284,6547376,6121570,6547554,2596,1429,-2833,4520,-2000,-192,1260,3040,53,28,810
1256555,6117488,6547532,6121800,6547784,2757,1411,-2940,4218,-2046,-157,1259,2514,35,43,809
1257547,6117708,6547688,6121997,6547981,2648,1429,-2981,3826,-2183,-221,1070,2241,35,43,809
1258547,6117924,6547876,6122194,6548178,2666,1233,-2986,3415,-2406,-446,865,2198,43,25,809
1259548,6118104,6548036,6122391,6548375,2899,1424,-2967,2952,-2649,-693,442,2175,43,25,809
1260549,6118308,6548204,6122588,6548572,2747,1387,-2945,2552,-2864,-691,-71,2506,29,26,808
1261551,6118504,6548388,6122785,6548769,2798,1293,-2894,2257,-3021,-708,-527,2726,29,26,808
1262551,6118676,6548504,6122982,6548966,2960,1754,-2859,2067,-3159,-881,-803,3179,47,41,808
1263552,6118844,6548640,6123179,6549163,2999,1655,-2894,1951,-3308,-1097,-972,3407,47,41,808
1264553,6119032,6548768,6123376,6549360,2878,1736,-2982,1874,-3437,-1201,-1303,3874,41,27,809
1265554,6119212,6548972,6123573,6549557,2937,1258,-3127,2084,-3498,-1153,-1753,4970,41,27,809
1266555,6119396,6549128,6123770,6549754,2919,1577,-3251,2453,-3515,-1372,-2065,5147,49,27,806
1267556,6119608,6549308,6123967,6549951,2737,1434,-3303,2792,-3526,-1593,-2348,5121,49,27,806
1268557,6119780,6549464,6124164,6550148,2999,1602,-3271,2983,-3540,-1656,-2495,4946,51,37,808
1269558,6119988,6549608,6124361,6550345,2770,1700,-3188,3061,-3561,-1687,-2439,4596,51,37,808
1270559,6120188,6549748,6124558,6550542,2820,1750,-3069,2947,-3581,-1838,-2430,3925,28,22,807
1271560,6120372,6549896,6124755,6550739,2927,1722,-2945,2652,-3587,-2031,-2395,3754,28,22,807
1272561,6120588,6550024,6124952,6550936,2719,1877,-2844,2379,-3564,-2085,-2416,4122,34,20,807
1273562,6120788,6550064,6125149,6551133,2818,2497,-2746,2124,-3522,-2045,-2520,4073,34,20,807
1274563,6120992,6550208,6125346,6551330,2791,1871,-2637,1966,-3454,-2157,-2890,4430,45,29,806
1275564,6121208,6550336,6125543,6551527,2709,2001,-2487,1748,-3358,-2305,-3187,4264,45,29,806
1276565,6121416,6550468,6125740,6551724,2755,2004,-2322,1476,-3226,-2315,-3371,4400,53,25,803
1277567,6121640,6550620,6125937,6551921,2644,1899,-2154,1165,-3044,-2249,-3278,4278,53,25,803
1278567,6121852,6550748,6126134,6552118,2712,2081,-2007,806,-2820,-2255,-3046,4312,50,31,806
1279569,6122068,6550816,6126331,6552315,2680,2512,-1876,447,-2600,-2362,-2687,4511,50,31,806
1280569,6122312,6550960,6126528,6552512,2485,2061,-1745,127,-2415,-2404,-2257,4687,48,32,806
1281570,6122564,6551100,6126725,6552709,2412,2112,-1632,-77,-2289,-2396,-1998,5038,48,32,806
1282571,6122828,6551220,6126922,6552906,2309,2270,-1531,-270,-2171,-2438,-1907,5192,59,20,802
1283572,6123084,6551328,6127119,6553103,2333,2385,-1425,-438,-2036,-2366,-1974,5468,59,20,802
1284573,6123332,6551440,6127316,6553300,2361,2397,-1302,-589,-1893,-2236,-1870,5508,63,19,807
1285574,6123616,6551536,6127513,6553497,2099,2542,-1155,-766,-1766,-2077,-1606,5533,63,19,807
1286575,6123896,6551684,6127710,6553694,2089,2239,-999,-991,-1665,-1916,-1064,5384,47,24,806
1287576,6124156,6551824,6127907,6553891,2186,2315,-849,-1269,-1590,-1711,-351,5417,47,24,806
1288577,6124440,6551952,6128104,6554088,1999,2420,-705,-1559,-1518,-1438,59,5351,65,33,806
1289578,6124708,6552120,6128301,6554285,2068,2183,-569,-1881,-1412,-1103,90,5386,65,33,806
1290579,6125000,6552204,6128498,6554482,1878,2759,-382,-2190,-1276,-889,7,5474,47,33,807
1291580,6125268,6552316,6128695,6554679,1997,2621,-143,-2492,-1146,-705,20,5600,47,33,807
1292582,6125552,6552432,6128892,6554876,1859,2633,150,-2741,-1044,-552,-57,5772,61,33,808
1293583,6125840,6552540,6129089,6555073,1795,2722,446,-2989,-958,-323,-182,5719,61,33,808
1294584,6126120,6552676,6129286,6555270,1809,2574,722,-3227,-864,-8,-262,5775,64,35,807
1295585,6126432,6552812,6129483,6555467,1559,2601,974,-3459,-761,188,-94,5667,64,35,807
1296586,6126748,6552944,6129680,6555664,1482,2656,1205,-3673,-671,322,123,5594,60,31,807
1297587,6127008,6553072,6129877,6555861,1805,2711,1433,-3865,-622,433,267,5630,60,31,807
1298588,6127264,6553152,6130074,6556058,1804,3064,1643,-3982,-616,563,393,5854,56,32,809
1299589,6127592,6553272,6130271,6556255,1298,2847,1813,-3966,-648,645,466,6065,56,32,809
1300590,6127860,6553428,6130468,6556452,1642,2641,1971,-3900,-701,731,318,6167,55,18,807
1301591,6128104,6553564,6130665,6556649,1772,2793,2123,-3739,-748,812,-63,6401,55,18,807
1302592,6128416,6553680,6130862,6556846,1296,2955,2285,-3544,-781,943,-267,6366,53,23,806
1303592,6128644,6553792,6131059,6557043,1809,3018,2433,-3323,-798,1017,-350,6354,53,23,806
1304593,6128872,6553872,6131256,6557240,1795,3270,2578,-3095,-810,1000,-318,6219,60,18,806
1305594,6129164,6554000,6131453,6557437,1354,3001,2724,-2877,-840,987,-117,6048,60,18,806
1306595,6129372,6554144,6131650,6557634,1875,2924,2873,-2718,-873,925,21,5841,56,21,805
1307596,6129568,6554308,6131847,6557831,1951,2815,3033,-2590,-901,921,-109,5622,56,21,805
1308597,6129816,6554404,6132044,6558028,1604,3285,3190,-2458,-903,814,-222,5420,36,19,807
1309599,6130080,6554508,6132241,6558225,1475,3277,3349,-2383,-892,653,-192,5087,36,19,807
1310599,6130296,6554632,6132438,6558422,1767,3184,3508,-2278,-872,596,-303,4939,47,29,805
1311601,6130540,6554764,6132635,6558619,1571,3164,3666,-2204,-830,485,-437,4765,47,29,805
1312601,6130780,6554912,6132832,6558816,1578,3086,3818,-2149,-789,270,-304,4683,40,24,805
1313603,6131004,6555048,6133029,6559013,1666,3188,3950,-2046,-752,89,-188,4521,40,24,805
1314603,6131272,6555136,6133226,6559210,1361,3537,4067,-1885,-703,-67,-133,4555,46,36,803
1315604,6131572,6555236,6133423,6559407,1116,3505,4152,-1642,-633,-238,-219,4674,46,36,803
1316605,6131812,6555364,6133620,6559604,1472,3362,4217,-1366,-545,-339,-353,4560,48,32,804
1317607,6132072,6555516,6133817,6559801,1320,3233,4257,-1040,-431,-450,-448,4647,48,32,804
1318608,6132388,6555672,6134014,6559998,918,3226,4286,-727,-308,-545,-538,4338,53,39,804
1319608,6132656,6555800,6134211,6560195,1187,3432,4302,-435,-204,-649,-656,4121,53,39,804
1320609,6132924,6555976,6134408,6560392,1157,3142,4297,-225,-133,-845,-555,3733,45,38,805
1321610,6133228,6556120,6134605,6560589,885,3366,4261,-144,-91,-952,-492,3309,45,38,805
1322611,6133488,6556292,6134802,6560786,1132,3203,4185,-111,-55,-960,-456,2882,54,43,804
1323612,6133760,6556444,6134999,6560983,1024,3349,4097,-151,-17,-991,-400,2575,54,43,804
1324613,6134016,6556628,6135196,6561180,1099,3155,3994,-242,38,-1064,-405,2352,44,28,805
1325615,6134236,6556804,6135393,6561377,1314,3215,3871,-370,107,-987,-366,2098,44,28,805
1326615,6134448,6556976,6135590,6561574,1357,3252,3723,-538,210,-757,-341,1822,58,44,805
1327617,6134660,6557156,6135787,6561771,1351,3211,3561,-740,340,-620,-287,1652,58,44,805
1328617,6134888,6557332,6135984,6561968,1237,3246,3394,-963,495,-483,-223,1367,50,33,806
1329619,6135100,6557484,6136181,6562165,1332,3417,3218,-1304,668,-369,-172,1060,50,33,806
1330619,6135288,6557664,6136378,6562362,1486,3250,3021,-1634,845,-274,-21,1019,35,30,805
1331620,6135480,6557848,6136575,6562559,1463,3232,2805,-2016,1031,-191,107,763,35,30,805
1332621,6135660,6557992,6136772,6562756,1545,3505,2574,-2382,1213,-62,229,848,34,46,804
1333623,6135828,6558180,6136969,6562953,1633,3235,2322,-2738,1380,1,336,730,34,46,804
1334624,6136012,6558392,6137166,6563150,1540,3079,2054,-3011,1503,113,444,898,47,35,805
1335625,6136172,6558608,6137363,6563347,1706,3047,1766,-3215,1563,141,563,1086,47,35,805
1336625,6136276,6558828,6137560,6563544,2097,3013,1459,-3391,1589,151,632,1238,45,41,804
1337626,6136488,6559008,6137757,6563741,1415,3271,1132,-3488,1593,264,684,1473,45,41,804
1338627,6136608,6559184,6137954,6563938,2025,3307,790,-3533,1589,382,744,1629,25,37,805
1339635,6136704,6559384,6138184,6564168,2234,3171,424,-3453,1584,564,608,1952,25,37,805
1340629,6136920,6559584,6138381,6564365,1476,3171,51,-3367,1604,712,276,2057,23,30,805
1341631,6137056,6559760,6138578,6564562,2002,3331,-319,-3217,1651,906,41,2283,23,30,805
1342631,6137188,6559960,6138775,6564759,2057,3180,-665,-3095,1695,1045,177,2258,43,43,802
1343633,6137376,6560120,6138972,6564956,1711,3447,-974,-2942,1686,1188,579,2320,43,43,802
1344633,6137544,6560260,6139169,6565153,1849,3598,-1262,-2839,1631,1310,726,2279,44,45,802
1345635,6137684,6560408,6139366,6565350,2050,3570,-1529,-2757,1559,1428,673,2320,44,45,802
1346635,6137844,6560572,6139563,6565547,1941,3486,-1777,-2645,1495,1564,609,2424,28,45,801
1347636,6138040,6560764,6139760,6565744,1716,3314,-1997,-2574,1422,1653,727,2424,28,45,801
1348637,6138188,6560928,6139957,6565941,2039,3504,-2221,-2498,1320,1682,836,2647,25,33,798
1349638,6138324,6561076,6140154,6566138,2141,3627,-2435,-2391,1191,1654,825,2838,25,33,798
1350652,6138552,6561200,6140351,6566335,1552,3800,-2648,-2226,1063,1675,640,3173,28,29,803
1351640,6138728,6561380,6140548,6566532,1887,3469,-2860,-1984,938,1623,762,3396,28,29,803
1352641,6138876,6561528,6140745,6566729,2084,3691,-3074,-1704,803,1615,780,3667,30,23,799
1353642,6139104,6561732,6140942,6566926,1570,3339,-3256,-1405,661,1614,621,3869,30,23,799
