"Data file recorded 2014/9/22  16:7:47"
"%  Right Stride Frequency         = 3.0"
"%  Left Stride Frequency         = 3.0"
"%  Phase (Fractional)         = 32768.0"
"%  Experiment.py "
"%  Motor Gains    = [1800, 200, 100, 0, 0, 1800, 200, 100, 0, 0]
"% Columns: "
"% time | Right Leg Pos | Left Leg Pos | Commanded Right Leg Pos | Commanded Left Leg Pos | DCR | DCL | GyroX | GryoY | GryoZ | AX | AY | AZ | RBEMF | LBEMF | VBatt "
10936,6467736,6889968,6449470,6940990,-3800,3800,-43,190,-231,284,-79,4134,-3,7,827
11930,6467700,6890028,6449667,6941187,-3800,3800,-44,190,-230,300,-83,4128,9,-10,827
12931,6467680,6889992,6449864,6941384,-3800,3800,-44,191,-232,295,-67,4132,9,-10,827
13932,6467596,6890012,6450061,6941581,-3800,3800,-44,184,-235,280,-54,4120,-25,19,789
14933,6467332,6890116,6450258,6941778,-3800,3800,-44,185,-242,252,63,4102,-25,19,789
15934,6467020,6890216,6450455,6941975,-3800,3800,-72,175,-224,342,-31,4097,-47,1,789
16935,6466756,6890296,6450652,6942172,-3800,3800,-135,198,-156,416,-254,4214,-47,1,789
17923,6466392,6890376,6450849,6942369,-3349,3800,-211,260,-90,422,-53,4260,-73,12,790
18924,6465956,6890420,6451046,6942566,-2624,3800,-246,232,-65,625,248,3859,-73,12,790
19925,6465476,6890460,6451243,6942763,-2053,3800,-240,75,-24,1085,192,3695,-73,1,792
20927,6465048,6890552,6451440,6942960,-2107,3800,-223,-121,41,1390,426,3633,-73,1,792
21927,6464628,6890620,6451637,6943157,-1888,3800,-224,-282,100,1718,503,3632,-71,0,798
22928,6464204,6890700,6451834,6943354,-1593,3800,-247,-419,129,1957,405,3556,-71,0,798
23929,6463752,6890788,6452031,6943551,-1135,3800,-278,-482,117,1857,468,3954,-86,8,798
24930,6463368,6890872,6452228,6943748,-1307,3800,-322,-347,58,1636,480,4446,-86,8,798
25931,6463020,6890928,6452425,6943945,-1295,3800,-376,-174,-42,1575,599,4514,-77,4,800
26932,6462648,6890984,6452622,6944142,-896,3800,-451,52,-150,1619,599,4761,-77,4,800
27933,6462364,6891052,6452819,6944339,-1237,3800,-528,336,-260,1537,553,4933,-51,-2,801
28934,6462132,6891108,6453016,6944536,-1376,3800,-615,709,-335,1414,181,5176,-51,-2,801
29935,6461888,6891172,6453213,6944733,-1108,3800,-671,1061,-337,1403,-75,5018,-43,14,801
30936,6461704,6891220,6453410,6944930,-1317,3800,-697,1373,-272,1469,-248,5092,-43,14,801
31937,6461572,6891284,6453607,6945127,-1500,3800,-721,1717,-187,1388,-226,5095,-34,11,800
32938,6461404,6891304,6453804,6945324,-1115,3800,-725,1897,-98,1260,-187,4632,-34,11,800
33939,6461276,6891376,6454001,6945521,-1225,3800,-726,2105,-20,1166,-136,4655,-18,11,799
34940,6461188,6891428,6454198,6945718,-1350,3800,-730,2218,36,1022,12,4306,-18,11,799
35941,6461096,6891512,6454395,6945915,-1199,3800,-740,2412,97,849,-52,4462,-11,4,799
36943,6461024,6891600,6454592,6946112,-1208,3800,-751,2527,172,574,-198,4262,-11,4,799
37943,6461020,6891684,6454789,6946309,-1546,3800,-777,2693,248,366,-322,4490,-16,7,800
38944,6460980,6891736,6454986,6946506,-1218,3800,-816,2865,324,245,-385,4579,-16,7,800
39945,6460948,6891844,6455183,6946703,-1168,3800,-868,3108,399,8,-487,4785,7,8,799
40946,6460948,6891944,6455380,6946900,-1282,3800,-921,3421,467,-336,-470,4949,7,8,799
41947,6460952,6892040,6455577,6947097,-1224,3800,-951,3744,514,-579,-365,4915,-7,20,800
42948,6460952,6892144,6455774,6947294,-1113,3800,-953,4112,541,-739,-330,5183,-7,20,800
43949,6460936,6892264,6455971,6947491,-920,3800,-915,4465,541,-902,-303,5085,9,24,800
44950,6460940,6892360,6456168,6947688,-962,3800,-851,4757,513,-1043,-359,5119,9,24,800
45951,6460908,6892448,6456365,6947885,-637,3800,-768,4963,471,-1152,-526,4931,7,23,801
46952,6460928,6892564,6456562,6948082,-885,3800,-679,5131,403,-1162,-668,4790,7,23,801
47953,6460924,6892672,6456759,6948279,-648,3800,-601,5236,299,-1163,-557,4634,6,15,801
48955,6460920,6892752,6456956,6948476,-560,3800,-527,5233,172,-1135,-405,4398,6,15,801
49956,6460920,6892816,6457153,6948673,-500,3800,-453,5080,25,-1009,-81,3925,7,8,802
50956,6460928,6892912,6457350,6948870,-467,3800,-391,4741,-126,-838,221,3482,7,8,802
51957,6460932,6892976,6457547,6949067,-358,3800,-340,4253,-270,-685,438,3140,-2,6,802
52958,6460928,6893044,6457744,6949264,-221,3800,-290,3615,-392,-618,555,2750,-2,6,802
53959,6460932,6893124,6457941,6949461,-186,3800,-218,2871,-499,-622,706,2512,-2,15,803
54960,6460948,6893204,6458138,6949658,-182,3800,-111,2134,-600,-606,829,2400,-2,15,803
55961,6460964,6893312,6458335,6949855,-103,3800,10,1364,-679,-732,750,2520,7,23,804
56962,6460980,6893404,6458532,6950052,-24,3800,117,700,-722,-915,591,2809,7,23,804
57963,6461004,6893504,6458729,6950249,2,3800,207,93,-727,-1112,485,3102,13,23,802
58964,6461028,6893624,6458926,6950446,77,3800,272,-391,-709,-1356,389,3439,13,23,802
59965,6461068,6893736,6459123,6950643,46,3800,319,-780,-673,-1593,306,3746,8,30,804
60966,6461100,6893868,6459320,6950840,167,3800,370,-1098,-613,-1811,299,3909,8,30,804
61967,6461148,6894024,6459517,6951037,133,3800,429,-1384,-531,-1989,343,4007,16,26,805
62968,6461212,6894172,6459714,6951234,91,3800,476,-1620,-417,-2098,394,4177,16,26,805
63969,6461276,6894340,6459911,6951431,150,3800,521,-1832,-265,-2164,532,4261,5,39,805
64970,6461368,6894524,6460108,6951628,20,3800,576,-2028,-75,-2261,669,4315,5,39,805
65971,6461456,6894688,6460305,6951825,93,3800,643,-2187,147,-2267,664,4353,29,29,805
66972,6461532,6894864,6460502,6952022,221,3800,733,-2359,389,-2232,726,4262,29,29,805
67973,6461628,6895064,6460699,6952219,140,3800,843,-2498,637,-2191,716,4330,31,30,805
68974,6461712,6895280,6460896,6952416,264,3800,952,-2659,872,-2153,517,4265,31,30,805
69975,6461804,6895496,6461093,6952613,260,3800,1054,-2817,1081,-2111,494,4208,24,41,803
70976,6461912,6895720,6461290,6952810,199,3800,1171,-2952,1277,-1985,726,4257,24,41,803
71977,6462036,6895928,6461487,6953007,131,3800,1312,-3085,1471,-1827,816,4190,35,30,805
72978,6462152,6896152,6461684,6953204,217,3800,1453,-3176,1651,-1666,743,4329,35,30,805
73979,6462268,6896376,6461881,6953401,252,3800,1586,-3239,1809,-1463,536,4118,35,48,805
74980,6462396,6896568,6462078,6953598,208,3800,1725,-3336,1922,-1246,362,4052,35,48,805
75981,6462516,6896860,6462275,6953795,292,3800,1862,-3396,1986,-1045,214,4029,39,50,805
76982,6462648,6897148,6462472,6953992,245,3800,1979,-3437,2011,-856,204,4177,39,50,805
77983,6462804,6897404,6462669,6954189,113,3800,2076,-3381,2005,-678,323,4366,33,52,805
78984,6462912,6897652,6462866,6954386,452,3800,2155,-3281,1985,-515,453,4469,33,52,805
79985,6463036,6897960,6463063,6954583,384,3800,2215,-3082,1917,-411,663,4526,32,52,805
80986,6463152,6898296,6463260,6954780,470,3800,2251,-2936,1795,-237,429,4393,32,52,805
81987,6463288,6898608,6463457,6954977,372,3800,2265,-2759,1676,-9,-28,4519,41,52,805
82988,6463408,6898912,6463654,6955174,506,3800,2244,-2536,1604,241,15,4591,41,52,805
83989,6463596,6899220,6463851,6955371,85,3800,2200,-2263,1584,449,28,4557,25,52,805
84990,6463736,6899564,6464048,6955568,410,3800,2142,-2009,1597,625,-306,4459,25,52,805
85991,6463856,6899916,6464245,6955765,568,3800,2083,-1788,1588,717,-405,4210,42,64,806
86992,6463996,6900272,6464442,6955962,468,3800,2020,-1602,1517,813,-392,3986,42,64,806
87993,6464128,6900576,6464639,6956159,547,3800,1944,-1481,1422,844,-479,3773,44,72,806
88994,6464248,6900968,6464836,6956356,656,3800,1848,-1391,1325,836,-673,3654,44,72,806
89995,6464404,6901400,6465033,6956553,449,3800,1728,-1270,1226,806,-803,3609,39,78,805
90996,6464552,6901780,6465230,6956750,520,3800,1608,-1132,1144,801,-1049,3495,39,78,805
91997,6464676,6902268,6465427,6956947,703,3800,1503,-1007,1092,830,-1428,3389,22,83,805
93005,6464828,6902760,6465854,6957374,649,3800,1393,-842,1077,778,-1691,3358,22,83,805
93999,6464944,6903224,6466051,6957571,910,3800,1272,-705,1073,797,-1779,3203,41,83,807
95000,6465072,6903792,6466248,6957768,865,3800,1159,-506,1083,863,-1949,3265,41,83,807
96001,6465212,6904360,6466445,6957965,815,3800,1062,-322,1124,844,-2064,3188,42,103,806
97002,6465348,6904976,6466642,6958162,867,3800,1004,-164,1173,908,-2203,2998,42,103,806
98003,6465476,6905684,6466839,6958359,948,3800,986,-26,1243,959,-2281,2927,43,107,807
99004,6465608,6906300,6467036,6958556,952,3800,1007,85,1333,937,-2328,2719,43,107,807
100005,6465720,6907016,6467233,6958753,1114,3800,1028,152,1407,1057,-2377,2519,41,131,807
101006,6465784,6907648,6467430,6958950,1473,3800,1066,191,1456,1115,-2370,2360,41,131,807
102007,6465924,6908436,6467627,6959147,1024,3800,1112,148,1477,1199,-2270,2195,45,124,807
103008,6466040,6909148,6467824,6959344,1209,3800,1183,73,1474,1356,-2382,2070,45,124,807
104009,6466160,6910036,6468021,6959541,1218,3800,1254,-3,1465,1424,-2335,2050,31,146,807
105010,6466316,6910848,6468218,6959738,1012,3800,1318,10,1456,1649,-2349,2211,31,146,807
106011,6466464,6911652,6468415,6959935,1084,3800,1366,102,1458,1900,-2381,2344,42,146,807
107012,6466588,6912472,6468612,6960132,1267,3800,1410,257,1476,1983,-2344,2571,42,146,807
108013,6466724,6913340,6468809,6960329,1219,3800,1439,484,1497,2170,-2331,2735,48,145,809
109014,6466872,6914380,6469006,6960526,1165,3800,1451,708,1508,2359,-2263,2794,48,145,809
110015,6467024,6915192,6469203,6960723,1161,3800,1455,980,1496,2515,-1962,2910,47,164,808
111016,6467184,6915996,6469400,6960920,1127,3800,1459,1230,1403,2683,-1421,2782,47,164,808
112017,6467368,6916844,6469597,6961117,984,3800,1457,1472,1219,2767,-984,2756,38,157,809
113018,6467544,6917572,6469794,6961314,1043,3800,1434,1693,943,2742,-528,2725,38,157,809
114019,6467712,6918348,6469991,6961511,1106,3800,1405,1790,548,2742,-16,2216,49,153,807
115020,6467900,6919152,6470188,6961708,986,3800,1339,1817,40,2718,533,2281,49,153,807
116021,6468068,6919884,6470385,6961905,1124,3800,1261,1833,-541,2703,730,2083,37,146,807
117022,6468264,6920600,6470582,6962102,950,3800,1219,1786,-1145,2728,611,1836,37,146,807
118023,6468420,6921252,6470779,6962299,1218,3800,1185,1768,-1717,2569,486,2085,39,124,807
119024,6468604,6921832,6470976,6962496,1050,3800,1105,1839,-2209,2528,-211,2325,39,124,807
120025,6468760,6922576,6471173,6962693,1243,3800,944,1959,-2622,2549,35,2403,43,121,807
121026,6468944,6923116,6471370,6962890,1074,3800,724,2089,-2940,2663,3,2470,43,121,807
122027,6469108,6923736,6471567,6963087,1214,3800,453,2129,-3189,2893,68,2182,34,131,806
123028,6469272,6924320,6471764,6963284,1229,3800,176,2021,-3375,3062,-188,1875,34,131,806
124029,6469424,6924940,6471961,6963481,1324,3800,-102,1782,-3513,3105,-231,1437,47,126,806
125030,6469596,6925532,6472158,6963678,1210,3800,-373,1303,-3634,2954,260,828,47,126,806
126031,6469744,6926084,6472355,6963875,1383,3800,-716,768,-3848,2563,1136,840,47,129,805
127032,6469884,6926648,6472552,6964072,1458,3800,-1092,181,-4199,2045,1749,682,47,129,805
128033,6470036,6927204,6472749,6964269,1404,3800,-1466,-361,-4655,1652,1788,1027,27,105,805
129034,6470168,6927768,6472946,6964466,1557,3800,-1803,-772,-5065,1453,1771,1359,27,105,805
130035,6470320,6928352,6473143,6964663,1453,3800,-2076,-1070,-5240,1559,1575,1785,25,105,804
131036,6470444,6928972,6473340,6964860,1660,3800,-2366,-1214,-5125,1584,1526,2360,25,105,804
132037,6470548,6929496,6473537,6965057,1827,3800,-2667,-1294,-4668,1512,745,2750,40,109,803
133038,6470680,6930056,6473734,6965254,1682,3800,-2991,-1207,-3924,1272,297,3456,40,109,803
134039,6470824,6930640,6473931,6965451,1630,3800,-3225,-1094,-3002,853,168,3708,26,100,803
135040,6470952,6931152,6474128,6965648,1761,3800,-3409,-885,-2030,491,310,4209,26,100,803
136041,6471068,6931764,6474325,6965845,1872,3800,-3513,-730,-1110,211,747,4058,29,109,801
137042,6471192,6932456,6474522,6966042,1855,3800,-3589,-678,-333,-33,1257,4077,29,109,801
138043,6471284,6932936,6474719,6966239,2102,3800,-3899,-349,359,-106,805,5537,34,103,803
139044,6471412,6933468,6474916,6966436,1907,3800,-4389,53,1036,-395,108,5384,34,103,803
140045,6471496,6934148,6475113,6966633,2233,3800,-4753,205,1643,-519,-91,4628,39,108,802
141046,6471596,6934760,6475310,6966830,2177,3800,-4835,-162,2123,-470,448,3524,39,108,802
142047,6471708,6935388,6475507,6967027,2139,3800,-4829,-584,2526,-231,409,4140,40,126,803
143048,6471828,6936148,6475704,6967224,2124,3800,-4824,-903,2967,136,125,4598,40,126,803
144049,6471972,6936916,6475901,6967421,1998,3800,-4840,-913,3383,160,94,5673,45,156,803
145050,6472084,6937716,6476098,6967618,2236,3800,-4907,-483,3806,71,-566,7203,45,156,803
146051,6472220,6938592,6476295,6967815,2113,3800,-4990,135,4213,79,-873,8070,31,176,803
147051,6472348,6939532,6476492,6968012,2195,3800,-5105,892,4498,360,-504,8810,31,176,803
148053,6472444,6940444,6476689,6968209,2440,3800,-5253,1736,4615,293,-15,9323,45,178,802
149054,6472576,6941308,6476886,6968406,2245,3800,-5305,2513,4628,281,318,9169,45,178,802
150055,6472728,6942204,6477083,6968603,2139,3800,-5231,3059,4383,-221,1446,8805,26,174,805
151056,6472844,6943140,6477280,6968800,2401,3800,-4913,3459,3842,-387,2502,9227,26,174,805
152057,6473016,6944060,6477477,6968997,2063,3800,-2883,6571,2910,2770,3403,32767,52,182,804
153058,6473196,6945064,6477674,6969194,2021,3800,759,12853,1779,4689,3560,32767,52,182,804
154059,6473372,6945972,6477871,6969391,2057,3800,2754,15558,947,1268,2690,11766,34,175,805
155060,6473528,6946884,6478068,6969588,2201,3800,2834,14290,445,1329,2994,4042,34,175,805
156061,6473708,6947728,6478265,6969785,2059,3800,2443,11878,156,1634,2385,3159,37,180,806
157062,6473840,6948564,6478462,6969982,2388,3800,2403,10109,82,1372,1594,3309,37,180,806
158063,6474016,6949476,6478659,6970179,2123,3800,2622,8606,98,1444,1625,2545,55,168,805
159064,6474212,6950320,6478856,6970376,1999,3800,2802,7349,54,1816,1542,2951,55,168,805
160065,6474384,6951144,6479053,6970573,2161,3800,2846,5978,47,1819,1123,2789,46,168,805
161066,6474580,6951908,6479250,6970770,2013,3800,2785,4848,140,1479,535,3861,46,168,805
162067,6474784,6952712,6479447,6970967,1961,3800,2687,3776,225,643,1044,3586,39,156,805
163067,6475028,6953500,6479644,6971164,1691,3800,2592,2697,239,-310,1644,3593,39,156,805
164069,6475232,6954328,6479841,6971361,1939,3800,2477,1690,214,-730,1257,3484,55,170,806
165070,6475436,6955080,6480038,6971558,1937,3800,2347,581,262,-1168,684,3036,55,170,806
166071,6475668,6955784,6480235,6971755,1746,3800,2231,-425,398,-1876,633,3249,44,152,807
167072,6475868,6956404,6480432,6971952,1946,3800,2074,-1281,543,-2740,777,3692,44,152,807
168073,6476092,6956968,6480629,6972149,1785,3800,1837,-2325,600,-7514,654,4211,59,110,803
169074,6476320,6957540,6480826,6972346,1748,3800,1513,-3607,488,-10963,49,4819,59,110,803
170075,6476488,6958008,6481023,6972543,2136,3800,1285,-4836,441,-8816,829,5179,53,89,801
171076,6476704,6958464,6481220,6972740,1829,3800,1210,-5367,760,-8449,1416,6762,53,89,801
172077,6476908,6958868,6481417,6972937,1902,3800,1137,-4879,1041,-5477,1161,7078,37,86,802
173078,6477076,6959160,6481614,6973134,2140,3800,1135,-4097,1318,-7103,1111,7551,37,86,802
174079,6477284,6959492,6481811,6973331,1886,3800,1224,-3477,1641,-7310,462,6913,54,74,801
175080,6477476,6959828,6482008,6973528,1989,3800,1319,-3081,1901,-5903,285,5622,54,74,801
176088,6477676,6960116,6482238,6973758,1953,3800,1444,-2542,2321,-7057,555,6167,57,50,799
177082,6477868,6960380,6482435,6973955,2006,3800,1607,-2612,2774,-7305,-172,4391,57,50,799
178083,6478060,6960636,6482632,6974152,2010,3800,1802,-2839,3232,-6842,-395,4503,36,54,799
179084,6478240,6960892,6482829,6974349,2093,3800,2027,-2783,3742,-6066,-327,4459,36,54,799
180085,6478400,6961196,6483026,6974546,2235,3800,2196,-2721,4089,-5483,-944,3848,47,60,798
181086,6478612,6961452,6483223,6974743,1904,3800,2331,-2983,4467,-6212,-1542,3689,47,60,798
182087,6478764,6961716,6483420,6974940,2300,3800,2413,-3247,4910,-5170,-1880,3550,37,54,798
183088,6478920,6961980,6483617,6975137,2294,3800,2390,-3421,5302,-3936,-1869,2890,37,54,798
184089,6479072,6962240,6483814,6975334,2339,3800,2441,-3838,5668,-4443,-1697,2221,32,62,799
185090,6479204,6962564,6484011,6975531,2494,3800,2520,-4708,5839,-4015,-1774,1318,32,62,799
186091,6479324,6962908,6484208,6975728,2604,3800,2579,-5721,5844,-2726,-1555,918,22,70,797
187092,6479468,6963200,6484405,6975925,2478,3800,2616,-6530,5829,-1514,-1445,877,22,70,797
188093,6479628,6963572,6484602,6976122,2395,3800,2647,-7459,5820,-944,-1818,419,25,72,796
189094,6479768,6963968,6484799,6976319,2546,3800,2655,-8276,5917,-1121,-2057,1625,25,72,796
190095,6479964,6964328,6484996,6976516,2198,3800,2583,-8741,6022,-431,-2057,2167,53,85,795
191096,6480160,6964676,6485193,6976713,2199,3800,2425,-9018,6000,312,-1672,2165,53,85,795
192097,6480344,6965148,6485390,6976910,2281,3800,2254,-9177,5885,76,-1153,2776,31,74,797
193098,6480508,6965572,6485587,6977107,2421,3800,2101,-9436,5665,290,-794,2461,31,74,797
194099,6480700,6965988,6485784,6977304,2249,3800,1965,-9575,5372,769,-443,2684,35,94,799
195100,6480860,6966460,6485981,6977501,2466,3800,1821,-9536,5098,1344,-332,3002,35,94,799
196101,6481044,6966996,6486178,6977698,2323,3800,1619,-9344,4828,1636,-525,3347,50,93,799
197102,6481244,6967524,6486375,6977895,2222,3800,1427,-9042,4625,1394,-819,3884,50,93,799
198090,6481432,6968132,6486572,6978092,2302,3256,1253,-8485,4466,1505,-885,4505,34,121,799
199091,6481672,6968692,6486769,6978289,1959,3399,1063,-7720,4296,1609,-632,4829,34,121,799
200092,6481888,6969356,6486966,6978486,2102,2546,804,-6780,4107,1545,-175,5286,55,115,801
201093,6482120,6970004,6487163,6978683,1988,2450,552,-5927,3915,1725,-171,4899,55,115,801
202094,6482332,6970700,6487360,6978880,2107,1931,383,-5282,3754,1937,-5,4350,41,125,804
203095,6482552,6971444,6487557,6979077,2048,1393,305,-4652,3635,2262,230,4176,41,125,804
204096,6482808,6972124,6487754,6979274,1798,1582,301,-4121,3522,2296,401,3652,56,138,810
205097,6483076,6972804,6487951,6979471,1693,1371,401,-3609,3443,2113,275,3656,56,138,810
206098,6483332,6973412,6488148,6979668,1743,1642,573,-2982,3411,2255,-44,3836,47,116,813
207099,6483612,6974068,6488345,6979865,1557,1141,784,-2259,3396,2530,-387,3821,47,116,813
208100,6483856,6974788,6488542,6980062,1763,512,1037,-1440,3392,2590,-810,3953,64,130,815
209101,6484096,6975396,6488739,6980259,1770,1033,1300,-603,3348,2514,-1174,3874,64,130,815
210102,6484428,6975932,6488936,6980456,1137,1335,1541,306,3245,2286,-1335,3960,66,122,816
211103,6484708,6976568,6489133,6980653,1426,518,1723,1209,3035,2029,-1302,3738,66,122,816
212104,6484980,6977076,6489330,6980850,1443,1182,1875,2003,2723,1908,-1445,3346,54,108,815
213106,6485264,6977596,6489527,6981047,1331,966,2008,2734,2383,1825,-1658,3125,54,108,815
214106,6485556,6978220,6489724,6981244,1240,128,2130,3406,2047,1757,-1824,2819,58,91,817
215108,6485848,6978696,6489921,6981441,1199,932,2258,4066,1763,1837,-2220,2778,58,91,817
216108,6486148,6979216,6490118,6981638,1105,515,2386,4752,1621,2146,-2743,2875,59,88,818
217110,6486404,6979708,6490315,6981835,1354,561,2504,5499,1632,2381,-2992,2824,59,88,818
218110,6486644,6980064,6490512,6982032,1436,1341,2644,6148,1706,2470,-2556,2422,53,69,819
219111,6486972,6980364,6490709,6982229,830,1647,2799,6637,1767,2478,-1619,1883,53,69,819
220112,6487224,6980720,6490906,6982426,1282,1227,2980,6894,1733,2444,-391,1048,49,62,819
221114,6487496,6981024,6491103,6982623,1124,1505,3204,6768,1570,2126,355,-270,49,62,819
222114,6487712,6981288,6491300,6982820,1466,1727,3405,6383,1328,2055,789,-569,39,48,817
223115,6487976,6981528,6491497,6983017,1138,1858,3509,5986,1087,2178,1090,-482,39,48,817
224116,6488256,6981764,6491694,6983214,1001,1866,3573,5532,927,2133,748,-1054,40,49,816
225117,6488452,6982036,6491891,6983411,1528,1608,3631,5078,824,2169,734,-1158,40,49,816
226118,6488720,6982248,6492088,6983608,1048,1977,3643,4701,691,2328,1192,-982,55,34,815
227119,6488956,6982472,6492285,6983805,1230,1890,3596,4420,482,2055,1292,-785,55,34,815
228120,6489160,6982648,6492482,6984002,1428,2200,3463,4355,211,1662,1063,-275,54,45,813
229122,6489396,6982824,6492679,6984199,1211,2210,3244,4454,-93,1199,721,-34,54,45,813
230122,6489628,6982964,6492876,6984396,1222,2460,2944,4635,-428,877,695,172,44,30,814
231123,6489796,6983128,6493073,6984593,1636,2324,2588,4906,-809,753,967,298,44,30,814
232124,6490020,6983344,6493270,6984790,1274,1991,2204,5121,-1237,612,1065,-20,48,30,812
233125,6490192,6983524,6493467,6984987,1611,2224,1821,5203,-1690,451,982,-248,48,30,812
234126,6490372,6983708,6493664,6985184,1569,2205,1442,5166,-2131,270,892,-543,32,29,809
235127,6490588,6983872,6493861,6985381,1336,2345,1053,4995,-2542,309,858,-794,32,29,809
236128,6490764,6984040,6494058,6985578,1596,2332,615,4779,-2892,441,394,-833,26,36,809
237129,6490876,6984200,6494255,6985775,2033,2400,149,4414,-3115,741,-601,-1185,26,36,809
238130,6491052,6984404,6494452,6985972,1644,2122,-271,3817,-3206,1063,-406,-1961,36,35,809
239131,6491204,6984568,6494649,6986169,1814,2386,-607,2891,-3169,1180,28,-2582,36,35,809
240132,6491260,6984772,6494846,6986366,2476,2134,-913,1777,-3069,1324,364,-2950,24,30,807
241133,6491380,6984972,6495043,6986563,2111,2158,-1210,523,-2931,1539,629,-3329,24,30,807
242134,6491544,6985196,6495240,6986760,1852,1996,-1523,-766,-2700,1819,506,-3271,29,42,808
243135,6491640,6985416,6495437,6986957,2321,2012,-1878,-1973,-2337,2127,82,-2826,29,42,808
244136,6491732,6985604,6495634,6987154,2393,2216,-2297,-3048,-1853,2331,-259,-2448,22,40,808
245137,6491880,6985812,6495831,6987351,2066,2086,-2768,-4060,-1311,2511,-599,-2224,22,40,808
246138,6491960,6985992,6496028,6987548,2543,2268,-3288,-5018,-752,2574,-1008,-1777,16,50,806
247139,6492064,6986196,6496225,6987745,2434,2116,-3817,-5814,-191,2433,-1385,-1262,16,50,806
248140,6492224,6986400,6496422,6987942,2101,2113,-4552,-6053,420,2511,-2144,815,36,35,808
249141,6492372,6986644,6496619,6988139,2199,1842,-5724,-5414,1122,2533,-3208,3327,36,35,808
250142,6492480,6986808,6496816,6988336,2489,2358,-6657,-5232,1671,2454,-2093,409,40,46,806
251143,6492648,6986960,6497013,6988533,2128,2453,-7106,-5879,1955,2602,-1267,-834,40,46,806
252144,6492812,6987088,6497210,6988730,2168,2633,-7433,-6876,2134,2734,-1562,-419,39,34,809
253145,6492932,6987240,6497407,6988927,2477,2503,-7844,-7575,2273,2920,-1559,483,39,34,809
254146,6493104,6987428,6497604,6989124,2164,2283,-8455,-7527,2370,3203,-1370,3022,36,37,806
255147,6493292,6987608,6497801,6989321,2069,2340,-9233,-6740,2468,3454,-2226,4811,36,37,806
256148,6493392,6987752,6497998,6989518,2663,2589,-9744,-6155,2673,3702,-3025,3561,25,23,803
257149,6493548,6987896,6498195,6989715,2332,2613,-10106,-5607,2883,4004,-3349,4997,25,23,803
258150,6493792,6988020,6498392,6989912,1762,2770,-10277,-5282,2964,4138,-3538,4242,29,32,805
259160,6493964,6988184,6498622,6990142,2238,2550,-10244,-5065,2863,4108,-3569,4228,29,32,805
260152,6494128,6988340,6498819,6990339,2303,2618,-10029,-4943,2607,4139,-3550,4169,29,25,803
261153,6494364,6988504,6499016,6990536,1837,2582,-9736,-4620,2247,4293,-3608,5095,29,25,803
262154,6494568,6988632,6499213,6990733,2035,2839,-9447,-4051,1815,4104,-3016,6049,31,33,805
263155,6494752,6988792,6499410,6990930,2166,2655,-9119,-3198,1372,3949,-3186,6892,31,33,805
264156,6494944,6988968,6499607,6991127,2120,2564,-8694,-2161,940,3938,-3064,7717,29,44,807
265157,6495148,6989132,6499804,6991324,2043,2655,-8240,-1026,526,4296,-2509,8534,29,44,807
266158,6495340,6989324,6500001,6991521,2121,2482,-7792,220,59,4567,-1586,8995,36,32,805
267159,6495536,6989532,6500198,6991718,2097,2378,-7295,1358,-482,4594,-660,8833,36,32,805
268160,6495772,6989700,6500395,6991915,1831,2641,-6738,2406,-1077,4497,-48,8803,30,31,804
269161,6495964,6989856,6500592,6992112,2108,2735,-6218,3380,-1718,4512,1069,8765,30,31,804
270162,6496164,6990040,6500789,6992309,2058,2566,-5760,4174,-2336,4413,1782,8202,34,39,806
271163,6496420,6990228,6500986,6992506,1683,2545,-5284,4716,-2832,4296,1468,7689,34,39,806
272164,6496652,6990404,6501183,6992703,1819,2630,-4769,5067,-3204,4229,1732,7427,45,35,804
273165,6496852,6990628,6501380,6992900,2018,2318,-4236,5364,-3479,4147,1923,7485,45,35,804
274166,6497072,6990872,6501577,6993097,1884,2173,-3732,5666,-3678,4226,2056,7480,47,50,807
275167,6497320,6991072,6501774,6993294,1688,2447,-2327,7478,-3646,3584,716,21287,47,50,807
276168,6497492,6991256,6501971,6993491,2175,2554,988,13688,-3122,2020,-2212,32767,51,53,808
277169,6497676,6991460,6502168,6993688,2106,2426,3620,17588,-2971,3781,2654,18256,51,53,808
278170,6497892,6991676,6502365,6993885,1898,2342,4201,17295,-3376,3717,4489,4266,45,48,807
279171,6498032,6991908,6502562,6994082,2399,2228,3964,15058,-3950,3117,3815,2729,45,48,807
280172,6498180,6992132,6502759,6994279,2372,2266,3795,13228,-4334,2659,2469,3354,45,52,804
281173,6498352,6992316,6502956,6994476,2234,2523,3664,12750,-4075,2080,-561,5563,45,52,804
282174,6498528,6992524,6503153,6994673,2219,2368,3488,12568,-3390,1140,-2694,4636,23,37,805
283175,6498644,6992748,6503350,6994870,2631,2256,3184,12247,-2774,-209,-2834,5004,23,37,805
284176,6498788,6992988,6503547,6995067,2479,2138,2928,11568,-2497,-1576,-1494,4299,23,53,805
285177,6498956,6993216,6503744,6995264,2343,2200,2762,10701,-2453,-2281,-1642,3859,23,53,805
286178,6499076,6993432,6503941,6995461,2677,2267,2515,9919,-2287,-3062,-2486,4084,40,49,804
287179,6499236,6993652,6504138,6995658,2445,2232,2169,8813,-1878,-4948,-2848,3297,40,49,804
288180,6499396,6993876,6504335,6995855,2462,2195,1974,5369,-1290,-8613,-2452,-312,22,37,806
289181,6499520,6994072,6504532,6996052,2720,2372,1921,672,-670,-9598,-2356,567,22,37,806
290182,6499668,6994284,6504729,6996249,2593,2265,1840,-2405,-19,-8986,-3362,4406,29,38,804
291183,6499816,6994504,6504926,6996446,2615,2206,1839,-2571,783,-8042,-3153,8199,29,38,804
292184,6499960,6994760,6505123,6996643,2664,1955,1919,-1209,1403,-7023,-2337,8851,24,35,803
293185,6500072,6994956,6505320,6996840,2903,2330,2143,133,1734,-7091,-655,8705,24,35,803
294186,6500232,6995120,6505517,6997037,2620,2546,2518,1107,2009,-7237,-72,8825,19,36,804
295187,6500420,6995336,6505714,6997234,2450,2213,2939,1668,2264,-6641,-493,7596,19,36,804
296188,6500536,6995564,6505911,6997431,2937,2124,3381,1928,2681,-6902,-585,7384,28,45,802
297189,6500724,6995784,6506108,6997628,2492,2165,3841,2545,3397,-6959,-128,8137,28,45,802
298190,6500908,6996056,6506305,6997825,2523,1807,4369,3345,4396,-6840,472,7730,27,37,805
299191,6501080,6996288,6506502,6998022,2610,2042,4918,3810,5443,-6009,590,6319,27,37,805
300192,6501252,6996492,6506699,6998219,2622,2214,5344,3529,6174,-4815,221,4495,29,56,804
301193,6501448,6996744,6506896,6998416,2474,1890,5567,2676,6287,-2647,-40,2984,29,56,804
302194,6501640,6997020,6507093,6998613,2502,1706,5670,1666,6071,-1433,23,2649,30,47,804
303195,6501812,6997296,6507290,6998810,2639,1672,5774,884,5944,-883,335,3178,30,47,804
304196,6501984,6997648,6507487,6999007,2651,1129,5800,167,5813,473,317,2789,27,49,807
305197,6502164,6997888,6507684,6999204,2609,1810,5783,-591,5628,715,903,2917,27,49,807
306198,6502332,6998064,6507881,6999401,2698,2219,5756,-1279,5365,851,1329,3113,47,47,807
307199,6502528,6998196,6508078,6999598,2524,2524,5662,-1979,4925,1515,1181,2634,47,47,807
308200,6502724,6998356,6508275,6999795,2526,2365,5566,-2687,4390,1122,1319,2702,27,27,806
309201,6502880,6998544,6508472,6999992,2795,2194,5427,-3333,3739,871,1621,2802,27,27,806
310202,6503036,6998752,6508669,7000189,2815,2065,5032,-3755,2990,780,1519,3674,23,31,803
311203,6503200,6998972,6508866,7000386,2780,1980,4513,-3893,2248,355,1707,4050,23,31,803
312204,6503340,6999248,6509063,7000583,2956,1595,4044,-4030,1514,440,1349,3606,40,41,802
313205,6503456,6999572,6509260,7000780,3143,1239,3647,-4203,873,295,1203,3840,40,41,802
314206,6503580,6999768,6509457,7000977,3126,2041,3294,-4221,428,78,1555,4110,21,66,805
315207,6503736,7000128,6509654,7001174,2945,944,2883,-4025,142,478,2000,4612,21,66,805
316208,6503860,7000448,6509851,7001371,3178,1140,2464,-3713,-23,322,2445,4707,36,60,805
317209,6503964,7000720,6510048,7001568,3345,1407,2187,-3545,-129,-46,2728,4058,36,60,805
318210,6504080,7001024,6510245,7001765,3307,1160,2064,-3618,-232,-246,2654,3275,25,70,808
319211,6504248,7001344,6510442,7001962,2996,1006,2023,-3729,-263,-718,2030,3333,25,70,808
320212,6504424,7001640,6510639,7002159,2957,1114,2015,-3703,-171,-986,1148,3448,36,59,803
321213,6504564,7001912,6510836,7002356,3208,1231,1996,-3532,36,-1214,809,3634,36,59,803
322214,6504752,7002212,6511033,7002553,2913,1010,1931,-3141,330,-1479,817,3978,29,52,806
323215,6504904,7002560,6511230,7002750,3158,644,1816,-2608,659,-1607,877,4168,29,52,806
324216,6505056,7002892,6511427,7002947,3180,685,1691,-2051,987,-1818,974,4150,46,65,804
325217,6505204,7003200,6511624,7003144,3228,786,1564,-1547,1274,-2062,1515,3805,46,65,804
326218,6505348,7003532,6511821,7003341,3277,577,1466,-1107,1486,-2101,1811,3573,45,60,807
327219,6505484,7003868,6512018,7003538,3355,490,1420,-699,1629,-2075,1800,3412,45,60,807
328220,6505616,7004156,6512215,7003735,3410,750,1403,-241,1719,-1962,1407,3335,38,66,806
329221,6505744,7004436,6512412,7003932,3467,764,1389,188,1743,-1863,1254,3194,38,66,806
330222,6505888,7004632,6512609,7004129,3391,1289,1350,578,1670,-1737,1525,3099,21,47,806
331223,6506052,7004884,6512806,7004326,3282,914,1266,930,1485,-1508,1614,2890,21,47,806
332224,6506164,7005092,6513003,7004523,3646,1184,1144,1231,1256,-1210,1628,2802,23,39,805
333225,6506308,7005288,6513200,7004720,3470,1260,1002,1568,1058,-837,1715,2853,23,39,805
334226,6506468,7005488,6513397,7004917,3387,1234,816,1906,950,-299,1292,2859,40,49,804
335227,6506624,7005656,6513594,7005114,3432,1446,596,2254,966,351,626,2801,40,49,804
336228,6506776,7005836,6513791,7005311,3478,1379,292,2403,1019,875,666,2329,30,31,803
337229,6507000,7006028,6513988,7005508,3017,1306,-69,2308,956,1209,1707,1670,30,31,803
338230,6507180,7006180,6514185,7005705,3302,1576,-462,1991,703,1442,2442,1065,47,30,803
339231,6507368,7006328,6514382,7005902,3257,1622,-851,1627,395,1867,2270,1095,47,30,803
340232,6507576,7006512,6514579,7006099,3128,1403,-1205,1351,131,2292,2582,1369,42,29,806
341233,6507796,7006688,6514776,7006296,3045,1461,-1540,1219,-97,2561,2508,1621,42,29,806
342241,6508000,7006912,6515006,7006526,3157,1164,-1864,1182,-348,2761,2616,1879,51,30,803
343235,6508232,7007044,6515203,7006723,2968,1767,-2158,1200,-643,2979,2531,1998,51,30,803
344236,6508468,7007180,6515400,7006920,2928,1769,-2422,1205,-960,3124,2324,2140,56,43,804
345237,6508688,7007336,6515597,7007117,3019,1662,-2685,1270,-1330,3075,2801,2303,56,43,804
346238,6508932,7007488,6515794,7007314,2849,1707,-2945,1412,-1748,2971,2874,2381,60,37,803
347239,6509212,7007668,6515991,7007511,2589,1540,-3209,1581,-2184,2835,2863,2703,60,37,803
348240,6509460,7007880,6516188,7007708,2768,1333,-3484,1908,-2590,2774,2820,3335,51,36,805
349241,6509696,7008032,6516385,7007905,2827,1728,-3750,2436,-2924,2758,2409,3785,51,36,805
350242,6509980,7008176,6516582,7008102,2490,1801,-4002,3048,-3185,2665,1891,4047,55,25,808
351243,6510212,7008324,6516779,7008299,2801,1798,-4225,3735,-3401,2486,1386,4264,55,25,808
352244,6510460,7008472,6516976,7008496,2680,1819,-4414,4405,-3623,2168,1037,4119,62,38,806
353245,6510732,7008656,6517173,7008693,2498,1600,-4535,4952,-3889,1762,875,3887,62,38,806
354246,6510988,7008780,6517370,7008890,2573,2007,-4581,5336,-4250,1319,826,3585,62,29,805
355247,6511228,7008856,6517567,7009087,2656,2360,-4584,5703,-4718,896,670,3674,62,29,805
356248,6511472,7009004,6517764,7009284,2612,1932,-4608,6115,-5246,431,389,3824,63,28,807
357249,6511688,7009188,6517961,7009481,2779,1712,-4678,6552,-5765,36,-72,3989,63,28,807
358250,6511888,7009344,6518158,7009678,2879,1905,-4768,7068,-6216,-310,-623,4194,37,45,804
359251,6512100,7009584,6518355,7009875,2798,1361,-4812,7586,-6581,-626,-1272,4291,37,45,804
360252,6512308,7009740,6518552,7010072,2820,1904,-4818,8047,-6885,-946,-1866,4201,50,32,806
361253,6512480,7009876,6518749,7010269,3057,2056,-4774,8369,-7113,-1346,-2570,3869,50,32,806
362254,6512648,7009996,6518946,7010466,3096,2190,-4711,8571,-7240,-1719,-3346,3612,30,26,807
363255,6512880,7010172,6519143,7010663,2682,1850,-4610,8579,-7259,-2005,-4238,3092,30,26,807
364256,6513052,7010348,6519340,7010860,3069,1860,-4472,8494,-7157,-2389,-5084,3058,53,40,803
365257,6513240,7010552,6519537,7011057,2974,1681,-4305,8344,-6959,-2815,-5948,2889,53,40,803
366258,6513468,7010700,6519734,7011254,2712,2053,-4108,8092,-6695,-3211,-6599,2802,49,39,804
367259,6513656,7010804,6519931,7011451,2967,2369,-3920,7772,-6382,-3636,-6894,2686,49,39,804
368260,6513856,7010944,6520128,7011648,2892,2169,-3714,7331,-6018,-3923,-7125,2396,53,24,804
369261,6514116,7011132,6520325,7011845,2490,1873,-3487,6759,-5586,-4125,-6930,2278,53,24,804
370262,6514324,7011288,6520522,7012042,2811,2091,-3255,6105,-5115,-4405,-6136,2116,58,42,801
371263,6514528,7011452,6520719,7012239,2835,2055,-3046,5353,-4637,-4528,-5206,1951,58,42,801
372264,6514796,7011588,6520916,7012436,2405,2258,-2848,4544,-4161,-4493,-4499,2100,51,36,807
373265,6515008,7011700,6521113,7012633,2749,2446,-2718,3857,-3674,-4504,-3572,2810,51,36,807
374266,6515228,7011844,6521310,7012830,2690,2269,-2633,3261,-3195,-4453,-2767,3045,47,27,804
375267,6515508,7012000,6521507,7013027,2280,2212,-2589,2693,-2769,-4347,-1849,3410,47,27,804
376268,6515800,7012224,6521704,7013224,2164,1775,-2574,2196,-2431,-4198,-960,3761,62,37,802
377269,6516040,7012364,6521901,7013421,2472,2325,-2563,1668,-2156,-4093,-402,3742,62,37,802
378270,6516320,7012496,6522098,7013618,2187,2405,-2534,1067,-1891,-3983,-343,3912,50,25,805
379271,6516644,7012616,6522295,7013815,1857,2513,-2499,337,-1606,-3899,-466,3834,50,25,805
380272,6516920,7012772,6522492,7014012,2123,2306,-2452,-456,-1343,-3775,-573,4049,70,32,805
381273,6517208,7012948,6522689,7014209,2009,2191,-2379,-1548,-1109,-3759,-849,3736,70,32,805
382274,6517548,7013112,6522886,7014406,1622,2281,-2310,-2463,-915,-3008,-838,4672,66,43,807
383275,6517828,7013276,6523083,7014603,1962,2296,-2247,-3058,-766,-2621,-770,5113,66,43,807
384276,6518136,7013440,6523280,7014800,1739,2310,-2174,-3493,-644,-2277,-900,5429,61,35,808
385277,6518496,7013588,6523477,7014997,1343,2432,-2038,-3935,-534,-1882,-987,5429,61,35,808
386278,6518812,7013728,6523674,7015194,1567,2508,-1855,-4363,-440,-1498,-1180,5636,77,41,808
387279,6519092,7013864,6523871,7015391,1757,2560,-1674,-4735,-367,-1127,-1410,5686,77,41,808
388280,6519440,7014012,6524068,7015588,1266,2506,-1484,-5028,-316,-661,-1543,5802,57,26,809
389281,6519732,7014160,6524265,7015785,1576,2528,-1260,-5237,-283,-204,-1625,5889,57,26,809
390282,6520048,7014344,6524462,7015982,1373,2309,-1001,-5465,-257,119,-1615,5840,64,40,806
391283,6520356,7014508,6524659,7016179,1375,2449,-715,-5744,-255,360,-1492,5802,64,40,806
392284,6520668,7014656,6524856,7016376,1301,2570,-371,-6044,-286,700,-1372,5694,70,38,808
393285,6520988,7014816,6525053,7016573,1198,2513,21,-6322,-353,979,-1079,5657,70,38,808
394286,6521268,7014972,6525250,7016770,1412,2556,454,-6571,-459,1130,-874,5544,70,32,809
395287,6521564,7015132,6525447,7016967,1269,2547,910,-6871,-595,1157,-616,5535,70,32,809
396288,6521852,7015288,6525644,7017164,1280,2591,1383,-7104,-743,1198,-515,5612,44,40,810
397289,6522120,7015460,6525841,7017361,1375,2502,1854,-7261,-872,1284,-633,5735,44,40,810
398290,6522428,7015636,6526038,7017558,1077,2486,2322,-7291,-961,1236,-567,5936,56,43,809
399291,6522664,7015792,6526235,7017755,1510,2630,2781,-7272,-1032,1115,-461,6016,56,43,809
400292,6522896,7015960,6526432,7017952,1520,2568,3232,-7134,-1102,947,-354,6211,64,42,807
401293,6523180,7016136,6526629,7018149,1158,2528,3668,-6888,-1157,695,-219,6419,64,42,807
402294,6523468,7016300,6526826,7018346,1093,2618,4095,-6550,-1196,387,-26,6517,58,31,808
403295,6523680,7016448,6527023,7018543,1563,2739,4488,-6155,-1194,61,-120,6603,58,31,808
404296,6523936,7016600,6527220,7018740,1263,2735,4872,-5659,-1134,-225,-192,6636,58,35,808
405297,6524220,7016764,6527417,7018937,1049,2674,5239,-5121,-1030,-476,-237,6509,58,35,808
406298,6524464,7016960,6527614,7019134,1280,2476,5581,-4596,-902,-738,-261,6312,60,39,807
407299,6524744,7017168,6527811,7019331,1018,2396,5857,-4086,-743,-930,-218,6098,60,39,807
408300,6525020,7017380,6528008,7019528,1010,2364,6057,-3595,-575,-1200,-215,5857,53,40,809
409301,6525284,7017612,6528205,7019725,1056,2225,6206,-3143,-412,-1420,-177,5474,53,40,809
410302,6525600,7017824,6528402,7019922,679,2343,6325,-2680,-236,-1470,-177,5291,61,55,810
411303,6525848,7018052,6528599,7020119,1082,2231,6428,-2271,-29,-1448,-199,4904,61,55,810
412304,6526124,7018272,6528796,7020316,873,2271,6483,-1931,229,-1369,-182,4655,52,53,810
413305,6526400,7018480,6528993,7020513,839,2341,6508,-1617,516,-1271,-165,4245,52,53,810
414306,6526688,7018724,6529190,7020710,724,2096,6488,-1375,821,-1131,-125,3970,41,37,812
415307,6526964,7018936,6529387,7020907,765,2290,6442,-1201,1132,-931,50,3516,41,37,812
416308,6527200,7019156,6529584,7021104,998,2231,6368,-1112,1397,-759,428,3111,52,52,813
417309,6527456,7019360,6529781,7021301,848,2327,6242,-1153,1595,-654,739,2587,52,52,813
418310,6527672,7019608,6529978,7021498,1090,2030,6070,-1301,1764,-493,906,2292,53,39,813
419311,6527900,7019824,6530175,7021695,1001,2223,5841,-1497,1928,-228,1052,1941,53,39,813
420312,6528116,7020068,6530372,7021892,1069,2027,5561,-1776,2104,44,1127,1555,45,37,812
421313,6528304,7020244,6530569,7022089,1248,2461,5219,-2090,2274,383,1199,1300,45,37,812
422314,6528520,7020452,6530766,7022286,1066,2257,4853,-2509,2430,786,1164,886,37,44,811
423315,6528728,7020628,6530963,7022483,1111,2467,4444,-2927,2570,1124,1076,979,37,44,811
424316,6528936,7020812,6531160,7022680,1107,2422,4022,-3330,2706,1381,874,761,31,44,810
425324,6529140,7021024,6531390,7022910,1143,2256,3573,-3695,2831,1598,822,883,31,44,810
426318,6529336,7021216,6531587,7023107,1194,2384,3107,-4018,2931,1731,984,886,30,39,811
427319,6529508,7021360,6531784,7023304,1356,2707,2618,-4301,3010,1961,1104,999,30,39,811
428320,6529688,7021496,6531981,7023501,1313,2785,2145,-4489,3080,2089,1161,1168,27,32,811
429321,6529856,7021640,6532178,7023698,1402,2758,1677,-4628,3136,2118,1212,1335,27,32,811
430322,6530004,7021788,6532375,7023895,1548,2755,1195,-4667,3142,2256,1244,1530,29,26,808
431323,6530180,7021912,6532572,7024092,1384,2938,703,-4652,3090,2361,1277,1694,29,26,808
432324,6530344,7022016,6532769,7024289,1473,3103,220,-4528,3006,2472,1122,1938,21,17,805
433325,6530492,7022080,6532966,7024486,1596,3413,-251,-4349,2911,2578,953,2081,21,17,805
434326,6530676,7022168,6533163,7024683,1376,3311,-718,-4093,2806,2630,845,2407,41,11,804
435327,6530820,7022276,6533360,7024880,1651,3226,-1176,-3748,2690,2713,739,2635,41,11,804
436328,6530964,7022380,6533557,7025077,1674,3292,-1622,-3335,2570,2793,607,2804,21,20,799
437329,6531160,7022448,6533754,7025274,1350,3574,-2046,-2871,2425,2742,635,3013,21,20,799
438330,6531320,7022524,6533951,7025471,1592,3578,-2436,-2433,2244,2799,666,2921,26,9,802
439331,6531472,7022612,6534148,7025668,1662,3551,-2792,-2041,2031,2919,715,2999,26,9,802
440332,6531664,7022704,6534345,7025865,1415,3573,-3097,-1638,1810,2992,655,2998,46,12,801
441333,6531836,7022828,6534542,7026062,1552,3406,-3354,-1237,1574,3000,541,3067,46,12,801
442334,6532004,7022952,6534739,7026259,1589,3439,-3563,-866,1321,3029,441,3104,28,17,797
443335,6532160,7023056,6534936,7026456,1683,3605,-3717,-531,1058,3046,314,3138,28,17,797
444336,6532356,7023152,6535133,7026653,1434,3700,-3829,-200,795,3121,197,3164,47,29,800
445337,6532556,7023268,6535330,7026850,1409,3612,-3911,93,542,3080,163,3243,47,29,800
446338,6532704,7023408,6535527,7027047,1755,3487,-3973,402,298,2949,23,3436,31,33,799
447339,6532940,7023556,6535724,7027244,1189,3459,-4013,789,63,2773,-161,3712,31,33,799
448340,6533120,7023728,6535921,7027441,1546,3321,-4037,1162,-188,2550,-158,3728,40,30,801
449341,6533308,7023872,6536118,7027638,1501,3519,-4026,1533,-449,2343,-186,3870,40,30,801
450342,6533504,7024016,6536315,7027835,1452,3544,-3975,1880,-692,2128,-313,3973,34,36,802
451343,6533720,7024164,6536512,7028032,1319,3541,-3879,2188,-892,1832,-379,4040,34,36,802
452344,6533900,7024316,6536709,7028229,1552,3537,-3750,2489,-1042,1474,-346,4080,50,37,801
453345,6534120,7024512,6536906,7028426,1293,3263,-3600,2797,-1158,1104,-292,4154,50,37,801
454346,6534312,7024684,6537103,7028623,1470,3425,-3445,3056,-1242,741,-405,4154,39,44,798
455347,6534504,7024860,6537300,7028820,1473,3410,-3290,3246,-1296,356,-413,4082,39,44,798
456348,6534672,7025076,6537497,7029017,1636,3152,-3151,3377,-1317,15,-571,4069,50,32,803
457349,6534884,7025292,6537694,7029214,1355,3144,-3001,3431,-1299,-322,-599,3961,50,32,803
458350,6535084,7025528,6537891,7029411,1430,3003,-2848,3436,-1248,-624,-659,4110,51,41,803
459351,6535256,7025788,6538088,7029608,1616,2826,-2689,3469,-1166,-923,-794,4110,51,41,803
460352,6535424,7026024,6538285,7029805,1655,2960,-2509,3446,-1044,-1319,-710,4064,51,41,805
461353,6535628,7026296,6538482,7030002,1427,2702,-2297,3373,-896,-1642,-588,3920,51,41,805
462354,6535776,7026540,6538679,7030199,1799,2857,-2053,3252,-718,-1890,-729,3985,44,51,806
463355,6535960,7026796,6538876,7030396,1580,2758,-1806,3110,-523,-2194,-791,4141,44,51,806
464356,6536136,7027076,6539073,7030593,1640,2571,-1560,2973,-299,-2477,-955,4259,25,50,807
465357,6536272,7027316,6539270,7030790,1917,2803,-1324,2937,-31,-2664,-1076,4704,25,50,807
466358,6536416,7027552,6539467,7030987,1891,2812,-1108,2925,268,-2735,-1070,4765,45,43,806
467359,6536624,7027792,6539664,7031184,1487,2768,-925,2919,577,-2706,-1034,4906,45,43,806
468360,6536772,7028084,6539861,7031381,1884,2402,-777,2917,902,-2660,-1182,5151,46,47,805
469361,6536916,7028352,6540058,7031578,1933,2522,-631,2866,1226,-2678,-1017,5021,46,47,805
470362,6537068,7028628,6540255,7031775,1903,2437,-467,2684,1522,-2589,-813,4559,27,46,807
471363,6537208,7028880,6540452,7031972,2004,2564,-308,2375,1782,-2464,-492,4450,27,46,807
472364,6537356,7029164,6540649,7032169,1977,2326,-161,2044,1987,-2433,-319,4483,26,43,807
473365,6537532,7029436,6540846,7032366,1811,2369,-43,1690,2145,-2449,-376,4529,26,43,807
474366,6537688,7029700,6541043,7032563,1955,2391,53,1370,2283,-2300,-366,4648,38,59,806
475368,6537820,7029968,6541240,7032760,2133,2334,121,1030,2417,-2026,-269,4696,38,59,806
476369,6537968,7030224,6541437,7032957,2056,2385,169,719,2531,-1692,-67,4780,23,47,806
477370,6538088,7030492,6541634,7033154,2266,2278,216,343,2608,-1387,198,4539,23,47,806
478371,6538196,7030756,6541831,7033351,2380,2275,280,-94,2656,-1069,188,4414,20,55,805
479372,6538328,7031008,6542028,7033548,2259,2326,359,-571,2672,-786,177,4384,20,55,805
480373,6538456,7031244,6542225,7033745,2316,2410,458,-1101,2646,-488,516,4170,41,41,806
481373,6538592,7031492,6542422,7033942,2294,2312,579,-1647,2589,-252,908,4132,41,41,806
482374,6538732,7031700,6542619,7034139,2294,2558,868,-2643,2466,-55,1073,4352,41,45,806
483376,6538916,7031996,6542816,7034336,2025,1965,1041,-3046,2391,1,1050,4456,41,45,806
484377,6539052,7032308,6543013,7034533,2353,1814,1201,-3339,2296,79,909,4741,36,50,806
485378,6539196,7032580,6543210,7034730,2326,2032,1332,-3528,2220,79,827,5029,36,50,806
486378,6539360,7032804,6543407,7034927,2217,2320,1454,-3643,2187,50,846,5139,29,46,809
487380,6539484,7033076,6543604,7035124,2500,1989,1567,-3628,2188,1,721,5554,29,46,809
488380,6539616,7033368,6543801,7035321,2480,1822,1667,-3483,2191,-104,644,5839,48,49,806
489382,6539756,7033696,6543998,7035518,2456,1539,1757,-3232,2174,-125,735,6116,48,49,806
490382,6539936,7033984,6544195,7035715,2213,1750,1847,-2853,2161,-155,807,6303,45,57,806
491384,6540100,7034232,6544392,7035912,2329,1978,1945,-2404,2160,-315,878,6433,45,57,806
492385,6540276,7034552,6544589,7036109,2264,1474,2050,-1915,2161,-526,842,6475,46,53,808
493386,6540488,7034888,6544786,7036306,2033,1314,2155,-1478,2157,-529,630,6345,46,53,808
494387,6540664,7035196,6544983,7036503,2268,1440,2259,-1024,2152,-492,606,6157,47,61,807
495388,6540828,7035468,6545180,7036700,2358,1632,2371,-654,2167,-389,393,5731,47,61,807
496389,6541012,7035736,6545377,7036897,2240,1627,2489,-347,2195,-330,245,5412,44,49,812
497389,6541208,7036080,6545574,7037094,2166,1087,2606,-72,2203,-390,171,5252,44,49,812
498390,6541364,7036424,6545771,7037291,2435,1023,2717,142,2160,-375,214,4915,49,54,807
499391,6541596,7036692,6545968,7037488,1946,1466,2818,320,2082,-268,270,4790,49,54,807
500392,6541812,7036964,6546165,7037685,2038,1408,2906,506,1974,-147,372,4603,34,48,811
501393,6541992,7037212,6546362,7037882,2271,1536,2953,720,1867,51,339,4551,34,48,811
502394,6542216,7037520,6546559,7038079,1985,1113,2960,934,1800,331,64,4329,44,44,812
503395,6542392,7037840,6546756,7038276,2295,984,2945,1115,1783,612,-204,4170,44,44,812
504396,6542596,7038116,6546953,7038473,2118,1224,2916,1284,1791,881,-388,4110,37,59,810
505397,6542832,7038380,6547150,7038670,1902,1270,2879,1430,1787,1051,-493,3819,37,59,810
506398,6543040,7038604,6547347,7038867,2073,1508,2827,1536,1769,1104,-497,3702,37,44,812
507399,6543244,7038820,6547544,7039064,2095,1550,2764,1595,1718,1135,-370,3372,37,44,812
508408,6543424,7039108,6547774,7039294,2268,1074,2688,1551,1623,1263,-260,2995,41,51,813
509401,6543652,7039416,6547971,7039491,1955,900,2610,1468,1495,1440,-182,2750,41,51,813
510403,6543860,7039640,6548168,7039688,2077,1414,2541,1316,1357,1581,-183,2534,35,40,810
511403,6544064,7039884,6548365,7039885,2100,1268,2461,1195,1238,1635,-254,2471,35,40,810
512405,6544304,7040052,6548562,7040082,1857,1756,2345,1088,1162,1550,-223,2460,54,40,814
513405,6544512,7040296,6548759,7040279,2052,1260,2181,1023,1081,1524,341,2381,54,40,814
514406,6544696,7040556,6548956,7040476,2209,1132,1977,941,951,1517,1082,2186,30,53,812
515407,6544916,7040816,6549153,7040673,1974,1105,1766,867,779,1526,1410,2140,30,53,812
516409,6545104,7041036,6549350,7040870,2179,1345,1554,828,598,1473,1332,2195,50,44,812
517410,6545288,7041228,6549547,7041067,2211,1522,1345,821,419,1306,1248,2119,50,44,812
518411,6545504,7041400,6549744,7041264,2003,1658,1116,823,239,1154,932,2122,31,49,813
519411,6545704,7041636,6549941,7041461,2102,1241,852,824,72,1001,433,2124,31,49,813
520412,6545916,7041912,6550138,7041658,2022,956,552,835,-84,891,55,2017,30,52,809
521413,6546100,7042140,6550335,7041855,2204,1242,253,832,-232,778,-19,1855,30,52,809
522414,6546284,7042364,6550532,7042052,2210,1255,-27,763,-393,623,79,1691,28,35,811
523415,6546424,7042552,6550729,7042249,2510,1484,-316,665,-570,522,-307,1753,28,35,811
524417,6546600,7042696,6550926,7042446,2296,1783,-641,628,-731,412,-732,1903,29,31,811
525417,6546736,7042900,6551123,7042643,2573,1405,-984,619,-854,298,-861,1976,29,31,811
526419,6546888,7043128,6551320,7042840,2494,1240,-1319,650,-945,185,-879,2095,30,36,808
527419,6547084,7043340,6551517,7043037,2221,1333,-1625,704,-1013,244,-951,2104,30,36,808
528421,6547276,7043540,6551714,7043234,2249,1407,-1903,729,-1060,345,-941,1931,43,32,808
529421,6547424,7043740,6551911,7043431,2545,1406,-2153,640,-1089,416,-903,1750,43,32,808
530422,6547580,7043928,6552108,7043628,2514,1485,-2378,456,-1111,546,-932,1548,22,32,810
531423,6547772,7044112,6552305,7043825,2293,1515,-2598,239,-1118,702,-1042,1633,22,32,810
532425,6547952,7044340,6552502,7044022,2376,1227,-2802,-6,-1097,816,-1141,1530,25,32,807
533426,6548124,7044540,6552699,7044219,2438,1400,-3000,-270,-1062,849,-1229,1667,25,32,807
534426,6548364,7044748,6552896,7044416,1995,1346,-3188,-468,-1019,778,-1147,1872,31,30,809
535427,6548608,7044904,6553093,7044613,1950,1689,-3361,-657,-995,803,-1118,2012,31,30,809
536428,6548832,7045072,6553290,7044810,2064,1626,-3520,-801,-1002,880,-1068,2228,37,36,809
537429,6549080,7045208,6553487,7045007,1892,1853,-3660,-970,-1032,1104,-1057,2350,37,36,809
538430,6549300,7045396,6553684,7045204,2058,1532,-3846,-963,-1070,1422,-1034,3389,45,38,810
539431,6549520,7045500,6553881,7045401,2049,2098,-4090,-696,-1118,1408,-858,4149,45,38,810
540433,6549752,7045620,6554078,7045598,1960,2032,-4314,-418,-1199,1184,-1085,3953,39,38,809
541434,6550028,7045736,6554275,7045795,1651,2092,-4501,-300,-1296,1358,-1194,3946,39,38,809
542434,6550264,7045936,6554472,7045992,1884,1566,-4619,-332,-1368,1686,-1214,3675,58,35,807
543435,6550484,7046136,6554669,7046189,1975,1565,-4635,-682,-1398,1943,-1363,2558,58,35,807
544436,6550736,7046300,6554866,7046386,1751,1804,-4533,-1285,-1411,1965,-1461,2284,50,26,809
545437,6550972,7046428,6555063,7046583,1835,2060,-4392,-1854,-1419,1964,-1482,2683,50,26,809
546438,6551252,7046584,6555260,7046780,1525,1903,-4254,-2253,-1435,2034,-1593,3116,39,36,811
547439,6551468,7046704,6555457,7046977,1916,2161,-4150,-2363,-1418,2209,-1716,4078,39,36,811
548440,6551700,7046848,6555654,7047174,1802,2035,-4064,-2357,-1348,2298,-1850,4497,58,30,809
549442,6551908,7047004,6555851,7047371,1948,1978,-3989,-2288,-1249,2396,-2060,4907,58,30,809
550442,6552156,7047144,6556048,7047568,1677,2103,-3921,-2163,-1152,2414,-1738,5294,36,25,809
551443,6552396,7047292,6556245,7047765,1708,2074,-3809,-2006,-1083,2382,-1249,5315,36,25,809
552444,6552604,7047404,6556442,7047962,1904,2337,-3668,-1860,-1043,2372,-1060,5402,59,36,808
553445,6552840,7047548,6556639,7048159,1713,2160,-3496,-1698,-995,2327,-1105,5611,59,36,808
554446,6553068,7047712,6556836,7048356,1750,2050,-3307,-1534,-922,2395,-1155,5713,34,35,808
555447,6553232,7047876,6557033,7048553,2165,2065,-3116,-1350,-840,2523,-963,5884,34,35,808
556448,6553452,7048028,6557230,7048750,1806,2160,-2942,-1086,-767,2573,-568,6356,43,36,809
557450,6553672,7048124,6557427,7048947,1797,2554,-2765,-770,-708,2669,-162,6466,43,36,809
558451,6553848,7048252,6557624,7049144,2081,2384,-2563,-459,-628,2709,-99,6503,54,24,807
559451,6554048,7048356,6557821,7049341,1931,2575,-2339,-143,-520,2712,42,6642,54,24,807
560452,6554228,7048512,6558018,7049538,2064,2268,-2100,175,-431,2680,467,6714,27,36,806
561453,6554388,7048672,6558215,7049735,2206,2261,-1865,496,-382,2667,854,6669,27,36,806
562454,6554608,7048840,6558412,7049932,1821,2223,-1619,791,-350,2689,899,6585,28,28,806
563455,6554844,7048992,6558609,7050129,1705,2343,-1363,1131,-310,2501,533,6874,28,28,806
564456,6555064,7049124,6558806,7050326,1796,2497,-1089,1555,-248,2202,86,7049,51,39,804
565457,6555264,7049296,6559003,7050523,1921,2258,-784,2018,-188,1963,-173,7153,51,39,804
566458,6555504,7049432,6559200,7050720,1652,2511,-446,2482,-162,1777,-424,7057,35,36,806
567459,6555720,7049592,6559397,7050917,1794,2377,-88,2915,-190,1615,-572,6973,35,36,806
568460,6555912,7049744,6559594,7051114,1948,2447,258,3286,-281,1492,-684,6727,36,22,807
569461,6556172,7049872,6559791,7051311,1495,2627,593,3551,-407,1361,-890,6443,36,22,807
570462,6556404,7050052,6559988,7051508,1656,2310,909,3738,-563,1294,-747,6079,44,26,807
571463,6556620,7050192,6560185,7051705,1748,2585,1206,3837,-730,1240,-611,5755,44,26,807
572464,6556840,7050368,6560382,7051902,1713,2370,1474,3908,-850,1258,-578,5555,49,25,807
573466,6557068,7050560,6560579,7052099,1650,2272,1691,3877,-895,1130,-628,5222,49,25,807
574467,6557296,7050732,6560776,7052296,1638,2409,1878,3772,-886,1135,-471,4972,42,35,807
575467,6557512,7050916,6560973,7052493,1704,2340,2061,3532,-847,1275,-296,4486,42,35,807
576468,6557732,7051052,6561170,7052690,1670,2666,2240,3183,-793,1306,-39,4104,35,27,808
577469,6558000,7051196,6561367,7052887,1340,2641,2405,2722,-727,1199,164,3867,35,27,808
578470,6558208,7051376,6561564,7053084,1710,2423,2570,2282,-630,1083,36,3797,36,28,808
579471,6558432,7051580,6561761,7053281,1599,2270,2707,1937,-517,975,99,3913,36,28,808
580472,6558668,7051776,6561958,7053478,1508,2321,2806,1648,-405,1047,51,3913,47,41,808
581474,6558872,7051964,6562155,7053675,1705,2375,2868,1423,-300,1160,-195,4056,47,41,808
582474,6559108,7052104,6562352,7053872,1489,2700,2890,1207,-201,1230,-641,3960,50,29,809
583476,6559324,7052276,6562549,7054069,1606,2512,2863,1072,-88,1169,-1388,4255,50,29,809
584476,6559524,7052476,6562746,7054266,1705,2336,2813,1081,24,891,-1665,4532,35,30,808
585478,6559708,7052668,6562943,7054463,1812,2388,2714,1216,98,526,-1343,4702,35,30,808
586478,6559900,7052868,6563140,7054660,1764,2338,2440,1646,119,212,-975,5639,30,50,807
587479,6560048,7053060,6563337,7054857,2062,2390,2117,2090,38,-97,-122,5080,30,50,807
588480,6560208,7053208,6563534,7055054,2004,2687,1908,2273,-158,-177,551,4334,27,42,806
589481,6560388,7053404,6563731,7055251,1887,2388,1761,2231,-351,-107,474,3959,27,42,806
590482,6560560,7053596,6563928,7055448,1949,2415,1617,2118,-444,47,211,3752,43,27,806
591492,6560720,7053796,6564158,7055678,2054,2379,1438,2037,-421,306,-233,3580,43,27,806
592484,6560920,7053968,6564355,7055875,1804,2566,1252,1954,-316,308,-733,3421,45,30,807
593485,6561104,7054112,6564552,7056072,1911,2764,1083,1829,-190,92,-1360,3294,45,30,807
594486,6561256,7054320,6564749,7056269,2131,2359,954,1639,-65,-125,-1789,3120,25,47,806
595487,6561428,7054512,6564946,7056466,2017,2462,839,1461,44,-247,-1678,3078,25,47,806
596488,6561624,7054724,6565143,7056663,1869,2331,751,1267,109,-378,-1127,2894,34,47,804
597489,6561740,7054948,6565340,7056860,2405,2245,680,1087,158,-394,-809,2938,34,47,804
598490,6561904,7055172,6565537,7057057,2120,2233,619,917,224,-397,-704,2880,43,39,805
599491,6562088,7055336,6565734,7057254,2002,2622,525,806,316,-405,-587,3142,43,39,805
600492,6562248,7055520,6565931,7057451,2168,2504,397,830,438,-543,-605,3418,45,35,805
601493,6562412,7055716,6566128,7057648,2159,2430,253,809,558,-838,-504,3308,45,35,805
602494,6562600,7055912,6566325,7057845,2013,2430,114,888,662,-955,-471,3570,41,41,805
603495,6562780,7056160,6566522,7058042,2072,2084,-17,973,767,-1056,-389,3504,41,41,805
604496,6562872,7056376,6566719,7058239,2668,2275,-140,1059,857,-1157,-233,3529,40,49,805
605497,6563060,7056552,6566916,7058436,2073,2534,-246,1079,903,-1325,-239,3454,40,49,805
606499,6563220,7056708,6567113,7058633,2265,2678,-299,1077,903,-1462,-271,3437,37,44,807
607500,6563324,7056888,6567310,7058830,2657,2536,-310,1083,845,-1348,-349,3379,37,44,807
608501,6563488,7057132,6567507,7059027,2297,2116,-307,1035,765,-1286,-807,3166,22,43,804
609501,6563648,7057368,6567704,7059224,2339,2149,-327,1005,743,-1228,-1200,3337,22,43,804
610502,6563788,7057540,6567901,7059421,2490,2560,-380,907,780,-1237,-598,3096,30,33,800
611503,6563944,7057728,6568098,7059618,2409,2465,-463,758,847,-1243,282,3160,30,33,800
612504,6564116,7057876,6568295,7059815,2320,2737,-556,588,971,-1108,473,3104,42,45,805
613506,6564260,7058096,6568492,7060012,2519,2276,-655,389,1135,-1016,305,3073,42,45,805
614506,6564392,7058320,6568689,7060209,2624,2241,-742,156,1336,-1034,183,2971,45,37,804
615507,6564568,7058556,6568886,7060406,2359,2148,-805,-177,1521,-986,-10,2868,45,37,804
616508,6564740,7058784,6569083,7060603,2396,2185,-832,-476,1704,-948,-305,2966,45,52,804
617509,6564856,7058984,6569280,7060800,2782,2360,-806,-775,1921,-991,-205,3007,45,52,804
618510,6565024,7059164,6569477,7060997,2470,2492,-769,-1024,2107,-1043,478,3324,23,49,806
619511,6565228,7059420,6569674,7061194,2243,1991,-727,-1212,2231,-1238,1118,3560,23,49,806
620512,6565352,7059684,6569871,7061391,2776,1913,-684,-1287,2290,-1285,958,4004,39,50,801
621513,6565508,7059936,6570068,7061588,2595,1963,-635,-1307,2304,-1294,627,4135,39,50,801
622515,6565672,7060172,6570265,7061785,2561,2046,-585,-1243,2311,-1388,335,4577,41,44,807
623515,6565816,7060376,6570462,7061982,2710,2244,-531,-1072,2327,-1427,-92,4761,41,44,807
624517,6565960,7060592,6570659,7062179,2734,2161,-460,-895,2401,-1366,-894,4907,30,46,805
625517,6566164,7060796,6570856,7062376,2356,2233,-391,-723,2510,-1292,-700,5044,30,46,805
626519,6566352,7061072,6571053,7062573,2461,1749,-342,-604,2576,-1309,231,4965,32,43,803
627519,6566504,7061300,6571250,7062770,2707,2035,-300,-460,2585,-1333,725,5039,32,43,803
628521,6566688,7061544,6571447,7062967,2514,1915,-240,-416,2572,-1209,777,4833,45,39,805
629522,6566924,7061760,6571644,7063164,2173,2081,-168,-403,2586,-989,517,4876,45,39,805
630522,6567060,7061964,6571841,7063361,2826,2154,-58,-446,2660,-792,582,4725,47,52,803
631523,6567220,7062212,6572038,7063558,2693,1857,72,-506,2768,-557,115,4717,47,52,803
632524,6567416,7062460,6572235,7063755,2469,1835,266,-652,2909,-457,-230,4493,47,44,806
633525,6567592,7062708,6572432,7063952,2604,1813,481,-840,3011,-427,715,4425,47,44,806
634526,6567744,7062956,6572629,7064149,2775,1791,655,-1018,3057,-308,1020,4466,49,59,805
635527,6567956,7063280,6572826,7064346,2394,1260,796,-1157,3113,-210,986,4687,49,59,805
636528,6568116,7063452,6573023,7064543,2736,2221,938,-1274,3152,-191,1149,4818,43,40,806
637529,6568264,7063628,6573220,7064740,2833,2205,1079,-1249,3167,-237,573,5240,43,40,806
638530,6568452,7063776,6573417,7064937,2588,2403,1250,-1147,3211,-194,-659,5441,38,43,809
639531,6568624,7063972,6573614,7065134,2700,2103,1446,-965,3272,-129,-736,5647,38,43,809
640532,6568756,7064172,6573811,7065331,2980,2077,1634,-774,3281,-286,763,5511,45,46,801
641533,6568912,7064400,6574008,7065528,2849,1888,1775,-590,3206,-406,1312,5623,45,46,801
642534,6569104,7064680,6574205,7065725,2627,1527,1900,-339,3103,-362,933,5837,24,43,802
643535,6569216,7065020,6574402,7065922,3166,1090,2055,-78,3014,-308,786,5879,24,43,802
644536,6569344,7065392,6574599,7066119,3097,813,2208,229,2913,-299,1235,5910,39,59,804
645537,6569500,7065648,6574796,7066316,2941,1512,2321,537,2801,-235,1276,5825,39,59,804
646538,6569608,7065840,6574993,7066513,3281,1914,2424,871,2691,-284,948,5939,46,52,805
647539,6569768,7066148,6575190,7066710,2973,1140,2557,1152,2603,-336,454,5826,46,52,805
648540,6569976,7066528,6575387,7066907,2669,610,2665,1448,2546,-350,348,5675,30,72,805
649541,6570164,7066888,6575584,7067104,2799,663,2728,1694,2485,-324,478,5483,30,72,805
650542,6570336,7067212,6575781,7067301,2911,833,2774,1908,2333,-404,760,5306,35,63,806
651543,6570524,7067480,6575978,7067498,2816,1151,2774,2057,2067,-522,904,5093,35,63,806
652545,6570696,7067816,6576175,7067695,2928,665,2739,2211,1812,-419,731,5214,53,59,808
653545,6570856,7068156,6576372,7067892,3021,577,2699,2446,1602,-296,675,5278,53,59,808
654546,6571024,7068516,6576569,7068089,2984,381,2661,2735,1438,-295,658,5224,39,69,807
655547,6571176,7068824,6576766,7068286,3105,657,2593,3030,1270,-359,853,5097,39,69,807
656548,6571332,7069136,6576963,7068483,3100,582,2484,3167,1072,-237,1013,4497,39,75,808
657549,6571484,7069464,6577160,7068680,3146,424,2356,3158,861,-82,1265,4159,39,75,808
658550,6571632,7069780,6577357,7068877,3193,447,2215,3059,636,51,1538,3873,45,55,807
659551,6571756,7070052,6577554,7069074,3376,689,2063,2945,406,127,1637,3821,45,55,807
660552,6571880,7070292,6577751,7069271,3410,870,1879,2869,176,183,1830,3873,22,61,807
661553,6572020,7070540,6577948,7069468,3336,796,1663,2855,-75,284,2012,3745,22,61,807
662554,6572184,7070772,6578145,7069665,3201,881,1419,2845,-368,274,2163,3682,30,41,805
663556,6572348,7070976,6578342,7069862,3217,1053,1157,2811,-686,237,2212,3580,30,41,805
664556,6572516,7071148,6578539,7070059,3205,1264,880,2747,-966,370,1982,3442,43,34,804
665557,6572680,7071348,6578736,7070256,3247,1088,598,2723,-1159,559,1729,3543,43,34,804
666558,6572844,7071512,6578933,7070453,3262,1326,345,2670,-1266,737,1549,3441,33,27,805
667559,6573020,7071672,6579130,7070650,3198,1367,126,2660,-1336,803,1514,3351,33,27,805
668560,6573204,7071800,6579327,7070847,3154,1598,-62,2559,-1426,754,1610,3064,39,26,804
669561,6573376,7071936,6579524,7071044,3241,1575,-246,2384,-1575,768,1944,2774,39,26,804
670562,6573580,7072144,6579721,7071241,3039,1120,-459,2134,-1795,700,2321,2599,31,26,804
671564,6573768,7072328,6579918,7071438,3145,1274,-661,1932,-1978,802,2220,2599,31,26,804
672565,6573964,7072504,6580115,7071635,3097,1334,-865,1823,-2100,854,1884,2893,37,40,803
673566,6574176,7072632,6580312,7071832,2991,1664,-1037,1852,-2135,905,1486,3162,37,40,803
674573,6574372,7072772,6580542,7072062,3107,1628,-1178,1996,-2131,979,1277,3466,39,39,803
675567,6574588,7072900,6580739,7072259,2975,1734,-1294,2175,-2135,970,725,3427,39,39,803
676568,6574792,7073068,6580936,7072456,3048,1497,-1430,2386,-2159,862,461,3537,35,42,803
677569,6575024,7073236,6581133,7072653,2859,1509,-1578,2588,-2243,734,566,3448,35,42,803
678570,6575228,7073404,6581330,7072850,3032,1521,-1741,2741,-2362,553,225,3408,53,33,804
679571,6575428,7073548,6581527,7073047,3057,1694,-1927,2940,-2520,254,-24,3554,53,33,804
680572,6575632,7073668,6581724,7073244,3030,1878,-2108,3212,-2745,-124,-233,3799,42,34,805
681573,6575812,7073844,6581921,7073441,3188,1537,-2262,3567,-3023,-540,-480,4081,42,34,805
682574,6575996,7074012,6582118,7073638,3170,1600,-2419,4014,-3328,-784,-753,4222,50,33,803
683575,6576216,7074164,6582315,7073835,2937,1720,-2605,4494,-3631,-1017,-1141,4354,50,33,803
684576,6576424,7074288,6582512,7074032,3008,1927,-2820,4977,-3905,-1294,-1704,4435,45,28,803
685577,6576612,7074380,6582709,7074229,3138,2173,-3042,5370,-4168,-1477,-2126,4125,45,28,803
686578,6576808,7074504,6582906,7074426,3089,2005,-3236,5636,-4383,-1627,-2576,3913,35,24,803
687579,6576984,7074708,6583103,7074623,3225,1502,-3385,5832,-4515,-1661,-2960,3785,35,24,803
688580,6577144,7074884,6583300,7074820,3342,1686,-3465,5828,-4563,-1758,-3344,3175,44,40,801
689581,6577324,7075072,6583497,7075017,3225,1615,-3491,5732,-4532,-1924,-3726,3177,44,40,801
690582,6577488,7075228,6583694,7075214,3342,1833,-3471,5506,-4426,-1973,-4082,2783,28,45,803
691583,6577668,7075336,6583891,7075411,3250,2172,-3408,5112,-4259,-1883,-4322,2426,28,45,803
692584,6577848,7075480,6584088,7075608,3259,1971,-3318,4623,-4047,-1892,-4246,2194,39,26,802
693585,6578036,7075584,6584285,7075805,3214,2262,-3225,3967,-3803,-1936,-3895,2074,39,26,802
694586,6578208,7075784,6584482,7076002,3326,1660,-3125,3291,-3565,-2017,-3406,2100,31,23,800
695587,6578396,7075924,6584679,7076199,3232,2060,-2990,2550,-3310,-2092,-3031,2027,31,23,800
696588,6578648,7076036,6584876,7076396,2808,2273,-2863,1877,-3024,-2114,-2888,2587,49,34,798
697589,6578824,7076116,6585073,7076593,3294,2524,-2764,1216,-2721,-2148,-2658,2615,49,34,798
698590,6579004,7076284,6585270,7076790,3277,1987,-2662,573,-2407,-2191,-2374,2791,44,35,798
699591,6579252,7076432,6585467,7076987,2831,2133,-2575,-48,-2088,-2088,-2124,3012,44,35,798
700592,6579468,7076588,6585664,7077184,3024,2101,-2526,-656,-1804,-1995,-1723,3261,47,36,797
701593,6579680,7076732,6585861,7077381,3044,2200,-2517,-1127,-1552,-2029,-1496,3849,47,36,797
702594,6579948,7076828,6586058,7077578,2664,2545,-2525,-1491,-1319,-2059,-1347,4277,58,32,802
703595,6580196,7076904,6586255,7077775,2767,2723,-2546,-1711,-1104,-2035,-1195,4788,58,32,802
704596,6580444,7077060,6586452,7077972,2746,2241,-2581,-1801,-916,-1939,-717,5285,54,24,801
705597,6580732,7077188,6586649,7078169,2457,2447,-2609,-1833,-756,-1760,-337,5532,54,24,801
706598,6581024,7077388,6586846,7078366,2392,1995,-2616,-1835,-615,-1583,-172,5685,66,43,800
707599,6581292,7077512,6587043,7078563,2512,2502,-2580,-1858,-505,-1416,211,5714,66,43,800
708600,6581592,7077616,6587240,7078760,2268,2669,-2528,-1925,-441,-1140,455,5782,50,40,802
709601,6581904,7077724,6587437,7078957,2143,2683,-2463,-1963,-449,-952,874,5757,50,40,802
710602,6582224,7077872,6587634,7079154,2040,2455,-2369,-2015,-546,-764,1207,5793,59,39,803
711603,6582528,7078020,6587831,7079351,2094,2476,-2207,-2051,-691,-511,1278,5799,59,39,803
712604,6582844,7078176,6588028,7079548,1968,2445,-1982,-2093,-832,-239,1081,5970,57,35,804
713605,6583152,7078332,6588225,7079745,1970,2463,-1731,-2095,-941,92,600,6055,57,35,804
714606,6583484,7078460,6588422,7079942,1762,2669,-1477,-2100,-1002,427,65,6014,70,24,805
715607,6583840,7078596,6588619,7080139,1543,2646,-1213,-2128,-1053,681,-157,5933,70,24,805
716609,6584176,7078740,6588816,7080336,1608,2620,-939,-2174,-1119,907,-261,5835,64,43,806
717609,6584512,7078884,6589013,7080533,1547,2643,-636,-2258,-1203,1038,-181,5686,64,43,806
718610,6584828,7079060,6589210,7080730,1620,2452,-294,-2436,-1300,1168,-23,5414,58,33,806
719611,6585168,7079240,6589407,7080927,1408,2436,68,-2605,-1393,1219,-39,5385,58,33,806
720612,6585488,7079408,6589604,7081124,1480,2524,440,-2792,-1463,1191,-251,5336,56,35,806
721613,6585808,7079532,6589801,7081321,1427,2831,822,-2949,-1529,1093,-564,5376,56,35,806
722614,6586108,7079664,6589998,7081518,1508,2810,1221,-3053,-1577,889,-806,5429,55,29,808
723615,6586412,7079816,6590195,7081715,1436,2705,1621,-3093,-1590,765,-1040,5657,55,29,808
724616,6586720,7079968,6590392,7081912,1363,2725,2013,-3006,-1569,630,-1209,5714,53,36,807
725617,6587020,7080160,6590589,7082109,1369,2478,2399,-2889,-1519,368,-1278,5815,53,36,807
726618,6587312,7080336,6590786,7082306,1377,2587,2795,-2713,-1469,137,-1141,5879,47,36,807
727619,6587612,7080456,6590983,7082503,1283,2971,3195,-2529,-1436,-155,-877,5787,47,36,807
728620,6587888,7080616,6591180,7082700,1399,2738,3584,-2240,-1422,-495,-786,5893,44,41,807
729621,6588132,7080768,6591377,7082897,1579,2808,3952,-1963,-1396,-825,-1034,5775,44,41,807
730622,6588388,7080944,6591574,7083094,1479,2668,4305,-1612,-1324,-1080,-1442,5813,54,44,805
731623,6588620,7081148,6591771,7083291,1614,2490,4616,-1230,-1194,-1230,-1752,5684,54,44,805
732624,6588928,7081320,6591968,7083488,1090,2701,4856,-915,-1024,-1315,-1814,5422,43,30,806
733625,6589152,7081476,6592165,7083685,1605,2820,5047,-636,-850,-1502,-1616,5183,43,30,806
734626,6589416,7081612,6592362,7083882,1325,2972,5202,-424,-699,-1705,-1377,4734,61,34,807
735627,6589708,7081796,6592559,7084079,1109,2679,5335,-240,-558,-1772,-1155,4484,61,34,807
736628,6589912,7081964,6592756,7084276,1656,2792,5450,-180,-417,-1772,-978,3994,58,44,806
737630,6590204,7082180,6592953,7084473,1066,2484,5536,-130,-264,-1773,-897,3805,58,44,806
738631,6590492,7082320,6593150,7084670,1052,2984,5589,-178,-106,-1771,-810,3375,48,43,808
739631,6590764,7082492,6593347,7084867,1119,2795,5623,-268,47,-1641,-753,3074,48,43,808
740633,6591068,7082728,6593544,7085064,873,2379,5629,-380,208,-1457,-762,2797,67,52,808
741634,6591328,7082936,6593741,7085261,1120,2549,5617,-598,395,-1350,-845,2342,67,52,808
742634,6591612,7083176,6593938,7085458,932,2331,5573,-912,599,-1258,-842,2041,45,41,806
743635,6591912,7083396,6594135,7085655,787,2446,5499,-1325,787,-1191,-696,1576,45,41,806
744636,6592180,7083608,6594332,7085852,956,2491,5384,-1721,949,-1103,-497,1449,44,43,809
745638,6592436,7083852,6594529,7086049,1006,2270,5238,-2206,1072,-1040,-262,1030,44,43,809
746638,6592720,7084092,6594726,7086246,793,2276,5062,-2711,1171,-957,-183,1086,49,50,811
747639,6592964,7084312,6594923,7086443,1023,2392,4849,-3138,1279,-847,-20,1106,49,50,811
748640,6593180,7084544,6595120,7086640,1190,2302,4599,-3531,1395,-804,186,1110,55,43,812
749642,6593444,7084784,6595317,7086837,861,2234,4296,-3794,1523,-716,189,1346,55,43,812
750642,6593664,7084980,6595514,7087034,1126,2509,3962,-4020,1672,-612,283,1357,36,42,810
751643,6593888,7085228,6595711,7087231,1090,2162,3601,-4242,1815,-426,515,1281,36,42,810
752644,6594104,7085432,6595908,7087428,1131,2435,3234,-4498,1949,-275,672,1154,51,36,811
753645,6594324,7085624,6596105,7087625,1097,2512,2853,-4681,2100,-146,830,1304,51,36,811
754646,6594512,7085828,6596302,7087822,1301,2435,2466,-4870,2260,-59,1000,1198,42,45,811
755647,6594704,7086012,6596499,7088019,1278,2565,2072,-4993,2415,62,1205,1411,42,45,811
756648,6594896,7086160,6596696,7088216,1282,2812,1669,-5039,2565,281,1417,1550,32,41,810
757657,6595076,7086324,6596926,7088446,1378,2742,1277,-5057,2704,463,1561,1602,32,41,810
758650,6595248,7086492,6597123,7088643,1439,2730,895,-5008,2834,550,1716,1844,29,28,808
759651,6595420,7086668,6597320,7088840,1451,2690,526,-4988,2933,723,1948,1766,29,28,808
760652,6595540,7086832,6597517,7089037,1810,2779,160,-4886,2994,992,2015,1920,34,29,807
761654,6595736,7086940,6597714,7089234,1336,3169,-220,-4745,3015,1160,2086,1995,34,29,807
762654,6595908,7087048,6597911,7089431,1498,3209,-611,-4567,2999,1345,2015,2163,39,22,806
763656,6596044,7087168,6598108,7089628,1750,3168,-992,-4370,2941,1504,1852,2306,39,22,806
764656,6596228,7087292,6598305,7089825,1456,3176,-1366,-4092,2863,1673,1462,2591,42,24,802
765657,6596392,7087380,6598502,7090022,1596,3449,-1770,-3807,2747,1838,1318,2701,42,24,802
766658,6596512,7087492,6598699,7090219,1905,3337,-2199,-3497,2590,1912,1299,2839,44,23,801
767659,6596716,7087568,6598896,7090416,1378,3615,-2628,-3176,2417,2116,1047,3073,44,23,801
768660,6596904,7087644,6599093,7090613,1481,3669,-3033,-2855,2223,2348,881,3069,26,11,800
769661,6597044,7087728,6599290,7090810,1808,3669,-3386,-2531,1987,2501,786,3191,26,11,800
770662,6597212,7087856,6599487,7091007,1645,3425,-3710,-2208,1705,2621,1091,3239,30,13,799
771663,6597424,7087960,6599684,7091204,1364,3617,-3990,-1937,1410,2732,957,3233,30,13,799
772677,6597564,7088040,6599881,7091401,1840,3800,-4253,-1645,1122,2881,877,3557,27,11,797
773678,6597712,7088116,6600078,7091598,1811,3800,-4485,-1381,828,2975,840,3467,27,11,797
774679,6597952,7088208,6600275,7091795,1218,3800,-4655,-1108,516,2940,628,3505,26,14,799
775667,6598124,7088344,6600472,7091992,1654,3597,-4749,-857,207,2810,453,3634,26,14,799
776668,6598272,7088496,6600669,7092189,1827,3517,-4785,-585,-62,2702,159,3980,32,29,796
777669,6598496,7088648,6600866,7092386,1340,3538,-4792,-220,-269,2547,-54,4381,32,29,796
778683,6598692,7088756,6601063,7092583,1516,3800,-4778,161,-421,2428,-142,4579,35,22,799
779671,6598888,7088928,6601260,7092780,1517,3464,-4750,575,-530,2204,-289,4848,35,22,799
780673,6599084,7089056,6601457,7092977,1518,3771,-4690,1030,-624,1821,-353,5027,45,25,801
781673,6599300,7089260,6601654,7093174,1385,3293,-4581,1491,-734,1493,-300,5112,45,25,801
782674,6599476,7089452,6601851,7093371,1644,3371,-4420,1861,-866,1104,-307,4968,51,37,801
783675,6599668,7089652,6602048,7093568,1547,3320,-4217,2200,-990,748,-507,5120,51,37,801
784676,6599900,7089808,6602245,7093765,1282,3614,-3987,2467,-1077,407,-772,5084,33,30,801
785677,6600084,7090004,6602442,7093962,1589,3365,-3734,2718,-1103,39,-1019,5113,33,30,801
786678,6600232,7090164,6602639,7094159,1835,3607,-3464,2915,-1079,-323,-1108,5084,53,28,800
787679,6600488,7090372,6602836,7094356,1135,3303,-3193,3081,-1018,-638,-1166,5051,53,28,800
788680,6600660,7090624,6603033,7094553,1671,3005,-2932,3182,-920,-906,-1133,4984,49,50,801
789681,6600812,7090880,6603230,7094750,1817,2954,-2683,3176,-806,-1164,-1057,4794,49,50,801
790682,6601028,7091132,6603427,7094947,1409,2956,-2435,3062,-677,-1372,-905,4631,32,53,804
791683,6601208,7091380,6603624,7095144,1641,2960,-2156,2849,-526,-1584,-718,4398,32,53,804
792684,6601376,7091620,6603821,7095341,1730,2992,-1848,2585,-349,-1851,-683,4430,39,50,804
793685,6601580,7091880,6604018,7095538,1502,2839,-1539,2339,-154,-2169,-936,4595,39,50,804
794686,6601724,7092148,6604215,7095735,1901,2759,-1250,2197,83,-2387,-1330,5098,45,53,804
795687,6601840,7092420,6604412,7095932,2112,2702,-971,2104,345,-2530,-1346,5302,45,53,804
796688,6602012,7092672,6604609,7096129,1774,2803,-694,2061,607,-2617,-1317,5581,45,54,805
797689,6602208,7092904,6604806,7096326,1624,2913,-451,2054,867,-2650,-1216,5845,45,54,805
798690,6602376,7093128,6605003,7096523,1813,2952,-237,2056,1135,-2667,-1201,5937,37,60,804
799691,6602504,7093396,6605200,7096720,2093,2646,-28,1959,1425,-2602,-1250,5675,37,60,804
800692,6602668,7093692,6605397,7096917,1884,2429,188,1755,1707,-2514,-1104,5475,31,49,805
801693,6602816,7093948,6605594,7097114,2005,2654,394,1540,1943,-2489,-958,5513,31,49,805
802695,6602944,7094172,6605791,7097311,2162,2842,585,1276,2132,-2324,-617,5332,26,49,804
803695,6603156,7094420,6605988,7097508,1630,2671,756,968,2286,-2036,-300,5342,26,49,804
804697,6603284,7094696,6606185,7097705,2186,2461,893,639,2420,-1760,-138,5253,47,58,805
805698,6603384,7094972,6606382,7097902,2405,2427,991,295,2534,-1483,-85,5242,47,58,805
806699,6603552,7095244,6606579,7098099,1993,2420,1069,-85,2627,-1157,-46,5162,34,54,805
807700,6603644,7095480,6606776,7098296,2515,2628,1143,-495,2691,-797,-9,5111,34,54,805
808700,6603768,7095732,6606973,7098493,2347,2505,1236,-864,2709,-659,231,5070,22,46,802
809701,6603920,7096024,6607170,7098690,2193,2213,1339,-1269,2671,-574,540,5037,22,46,802
810702,6604056,7096296,6607367,7098887,2320,2306,1450,-1688,2585,-345,902,5012,24,63,802
811703,6604188,7096556,6607564,7099084,2374,2353,1572,-2071,2479,-55,1216,5025,24,63,802
812704,6604344,7096808,6607761,7099281,2243,2380,1707,-2365,2381,135,1182,5107,41,53,805
813705,6604520,7097048,6607958,7099478,2127,2436,1840,-2586,2315,144,858,5429,41,53,805
814706,6604632,7097300,6608155,7099675,2566,2338,1957,-2756,2296,224,557,5492,23,63,804
815707,6604772,7097628,6608352,7099872,2417,1806,2068,-2857,2323,347,356,5566,23,63,804
816708,6604956,7097924,6608549,7100069,2147,1962,2201,-2918,2342,435,493,5581,43,54,805
817709,6605092,7098188,6608746,7100266,2475,2134,2342,-2917,2335,427,514,5663,43,54,805
818710,6605220,7098440,6608943,7100463,2557,2185,2480,-2857,2344,346,518,5704,44,61,805
819711,6605408,7098736,6609140,7100660,2186,1867,2616,-2722,2364,209,738,5879,44,61,805
820712,6605560,7099084,6609337,7100857,2431,1476,2744,-2498,2372,74,839,6079,30,60,805
821713,6605744,7099380,6609534,7101054,2238,1757,2878,-2231,2369,-105,824,6025,30,60,805
822714,6605932,7099660,6609731,7101251,2218,1822,3022,-1900,2359,-275,882,6128,46,70,808
823715,6606120,7099928,6609928,7101448,2222,1865,3171,-1540,2358,-460,902,6013,46,70,808
824716,6606288,7100260,6610125,7101645,2361,1406,3327,-1147,2346,-656,893,5956,28,55,808
825717,6606488,7100596,6610322,7101842,2160,1320,3481,-758,2333,-763,653,5714,28,55,808
826718,6606668,7100920,6610519,7102039,2294,1340,3628,-417,2324,-776,358,5566,50,70,807
827719,6606852,7101200,6610716,7102236,2275,1579,3768,-60,2319,-784,236,5413,50,70,807
828720,6607060,7101516,6610913,7102433,2121,1301,3905,215,2299,-804,332,5036,43,58,810
829721,6607276,7101844,6611110,7102630,2063,1169,4028,524,2272,-787,354,4938,43,58,810
830722,6607500,7102120,6611307,7102827,2001,1459,4121,805,2265,-682,416,4657,41,60,808
831723,6607712,7102396,6611504,7103024,2071,1425,4177,1104,2288,-464,226,4550,41,60,808
832724,6607912,7102656,6611701,7103221,2146,1498,4217,1346,2354,-200,56,4130,48,55,811
833725,6608120,7102940,6611898,7103418,2092,1310,4257,1507,2434,111,-18,3803,48,55,811
834726,6608336,7103228,6612095,7103615,2033,1245,4283,1595,2496,329,-66,3532,46,52,811
835727,6608564,7103540,6612292,7103812,1946,1044,4294,1611,2534,461,-39,3154,46,52,811
836728,6608780,7103804,6612489,7104009,2013,1315,4267,1642,2540,568,-113,3000,57,54,811
837729,6608976,7104024,6612686,7104206,2140,1579,4204,1622,2520,600,-155,2772,57,54,811
838730,6609204,7104316,6612883,7104403,1926,1088,4089,1631,2484,681,-228,2663,57,53,813
839731,6609412,7104592,6613080,7104600,2047,1153,3932,1594,2423,831,-400,2356,57,53,813
840739,6609628,7104860,6613310,7104830,2005,1186,3758,1498,2330,921,-301,2130,37,56,808
841733,6609852,7105128,6613507,7105027,1943,1155,3571,1372,2217,958,-166,1935,37,56,808
842734,6610060,7105396,6613704,7105224,2039,1124,3349,1271,2121,970,-159,1853,48,52,812
843735,6610256,7105608,6613901,7105421,2115,1467,3080,1177,2050,1028,64,1750,48,52,812
844736,6610492,7105892,6614098,7105618,1848,979,2780,1063,1982,1197,358,1507,54,58,812
845737,6610680,7106168,6614295,7105815,2153,994,2487,969,1906,1324,742,1480,54,58,812
846738,6610872,7106432,6614492,7106012,2131,1040,2211,883,1821,1356,1020,1403,35,51,811
847739,6611100,7106696,6614689,7106209,1893,1010,1948,815,1731,1363,1085,1429,35,51,811
848740,6611332,7106924,6614886,7106406,1853,1222,1685,787,1652,1315,1066,1474,53,40,812
849741,6611552,7107196,6615083,7106603,1919,914,1423,795,1551,1308,1114,1413,53,40,812
850742,6611740,7107476,6615280,7106800,2123,826,1146,830,1404,1286,1366,1359,51,58,812
851743,6611924,7107732,6615477,7106997,2155,951,873,849,1221,1241,1529,1247,51,58,812
852745,6612116,7107940,6615674,7107194,2108,1246,608,825,1006,1222,1665,1208,29,55,811
853745,6612296,7108168,6615871,7107391,2192,1107,339,867,767,1179,1437,1355,29,55,811
854746,6612460,7108380,6616068,7107588,2306,1200,51,982,524,1040,751,1432,42,37,812
855747,6612652,7108596,6616265,7107785,2134,1167,-232,1160,304,909,268,1577,42,37,812
856748,6612848,7108832,6616462,7107982,2111,1025,-521,1362,125,915,-148,1694,45,42,810
857749,6613052,7109072,6616659,7108179,2058,980,-833,1589,-52,1013,-237,1622,45,42,810
858750,6613232,7109292,6616856,7108376,2216,1095,-1183,1690,-254,1074,-316,1300,49,37,811
859751,6613424,7109504,6617053,7108573,2144,1138,-1584,1693,-487,1007,-404,1179,49,37,811
860752,6613628,7109680,6617250,7108770,2066,1373,-1983,1612,-736,945,-505,1035,49,34,812
861753,6613828,7109896,6617447,7108967,2091,1114,-2367,1475,-977,966,-526,868,49,34,812
862754,6614080,7110068,6617644,7109164,1743,1400,-2758,1382,-1159,1030,-568,980,32,37,810
863755,6614324,7110312,6617841,7109361,1772,929,-3147,1304,-1278,1100,-531,946,32,37,810
864756,6614544,7110508,6618038,7109558,1913,1229,-3555,1249,-1374,1301,-415,1426,54,31,812
865757,6614780,7110680,6618235,7109755,1797,1390,-3921,1149,-1464,1425,-407,1222,54,31,812
866758,6615004,7110828,6618432,7109952,1860,1562,-4212,910,-1563,1590,-410,1031,57,28,814
867759,6615228,7110968,6618629,7110149,1849,1637,-4433,548,-1661,1595,-318,847,57,28,814
868761,6615480,7111112,6618826,7110346,1651,1635,-4566,-8,-1748,1442,-574,284,54,32,812
869762,6615744,7111224,6619023,7110543,1546,1871,-4672,-605,-1821,1375,-828,350,54,32,812
870762,6615976,7111408,6619220,7110740,1732,1427,-4780,-1109,-1895,1353,-918,680,47,25,811
871763,6616228,7111576,6619417,7110937,1584,1540,-4908,-1502,-1963,1308,-1086,1162,47,25,811
872764,6616480,7111732,6619614,7111134,1560,1633,-5055,-1750,-2000,1244,-1298,1933,39,40,811
873765,6616732,7111908,6619811,7111331,1537,1517,-5223,-1782,-1996,1161,-1367,2615,39,40,811
874766,6616988,7112068,6620008,7111528,1486,1633,-5392,-1674,-1967,1214,-1529,2965,57,35,811
875767,6617212,7112204,6620205,7111725,1675,1810,-5554,-1515,-1930,1272,-1548,3291,39,36,812
876768,6617460,7112336,6620402,7111922,1502,1864,-5642,-1477,-1900,1419,-1497,2945,39,36,812
877769,6617664,7112456,6620599,7112119,1775,1971,-5659,-1614,-1883,1689,-1528,2698,44,33,811
878770,6617880,7112568,6620796,7112316,1693,2059,-5617,-1784,-1867,1738,-1594,2896,44,33,811
879771,6618076,7112720,6620993,7112513,1818,1829,-5547,-1932,-1849,1678,-1593,3130,50,35,809
880772,6618256,7112888,6621190,7112710,1927,1741,-5466,-2035,-1822,1702,-1649,3425,50,35,809
881773,6618400,7113048,6621387,7112907,2175,1808,-5366,-2120,-1774,1803,-1667,3597,22,33,809
882774,6618492,7113156,6621584,7113104,2547,2172,-5250,-2215,-1717,2049,-1593,3626,22,33,809
883775,6618628,7113292,6621781,7113301,2299,2023,-5131,-2364,-1625,2335,-1654,3703,32,21,806
884777,6618748,7113488,6621978,7113498,2434,1649,-5005,-2555,-1470,2580,-1957,3847,32,21,806
885778,6618852,7113620,6622175,7113695,2576,2077,-4867,-2800,-1288,2796,-2034,3869,39,39,806
886778,6619012,7113780,6622372,7113892,2242,1919,-4726,-3009,-1091,3003,-1892,3948,39,39,806
887779,6619196,7113904,6622569,7114089,2099,2176,-4583,-3195,-876,3091,-1704,4178,24,30,805
888780,6619336,7114000,6622766,7114286,2400,2395,-4451,-3256,-627,3161,-1451,4670,24,30,805
889781,6619536,7114160,6622963,7114483,2024,2011,-4357,-3149,-336,3300,-947,5308,43,37,807
890782,6619708,7114368,6623160,7114680,2210,1707,-4339,-2891,-70,3378,-502,5943,43,37,807
891783,6619908,7114552,6623357,7114877,2035,1862,-4364,-2452,108,3243,-244,6600,45,43,807
892784,6620104,7114764,6623554,7115074,2061,1682,-4564,-1583,224,3071,-423,8374,45,43,807
893785,6620312,7114904,6623751,7115271,1982,2157,-4689,-816,301,2849,-622,7054,44,36,807
894786,6620540,7115020,6623948,7115468,1843,2342,-4520,-486,312,2778,-356,6144,44,36,807
895787,6620772,7115172,6624145,7115665,1804,2137,-4175,-318,299,2728,-1027,6339,42,26,806
896788,6621008,7115324,6624342,7115862,1763,2157,-3775,-43,273,2513,-1670,6615,42,26,806
897789,6621224,7115532,6624539,7116059,1879,1802,-3393,386,224,2207,-1830,7068,38,28,808
898790,6621440,7115732,6624736,7116256,1872,1851,-3104,1065,115,2071,-1461,8031,38,28,808
899791,6621688,7115880,6624933,7116453,1651,2197,-2841,1890,-50,1914,-1220,8069,52,35,809
900792,6621888,7116040,6625130,7116650,1949,2139,-2495,2548,-248,1642,-1141,7601,52,35,809
901793,6622104,7116180,6625327,7116847,1842,2289,-2080,3005,-475,1649,-862,7253,35,33,809
902794,6622328,7116348,6625524,7117044,1781,2126,-1660,3299,-738,1571,-466,6931,35,33,809
903795,6622536,7116536,6625721,7117241,1876,2006,-1293,3595,-939,1617,-1020,6989,31,35,807
904796,6622776,7116656,6625918,7117438,1658,2465,-1005,3764,-1031,1645,-1538,6629,31,35,807
905797,6622976,7116808,6626115,7117635,1907,2285,-774,3843,-1077,1584,-1080,6510,50,38,807
906798,6623240,7116940,6626312,7117832,1479,2438,-535,3879,-1142,1459,-482,6280,50,38,807
907799,6623540,7117112,6626509,7118029,1209,2199,-242,3850,-1197,1339,-400,6060,38,28,806
908800,6623752,7117292,6626706,7118226,1753,2157,80,3712,-1187,1130,-755,5900,38,28,806
909801,6623984,7117504,6626903,7118423,1613,1951,402,3597,-1099,945,-1184,5912,50,29,810
910802,6624260,7117684,6627100,7118620,1304,2159,727,3450,-917,1006,-2098,5900,50,29,810
911803,6624488,7117872,6627297,7118817,1591,2113,997,3465,-634,1112,-2930,6599,50,31,810
912804,6624692,7118028,6627494,7119014,1738,2331,1179,3653,-313,1068,-2903,6706,50,31,810
913805,6624908,7118184,6627691,7119211,1655,2349,1379,3636,-74,1000,-1982,5806,38,49,809
914806,6625152,7118392,6627888,7119408,1460,2019,1596,3484,60,928,-849,5727,38,49,809
915807,6625356,7118608,6628085,7119605,1708,1962,1750,3314,150,953,-467,5769,57,45,807
916808,6625560,7118788,6628282,7119802,1705,2194,1828,3283,253,1098,-387,6022,57,45,807
917810,6625780,7118988,6628479,7119999,1596,2068,1812,3350,361,1213,-275,6226,39,27,808
918810,6625948,7119164,6628676,7120196,1933,2227,1783,3446,446,1100,-340,6053,39,27,808
919811,6626164,7119324,6628873,7120393,1626,2343,1770,3477,490,918,-270,5938,44,28,809
920812,6626392,7119532,6629070,7120590,1537,2039,1798,3434,467,711,124,5639,44,28,809
921813,6626556,7119692,6629267,7120787,1953,2356,1846,3307,402,618,158,5436,45,42,808
922814,6626712,7119880,6629464,7120984,2021,2185,1861,3208,346,526,-249,5473,45,42,808
923824,6626920,7120064,6629694,7121214,1707,2230,1869,3108,337,334,-866,5307,33,34,807
924816,6627044,7120252,6629891,7121411,2265,2209,1913,2949,336,160,-1118,4976,33,34,807
925817,6627232,7120416,6630088,7121608,1869,2374,1971,2775,353,89,-1328,4957,28,41,808
926818,6627420,7120656,6630285,7121805,1874,1880,2027,2614,379,107,-1229,4813,28,41,808
927819,6627576,7120840,6630482,7122002,2092,2236,2085,2460,398,131,-916,4705,33,49,805
928820,6627736,7121008,6630679,7122199,2084,2349,2134,2349,411,-80,-976,4706,33,49,805
929821,6627936,7121184,6630876,7122396,1832,2309,2183,2291,406,-513,-1065,4801,29,45,806
930822,6628104,7121368,6631073,7122593,2046,2265,2239,2186,368,-825,-990,4662,29,45,806
931823,6628240,7121584,6631270,7122790,2273,2056,2295,2113,331,-900,-953,4644,23,33,806
932824,6628420,7121784,6631467,7122987,2007,2155,2344,2035,341,-998,-890,4420,23,33,806
933826,6628600,7121988,6631664,7123184,2015,2128,2350,1986,389,-1182,-766,4460,29,40,806
934826,6628708,7122136,6631861,7123381,2504,2500,2343,1856,430,-1357,-660,4191,29,40,806
935827,6628860,7122312,6632058,7123578,2250,2334,2338,1712,453,-1386,-696,4154,40,34,807
936828,6629056,7122480,6632255,7123775,1975,2397,2347,1536,464,-1337,-842,3860,40,34,807
937829,6629140,7122696,6632452,7123972,2726,2088,2361,1306,478,-1483,-755,3688,26,46,803
938830,6629300,7122916,6632649,7124169,2268,2054,2376,1059,498,-1622,-348,3485,26,46,803
939831,6629484,7123084,6632846,7124366,2124,2392,2369,780,545,-1607,-194,3341,32,43,802
940832,6629620,7123256,6633043,7124563,2452,2378,2340,483,678,-1522,-297,3330,32,43,802
941834,6629736,7123416,6633240,7124760,2612,2469,2298,188,880,-1528,-289,3235,35,42,805
942834,6629940,7123608,6633437,7124957,2060,2272,2242,-71,1155,-1506,-580,3321,35,42,805
943835,6630080,7123808,6633634,7125154,2486,2221,2185,-300,1477,-1561,-746,3277,27,43,802
944836,6630172,7124008,6633831,7125351,2832,2220,2114,-461,1763,-1654,-488,3486,27,43,802
945837,6630348,7124204,6634028,7125548,2318,2245,2048,-561,1955,-1837,-173,3443,31,35,804
946838,6630520,7124408,6634225,7125745,2355,2193,1995,-693,2060,-1869,-14,3492,31,35,804
947839,6630644,7124620,6634422,7125942,2688,2136,1968,-738,2126,-1857,43,3666,39,51,804
948840,6630776,7124828,6634619,7126139,2666,2157,1956,-719,2185,-1903,-24,3820,39,51,804
949841,6630980,7125064,6634816,7126336,2214,1964,1925,-629,2247,-1890,-208,3952,41,41,802
950842,6631104,7125292,6635013,7126533,2747,2002,1855,-548,2315,-1833,-532,3898,41,41,802
951843,6631228,7125504,6635210,7126730,2780,2095,1734,-445,2363,-1872,-480,3986,25,50,806
952844,6631412,7125716,6635407,7126927,2411,2089,1579,-410,2362,-1915,-21,3636,25,50,806
953845,6631584,7125924,6635604,7127124,2498,2109,1424,-518,2332,-1809,101,3466,42,40,803
954846,6631704,7126148,6635801,7127321,2858,1998,1319,-647,2326,-1577,23,3319,42,40,803
955847,6631888,7126380,6635998,7127518,2465,1933,1266,-829,2342,-1354,42,3100,36,47,805
956848,6632076,7126616,6636195,7127715,2444,1890,1246,-997,2392,-1194,-89,3117,36,47,805
957849,6632244,7126868,6636392,7127912,2582,1766,1240,-1239,2465,-1036,-172,3002,37,47,805
958850,6632424,7127120,6636589,7128109,2516,1742,1226,-1438,2563,-784,-404,3099,37,47,805
959851,6632612,7127376,6636786,7128306,2471,1692,1219,-1626,2665,-690,-143,3093,25,45,804
960852,6632776,7127576,6636983,7128503,2636,2041,1220,-1784,2757,-580,151,3310,25,45,804
961853,6632920,7127820,6637180,7128700,2785,1745,1232,-1905,2842,-442,173,3383,40,43,805
962854,6633104,7128080,6637377,7128897,2541,1618,1264,-1989,2927,-277,305,3470,40,43,805
963855,6633284,7128352,6637574,7129094,2575,1510,1313,-2040,3006,-219,869,3629,37,49,804
964856,6633440,7128616,6637771,7129291,2744,1530,1366,-2008,3085,-141,836,3808,37,49,804
965857,6633608,7128936,6637968,7129488,2683,1127,1425,-1897,3176,-92,846,4020,28,57,807
966858,6633784,7129096,6638165,7129685,2642,2143,1485,-1705,3256,-154,832,4284,28,57,807
967859,6633968,7129236,6638362,7129882,2598,2293,1509,-1451,3317,-177,401,4585,28,38,807
968860,6634156,7129408,6638559,7130079,2578,2104,1546,-1134,3375,-208,-480,4649,28,38,807
969861,6634316,7129592,6638756,7130276,2771,2035,1603,-757,3397,-314,171,4786,31,35,802
970862,6634448,7129812,6638953,7130473,2975,1800,1634,-375,3368,-323,1093,4801,31,35,802
971863,6634588,7130036,6639150,7130670,2951,1763,1628,24,3301,-253,1386,4910,41,43,802
972864,6634748,7130304,6639347,7130867,2844,1457,1636,396,3209,-177,1423,4907,41,43,802
973865,6634900,7130580,6639544,7131064,2913,1373,1686,795,3106,-31,1631,4876,36,51,803
974866,6635028,7130788,6639741,7131261,3095,1793,1715,1156,3000,75,1724,4773,36,51,803
975867,6635148,7131100,6639938,7131458,3179,1093,1712,1465,2900,185,1688,4620,40,63,805
976868,6635328,7131436,6640135,7131655,2813,882,1693,1695,2793,167,1662,4367,40,63,805
977869,6635540,7131716,6640332,7131852,2607,1195,1667,1892,2644,140,1602,4241,33,71,805
978870,6635724,7131992,6640529,7132049,2789,1186,1607,1988,2472,298,1415,4033,33,71,805
979871,6635900,7132296,6640726,7132246,2849,964,1498,2061,2321,404,1152,3937,37,52,808
980872,6636080,7132576,6640923,7132443,2833,1077,1365,2198,2207,393,929,4096,37,52,808
981873,6636260,7132864,6641120,7132640,2841,987,1237,2299,2077,317,1078,3933,50,65,807
982874,6636416,7133144,6641317,7132837,3010,1001,1109,2430,1884,214,1186,4015,50,65,807
983875,6636572,7133464,6641514,7133034,3029,697,983,2534,1696,146,889,3797,29,60,806
984876,6636752,7133800,6641711,7133231,2887,535,886,2644,1545,113,583,3785,29,60,806
985877,6636892,7134080,6641908,7133428,3163,849,805,2625,1408,55,678,3445,48,55,807
986878,6637052,7134344,6642105,7133625,3055,919,712,2518,1231,37,1104,3216,48,55,807
987879,6637196,7134692,6642302,7133822,3179,327,597,2387,1003,73,1470,3044,36,56,806
988880,6637328,7135008,6642499,7134019,3284,475,466,2205,741,41,1935,2906,36,56,806
989881,6637464,7135300,6642696,7134216,3287,583,320,2015,433,10,2204,2951,33,60,806
990882,6637604,7135540,6642893,7134413,3288,889,160,1919,103,77,2185,3270,33,60,806
991883,6637760,7135748,6643090,7134610,3207,1083,-22,2002,-239,100,2101,3627,24,50,805
992884,6637920,7135956,6643287,7134807,3199,1079,-235,2143,-600,17,2184,3771,24,50,805
993885,6638092,7136196,6643484,7135004,3136,860,-486,2329,-949,47,2275,3990,45,36,803
994886,6638264,7136388,6643681,7135201,3148,1162,-748,2551,-1212,198,2226,4094,45,36,803
995887,6638436,7136592,6643878,7135398,3160,1084,-997,2796,-1356,325,2201,4164,37,35,805
996888,6638620,7136772,6644075,7135595,3092,1240,-1209,2998,-1419,334,2293,3948,37,35,805
997889,6638804,7136968,6644272,7135792,3098,1141,-1395,3072,-1507,282,2493,3576,48,29,805
998890,6638968,7137124,6644469,7135989,3240,1409,-1573,3019,-1673,362,2564,3072,48,29,805
999892,6639164,7137308,6644666,7136186,3041,1239,-1762,2825,-1852,523,2483,2858,33,32,805
1000892,6639360,7137492,6644863,7136383,3043,1244,-1920,2644,-1955,665,2048,2834,33,32,805
1001894,6639584,7137704,6645060,7136580,2857,1063,-2048,2456,-2037,664,2111,2838,42,30,805
1002894,6639764,7137856,6645257,7136777,3140,1457,-2156,2329,-2104,779,1683,2975,42,30,805
1003895,6639988,7138016,6645454,7136974,2855,1424,-2238,2195,-2177,858,1153,3056,57,32,806
1004897,6640200,7138164,6645651,7137171,2924,1520,-2276,2182,-2267,912,641,3317,57,32,806
1005898,6640408,7138320,6645848,7137368,2945,1487,-2262,2210,-2394,812,381,3315,34,28,804
1006905,6640620,7138472,6646078,7137598,2929,1546,-2237,2284,-2575,645,133,3586,34,28,804
1007900,6640816,7138652,6646275,7137795,3030,1379,-2221,2409,-2820,427,-123,3837,32,28,805
1008901,6641032,7138792,6646472,7137992,2898,1654,-2238,2685,-3108,131,-364,4392,32,28,805
1009901,6641220,7138940,6646669,7138189,3078,1625,-2303,3158,-3422,-207,-599,5000,32,36,804
1010902,6641420,7139080,6646866,7138386,3003,1701,-2399,3704,-3763,-587,-709,5098,32,36,804
1011903,6641628,7139248,6647063,7138583,2949,1537,-2499,4292,-4117,-814,-976,5344,51,36,803
1012904,6641848,7139408,6647260,7138780,2865,1604,-2587,4841,-4444,-936,-1395,5398,51,36,803
1013905,6642048,7139580,6647457,7138977,2990,1540,-2632,5301,-4724,-1090,-1704,5091,34,26,805
1014906,6642236,7139696,6647654,7139174,3069,1925,-2637,5626,-4956,-1267,-1951,4695,34,26,805
1015908,6642440,7139768,6647851,7139371,2967,2255,-2630,5782,-5101,-1368,-2361,4376,33,18,802
1016908,6642628,7139904,6648048,7139568,3072,1882,-2618,5872,-5136,-1468,-2697,4212,33,18,802
1017910,6642828,7140056,6648245,7139765,2997,1802,-2576,5828,-5099,-1687,-2860,3723,43,37,801
1018910,6642996,7140232,6648442,7139962,3211,1661,-2527,5681,-5028,-1951,-3058,3702,43,37,801
1019912,6643192,7140388,6648639,7140159,3037,1804,-2483,5472,-4935,-2262,-3229,3538,49,43,802
1020912,6643380,7140516,6648836,7140356,3092,2009,-2413,5162,-4819,-2460,-3543,3334,49,43,802
1021913,6643584,7140664,6649033,7140553,2990,1906,-2314,4801,-4649,-2555,-3793,3278,35,41,803
1022914,6643768,7140812,6649230,7140750,3122,1927,-2195,4364,-4389,-2691,-4025,3143,35,41,803
1023915,6643976,7140980,6649427,7140947,2968,1815,-2060,3928,-4043,-2767,-4023,3300,37,24,802
1024916,6644176,7141136,6649624,7141144,3019,1908,-1916,3397,-3678,-2880,-3373,3129,37,24,802
1025917,6644368,7141264,6649821,7141341,3072,2113,-1788,2829,-3342,-2983,-2862,3185,50,36,801
1026918,6644572,7141368,6650018,7141538,2995,2304,-1708,2271,-3058,-3125,-2399,3320,50,36,801
1027919,6644768,7141556,6650215,7141735,3046,1783,-1667,1744,-2819,-3292,-1972,3599,39,32,800
1028920,6644984,7141704,6650412,7141932,2914,2055,-1674,1251,-2600,-3293,-1758,3880,39,32,800
1029922,6645204,7141912,6650609,7142129,2880,1675,-1720,822,-2360,-3169,-1800,4192,33,32,801
1030922,6645404,7142072,6650806,7142326,3004,1991,-1791,494,-2081,-3085,-1812,4544,33,32,801
1031923,6645636,7142220,6651003,7142523,2790,2088,-1869,166,-1780,-2882,-1503,4684,55,43,803
1032924,6645856,7142332,6651200,7142720,2856,2350,-1941,-113,-1482,-2638,-1083,4904,55,43,803
1033925,6646100,7142480,6651397,7142917,2686,2147,-1974,-426,-1194,-2344,-762,4816,52,38,802
1034926,6646340,7142608,6651594,7143114,2693,2302,-1987,-798,-931,-2052,-529,4757,52,38,802
1035927,6646592,7142804,6651791,7143311,2595,1877,-1989,-1220,-715,-1904,-195,4749,51,43,802
1036929,6646876,7142956,6651988,7143508,2358,2172,-1967,-1675,-569,-1660,30,4721,51,43,802
1037929,6647128,7143056,6652185,7143705,2535,2540,-1934,-2083,-481,-1404,-102,4962,43,29,803
1038930,6647404,7143180,6652382,7143902,2351,2422,-1834,-2442,-420,-1159,-212,4972,43,29,803
1039931,6647732,7143332,6652579,7144099,1970,2268,-1687,-2775,-390,-840,-579,5126,72,42,802
1040932,6648008,7143492,6652776,7144296,2261,2234,-1530,-3092,-381,-503,-713,5173,72,42,802
1041933,6648320,7143652,6652973,7144493,1986,2250,-1379,-3395,-388,-208,-599,5290,62,27,806
1042934,6648644,7143776,6653170,7144690,1855,2507,-1187,-3637,-439,0,-463,5288,62,27,806
1043935,6648968,7143916,6653367,7144887,1801,2432,-956,-3904,-530,165,-431,5417,54,39,806
1044936,6649284,7144020,6653564,7145084,1799,2698,-697,-4118,-669,325,-331,5489,54,39,806
1045937,6649580,7144164,6653761,7145281,1882,2472,-423,-4270,-860,492,-261,5574,52,41,806
1046938,6649888,7144308,6653958,7145478,1759,2496,-121,-4364,-1055,573,-567,5698,52,41,806
1047939,6650216,7144468,6654155,7145675,1577,2412,200,-4442,-1204,737,-1022,5758,57,30,805
1048940,6650524,7144644,6654352,7145872,1654,2321,516,-4459,-1292,887,-1148,5913,57,30,805
1049941,6650832,7144776,6654549,7146069,1606,2626,851,-4417,-1318,951,-1189,5972,54,41,806
1050942,6651180,7144884,6654746,7146266,1291,2815,1196,-4347,-1327,913,-979,5887,54,41,806
1051943,6651444,7145016,6654943,7146463,1786,2693,1554,-4282,-1384,763,-441,5801,74,40,806
1052945,6651744,7145156,6655140,7146660,1517,2668,1917,-4224,-1471,674,-90,5729,74,40,806
1053945,6652076,7145340,6655337,7146857,1259,2400,2289,-4078,-1534,676,-195,5891,72,29,805
1054946,6652364,7145500,6655534,7147054,1494,2566,2662,-3885,-1536,586,-641,5914,72,29,805
1055947,6652584,7145656,6655731,7147251,1909,2609,3051,-3637,-1462,416,-1151,5901,61,33,807
1056948,6652908,7145764,6655928,7147448,1204,2949,3441,-3317,-1351,222,-1361,5960,61,33,807
1057949,6653164,7145948,6656125,7147645,1604,2480,3829,-2956,-1233,-9,-1329,5922,65,39,805
1058950,6653424,7146096,6656322,7147842,1552,2727,4198,-2593,-1123,-273,-1105,5820,65,39,805
1059951,6653668,7146276,6656519,7148039,1631,2534,4531,-2229,-1042,-519,-719,5598,58,43,805
1060952,6653952,7146452,6656716,7148236,1344,2569,4835,-1840,-977,-760,-412,5508,58,43,805
1061953,6654172,7146604,6656913,7148433,1734,2739,5080,-1490,-915,-942,-485,5305,63,39,806
1062954,6654452,7146736,6657110,7148630,1324,2893,5285,-1123,-850,-995,-719,5190,63,39,806
1063955,6654708,7146908,6657307,7148827,1448,2655,5418,-751,-745,-1006,-1160,4996,52,26,805
1064957,6654940,7147088,6657504,7149024,1583,2612,5523,-390,-604,-1026,-1394,4750,52,26,805
1065957,6655184,7147272,6657701,7149221,1488,2594,5597,-78,-456,-1062,-1322,4442,43,37,806
1066958,6655456,7147448,6657898,7149418,1281,2653,5658,171,-305,-1006,-1245,4057,43,37,806
1067959,6655724,7147556,6658095,7149615,1274,3117,5694,335,-159,-913,-1067,3725,51,30,806
1068961,6655960,7147700,6658292,7149812,1458,2917,5724,430,-28,-878,-830,3363,51,30,806
1069962,6656272,7147848,6658489,7150009,933,2913,5736,438,83,-825,-665,2884,42,38,804
1070963,6656520,7148084,6658686,7150206,1310,2347,5701,347,182,-729,-398,2609,42,38,804
1071963,6656752,7148292,6658883,7150403,1396,2517,5642,168,268,-621,-203,2183,52,53,805
1072965,6657080,7148504,6659080,7150600,738,2486,5535,-45,344,-491,-154,1919,52,53,805
1073965,6657340,7148680,6659277,7150797,1137,2721,5396,-341,421,-392,-55,1555,54,49,808
1074967,6657592,7148864,6659474,7150994,1163,2677,5203,-752,504,-247,59,1228,54,49,808
1075967,6657908,7149116,6659671,7151191,710,2228,4998,-1187,577,-164,292,921,63,39,808
1076968,6658156,7149332,6659868,7151388,1114,2445,4748,-1666,632,-148,398,701,63,39,808
1077969,6658416,7149532,6660065,7151585,1011,2544,4474,-2152,684,-143,309,631,44,35,810
1078970,6658616,7149752,6660262,7151782,1385,2410,4169,-2622,742,-140,371,628,44,35,810
1079971,6658868,7149960,6660459,7151979,1037,2480,3865,-3016,831,-64,477,683,38,53,809
1080972,6659112,7150144,6660656,7152176,1066,2635,3536,-3356,977,-51,521,766,38,53,809
1081973,6659296,7150356,6660853,7152373,1447,2455,3216,-3626,1182,-74,590,875,55,51,808
1082974,6659556,7150580,6661050,7152570,945,2368,2856,-3851,1397,-55,778,917,55,51,808
1083975,6659756,7150788,6661247,7152767,1319,2464,2467,-4037,1590,76,996,947,46,41,808
1084976,6659940,7151000,6661444,7152964,1424,2433,2049,-4148,1761,85,1213,1083,46,41,808
1085977,6660164,7151160,6661641,7153161,1163,2774,1652,-4247,1908,71,1386,1085,30,46,808
1086978,6660328,7151348,6661838,7153358,1553,2604,1248,-4289,2039,61,1616,1234,30,46,808
1087979,6660496,7151508,6662035,7153555,1541,2795,844,-4309,2155,94,1740,1365,47,28,807
1088980,6660704,7151704,6662232,7153752,1286,2572,444,-4283,2248,165,1799,1452,47,28,807
1089988,6660868,7151864,6662462,7153982,1591,2827,60,-4185,2343,214,1840,1574,23,44,805
1090982,6660968,7152036,6662659,7154179,2034,2763,-304,-4101,2418,408,1889,1602,23,44,805
1091983,6661196,7152140,6662856,7154376,1220,3230,-650,-3987,2466,666,1813,1838,36,38,805
1092984,6661340,7152328,6663053,7154573,1769,2709,-1000,-3813,2491,844,1771,2020,36,38,805
1093985,6661468,7152468,6663250,7154770,1900,3035,-1363,-3586,2509,994,1590,2177,33,37,801
1094986,6661664,7152612,6663447,7154967,1475,3033,-1705,-3349,2517,1117,1509,2336,33,37,801
1095987,6661820,7152720,6663644,7155164,1744,3298,-2025,-3088,2497,1312,1441,2447,43,20,801
1096988,6661972,7152812,6663841,7155361,1789,3445,-2324,-2878,2418,1503,1354,2380,43,20,801
1097990,6662116,7152904,6664038,7155558,1862,3491,-2626,-2691,2291,1651,1213,2513,26,26,800
1098990,6662344,7153016,6664235,7155755,1325,3404,-2928,-2540,2128,1846,1094,2546,26,26,800
1099991,6662488,7153124,6664432,7155952,1873,3468,-3210,-2411,1928,2060,1028,2624,47,30,798
1100992,6662628,7153256,6664629,7156149,1923,3348,-3482,-2279,1696,2196,1083,2750,47,30,798
1101993,6662876,7153348,6664826,7156346,1226,3645,-3736,-2162,1429,2267,1048,2797,43,13,799
1103007,6663028,7153408,6665023,7156543,1846,3800,-3956,-2067,1159,2369,882,2961,43,13,799
1104008,6663180,7153480,6665220,7156740,1866,3800,-4143,-1913,900,2502,716,3132,36,24,797
1104996,6663448,7153588,6665417,7156937,1111,3700,-4328,-1723,664,2647,700,3420,36,24,797
1106010,6663612,7153676,6665614,7157134,1775,3800,-4492,-1440,479,2707,477,3844,31,15,794
1106998,6663764,7153824,6665811,7157331,1871,3522,-4648,-1101,333,2675,401,4133,31,15,794
1108012,6664036,7153916,6666008,7157528,1088,3800,-4779,-732,214,2654,297,4472,51,24,797
1109000,6664232,7154040,6666205,7157725,1564,3751,-4845,-352,90,2487,306,4519,51,24,797
1110001,6664420,7154180,6666402,7157922,1618,3677,-4854,28,-57,2227,358,4757,37,31,799
1111002,6664632,7154324,6666599,7158119,1462,3675,-4814,394,-223,1906,383,4911,37,31,799
1112003,6664860,7154472,6666796,7158316,1349,3673,-4753,770,-382,1631,193,5065,37,43,798
1113004,6665072,7154656,6666993,7158513,1443,3454,-4670,1179,-531,1344,-16,5200,37,43,798
1114005,6665276,7154844,6667190,7158710,1490,3434,-4554,1522,-677,894,-138,5205,55,26,798
1115006,6665480,7155020,6667387,7158907,1488,3519,-4395,1823,-817,402,-259,5279,55,26,798
1116007,6665680,7155204,6667584,7159104,1511,3475,-4225,2141,-909,68,-553,5571,54,25,799
1117008,6665872,7155384,6667781,7159301,1563,3509,-4052,2523,-932,-168,-733,5815,54,25,799
1118009,6666088,7155572,6667978,7159498,1406,3464,-3859,2864,-887,-415,-909,5698,53,28,799
1119010,6666288,7155756,6668175,7159695,1505,3495,-3631,3122,-791,-734,-1080,5644,53,28,799
1120011,6666460,7155988,6668372,7159892,1691,3180,-3371,3215,-675,-1046,-1132,5301,37,34,800
1121012,6666652,7156212,6668569,7160089,1569,3219,-3079,3165,-550,-1252,-1163,5024,37,34,800
1122013,6666844,7156460,6668766,7160286,1571,3048,-2773,2984,-411,-1455,-1234,4754,33,44,800
1123014,6667036,7156708,6668963,7160483,1574,3025,-2461,2722,-245,-1665,-1261,4483,33,44,800
1124015,6667188,7156936,6669160,7160680,1844,3138,-2147,2398,-42,-1838,-1323,4515,37,43,802
1125016,6667368,7157188,6669357,7160877,1677,2965,-1848,2172,206,-2007,-1496,5037,37,43,802
1126017,6667520,7157508,6669554,7161074,1872,2486,-1595,2066,498,-2255,-1777,5477,28,61,801
1127018,6667688,7157744,6669751,7161271,1785,2994,-1332,1964,786,-2463,-1715,5423,28,61,801
1128019,6667856,7158004,6669948,7161468,1798,2818,-1055,1870,1040,-2542,-1711,5695,26,54,802
1129020,6668004,7158252,6670145,7161665,1945,2870,-792,1806,1266,-2544,-1668,5925,26,54,802
1130021,6668140,7158492,6670342,7161862,2047,2902,-527,1723,1489,-2617,-1577,5790,24,58,802
1131022,6668308,7158728,6670539,7162059,1861,2911,-263,1554,1707,-2719,-1357,5711,24,58,802
1132023,6668452,7159004,6670736,7162256,2034,2627,-7,1365,1901,-2763,-1265,5805,29,46,802
1133024,6668608,7159292,6670933,7162453,1977,2513,232,1190,2066,-2676,-1115,5880,29,46,802
1134025,6668768,7159548,6671130,7162650,1969,2688,452,1039,2203,-2546,-883,5943,28,44,802
1135026,6668888,7159764,6671327,7162847,2253,2929,652,822,2332,-2331,-676,5787,28,44,802
1136027,6669000,7160028,6671524,7163044,2342,2601,839,530,2484,-2055,-679,5620,25,58,804
1137028,6669132,7160328,6671721,7163241,2245,2331,1017,167,2634,-1878,-567,5472,25,58,804
1138029,6669256,7160592,6671918,7163438,2328,2527,1184,-210,2734,-1688,-323,5434,23,48,800
1139030,6669356,7160828,6672115,7163635,2521,2685,1347,-661,2780,-1502,-50,5129,23,48,800
1140031,6669468,7161072,6672312,7163832,2484,2615,1512,-1144,2793,-1105,316,4983,30,51,804
1141032,6669632,7161316,6672509,7164029,2174,2595,1671,-1681,2782,-696,697,4831,30,51,804
1142033,6669744,7161600,6672706,7164226,2537,2308,1819,-2197,2768,-405,694,4794,22,62,799
1143034,6669876,7161904,6672903,7164423,2441,2135,1942,-2696,2754,-274,354,4870,22,62,799
1144035,6670036,7162160,6673100,7164620,2283,2411,2048,-3094,2724,-220,514,5123,23,49,803
1145036,6670160,7162372,6673297,7164817,2541,2679,2152,-3412,2665,-107,978,5297,23,49,803
1146037,6670296,7162612,6673494,7165014,2493,2486,2253,-3596,2611,-22,1021,5547,37,44,803
1147038,6670440,7162848,6673691,7165211,2467,2494,2359,-3655,2591,55,930,5844,37,44,803
1148039,6670592,7163168,6673888,7165408,2437,1916,2475,-3651,2592,145,813,5977,30,62,800
1149040,6670728,7163468,6674085,7165605,2565,1996,2588,-3550,2592,165,691,6168,30,62,800
1150041,6670872,7163724,6674282,7165802,2539,2246,2691,-3349,2600,239,493,6308,47,62,801
1151042,6671036,7163956,6674479,7165999,2429,2380,2785,-3119,2646,281,286,6325,47,62,801
1152043,6671180,7164204,6674676,7166196,2578,2258,2883,-2897,2726,169,395,6243,31,49,804
1153044,6671356,7164496,6674873,7166393,2388,1942,2988,-2590,2805,93,715,6320,31,49,804
1154045,6671568,7164812,6675070,7166590,2156,1740,3091,-2229,2865,16,975,6307,51,63,803
1155046,6671720,7165088,6675267,7166787,2552,1955,3210,-1888,2899,-113,1154,6148,51,63,803
1156047,6671908,7165352,6675464,7166984,2332,2002,3345,-1547,2917,-181,1244,6066,44,48,805
1157048,6672076,7165636,6675661,7167181,2470,1838,3496,-1212,2932,-245,1256,5804,44,48,805
1158049,6672264,7165932,6675858,7167378,2350,1720,3640,-885,2941,-313,1047,5677,50,63,805
1159050,6672440,7166228,6676055,7167575,2435,1677,3872,-254,2902,-452,846,5310,50,63,805
1160051,6672644,7166512,6676252,7167772,2257,1714,3977,109,2855,-525,825,5222,55,53,805
1161052,6672864,7166756,6676449,7167969,2148,1944,4077,486,2800,-582,696,5138,55,53,805
1162053,6673068,7167104,6676646,7168166,2246,1227,4174,891,2729,-506,337,5001,34,52,807
1163054,6673272,7167400,6676843,7168363,2244,1510,4258,1194,2650,-356,-156,4611,34,52,807
1164055,6673476,7167692,6677040,7168560,2241,1493,4326,1480,2545,-208,-366,4407,54,51,807
1165057,6673708,7167992,6677237,7168757,2051,1398,4366,1705,2417,-30,-491,4067,54,51,807
1166057,6673944,7168232,6677434,7168954,2010,1754,4370,1934,2293,169,-616,3924,55,47,808
1167058,6674148,7168532,6677631,7169151,2207,1334,4335,2188,2215,328,-754,3832,55,47,808
1168059,6674384,7168816,6677828,7169348,1991,1395,4268,2419,2187,436,-890,3647,48,50,810
1169060,6674604,7169128,6678025,7169545,2082,1170,4165,2580,2164,555,-836,3296,48,50,810
1170061,6674800,7169384,6678222,7169742,2232,1495,4037,2611,2114,794,-690,2761,37,47,809
1171062,6675020,7169620,6678419,7169939,2073,1603,3898,2525,2032,956,-407,2247,37,47,809
1172063,6675260,7169872,6678616,7170136,1929,1479,3739,2309,1935,960,72,1783,49,47,810
1173071,6675456,7170160,6678846,7170366,2220,1228,3555,2043,1841,920,527,1481,49,47,810
1174065,6675668,7170432,6679043,7170563,2115,1295,3360,1744,1756,962,797,1199,42,51,809
1175066,6675892,7170676,6679240,7170760,2028,1449,3167,1390,1713,1102,986,920,42,51,809
1176067,6676092,7170956,6679437,7170957,2177,1188,2976,983,1680,1244,1160,825,44,56,810
1177068,6676284,7171164,6679634,7171154,2231,1633,2792,657,1647,1235,1274,883,44,56,810
1178069,6676504,7171440,6679831,7171351,2046,1173,2604,390,1613,1162,1367,963,51,44,811
1179070,6676720,7171716,6680028,7171548,2063,1139,2386,259,1584,1112,1306,1193,51,44,811
1180071,6676944,7171968,6680225,7171745,2002,1265,2117,247,1538,1070,1237,1379,42,47,808
1181072,6677156,7172220,6680422,7171942,2071,1240,1825,285,1462,1031,1014,1390,42,47,808
1182073,6677368,7172464,6680619,7172139,2065,1270,1524,380,1354,977,780,1577,30,56,810
1183074,6677552,7172700,6680816,7172336,2246,1303,1213,488,1189,862,1106,1561,30,56,810
1184075,6677736,7172952,6681013,7172533,2253,1177,879,640,970,848,824,1575,30,42,810
1185076,6677900,7173220,6681210,7172730,2393,1046,536,871,727,728,325,1623,30,42,810
1186077,6678096,7173452,6681407,7172927,2194,1256,194,1154,470,503,24,1776,26,46,810
1187078,6678328,7173704,6681604,7173124,1954,1107,-150,1478,209,437,-270,1932,26,46,810
1188079,6678488,7173940,6681801,7173321,2421,1189,-491,1754,-48,493,-459,1784,37,50,810
1189080,6678684,7174172,6681998,7173518,2197,1199,-839,1939,-307,698,-459,1443,37,50,810
1190081,6678876,7174388,6682195,7173715,2225,1291,-1192,1967,-589,767,-390,953,48,47,812
1191082,6679056,7174632,6682392,7173912,2308,1095,-1554,1912,-871,759,-298,903,48,47,812
1192083,6679232,7174880,6682589,7174109,2343,1048,-1925,1784,-1130,767,-223,684,44,35,809
1193084,6679436,7175072,6682786,7174306,2166,1399,-2277,1582,-1347,865,-142,602,44,35,809
1194085,6679696,7175308,6682983,7174503,1788,1107,-2611,1331,-1524,1059,-124,389,56,35,809
1195086,6679936,7175492,6683180,7174700,1895,1437,-2913,944,-1683,1261,-157,128,56,35,809
1196087,6680168,7175700,6683377,7174897,1931,1283,-3178,523,-1815,1408,-333,218,54,45,810
1197089,6680420,7175904,6683574,7175094,1782,1305,-3457,223,-1902,1629,-452,1025,54,45,810
1198090,6680652,7176160,6683771,7175291,1892,954,-3757,113,-1961,1646,-613,1479,60,26,811
1199090,6680856,7176304,6683968,7175488,2064,1676,-3994,-67,-2004,1473,-705,1154,60,26,811
1200091,6681132,7176472,6684165,7175685,1580,1539,-4199,-356,-2036,1534,-503,1268,57,24,812
1201092,6681388,7176612,6684362,7175882,1680,1739,-4351,-823,-2066,1635,-401,681,57,24,812
1202093,6681624,7176732,6684559,7176079,1788,1898,-4436,-1505,-2100,1530,-569,125,43,25,809
1203094,6681856,7176896,6684756,7176276,1799,1637,-4478,-2184,-2144,1494,-489,517,43,25,809
1204095,6682048,7177092,6684953,7176473,2051,1437,-4514,-2582,-2180,1340,-630,1230,52,26,809
1205096,6682272,7177268,6685150,7176670,1840,1572,-4573,-2743,-2168,1277,-944,1882,52,26,809
1206097,6682484,7177400,6685347,7176867,1909,1875,-4683,-2688,-2111,1387,-1060,2753,34,22,811
1207098,6682680,7177548,6685544,7177064,2010,1796,-4832,-2558,-2014,1508,-1091,3082,34,22,811
1208099,6682848,7177696,6685741,7177261,2198,1817,-4982,-2420,-1926,1702,-1076,3247,45,38,811
1209100,6683068,7177884,6685938,7177458,1864,1571,-5106,-2362,-1860,1801,-993,3113,45,38,811
1210101,6683208,7178004,6686135,7177655,2390,2030,-5167,-2421,-1785,1860,-878,2944,29,21,808
1211102,6683428,7178108,6686332,7177852,1880,2171,-5186,-2591,-1690,1911,-700,2794,29,21,808
1212103,6683656,7178224,6686529,7178049,1817,2132,-5202,-2774,-1544,2014,-629,2980,44,21,810
1213104,6683844,7178388,6686726,7178246,2071,1846,-5220,-2916,-1327,2203,-726,3182,44,21,810
1214105,6684056,7178564,6686923,7178443,1915,1780,-5255,-3028,-1035,2514,-931,3530,33,31,806
1215106,6684256,7178740,6687120,7178640,1989,1790,-5309,-2997,-702,2683,-1111,4091,33,31,806
1216107,6684456,7178868,6687317,7178837,1989,2120,-5353,-2870,-390,2679,-1140,4273,52,25,806
1217108,6684620,7179012,6687514,7179034,2228,2043,-5362,-2757,-146,2695,-1200,4407,52,25,806
1218109,6684840,7179132,6687711,7179231,1869,2227,-5327,-2631,6,2756,-1075,4610,37,19,809
1219110,6685056,7179264,6687908,7179428,1886,2181,-5259,-2481,81,2814,-1231,4672,37,19,809
1220111,6685224,7179440,6688105,7179625,2200,1915,-5190,-2260,82,2777,-1584,5228,50,32,806
1221112,6685428,7179592,6688302,7179822,1972,2085,-5101,-1927,5,2657,-1801,5695,50,32,806
1222113,6685656,7179716,6688499,7180019,1809,2292,-5018,-1372,-121,2599,-2044,6446,31,32,807
1223114,6685844,7179900,6688696,7180216,2064,1922,-4961,-571,-235,2596,-2408,7165,31,32,807
1224115,6686032,7180048,6688893,7180413,2068,2169,-4902,281,-334,2566,-2332,7375,37,27,807
1225116,6686292,7180244,6689090,7180610,1591,1869,-4806,1046,-464,2603,-1803,7258,37,27,807
1226117,6686476,7180468,6689287,7180807,2072,1682,-4674,1625,-646,2687,-1258,6895,50,35,806
1227118,6686640,7180648,6689484,7181004,2212,1965,-4479,1975,-853,2745,-1081,6240,50,35,806
1228119,6686876,7180788,6689681,7181201,1745,2240,-4223,2125,-1071,2834,-703,5794,42,40,809
1229121,6687056,7180936,6689878,7181398,2104,2213,-3930,2211,-1259,2918,-696,5760,42,40,809
1230121,6687216,7181092,6690075,7181595,2245,2181,-3605,2262,-1372,2879,-1014,5686,34,43,806
1231122,6687436,7181312,6690272,7181792,1861,1770,-3248,2266,-1383,2840,-1294,5645,34,43,806
1232123,6687664,7181496,6690469,7181989,1797,2001,-2875,2210,-1359,2609,-933,5524,31,38,805
1233124,6687828,7181648,6690666,7182186,2213,2221,-2518,2111,-1348,2407,-826,5533,31,38,805
1234125,6688052,7181816,6690863,7182383,1827,2134,-2188,2025,-1350,2277,-847,5492,30,40,809
1235126,6688320,7181940,6691060,7182580,1521,2441,-1908,1996,-1329,2277,-1367,5648,30,40,809
1236127,6688528,7182088,6691257,7182777,1892,2312,-1648,2027,-1298,2212,-1670,5756,51,25,804
1237128,6688744,7182252,6691454,7182974,1833,2227,-1429,2120,-1237,2028,-2009,6259,51,25,804
1238129,6689032,7182456,6691651,7183171,1344,1975,-1300,2411,-1142,1540,-1932,6849,38,28,806
1239130,6689248,7182616,6691848,7183368,1786,2266,-1131,2637,-1081,991,-1420,6412,38,28,806
1240131,6689472,7182800,6692045,7183565,1725,2122,-920,2809,-1068,596,-782,6471,36,34,807
1241132,6689732,7182972,6692242,7183762,1473,2208,-727,2926,-1063,476,-242,6382,36,34,807
1242133,6689936,7183156,6692439,7183959,1820,2138,-597,3108,-978,587,-454,6621,50,30,807
1243134,6690128,7183352,6692636,7184156,1898,2064,-444,3252,-794,696,-757,6294,50,30,807
1244135,6690392,7183544,6692833,7184353,1419,2091,-263,3299,-562,750,-887,6077,45,39,808
1245136,6690632,7183728,6693030,7184550,1550,2148,-59,3291,-311,703,-1123,5985,45,39,808
1246137,6690820,7183888,6693227,7184747,1879,2314,152,3233,-64,603,-1281,5826,48,39,807
1247138,6691044,7184084,6693424,7184944,1643,2089,363,3180,168,470,-1183,5787,48,39,807
1248139,6691280,7184264,6693621,7185141,1551,2197,588,3131,365,313,-873,5767,48,33,808
1249140,6691476,7184476,6693818,7185338,1803,1990,803,3147,536,310,-861,5926,48,33,808
1250141,6691644,7184676,6694015,7185535,1990,2064,975,3161,690,357,-747,5912,33,43,807
1251142,6691872,7184844,6694212,7185732,1603,2278,1134,3190,801,393,-767,5900,33,43,807
1252143,6692048,7184972,6694409,7185929,1937,2558,1289,3119,855,510,-729,5509,40,41,808
1253144,6692192,7185128,6694606,7186126,2161,2401,1416,3047,884,827,-847,5487,40,41,808
1254145,6692432,7185332,6694803,7186323,1542,2098,1496,3033,898,807,-1070,5601,24,37,808
1255146,6692588,7185520,6695000,7186520,2086,2202,1562,3128,893,491,-1342,5791,24,37,808
1256156,6692728,7185740,6695230,7186750,2226,2006,1619,3161,863,168,-1420,5596,31,31,805
1257148,6692924,7185924,6695427,7186947,1876,2238,1703,3111,801,51,-1102,5320,31,31,805
1258149,6693108,7186100,6695624,7187144,1958,2297,1798,3006,714,-14,-654,5224,26,39,805
1259150,6693248,7186260,6695821,7187341,2258,2414,1893,2966,661,-188,-767,5289,26,39,805
1260151,6693456,7186452,6696018,7187538,1829,2216,1966,2930,651,-372,-855,5225,26,35,806
1261152,6693628,7186624,6696215,7187735,2065,2352,2040,2878,669,-373,-971,5240,26,35,806
1262154,6693780,7186848,6696412,7187932,2211,2016,2121,2845,691,-352,-1079,5142,44,47,804
1263154,6693928,7187020,6696609,7188129,2258,2352,2209,2773,711,-424,-1245,4849,44,47,804
1264155,6694092,7187208,6696806,7188326,2173,2256,2304,2602,733,-565,-1208,4604,33,45,805
1265156,6694248,7187408,6697003,7188523,2241,2179,2398,2328,748,-642,-908,4226,33,45,805
1266157,6694348,7187588,6697200,7188720,2635,2312,2462,2053,739,-646,-587,4048,42,36,804
1267158,6694556,7187776,6697397,7188917,1955,2267,2507,1685,726,-709,-458,3764,42,36,804
1268159,6694716,7187964,6697594,7189114,2272,2271,2520,1339,717,-815,-521,3888,38,44,805
1269160,6694828,7188156,6697791,7189311,2611,2248,2520,1003,713,-910,-495,3864,38,44,805
1270162,6695004,7188356,6697988,7189508,2220,2197,2499,718,720,-941,-607,3958,23,33,804
1271162,6695184,7188536,6698185,7189705,2203,2330,2470,451,742,-995,-675,3851,23,33,804
1272163,6695296,7188736,6698382,7189902,2666,2204,2446,192,808,-1099,-745,3820,27,48,803
1273164,6695464,7188920,6698579,7190099,2329,2310,2421,-38,938,-1066,-970,3836,27,48,803
1274165,6695660,7189144,6698776,7190296,2155,2048,2397,-262,1111,-1197,-1079,3722,25,51,804
1275166,6695768,7189328,6698973,7190493,2745,2303,2365,-437,1252,-1453,-638,3836,25,51,804
1276167,6695920,7189560,6699170,7190690,2491,1989,2317,-635,1346,-1599,-658,3679,43,47,804
1277168,6696060,7189764,6699367,7190887,2591,2161,2241,-745,1444,-1671,-809,4064,43,47,804
1278169,6696240,7189972,6699564,7191084,2349,2131,2151,-748,1575,-1809,-599,4165,29,53,801
1279170,6696376,7190204,6699761,7191281,2652,1966,2082,-646,1703,-1905,-485,4427,29,53,801
1280171,6696520,7190460,6699958,7191478,2625,1790,2056,-510,1811,-1947,-409,4353,29,55,802
1281172,6696692,7190688,6700155,7191675,2462,1952,2052,-396,1932,-1924,-755,4385,29,55,802
1282173,6696816,7190924,6700352,7191872,2794,1885,2049,-267,2059,-1912,-952,4324,20,54,802
1283174,6696992,7191168,6700549,7192069,2480,1814,2046,-203,2146,-1962,-828,4038,20,54,802
1284175,6697176,7191380,6700746,7192266,2436,2008,2023,-161,2193,-1956,-828,3980,44,54,805
1285176,6697328,7191604,6700943,7192463,2657,1921,1983,-240,2245,-1845,-698,3587,44,54,805
1286178,6697492,7191804,6701140,7192660,2597,2071,1926,-313,2288,-1768,-53,3633,36,55,805
1287178,6697684,7192056,6701337,7192857,2425,1722,1864,-436,2333,-1697,162,3459,36,55,805
1288179,6697856,7192320,6701534,7193054,2562,1617,1809,-567,2416,-1453,29,3533,39,49,804
1289180,6698044,7192560,6701731,7193251,2466,1748,1759,-711,2540,-1186,-363,3370,39,49,804
1290181,6698216,7192776,6701928,7193448,2578,1890,1708,-820,2723,-926,-1014,3498,26,44,806
1291182,6698396,7193012,6702125,7193645,2536,1748,1656,-884,2903,-824,-704,3551,26,44,806
1292183,6698560,7193244,6702322,7193842,2651,1757,1627,-991,3024,-723,-483,3447,47,44,804
1293184,6698728,7193536,6702519,7194039,2639,1341,1643,-1049,3132,-470,-780,3568,47,44,804
1294186,6698908,7193772,6702716,7194236,2573,1674,1697,-1133,3190,-440,276,3450,25,58,805
1295187,6699088,7194040,6702913,7194433,2581,1443,1751,-1184,3181,-384,690,3661,25,58,805
1296187,6699252,7194352,6703110,7194630,2696,1118,1787,-1224,3163,-274,780,3764,28,57,806
1297188,6699448,7194540,6703307,7194827,2497,1897,1800,-1169,3147,-119,878,3987,28,57,806
1298190,6699644,7194712,6703504,7195024,2499,2008,1788,-1033,3121,-77,690,4230,25,44,807
1299190,6699800,7194876,6703701,7195221,2768,2072,1802,-809,3131,17,-300,4362,25,44,807
1300191,6699944,7195060,6703898,7195418,2866,1953,1858,-562,3169,52,-200,4392,33,36,805
1301192,6700100,7195228,6704095,7195615,2810,2066,1923,-339,3184,29,852,4353,33,36,805
1302193,6700208,7195424,6704292,7195812,3150,1891,1979,-143,3139,-21,1270,4302,42,39,799
1303194,6700360,7195664,6704489,7196009,2896,1597,2044,31,3032,-46,1361,4239,42,39,799
1304195,6700520,7195956,6704686,7196206,2862,1230,2141,195,2900,-15,1287,4244,39,41,801
1305196,6700648,7196268,6704883,7196403,3094,1055,2237,423,2782,190,1284,4380,39,41,801
1306197,6700792,7196472,6705080,7196600,3018,1727,2310,624,2694,327,1435,4185,48,52,804
1307198,6700992,7196760,6705277,7196797,2668,1162,2339,849,2596,179,1544,4317,48,52,804
1308199,6701172,7197084,6705474,7196994,2801,881,2325,1100,2487,137,1424,4278,49,56,805
1309200,6701356,7197364,6705671,7197191,2782,1119,2288,1312,2403,238,1051,4226,49,56,805
1310201,6701508,7197692,6705868,7197388,3003,762,2244,1616,2368,302,714,4373,52,73,807
1311202,6701704,7198024,6706065,7197585,2729,678,2206,1891,2371,277,382,4201,52,73,807
1312203,6701864,7198332,6706262,7197782,2971,779,2166,2083,2359,127,391,4026,32,69,807
1313204,6702028,7198604,6706459,7197979,2962,971,2122,2256,2301,25,554,3947,32,69,807
1314205,6702188,7198948,6706656,7198176,3004,456,2093,2391,2186,63,739,3680,46,61,807
1315206,6702340,7199300,6706853,7198373,3074,338,2066,2473,2012,-53,1048,3578,46,61,807
1316207,6702496,7199624,6707050,7198570,3068,457,2017,2517,1787,-166,1303,3377,38,72,806
1317208,6702656,7199888,6707247,7198767,3060,802,1932,2500,1524,-133,1401,3283,38,72,806
1318209,6702796,7200192,6707444,7198964,3211,505,1808,2549,1219,-90,1607,3344,39,72,806
1319210,6702916,7200504,6707641,7199161,3371,404,1635,2578,872,-105,1855,3260,39,72,806
1320211,6703036,7200824,6707838,7199358,3406,300,1389,2686,488,-159,2063,3536,40,52,806
1321212,6703192,7201052,6708035,7199555,3200,861,1123,2832,106,-174,2205,3612,40,52,806
1322213,6703348,7201256,6708232,7199752,3219,1008,863,3140,-221,-66,2081,4038,42,44,805
1323214,6703528,7201484,6708429,7199949,3077,844,622,3507,-456,0,1958,4210,42,44,805
1324215,6703684,7201708,6708626,7200146,3245,857,403,3894,-597,53,1823,4232,28,38,804
1325216,6703852,7201908,6708823,7200343,3184,1005,199,4137,-725,88,2031,3680,28,38,804
1326217,6704012,7202108,6709020,7200540,3251,1003,20,4113,-934,93,2594,2872,39,48,804
1327219,6704188,7202300,6709217,7200737,3162,1056,-162,3848,-1257,17,3118,2227,39,48,804
1328219,6704360,7202468,6709414,7200934,3198,1217,-354,3378,-1633,73,3108,1767,38,44,804
1329220,6704552,7202620,6709611,7201131,3077,1337,-522,2941,-1923,289,2578,1873,38,44,804
1330221,6704740,7202768,6709808,7201328,3107,1384,-675,2542,-2066,577,2304,1893,29,37,804
1331222,6704924,7202928,6710005,7201525,3138,1324,-842,2260,-2107,816,2206,2148,29,37,804
1332223,6705104,7203088,6710202,7201722,3172,1340,-1043,2003,-2130,824,2304,2322,34,41,803
1333224,6705304,7203220,6710399,7201919,3047,1544,-1256,1813,-2213,737,2299,2416,34,41,803
1334225,6705496,7203376,6710596,7202116,3100,1412,-1494,1663,-2360,619,1818,2685,48,23,802
1335226,6705692,7203528,6710793,7202313,3076,1456,-1724,1602,-2525,410,1383,2890,48,23,802
1336227,6705900,7203672,6710990,7202510,2997,1529,-1950,1640,-2702,295,789,3278,41,24,802
1337228,6706084,7203860,6711187,7202707,3154,1258,-2166,1784,-2860,25,259,3583,41,24,802
1338229,6706264,7203956,6711384,7202904,3188,1877,-2368,2075,-3047,-290,100,4045,42,37,803
1339237,6706468,7204080,6711614,7203134,3050,1749,-2539,2386,-3299,-628,-10,3978,42,37,803
1340231,6706656,7204228,6711811,7203331,3155,1619,-2678,2721,-3562,-884,-241,4265,50,29,804
1341232,6706840,7204380,6712008,7203528,3187,1614,-2807,2993,-3819,-1010,-289,4063,50,29,804
1342233,6707036,7204584,6712205,7203725,3113,1286,-2946,3276,-4088,-1167,-462,4140,32,23,802
1343235,6707236,7204748,6712402,7203922,3088,1551,-3073,3507,-4295,-1365,-892,4098,32,23,802
1344235,6707436,7204864,6712599,7204119,3087,1886,-3230,3654,-4429,-1408,-1264,4160,51,23,802
1345236,6707636,7205008,6712796,7204316,3087,1734,-3403,3841,-4520,-1646,-1367,4106,51,23,802
1346237,6707844,7205164,6712993,7204513,3033,1676,-3534,3934,-4534,-1766,-1712,3847,42,40,802
1347238,6708032,7205304,6713190,7204710,3163,1801,-3625,3944,-4481,-1757,-2033,3879,42,40,802
