"Data file recorded 2014/9/24  16:55:44"
"%  Right Stride Frequency         = 3.0"
"%  Left Stride Frequency         = 3.0"
"%  Phase (Fractional)         = 32768.0"
"%  Experiment.py "
"%  Motor Gains    = [1800, 200, 100, 0, 0, 1800, 200, 100, 0, 0]
"% Columns: "
"% time | Right Leg Pos | Left Leg Pos | Commanded Right Leg Pos | Commanded Left Leg Pos | DCR | DCL | GyroX | GryoY | GryoZ | AX | AY | AZ | RBEMF | LBEMF | VBatt "
12626,25738156,23899132,25719953,23917713,-3800,3800,-314,-469,567,165,-431,4078,8,4,829
13625,25738144,23899116,25720150,23917910,-3800,3800,-311,-473,573,183,-423,4084,8,4,829
14626,25738128,23899100,25720347,23918107,-3800,3800,-312,-479,579,184,-411,4055,-23,8,799
15627,25737976,23899152,25720544,23918304,-3800,3800,-313,-508,584,197,-380,4099,-23,8,799
16628,25737724,23899444,25720741,23918501,-3800,3800,-318,-496,601,311,-393,4139,-47,45,797
17629,25737628,23899744,25720938,23918698,-3800,3800,-328,-480,621,507,-582,4047,-47,45,797
18630,25737316,23900052,25721135,23918895,-3800,3800,-352,-452,608,549,-746,4240,-60,52,799
19631,25736872,23900412,25721332,23919092,-3800,3800,-378,-358,560,414,-748,4392,-60,52,799
20619,25736416,23900808,25721529,23919289,-3514,3800,-387,-204,485,356,-393,4497,-85,59,800
21620,25735988,23901220,25721726,23919486,-3416,3800,-370,-131,419,735,-504,4210,-85,59,800
22621,25735392,23901652,25721923,23919683,-2020,3800,-350,-65,406,1248,-871,4361,-115,58,803
23622,25734776,23902056,25722120,23919880,-1541,3800,-324,0,386,1418,-527,3982,-115,58,803
24623,25734228,23902548,25722317,23920077,-1641,3800,-280,-120,303,2018,314,3317,-105,88,809
25624,25733652,23903056,25722514,23920274,-1128,3800,-223,-394,153,3068,1554,2961,-105,88,809
26625,25733004,23903512,25722711,23920471,-310,3800,-191,-634,-7,3814,1559,3095,-118,76,809
27626,25732424,23904048,25722908,23920668,-395,3800,-173,-607,-113,3796,841,3436,-118,76,809
28627,25731924,23904580,25723105,23920865,-590,3800,-133,-610,-109,3338,302,3445,-104,104,814
29628,25731424,23905120,25723302,23921062,-286,3800,-80,-539,-71,3083,390,3939,-104,104,814
30616,25731004,23905740,25723499,23921259,-517,3211,-56,-270,-110,2981,1191,4137,-90,101,814
31618,25730612,23906428,25723696,23921456,-434,2574,-43,70,-191,2739,1136,4120,-90,101,814
32618,25730288,23906928,25723893,23921653,-631,3618,-78,470,-226,2353,126,4637,-63,101,817
33619,25730016,23907464,25724090,23921850,-752,3247,-134,924,-212,1627,-603,4948,-63,101,817
34620,25729804,23907912,25724287,23922047,-948,3690,-224,1598,-258,1002,-360,5441,-28,107,815
35622,25729612,23908524,25724484,23922244,-903,2485,-320,2265,-370,651,-38,4807,-28,107,815
36623,25729500,23909072,25724681,23922441,-1268,2734,-458,2753,-528,-7,109,4858,-33,107,813
37624,25729412,23909724,25724878,23922638,-1294,1887,-662,3336,-684,-406,-566,5203,-33,107,813
38624,25729332,23910272,25725075,23922835,-1223,2384,-917,3731,-807,-444,-508,4274,-13,110,817
39626,25729276,23910920,25725272,23923032,-1262,1563,-1174,4000,-831,-474,-16,3822,-13,110,817
40627,25729256,23911552,25725469,23923229,-1393,1475,-1346,3880,-744,-817,291,2540,-13,126,819
41628,25729224,23912196,25725666,23923426,-1218,1206,-1466,3512,-634,-799,711,2128,-13,126,819
42628,25729184,23912848,25725863,23923623,-1064,958,-1545,3141,-402,-520,210,2081,0,128,821
43629,25729160,23913428,25726060,23923820,-1068,1241,-1563,2819,-16,-355,13,2129,0,128,821
44630,25729164,23914012,25726257,23924017,-1159,1048,-1562,2546,409,-577,42,2061,6,116,824
45631,25729168,23914540,25726454,23924214,-1074,1255,-1548,2124,827,-925,165,1927,6,116,824
46632,25729168,23915068,25726651,23924411,-964,1111,-1520,1865,1290,-784,-281,2523,-7,100,823
47633,25729160,23915436,25726848,23924608,-824,2038,-1478,1676,1781,-528,-555,2457,-7,100,823
48634,25729160,23915732,25727045,23924805,-788,2446,-1452,1596,2264,-569,-1126,2942,8,69,822
49635,25729184,23915932,25727242,23925002,-862,3046,-1446,1705,2680,-792,-1801,3531,8,69,822
50636,25729168,23916052,25727439,23925199,-518,3582,-1474,1915,2934,-1104,-1833,3909,-10,17,818
51650,25729184,23916112,25727636,23925396,-640,3800,-1540,2343,3052,-1564,-2187,4572,-10,17,818
52651,25729172,23916140,25727833,23925593,-373,3800,-1665,2833,3029,-2171,-2235,4672,5,11,809
53652,25729168,23916168,25728030,23925790,-335,3800,-1880,3314,2879,-2733,-2019,4978,5,11,809
54653,25729164,23916180,25728227,23925987,-247,3800,-2140,3915,2708,-3254,-2370,5312,5,0,809
55654,25729176,23916192,25728424,23926184,-266,3800,-2414,4518,2529,-3658,-2827,5473,5,0,809
56655,25729184,23916208,25728621,23926381,-158,3800,-2690,5002,2267,-3854,-3301,4989,-6,-6,810
57656,25729168,23916220,25728818,23926578,86,3800,-2928,5196,1855,-3918,-3514,4192,-6,-6,810
58657,25729184,23916232,25729015,23926775,-35,3800,-3114,5096,1337,-3532,-3630,3636,-7,-6,809
59658,25729184,23916264,25729212,23926972,152,3800,-3221,4706,809,-2936,-3438,2595,-7,-6,809
60659,25729200,23916284,25729409,23927169,131,3800,-3232,3991,337,-2394,-3281,1836,-3,14,809
61660,25729196,23916328,25729606,23927366,345,3800,-3176,3052,-87,-1849,-3009,1108,-3,14,809
62661,25729204,23916360,25729803,23927563,353,3800,-3067,1877,-457,-1336,-2489,551,-5,13,810
63662,25729236,23916400,25730000,23927760,275,3800,-2901,554,-729,-840,-2550,192,-5,13,810
64663,25729268,23916444,25730197,23927957,348,3800,-2652,-1009,-895,-446,-2846,-346,5,-1,810
65664,25729296,23916488,25730394,23928154,447,3800,-2308,-2668,-982,23,-2895,-547,5,-1,810
66664,25729348,23916524,25730591,23928351,362,3800,-1914,-4427,-1029,520,-2756,-526,5,16,810
67665,25729384,23916560,25730788,23928548,532,3800,-1519,-6084,-1057,996,-2613,-202,5,16,810
68667,25729444,23916592,25730985,23928745,443,3800,-633,-6923,-1021,1561,-2784,6672,18,17,810
69668,25729512,23916644,25731182,23928942,449,3800,1922,-3966,-839,2603,-3943,32767,18,17,810
70669,25729588,23916696,25731379,23929139,454,3800,4277,-1592,-578,1828,-2681,15039,8,5,808
71670,25729660,23916740,25731576,23929336,533,3800,4882,-2109,-384,1852,-678,1279,8,5,808
72671,25729736,23916772,25731773,23929533,562,3800,4572,-4033,-265,2214,-307,936,17,-1,809
73672,25729808,23916800,25731970,23929730,643,3800,4196,-5487,-95,2417,-856,1923,17,-1,809
74673,25729884,23916840,25732167,23929927,671,3800,4026,-6074,218,2110,-1125,2919,20,1,809
75674,25729960,23916880,25732364,23930124,725,3800,3847,-6074,573,2086,-1337,4149,20,1,809
76676,25730084,23916932,25732561,23930321,457,3800,3574,-5715,881,1944,-1183,5050,26,2,808
77676,25730228,23916964,25732758,23930518,356,3800,3238,-5282,1151,1634,-604,5541,26,2,808
78677,25730360,23917028,25732955,23930715,460,3800,2812,-4512,1322,1553,-306,6779,35,3,807
79678,25730452,23917056,25733152,23930912,757,3800,2367,-3605,1384,1166,253,6809,35,3,807
80679,25730580,23917116,25733349,23931109,562,3800,1997,-2685,1365,804,841,6542,24,14,808
81680,25730704,23917164,25733546,23931306,620,3800,1706,-2010,1275,557,996,5787,24,14,808
82681,25730820,23917208,25733743,23931503,706,3800,1401,-1348,1168,222,1024,6100,28,7,808
83682,25730952,23917260,25733940,23931700,636,3800,1093,-670,1090,186,1197,5715,28,7,808
84684,25731072,23917324,25734137,23931897,744,3800,847,-235,971,155,1658,4677,15,3,808
85685,25731188,23917372,25734334,23932094,806,3800,674,15,798,-79,1954,4197,15,3,808
86685,25731316,23917432,25734531,23932291,761,3800,549,58,600,-233,1965,3330,21,3,809
87687,25731420,23917484,25734728,23932488,953,3800,458,-129,396,-255,1943,2562,21,3,809
88687,25731548,23917532,25734925,23932685,835,3800,405,-491,195,-583,1999,1856,34,16,808
89688,25731692,23917596,25735122,23932882,758,3800,379,-1020,-5,-702,1884,1385,34,16,808
90689,25731816,23917660,25735319,23933079,916,3800,346,-1561,-191,-773,1498,1284,18,7,808
91690,25731944,23917716,25735516,23933276,922,3800,313,-2066,-293,-849,1008,1306,18,7,808
92691,25732068,23917748,25735713,23933473,979,3800,256,-2488,-290,-636,590,1477,37,14,807
93692,25732184,23917792,25735910,23933670,1066,3800,195,-2897,-220,-609,457,1359,37,14,807
94700,25732304,23917844,25736140,23933900,2115,3800,158,-3336,-124,-750,569,1158,36,2,807
95694,25732428,23917864,25736337,23934097,2122,3800,134,-3822,22,-665,273,1123,36,2,807
96695,25732592,23917944,25736534,23934294,1888,3800,64,-4163,222,-740,167,1785,40,17,805
97696,25732752,23917984,25736731,23934491,1930,3800,-29,-4289,432,-837,404,2189,40,17,805
98697,25732948,23917992,25736928,23934688,1707,3800,-119,-4278,621,-739,571,2530,47,5,804
99698,25733164,23918032,25737125,23934885,1573,3800,-236,-4016,819,-682,718,3317,47,5,804
100699,25733408,23918052,25737322,23935082,1379,3800,-380,-3614,997,-772,1141,3746,39,12,805
101700,25733664,23918084,25737519,23935279,1279,3800,-521,-3126,1103,-839,1482,3904,39,12,805
102701,25733888,23918140,25737716,23935476,1468,3800,-633,-2602,1174,-855,1700,4082,59,10,803
103702,25734104,23918184,25737913,23935673,1509,3800,-755,-2000,1240,-803,1778,4477,59,10,803
104703,25734352,23918208,25738110,23935870,1288,3800,-899,-1362,1302,-927,1750,4659,55,16,805
105704,25734624,23918256,25738307,23936067,1106,3800,-1025,-694,1353,-1148,1767,4518,55,16,805
106705,25734860,23918292,25738504,23936264,1315,3800,-1150,-129,1379,-1301,1621,4522,57,3,806
107706,25735096,23918324,25738701,23936461,1298,3800,-1240,354,1394,-1338,1493,4277,57,3,806
108707,25735324,23918372,25738898,23936658,1335,3800,-1324,649,1436,-1255,1264,4039,54,0,807
109708,25735552,23918396,25739095,23936855,1322,3800,-1386,832,1497,-1085,1064,3807,54,0,807
110709,25735764,23918424,25739292,23937052,1416,3800,-1447,928,1577,-940,1012,3777,56,2,806
111710,25735988,23918456,25739489,23937249,1330,3800,-1525,1002,1637,-735,1003,3720,56,2,806
112711,25736196,23918464,25739686,23937446,1426,3800,-1592,995,1647,-553,961,3513,42,1,806
113712,25736396,23918516,25739883,23937643,1475,3800,-1684,950,1622,-360,941,3675,42,1,806
114713,25736612,23918556,25740080,23937840,1368,3800,-1782,841,1561,-80,962,3665,51,13,805
115714,25736788,23918608,25740277,23938037,1628,3800,-1907,695,1480,184,937,3732,51,13,805
116715,25736976,23918620,25740474,23938234,1557,3800,-2043,567,1410,364,828,3953,27,15,805
117716,25737184,23918660,25740671,23938431,1428,3800,-2181,464,1333,585,807,4122,27,15,805
118717,25737340,23918668,25740868,23938628,1772,3800,-2323,370,1235,723,800,4139,29,14,805
119718,25737496,23918736,25741065,23938825,1790,3800,-2465,215,1126,816,635,4132,29,14,805
120719,25737704,23918760,25741262,23939022,1461,3800,-2587,17,1027,909,383,4262,46,11,805
121720,25737868,23918780,25741459,23939219,1752,3800,-2686,-228,950,907,138,4353,46,11,805
122721,25738024,23918792,25741656,23939416,1820,3800,-2760,-460,893,879,-64,4387,41,13,805
123722,25738196,23918812,25741853,23939613,1732,3800,-2809,-691,841,852,-205,4473,41,13,805
124723,25738320,23918856,25742050,23939810,2065,3800,-2835,-902,803,763,-473,4564,22,17,803
125724,25738476,23918916,25742247,23940007,1883,3800,-2835,-1098,786,610,-727,4814,22,17,803
126725,25738648,23918936,25742444,23940204,1795,3800,-2810,-1288,771,494,-906,4950,24,14,802
127726,25738820,23918932,25742641,23940401,1807,3800,-2322,-900,752,1312,-1119,10274,24,14,802
128727,25738964,23918944,25742838,23940598,2006,3800,-621,2196,591,4013,-1659,32513,24,-4,803
129728,25739112,23918924,25743035,23940795,2002,3800,744,4031,462,1162,-1250,10128,24,-4,803
130729,25739276,23918980,25743232,23940992,1918,3800,995,3550,430,52,-714,3242,27,12,803
131730,25739412,23918988,25743429,23941189,2121,3800,739,1924,450,168,-821,2302,27,12,803
132731,25739620,23918984,25743626,23941386,1667,3800,561,626,509,257,-1094,2636,46,11,801
133732,25739776,23918992,25743823,23941583,2010,3800,513,-401,628,-20,-1068,2474,46,11,801
134733,25739920,23919004,25744020,23941780,2109,3800,515,-1241,763,-46,-1457,2863,37,-1,803
135734,25740060,23919028,25744217,23941977,2160,3800,510,-1978,890,-341,-1429,3117,37,-1,803
136735,25740200,23919060,25744414,23942174,2186,3800,539,-2699,1009,-812,-1165,3354,35,10,802
137736,25740328,23919064,25744611,23942371,2293,3800,586,-3210,1057,-1085,-1022,4061,35,10,802
138737,25740484,23919060,25744808,23942568,2136,3800,619,-3671,1073,-1311,-956,4226,33,11,802
139738,25740628,23919032,25745005,23942765,2235,3800,641,-3896,1092,-1178,-902,4882,33,11,802
140739,25740752,23919040,25745202,23942962,2393,3800,644,-4057,1123,-933,-967,4963,22,7,802
141740,25740900,23919064,25745399,23943159,2266,3800,638,-4080,1185,-907,-1010,5471,22,7,802
142741,25741072,23919100,25745596,23943356,2128,3800,631,-4015,1259,-905,-1090,5623,39,7,801
143742,25741216,23919100,25745793,23943553,2327,3800,640,-3915,1334,-1089,-1285,5643,39,7,801
144743,25741332,23919084,25745990,23943750,2537,3800,664,-3688,1411,-1348,-1284,6085,35,12,802
145744,25741496,23919048,25746187,23943947,2253,3800,737,-3547,1475,-1234,-1098,5587,35,12,802
146745,25741620,23919072,25746384,23944144,2536,3800,810,-3458,1501,-740,-856,5635,40,6,800
147746,25741728,23919132,25746581,23944341,2676,3800,891,-3423,1528,-159,-500,5226,40,6,800
148747,25741864,23919160,25746778,23944538,2529,3800,985,-3482,1557,441,-419,4835,32,13,799
149748,25742004,23919148,25746975,23944735,2530,3800,1112,-3584,1564,702,-360,4485,32,13,799
150749,25742140,23919104,25747172,23944932,2583,3800,1286,-3821,1533,755,-224,4061,26,5,800
151750,25742296,23919128,25747369,23945129,2477,3800,1458,-4025,1466,908,-391,4226,26,5,800
152751,25742500,23919168,25747566,23945326,2175,3800,1603,-4197,1436,842,-775,4328,47,-1,800
153752,25742636,23919192,25747763,23945523,2628,3800,1708,-4146,1444,775,-963,4785,47,-1,800
154753,25742768,23919260,25747960,23945720,2682,3800,1803,-4123,1454,810,-933,4526,31,11,801
155754,25742908,23919220,25748157,23945917,2658,3800,1891,-4046,1426,1021,-857,4636,31,11,801
156755,25743024,23919180,25748354,23946114,2845,3800,1980,-4022,1361,1454,-708,4219,22,8,799
157756,25743132,23919180,25748551,23946311,2935,3800,2073,-4100,1217,1789,-409,3938,22,8,799
158757,25743284,23919232,25748748,23946508,2681,3800,2140,-4077,1054,1910,-427,4125,21,10,798
159758,25743436,23919268,25748945,23946705,2701,3800,2181,-3997,925,1894,-660,4096,21,10,798
160759,25743556,23919280,25749142,23946902,2936,3800,2182,-3767,808,1897,-787,4465,42,6,799
161760,25743764,23919260,25749339,23947099,2382,3800,2173,-3495,689,1783,-917,4355,42,6,799
162761,25743912,23919248,25749536,23947296,2780,3800,2153,-3126,576,1635,-995,4456,38,11,798
163762,25744048,23919240,25749733,23947493,2883,3800,2146,-2823,473,1426,-733,4082,38,11,798
164763,25744180,23919276,25749930,23947690,2937,3800,2139,-2524,376,1359,-364,4211,35,7,799
165764,25744324,23919336,25750127,23947887,2887,3800,2121,-2185,293,1637,-33,4145,35,7,799
166765,25744440,23919348,25750324,23948084,3098,3800,2121,-1926,213,1876,337,3464,28,0,798
167766,25744560,23919300,25750521,23948281,3109,3800,2162,-1830,118,1809,677,2923,28,0,798
168767,25744744,23919268,25750718,23948478,2716,3800,2230,-1865,0,1594,849,2482,37,1,797
169768,25744908,23919304,25750915,23948675,2856,3800,2262,-1840,-112,1581,850,2798,37,1,797
170769,25745072,23919320,25751112,23948872,2872,3800,2245,-1593,-176,1542,645,2977,46,1,797
171770,25745268,23919380,25751309,23949069,2673,3800,2231,-1343,-181,1191,546,2798,46,1,797
172771,25745412,23919380,25751506,23949266,3023,3800,2224,-1087,-150,636,286,2896,30,4,798
173772,25745536,23919344,25751703,23949463,3181,3800,2202,-802,-119,192,233,2918,30,4,798
174773,25745692,23919312,25751900,23949660,3001,3800,2158,-497,-92,288,473,2833,30,4,799
175774,25745832,23919336,25752097,23949857,3127,3800,2109,-144,-77,526,615,2649,30,4,799
176775,25745972,23919372,25752294,23950054,3153,3800,2059,142,-42,625,609,2324,19,1,796
177783,25746160,23919396,25752524,23950284,2872,3800,2009,373,33,546,471,2351,19,1,796
178777,25746376,23919404,25752721,23950481,2690,3800,1931,618,139,445,475,2290,50,14,796
179778,25746544,23919380,25752918,23950678,3005,3800,1819,903,239,316,789,2237,50,14,796
180779,25746720,23919320,25753115,23950875,2965,3800,1669,1241,322,83,879,2450,37,5,798
181780,25746900,23919352,25753312,23951072,2948,3800,1510,1575,401,-221,797,2261,37,5,798
182781,25747040,23919380,25753509,23951269,3224,3800,1347,1824,465,-115,878,2098,42,3,796
183782,25747204,23919420,25753706,23951466,3090,3800,1187,2042,511,290,1052,1784,42,3,796
184783,25747432,23919428,25753903,23951663,2678,3800,1016,2090,531,651,1236,1352,35,1,797
185784,25747644,23919412,25754100,23951860,2773,3800,833,2058,517,645,1294,1242,35,1,797
186785,25747860,23919368,25754297,23952057,2740,3800,644,1997,515,568,1121,1208,47,12,797
187786,25748084,23919380,25754494,23952254,2679,3800,444,2017,531,437,1005,1334,47,12,797
188787,25748236,23919388,25754691,23952451,3151,3800,177,2071,493,30,1415,1489,30,-1,798
189788,25748396,23919460,25754888,23952648,3118,3800,-136,2033,347,-224,1757,1279,30,-1,798
190789,25748600,23919468,25755085,23952845,2841,3800,-463,1961,85,80,2205,1187,37,3,799
191790,25748760,23919388,25755282,23953042,3134,3800,-800,1747,-179,568,2058,716,37,3,799
192791,25748952,23919396,25755479,23953239,2938,3800,-1165,1489,-387,759,1416,966,44,15,794
193792,25749200,23919432,25755676,23953436,2566,3800,-1556,1286,-526,481,871,1227,44,15,794
194793,25749444,23919468,25755873,23953633,2572,3800,-1961,1249,-627,154,261,1828,40,10,795
195794,25749600,23919500,25756070,23953830,3141,3800,-2309,1271,-728,-69,175,1734,40,10,795
196795,25749780,23919552,25756267,23954027,3000,3800,-2595,1160,-840,-218,244,1660,42,-1,799
197796,25749996,23919476,25756464,23954224,2768,3800,-2857,1031,-971,94,555,1780,42,-1,799
198797,25750184,23919496,25756661,23954421,2948,3800,-3115,730,-1111,383,921,1512,36,16,797
199798,25750404,23919508,25756858,23954618,2739,3800,-3345,613,-1217,569,601,1997,36,16,797
200799,25750688,23919528,25757055,23954815,2301,3800,-3510,356,-1249,430,446,1479,57,-1,799
201800,25750908,23919564,25757252,23955012,2693,3800,-3659,97,-1204,185,49,2227,57,-1,799
202801,25751052,23919596,25757449,23955209,3193,3800,-3820,20,-1104,-13,56,2709,37,6,798
203802,25751324,23919536,25757646,23955406,2361,3800,-3941,-36,-1019,220,243,2660,37,6,798
204803,25751516,23919536,25757843,23955603,2864,3800,-4034,-133,-978,842,684,2557,55,4,799
205804,25751712,23919556,25758040,23955800,2840,3800,-4096,-317,-958,1092,710,2669,55,4,799
206805,25752020,23919556,25758237,23955997,2094,3800,-4186,-361,-939,994,569,3174,60,-1,801
207806,25752260,23919580,25758434,23956194,2501,3800,-4253,-502,-938,221,352,3097,60,-1,801
208807,25752488,23919632,25758631,23956391,2563,3800,-4338,-375,-966,-621,-123,4241,45,-2,799
209808,25752688,23919608,25758828,23956588,2738,3800,-4460,-148,-1074,-598,441,4548,45,-2,799
210809,25752972,23919584,25759025,23956785,2176,3800,-4608,158,-1268,206,1111,4792,55,3,800
211810,25753248,23919632,25759222,23956982,2193,3800,-4792,565,-1413,893,673,5022,55,3,800
212811,25753488,23919644,25759419,23957179,2400,3800,-4940,759,-1565,964,920,4437,54,1,801
213812,25753772,23919692,25759616,23957376,2088,3800,-5070,869,-1662,305,-40,4882,54,1,801
214813,25753988,23919720,25759813,23957573,2505,3800,-5140,873,-1680,-611,-482,4409,44,2,801
215815,25754196,23919712,25760010,23957770,2551,3800,-5164,717,-1718,-659,-314,4090,44,2,801
216815,25754528,23919692,25760207,23957967,1718,3800,-5139,508,-1783,184,43,3940,60,12,802
217816,25754780,23919732,25760404,23958164,2195,3800,-5072,219,-1766,1088,94,3800,60,12,802
218817,25755016,23919728,25760601,23958361,2279,3800,-4984,-126,-1673,1311,-136,3822,47,14,800
219818,25755276,23919792,25760798,23958558,2102,3800,-4891,-462,-1503,685,-703,4120,47,14,800
220819,25755544,23919784,25760995,23958755,2022,3800,-4797,-695,-1323,185,-1042,4456,58,13,802
221820,25755800,23919784,25761192,23958952,2072,3800,-4698,-945,-1196,232,-931,4380,58,13,802
222821,25756048,23919768,25761389,23959149,2101,3800,-4593,-1214,-1098,657,-677,4680,39,-2,802
223822,25756304,23919792,25761586,23959346,2026,3800,-4475,-1362,-1003,885,-828,4958,39,-2,802
224823,25756540,23919804,25761783,23959543,2135,3800,-4361,-1480,-903,841,-1009,5359,40,6,802
225824,25756784,23919840,25761980,23959740,2065,3800,-4242,-1373,-778,649,-1253,5999,40,6,802
226825,25757092,23919856,25762177,23959937,1617,3800,-4140,-1198,-660,660,-1444,6290,41,13,802
227826,25757364,23919852,25762374,23960134,1810,3800,-3249,170,-450,450,-2854,17079,41,13,802
228827,25757564,23919836,25762571,23960331,2260,3800,-974,4367,-15,96,-4432,32767,63,8,803
229828,25757856,23919864,25762768,23960528,1644,3800,518,6126,128,1437,-851,7372,63,8,803
230829,25758112,23919880,25762965,23960725,1844,3800,837,5329,-12,1678,104,3012,44,1,801
231830,25758344,23919944,25763162,23960922,1980,3800,633,3452,-261,2018,-155,2042,44,1,801
232831,25758584,23919960,25763359,23961119,1912,3800,571,2137,-461,2142,-507,2397,36,15,805
233832,25758844,23919984,25763556,23961316,1760,3800,632,1219,-486,2047,-1094,2649,36,15,805
234833,25759100,23920000,25763753,23961513,1760,3800,665,672,-440,2273,-1262,3145,51,11,803
235834,25759340,23920044,25763950,23961710,1842,3800,626,23,-402,2173,-1203,2818,51,11,803
236835,25759608,23920068,25764147,23961907,1637,3800,591,-683,-402,1989,-1305,2788,45,7,803
237836,25759888,23920096,25764344,23962104,1527,3800,502,-1281,-488,1846,-1363,3234,45,7,803
238837,25760156,23920116,25764541,23962301,1571,3800,438,-1755,-625,1243,-1397,3558,58,10,804
239838,25760356,23920132,25764738,23962498,1995,3800,328,-1905,-767,820,-1471,4446,58,10,804
240839,25760624,23920120,25764935,23962695,1540,3800,233,-2007,-878,609,-1631,4420,31,5,805
241840,25760800,23920156,25765132,23962892,2125,3800,100,-1900,-921,384,-1769,5220,31,5,805
242841,25761020,23920208,25765329,23963089,1841,3800,-21,-1652,-906,248,-1856,5236,30,10,803
243842,25761272,23920248,25765526,23963286,1618,3800,-114,-1481,-861,144,-1879,5167,30,10,803
244843,25761508,23920268,25765723,23963483,1701,3800,-209,-1098,-790,-35,-2077,5672,29,2,802
245844,25761724,23920308,25765920,23963680,1818,3800,-302,-742,-701,-122,-2286,5346,29,2,802
246845,25761952,23920336,25766117,23963877,1731,3800,-390,-384,-616,-191,-2403,5222,42,3,804
247846,25762204,23920368,25766314,23964074,1558,3800,-430,-168,-508,-395,-2433,4754,42,3,804
248847,25762424,23920408,25766511,23964271,1749,3800,-453,20,-387,-342,-2431,4602,33,1,803
249848,25762656,23920464,25766708,23964468,1658,3800,-450,111,-258,-381,-2291,3994,33,1,803
250849,25762912,23920504,25766905,23964665,1483,3800,-426,55,-118,-327,-2007,3571,33,15,805
251850,25763160,23920524,25767102,23964862,1512,3800,-394,-49,35,-95,-1930,3308,33,15,805
252851,25763348,23920552,25767299,23965059,1892,3800,-369,-213,207,11,-2054,3112,49,9,804
253852,25763580,23920568,25767496,23965256,1601,3800,-348,-328,370,146,-2019,3165,49,9,804
254853,25763796,23920640,25767693,23965453,1694,3800,-331,-473,502,116,-1975,2784,49,19,805
255854,25763996,23920700,25767890,23965650,1794,3800,-297,-623,625,10,-2430,2875,49,19,805
256855,25764184,23920732,25768087,23965847,1874,3800,-222,-714,751,-360,-2867,2921,49,7,805
257856,25764412,23920724,25768284,23966044,1610,3800,-125,-764,863,-735,-2978,2986,49,7,805
258857,25764608,23920776,25768481,23966241,1812,3800,-35,-741,958,-858,-3051,3214,34,6,803
259858,25764808,23920796,25768678,23966438,1786,3800,28,-692,1041,-822,-3036,3192,34,6,803
260866,25765012,23920844,25768908,23966668,1774,3800,87,-663,1086,-795,-2544,3094,34,7,804
261860,25765164,23920888,25769105,23966865,2118,3800,148,-691,1090,-788,-1653,2945,34,7,804
262861,25765336,23920912,25769302,23967062,2005,3800,179,-808,1092,-592,-1330,2748,31,3,804
263862,25765484,23920952,25769499,23967259,2178,3800,165,-938,1120,-308,-1291,2608,31,3,804
264863,25765636,23920996,25769696,23967456,2174,3800,131,-1098,1179,-112,-1269,2473,38,16,802
265864,25765816,23921036,25769893,23967653,2006,3800,92,-1270,1259,-32,-1410,2462,38,16,802
266865,25765992,23921076,25770090,23967850,2041,3800,33,-1445,1346,119,-1498,2703,38,16,801
267866,25766140,23921108,25770287,23968047,2239,3800,-42,-1474,1433,363,-1563,3003,38,16,801
268867,25766308,23921112,25770484,23968244,2128,3800,-129,-1433,1521,625,-1760,3195,36,18,802
269868,25766516,23921136,25770681,23968441,1873,3800,-214,-1322,1619,741,-1979,3291,36,18,802
270869,25766676,23921168,25770878,23968638,2190,3800,-306,-1174,1716,882,-1896,3563,37,15,801
271870,25766836,23921252,25771075,23968835,2207,3800,-400,-1005,1797,1069,-1772,3539,37,15,801
272871,25767040,23921312,25771272,23969032,1930,3800,-485,-877,1845,1161,-1476,3539,34,16,803
273872,25767216,23921324,25771469,23969229,2115,3800,-561,-766,1840,1231,-1095,3510,34,16,803
274873,25767388,23921292,25771666,23969426,2151,3800,-637,-658,1791,1318,-970,3595,39,13,801
275874,25767596,23921328,25771863,23969623,1923,3800,-703,-470,1728,1413,-992,3778,39,13,801
276875,25767768,23921340,25772060,23969820,2160,3800,-747,-262,1665,1462,-968,3762,37,10,799
277876,25767924,23921408,25772257,23970017,2279,3800,-764,-107,1581,1406,-865,3614,37,10,799
278877,25768092,23921436,25772454,23970214,2217,3800,-756,-55,1468,1308,-734,3403,39,8,802
279878,25768280,23921456,25772651,23970411,2097,3800,-734,-65,1338,1327,-551,3312,39,8,802
280879,25768424,23921448,25772848,23970608,2396,3800,-707,-83,1201,1335,-436,3275,29,6,800
281880,25768604,23921480,25773045,23970805,2179,3800,-677,-74,1073,1235,-365,3252,29,6,800
282881,25768836,23921512,25773242,23971002,1840,3800,-649,-70,949,1131,-317,3216,38,18,802
283882,25769008,23921560,25773439,23971199,2227,3800,-620,-109,830,1037,-265,3200,38,18,802
284883,25769180,23921648,25773636,23971396,2239,3800,-600,-112,719,878,-248,3281,41,2,802
285884,25769384,23921632,25773833,23971593,2037,3800,-579,-142,617,759,-255,3248,41,2,802
286885,25769528,23921636,25774030,23971790,2435,3800,-562,-138,523,699,-247,3352,44,0,801
287886,25769684,23921664,25774227,23971987,2379,3800,-543,-110,456,688,-229,3372,44,0,801
288887,25769872,23921692,25774424,23972184,2184,3800,-526,-46,419,650,-158,3328,40,9,802
289888,25770068,23921752,25774621,23972381,2135,3800,-512,-29,391,560,-33,3286,40,9,802
290889,25770212,23921800,25774818,23972578,2485,3800,-480,-76,363,495,121,3217,36,15,799
291890,25770412,23921772,25775015,23972775,2134,3800,-450,-131,324,471,266,3299,36,15,799
292891,25770604,23921804,25775212,23972972,2188,3800,-405,-137,295,542,422,3219,22,20,798
293892,25770740,23921848,25775409,23973169,2565,3800,-372,-139,294,537,438,3331,22,20,798
294893,25770896,23921892,25775606,23973366,2458,3800,-349,-121,312,435,421,3384,31,8,802
295894,25771080,23921980,25775803,23973563,2290,3800,-340,-106,325,366,515,3511,31,8,802
296895,25771200,23922012,25776000,23973760,2725,3800,-329,-53,325,262,558,3578,42,18,800
297896,25771356,23921976,25776197,23973957,2519,3800,-310,24,311,128,608,3657,42,18,800
298897,25771500,23922024,25776394,23974154,2618,3800,-303,182,303,116,601,3897,43,20,801
299898,25771592,23922064,25776591,23974351,2990,3800,-291,330,294,175,774,3883,43,20,801
300899,25771764,23922152,25776788,23974548,2502,3800,-287,458,254,194,1153,3926,35,18,800
301900,25771996,23922196,25776985,23974745,2113,3800,-296,627,160,178,1495,4013,35,18,800
302901,25772144,23922212,25777182,23974942,2660,3800,-311,753,59,191,1612,3950,28,16,797
303902,25772296,23922180,25777379,23975139,2656,3800,-325,858,-17,353,1627,3977,28,16,797
304903,25772484,23922212,25777576,23975336,2436,3800,-362,944,-41,447,1495,4072,48,10,802
305904,25772652,23922232,25777773,23975533,2575,3800,-402,1034,-53,397,1574,3935,48,10,802
306905,25772784,23922288,25777970,23975730,2830,3800,-441,1044,-104,289,1632,3755,27,15,800
307906,25772932,23922348,25778167,23975927,2752,3800,-473,995,-166,198,1419,3827,27,15,800
308907,25773108,23922340,25778364,23976124,2587,3800,-526,1026,-207,228,1191,4160,23,3,799
309908,25773224,23922320,25778561,23976321,2999,3800,-597,1112,-229,196,1028,4202,23,3,799
310909,25773376,23922360,25778758,23976518,2795,3800,-686,1183,-249,96,1001,4321,42,17,799
311910,25773560,23922400,25778955,23976715,2601,3800,-792,1252,-312,34,1147,4568,42,17,799
312911,25773676,23922460,25779152,23976912,3063,3800,-345,2326,-330,72,729,13550,28,13,796
313912,25773808,23922496,25779349,23977109,2993,3800,751,4785,-213,176,416,21665,28,13,796
314913,25773976,23922488,25779546,23977306,2781,3800,1321,5693,-188,729,1675,4980,37,20,798
315914,25774080,23922460,25779743,23977503,3223,3800,1171,5040,-293,985,2408,2442,37,20,798
316915,25774224,23922492,25779940,23977700,2997,3800,788,3764,-437,1152,2380,1650,24,7,797
317916,25774408,23922524,25780137,23977897,2754,3800,468,2721,-553,1087,2132,1752,24,7,797
318917,25774556,23922548,25780334,23978094,3002,3800,194,1929,-589,990,1660,2031,26,12,796
319918,25774688,23922576,25780531,23978291,3131,3800,-110,1423,-574,1117,1337,2744,26,12,796
320919,25774896,23922516,25780728,23978488,2652,3800,-432,975,-533,959,1110,3094,26,13,799
321920,25775048,23922496,25780925,23978685,3024,3800,-553,799,-460,692,416,5744,26,13,799
322921,25775196,23922516,25781122,23978882,3072,3800,50,2238,-256,-30,-972,18955,40,-1,797
323922,25775384,23922560,25781319,23979079,2827,3800,719,3441,-141,136,413,10609,40,-1,797
324923,25775596,23922608,25781516,23979276,2671,3800,702,3237,-225,414,1273,2903,44,4,796
325924,25775780,23922616,25781713,23979473,2853,3800,270,2171,-362,445,786,2420,44,4,796
326925,25775956,23922584,25781910,23979670,2913,3800,-174,1320,-449,412,431,3039,45,-1,798
327926,25776196,23922568,25782107,23979867,2495,3800,-509,871,-454,247,107,3606,45,-1,798
328927,25776388,23922584,25782304,23980064,2798,3800,-743,649,-407,193,-263,4215,37,8,798
329928,25776568,23922620,25782501,23980261,2883,3800,-640,1045,-332,-205,-521,9081,37,8,798
330929,25776816,23922692,25782698,23980458,2436,3800,-177,1799,-263,-564,-273,11370,52,13,800
331930,25777020,23922708,25782895,23980655,2709,3800,45,1878,-319,-253,511,4655,52,13,800
332932,25777212,23922676,25783092,23980852,2787,3800,-51,1269,-426,-245,824,3123,54,8,798
333932,25777460,23922656,25783289,23981049,2416,3800,-230,537,-485,-197,706,3312,54,8,798
334933,25777676,23922668,25783486,23981246,2609,3800,-346,89,-479,-226,290,3850,42,3,798
335934,25777876,23922712,25783683,23981443,2708,3800,-388,-169,-421,-298,83,4435,42,3,798
336935,25778128,23922784,25783880,23981640,2360,3800,-328,-67,-368,-182,102,6014,44,7,799
337936,25778352,23922796,25784077,23981837,2524,3800,-102,135,-347,-265,484,7441,44,7,799
338937,25778552,23922760,25784274,23982034,2675,3800,94,199,-378,-369,989,5568,49,10,799
339938,25778764,23922752,25784471,23982231,2594,3800,126,-45,-451,-439,1321,4074,49,10,799
340939,25779016,23922776,25784668,23982428,2321,3800,63,-452,-534,-463,1560,3891,40,7,800
341940,25779240,23922804,25784865,23982625,2485,3800,-49,-634,-599,-461,1324,4524,40,7,800
342941,25779424,23922836,25785062,23982822,2742,3800,-161,-771,-631,-512,932,4577,35,13,799
343951,25779664,23922840,25785292,23983052,2389,3800,-272,-678,-665,-471,338,5297,35,13,799
344943,25779872,23922784,25785489,23983249,2585,3800,-340,-641,-710,-517,-112,4950,51,15,800
345944,25780084,23922764,25785686,23983446,2554,3800,-356,-621,-772,-399,-251,5257,51,15,800
346945,25780344,23922812,25785883,23983643,2228,3800,-306,-501,-847,-230,-83,6079,54,2,797
347946,25780572,23922828,25786080,23983840,2415,3800,-206,-548,-905,-172,15,5339,54,2,797
348947,25780776,23922888,25786277,23984037,2563,3800,-164,-630,-956,-128,-9,4816,36,13,800
349948,25781032,23922888,25786474,23984234,2213,3800,-159,-866,-982,-151,2,4224,36,13,800
350949,25781244,23922864,25786671,23984431,2482,3800,-159,-1089,-1009,-125,47,4340,36,1,800
351950,25781476,23922844,25786868,23984628,2343,3800,-150,-1283,-1059,-174,161,4146,36,1,800
352951,25781736,23922872,25787065,23984825,2141,3800,-131,-1512,-1110,-152,232,4180,53,5,801
353952,25781964,23922912,25787262,23985022,2329,3800,-129,-1595,-1169,-125,286,4465,53,5,801
354953,25782184,23922964,25787459,23985219,2370,3800,-115,-1774,-1243,-226,315,4236,56,12,801
355954,25782436,23922976,25787656,23985416,2146,3800,-93,-1828,-1296,-137,81,4563,56,12,801
356955,25782684,23922988,25787853,23985613,2150,3800,-57,-1943,-1307,-99,73,4247,45,12,799
357956,25782900,23922984,25788050,23985810,2343,3800,-17,-2024,-1312,-170,144,4389,45,12,799
358957,25783132,23923036,25788247,23986007,2228,3800,32,-2062,-1322,-308,169,4393,43,2,801
359958,25783436,23923092,25788444,23986204,1732,3800,101,-2116,-1315,-432,-6,4358,43,2,801
360959,25783680,23923144,25788641,23986401,2088,3800,160,-2045,-1289,-457,-97,4705,37,21,801
361960,25783924,23923204,25788838,23986598,2068,3800,232,-1986,-1232,-503,-168,4561,37,21,801
362961,25784236,23923224,25789035,23986795,1593,3800,314,-1873,-1151,-603,-153,4751,55,19,803
363962,25784512,23923284,25789232,23986992,1785,3800,393,-1786,-1089,-784,166,4686,55,19,803
364963,25784788,23923320,25789429,23987189,1751,3800,467,-1646,-1096,-900,687,4729,66,12,802
365964,25785060,23923372,25789626,23987386,1744,3800,519,-1488,-1143,-918,726,4774,66,12,802
366965,25785360,23923468,25789823,23987583,1525,3800,554,-1347,-1186,-963,693,4687,54,11,803
367966,25785656,23923560,25790020,23987780,1507,3800,552,-1173,-1179,-932,-92,4879,54,11,803
368967,25785960,23923640,25790217,23987977,1410,3800,530,-1049,-1152,-1024,-290,4507,53,20,803
369968,25786248,23923724,25790414,23988174,1471,3800,486,-958,-1148,-1168,-220,4329,53,20,803
370969,25786540,23923852,25790611,23988371,1406,3800,413,-961,-1144,-1342,33,3937,59,16,804
371970,25786836,23923972,25790808,23988568,1338,3800,332,-1139,-1117,-1318,244,3491,59,16,804
372971,25787116,23924104,25791005,23988765,1403,3800,254,-1341,-1074,-1308,320,3262,48,31,805
373972,25787420,23924260,25791202,23988962,1206,3800,187,-1648,-1022,-1367,430,2969,48,31,805
374973,25787720,23924436,25791399,23989159,1186,3800,112,-1930,-975,-1432,552,2990,50,34,806
375974,25788000,23924604,25791596,23989356,1276,3800,33,-2265,-917,-1518,316,2777,50,34,806
376975,25788304,23924788,25791793,23989553,1079,3800,-48,-2517,-828,-1494,-136,2872,70,33,806
377976,25788612,23924980,25791990,23989750,1006,3800,-105,-2736,-700,-1456,-975,2823,70,33,806
378977,25788876,23925204,25792187,23989947,1253,3800,-124,-3007,-542,-1413,-1349,2787,50,57,806
379978,25789140,23925472,25792384,23990144,1223,3800,-99,-3262,-382,-1359,-1325,2749,50,57,806
380979,25789404,23925724,25792581,23990341,1195,3800,-46,-3540,-241,-1314,-1139,2719,47,57,806
381980,25789696,23926016,25792778,23990538,979,3800,9,-3714,-118,-1226,-949,2988,47,57,806
382981,25789960,23926316,25792975,23990735,1124,3800,50,-3877,-16,-1102,-190,3012,52,60,808
383982,25790188,23926628,25793172,23990932,1337,3800,57,-3906,54,-858,500,3373,52,60,808
384983,25790456,23926976,25793369,23991129,1056,3800,0,-3880,110,-756,1040,3552,49,69,809
385984,25790708,23927348,25793566,23991326,1132,3800,-81,-3833,142,-715,1124,3460,49,69,809
386985,25790956,23927720,25793763,23991523,1135,3800,-98,-3909,175,-678,562,3079,56,80,808
387986,25791232,23928104,25793960,23991720,926,3800,-35,-4073,226,-548,129,2845,56,80,808
388987,25791472,23928492,25794157,23991917,1132,3800,49,-4235,302,-344,52,2878,41,78,809
389988,25791704,23928888,25794354,23992114,1168,3800,111,-4342,408,-198,196,2875,41,78,809
390989,25791968,23929368,25794551,23992311,940,3800,148,-4417,532,-2,273,2924,40,77,809
391990,25792224,23929808,25794748,23992508,964,3800,189,-4540,629,101,926,2641,40,77,809
392991,25792496,23930248,25794945,23992705,831,3800,221,-4703,670,150,1648,2618,60,93,809
393992,25792792,23930708,25795142,23992902,638,3800,245,-4901,691,228,1724,2486,60,93,809
394993,25793084,23931140,25795339,23993099,621,3800,264,-5080,741,325,1844,2557,53,80,810
395994,25793340,23931556,25795536,23993296,822,3800,270,-5233,810,485,1876,2554,53,80,810
396995,25793656,23932032,25795733,23993493,394,3800,276,-5344,909,650,1670,2508,65,92,811
397996,25793932,23932492,25795930,23993690,611,3800,279,-5447,1017,658,1520,2482,65,92,811
398997,25794180,23932884,25796127,23993887,763,3800,340,-5658,1097,611,1550,2129,43,93,811
399998,25794488,23933312,25796324,23994084,339,3800,429,-5868,1155,660,1454,2223,43,93,811
400999,25794748,23933776,25796521,23994281,613,3800,521,-5953,1231,717,1542,2527,69,80,810
402000,25794996,23934260,25796718,23994478,665,3800,562,-5972,1310,669,1818,2768,69,80,810
403001,25795232,23934776,25796915,23994675,723,3800,598,-5865,1365,523,1979,2779,48,89,810
404002,25795492,23935292,25797112,23994872,546,3800,632,-5800,1413,450,1965,2671,48,89,810
405003,25795740,23935796,25797309,23995069,599,3800,667,-5671,1479,626,1683,2972,57,95,811
406004,25795952,23936304,25797506,23995266,817,3800,686,-5502,1592,771,1422,3018,57,95,811
407005,25796180,23936892,25797703,23995463,705,3800,719,-5374,1738,801,1327,2758,58,126,812
408006,25796424,23937528,25797900,23995660,584,3800,748,-5211,1900,854,981,2962,58,126,812
409007,25796628,23938144,25798097,23995857,831,3800,776,-4957,2097,1014,1015,3032,36,125,811
410008,25796896,23938800,25798294,23996054,400,3800,815,-4710,2322,1138,1283,2816,36,125,811
411009,25797116,23939480,25798491,23996251,691,3800,858,-4479,2559,1290,1356,2862,41,116,813
412010,25797336,23940116,25798688,23996448,681,3800,904,-4239,2826,1547,1237,2821,41,116,813
413011,25797524,23940928,25798885,23996645,885,3800,937,-3968,3122,1716,1074,2820,38,133,812
414012,25797716,23941656,25799082,23996842,863,3800,978,-3722,3406,1825,695,2690,38,133,812
415013,25797888,23942436,25799279,23997039,999,3800,1003,-3420,3653,1867,362,2943,38,139,814
416014,25798088,23943280,25799476,23997236,822,3800,1016,-3081,3864,2160,129,2828,38,139,814
417015,25798268,23944076,25799673,23997433,955,3800,1013,-2697,4071,2495,0,2988,46,145,814
418016,25798456,23945064,25799870,23997630,910,3800,1013,-2275,4296,2696,-122,2993,46,145,814
419017,25798624,23946020,25800067,23997827,1048,3800,1006,-1830,4483,2777,-165,3068,50,159,814
420018,25798812,23946956,25800264,23998024,927,3800,1000,-1402,4623,2942,-264,2935,50,159,814
421019,25799004,23947996,25800461,23998221,904,3800,1024,-1004,4724,3159,-212,2711,38,192,815
422020,25799164,23948968,25800658,23998418,1121,3800,1062,-609,4795,3230,-428,2731,38,192,815
423021,25799368,23949888,25800855,23998615,843,3800,1130,-256,4823,3253,-364,2583,55,196,814
424022,25799528,23951072,25801052,23998812,1134,3800,1216,167,4830,3158,-559,2813,55,196,814
425023,25799716,23952168,25801249,23999009,964,3800,1246,802,4870,3033,-1420,3571,58,187,813
426024,25799924,23953196,25801446,23999206,834,3800,1215,1654,4898,2996,-1827,3956,58,187,813
427032,25800124,23954228,25801676,23999436,898,3800,1166,2552,4896,2848,-2201,3865,37,200,815
428026,25800304,23955340,25801873,23999633,1030,3800,1124,3414,4869,2677,-2775,3671,37,200,815
429027,25800508,23956476,25802070,23999830,878,3800,1106,4148,4798,2509,-3135,3413,58,199,816
430028,25800704,23957608,25802267,24000027,928,3800,1090,4841,4710,2430,-3519,3375,58,199,816
431029,25800864,23958652,25802464,24000224,1170,3800,1069,5519,4613,2380,-3927,3196,59,204,815
432030,25801096,23959672,25802661,24000421,705,3800,1038,6164,4515,2286,-4280,3093,59,204,815
433031,25801272,23960688,25802858,24000618,1064,3800,1036,6707,4396,2291,-4311,2675,41,205,816
434032,25801440,23961728,25803055,24000815,1127,3800,1057,7036,4217,2459,-4085,2016,41,205,816
435033,25801644,23962744,25803252,24001012,899,3800,1087,7190,3958,2539,-3830,1519,52,203,815
436034,25801828,23963776,25803449,24001209,1031,3800,1126,7157,3620,2579,-3584,896,52,203,815
437035,25801980,23964812,25803646,24001406,1251,3800,1193,6874,3208,2498,-2667,226,57,208,815
438036,25802180,23965824,25803843,24001603,949,3800,1265,6444,2744,2510,-2155,-129,57,208,815
439037,25802368,23966828,25804040,24001800,1029,3800,1311,6003,2241,2710,-1393,-279,54,199,815
440038,25802560,23967944,25804237,24001997,1006,3800,1313,5602,1658,2593,-403,-281,54,199,815
441039,25802740,23968964,25804434,24002194,1089,3800,1269,5293,956,2324,512,-71,35,195,815
442040,25802912,23969972,25804631,24002391,1151,3800,1140,4924,38,1938,1934,-420,35,195,815
443041,25803088,23970900,25804828,24002588,1135,3800,936,4412,-1072,1497,2715,-789,35,204,815
444042,25803264,23971972,25805025,24002785,1144,3800,627,3926,-2207,1095,2572,-402,35,204,815
445043,25803460,23972836,25805222,24002982,1021,3800,270,3481,-3156,762,1704,-434,51,197,814
446044,25803620,23973928,25805419,24003179,1262,3800,-143,3066,-3799,665,451,-98,51,197,814
447045,25803760,23974804,25805616,24003376,1412,3800,-579,2810,-4142,610,-863,447,37,194,813
448046,25803928,23975704,25805813,24003573,1251,3800,-1029,2629,-4335,652,-1272,670,37,194,813
449047,25804108,23976748,25806010,24003770,1183,3800,-1402,2410,-4435,706,-896,569,42,203,814
450048,25804236,23977872,25806207,24003967,1539,3800,-1659,1981,-4291,787,-1133,384,42,203,814
451049,25804388,23979140,25806404,24004164,1409,3800,-1902,1589,-3899,730,-1676,786,50,215,815
452050,25804512,23980204,25806601,24004361,1617,3800,-2114,1188,-3281,345,-1610,747,50,215,815
453051,25804620,23981320,25806798,24004558,1757,3800,-2294,700,-2477,469,-1540,781,26,223,814
454052,25804756,23982484,25806995,24004755,1608,3800,-2488,174,-1620,880,-1040,672,26,223,814
455053,25804864,23983472,25807192,24004952,1823,3800,-2706,-470,-751,962,-555,500,27,217,814
456054,25804972,23984384,25807389,24005149,1863,3800,-2901,-1173,146,1096,-593,476,27,217,814
457055,25805124,23985240,25807586,24005346,1607,3800,-3021,-2042,1055,929,-373,98,29,180,812
458056,25805252,23985868,25807783,24005543,1789,3800,-3171,-2622,1957,637,-393,1662,29,180,812
459057,25805380,23986416,25807980,24005740,1819,3800,-4152,-1575,2818,724,-964,7935,22,127,810
460058,25805464,23986896,25808177,24005937,2145,3800,-5718,481,3674,-200,-2568,8897,22,127,810
461059,25805592,23987284,25808374,24006134,1900,3800,-7256,2861,4263,-577,-422,10240,37,89,808
462060,25805680,23987584,25808571,24006331,2199,3800,-8895,5482,4666,-672,-47,12361,37,89,808
463061,25805760,23987796,25808768,24006528,2300,3800,-10000,7260,4928,-2313,-1210,8542,21,66,805
464062,25805880,23988012,25808965,24006725,2085,3800,-10368,7551,4966,-4403,-1649,5008,21,66,805
465063,25805964,23988212,25809162,24006922,2361,3800,-10623,7166,4713,-5909,-1829,5208,31,51,803
466064,25806028,23988380,25809359,24007119,2544,3800,-11107,6920,4153,-7142,-3034,5541,31,51,803
467065,25806136,23988488,25809556,24007316,2309,3800,-11739,6715,3344,-8139,-3444,5666,8,40,802
468066,25806200,23988636,25809753,24007513,2643,3800,-12345,6514,2325,-8444,-3768,6215,8,40,802
469067,25806236,23988764,25809950,24007710,2890,3800,-8494,6949,1269,-4855,-11878,32767,12,20,799
470068,25806364,23988932,25810147,24007907,2346,3800,4356,6995,-269,2807,-24955,32767,12,20,799
471069,25806428,23989028,25810344,24008104,2805,3800,11414,7509,-1577,-2518,-15846,19619,30,24,799
472070,25806484,23989104,25810541,24008301,2917,3800,9985,7385,-1844,-5290,-6806,5281,30,24,799
473071,25806608,23989216,25810738,24008498,2525,3800,5976,7100,-1468,-3903,-5949,5085,20,35,800
474072,25806672,23989364,25810935,24008695,2960,3800,3740,4945,-1181,-4199,-4308,-1915,20,35,800
475073,25806708,23989576,25811132,24008892,3207,3800,3277,1675,-1484,-3777,-3021,-4201,28,32,798
476074,25806808,23989772,25811329,24009089,2849,3800,3360,-2549,-1909,-3153,-4089,-6575,28,32,798
477075,25806876,23989948,25811526,24009286,3107,3800,2572,-5617,-1607,-1286,-5949,-1102,21,41,796
478076,25806928,23990092,25811723,24009483,3272,3800,1053,-7306,-701,192,-7420,-392,21,41,796
479077,25807016,23990284,25811920,24009680,3096,3800,5,-9693,70,318,-6118,-3673,32,51,798
480078,25807124,23990488,25812117,24009877,3011,3800,-256,-12818,580,808,-5753,-4189,32,51,798
481079,25807196,23990712,25812314,24010074,3292,3800,-85,-16208,1051,2093,-5475,-4319,28,50,797
482080,25807316,23990972,25812511,24010271,3026,3800,-31,-18868,1579,3225,-5066,-2267,28,50,797
483081,25807480,23991200,25812708,24010468,2767,3800,-190,-20670,2171,3636,-4605,-377,38,53,796
484082,25807632,23991456,25812905,24010665,2863,3800,-624,-21447,2639,3947,-4121,3466,38,53,796
485083,25807816,23991712,25813102,24010862,2669,3800,-1090,-21290,2875,3874,-3494,5505,30,63,798
486084,25808080,23992016,25813299,24011059,2141,3800,-1352,-20841,2950,3467,-3061,5983,30,63,798
487085,25808324,23992336,25813496,24011256,2246,3800,-1447,-20073,2898,2731,-2516,7344,50,59,801
488086,25808564,23992696,25813693,24011453,2253,3800,-1474,-19096,2765,1626,-1572,8197,50,59,801
489087,25808836,23993040,25813890,24011650,2021,3800,-1324,-17830,2536,718,-1333,8687,49,69,803
490088,25809100,23993452,25814087,24011847,2043,3800,-1027,-16282,2340,301,-1766,9234,49,69,803
491089,25809400,23993808,25814284,24012044,1774,3800,-747,-14289,2130,-343,-1065,10710,70,80,803
492090,25809692,23994196,25814481,24012241,1783,3800,-491,-12072,1809,-940,45,11115,70,80,803
493091,25809940,23994572,25814678,24012438,2037,3800,-112,-9927,1472,-1391,379,10347,57,84,806
494092,25810220,23995008,25814875,24012635,1801,3800,445,-7949,1240,-1961,377,9861,57,84,806
495093,25810500,23995488,25815072,24012832,1765,3800,1112,-6207,1092,-2280,391,9401,53,83,807
496094,25810740,23995916,25815269,24013029,1997,3800,1785,-4536,943,-2189,774,9024,53,83,807
497095,25811000,23996344,25815466,24013226,1845,3800,2452,-2945,780,-1683,1241,8132,48,82,806
498096,25811252,23996772,25815663,24013423,1872,3800,3165,-1657,628,-1420,1329,6662,48,82,806
499097,25811520,23997176,25815860,24013620,1742,3800,3919,-887,538,-1320,1458,5395,47,89,805
500098,25811784,23997608,25816057,24013817,1738,3800,4654,-372,521,-940,1740,4797,47,89,805
501099,25812040,23998056,25816254,24014014,1763,3800,5356,-112,528,-139,2266,3477,56,86,805
502100,25812336,23998448,25816451,24014211,1470,3800,6015,-138,579,667,2940,2123,56,86,805
503101,25812588,23998812,25816648,24014408,1722,3800,6585,-484,686,1154,3783,1102,68,86,807
504102,25812852,23999224,25816845,24014605,1618,3800,7053,-1000,775,1384,4690,849,68,86,807
505103,25813124,23999616,25817042,24014802,1536,3800,7472,-1426,858,1551,5227,902,66,78,806
506104,25813420,24000056,25817239,24014999,1343,3800,7888,-1822,889,1788,5737,642,66,78,806
507105,25813644,24000500,25817436,24015196,1782,3800,8238,-2173,861,2175,6512,702,47,85,807
508106,25813888,24000952,25817633,24015393,1637,3800,8516,-2476,844,2159,6985,619,47,85,807
509107,25814104,24001372,25817830,24015590,1805,3800,8672,-2649,839,1729,7115,1076,57,89,807
510115,25814272,24001824,25818060,24015820,2132,3800,8659,-2393,941,1425,6218,2129,57,89,807
511109,25814480,24002324,25818257,24016017,1878,3800,8585,-2038,1224,1266,5108,1887,35,92,807
512110,25814728,24002860,25818454,24016214,1607,3800,8540,-1752,1460,936,4822,1434,35,92,807
513111,25814932,24003428,25818651,24016411,1879,3800,8483,-1383,1663,552,3680,1966,58,98,806
514112,25815172,24003936,25818848,24016608,1636,3800,8340,-658,1947,-17,2566,2959,58,98,806
515113,25815384,24004548,25819045,24016805,1805,3800,8122,342,2262,-577,2187,3400,41,107,807
516114,25815612,24005152,25819242,24017002,1693,3800,7854,1504,2551,-444,1943,3679,41,107,807
517115,25815856,24005760,25819439,24017199,1572,3800,7530,2879,2819,314,1678,4072,42,101,808
518116,25816136,24006404,25819636,24017396,1312,3800,7129,4257,3101,1104,1509,3990,42,101,808
519117,25816388,24007040,25819833,24017593,1463,3800,6711,5459,3411,1497,1633,3375,65,119,809
520118,25816616,24007764,25820030,24017790,1600,3800,6321,6302,3680,1427,1998,2274,65,119,809
521119,25816868,24008476,25820227,24017987,1427,3800,5964,6721,3835,1297,2329,1023,63,138,810
522107,25817084,24009272,25820424,24018184,1644,3549,5563,6773,3852,1630,2881,-90,63,138,810
523108,25817304,24010196,25820621,24018381,1609,2431,5120,6578,3752,2242,3574,-935,65,133,810
524109,25817544,24010948,25820818,24018578,1466,3265,4651,6203,3601,2456,3524,-1461,65,133,810
525110,25817796,24011856,25821015,24018775,1367,1978,4227,5727,3476,2438,3092,-1849,63,158,812
526111,25818004,24012656,25821212,24018972,1638,2389,3827,5222,3396,2420,2820,-1919,63,158,812
527113,25818244,24013568,25821409,24019169,1420,1377,3442,4755,3354,2468,2430,-1836,53,158,813
528113,25818488,24014532,25821606,24019366,1375,716,3010,4389,3295,2574,2258,-1888,53,158,813
529114,25818760,24015288,25821803,24019563,1168,1771,2548,4064,3168,2578,2222,-1943,56,166,816
530115,25819044,24016180,25822000,24019760,1055,616,2090,3775,2979,2513,1938,-1742,56,166,816
531116,25819304,24016932,25822197,24019957,1178,1248,1635,3590,2747,2375,1752,-1448,64,143,822
532118,25819552,24017788,25822394,24020154,1231,309,1184,3458,2473,2154,1642,-1417,64,143,822
533119,25819812,24018660,25822591,24020351,1129,-87,736,3376,2166,1915,1235,-1486,49,144,822
534119,25820092,24019388,25822788,24020548,968,579,261,3336,1899,1798,462,-1251,49,144,822
535120,25820328,24020072,25822985,24020745,1226,641,-262,3490,1695,1498,-528,-703,55,151,822
536121,25820568,24020716,25823182,24020942,1183,695,-772,3618,1446,1253,-640,-1238,55,151,822
537122,25820744,24021424,25823379,24021139,1592,70,-1154,3424,1069,1246,194,-2543,38,137,823
538123,25820940,24022064,25823576,24021336,1469,301,-1446,3018,636,1526,533,-2802,38,137,823
539124,25821128,24022720,25823773,24021533,1523,-1,-1722,2656,274,1712,130,-2681,47,132,822
540125,25821356,24023288,25823970,24021730,1260,385,-1980,2322,-10,1316,-360,-2814,47,132,822
541126,25821544,24023848,25824167,24021927,1514,275,-2243,2217,-257,979,-808,-1963,57,116,822
542127,25821756,24024564,25824364,24022124,1359,-928,-2565,2394,-395,900,-1582,-1168,57,116,822
543128,25822028,24025024,25824561,24022321,951,556,-2841,2636,-409,1072,-1820,-1576,55,126,823
544130,25822252,24025680,25824758,24022518,1240,-871,-3027,2736,-374,1067,-1591,-1876,55,126,823
545130,25822480,24026168,25824955,24022715,1201,50,-3143,2727,-314,1058,-1373,-1860,55,94,819
546131,25822700,24026652,25825152,24022912,1242,-52,-3187,2839,-253,1135,-985,-1638,55,94,819
547132,25822888,24027164,25825349,24023109,1446,-365,-3140,2941,-182,1000,-960,-1989,45,97,821
548133,25823128,24027576,25825546,24023306,1102,164,-3022,2991,-87,917,-1115,-2074,45,97,821
549134,25823320,24027996,25825743,24023503,1405,15,-2901,3095,24,727,-1045,-1759,35,93,823
550136,25823520,24028464,25825940,24023700,1354,-405,-2855,3355,116,581,-826,-1185,35,93,823
551136,25823716,24028872,25826137,24023897,1380,-124,-2874,3661,160,595,-656,-908,42,82,824
552137,25823912,24029236,25826334,24024094,1381,77,-2897,3860,116,669,-227,-1366,42,82,824
553138,25824108,24029520,25826531,24024291,1382,538,-2945,3857,-10,879,63,-1574,50,73,822
554139,25824264,24029776,25826728,24024488,1650,686,-3064,3785,-190,1002,404,-1494,50,73,822
555140,25824472,24030040,25826925,24024685,1321,605,-3235,3558,-428,1160,1126,-1792,38,42,822
556141,25824692,24030264,25827122,24024882,1236,842,-3447,3285,-704,1455,1581,-1849,38,42,822
557142,25824928,24030440,25827319,24025079,1120,1151,-3699,2926,-949,1655,1716,-1927,39,46,819
558143,25825176,24030628,25827516,24025276,1023,1079,-3997,2571,-1117,1726,1711,-1644,39,46,819
559144,25825404,24030828,25827713,24025473,1135,1001,-4379,2298,-1170,1683,1298,-978,42,47,821
560145,25825640,24031000,25827910,24025670,1068,1186,-4793,2105,-1154,1574,1420,-927,42,47,821
561146,25825860,24031168,25828107,24025867,1158,1223,-5181,1866,-1148,1324,1814,-1089,44,37,821
562147,25826116,24031336,25828304,24026064,908,1235,-5521,1464,-1147,951,1927,-1285,44,37,821
563148,25826336,24031480,25828501,24026261,1123,1407,-5865,1002,-1126,672,1962,-1116,43,37,821
564150,25826524,24031612,25828698,24026458,1328,1510,-6256,512,-1117,538,2349,-1030,43,37,821
565150,25826728,24031780,25828895,24026655,1225,1296,-6682,25,-1143,564,2615,-847,47,25,821
566151,25826912,24031932,25829092,24026852,1356,1415,-7123,-476,-1199,574,2417,-765,47,25,821
567152,25827108,24032096,25829289,24027049,1282,1354,-7586,-954,-1240,485,2251,-494,44,23,818
568153,25827288,24032244,25829486,24027246,1389,1474,-8092,-1389,-1296,436,2279,-110,44,23,818
569154,25827436,24032408,25829683,24027443,1612,1388,-8646,-1723,-1403,511,1974,350,36,28,819
570155,25827644,24032568,25829880,24027640,1232,1429,-9233,-2007,-1536,701,1209,572,36,28,819
571156,25827804,24032732,25830077,24027837,1549,1417,-9856,-2280,-1657,969,-87,852,44,32,819
572157,25827992,24032904,25830274,24028034,1378,1377,-10538,-2458,-1729,1260,-986,1600,44,32,819
573158,25828160,24033076,25830471,24028231,1516,1387,-11762,-1689,-1621,1494,-2759,5307,22,26,819
574159,25828340,24033244,25830668,24028428,1450,1424,-13066,-816,-1424,1161,-4172,3941,22,26,819
575160,25828484,24033416,25830865,24028625,1698,1409,-13957,-516,-1350,907,-4053,2722,37,42,819
576161,25828616,24033588,25831062,24028822,1802,1419,-14688,-522,-1302,957,-4822,3475,37,42,819
577162,25828752,24033764,25831259,24029019,1804,1402,-15478,-491,-1231,1235,-5494,3535,31,24,817
578163,25828872,24033936,25831456,24029216,1939,1437,-16162,-582,-1175,1487,-5713,3039,31,24,817
579164,25829004,24034060,25831653,24029413,1893,1768,-16610,-819,-1160,1870,-5520,2822,14,31,815
580165,25829164,24034216,25831850,24029610,1735,1585,-16932,-1274,-1239,2142,-5726,2840,14,31,815
581166,25829308,24034352,25832047,24029807,1858,1736,-15402,208,-927,2012,-9936,11424,29,25,816
582167,25829460,24034468,25832244,24030004,1829,1897,-5560,19992,1018,709,-30786,32767,29,25,816
583168,25829604,24034628,25832441,24030201,1902,1637,5396,32297,2427,5796,-14983,32767,39,22,816
584169,25829788,24034776,25832638,24030398,1659,1733,8025,32297,2295,8232,-191,-7062,39,22,816
585170,25829932,24034936,25832835,24030595,1932,1673,6549,29997,1556,7475,-780,-10730,28,39,814
586171,25830116,24035088,25833032,24030792,1689,1742,4675,21221,950,7287,-2592,-12633,28,39,814
587172,25830268,24035260,25833229,24030989,1909,1627,4027,15950,740,6031,-2000,-9336,26,40,816
588173,25830408,24035408,25833426,24031186,2010,1798,3295,12308,591,5543,-983,-6943,26,40,816
589174,25830564,24035560,25833623,24031383,1929,1792,2333,9289,237,5106,-1549,-6443,22,30,815
590175,25830736,24035700,25833820,24031580,1840,1891,1217,5889,-192,2925,-1232,-5275,22,30,815
591176,25830888,24035812,25834017,24031777,1986,2102,389,2701,-776,1416,-1576,-4712,38,31,814
592177,25831024,24035956,25834214,24031974,2112,1925,-299,-524,-1404,381,-2447,-4369,38,31,814
593186,25831188,24036080,25834444,24032204,1967,2096,-873,-3489,-2054,-2198,-1262,-2801,17,31,814
594180,25831356,24036224,25834641,24032401,1956,1993,-1471,-6447,-2887,-4794,-552,-2047,17,31,814
595180,25831508,24036356,25834838,24032598,2076,2096,-2038,-8800,-3837,-5743,-1280,934,39,33,813
596182,25831704,24036504,25835035,24032795,1802,2017,-1538,-10545,-4296,-9041,-4388,12214,39,33,813
597183,25831848,24036668,25835232,24032992,2151,1931,-480,-10755,-4194,-9601,-6092,18696,25,41,814
598184,25831996,24036852,25835429,24033189,2148,1811,-656,-9288,-3992,-7956,-6078,10296,25,41,814
599184,25832156,24037136,25835626,24033386,2090,1147,-1471,-7762,-3719,-8339,-5804,8562,39,39,813
600186,25832352,24037332,25835823,24033583,1866,1697,-2104,-6496,-3372,-8653,-5103,8750,39,39,813
601186,25832520,24037484,25836020,24033780,2055,1991,-2267,-5580,-2983,-9283,-3968,8233,23,43,813
602187,25832708,24037668,25836217,24033977,1935,1795,-2293,-4560,-2622,-8958,-3137,8982,23,43,813
603188,25832940,24037852,25836414,24034174,1644,1801,-2250,-3642,-2258,-8677,-2550,7877,26,38,816
604189,25833124,24038044,25836611,24034371,1951,1752,-2152,-2873,-1815,-8453,-2039,7855,26,38,816
605191,25833304,24038232,25836808,24034568,1984,1780,-2040,-2227,-1245,-7513,-1845,7457,43,43,815
606191,25833512,24038452,25837005,24034765,1805,1569,-1915,-1902,-522,-6548,-1277,6348,43,43,815
607192,25833708,24038700,25837202,24034962,1881,1372,-1748,-1784,351,-5430,-1039,5499,43,48,815
608193,25833908,24038848,25837399,24035159,1856,2017,-1527,-2107,1298,-4280,-828,3959,43,48,815
609195,25834128,24039064,25837596,24035356,1721,1583,-1252,-2676,2239,-3379,-165,3489,52,39,817
610195,25834356,24039340,25837793,24035553,1658,1173,-956,-3392,3138,-2402,706,2839,52,39,817
611197,25834556,24039568,25837990,24035750,1833,1459,-696,-4142,3971,-1405,1297,2653,55,47,814
612198,25834760,24039800,25838187,24035947,1805,1417,-459,-4897,4737,-822,1779,2719,55,47,814
613198,25834952,24040012,25838384,24036144,1883,1535,-224,-5563,5391,-142,2406,3139,47,52,819
614200,25835116,24040236,25838581,24036341,2073,1448,12,-6001,5863,374,2993,3652,47,52,819
615200,25835304,24040460,25838778,24036538,1927,1435,292,-6274,6157,607,3487,3940,29,38,817
616201,25835484,24040692,25838975,24036735,1986,1369,631,-6464,6300,808,3313,4168,29,38,817
617202,25835684,24040872,25839172,24036932,1860,1700,1044,-6488,6340,680,2949,4599,34,46,816
618203,25835844,24041032,25839369,24037129,2127,1841,1506,-6296,6306,534,2513,5270,34,46,816
619204,25836048,24041200,25839566,24037326,1849,1803,1950,-5869,6160,361,1961,5591,26,44,816
620206,25836220,24041400,25839763,24037523,2061,1601,2395,-5348,5923,-57,827,5862,26,44,816
621207,25836364,24041664,25839960,24037720,2260,1170,2792,-4747,5544,-581,-239,6048,29,38,813
622208,25836524,24041944,25840157,24037917,2177,1034,3073,-4098,4978,-853,-821,5887,29,38,813
623208,25836684,24042196,25840354,24038114,2194,1184,3230,-3430,4357,-998,-1459,5869,26,56,814
624209,25836820,24042452,25840551,24038311,2371,1132,3299,-2757,3791,-937,-2167,5897,26,56,814
625210,25836972,24042732,25840748,24038508,2292,944,3341,-2082,3316,-722,-2713,5666,38,46,816
626211,25837088,24043032,25840945,24038705,2553,774,3410,-1538,2902,-552,-2902,4988,38,46,816
627212,25837228,24043312,25841142,24038902,2430,862,3475,-1338,2462,-285,-2521,3797,47,63,815
628214,25837428,24043552,25841339,24039099,2053,1092,3683,-1955,1428,415,-1324,1815,47,63,815
629214,25837636,24043752,25841536,24039296,1999,1339,3781,-2449,1013,1023,-1558,1506,37,40,815
630215,25837836,24043924,25841733,24039493,2049,1524,3788,-2772,764,1627,-1929,1980,37,40,815
631216,25838020,24044056,25841930,24039690,2156,1802,3686,-2857,635,1882,-1775,2480,44,42,817
632217,25838200,24044192,25842127,24039887,2188,1803,3515,-2967,451,1819,-181,2037,44,42,817
633218,25838368,24044312,25842324,24040084,2277,1936,3310,-3210,113,1529,1309,1302,39,36,814
634219,25838552,24044404,25842521,24040281,2184,2157,3096,-3545,-287,1327,1533,1081,39,36,814
635220,25838724,24044456,25842718,24040478,2271,2469,2868,-3769,-649,1126,1363,1347,33,9,813
636221,25838896,24044492,25842915,24040675,2282,2639,2589,-3754,-947,883,1054,2038,33,9,813
637222,25839052,24044548,25843112,24040872,2401,2576,2215,-3361,-1166,576,188,2997,45,4,812
638223,25839244,24044620,25843309,24041069,2179,2530,1685,-2568,-1267,207,-1184,4289,45,4,812
639224,25839432,24044664,25843506,24041266,2209,2771,989,-1403,-1338,-158,-1216,5140,44,20,808
640225,25839556,24044708,25843703,24041463,2641,2838,264,-215,-1471,-488,-1044,4851,44,20,808
641226,25839744,24044728,25843900,24041660,2246,3065,-345,745,-1694,-705,-678,4165,30,15,809
642227,25839932,24044796,25844097,24041857,2251,2821,-811,1406,-1900,-643,-594,3562,30,15,809
643228,25840108,24044912,25844294,24042054,2336,2557,-1168,1764,-2008,-514,-557,2523,29,24,805
644230,25840292,24045048,25844491,24042251,2293,2457,-1445,1851,-1986,-308,-756,1734,29,24,805
645230,25840468,24045160,25844688,24042448,2352,2645,-1634,1677,-1864,-12,-787,937,46,20,807
646231,25840636,24045288,25844885,24042645,2416,2574,-1728,1373,-1672,327,-937,561,46,20,807
647232,25840824,24045420,25845082,24042842,2296,2578,-1747,954,-1473,556,-672,228,49,32,810
648233,25841024,24045564,25845279,24043039,2220,2525,-1723,517,-1321,743,-305,420,49,32,810
649234,25841216,24045764,25845476,24043236,2274,2174,-1721,243,-1206,1068,-363,1145,35,36,809
650235,25841420,24045940,25845673,24043433,2195,2332,-1792,316,-1068,1498,-277,2348,35,36,809
651236,25841620,24046076,25845870,24043630,2220,2609,-1930,687,-913,1763,-73,3100,31,41,810
652237,25841816,24046200,25846067,24043827,2247,2715,-1989,1026,-864,1816,878,2657,31,41,810
653238,25842024,24046292,25846264,24044024,2168,2961,-1940,1200,-919,1773,1575,2638,45,26,811
654239,25842252,24046404,25846461,24044221,2030,2872,-1878,1442,-1030,1743,1815,3060,45,26,811
655240,25842456,24046496,25846658,24044418,2177,3043,-1867,1837,-1113,1687,1475,3762,49,28,808
656241,25842644,24046604,25846855,24044615,2282,2982,-1881,2433,-1132,1598,986,4284,49,28,808
657242,25842856,24046696,25847052,24044812,2126,3128,-1898,3083,-1173,1501,1080,4558,46,23,808
658244,25843072,24046760,25847249,24045009,2094,3361,-1917,3774,-1308,1386,1444,4861,46,23,808
659244,25843268,24046788,25847446,24045206,2221,3659,-1932,4415,-1521,1347,1626,4814,39,6,807
660246,25843452,24046844,25847643,24045403,2301,3546,-1937,5017,-1772,1360,1325,4754,39,6,807
661247,25843668,24046956,25847840,24045600,2094,3234,-1948,5580,-2032,1426,1306,4889,33,9,805
662248,25843868,24047072,25848037,24045797,2194,3244,-1978,6067,-2295,1446,1752,4719,33,9,805
663248,25844084,24047184,25848234,24045994,2086,3306,-2011,6401,-2567,1412,2048,4310,54,31,803
664250,25844284,24047288,25848431,24046191,2186,3396,-2019,6564,-2800,1396,1641,4007,54,31,803
665250,25844480,24047388,25848628,24046388,2211,3464,-2021,6551,-2963,1370,1299,3601,42,32,804
666252,25844660,24047504,25848825,24046585,2320,3400,-1984,6291,-3092,1227,1254,2752,42,32,804
667252,25844856,24047660,25849022,24046782,2221,3168,-1901,5777,-3192,949,1071,2145,30,22,804
668253,25845032,24047768,25849219,24046979,2356,3506,-1813,5146,-3255,721,889,2060,30,22,804
669254,25845220,24047884,25849416,24047176,2286,3491,-1753,4418,-3282,587,808,1887,48,24,804
670268,25845412,24047944,25849613,24047373,2264,3800,-1720,3702,-3280,458,629,1927,48,24,804
671269,25845596,24048024,25849810,24047570,2320,3800,-1713,3011,-3233,173,335,2057,32,28,802
672257,25845788,24048120,25850007,24047767,2274,3772,-1744,2334,-3137,-137,243,2314,32,28,802
673258,25846024,24048256,25850204,24047964,1982,3549,-1820,1737,-3026,-395,360,2496,40,18,801
674259,25846212,24048376,25850401,24048161,2287,3683,-1892,1092,-2922,-633,516,2496,40,18,801
675260,25846408,24048516,25850598,24048358,2238,3583,-1966,532,-2848,-901,587,2770,32,28,802
676283,25846640,24048584,25850828,24048588,2013,3800,-1595,585,-2698,-1473,-169,8471,32,28,802
677262,25846860,24048716,25851025,24048785,2079,3733,317,4013,-2155,-3099,-2621,32767,53,17,802
678276,25847084,24048820,25851222,24048982,2043,3800,2216,6833,-1694,-1858,-748,16723,53,17,802
679277,25847320,24048944,25851419,24049179,1952,3800,2637,6580,-1608,-1117,941,1763,39,31,802
680278,25847564,24049064,25851616,24049376,1881,3800,2242,4577,-1709,-970,987,482,39,31,802
681279,25847788,24049172,25851813,24049573,1995,3800,1771,2648,-1814,-711,983,757,50,31,803
682280,25848016,24049248,25852010,24049770,1958,3800,1448,1384,-1782,-752,589,1153,50,31,803
683281,25848268,24049372,25852207,24049967,1785,3800,1143,353,-1656,-381,148,1278,59,20,803
684282,25848488,24049452,25852404,24050164,1974,3800,765,-524,-1554,-385,-482,1819,59,20,803
685283,25848744,24049584,25852601,24050361,1724,3800,385,-1410,-1431,-670,-1467,2210,60,29,803
686284,25849004,24049696,25852798,24050558,1673,3800,46,-2167,-1346,-549,-1875,2334,60,29,803
687285,25849248,24049792,25852995,24050755,1753,3800,-241,-2996,-1344,-764,-1599,2195,43,28,802
688286,25849508,24049860,25853192,24050952,1625,3800,-506,-3713,-1397,-1047,-1287,2748,43,28,802
689287,25849756,24049964,25853389,24051149,1679,3800,-760,-4388,-1488,-1069,-973,2718,54,17,803
690288,25850024,24050036,25853586,24051346,1524,3800,-972,-4935,-1563,-1273,-680,3478,54,17,803
691289,25850316,24050116,25853783,24051543,1332,3800,-1135,-5138,-1550,-1287,-982,4553,51,24,804
692290,25850544,24050200,25853980,24051740,1719,3800,-1160,-5058,-1473,-906,-1390,6363,51,24,804
693291,25850804,24050268,25854177,24051937,1493,3800,-426,-3449,-1417,666,-1923,19504,49,23,804
694292,25851064,24050320,25854374,24052134,1465,3800,527,-1766,-1413,215,-1424,13576,49,23,804
695293,25851352,24050380,25854571,24052331,1251,3800,834,-1668,-1417,-790,-547,3814,41,11,803
696294,25851588,24050420,25854768,24052528,1560,3800,688,-2572,-1386,-780,-294,2939,41,11,803
697295,25851844,24050492,25854965,24052725,1409,3800,532,-3583,-1298,-579,-538,2511,60,21,804
698296,25852092,24050572,25855162,24052922,1438,3800,497,-4321,-1152,-471,-484,2504,60,21,804
699297,25852348,24050628,25855359,24053119,1362,3800,537,-4925,-985,-403,387,2532,50,14,803
700298,25852608,24050680,25855556,24053316,1310,3800,514,-5446,-858,-353,987,2726,50,14,803
701299,25852876,24050772,25855753,24053513,1230,3800,467,-6001,-754,-507,758,2736,62,17,805
702300,25853128,24050848,25855950,24053710,1306,3800,430,-6441,-656,-543,-177,3204,62,17,805
703301,25853380,24050940,25856147,24053907,1282,3800,421,-6766,-575,-609,-694,3358,60,28,805
704302,25853616,24051076,25856344,24054104,1365,3800,397,-6912,-495,-740,-1068,3914,60,28,805
705303,25853872,24051216,25856541,24054301,1215,3800,372,-6881,-427,-814,-1325,4203,59,35,805
706304,25854084,24051356,25856738,24054498,1484,3800,336,-6809,-358,-727,-1347,4426,59,35,805
707305,25854320,24051496,25856935,24054695,1318,3800,305,-6597,-295,-619,-1074,4671,43,26,805
708306,25854540,24051644,25857132,24054892,1408,3800,282,-6427,-228,-452,-704,4602,43,26,805
709307,25854768,24051844,25857329,24055089,1345,3800,276,-6203,-167,-213,-141,4662,38,31,804
710308,25855012,24052032,25857526,24055286,1224,3800,270,-6045,-104,4,470,4418,38,31,804
711309,25855236,24052224,25857723,24055483,1338,3800,268,-5907,-43,280,532,4088,34,33,805
712310,25855416,24052432,25857920,24055680,1621,3800,282,-5889,16,634,453,3761,34,33,805
713311,25855652,24052628,25858117,24055877,1255,3800,330,-5881,92,905,419,3724,31,49,806
714312,25855848,24052840,25858314,24056074,1505,3800,374,-5903,177,1200,337,3669,31,49,806
715312,25856024,24053112,25858511,24056271,1639,3800,430,-5932,237,1386,564,3468,37,36,805
716314,25856232,24053336,25858708,24056468,1436,3800,488,-5924,255,1501,814,3548,37,36,805
717315,25856512,24053528,25858905,24056665,949,3800,541,-5838,227,1643,892,3670,53,47,806
718316,25856708,24053788,25859102,24056862,1476,3800,567,-5687,200,1777,733,3838,53,47,806
719317,25856924,24054052,25859299,24057059,1342,3800,571,-5495,156,1830,990,3747,50,54,806
720318,25857164,24054336,25859496,24057256,1174,3800,565,-5381,52,1831,1195,3509,50,54,806
721319,25857416,24054592,25859693,24057453,1075,3800,545,-5284,-95,1822,1153,3592,46,48,806
722320,25857632,24054856,25859890,24057650,1293,3800,501,-5119,-201,1899,572,3763,46,48,806
723308,25857912,24055180,25860087,24057847,856,3693,453,-4894,-244,1913,225,3666,56,53,807
724322,25858172,24055464,25860284,24058044,955,3800,403,-4703,-281,1765,119,3405,56,53,807
725310,25858432,24055776,25860481,24058241,927,3680,368,-4600,-335,1649,-10,3229,50,57,807
726312,25858708,24056064,25860678,24058438,792,3791,318,-4507,-380,1542,-150,3213,50,57,807
727312,25858980,24056372,25860875,24058635,785,3617,285,-4438,-399,1428,-163,3070,44,62,808
728314,25859232,24056684,25861072,24058832,886,3542,255,-4384,-400,1347,99,3038,44,62,808
729314,25859504,24057032,25861269,24059029,728,3251,233,-4326,-386,1217,323,2976,55,75,809
730315,25859776,24057408,25861466,24059226,696,2997,191,-4232,-356,1141,412,3034,55,75,809
731316,25859996,24057804,25861663,24059423,1011,2786,135,-4206,-324,1164,527,2721,62,83,810
732318,25860268,24058176,25861860,24059620,653,2859,74,-4181,-267,1227,681,2899,62,83,810
733319,25860508,24058544,25862057,24059817,835,2809,10,-4137,-179,1136,553,2874,42,83,813
734319,25860708,24058900,25862254,24060014,1084,2815,-61,-3981,-60,1081,230,3000,42,83,813
735320,25860916,24059268,25862451,24060211,1029,2665,-134,-3838,106,998,306,3032,34,83,815
736321,25861152,24059668,25862648,24060408,838,2376,-201,-3741,306,1064,422,2900,34,83,815
737322,25861364,24060004,25862845,24060605,981,2715,-253,-3657,520,1215,500,2836,37,72,814
738323,25861572,24060344,25863042,24060802,1001,2627,-257,-3644,748,1258,659,2718,37,72,814
739324,25861788,24060688,25863239,24060999,943,2537,-259,-3598,978,1374,734,2839,36,75,816
740326,25861992,24061032,25863436,24061196,1016,2473,-262,-3508,1211,1497,846,2899,36,75,816
741326,25862196,24061320,25863633,24061393,1013,2783,-273,-3396,1445,1660,954,2986,36,70,815
742328,25862436,24061648,25863830,24061590,769,2475,-283,-3310,1661,1848,1044,2912,36,70,815
743328,25862636,24061928,25864027,24061787,1018,2739,-296,-3290,1859,1947,953,2924,47,61,815
744330,25862824,24062200,25864224,24061984,1098,2756,-333,-3125,2051,1988,741,3435,47,61,815
745330,25863020,24062432,25864421,24062181,1048,2990,-399,-2864,2236,2006,586,3667,39,44,816
746331,25863200,24062664,25864618,24062378,1156,2975,-475,-2486,2406,2026,463,4055,39,44,816
747332,25863388,24062896,25864815,24062575,1111,2959,-551,-2029,2546,1987,416,4301,27,55,812
748334,25863584,24063132,25865012,24062772,1061,2917,-646,-1580,2659,2082,432,4411,27,55,812
749334,25863768,24063348,25865209,24062969,1142,3034,-741,-1121,2750,2203,477,4445,48,50,812
750335,25863964,24063572,25865406,24063166,1067,2972,-834,-722,2819,2209,582,4385,48,50,812
751336,25864116,24063776,25865603,24063363,1363,3094,-919,-359,2847,2207,917,4151,28,52,812
752337,25864316,24063980,25865800,24063560,1062,3091,-1005,-77,2813,2153,1268,4106,28,52,812
753338,25864480,24064172,25865997,24063757,1301,3168,-1080,141,2730,2075,1500,3875,48,31,811
754339,25864652,24064348,25866194,24063954,1262,3277,-1147,309,2605,2024,1625,3837,48,31,811
755340,25864840,24064552,25866391,24064151,1167,3099,-1243,541,2480,1964,1374,4102,47,45,810
756342,25864992,24064768,25866588,24064348,1412,3015,-1337,726,2342,1857,1246,3880,47,45,810
757342,25865156,24064980,25866785,24064545,1351,3033,-1411,899,2189,1682,914,3822,31,42,810
758343,25865332,24065204,25866982,24064742,1287,2946,-1505,1026,2054,1348,733,4017,31,42,810
759351,25865516,24065404,25867212,24064972,1257,3110,-1634,1223,1942,1064,699,4134,35,35,811
760345,25865704,24065632,25867409,24065169,1236,2921,-1749,1408,1828,767,618,4116,35,35,811
761346,25865888,24065876,25867606,24065366,1267,2800,-1822,1581,1726,589,355,4011,46,37,811
762347,25866072,24066104,25867803,24065563,1273,2887,-1863,1681,1657,412,77,3909,46,37,811
763348,25866264,24066352,25868000,24065760,1225,2739,-1887,1790,1638,13,-247,4059,43,37,811
764349,25866452,24066616,25868197,24065957,1255,2610,-1888,1941,1660,-405,-457,4044,43,37,811
765350,25866632,24066848,25868394,24066154,1313,2795,-1858,1969,1695,-629,-503,3850,27,50,811
766351,25866812,24067044,25868591,24066351,1320,3019,-1804,2010,1759,-914,-527,4084,27,50,811
767352,25867004,24067332,25868788,24066548,1248,2404,-1765,2107,1872,-1226,-808,4386,48,57,813
768353,25867180,24067636,25868985,24066745,1358,2257,-1746,2198,2030,-1516,-1106,4466,48,57,813
769354,25867360,24067928,25869182,24066942,1340,2290,-1699,2347,2233,-2059,-1070,4670,42,63,812
770355,25867532,24068176,25869379,24067139,1402,2543,-1617,2394,2445,-2210,-824,4274,42,63,812
771356,25867696,24068468,25869576,24067336,1467,2226,-1525,2309,2667,-2140,-776,4284,25,46,815
772357,25867848,24068764,25869773,24067533,1561,2157,-1414,2307,2922,-2390,-794,4696,25,46,815
773358,25868032,24069064,25869970,24067730,1368,2086,-1288,2230,3156,-2501,-823,4388,25,66,814
774359,25868212,24069332,25870167,24067927,1401,2255,-1130,2063,3343,-2467,-660,4207,25,66,814
775360,25868376,24069680,25870364,24068124,1515,1689,-961,1808,3512,-2287,-312,4195,39,62,814
776361,25868528,24070000,25870561,24068321,1611,1809,-784,1531,3653,-1728,-475,4020,39,62,814
777362,25868696,24070328,25870758,24068518,1524,1701,-594,1061,3781,-1369,-455,3652,43,52,814
778363,25868852,24070624,25870955,24068715,1618,1858,-398,592,3895,-1054,-157,3742,43,52,814
779364,25869028,24070892,25871152,24068912,1502,2000,-237,127,3963,-565,-239,3711,25,47,816
780365,25869188,24071176,25871349,24069109,1618,1862,-77,-279,4031,-434,-755,4044,25,47,816
781366,25869340,24071508,25871546,24069306,1689,1503,161,-570,4086,-213,-1010,4908,45,61,816
782367,25869484,24071832,25871743,24069503,1762,1496,577,-443,4047,648,-855,8356,45,61,816
783368,25869660,24072112,25871940,24069700,1572,1735,947,-357,3981,439,-605,5985,24,70,816
784369,25869820,24072356,25872137,24069897,1689,1938,1104,-617,3944,323,-580,4420,24,70,816
785370,25869976,24072696,25872334,24070094,1733,1275,1138,-1016,3927,513,-869,4506,44,51,817
786371,25870128,24073072,25872531,24070291,1778,970,1148,-1228,3954,601,-1216,4972,44,51,817
787372,25870280,24073380,25872728,24070488,1797,1347,1166,-1335,4015,783,-1222,4982,44,65,814
788373,25870440,24073660,25872925,24070685,1765,1484,1183,-1453,4053,965,-776,4906,44,65,814
789375,25870600,24073992,25873122,24070882,1781,1100,1206,-1585,4031,898,-150,4891,28,55,818
790376,25870756,24074336,25873319,24071079,1825,959,1221,-1705,3963,858,-190,5052,28,55,818
791376,25870892,24074676,25873516,24071276,1977,920,1244,-1730,3896,946,-323,5208,27,68,817
792377,25871048,24074944,25873713,24071473,1871,1339,1264,-1669,3875,1144,-271,5423,27,68,817
793378,25871180,24075260,25873910,24071670,2049,986,1277,-1582,3865,1470,-11,5321,31,61,818
794379,25871324,24075608,25874107,24071867,1998,719,1293,-1561,3826,1600,40,4967,31,61,818
795380,25871428,24075924,25874304,24072064,2289,866,1324,-1581,3757,1483,41,4820,31,53,817
796381,25871576,24076208,25874501,24072261,2037,1027,1368,-1679,3639,1563,391,4598,31,53,817
797383,25871728,24076500,25874698,24072458,2033,934,1413,-1711,3503,1669,649,4761,29,49,817
798383,25871884,24076812,25874895,24072655,2026,758,1455,-1609,3406,1517,332,4936,29,49,817
799384,25872056,24077144,25875092,24072852,1938,573,1467,-1356,3342,1357,84,5160,23,61,815
800385,25872208,24077456,25875289,24073049,2082,647,1478,-1032,3272,940,137,5268,23,61,815
801386,25872376,24077748,25875486,24073246,1996,729,1519,-729,3135,592,504,5019,25,49,818
802387,25872560,24078004,25875683,24073443,1902,927,1559,-432,2915,271,689,4926,25,49,818
803388,25872736,24078316,25875880,24073640,1962,526,1609,-117,2675,120,923,4777,37,61,817
804389,25872912,24078628,25876077,24073837,1972,474,1638,236,2476,59,926,4749,37,61,817
805390,25873136,24078912,25876274,24074034,1661,610,1662,565,2274,-182,759,4352,51,45,818
806391,25873344,24079156,25876471,24074231,1757,838,1711,841,2074,-460,651,3924,51,45,818
807392,25873564,24079388,25876668,24074428,1672,898,1802,1030,1908,-634,375,3547,37,49,819
808393,25873804,24079644,25876865,24074625,1529,721,1891,1177,1790,-832,37,3437,37,49,819
809394,25874020,24079984,25877062,24074822,1671,132,1963,1373,1750,-1079,-490,3389,35,47,818
810395,25874232,24080316,25877259,24075019,1690,122,2036,1517,1776,-1255,-735,2981,35,47,818
811396,25874460,24080524,25877456,24075216,1577,891,2131,1619,1815,-1328,-562,2516,56,52,820
812397,25874720,24080744,25877653,24075413,1349,805,2241,1596,1845,-1382,-463,2191,56,52,820
813398,25874968,24080980,25877850,24075610,1403,687,2316,1596,1894,-1268,-644,2274,49,37,821
814399,25875228,24081200,25878047,24075807,1300,776,2308,1716,2002,-1192,-987,2450,49,37,821
815400,25875476,24081424,25878244,24076004,1354,738,2213,1920,2129,-1154,-1020,2412,43,46,821
816401,25875728,24081596,25878441,24076201,1305,1073,2098,2044,2182,-1068,-792,1894,43,46,821
817402,25876004,24081756,25878638,24076398,1121,1162,1963,1998,2133,-978,-716,1543,54,38,821
818403,25876280,24081928,25878835,24076595,1087,1097,1789,2063,1985,-1024,-515,1733,54,38,821
819404,25876504,24082132,25879032,24076792,1400,893,1515,2240,1806,-1170,-350,2153,66,40,819
820405,25876744,24082392,25879229,24076989,1282,514,1158,2641,1642,-1206,-226,2585,66,40,819
821406,25877036,24082688,25879426,24077186,916,245,751,3034,1489,-1110,-125,2342,52,43,820
822408,25877312,24082944,25879623,24077383,981,468,349,3251,1280,-946,0,1749,52,43,820
823408,25877536,24083180,25879820,24077580,1295,575,-62,3220,1011,-874,-470,1247,41,50,822
824409,25877804,24083416,25880017,24077777,989,556,-481,3132,766,-839,-1049,1025,41,50,822
825410,25878048,24083660,25880214,24077974,1119,485,-920,2955,545,-772,-1054,605,56,41,823
826411,25878304,24083932,25880411,24078171,1018,276,-1383,2679,293,-709,-1022,486,56,41,823
827412,25878552,24084188,25880608,24078368,1047,349,-1872,2377,25,-621,-1351,553,60,51,823
828413,25878820,24084412,25880805,24078565,891,536,-2347,1980,-260,-520,-1617,289,60,51,823
829414,25879044,24084620,25881002,24078762,1154,630,-2786,1560,-541,-496,-1882,247,62,43,824
830415,25879312,24084812,25881199,24078959,849,731,-3203,1084,-779,-618,-2170,376,62,43,824
831416,25879532,24084960,25881396,24079156,1139,1026,-3587,620,-967,-801,-2280,462,51,48,822
832417,25879756,24085136,25881593,24079353,1102,859,-3933,154,-1107,-995,-2339,481,51,48,822
833418,25879948,24085360,25881790,24079550,1305,546,-4250,-284,-1184,-1033,-2458,889,43,48,823
834419,25880156,24085572,25881987,24079747,1200,614,-4527,-765,-1203,-844,-2539,810,43,48,823
835420,25880364,24085800,25882184,24079944,1195,499,-4749,-1353,-1157,-723,-2814,673,31,35,821
836421,25880532,24085976,25882381,24080141,1459,832,-4948,-1952,-1058,-716,-3255,894,31,35,821
837422,25880708,24086132,25882578,24080338,1418,974,-5130,-2599,-927,-565,-3314,799,45,41,822
838423,25880848,24086280,25882775,24080535,1668,1045,-5292,-3279,-783,-255,-3411,1100,45,41,822
839424,25880996,24086448,25882972,24080732,1641,932,-5455,-3872,-615,122,-3608,1454,35,38,820
840425,25881172,24086616,25883169,24080929,1475,943,-5623,-4365,-435,240,-3681,1925,35,38,820
841426,25881376,24086820,25883366,24081126,1298,713,-5788,-4725,-265,112,-3771,2523,27,32,818
842434,25881592,24086972,25883596,24081356,1229,1072,-5956,-4938,-88,59,-3924,3126,27,32,818
843428,25881840,24087148,25883793,24081553,1007,930,-6120,-4980,104,154,-4006,3722,50,20,819
844429,25882072,24087272,25883990,24081750,1092,1286,-6247,-4965,302,220,-3868,4151,50,20,819
845430,25882300,24087384,25884187,24081947,1104,1397,-6324,-4887,445,260,-3422,4521,37,16,820
846431,25882616,24087508,25884384,24082144,501,1353,-6348,-4770,519,312,-3104,4841,37,16,820
847432,25882792,24087596,25884581,24082341,1387,1625,-6317,-4625,549,467,-2810,5188,38,24,820
848433,25883040,24087700,25884778,24082538,914,1565,-6256,-4430,529,684,-2269,5551,38,24,820
849434,25883288,24087776,25884975,24082735,892,1792,-6171,-4144,453,698,-1657,5888,58,23,821
850435,25883512,24087868,25885172,24082932,1031,1737,-6013,-3932,410,783,-2059,5763,58,23,821
851436,25883736,24088008,25885369,24083129,1019,1461,-5437,-3489,406,1718,-2226,8765,35,23,819
852437,25883880,24088180,25885566,24083326,1542,1271,-1816,3234,87,9294,-4511,32767,35,23,819
853438,25884100,24088316,25885763,24083523,1058,1522,2589,10070,-318,5974,-4456,32767,47,37,817
854439,25884284,24088448,25885960,24083720,1289,1575,4129,10667,-502,1671,-1648,1453,47,37,817
855440,25884464,24088580,25886157,24083917,1321,1603,3987,7545,-495,2217,-1909,-841,27,33,818
856442,25884672,24088684,25886354,24084114,1143,1818,3486,4443,-360,2831,-3387,-146,27,33,818
857442,25884868,24088836,25886551,24084311,1218,1537,3487,2527,-104,2316,-3601,-233,45,32,819
858443,25885196,24088944,25886748,24084508,336,1850,3612,902,192,2205,-3663,-218,45,32,819
859444,25885396,24089120,25886945,24084705,1135,1433,3663,-474,426,2609,-3069,249,37,33,818
860445,25885652,24089312,25887142,24084902,759,1335,3668,-2161,625,2380,-1966,-297,37,33,818
861446,25885816,24089528,25887339,24085099,1349,1175,3673,-3759,688,2245,-1466,-38,41,39,820
862447,25886020,24089736,25887536,24085296,1096,1220,3695,-5235,615,1569,-1085,242,41,39,820
863448,25886220,24089908,25887733,24085493,1120,1455,3675,-6294,548,1183,-990,1674,56,33,819
864449,25886448,24090072,25887930,24085690,932,1519,3570,-6739,516,1215,-1238,2853,56,33,819
865450,25886680,24090232,25888127,24085887,891,1559,3408,-6836,546,703,-1077,4271,38,41,819
866451,25886916,24090368,25888324,24086084,850,1735,3234,-6314,580,184,-439,5998,38,41,819
867452,25887104,24090512,25888521,24086281,1154,1707,3039,-5461,482,-55,525,6798,51,41,820
868453,25887268,24090688,25888718,24086478,1319,1516,2823,-4030,324,-557,849,8437,51,41,820
869454,25887404,24090872,25888915,24086675,1521,1471,2649,-2587,206,-973,898,7895,33,39,819
870455,25887552,24091012,25889112,24086872,1468,1770,2587,-1359,112,-952,863,7323,33,39,819
871456,25887728,24091168,25889309,24087069,1302,1687,2609,-215,69,-983,779,7183,20,29,818
872457,25887932,24091300,25889506,24087266,1124,1865,2701,751,19,-836,809,6351,20,29,818
873458,25888112,24091464,25889703,24087463,1283,1679,2792,1559,-75,-643,846,5621,30,24,816
874459,25888296,24091620,25889900,24087660,1263,1746,2893,2022,-136,-528,717,4537,30,24,816
875460,25888512,24091760,25890097,24087857,1055,1870,2975,2377,-157,76,224,4095,41,38,817
876461,25888656,24091932,25890294,24088054,1528,1680,3037,2515,-172,447,169,3224,41,38,817
877462,25888808,24092108,25890491,24088251,1499,1665,3092,2407,-174,739,389,2513,26,26,817
878463,25888992,24092284,25890688,24088448,1305,1673,3096,2059,-166,1482,671,1734,26,26,817
879464,25889136,24092444,25890885,24088645,1578,1788,3032,1518,-141,1997,1105,1134,26,26,817
880465,25889296,24092656,25891082,24088842,1495,1455,2927,890,-95,2280,1026,622,26,26,817
881466,25889436,24092804,25891279,24089039,1645,1877,2839,114,-27,2585,1120,-18,21,24,817
882467,25889576,24092980,25891476,24089236,1670,1710,2737,-736,107,2709,905,-22,21,24,817
883468,25889700,24093128,25891673,24089433,1804,1906,2586,-1462,285,2817,858,240,27,39,818
884470,25889864,24093272,25891870,24089630,1568,1953,2357,-2072,439,2694,616,523,27,39,818
885470,25889988,24093424,25892067,24089827,1851,1923,2082,-2565,571,2480,406,826,15,25,815
886471,25890124,24093592,25892264,24090024,1803,1835,1779,-2910,689,2418,276,1118,15,25,815
887473,25890288,24093756,25892461,24090221,1642,1873,1431,-3083,778,2362,311,1473,15,39,814
888474,25890452,24093912,25892658,24090418,1658,1941,1053,-3100,857,2175,176,1841,15,39,814
889475,25890584,24094084,25892855,24090615,1886,1851,645,-2977,940,2023,-39,2286,16,35,815
890475,25890752,24094264,25893052,24090812,1675,1808,205,-2683,1012,1876,-138,2748,16,35,815
891476,25890888,24094432,25893249,24091009,1902,1895,-266,-2195,1061,1892,-232,3205,22,41,815
892477,25891056,24094576,25893446,24091206,1716,2068,-751,-1624,1078,2029,-373,3236,22,41,815
893478,25891212,24094716,25893643,24091403,1809,2117,-1237,-1085,1062,2154,-551,3144,41,39,816
894479,25891408,24094844,25893840,24091600,1559,2222,-1686,-639,1009,2268,-524,2775,41,39,816
895480,25891556,24095012,25894037,24091797,1882,1984,-2099,-332,908,2438,-448,2433,22,21,814
896481,25891696,24095156,25894234,24091994,1957,2157,-2470,-109,776,2490,-471,2252,22,21,814
897482,25891872,24095308,25894431,24092191,1742,2126,-2794,19,635,2391,-488,1986,34,33,813
898483,25892012,24095460,25894628,24092388,1992,2145,-3086,116,497,2241,-651,1768,34,33,813
899484,25892156,24095620,25894825,24092585,1991,2111,-3352,89,365,2180,-757,1505,26,35,812
900485,25892320,24095784,25895022,24092782,1881,2099,-3572,-42,242,2267,-706,1166,26,35,812
901486,25892460,24095952,25895219,24092979,2057,2087,-3740,-304,141,2408,-467,827,27,40,813
902487,25892592,24096116,25895416,24093176,2136,2126,-3873,-700,54,2606,-357,431,27,40,813
903488,25892768,24096268,25895613,24093373,1871,2220,-3974,-1229,-20,2862,-392,158,37,42,813
904489,25892924,24096444,25895810,24093570,2014,2079,-4040,-1825,-90,2946,-376,71,37,42,813
905490,25893068,24096588,25896007,24093767,2113,2301,-4087,-2333,-158,2869,-526,378,39,35,812
906491,25893240,24096756,25896204,24093964,1950,2164,-4176,-2707,-247,2629,-311,748,39,35,812
907492,25893420,24096912,25896401,24094161,1908,2256,-4308,-2961,-374,2444,210,1185,44,35,811
908493,25893592,24097092,25896598,24094358,1969,2113,-4444,-3065,-509,2411,155,1679,44,35,811
909494,25893808,24097248,25896795,24094555,1686,2280,-4557,-3034,-574,2393,-804,2107,30,27,811
910495,25894036,24097428,25896992,24094752,1599,2138,-4620,-2871,-569,2232,-994,2574,30,27,811
911496,25894240,24097616,25897189,24094949,1745,2090,-4645,-2600,-537,2155,-405,2967,38,39,813
912497,25894440,24097828,25897386,24095146,1770,1934,-4651,-2195,-497,2055,346,3539,38,39,813
913498,25894676,24098040,25897583,24095343,1529,1926,-4654,-1594,-449,1830,445,4268,46,44,814
914499,25894872,24098244,25897780,24095540,1779,1973,-4643,-847,-395,1538,348,4737,46,44,814
915500,25895040,24098456,25897977,24095737,1968,1916,-4591,-52,-347,1261,462,4814,32,50,814
916501,25895236,24098688,25898174,24095934,1794,1775,-4497,601,-264,922,482,4720,32,50,814
917502,25895452,24098940,25898371,24096131,1661,1625,-4384,1187,-120,757,194,4822,25,49,815
918503,25895632,24099152,25898568,24096328,1894,1868,-4269,1832,80,480,-224,5219,25,49,815
919504,25895844,24099364,25898765,24096525,1688,1861,-4152,2461,326,236,-465,5109,26,43,815
920506,25896020,24099600,25898962,24096722,1922,1694,-4009,2919,583,76,-548,4587,26,43,815
921506,25896192,24099820,25899159,24096919,1959,1783,-3821,3159,833,-114,-485,4372,26,39,814
922507,25896372,24100028,25899356,24097116,1918,1852,-3620,3370,1080,-121,-567,4652,26,39,814
923508,25896520,24100280,25899553,24097313,2139,1553,-3346,3736,1335,-79,-891,5770,31,44,815
924509,25896668,24100548,25899750,24097510,2162,1420,-1263,7521,1985,-1444,-3867,32767,31,44,815
925517,25896840,24100804,25899980,24097740,2037,1484,1926,13211,2843,-1379,-3952,32767,40,44,815
926511,25897008,24101036,25900177,24097937,2076,1618,3419,14655,3157,894,519,2646,40,44,815
927512,25897172,24101292,25900374,24098134,2116,1442,3285,12643,3095,1252,1271,-573,36,48,815
928514,25897348,24101588,25900571,24098331,2051,1147,2893,9848,2967,1606,423,-1615,36,48,815
929514,25897524,24101884,25900768,24098528,2061,1103,2704,7810,2977,1435,175,-800,27,58,814
930515,25897700,24102176,25900965,24098725,2070,1086,2681,6431,3128,1365,-106,-233,27,58,814
931516,25897936,24102440,25901162,24098922,1679,1231,2511,5495,3306,1633,-617,993,46,62,815
932518,25898120,24102740,25901359,24099119,2011,959,2263,4710,3509,984,-586,1349,46,62,815
933518,25898332,24102928,25901556,24099316,1829,1663,1951,3853,3622,480,-342,1707,35,46,816
934520,25898508,24103048,25901753,24099513,2065,2121,1639,3041,3564,45,227,1817,35,46,816
935520,25898740,24103148,25901950,24099710,1699,2288,1341,2293,3392,-785,1203,2154,32,38,817
936521,25898956,24103224,25902147,24099907,1792,2491,1011,1794,3051,-1413,1821,2810,32,38,817
937522,25899148,24103280,25902344,24100104,1945,2677,639,1378,2515,-2286,2573,2969,48,10,812
938524,25899352,24103336,25902541,24100301,1867,2738,181,1258,1888,-3141,2938,4096,29,6,811
939524,25899532,24103404,25902738,24100498,2025,2719,-372,1339,1214,-3579,3137,4512,29,6,811
940525,25899724,24103452,25902935,24100695,1953,2909,-989,1559,558,-4055,2711,5163,50,21,809
941526,25899936,24103528,25903132,24100892,1822,2787,-1634,2032,-4,-4479,1761,5992,50,21,809
942527,25900120,24103636,25903329,24101089,2004,2625,-2319,2604,-448,-4433,547,6349,37,18,808
943528,25900328,24103764,25903526,24101286,1849,2531,-2980,3208,-766,-4394,-259,6299,37,18,808
944529,25900512,24103980,25903723,24101483,2006,1971,-3544,3495,-965,-4311,-533,5202,33,32,810
945530,25900676,24104228,25903920,24101680,2145,1749,-3978,3407,-1090,-3990,-871,4288,33,32,810
946531,25900852,24104392,25904117,24101877,2080,2287,-4234,2892,-1125,-3523,-1492,3108,45,59,813
947532,25901036,24104656,25904314,24102074,2037,1633,-4297,2009,-1029,-2695,-2088,2031,45,59,813
948533,25901220,24104968,25904511,24102271,2043,1281,-3994,1114,-792,-1320,-2333,3765,33,57,812
949534,25901416,24105244,25904708,24102468,1969,1472,-2307,2763,-455,2115,-3449,27609,33,57,812
950535,25901640,24105536,25904905,24102665,1783,1329,-294,4856,-56,1854,-2622,18731,29,65,815
951536,25901844,24105856,25905102,24102862,1905,1100,440,4142,414,524,-697,-522,29,65,815
952537,25902000,24106132,25905299,24103059,2224,1339,335,1560,988,785,-750,-1980,46,56,816
953538,25902188,24106364,25905496,24103256,2028,1599,167,-1185,1567,1055,-570,-2266,46,56,816
954539,25902360,24106588,25905693,24103453,2140,1636,113,-3264,2149,936,-650,-1137,29,52,815
955540,25902524,24106740,25905890,24103650,2206,2105,94,-4765,2661,627,-842,-389,29,52,815
956541,25902664,24106964,25906087,24103847,2381,1643,-10,-5605,3050,352,-1071,1822,47,36,814
957542,25902848,24107128,25906284,24104044,2112,2031,-208,-5750,3334,-534,-833,4142,47,36,814
958543,25903060,24107328,25906481,24104241,1932,1805,-502,-5312,3493,-1337,-913,5816,37,46,813
959544,25903276,24107520,25906678,24104438,1899,1856,-810,-4594,3485,-2139,-534,6484,37,46,813
960545,25903492,24107736,25906875,24104635,1891,1697,-645,-3200,3322,-2266,-250,12600,36,39,814
961546,25903688,24107968,25907072,24104832,2018,1581,-25,-898,2893,-2406,-359,17432,36,39,814
962547,25903880,24108196,25907269,24105029,2045,1592,309,450,2295,-3986,-748,7366,52,49,814
963548,25904084,24108432,25907466,24105226,1968,1525,270,899,1675,-4194,-1257,6037,52,49,814
964549,25904264,24108720,25907663,24105423,2126,1159,153,1094,1176,-3593,-1617,5881,50,60,815
965550,25904436,24109008,25907860,24105620,2187,1118,110,1555,889,-2826,-1720,6132,50,60,815
966551,25904648,24109212,25908057,24105817,1932,1640,146,1998,778,-2236,-2126,5536,31,55,816
967552,25904808,24109416,25908254,24106014,2273,1635,247,2213,718,-1636,-2199,4591,31,55,816
968553,25904980,24109576,25908451,24106211,2210,1926,375,2101,638,-1182,-1880,3634,33,35,815
969554,25905156,24109720,25908648,24106408,2195,2049,523,1605,544,-675,-1714,2632,33,35,815
970555,25905308,24109888,25908845,24106605,2365,1911,670,977,471,-186,-1574,2255,49,39,813
971556,25905476,24110020,25909042,24106802,2279,2164,820,375,430,2,-731,2197,49,39,813
972557,25905668,24110144,25909239,24106999,2132,2245,921,-161,370,123,288,2302,35,35,811
973558,25905840,24110276,25909436,24107196,2269,2223,925,-736,286,87,694,2150,35,35,811
974559,25906016,24110404,25909633,24107393,2253,2278,853,-1309,176,17,1161,1979,27,30,810
975560,25906200,24110532,25909830,24107590,2210,2308,731,-1852,30,9,1173,2032,27,30,810
976561,25906384,24110676,25910027,24107787,2216,2231,576,-2310,-162,-41,1386,2285,29,29,810
977562,25906584,24110792,25910224,24107984,2115,2441,381,-2662,-373,-142,1204,2685,29,29,810
978563,25906756,24110936,25910421,24108181,2302,2289,169,-2840,-518,-244,679,3165,51,26,811
979564,25906968,24111068,25910618,24108378,2047,2391,-64,-2748,-560,-250,189,4158,51,26,811
980565,25907172,24111248,25910815,24108575,2093,2098,-309,-2379,-511,-324,-775,4768,53,33,811
981566,25907344,24111404,25911012,24108772,2305,2266,-497,-1999,-417,-419,-1910,4633,53,33,811
982567,25907560,24111544,25911209,24108969,2023,2390,-583,-1766,-349,-608,-1978,4203,40,28,812
983568,25907772,24111648,25911406,24109166,2041,2656,-571,-1653,-314,-691,-1783,4206,40,28,812
984569,25907972,24111748,25911603,24109363,2116,2722,-505,-1507,-266,-598,-1378,4271,43,20,810
985570,25908204,24111836,25911800,24109560,1902,2845,-429,-1312,-165,-536,-1022,4419,43,20,810
986571,25908400,24111924,25911997,24109757,2128,2893,-326,-1056,-54,-396,-550,4382,37,25,809
987572,25908612,24112000,25912194,24109954,2022,3020,-184,-842,6,-304,-236,4212,37,25,809
988573,25908828,24112044,25912391,24110151,1989,3288,-12,-681,5,-383,45,4162,32,3,807
989574,25909024,24112036,25912588,24110348,2116,3702,201,-547,-42,-417,235,4021,32,3,807
990575,25909228,24112092,25912785,24110545,2063,3364,413,-400,-118,-472,418,4139,53,10,806
991576,25909436,24112140,25912982,24110742,2034,3479,565,-159,-204,-513,621,4410,53,10,806
992577,25909640,24112212,25913179,24110939,2057,3384,669,127,-302,-484,627,4504,54,15,805
993578,25909852,24112280,25913376,24111136,2000,3465,776,402,-424,-440,470,4312,54,15,805
994592,25910044,24112264,25913573,24111333,2128,3800,915,571,-560,-374,-13,4012,36,1,804
995593,25910256,24112260,25913770,24111530,1998,3800,1057,650,-703,-314,-232,3728,36,1,804
996594,25910452,24112296,25913967,24111727,2098,3800,1150,637,-873,-234,812,3438,40,16,800
997595,25910640,24112352,25914164,24111924,2153,3800,1161,609,-1073,-122,1466,3388,40,16,800
998583,25910852,24112444,25914361,24112121,1998,3676,1112,504,-1223,73,1272,3246,31,26,801
999584,25911024,24112576,25914558,24112318,2259,3453,1041,459,-1239,391,584,3360,31,26,801
1000585,25911220,24112740,25914755,24112515,2110,3268,950,460,-1148,598,238,3501,51,25,803
1001586,25911452,24112876,25914952,24112712,1871,3469,874,380,-1048,721,49,3019,51,25,803
1002587,25911640,24113064,25915149,24112909,2150,3148,844,201,-975,766,-670,2739,49,35,805
1003588,25911836,24113204,25915346,24113106,2101,3473,861,-40,-938,801,-1076,2726,49,35,805
1004589,25912056,24113388,25915543,24113303,1942,3204,897,-264,-964,852,-987,2796,37,39,806
1005590,25912260,24113536,25915740,24113500,2039,3451,905,-401,-1019,902,-785,3054,37,39,806
1006604,25912468,24113616,25915937,24113697,2010,3800,828,-435,-1067,991,-307,3451,44,31,806
1007605,25912700,24113692,25916134,24113894,1846,3800,663,-362,-1123,1014,509,3609,44,31,806
1008615,25912908,24113792,25916364,24114124,2005,3800,466,-224,-1219,966,1057,3715,40,16,803
1009607,25913132,24113900,25916561,24114321,1894,3800,285,-57,-1357,823,1240,3902,40,16,803
1010595,25913328,24114036,25916758,24114518,2071,3753,102,157,-1492,839,1011,4096,52,29,802
1011609,25913572,24114148,25916955,24114715,1750,3800,-107,365,-1590,877,793,4152,52,29,802
1012610,25913784,24114240,25917152,24114912,1945,3800,-327,551,-1663,871,377,3993,56,31,802
1013611,25914004,24114340,25917349,24115109,1885,3800,-483,621,-1754,769,286,3598,56,31,802
1014612,25914248,24114448,25917546,24115306,1715,3800,-589,545,-1871,555,841,3196,53,19,803
1015613,25914484,24114568,25917743,24115503,1749,3800,-703,340,-1983,422,1143,2924,53,19,803
1016601,25914700,24114748,25917940,24115700,1865,3686,-847,123,-2058,315,1006,2871,33,36,803
1017615,25914944,24114884,25918137,24115897,1671,3800,-998,-95,-2093,140,819,2934,33,36,803
1018616,25915160,24115012,25918334,24116094,1838,3800,-1128,-308,-2081,40,42,2920,46,32,802
1019617,25915396,24115148,25918531,24116291,1696,3800,-1206,-538,-2018,59,-919,2891,46,32,802
1020618,25915672,24115312,25918728,24116488,1412,3800,-1224,-727,-1928,15,-1255,3048,39,42,804
1021606,25915908,24115492,25918925,24116685,1645,3793,-1215,-883,-1835,-93,-1488,3092,39,42,804
1022607,25916108,24115684,25919122,24116882,1870,3721,-1179,-1051,-1753,-185,-1425,3098,50,35,805
1023621,25916404,24115848,25919319,24117079,1228,3800,-1128,-1245,-1677,-271,-913,3146,50,35,805
1024622,25916632,24115976,25919516,24117276,1639,3800,-1093,-1422,-1616,-335,-68,3141,59,23,804
1025623,25916888,24116112,25919713,24117473,1439,3800,-1073,-1619,-1537,-391,130,3151,59,23,804
1026624,25917148,24116232,25919910,24117670,1386,3800,-1067,-1764,-1427,-442,15,3477,53,32,804
1027625,25917384,24116380,25920107,24117867,1520,3800,-1051,-1837,-1298,-462,-199,3599,53,32,804
1028626,25917592,24116512,25920304,24118064,1690,3800,-996,-1839,-1146,-449,-625,3845,59,35,803
1029627,25917808,24116684,25920501,24118261,1633,3800,-913,-1846,-1002,-427,-817,3911,59,35,803
1030628,25918112,24116804,25920698,24118458,1036,3800,-812,-1890,-902,-378,-801,3882,43,23,804
1031629,25918332,24116940,25920895,24118655,1552,3800,-726,-1896,-837,-369,-543,4035,43,23,804
1032630,25918548,24117096,25921092,24118852,1568,3800,-668,-1954,-836,-336,381,3808,43,33,806
1033631,25918808,24117264,25921289,24119049,1267,3800,-674,-2036,-886,-250,887,3810,43,33,806
1034632,25919032,24117416,25921486,24119246,1480,3800,-730,-2175,-917,-126,799,3793,49,40,804
1035633,25919240,24117600,25921683,24119443,1576,3800,-811,-2305,-915,78,716,3793,49,40,804
1036634,25919472,24117752,25921880,24119640,1411,3800,-903,-2486,-882,130,447,3730,49,28,805
1037635,25919700,24117928,25922077,24119837,1423,3800,-984,-2657,-843,227,-77,3662,49,28,805
1038636,25919896,24118112,25922274,24120034,1624,3800,-1034,-2861,-818,345,-698,3692,47,31,805
1039637,25920120,24118328,25922471,24120231,1437,3800,-1051,-3060,-817,437,-785,3646,47,31,805
1040638,25920348,24118520,25922668,24120428,1399,3800,-1068,-3319,-855,574,-439,3536,34,39,803
1041639,25920536,24118736,25922865,24120625,1653,3800,-1105,-3621,-902,731,-7,3449,34,39,803
1042640,25920760,24118920,25923062,24120822,1417,3800,-1068,-3795,-921,1100,270,4869,31,40,804
1043628,25920960,24119168,25923259,24121019,1566,3664,-526,-2916,-985,2631,664,13907,31,40,804
1044629,25921136,24119404,25923456,24121216,1726,3723,135,-2046,-1058,2268,463,9560,48,47,805
1045630,25921364,24119680,25923653,24121413,1387,3438,305,-2254,-1033,1182,343,2891,48,47,805
1046631,25921548,24119924,25923850,24121610,1669,3617,159,-3154,-950,1195,-6,2271,50,43,805
1047632,25921752,24120164,25924047,24121807,1541,3625,-6,-4079,-840,1302,-476,2370,50,43,805
1048633,25922012,24120404,25924244,24122004,1163,3606,-95,-4737,-715,1257,-604,2639,43,47,806
1049634,25922240,24120708,25924441,24122201,1351,3159,-166,-5195,-601,1215,-208,2932,43,47,806
1050635,25922492,24120984,25924638,24122398,1177,3299,-263,-5543,-526,1150,358,3333,55,57,807
1051636,25922696,24121268,25924835,24122595,1474,3212,-371,-5802,-464,1039,549,3699,55,57,807
1052637,25922932,24121552,25925032,24122792,1257,3173,-489,-5907,-426,1006,575,4321,46,58,809
1053638,25923208,24121844,25925229,24122989,973,3082,-573,-5827,-407,986,482,5171,46,58,809
1054639,25923440,24122160,25925426,24123186,1233,2879,-484,-5332,-376,938,123,8216,41,67,810
1055640,25923704,24122476,25925623,24123383,1004,2828,-378,-4832,-362,813,69,6796,41,67,810
1056641,25923964,24122808,25925820,24123580,1002,2669,-404,-4617,-369,562,232,4850,54,76,812
1057642,25924216,24123160,25926017,24123777,1028,2476,-525,-4690,-370,493,350,4552,54,76,812
1058643,25924480,24123500,25926214,24123974,924,2488,-612,-4758,-354,538,559,4256,49,65,814
1059644,25924720,24123828,25926411,24124171,1056,2505,-688,-4818,-296,602,500,4229,49,65,814
1060645,25924968,24124172,25926608,24124368,983,2341,-713,-4959,-215,793,635,3833,39,60,814
1061646,25925232,24124508,25926805,24124565,854,2330,-723,-5129,-131,899,847,3760,39,60,814
1062647,25925456,24124820,25927002,24124762,1093,2429,-698,-5349,-24,1042,650,3600,54,60,815
1063648,25925724,24125144,25927199,24124959,787,2298,-646,-5566,122,1169,530,3629,54,60,815
1064649,25925968,24125448,25927396,24125156,916,2376,-578,-5772,292,1140,645,3484,40,69,815
1065650,25926204,24125792,25927593,24125353,949,2062,-491,-5936,477,1174,657,3732,40,69,815
1066651,25926428,24126132,25927790,24125550,1013,2024,-400,-6004,679,1166,529,3938,50,68,816
1067652,25926620,24126428,25927987,24125747,1215,2255,-291,-6086,885,1258,540,3911,50,68,816
1068653,25926852,24126724,25928184,24125944,950,2212,-177,-6087,1062,1451,623,4164,34,51,817
1069654,25927088,24126996,25928381,24126141,908,2329,-6,-5907,1234,1625,377,5187,34,51,817
1070655,25927300,24127260,25928578,24126338,1052,2348,286,-5347,1385,1980,68,7807,54,59,816
1071656,25927536,24127520,25928775,24126535,885,2346,541,-4822,1534,1668,-97,5782,54,59,816
1072657,25927760,24127752,25928972,24126732,948,2505,658,-4478,1701,1588,-37,5003,43,45,814
1073658,25927972,24127960,25929169,24126929,1017,2650,698,-4190,1884,1749,-130,5048,43,45,814
1074659,25928212,24128156,25929366,24127126,824,2726,726,-3848,2063,1767,-279,5066,54,46,815
1075660,25928400,24128328,25929563,24127323,1153,2887,782,-3450,2233,1668,-315,5093,54,46,815
1076661,25928600,24128540,25929760,24127520,1076,2629,850,-3053,2376,1734,-263,5019,40,41,814
1077662,25928808,24128728,25929957,24127717,1021,2783,893,-2581,2494,1879,-216,5277,40,41,814
1078663,25928996,24128892,25930154,24127914,1151,2948,915,-2065,2604,1880,-129,5312,47,31,813
1079664,25929176,24129088,25930351,24128111,1209,2748,936,-1572,2655,1845,186,5077,47,31,813
1080665,25929360,24129284,25930548,24128308,1190,2749,962,-1164,2635,1901,503,4874,26,45,812
1081666,25929520,24129444,25930745,24128505,1356,2989,981,-776,2583,1890,744,4823,26,45,812
1082667,25929692,24129628,25930942,24128702,1292,2845,980,-472,2478,1811,939,4536,43,27,811
1083668,25929884,24129788,25931139,24128899,1170,3011,948,-152,2348,1657,885,4567,43,27,811
1084669,25930040,24130008,25931336,24129096,1413,2626,890,193,2225,1611,617,4484,30,30,810
1085670,25930216,24130208,25931533,24129293,1297,2749,819,519,2093,1585,231,4287,30,30,810
1086671,25930400,24130428,25931730,24129490,1253,2613,729,801,1947,1327,92,4147,46,48,812
1087672,25930576,24130676,25931927,24129687,1313,2416,619,995,1794,956,-64,3881,46,48,812
1088673,25930732,24130864,25932124,24129884,1456,2795,504,1187,1652,732,-208,3765,38,50,813
1089674,25930912,24131072,25932321,24130081,1314,2665,396,1360,1533,499,-277,3530,38,50,813
1090675,25931072,24131300,25932518,24130278,1455,2526,289,1509,1451,287,-679,3389,37,41,812
1091683,25931260,24131520,25932748,24130508,1299,2581,187,1574,1402,-6,-915,3094,37,41,812
1092677,25931428,24131768,25932945,24130705,1437,2382,109,1606,1389,-320,-991,3026,30,37,812
1093678,25931636,24132024,25933142,24130902,1182,2306,44,1575,1413,-449,-951,2794,30,37,812
1094679,25931816,24132252,25933339,24131099,1366,2468,13,1432,1455,-614,-863,2492,48,55,812
1095680,25932008,24132456,25933536,24131296,1293,2615,-4,1373,1525,-975,-927,2788,48,55,812
1096681,25932204,24132696,25933733,24131493,1268,2370,-28,1358,1640,-1298,-1292,2928,28,45,813
1097682,25932372,24132976,25933930,24131690,1456,2083,-67,1423,1798,-1680,-1536,3360,28,45,813
1098683,25932552,24133280,25934127,24131887,1390,1886,-111,1607,1997,-2083,-1376,3567,27,66,814
1099684,25932740,24133540,25934324,24132084,1344,2134,-131,1620,2148,-1952,-845,3066,27,66,814
1100685,25932916,24133780,25934521,24132281,1428,2239,-123,1552,2262,-1771,-389,3074,45,57,815
1101686,25933084,24134056,25934718,24132478,1492,1979,-61,1461,2400,-1722,-254,3137,45,57,815
1102687,25933260,24134352,25934915,24132675,1451,1811,8,1443,2559,-1591,-805,3249,31,52,814
1103688,25933416,24134648,25935112,24132872,1594,1767,94,1372,2761,-1597,-1052,3195,31,52,814
1104689,25933600,24134908,25935309,24133069,1426,1963,206,1261,2984,-1341,-888,3026,34,61,814
1105690,25933780,24135176,25935506,24133266,1458,1882,329,1016,3157,-1033,-600,2666,34,61,814
1106691,25933944,24135460,25935703,24133463,1572,1744,466,664,3280,-974,-424,2527,43,51,815
1107692,25934072,24135744,25935900,24133660,1829,1705,586,271,3364,-730,-414,2460,43,51,815
1108693,25934260,24136004,25936097,24133857,1458,1827,663,-40,3430,-405,-478,2650,44,42,815
1109694,25934412,24136256,25936294,24134054,1703,1852,697,-240,3522,-281,-612,3060,44,42,815
1110695,25934584,24136464,25936491,24134251,1590,2122,717,-415,3599,-137,-545,3113,40,41,815
1111696,25934756,24136716,25936688,24134448,1601,1822,743,-668,3616,38,-319,3024,40,41,815
1112697,25934912,24136976,25936885,24134645,1719,1744,775,-843,3589,242,-139,3303,40,60,815
1113698,25935060,24137260,25937082,24134842,1791,1556,770,-966,3551,496,-235,3482,40,60,815
1114699,25935228,24137528,25937279,24135039,1679,1624,731,-979,3524,619,-268,3827,31,42,815
1115700,25935388,24137740,25937476,24135236,1745,1967,670,-877,3494,629,88,4111,31,42,815
1116701,25935540,24137972,25937673,24135433,1816,1826,574,-678,3437,619,182,4405,23,53,815
1117703,25935688,24138252,25937870,24135630,1862,1489,432,-432,3357,534,108,4631,23,53,815
1118704,25935868,24138520,25938067,24135827,1671,1532,271,-209,3259,434,210,4576,45,51,814
1119705,25936008,24138764,25938264,24136024,1946,1661,112,-16,3156,554,402,4390,45,51,814
1120706,25936168,24139028,25938461,24136221,1838,1506,-35,113,3038,752,1022,4248,30,45,816
1121707,25936364,24139256,25938658,24136418,1614,1717,-194,262,2929,925,1297,4364,30,45,816
1122707,25936504,24139536,25938855,24136615,1989,1355,-385,405,2840,963,1199,4297,22,57,816
1123709,25936632,24139824,25939052,24136812,2095,1264,-563,501,2718,1040,1448,3976,22,57,816
1124710,25936784,24140092,25939249,24137009,1965,1358,-691,458,2568,1124,1630,3623,39,53,815
1125711,25936932,24140356,25939446,24137206,2012,1352,-785,316,2388,1160,1674,3353,39,53,815
1126712,25937064,24140560,25939643,24137403,2141,1724,-893,209,2244,884,1105,3680,24,44,815
1127712,25937236,24140824,25939840,24137600,1903,1319,-988,178,2180,696,589,3633,24,44,815
1128714,25937404,24141080,25940037,24137797,1941,1343,-1047,129,2130,767,581,3400,38,54,812
1129714,25937568,24141328,25940234,24137994,1981,1369,-1058,-39,2062,653,638,3078,38,54,812
1130715,25937708,24141572,25940431,24138191,2156,1373,-1034,-287,2007,480,200,2953,40,55,816
1131716,25937900,24141836,25940628,24138388,1834,1218,-1006,-459,2007,187,-395,3214,40,55,816
1132718,25938044,24142060,25940825,24138585,2158,1455,-980,-477,2067,-203,-835,3607,39,50,815
1133719,25938224,24142300,25941022,24138782,1941,1336,-929,-390,2135,-426,-1072,3682,39,50,815
1134720,25938416,24142612,25941219,24138979,1868,835,-836,-275,2178,-609,-938,3652,46,46,815
1135721,25938596,24142900,25941416,24139176,1952,944,-702,-161,2187,-731,-541,3776,46,46,815
1136721,25938784,24143204,25941613,24139373,1906,796,-546,-46,2161,-637,-176,3737,48,49,817
1137723,25939020,24143456,25941810,24139570,1590,1096,-388,158,2121,-746,-102,4048,48,49,817
1138723,25939264,24143712,25942007,24139767,1520,1045,-246,466,2116,-939,-249,4213,57,59,817
1139724,25939488,24144012,25942204,24139964,1633,724,-119,816,2145,-924,-330,4237,57,59,817
1140726,25939716,24144312,25942401,24140161,1595,677,-6,1175,2197,-854,-236,4312,44,60,818
1141727,25939948,24144560,25942598,24140358,1555,979,110,1503,2253,-764,-130,4118,44,60,818
1142728,25940200,24144892,25942795,24140555,1407,395,229,1778,2304,-653,-11,3971,61,59,819
1143728,25940484,24145188,25942992,24140752,1169,575,336,1986,2362,-632,36,3844,61,59,819
1144730,25940728,24145532,25943189,24140949,1399,209,416,2233,2429,-457,-26,3910,53,55,820
1145731,25940976,24145712,25943386,24141146,1352,1241,448,2478,2501,-206,2,3957,53,55,820
1146731,25941264,24145936,25943583,24141343,1062,953,463,2794,2593,21,-38,3891,51,40,821
1147732,25941548,24146140,25943780,24141540,1049,1074,443,3009,2659,217,-92,3549,51,40,821
1148733,25941780,24146352,25943977,24141737,1359,1016,429,3070,2665,388,-43,2976,63,48,819
1149735,25942020,24146580,25944174,24141934,1291,903,417,3029,2648,647,-66,2788,63,48,819
1150736,25942292,24146836,25944371,24142131,1058,701,384,2991,2627,801,-210,2826,46,52,819
1151737,25942560,24147100,25944568,24142328,1053,620,283,2985,2558,871,-208,2908,46,52,819
1152738,25942836,24147272,25944765,24142525,968,1205,128,2997,2422,1016,-46,2705,53,44,821
1153739,25943120,24147480,25944962,24142722,880,975,-72,2935,2228,982,-152,2423,53,44,821
1154740,25943368,24147712,25945159,24142919,1084,808,-297,2807,1979,746,-488,2267,41,51,821
1155741,25943612,24147984,25945356,24143116,1088,524,-553,2672,1708,530,-832,2277,41,51,821
1156742,25943916,24148276,25945553,24143313,666,356,-839,2534,1444,280,-1115,2348,45,53,821
1157743,25944180,24148536,25945750,24143510,887,528,-1136,2423,1169,76,-1320,2254,45,53,821
1158743,25944424,24148816,25945947,24143707,992,365,-1439,2350,891,-174,-1795,2392,44,44,823
1159744,25944684,24149040,25946144,24143904,864,702,-1744,2283,618,-440,-2147,2429,44,44,823
1160745,25944936,24149316,25946341,24144101,890,342,-2027,2174,347,-537,-2224,2228,42,43,822
1161746,25945168,24149616,25946538,24144298,1001,145,-2289,1981,87,-614,-2113,1957,42,43,822
1162747,25945400,24149896,25946735,24144495,985,233,-2536,1723,-152,-765,-1903,1890,55,50,822
1163748,25945640,24150136,25946932,24144692,916,463,-2782,1305,-363,-1068,-1454,1472,55,50,822
1164749,25945892,24150344,25947129,24144889,818,657,-3019,804,-543,-1176,-1262,1359,51,41,823
1165750,25946108,24150536,25947326,24145086,1035,758,-3236,317,-652,-1162,-1763,1401,51,41,823
1166752,25946336,24150800,25947523,24145283,946,278,-3414,-197,-712,-1288,-2009,1296,37,40,823
1167752,25946552,24151020,25947720,24145480,1013,542,-3548,-773,-743,-1410,-1878,1198,37,40,823
1168753,25946784,24151228,25947917,24145677,897,611,-3675,-1330,-733,-1483,-1859,1618,37,49,823
1169754,25946996,24151432,25948114,24145874,1017,632,-3818,-1687,-691,-1557,-2055,2231,37,49,823
1170755,25947240,24151608,25948311,24146071,796,815,-3968,-2002,-643,-1748,-2090,2317,52,45,822
1171756,25947428,24151752,25948508,24146268,1150,1038,-4109,-2290,-603,-1865,-1920,2664,52,45,822
1172758,25947692,24151900,25948705,24146465,646,1033,-4249,-2488,-551,-1926,-1978,3133,39,38,821
1173758,25947960,24152072,25948902,24146662,589,893,-4374,-2593,-492,-1904,-2239,3431,39,38,821
1174766,25948172,24152224,25949132,24146892,948,1051,-4472,-2685,-444,-1651,-2125,3657,43,26,821
1175760,25948420,24152368,25949329,24147089,701,1124,-4559,-2810,-455,-1531,-1569,3854,43,26,821
1176762,25948604,24152484,25949526,24147286,1107,1333,-4621,-2945,-464,-1501,-1964,3880,53,26,821
1177762,25948788,24152600,25949723,24147483,1112,1368,-4649,-3084,-433,-1294,-1955,3980,53,26,821
1178763,25949036,24152696,25949920,24147680,690,1536,-4694,-3141,-378,-1215,-2220,4526,51,14,819
1179764,25949268,24152788,25950117,24147877,776,1606,-4718,-3312,-292,-783,-2287,4121,51,14,819
1180765,25949432,24152912,25950314,24148074,1215,1437,-4705,-3628,-198,-299,-2505,3836,30,23,819
1181766,25949680,24153028,25950511,24148271,668,1522,-4642,-4154,-101,105,-2753,3489,30,23,819
1182768,25949908,24153124,25950708,24148468,779,1690,-4535,-4817,-13,406,-3059,3319,49,29,817
1183769,25950096,24153252,25950905,24148665,1033,1520,-4412,-5486,66,755,-3474,3395,49,29,817
1184770,25950364,24153360,25951102,24148862,502,1683,-4299,-6019,147,1191,-3569,3875,52,20,819
1185770,25950652,24153492,25951299,24149059,337,1560,-4191,-6392,229,1900,-3518,5014,52,20,819
1186771,25950880,24153684,25951496,24149256,699,1188,-2096,-2926,50,8152,-3801,32767,44,23,819
1187772,25951052,24153824,25951693,24149453,1060,1537,1178,2731,-356,9043,-3609,32767,44,23,819
1188774,25951256,24153984,25951890,24149650,857,1427,2649,4182,-470,3326,-2063,3530,33,25,820
1189774,25951468,24154108,25952087,24149847,801,1683,2413,2104,-386,3320,-1692,1365,33,25,820
1190776,25951612,24154220,25952284,24150044,1249,1794,1948,-289,-285,3879,-2016,1043,47,21,818
1191776,25951824,24154384,25952481,24150241,817,1483,1711,-1957,-148,4121,-2136,1305,47,21,818
1192778,25952032,24154508,25952678,24150438,837,1765,1685,-3131,16,4157,-2356,1272,47,23,818
1193778,25952220,24154676,25952875,24150635,966,1502,1608,-3986,90,4061,-2776,2378,47,23,818
1194780,25952408,24154828,25953072,24150832,971,1620,1509,-4732,74,3383,-2989,2605,27,32,818
1195780,25952560,24155016,25953269,24151029,1216,1398,1341,-5271,2,3011,-3200,3660,27,32,818
1196782,25952708,24155212,25953466,24151226,1263,1349,1191,-5591,-98,2745,-3264,3965,20,40,818
1197782,25952828,24155420,25953663,24151423,1471,1268,1039,-5649,-168,2627,-2923,4853,20,40,818
1198784,25953040,24155588,25953860,24151620,890,1530,934,-5374,-250,2620,-2553,5456,19,35,818
1199785,25953296,24155772,25954057,24151817,589,1434,852,-5104,-349,2575,-2019,5497,19,35,818
1200786,25953492,24155920,25954254,24152014,964,1681,813,-4594,-425,2416,-1816,6359,39,25,818
1201787,25953644,24156064,25954451,24152211,1260,1728,828,-4031,-473,2165,-1574,6055,39,25,818
1202787,25953808,24156264,25954648,24152408,1200,1376,924,-3398,-523,1969,-1188,6232,25,29,820
1203788,25953976,24156444,25954845,24152605,1187,1507,1082,-2705,-550,1705,-894,6343,25,29,820
1204789,25954100,24156572,25955042,24152802,1494,1863,1273,-1988,-540,1659,-567,6281,44,35,816
1205790,25954180,24156728,25955239,24152999,1821,1705,1510,-1262,-511,1596,-106,5898,44,35,816
1206791,25954404,24156852,25955436,24153196,909,1936,1801,-749,-465,1286,-133,5321,34,36,818
1207792,25954596,24156996,25955633,24153393,1112,1833,2130,-270,-413,979,-323,5067,34,36,818
1208793,25954828,24157120,25955830,24153590,847,1990,2477,162,-338,610,-310,4678,44,24,815
1209794,25954996,24157248,25956027,24153787,1260,1995,2797,644,-293,263,-118,4665,44,24,815
1210795,25955196,24157352,25956224,24153984,1058,2184,3102,1042,-289,-69,-76,4029,36,28,817
1211796,25955396,24157504,25956421,24154181,1057,1904,3396,1336,-284,-284,-225,3875,36,28,817
1212797,25955576,24157620,25956618,24154378,1190,2164,3649,1674,-251,-347,-725,3833,38,28,816
1213798,25955780,24157768,25956815,24154575,1037,1984,3856,1875,-181,-405,-1088,3185,38,28,816
1214799,25955980,24157920,25957012,24154772,1061,1979,4020,1984,-125,-415,-870,2810,25,20,817
1215801,25956152,24158044,25957209,24154969,1247,2185,4112,1988,-67,-325,-747,2547,25,20,817
1216801,25956352,24158192,25957406,24155166,1071,2057,4147,1920,13,37,-792,2109,30,26,816
1217802,25956516,24158348,25957603,24155363,1311,2024,4147,1683,118,470,-766,1599,30,26,816
1218803,25956696,24158536,25957800,24155560,1219,1828,4112,1371,257,888,-817,1333,37,24,815
1219804,25956856,24158700,25957997,24155757,1360,1991,4037,978,394,1214,-733,1018,37,24,815
1220806,25957024,24158848,25958194,24155954,1323,2112,3927,506,512,1516,-562,647,39,27,815
1221806,25957180,24158996,25958391,24156151,1416,2133,3778,21,633,1963,-485,771,39,27,815
1222807,25957356,24159212,25958588,24156348,1301,1699,3549,-359,760,2414,-388,972,22,28,815
1223809,25957524,24159384,25958785,24156545,1364,1985,3249,-603,864,2600,-264,1349,22,28,815
1224809,25957708,24159604,25958982,24156742,1269,1674,2885,-713,946,2555,-279,1708,31,28,814
1225810,25957868,24159772,25959179,24156939,1436,2012,2464,-721,1021,2563,-302,2245,31,28,814
1226811,25958008,24159952,25959376,24157136,1587,1943,1809,-188,1161,2708,-890,4145,18,42,815
1227812,25958152,24160140,25959573,24157333,1585,1897,1214,185,1267,2626,-174,2325,18,42,815
1228813,25958292,24160336,25959770,24157530,1635,1846,788,201,1248,2730,705,1783,34,41,815
1229814,25958460,24160524,25959967,24157727,1473,1900,402,105,1200,3091,876,2054,34,41,815
1230815,25958592,24160716,25960164,24157924,1727,1877,-6,133,1175,3363,907,2278,40,37,815
1231816,25958760,24160908,25960361,24158121,1515,1878,-406,178,1151,3422,881,2044,40,37,815
1232817,25958920,24161092,25960558,24158318,1581,1933,-757,160,1077,3477,1157,1809,24,41,815
1233818,25959060,24161272,25960755,24158515,1732,1965,-1075,126,943,3462,1434,1871,24,41,815
1234819,25959228,24161448,25960952,24158712,1570,1999,-1358,88,774,3307,1419,1780,20,42,815
1235820,25959384,24161616,25961149,24158909,1663,2061,-1641,93,599,3177,1437,1922,20,42,815
1236821,25959548,24161776,25961346,24159106,1629,2127,-1937,175,443,3109,1629,2173,23,30,814
1237822,25959708,24161944,25961543,24159303,1670,2089,-2240,317,296,2959,1695,2259,23,30,814
1238823,25959896,24162116,25961740,24159500,1499,2075,-2522,447,146,2696,1576,2085,36,43,813
1239824,25960036,24162308,25961937,24159697,1825,1951,-2758,496,-20,2377,1408,1821,36,43,813
1240826,25960220,24162464,25962134,24159894,1556,2194,-2945,507,-179,2247,980,1816,37,27,814
1241826,25960396,24162668,25962331,24160091,1615,1890,-3105,565,-307,2066,662,1874,37,27,814
1242827,25960536,24162848,25962528,24160288,1866,2048,-3269,617,-431,1883,714,1871,31,31,814
1243828,25960732,24163032,25962725,24160485,1516,2027,-3408,656,-586,1591,985,1709,31,31,814
1244829,25960884,24163252,25962922,24160682,1811,1792,-3539,677,-722,1274,783,1866,38,38,815
1245830,25961072,24163472,25963119,24160879,1591,1781,-3677,803,-780,828,139,2192,38,38,815
1246831,25961232,24163712,25963316,24161076,1782,1637,-3801,948,-776,322,-426,2314,23,32,815
1247832,25961388,24163928,25963513,24161273,1826,1778,-3872,1148,-725,-2,-1128,2438,23,32,815
1248834,25961544,24164116,25963710,24161470,1844,1957,-3880,1336,-640,-309,-1600,2402,39,37,815
1249834,25961688,24164352,25963907,24161667,1943,1639,-3830,1448,-546,-562,-1516,2316,39,37,815
1250835,25961828,24164572,25964104,24161864,1994,1728,-3741,1455,-447,-809,-1256,2248,18,41,814
1251836,25961952,24164836,25964301,24162061,2126,1423,-3624,1434,-322,-893,-999,2288,18,41,814
1252838,25962088,24165060,25964498,24162258,2079,1661,-3516,1392,-156,-878,-766,2307,33,49,815
1253838,25962232,24165264,25964695,24162455,2052,1782,-3421,1346,72,-1021,-372,2375,33,49,815
1254840,25962400,24165468,25964892,24162652,1916,1779,-3351,1276,337,-1219,-42,2520,36,44,815
1255840,25962556,24165664,25965089,24162849,2009,1828,-3304,1172,632,-1370,-390,2576,36,44,815
1256842,25962708,24165900,25965286,24163046,2054,1561,-3276,1017,957,-1388,-532,2607,39,39,813
1257849,25962892,24166164,25965516,24163276,1875,1370,-3241,809,1289,-1367,-180,2673,39,39,813
1258843,25963056,24166392,25965713,24163473,2015,1582,-3190,692,1631,-1374,-371,3157,21,38,814
1259844,25963236,24166592,25965910,24163670,1923,1754,-3143,712,1968,-1435,-359,3734,21,38,814
1260846,25963408,24166784,25966107,24163867,1985,1806,-3098,844,2253,-1417,-151,4245,33,40,815
1261846,25963592,24166944,25966304,24164064,1915,2022,-3061,1079,2474,-1316,-63,4749,33,40,815
1262847,25963760,24167148,25966501,24164261,2029,1743,-3034,1385,2641,-1287,-16,5058,26,45,814
1263848,25963972,24167320,25966698,24164458,1747,1954,-2928,1840,2719,-1159,267,6555,26,45,814
1264850,25964140,24167496,25966895,24164655,2036,1937,-1279,5432,2598,1433,1314,32767,35,31,813
1265851,25964320,24167684,25967092,24164852,1969,1866,1198,10572,2247,1828,1917,32767,35,31,813
1266851,25964508,24167848,25967289,24165049,1924,2029,2068,12057,1920,-656,2062,4096,39,31,813
1267852,25964676,24168084,25967486,24165246,2061,1562,1530,10641,1675,-687,1923,1677,39,31,813
1268854,25964840,24168312,25967683,24165443,2102,1598,800,8660,1457,-303,1398,844,24,41,814
1269854,25965028,24168436,25967880,24165640,1956,2279,293,7197,1244,-389,1294,846,24,41,814
1270855,25965212,24168576,25968077,24165837,1988,2204,-33,5984,1028,-316,1244,587,45,40,813
1271856,25965400,24168740,25968274,24166034,1966,2067,-482,5041,827,35,633,1511,45,40,813
1272858,25965612,24168924,25968471,24166231,1811,1948,-969,4117,742,-187,-679,1529,35,37,811
1273858,25965788,24169152,25968668,24166428,2046,1658,-1417,3115,760,-59,-2073,1589,35,37,811
1274859,25965968,24169384,25968865,24166625,2029,1618,-1763,1936,784,4,-2163,881,30,39,813
1275860,25966136,24169628,25969062,24166822,2117,1521,-2016,654,804,-248,-1630,892,30,39,813
1276862,25966344,24169868,25969259,24167019,1863,1527,-2249,-470,805,-273,-1392,1391,28,47,814
1277862,25966496,24170104,25969456,24167216,2233,1534,-2287,-1454,845,-620,-1262,2638,28,47,814
1278863,25966684,24170400,25969653,24167413,2012,1116,-971,355,1251,-1846,-3571,25452,34,51,815
1279864,25966876,24170692,25969850,24167610,1990,1098,1094,3500,1831,-1856,-3062,25492,34,51,815
1280866,25967120,24170908,25970047,24167807,1645,1565,1864,3974,2112,-840,-100,2671,46,45,814
1281866,25967312,24171108,25970244,24168004,1973,1662,1530,2474,2200,-776,502,1036,46,45,814
1282867,25967512,24171300,25970441,24168201,1923,1714,995,692,2244,-455,86,1253,43,40,816
1283868,25967680,24171488,25970638,24168398,2135,1743,574,-39,2406,-781,-344,3233,43,40,816
1284870,25967856,24171664,25970835,24168595,2096,1826,256,-101,2636,-1368,-360,3895,32,35,814
1285870,25968040,24171808,25971032,24168792,2051,2049,-140,150,2742,-1671,-257,4809,32,35,814
1286872,25968152,24171948,25971229,24168989,2540,2098,-589,425,2686,-2612,268,5122,47,40,813
1287872,25968320,24172104,25971426,24169186,2202,2015,-1068,738,2470,-3347,318,5410,47,40,813
1288874,25968508,24172248,25971623,24169383,2082,2113,-1527,1056,2069,-3928,-124,5320,40,28,813
1289874,25968744,24172416,25971820,24169580,1766,1975,-1913,1275,1557,-4632,-393,5150,40,28,813
1290876,25968948,24172624,25972017,24169777,1963,1720,-2245,1482,958,-4694,-734,4992,55,43,812
1291876,25969124,24172848,25972214,24169974,2148,1608,-2492,1488,332,-4620,-944,4262,55,43,812
1292877,25969352,24173084,25972411,24170171,1810,1515,-2644,1412,-186,-4394,-1661,4232,38,37,813
1293878,25969540,24173320,25972608,24170368,2065,1497,-2694,1110,-509,-3683,-2363,3398,38,37,813
1294879,25969700,24173556,25972805,24170565,2257,1480,-2666,658,-600,-2992,-2708,3039,48,52,813
1295880,25969912,24173816,25973002,24170762,1925,1301,-2554,115,-484,-2315,-2892,2604,48,52,813
1296881,25970080,24174108,25973199,24170959,2214,1059,-2389,-686,-253,-1535,-2935,1933,32,47,815
1297882,25970252,24174352,25973396,24171156,2200,1338,-2183,-1548,47,-1108,-2689,1757,32,47,815
1298883,25970420,24174576,25973593,24171353,2239,1450,-1924,-2579,388,-867,-2338,1081,39,53,815
1299884,25970600,24174752,25973790,24171550,2171,1759,-1614,-3788,715,-553,-2281,694,39,53,815
