"  Data file recorded 2014/9/22  16:20:27"
"%  Right Stride Frequency         = 3.0"
"%  Left Stride Frequency         = 3.0"
"%  Phase (Fractional)         = 32768.0"
"%  Experiment.py "
"%  Motor Gains    = [1800, 200, 100, 0, 0, 1800, 200, 100, 0, 0]
"% Columns: "
"% time | Right Leg Pos | Left Leg Pos | Commanded Right Leg Pos | Commanded Left Leg Pos | DCR | DCL | GyroX | GryoY | GryoZ | AX | AY | AZ | RBEMF | LBEMF | VBatt "
11398,-17188,-25896,-37723,-4955,-3800,3800,49,-78,-164,641,-39,4063,7,-1,913
12392,-17176,-25916,-37526,-4758,-3800,3800,49,-75,-164,641,-35,4071,2,-6,913
13393,-17224,-25848,-37329,-4561,-3800,3800,45,-75,-166,651,-27,4101,2,-6,913
14394,-17368,-25716,-37132,-4364,-3800,3800,50,-69,-162,668,-66,4055,-17,8,877
15395,-17536,-25536,-36935,-4167,-3800,3800,88,-58,-181,711,154,3997,-17,8,877
16396,-17752,-25320,-36738,-3970,-3800,3800,112,-9,-166,749,-544,4466,-57,38,878
17397,-18008,-25036,-36541,-3773,-3800,3800,135,83,-133,777,-522,4320,-57,38,878
18398,-18436,-24680,-36344,-3576,-3800,3800,197,168,-140,878,-368,4247,-73,44,880
19399,-18932,-24324,-36147,-3379,-3800,3800,290,228,-127,1094,-653,4151,-73,44,880
20388,-19528,-24020,-35950,-3182,-3319,3800,379,268,-97,1575,-435,4213,-84,62,881
21389,-20080,-23688,-35753,-2985,-3269,3800,465,302,-57,2233,17,3967,-84,62,881
22389,-20720,-23268,-35556,-2788,-2354,3800,545,246,-28,2871,643,3756,-119,73,883
23390,-21416,-22900,-35359,-2591,-1614,3800,633,142,-23,3510,1212,3597,-119,73,883
24391,-22012,-22432,-35162,-2394,-1893,3800,707,76,-15,3961,1350,3767,-118,79,886
25392,-22608,-22028,-34965,-2197,-1548,3800,741,155,-18,4390,1293,3907,-118,79,886
26393,-23272,-21640,-34768,-2000,-746,3800,721,199,-110,4633,2025,3529,-108,73,892
27394,-23828,-21252,-34571,-1803,-1093,3800,624,244,-334,4806,2894,3601,-108,73,892
28395,-24300,-20856,-34374,-1606,-1326,3800,443,412,-664,4924,2672,3895,-90,76,893
29396,-24792,-20420,-34177,-1409,-900,3800,189,674,-1075,4668,2540,4052,-90,76,893
30397,-25168,-20088,-33980,-1212,-1375,3800,-102,1028,-1553,4153,1889,4331,-90,74,894
31398,-25484,-19728,-33783,-1015,-1527,3800,-437,1449,-2035,3553,763,4373,-90,74,894
32400,-25796,-19408,-33586,-818,-1329,3800,-752,1839,-2358,2955,-721,4128,-56,51,893
33400,-26016,-19100,-33389,-621,-1723,3800,-1066,2113,-2479,2268,-1130,3917,-56,51,893
34401,-26232,-18852,-33192,-424,-1567,3800,-1341,2367,-2450,1579,-910,3867,-34,50,891
35402,-26396,-18572,-32995,-227,-1734,3800,-1552,2586,-2298,836,-1124,3794,-34,50,891
36403,-26536,-18328,-32798,-30,-1738,3800,-1642,2886,-1993,380,-1885,3947,-35,37,889
37404,-26656,-18116,-32601,167,-1725,3800,-1647,3201,-1547,13,-2662,4008,-35,37,889
38405,-26780,-17940,-32404,364,-1560,3800,-1553,3526,-1044,-444,-3075,3982,-23,28,889
39407,-26884,-17728,-32207,561,-1554,3800,-1377,3784,-591,-1033,-2704,3801,-23,28,889
40408,-26968,-17568,-32010,758,-1556,3800,-1194,4012,-223,-1595,-2140,3951,-22,36,888
41409,-27032,-17400,-31813,955,-1568,3800,-1071,4432,120,-2099,-1985,4744,-22,36,888
42410,-27080,-17272,-31616,1152,-1561,3800,-959,5017,591,-2050,-2092,5020,-19,33,889
43411,-27112,-17124,-31419,1349,-1561,3800,-749,5559,1243,-1620,-1785,4567,-19,33,889
44412,-27136,-17012,-31222,1546,-1515,3800,-482,6040,1991,-1519,-1694,4549,-6,35,889
45413,-27164,-16872,-31025,1743,-1391,3800,-220,6371,2750,-1865,-1482,4135,-6,35,889
46414,-27200,-16724,-30828,1940,-1240,3800,-17,6537,3451,-2393,-1029,3740,6,31,888
47415,-27208,-16604,-30631,2137,-1326,3800,143,6521,4014,-2555,-192,3294,6,31,888
48416,-27204,-16464,-30434,2334,-1317,3800,227,6456,4385,-2619,531,3181,10,26,888
49417,-27232,-16344,-30237,2531,-1018,3800,220,6345,4616,-2665,769,3273,10,26,888
50417,-27248,-16204,-30040,2728,-1000,3800,142,6345,4815,-2824,616,3597,1,32,889
51418,-27252,-16040,-29843,2925,-987,3800,35,6331,5013,-2858,586,3699,1,32,889
52420,-27272,-15904,-29646,3122,-793,3800,-37,6173,5179,-2956,762,3146,10,23,890
53421,-27272,-15740,-29449,3319,-831,3800,-102,5809,5208,-3152,754,2888,10,23,890
54422,-27280,-15580,-29252,3516,-692,3800,-200,5321,5068,-3128,274,2821,2,26,891
55423,-27292,-15376,-29055,3713,-575,3800,-353,4748,4776,-2976,-373,2540,2,26,891
56424,-27268,-15160,-28858,3910,-724,3800,-521,4108,4381,-2748,-797,2349,-2,41,891
57425,-27288,-14940,-28661,4107,-355,3800,-711,3489,3927,-2511,-977,2593,-2,41,891
58425,-27296,-14692,-28464,4304,-340,3800,-911,2857,3438,-2291,-759,2506,11,34,892
59427,-27292,-14488,-28267,4501,-330,3800,-1127,2105,2930,-2112,-630,2400,11,34,892
60428,-27308,-14348,-28070,4698,-111,3800,-1330,1258,2456,-1944,-873,2155,-5,32,893
61429,-27304,-14248,-27873,4895,-152,3800,-1483,352,2076,-1813,-1072,2122,-5,32,893
62429,-27316,-14136,-27676,5092,39,3800,-1548,-659,1761,-1802,-267,1831,11,23,893
63430,-27312,-14040,-27479,5289,24,3800,-1540,-1720,1505,-1553,243,1700,11,23,893
64431,-27316,-13920,-27282,5486,162,3800,-1461,-2759,1360,-1265,290,1879,-6,29,890
65432,-27308,-13784,-27085,5683,170,3800,-1299,-3703,1328,-1165,268,2190,-6,29,890
66433,-27296,-13624,-26888,5880,227,3800,-1068,-4519,1396,-982,-166,2811,-3,21,893
67434,-27280,-13404,-26691,6077,281,3800,-775,-5147,1545,-788,-466,3343,-3,21,893
68435,-27288,-13136,-26494,6274,522,3800,-452,-5577,1728,-737,-440,3998,15,41,894
69436,-27280,-12852,-26297,6471,505,3800,-149,-5753,1889,-926,-371,4727,15,41,894
70437,-27260,-12460,-26100,6668,508,3800,103,-5680,2056,-1155,-588,5801,11,61,894
71438,-27252,-11996,-25903,6865,666,3800,336,-5336,2232,-1338,-619,6420,11,61,894
72439,-27212,-11596,-25706,7062,535,3800,556,-4843,2372,-1478,-452,6885,11,91,894
73440,-27164,-11004,-25509,7259,552,3800,742,-4240,2444,-1674,-579,7352,11,91,894
74441,-27124,-10512,-25312,7456,671,3800,890,-3641,2453,-1709,-1180,7387,5,113,895
75442,-27076,-9952,-25115,7653,686,3800,1043,-3067,2398,-1559,-1477,7179,5,113,895
76444,-26992,-9364,-24918,7850,512,3800,1208,-2601,2265,-1304,-1150,6889,31,117,896
77444,-26892,-8784,-24721,8047,455,3800,1380,-2192,2035,-779,-402,6660,31,117,896
78432,-26780,-8008,-24524,8244,418,2742,1467,-1834,1750,-117,170,6741,28,132,896
79433,-26644,-7360,-24327,8441,295,3347,1474,-1490,1530,590,353,6543,28,132,896
80435,-26524,-6660,-24130,8638,429,2804,1443,-1255,1335,1134,1299,6154,24,148,895
81435,-26420,-6036,-23933,8835,570,3095,1407,-1097,1150,1660,1551,5895,24,148,895
82437,-26304,-5408,-23736,9032,531,2883,1345,-1013,980,2097,1577,5702,31,120,900
83437,-26168,-4784,-23539,9229,434,2724,1290,-1104,801,2397,1746,4961,31,120,900
84439,-26028,-4276,-23342,9426,434,3315,1264,-1393,613,2672,1824,4434,41,110,901
85440,-25900,-3796,-23145,9623,540,3368,1285,-1778,402,2894,2343,4055,41,110,901
86453,-25760,-3420,-22948,9820,490,3800,1316,-2194,116,3081,3208,4062,29,88,901
87441,-25616,-3032,-22751,10017,490,3785,1287,-2536,-284,3244,4008,4324,29,88,901
88443,-25464,-2636,-22554,10214,459,3650,1191,-2731,-756,3417,4356,4722,43,86,898
89443,-25312,-2248,-22357,10411,480,3619,1039,-2691,-1225,3322,4193,5164,43,86,898
90444,-25160,-1896,-22160,10608,501,3778,880,-2616,-1631,3213,3559,5195,33,76,895
91445,-24976,-1544,-21963,10805,307,3712,704,-2499,-1908,3223,2699,5559,33,76,895
92459,-24844,-1228,-21766,11002,661,3800,526,-2182,-2041,3324,2022,5926,26,60,895
93467,-24680,-952,-21536,11232,1515,3800,357,-1826,-2103,3213,1898,5772,26,60,895
94461,-24536,-648,-21339,11429,1664,3800,236,-1486,-2160,2958,1991,5633,35,70,895
95462,-24360,-376,-21142,11626,1474,3800,168,-1217,-2184,2742,2048,5466,35,70,895
96463,-24172,-124,-20945,11823,1404,3800,134,-853,-2159,2595,2084,5602,35,65,891
97464,-23920,108,-20748,12020,980,3800,117,-481,-2092,2251,1938,5489,35,65,891
98465,-23680,288,-20551,12217,1037,3800,152,-172,-2005,1974,1881,5083,39,41,890
99466,-23484,472,-20354,12414,1313,3800,245,37,-1918,1690,1848,4578,39,41,890
100467,-23204,620,-20157,12611,752,3800,376,199,-1806,1359,1628,4245,40,39,891
101468,-22968,732,-19960,12808,1010,3800,488,372,-1687,943,1213,4371,40,39,891
102469,-22764,824,-19763,13005,1208,3800,622,479,-1571,518,635,3722,57,31,889
103470,-22516,896,-19566,13202,911,3800,791,490,-1419,166,-175,3302,57,31,889
104472,-22236,924,-19369,13399,675,3800,973,407,-1253,-128,-713,2940,40,12,890
105472,-22012,956,-19172,13596,1014,3800,1131,329,-1093,-406,-892,3079,40,12,890
106473,-21800,964,-18975,13793,1083,3800,1260,372,-1021,-942,-747,3018,39,13,890
107474,-21576,992,-18778,13990,996,3800,1348,347,-1109,-1342,-335,2738,39,13,890
108476,-21332,996,-18581,14187,851,3800,1368,398,-1303,-1376,-35,3324,35,11,890
109476,-21164,1032,-18384,14384,1339,3800,1322,575,-1470,-1340,-426,3731,35,11,890
110478,-20948,1064,-18187,14581,1032,3800,1252,788,-1549,-1305,-1172,3691,52,2,890
111478,-20752,1084,-17990,14778,1157,3800,1192,1023,-1546,-1297,-1893,3716,52,2,890
112479,-20556,1116,-17793,14975,1159,3800,1162,1120,-1433,-1151,-2698,3456,34,3,889
113480,-20340,1156,-17596,15172,1026,3800,1174,1035,-1232,-828,-3114,2879,34,3,889
114481,-20160,1180,-17399,15369,1259,3800,1206,768,-1028,-703,-2998,2445,35,9,888
115482,-19944,1204,-17202,15566,1026,3800,1262,326,-853,-481,-2802,1947,35,9,888
116483,-19748,1232,-17005,15763,1152,3800,1324,-252,-651,-105,-2798,1624,54,6,890
117484,-19556,1264,-16808,15960,1180,3800,1381,-881,-371,247,-2842,1543,54,6,890
118485,-19356,1296,-16611,16157,1129,3800,1401,-1450,-14,636,-2867,1767,32,17,889
119486,-19172,1304,-16414,16354,1236,3800,1379,-1915,379,971,-2860,2024,32,17,889
120487,-18996,1332,-16217,16551,1295,3800,1308,-2301,769,1205,-2822,2498,48,8,889
121488,-18832,1364,-16020,16748,1385,3800,1163,-2512,1118,1389,-2573,2971,48,8,889
122489,-18624,1368,-15823,16945,1105,3800,999,-2709,1425,1493,-2212,3108,39,16,888
123490,-18460,1396,-15626,17142,1396,3800,811,-2721,1697,1680,-2094,3876,39,16,888
124491,-18296,1424,-15429,17339,1410,3800,573,-2607,1938,1763,-1955,4197,29,10,887
125492,-18128,1436,-15232,17536,1399,3800,277,-2333,2152,1710,-1918,4581,29,10,887
126493,-17952,1476,-15035,17733,1358,3800,-36,-2016,2338,1569,-1780,4753,43,14,887
127494,-17812,1504,-14838,17930,1609,3800,-363,-1674,2463,1391,-1468,4903,43,14,887
128495,-17624,1528,-14641,18127,1314,3800,-730,-1304,2490,1227,-1226,5076,29,14,888
129496,-17480,1592,-14444,18324,1613,3800,-1108,-892,2428,1130,-970,5092,29,14,888
130497,-17352,1596,-14247,18521,1744,3800,-1480,-573,2262,981,-361,4918,25,6,887
131498,-17212,1616,-14050,18718,1694,3800,-1787,-332,1971,722,259,4531,25,6,887
132499,-17080,1628,-13853,18915,1774,3800,-1969,-361,1623,598,497,3673,21,-2,887
133500,-16972,1640,-13656,19112,1964,3800,-2014,-594,1286,623,448,3151,21,-2,887
134501,-16884,1656,-13459,19309,2137,3800,-1972,-1005,961,590,349,2720,35,13,886
135502,-16784,1680,-13262,19506,2105,3800,-1869,-1506,638,667,-107,2416,35,13,886
136503,-16708,1716,-13065,19703,2308,3800,-1708,-2123,362,806,-655,1922,25,15,884
137504,-16644,1748,-12868,19900,2443,3800,-1509,-2829,183,1041,-1018,1664,25,15,884
138505,-16556,1792,-12671,20097,2342,3800,-1310,-3514,110,1303,-1124,1886,12,20,884
139506,-16436,1824,-12474,20294,2177,3800,-1120,-4138,98,1392,-912,2098,12,20,884
140507,-16336,1852,-12277,20491,2344,3800,-943,-4595,111,1379,-766,2675,15,11,883
141508,-16212,1868,-12080,20688,2227,3800,-763,-4885,119,1211,-524,3110,15,11,883
142509,-16060,1900,-11883,20885,2073,3800,-570,-5004,106,924,-216,3829,22,14,884
143510,-15924,1904,-11686,21082,2201,3800,-390,-4837,100,632,-93,4727,22,14,884
144511,-15812,1908,-11489,21279,2389,3800,-238,-4415,148,305,-332,5548,21,13,884
145512,-15732,1904,-11292,21476,2641,3800,-128,-3775,246,148,-304,6281,21,13,884
146513,-15696,1900,-11095,21673,2987,3800,-52,-2998,368,296,-78,6656,10,12,883
147514,-15640,1920,-10898,21870,2925,3800,16,-2209,490,629,34,6751,10,12,883
148515,-15612,1948,-10701,22067,3176,3800,104,-1497,571,860,168,6433,5,10,880
149516,-15588,1980,-10504,22264,3278,3800,222,-892,594,1013,220,6221,5,10,880
150517,-15544,2008,-10307,22461,3221,3800,352,-298,585,1205,193,6062,12,11,877
151518,-15504,2020,-10110,22658,3316,3800,489,149,573,1401,209,5654,12,11,877
152519,-15480,2052,-9913,22855,3493,3800,624,514,556,1617,328,5316,1,18,877
153520,-15452,2092,-9716,23052,3543,3800,748,731,515,1813,609,4855,1,18,877
154521,-15408,2132,-9519,23249,3511,3800,877,853,439,1993,777,4535,2,17,877
155522,-15360,2156,-9322,23446,3553,3800,1003,912,344,2169,760,4418,2,17,877
156523,-15292,2188,-9125,23643,3486,3800,1107,972,235,2260,763,4335,20,21,876
157524,-15192,2236,-8928,23840,3330,3800,1174,1062,110,2275,677,4381,20,21,876
158525,-15072,2268,-8731,24037,3240,3800,1205,1166,-35,2266,570,4431,13,18,875
159526,-14912,2296,-8534,24234,3007,3800,1199,1283,-186,2188,420,4569,13,18,875
160527,-14728,2316,-8337,24431,2864,3800,1155,1437,-328,1971,279,4650,27,3,878
161528,-14580,2344,-8140,24628,3112,3800,1076,1589,-471,1494,125,4734,27,3,878
162529,-14416,2384,-7943,24825,3028,3800,976,1846,-593,902,-236,4916,46,14,879
163530,-14312,2388,-7746,25022,3445,3800,883,2023,-663,561,-359,4764,46,14,879
164531,-14236,2464,-7549,25219,3674,3800,816,2074,-689,591,-404,4453,39,18,877
165532,-14160,2516,-7352,25416,3728,3800,765,2011,-728,949,113,3958,39,18,877
166546,-14116,2560,-7155,25613,3800,3800,751,1687,-809,1374,676,3060,10,23,878
167547,-14060,2596,-6958,25810,3800,3800,768,1201,-893,1562,813,2698,10,23,878
168548,-14008,2628,-6761,26007,3800,3800,774,740,-961,1320,825,2817,15,20,874
169549,-13932,2676,-6564,26204,3800,3800,734,431,-1008,861,592,3263,15,20,874
170550,-13832,2712,-6367,26401,3800,3800,653,329,-1015,701,349,3844,8,22,873
171551,-13716,2748,-6170,26598,3800,3800,559,342,-977,610,371,4051,8,22,873
172540,-13556,2812,-5973,26795,3554,3800,465,416,-914,340,479,4379,26,14,875
173541,-13392,2852,-5776,26992,3544,3800,371,600,-871,-187,762,4684,26,14,875
174542,-13196,2896,-5579,27189,3347,3800,279,786,-867,-666,931,4745,53,11,876
175543,-13048,2952,-5382,27386,3669,3800,203,1065,-860,-1136,882,4896,53,11,876
176563,-12952,2980,-5152,27616,3800,3800,145,1317,-807,-1628,811,4957,34,15,877
177557,-12900,3036,-4955,27813,3800,3800,73,1508,-737,-1789,813,4943,34,15,877
178558,-12876,3052,-4758,28010,3800,3800,-4,1631,-674,-1592,933,4538,24,20,875
179559,-12888,3084,-4561,28207,3800,3800,-68,1659,-592,-1330,873,4066,24,20,875
180560,-12880,3100,-4364,28404,3800,3800,-113,1546,-462,-1099,771,3677,10,15,872
181561,-12864,3156,-4167,28601,3800,3800,-155,1366,-262,-1151,647,3522,10,15,872
182562,-12864,3176,-3970,28798,3800,3800,-210,1220,-35,-1303,747,3714,15,16,874
183563,-12848,3204,-3773,28995,3800,3800,-263,1075,174,-1416,832,3432,15,16,874
184564,-12852,3204,-3576,29192,3800,3800,-286,826,370,-1411,818,3304,12,15,873
185565,-12852,3240,-3379,29389,3800,3800,-291,559,532,-1464,898,3241,12,15,873
186566,-12844,3260,-3182,29586,3800,3800,-285,170,622,-1592,1095,2894,15,7,873
187567,-12840,3296,-2985,29783,3800,3800,-260,-200,642,-1621,1288,2873,15,7,873
188569,-12828,3320,-2788,29980,3800,3800,-239,-548,630,-1594,1375,3046,2,19,873
189569,-12832,3360,-2591,30177,3800,3800,-250,-748,607,-1488,1372,3540,2,19,873
190570,-12828,3384,-2394,30374,3800,3800,-294,-841,580,-1381,1177,3823,15,3,872
191571,-12824,3428,-2197,30571,3800,3800,-342,-880,555,-1205,884,3921,15,3,872
192572,-12832,3468,-2000,30768,3800,3800,-386,-869,543,-1096,662,4121,15,20,873
193573,-12828,3508,-1803,30965,3800,3800,-424,-871,533,-1080,455,4088,15,20,873
194574,-12832,3528,-1606,31162,3800,3800,-466,-843,516,-1044,236,4150,3,2,874
195575,-12828,3560,-1409,31359,3800,3800,-517,-834,521,-895,-63,4146,3,2,874
196576,-12816,3596,-1212,31556,3800,3800,-579,-847,564,-648,-275,4162,14,17,873
197577,-12808,3608,-1015,31753,3800,3800,-636,-916,633,-454,-427,4060,14,17,873
198578,-12800,3628,-818,31950,3800,3800,-673,-1040,705,-309,-597,3807,11,14,874
199579,-12788,3656,-621,32147,3800,3800,-691,-1213,765,-105,-721,3788,11,14,874
200580,-12776,3700,-424,32344,3800,3800,-700,-1394,800,89,-840,3689,1,17,873
201581,-12724,3728,-227,32541,3800,3800,-704,-1595,833,260,-1040,3707,1,17,873
202582,-12668,3740,-30,32738,3800,3800,-709,-1764,867,413,-1228,3771,21,8,873
203583,-12580,3788,167,32935,3800,3800,-723,-1963,894,562,-1345,3854,21,8,873
204584,-12464,3808,364,33132,3800,3800,-737,-2082,900,721,-1368,3963,25,9,874
205585,-12332,3844,561,33329,3800,3800,-743,-2211,882,837,-1387,3967,25,9,874
206586,-12124,3848,758,33526,3800,3800,-745,-2251,840,893,-1444,4153,23,14,874
207587,-11940,3856,955,33723,3800,3800,-742,-2279,781,798,-1505,4315,23,14,874
208588,-11772,3872,1152,33920,3800,3800,-729,-2240,719,726,-1666,4539,40,15,875
209589,-11612,3888,1349,34117,3800,3800,-710,-2195,664,718,-1579,4733,40,15,875
210590,-11512,3884,1546,34314,3800,3800,-690,-2133,597,953,-1299,4734,39,11,875
211591,-11416,3900,1743,34511,3800,3800,-653,-2125,491,1525,-837,4499,39,11,875
212592,-11320,3900,1940,34708,3800,3800,-565,-2288,346,2229,-332,3754,29,15,873
213593,-11236,3924,2137,34905,3800,3800,-453,-2578,176,2842,19,3523,29,15,873
214594,-11136,3940,2334,35102,3800,3800,-339,-2874,49,2992,-200,3604,23,16,873
215595,-11004,3972,2531,35299,3800,3800,-263,-3018,-23,2694,-628,4329,23,16,873
216596,-10876,3980,2728,35496,3800,3800,-222,-2910,-91,2460,-609,4904,34,11,871
217597,-10760,4016,2925,35693,3800,3800,-185,-2711,-170,2581,-554,5056,34,11,871
218598,-10640,4024,3122,35890,3800,3800,-122,-2445,-253,2807,-279,5231,39,18,873
219599,-10552,4048,3319,36087,3800,3800,-46,-2220,-332,2694,-427,5228,39,18,873
220600,-10500,4080,3516,36284,3800,3800,15,-1889,-435,2391,-707,5707,16,9,874
221601,-10476,4092,3713,36481,3800,3800,53,-1499,-557,2251,-692,5841,16,9,874
222602,-10464,4136,3910,36678,3800,3800,83,-1094,-683,2486,-540,5872,17,12,874
223603,-10444,4160,4107,36875,3800,3800,139,-745,-793,2781,-293,5393,17,12,874
224604,-10408,4184,4304,37072,3800,3800,245,-617,-884,2722,-143,4887,15,19,873
225605,-10380,4204,4501,37269,3800,3800,347,-371,-977,2241,-320,5307,15,19,873
226606,-10320,4208,4698,37466,3800,3800,473,-88,-1058,1514,-199,5187,20,3,873
227607,-10252,4216,4895,37663,3800,3800,654,117,-1117,1532,383,4879,20,3,873
228608,-10204,4244,5092,37860,3800,3800,824,241,-1189,2030,679,4715,22,9,873
229609,-10136,4268,5289,38057,3800,3800,1004,263,-1257,2359,934,4100,22,9,873
230610,-10040,4292,5486,38254,3800,3800,1192,231,-1291,2442,1042,4001,26,2,873
231611,-9936,4320,5683,38451,3800,3800,1366,204,-1322,2051,1056,3939,26,2,873
232612,-9820,4332,5880,38648,3800,3800,1500,297,-1356,1423,1018,4408,32,19,874
233613,-9664,4380,6077,38845,3800,3800,1598,650,-1350,1191,1185,4872,32,19,874
234614,-9468,4396,6274,39042,3800,3800,1650,1015,-1342,1071,1358,4913,42,22,871
235615,-9288,4448,6471,39239,3800,3800,1677,1471,-1334,859,1154,5062,42,22,871
236617,-9088,4476,6668,39436,3800,3800,1694,1853,-1281,637,829,4920,54,9,874
237617,-8916,4488,6865,39633,3800,3800,1672,2354,-1147,315,40,5390,54,9,874
238618,-8768,4480,7062,39830,3800,3800,1615,2957,-1019,-317,-220,5578,46,8,875
239619,-8608,4500,7259,40027,3800,3800,1582,3336,-945,-146,165,4546,46,8,875
240620,-8372,4504,7456,40224,3800,3800,1595,3396,-905,757,637,3594,28,4,874
241621,-8176,4500,7653,40421,3800,3800,1630,3206,-859,1034,654,2889,28,4,874
242622,-7968,4500,7850,40618,3800,3800,1661,2949,-779,592,223,2915,61,3,875
243623,-7772,4520,8047,40815,3800,3800,1651,2847,-693,-83,-178,3223,61,3,875
244624,-7644,4520,8244,41012,3800,3800,1596,2807,-607,-249,-141,3362,47,6,875
245625,-7516,4528,8441,41209,3800,3800,1484,2921,-596,92,190,3634,47,6,875
246626,-7392,4512,8638,41406,3800,3800,1351,2823,-711,283,670,2734,28,12,873
247627,-7276,4512,8835,41603,3800,3800,1205,2454,-923,455,991,2240,28,12,873
248628,-7100,4520,9032,41800,3800,3800,1061,2087,-1101,511,510,2337,37,12,873
249629,-6916,4532,9229,41997,3800,3800,895,1816,-1185,141,-20,2619,37,12,873
250630,-6744,4532,9426,42194,3800,3800,727,1698,-1255,-317,-137,2729,49,8,874
251631,-6548,4540,9623,42391,3800,3800,572,1503,-1312,-307,-284,2563,49,8,874
252632,-6404,4584,9820,42588,3800,3800,425,1378,-1316,-54,-729,2966,46,17,875
253633,-6300,4596,10017,42785,3800,3800,303,1208,-1284,128,-861,2761,46,17,875
254634,-6208,4604,10214,42982,3800,3800,217,892,-1255,298,-880,2415,30,19,874
255635,-6108,4628,10411,43179,3800,3800,126,573,-1258,737,-418,2580,30,19,874
256636,-6004,4672,10608,43376,3800,3800,9,313,-1287,843,103,2520,29,18,873
257637,-5856,4704,10805,43573,3800,3800,-109,80,-1323,605,169,2731,29,18,873
258638,-5688,4708,11002,43770,3800,3800,-210,-94,-1332,334,143,2950,39,18,871
259646,-5512,4744,11232,44000,3800,3800,-313,-265,-1331,319,342,3133,39,18,871
260640,-5372,4768,11429,44197,3800,3800,-427,-291,-1321,576,423,3245,48,18,874
261641,-5188,4780,11626,44394,3800,3800,-505,-478,-1270,603,183,2772,48,18,874
262642,-5048,4816,11823,44591,3800,3800,-563,-620,-1159,454,-521,3257,48,19,875
263643,-4964,4836,12020,44788,3800,3800,-648,-567,-1028,156,-656,3843,48,19,875
264644,-4864,4836,12217,44985,3800,3800,-795,-402,-927,315,-365,4108,31,12,874
265645,-4792,4852,12414,45182,3800,3800,-1111,42,-861,1009,126,5232,31,12,874
266646,-4680,4852,12611,45379,3800,3800,-1456,409,-853,1219,838,4396,20,14,873
267647,-4584,4868,12808,45576,3800,3800,-1666,423,-916,1187,1269,3458,20,14,873
268648,-4424,4904,13005,45773,3800,3800,-1750,236,-970,991,1076,3133,32,17,873
269649,-4304,4924,13202,45970,3800,3800,-1777,-56,-945,808,791,3135,32,17,873
270650,-4152,4952,13399,46167,3800,3800,-1799,-214,-882,940,529,3319,37,8,874
271651,-3996,4968,13596,46364,3800,3800,-1821,-511,-816,1096,351,2774,37,8,874
272652,-3832,4980,13793,46561,3800,3800,-1869,-767,-753,986,168,3348,38,15,875
273653,-3700,5000,13990,46758,3800,3800,-1946,-779,-685,527,-279,4133,38,15,875
274654,-3568,5044,14187,46955,3800,3800,-2036,-653,-669,117,21,4406,38,19,874
275655,-3432,5084,14384,47152,3800,3800,-2133,-435,-729,398,572,4683,38,19,874
276656,-3296,5084,14581,47349,3800,3800,-2273,-180,-837,948,814,4893,33,19,873
277657,-3128,5108,14778,47546,3800,3800,-2408,38,-942,1102,748,4705,33,19,873
278658,-2960,5136,14975,47743,3800,3800,-2443,-32,-988,966,669,3928,39,13,873
279659,-2812,5192,15172,47940,3800,3800,-2388,-256,-1006,706,482,3647,39,13,873
280660,-2644,5200,15369,48137,3800,3800,-2309,-379,-999,527,113,4045,48,17,873
281661,-2480,5204,15566,48334,3800,3800,-2252,-377,-977,495,115,4404,48,17,873
282662,-2360,5228,15763,48531,3800,3800,-2230,-250,-976,706,-44,4923,48,11,874
283663,-2236,5228,15960,48728,3800,3800,-2184,-98,-1018,740,274,4634,48,11,874
284664,-2108,5264,16157,48925,3800,3800,-2087,-121,-1078,952,210,4522,33,17,874
285665,-1968,5292,16354,49122,3800,3800,-2029,46,-1138,1261,218,5346,33,17,874
286666,-1764,5316,16551,49319,3800,3800,-2005,290,-1224,1085,356,5405,28,7,874
287667,-1608,5332,16748,49516,3800,3800,-1908,466,-1338,1075,299,4894,28,7,874
288668,-1424,5352,16945,49713,3800,3800,-1729,539,-1427,990,-98,4908,44,21,874
289669,-1220,5400,17142,49910,3800,3800,-1504,585,-1453,572,-660,4876,44,21,874
290670,-1064,5432,17339,50107,3800,3800,-1251,553,-1454,317,-986,4767,54,19,873
291671,-920,5472,17536,50304,3800,3800,-1010,619,-1453,191,-1373,5201,54,19,873
292672,-772,5496,17733,50501,3800,3800,-831,719,-1500,336,-812,5142,35,17,874
293673,-664,5512,17930,50698,3800,3800,-756,746,-1659,745,223,4888,35,17,874
294674,-504,5524,18127,50895,3800,3800,-732,829,-1866,983,301,5270,22,15,873
295675,-316,5548,18324,51092,3800,3800,-646,896,-2017,1069,109,4834,22,15,873
296676,-168,5560,18521,51289,3800,3800,-546,884,-2005,1106,-783,4586,22,1,874
297677,48,5592,18718,51486,3800,3800,-411,664,-1907,490,-1271,3732,22,1,874
298678,248,5608,18915,51683,3800,3800,-233,239,-1949,159,-326,3419,48,19,875
299679,416,5632,19112,51880,3800,3800,-23,-94,-2103,116,-30,3697,48,19,875
300680,596,5664,19309,52077,3800,3800,165,-330,-2281,-32,-249,3858,46,20,874
301681,744,5696,19506,52274,3800,3800,324,-449,-2412,-84,-558,4200,46,20,874
302682,956,5736,19703,52471,3800,3800,439,-508,-2393,307,-1005,4443,42,14,873
303683,1160,5756,19900,52668,3800,3800,501,-450,-2252,340,-1332,4947,42,14,873
304684,1372,5792,20097,52865,3800,3800,565,-410,-2103,-325,-1772,4819,38,20,873
305685,1640,5808,20294,53062,3800,3800,688,-470,-2012,-977,-1732,4567,38,20,873
306686,1848,5840,20491,53259,3800,3800,803,-567,-2060,-1351,-1254,4432,59,18,873
307687,2084,5856,20688,53456,3800,3800,910,-814,-2171,-1246,-1088,4040,59,18,873
308688,2352,5876,20885,53653,3800,3800,991,-1058,-2240,-818,-1026,4043,60,10,875
309689,2588,5888,21082,53850,3800,3800,1001,-1209,-2178,-153,-1057,4569,60,10,875
310690,2844,5916,21279,54047,3800,3800,618,-604,-1758,876,-1173,7115,40,10,872
311691,3136,5944,21476,54244,3800,3800,343,-423,-1360,357,9,3796,40,10,872
312692,3428,5968,21673,54441,3800,3800,359,-673,-1293,-92,1005,3427,59,18,874
313693,3740,5996,21870,54638,3800,3800,318,-1077,-1293,123,590,3767,59,18,874
314694,4064,6020,22067,54835,3800,3800,288,-1360,-1197,461,112,3433,67,5,875
315695,4392,6060,22264,55032,3800,3800,259,-1715,-968,810,124,3275,67,5,875
316696,4728,6096,22461,55229,3800,3800,298,-2103,-723,780,171,3170,73,7,875
317697,5088,6144,22658,55426,3800,3800,339,-2437,-530,823,461,3533,73,7,875
318698,5428,6180,22855,55623,3800,3800,405,-2675,-444,818,964,3559,58,14,875
319699,5800,6200,23052,55820,3800,3800,372,-2681,-397,990,386,4529,58,14,875
320700,6192,6228,23249,56017,3800,3800,266,-2507,-340,1042,381,4531,59,16,875
321701,6540,6284,23446,56214,3800,3800,78,-2433,-373,931,1189,4432,59,16,875
322702,6908,6312,23643,56411,3800,3800,-210,-2238,-540,900,1253,4958,84,9,874
323703,7332,6368,23840,56608,3800,3800,-452,-1943,-754,1364,1669,5248,84,9,874
324704,7696,6440,24037,56805,3800,3800,-540,-1637,-904,1891,1709,4941,68,27,875
325705,8072,6512,24234,57002,3800,3800,-513,-1593,-1015,2009,1194,3851,68,27,875
326706,8464,6568,24431,57199,3800,3800,-472,-1813,-1069,2691,1113,3384,72,30,876
327707,8848,6624,24628,57396,3800,3800,-416,-2149,-1168,3478,1973,2979,72,30,876
328708,9236,6688,24825,57593,3800,3800,-355,-2555,-1360,3412,2400,2746,77,24,876
329709,9656,6756,25022,57790,3800,3800,-369,-2676,-1561,3081,2297,3753,77,24,876
330710,10012,6824,25219,57987,3800,3800,-409,-2636,-1758,2722,2142,3702,73,30,876
331711,10408,6904,25416,58184,3800,3800,-451,-2571,-1985,2688,2673,3832,73,30,876
332712,10832,6992,25613,58381,3800,3800,-492,-2435,-2236,2679,2449,4146,83,29,876
333713,11200,7080,25810,58578,3800,3800,-530,-2237,-2443,2766,1707,4160,83,29,876
334714,11592,7188,26007,58775,3800,3800,-549,-2124,-2618,2655,1674,3869,82,34,876
335715,11988,7272,26204,58972,3800,3800,-589,-1985,-2777,2576,2279,3891,82,34,876
336716,12392,7368,26401,59169,3800,3800,-737,-1732,-2941,2446,2248,4542,69,24,876
337717,12760,7460,26598,59366,3800,3800,-940,-1365,-3120,2156,1928,4527,69,24,876
338718,13196,7572,26795,59563,3800,3800,-1056,-1137,-3254,2002,1538,3982,84,18,877
339719,13680,7668,26992,59760,3800,3800,-1075,-944,-3317,1752,392,3942,84,18,877
340720,14092,7768,27189,59957,3800,3800,-1084,-778,-3293,1304,-312,3984,74,19,876
341721,14600,7876,27386,60154,3800,3800,-1165,-409,-3177,911,-881,4809,74,19,876
342719,15220,7996,27616,60384,3285,3800,-1297,206,-3046,649,-1007,5114,87,33,877
343723,15732,8104,27813,60581,3800,3800,-1345,658,-2978,256,-253,3870,87,33,877
344724,16188,8252,28010,60778,3800,3800,-1376,951,-2909,283,-360,4194,100,27,877
345712,16772,8360,28207,60975,3095,3800,-1519,1501,-2741,418,-808,4984,100,27,877
346713,17336,8520,28404,61172,3060,3800,-1714,2069,-2415,192,-918,4614,123,43,878
347714,17876,8676,28601,61369,3062,3800,-1868,2540,-1989,27,-1050,4178,123,43,878
348715,18420,8816,28798,61566,2886,3800,-1945,2964,-1517,-749,-1143,4245,111,46,882
349716,18948,8956,28995,61763,2843,3800,-1975,3580,-1020,-1746,-1160,4611,111,46,882
350718,19428,9092,29192,61960,3020,3800,-1904,3699,-612,-1888,-898,2704,125,40,883
351718,19932,9200,29389,62157,2737,3800,-1755,3717,-206,-1512,-1121,2950,125,40,883
352720,20436,9284,29586,62354,2604,3800,-1633,4000,306,-1429,-1507,3891,107,35,883
353720,20892,9356,29783,62551,2792,3800,-1575,4172,923,-1180,-2645,3668,107,35,883
354722,21384,9424,29980,62748,2439,3800,-1574,4503,1569,-1180,-3347,4536,102,30,883
355722,21796,9496,30177,62945,2847,3800,-1535,4926,2176,-1488,-3183,4537,102,30,883
356723,22172,9564,30374,63142,2994,3800,-1428,5429,2550,-1799,-3122,4502,80,30,881
357724,22568,9636,30571,63339,2783,3800,-1236,5615,2731,-2162,-3671,3951,80,30,881
358725,22944,9668,30768,63536,2831,3800,-985,5691,2841,-2013,-3827,4113,87,26,882
359726,23280,9728,30965,63733,3022,3800,-755,5877,2847,-1382,-3191,4090,87,26,882
360727,23640,9776,31162,63930,2801,3800,-541,5757,2723,-1053,-2527,3330,65,15,881
361728,23932,9840,31359,64127,3186,3800,-389,5706,2571,-398,-2890,4404,65,15,881
362729,24188,9896,31556,64324,3386,3800,-322,5782,2369,135,-2911,4364,65,24,879
363730,24480,9952,31753,64521,3122,3800,-330,5826,1982,202,-2108,4227,65,24,879
364731,24752,9988,31950,64718,3215,3800,-306,5726,1441,222,-1957,3704,51,23,879
365732,25000,10048,32147,64915,3343,3800,-251,5200,734,259,-1564,3036,51,23,879
366734,25228,10096,32344,65112,3457,3800,-216,4744,-92,472,-564,3241,43,12,878
367734,25432,10156,32541,65309,3605,3800,-278,4093,-992,505,312,2391,43,12,878
368736,25640,10236,32738,65506,3577,3800,-486,3409,-1907,823,531,2843,56,22,876
369736,25840,10316,32935,65703,3626,3800,-748,2778,-2704,1198,437,3011,56,22,876
370738,26044,10408,33132,65900,3599,3800,-958,2075,-3294,1590,51,2762,54,17,876
371738,26220,10484,33329,66097,3786,3800,-1130,1422,-3729,1678,-303,3011,54,17,876
372752,26388,10580,33526,66294,3800,3800,-1263,642,-4015,1585,-503,2779,31,19,875
373753,26544,10676,33723,66491,3800,3800,-1339,-115,-4150,1857,-609,3132,31,19,875
374754,26712,10748,33920,66688,3800,3800,-1270,-779,-4144,1922,-740,3023,41,16,875
375755,26852,10832,34117,66885,3800,3800,-1075,-1502,-4048,1561,-407,3221,41,16,875
376756,27028,10940,34314,67082,3800,3800,-886,-1965,-3912,1176,-91,4318,42,19,874
377757,27172,11044,34511,67279,3800,3800,-718,-2309,-3719,829,240,4675,42,19,874
378758,27340,11148,34708,67476,3800,3800,-534,-2474,-3460,417,469,5170,26,22,873
379759,27520,11284,34905,67673,3800,3800,-261,-2293,-3153,-387,450,7375,26,22,873
380760,27684,11424,35102,67870,3800,3800,241,-1342,-2793,-1432,618,13318,28,20,874
381761,27836,11572,35299,68067,3800,3800,613,-703,-2619,-1681,2273,7498,28,20,874
382762,28024,11756,35496,68264,3800,3800,623,-734,-2718,-1756,3650,5443,42,32,873
383763,28176,11952,35693,68461,3800,3800,428,-989,-3007,-2108,4825,5540,42,32,873
384764,28340,12140,35890,68658,3800,3800,198,-1130,-3267,-2328,3662,5572,28,32,875
385765,28516,12340,36087,68855,3800,3800,55,-1127,-3259,-2128,1642,5690,28,32,875
386766,28676,12568,36284,69052,3800,3800,71,-1070,-3033,-1864,1339,5426,43,57,875
387767,28824,12800,36481,69249,3800,3800,212,-1287,-2753,-1675,2008,4231,43,57,875
388768,29004,13092,36678,69446,3800,3800,380,-1839,-2474,-1644,1839,3826,28,47,875
389769,29140,13364,36875,69643,3800,3800,511,-2276,-2131,-1311,1315,4368,28,47,875
390770,29292,13624,37072,69840,3800,3800,628,-2557,-1750,-1070,1029,4623,43,50,875
391771,29448,13936,37269,70037,3800,3800,748,-2784,-1388,-725,862,4394,43,50,875
392772,29612,14256,37466,70234,3800,3800,856,-3023,-1124,-614,316,4455,33,57,876
393773,29764,14624,37663,70431,3800,3800,945,-3208,-1003,-423,215,4474,33,57,876
394774,29932,14960,37860,70628,3800,3800,999,-3340,-917,-103,-337,4653,36,74,876
395775,30088,15288,38057,70825,3800,3800,1029,-3498,-800,397,-728,4348,36,74,876
396776,30216,15640,38254,71022,3800,3800,1080,-3677,-666,855,-947,4399,32,82,876
397777,30428,16060,38451,71219,3800,3800,1189,-3849,-554,1426,-880,4097,32,82,876
398778,30636,16420,38648,71416,3800,3800,1296,-3999,-464,1951,-963,4145,48,72,877
399779,30868,16896,38845,71613,3800,3800,1383,-4128,-379,2401,-862,3993,48,72,877
400768,31228,17328,39042,71810,2987,3800,1452,-4304,-339,3016,-410,3812,56,96,876
401768,31576,17732,39239,72007,2997,3800,1482,-4316,-371,3421,-158,4363,56,96,876
402769,31968,18188,39436,72204,2637,3800,1430,-4129,-482,3890,141,5031,72,82,878
403770,32392,18656,39633,72401,2340,3800,1308,-3591,-580,4316,-72,5964,72,82,878
404771,32844,19124,39830,72598,2054,3800,1172,-2897,-642,4280,-413,6208,74,96,883
405772,33304,19568,40027,72795,1890,3800,1069,-2204,-724,4322,-484,5905,74,96,883
406773,33744,20088,40224,72992,1909,3800,1025,-1605,-823,4404,-489,5477,92,105,887
407774,34244,20552,40421,73189,1402,3800,1016,-1092,-899,4188,-733,5440,92,105,887
408775,34664,21088,40618,73386,1805,3800,1006,-640,-950,3981,-1135,5143,102,94,889
409776,35108,21708,40815,73583,1547,3800,1090,-442,-990,3789,-1413,3745,102,94,889
410777,35596,22232,41012,73780,1147,3800,1221,-321,-987,3336,-2214,3890,95,124,891
411778,36064,22864,41209,73977,1153,3800,1352,-94,-970,3020,-2906,3936,95,124,891
412779,36472,23416,41406,74174,1437,3800,1515,77,-988,2503,-3039,3190,96,117,890
413780,36972,24088,41603,74371,729,3800,1779,128,-1042,1953,-3136,2883,96,117,890
414781,37432,24732,41800,74568,864,3800,2117,146,-1103,1837,-3526,2806,105,112,893
415782,37896,25444,41997,74765,723,3800,2437,262,-1096,1805,-3690,3191,105,112,893
416784,38324,26108,42194,74962,847,3800,2772,606,-1045,1465,-3212,3283,97,133,894
417784,38780,26748,42391,75159,559,3800,3159,791,-1069,1238,-2374,2494,97,133,894
418785,39180,27468,42588,75356,820,3800,3659,1026,-1134,753,-2239,2708,91,125,894
419786,39636,28180,42785,75553,357,3800,4109,1376,-1146,478,-2469,3064,91,125,894
420787,40080,28984,42982,75750,325,3800,4509,1904,-1079,138,-2982,3233,97,136,895
421789,40476,29764,43179,75947,537,3800,4839,2527,-941,-642,-3330,3394,97,136,895
422789,40912,30496,43376,76144,183,3800,5182,3156,-838,-1304,-2994,3096,71,159,895
423790,41260,31332,43573,76341,667,3800,5478,3738,-769,-1568,-2620,3013,71,159,895
424791,41644,32216,43770,76538,361,3800,5748,4420,-639,-1770,-3141,2894,79,162,896
425799,42020,33144,44000,76768,347,3800,5977,4904,-463,-1759,-3780,2110,79,162,896
426793,42352,34076,44197,76965,562,3800,6166,5308,-265,-1634,-3854,1774,80,159,897
427794,42660,34904,44394,77162,665,3800,6294,5653,-30,-1471,-3886,1526,80,159,897
428795,43012,35876,44591,77359,321,3800,6357,5933,178,-1286,-3747,914,79,165,897
429796,43308,36724,44788,77556,628,3800,6357,5946,320,-1241,-3496,137,79,165,897
430797,43572,37548,44985,77753,799,3800,6298,5802,410,-890,-3060,-377,76,175,896
431798,43868,38536,45182,77950,556,3800,6203,5591,430,-423,-2103,-841,76,175,896
432800,44092,39380,45379,78147,994,3800,6066,5210,408,-127,-1588,-1296,56,177,895
433800,44284,40160,45576,78344,1196,3800,5901,4702,380,291,-1752,-1653,56,177,895
434801,44420,40968,45773,78541,1574,3800,5727,4049,387,823,-2311,-2137,47,151,895
435802,44700,41728,45970,78738,638,3800,5556,3342,391,1160,-1949,-2271,47,151,895
436804,44880,42468,46167,78935,1270,3800,5287,2650,295,1073,-1395,-2186,51,147,894
437805,45096,43284,46364,79132,1037,3800,4963,1931,52,1010,-697,-2524,51,147,894
438806,45320,43988,46561,79329,976,3800,4657,1151,-271,1027,-342,-2593,62,140,895
439806,45604,44640,46758,79526,563,3800,4311,451,-592,1156,9,-2304,62,140,895
440808,45844,45256,46955,79723,819,3800,3843,-178,-887,1333,373,-2117,71,150,894
441809,46112,45828,47152,79920,613,3800,3291,-795,-1109,1617,556,-2192,71,150,894
442809,46316,46440,47349,80117,1010,3800,2679,-1527,-1327,1535,1160,-2429,52,115,895
443810,46520,46936,47546,80314,1007,3800,2030,-2288,-1613,1304,1702,-2314,52,115,895
444812,46760,47444,47743,80511,763,3800,1399,-2936,-1883,1296,1776,-1829,59,96,893
445812,46972,47968,47940,80708,932,3800,795,-3471,-1892,1692,1313,-1317,59,96,893
446813,47172,48404,48137,80905,1006,3800,201,-3838,-1534,2091,673,-594,54,88,892
447814,47348,48924,48334,81102,1165,3800,-367,-4040,-892,2413,718,-165,54,88,892
448816,47508,49420,48531,81299,1282,3800,-922,-4160,-113,2604,1137,571,35,84,893
449816,47652,49836,48728,81496,1405,3800,-1458,-4113,814,3001,1510,1347,35,84,893
450818,47808,50300,48925,81693,1348,3800,-2419,-3183,2000,3914,1836,5109,49,88,891
451818,47940,50776,49122,81890,1527,3800,-3700,-1713,3191,4477,3636,5546,49,88,891
452820,48060,51192,49319,82087,1636,3800,-4900,-889,3972,4496,5226,3542,28,89,890
453821,48224,51512,49516,82284,1376,3800,-5533,-1218,4337,4238,5595,663,28,89,890
454822,48372,51836,49713,82481,1498,3800,-5707,-2495,4445,4048,5794,-998,23,64,888
455822,48484,52192,49910,82678,1760,3800,-5652,-4093,4504,3986,5290,-1523,23,64,888
456823,48600,52632,50107,82875,1771,3800,-5719,-5492,5300,4664,3492,3736,38,73,888
457824,48736,53048,50304,83072,1674,3800,-6143,-4659,5968,4905,2963,6984,38,73,888
458825,48844,53656,50501,83269,1888,3800,-6493,-3449,6321,4181,4556,7529,31,98,889
459826,48960,54100,50698,83466,1873,3800,-6723,-2227,6105,3293,6997,8252,31,98,889
460828,49080,54668,50895,83663,1883,3800,-6941,-1095,5492,2523,7681,8882,33,108,889
461828,49196,55140,51092,83860,1944,3800,-7331,457,4649,1424,7229,10960,33,108,889
462829,49380,55672,51289,84057,1524,3800,-7990,2705,3671,341,6501,13238,24,104,889
463830,49520,56200,51486,84254,1825,3800,-8848,5471,2657,-508,5597,14999,24,104,889
464832,49664,56804,51683,84451,1824,3800,-9695,8226,1620,-949,5378,14911,30,98,888
465833,49816,57472,51880,84648,1795,3800,-9746,10725,734,-1436,4090,17008,30,98,888
466834,49924,58028,52077,84845,2109,3800,-5903,19571,808,-3536,-3154,32767,44,117,889
467834,50072,58664,52274,85042,1880,3800,-981,27176,978,-471,306,32767,44,117,889
468835,50184,59248,52471,85239,2144,3800,693,25894,531,1056,4586,-4473,25,118,890
469836,50332,59860,52668,85436,1940,3800,632,19811,-153,988,4161,-7984,25,118,890
470837,50480,60400,52865,85633,1963,3800,411,13248,-622,847,2615,-8962,41,114,889
471838,50624,60876,53062,85830,2011,3800,608,8732,-529,-90,504,-6261,41,114,889
472839,50796,61412,53259,86027,1848,3800,830,5315,94,-739,-1334,-4398,47,109,889
473840,50936,61868,53456,86224,2073,3800,722,3311,1088,-953,-4342,450,47,109,889
474841,51060,62312,53653,86421,2205,3800,11,2466,2654,-2352,-7816,4486,47,97,887
475842,51176,62804,53850,86618,2292,3800,-891,1826,3847,-3954,-5331,4542,47,97,887
476843,51248,63280,54047,86815,2622,3800,-1391,570,4044,-4782,-1734,2235,20,108,886
477844,51324,63816,54244,87012,2651,3800,-1428,-1653,3659,-5883,-313,309,20,108,886
478845,51372,64336,54441,87209,2892,3800,-1398,-3907,3097,-6279,323,1110,35,114,885
479846,51408,64864,54638,87406,3038,3800,-1748,-5116,2551,-6535,24,4495,35,114,885
480847,51464,65492,54835,87603,2976,3800,-2693,-4497,2243,-7053,-944,9870,20,118,883
481848,51532,66004,55032,87800,2958,3800,-3484,-3395,2077,-7607,-1440,9073,20,118,883
482849,51616,66584,55229,87997,2908,3800,-3806,-2731,2037,-7747,-2403,8987,10,103,881
483850,51728,67140,55426,88194,2772,3800,-3782,-2244,2020,-7356,-1712,9380,10,103,881
484851,51832,67668,55623,88391,2862,3800,-3693,-1767,1881,-6514,-895,9172,16,123,884
485853,51932,68256,55820,88588,2931,3800,-3523,-1368,1768,-5911,-832,8501,16,123,884
486853,52064,68836,56017,88785,2761,3800,-3284,-1113,1850,-5461,-595,8094,41,119,885
487854,52200,69396,56214,88982,2763,3800,-3027,-1065,2171,-4549,-586,7348,41,119,885
488855,52316,69900,56411,89179,2924,3800,-2834,-1251,2644,-3591,-93,6513,39,118,883
489856,52384,70416,56608,89376,3282,3800,-2617,-1851,3204,-2499,-126,4993,39,118,883
490857,52448,70896,56805,89573,3366,3800,-2463,-2887,3740,-1437,309,3441,19,112,884
491858,52488,71444,57002,89770,3586,3800,-2252,-4386,4186,-867,778,1907,19,112,884
492859,52516,71900,57199,89967,3736,3800,-1917,-5972,4558,-339,942,1843,24,112,881
493860,52548,72308,57396,90164,3785,3800,-1530,-7296,4887,131,741,2613,24,112,881
494874,52572,72720,57593,90361,3800,3800,-1121,-8300,5196,322,952,3347,19,91,878
495875,52592,73096,57790,90558,3800,3800,-692,-9098,5365,310,1702,3611,19,91,878
496876,52604,73472,57987,90755,3800,3800,-265,-9774,5225,106,2863,3921,9,84,876
497877,52612,73748,58184,90952,3800,3800,208,-10439,4755,-386,3088,3951,9,84,876
498878,52632,74020,58381,91149,3800,3800,731,-10972,4064,-867,2863,4208,19,72,874
499879,52616,74236,58578,91346,3800,3800,1196,-11285,3310,-1403,2204,4897,19,72,874
500880,52628,74444,58775,91543,3800,3800,1506,-11114,2611,-1715,915,6365,4,45,873
501881,52620,74604,58972,91740,3800,3800,1688,-10553,2019,-1608,176,7321,4,45,873
502882,52628,74740,59169,91937,3800,3800,1839,-9797,1565,-1545,-523,7277,16,29,874
503883,52628,74844,59366,92134,3800,3800,2013,-9242,1176,-1571,-866,6385,16,29,874
504884,52632,74932,59563,92331,3800,3800,2200,-8868,791,-1481,-1153,6108,12,17,873
505885,52632,75004,59760,92528,3800,3800,2333,-8505,468,-1236,-1600,6232,12,17,873
506886,52636,75100,59957,92725,3800,3800,2436,-8169,293,-819,-1851,5675,13,12,873
507887,52628,75204,60154,92922,3800,3800,2520,-7911,252,-192,-2088,5610,13,12,873
508895,52628,75308,60384,93152,3800,3800,2547,-7715,329,440,-2643,5238,15,26,872
509889,52632,75420,60581,93349,3800,3800,2558,-7744,414,890,-2537,4371,15,26,872
510890,52632,75572,60778,93546,3800,3800,2627,-7933,448,1162,-2471,3660,11,19,872
511891,52632,75688,60975,93743,3800,3800,2707,-8206,500,1172,-2819,3459,11,19,872
512892,52636,75836,61172,93940,3800,3800,2684,-8228,656,1348,-3520,4371,5,22,873
513893,52632,75976,61369,94137,3800,3800,2571,-8038,902,1562,-3760,4437,5,22,873
514894,52620,76132,61566,94334,3800,3800,2443,-7864,1136,1822,-3581,4054,16,34,873
515895,52632,76296,61763,94531,3800,3800,2335,-7756,1300,2021,-3434,3903,16,34,873
516896,52628,76440,61960,94728,3800,3800,2243,-7542,1440,2205,-3436,4321,11,37,873
517897,52632,76600,62157,94925,3800,3800,2150,-7177,1558,2181,-3097,4381,11,37,873
518898,52632,76796,62354,95122,3800,3800,2062,-6686,1584,1944,-2518,4667,6,31,873
519899,52636,76964,62551,95319,3800,3800,1991,-6036,1482,1799,-1741,5096,6,31,873
520900,52648,77148,62748,95516,3800,3800,1925,-5218,1307,1697,-1379,5555,-5,28,871
521901,52652,77312,62945,95713,3800,3800,1898,-4333,1094,1575,-889,5389,-5,28,871
522902,52636,77480,63142,95910,3800,3800,1997,-3620,836,1526,-128,4594,14,25,870
523903,52644,77676,63339,96107,3800,3800,2251,-3069,600,1557,-38,3879,14,25,870
524904,52640,77868,63536,96304,3800,3800,2609,-2666,478,1476,-464,3466,15,28,873
525905,52652,78080,63733,96501,3800,3800,3041,-2255,450,1089,-735,3190,15,28,873
526906,52656,78344,63930,96698,3800,3800,3534,-1871,450,773,-799,2892,0,39,873
527907,52672,78624,64127,96895,3800,3800,4075,-1465,434,564,-718,2637,0,39,873
528908,52676,78952,64324,97092,3800,3800,4587,-941,426,525,-819,3048,4,62,874
529909,52692,79268,64521,97289,3800,3800,5003,-132,513,657,-1450,3591,4,62,874
530910,52732,79632,64718,97486,3800,3800,5293,890,698,718,-1905,3991,14,70,874
531911,52788,79996,64915,97683,3800,3800,5500,2013,890,749,-1888,4067,23,79,873
532912,52884,80380,65112,97880,3800,3800,5622,3103,1036,897,-1718,4123,23,79,873
533913,53016,80768,65309,98077,3800,3800,5689,4117,1157,1250,-1357,3728,21,83,876
534914,53192,81252,65506,98274,3800,3800,5701,4979,1237,1434,-998,3347,21,83,876
535915,53396,81732,65703,98471,3800,3800,5637,5734,1277,1554,-914,2951,42,105,877
536916,53632,82196,65900,98668,3800,3800,5494,6301,1279,1618,-861,2297,42,105,877
537917,53896,82740,66097,98865,3800,3800,5252,6681,1262,1565,-1066,1843,53,100,878
538918,54136,83232,66294,99062,3800,3800,4960,6737,1191,1734,-666,750,53,100,878
539919,54392,83852,66491,99259,3800,3800,4703,6389,1069,2103,-375,-492,60,101,878
540920,54688,84404,66688,99456,3800,3800,4453,5853,938,2571,-213,-766,60,101,878
541921,54972,84972,66885,99653,3800,3800,4169,5270,841,2799,-63,-1069,75,123,877
542922,55252,85616,67082,99850,3800,3800,3826,4711,788,2590,-161,-998,75,123,877
543923,55564,86180,67279,100047,3800,3800,3467,4133,720,2140,219,-968,60,129,878
544924,55840,86904,67476,100244,3800,3800,3123,3575,539,2163,880,-982,60,129,878
545925,56116,87648,67673,100441,3800,3800,2815,2907,255,2669,1342,-1522,76,143,879
546926,56420,88448,67870,100638,3800,3800,2520,2167,-10,3103,1369,-1454,76,143,879
547927,56684,89228,68067,100835,3800,3800,2198,1630,-144,2872,899,-456,59,148,881
548928,56956,90080,68264,101032,3800,3800,1894,1420,-207,2049,867,124,59,148,881
549916,57240,90948,68461,101229,3800,3530,1607,1263,-375,1739,1601,-63,57,149,881
550917,57492,91848,68658,101426,3800,3023,1327,1028,-701,2258,2239,-409,57,149,881
551918,57760,92796,68855,101623,3800,2395,1027,866,-1040,2540,2151,111,61,168,883
552919,58040,93668,69052,101820,3800,2575,757,969,-1266,1804,1148,806,61,168,883
553920,58304,94540,69249,102017,3800,2279,579,1071,-1439,1078,411,669,65,178,886
554921,58532,95468,69446,102214,3800,1610,404,1209,-1707,1465,345,648,65,178,886
555922,58792,96300,69643,102411,3800,1932,192,1331,-2046,2524,434,352,69,169,886
556923,59064,97228,69840,102608,3800,1012,-30,1467,-2345,2755,30,589,69,169,886
557924,59332,98108,70037,102805,3800,1013,-173,1638,-2578,1732,-547,682,51,164,888
558925,59596,98848,70234,103002,3800,1650,-299,1798,-2771,1136,-1330,754,51,164,888
559926,59832,99604,70431,103199,3800,1305,-468,2220,-2838,1956,-2290,1622,47,166,890
560927,60064,100300,70628,103396,3800,1461,-570,2521,-2911,2849,-1454,468,47,166,890
561928,60332,101084,70825,103593,3800,654,-529,2565,-3007,3062,-1376,-63,58,129,889
562929,60608,101688,71022,103790,3800,1600,-405,2546,-3096,2383,-1982,244,58,129,889
563930,60904,102292,71219,103987,3800,1422,-202,2517,-3205,1740,-1991,260,61,129,889
564932,61176,102880,71416,104184,3800,1351,27,2546,-3361,2153,-1980,250,61,129,889
565933,61440,103400,71613,104381,3800,1634,240,2452,-3609,2801,-1547,-91,67,99,888
566933,61704,103968,71810,104578,3800,1172,440,2344,-3993,2829,-607,-9,67,99,888
567934,62068,104408,72007,104775,3800,1865,549,2364,-4687,2311,1404,647,56,109,888
568935,62388,104912,72204,104972,3800,1330,388,2788,-5669,2057,2701,2513,56,109,888
569936,62696,105328,72401,105169,3800,1784,70,3390,-6699,2392,2788,2555,77,84,888
570937,63040,105692,72598,105366,3800,2035,-325,3947,-7757,2860,3236,2413,77,84,888
571938,63396,106108,72795,105563,3800,1614,-733,4462,-8819,2637,2384,2569,75,85,887
572940,63736,106540,72992,105760,3800,1411,-1157,4725,-9785,2422,931,1955,75,85,887
573940,64048,106860,73189,105957,3800,2056,-1551,4523,-10597,2806,-391,733,80,65,888
574929,64412,107080,73386,106154,3674,2671,-1784,3664,-11333,3436,-696,-1382,80,65,888
575930,64752,107292,73583,106351,3763,2714,-1864,2344,-12032,3647,-1014,-2292,76,56,886
576943,65052,107528,73780,106548,3800,2547,-1917,873,-12604,3923,-1381,-2079,76,56,886
577944,65368,107772,73977,106745,3800,2476,-2086,-231,-13006,4444,-793,-613,53,57,881
578945,65664,107964,74174,106942,3800,2803,-2365,-1017,-13242,5077,-89,24,53,57,881
579946,65936,108148,74371,107139,3800,2858,-2630,-1795,-13350,5181,203,-28,58,39,884
580947,66220,108332,74568,107336,3800,2864,-2869,-2679,-13206,4940,43,277,58,39,884
581948,66464,108500,74765,107533,3800,2977,-3114,-3495,-12774,4931,-313,1216,61,39,881
582949,66720,108676,74962,107730,3800,2936,-4187,-2547,-11565,5535,-4496,8177,61,39,881
583950,66948,108884,75159,107927,3800,2731,-5401,-1426,-10208,4443,-3871,4899,43,46,880
584951,67188,109048,75356,108124,3800,3019,-6095,-1066,-9280,4163,-1123,3982,43,46,880
585952,67416,109220,75553,108321,3800,2980,-6641,-1272,-8474,4043,-618,3931,39,33,881
586953,67668,109404,75750,108518,3800,2911,-7311,-1274,-7855,3741,1093,4929,39,33,881
587954,67916,109580,75947,108715,3800,2970,-8061,-1200,-7537,4184,4350,4704,42,41,879
588943,68192,109784,76144,108912,3797,2792,-8490,-1536,-7447,4677,6847,3458,42,41,879
589944,68480,109984,76341,109109,3684,2816,-8743,-1814,-7402,5098,8186,5236,48,40,880
590945,68784,110196,76538,109306,3538,2733,-8887,-2085,-7257,5072,8076,5121,48,40,880
591952,69088,110428,76768,109536,3508,2608,-9299,-1623,-7112,5430,9012,8559,52,43,882
592947,69460,110652,76965,109733,3007,2646,-9796,-760,-7002,4759,8405,8919,52,43,882
593948,69816,110900,77162,109930,3039,2473,-10102,-16,-6910,3976,7671,8645,77,52,885
594949,70148,111120,77359,110127,3130,2638,-10158,254,-6907,3089,6889,7572,77,52,885
595950,70548,111336,77556,110324,2618,2654,-9882,355,-6961,2367,5277,9024,71,46,888
596951,70904,111544,77753,110521,2824,2699,-6271,6376,-6570,3004,-1738,32767,71,46,888
597952,71220,111704,77950,110718,3023,3015,-511,15570,-6051,3879,-2573,32767,61,41,888
598953,71596,111860,78147,110915,2570,3058,2373,17374,-5987,2182,4248,3311,61,41,888
599954,71920,112012,78344,111112,2842,3103,2302,14026,-6151,2929,5205,629,73,39,886
600955,72224,112148,78541,111309,2921,3230,1422,10049,-5997,4205,2775,54,73,39,886
601955,72576,112288,78738,111506,2553,3229,833,7382,-5415,3034,-81,163,73,31,885
602956,72932,112436,78935,111703,2460,3200,851,4920,-4968,2316,1671,-1762,73,31,885
603957,73268,112580,79132,111900,2524,3249,1027,2314,-4838,2176,1242,-1327,69,39,886
604959,73592,112736,79329,112097,2546,3192,810,517,-4865,1468,423,1656,69,39,886
605960,73896,112848,79526,112294,2625,3504,221,-814,-4964,634,405,2627,64,22,886
606961,74184,112980,79723,112491,2686,3408,-284,-1645,-5129,373,-39,3576,64,22,886
607961,74508,113120,79920,112688,2406,3383,-504,-2428,-5269,-452,-439,3398,68,24,883
608963,74824,113288,80117,112885,2405,3220,-630,-2974,-5365,-995,-948,4668,68,24,883
609963,75132,113436,80314,113082,2407,3366,-804,-3232,-5427,-936,-1393,4845,61,32,884
610965,75456,113600,80511,113279,2252,3280,-1004,-3550,-5426,-1153,-1261,4725,61,32,884
611965,75776,113728,80708,113476,2224,3536,-1180,-3553,-5345,-1252,-1607,5335,67,24,886
612967,76052,113852,80905,113673,2465,3593,-1252,-3468,-5245,-1263,-1099,5039,67,24,886
613968,76328,114000,81102,113870,2431,3464,-1187,-3567,-5060,-1658,-882,4644,55,27,886
614969,76640,114156,81299,114067,2157,3432,-983,-3534,-4769,-1545,-608,4770,55,27,886
615969,76952,114336,81496,114264,2106,3290,-616,-3483,-4468,-1413,148,4542,57,37,885
616971,77288,114484,81693,114461,1896,3511,-219,-3238,-4144,-1680,-21,5433,57,37,885
617972,77604,114656,81890,114658,1970,3372,116,-2719,-3771,-1857,-591,5827,53,25,887
618972,77900,114804,82087,114855,2052,3544,313,-1826,-3391,-2021,-1125,6955,53,25,887
619973,78200,114960,82284,115052,1983,3512,404,-458,-2978,-2135,-1678,8451,54,40,886
620975,78508,115100,82481,115249,1885,3637,510,961,-2638,-2345,-1515,7780,54,40,886
621976,78820,115268,82678,115446,1810,3475,731,2105,-2402,-2389,-1422,6730,55,30,886
622977,79140,115436,82875,115643,1707,3487,1043,3077,-2227,-2303,-952,6337,55,30,886
623977,79456,115612,83072,115840,1681,3447,1402,3906,-2108,-2183,-718,5352,57,49,887
624979,79752,115804,83269,116037,1762,3349,1763,4480,-1968,-2413,-1237,4439,57,49,887
625979,80072,116004,83466,116234,1559,3298,2006,4976,-1763,-2384,-1241,4267,74,33,888
626980,80464,116172,83663,116431,1024,3510,2119,5433,-1519,-1984,-610,3544,74,33,888
627981,80772,116316,83860,116628,1501,3685,2187,5588,-1350,-1784,703,2220,67,34,889
628996,81056,116396,84057,116825,1613,3800,2272,5438,-1276,-1626,1195,1061,67,34,889
629996,81336,116448,84254,117022,1603,3800,2348,5117,-1169,-1518,120,663,69,13,886
630997,81540,116456,84451,117219,2075,3800,2389,4853,-959,-1574,-896,665,69,13,886
631998,81792,116464,84648,117416,1752,3800,2346,4603,-747,-1643,-1104,361,47,13,883
633000,82100,116464,84845,117613,1353,3800,2244,4302,-620,-1824,-998,10,47,13,883
634000,82356,116452,85042,117810,1653,3800,2039,4025,-624,-2274,-270,16,75,13,883
635001,82600,116460,85239,118007,1707,3800,1701,3728,-797,-2720,882,-114,75,13,883
636002,82876,116468,85436,118204,1474,3800,1260,3541,-1056,-3092,1307,-30,67,12,884
637004,83120,116464,85633,118401,1653,3800,778,3474,-1303,-3480,1477,195,67,12,884
638004,83344,116468,85830,118598,1767,3800,340,3439,-1507,-3625,1375,121,53,1,885
639006,83604,116460,86027,118795,1514,3800,-44,3337,-1597,-3550,326,-61,53,1,885
640006,83788,116468,86224,118992,1996,3800,-424,3285,-1514,-3274,-1415,91,58,-1,883
641007,83964,116476,86421,119189,2055,3800,-831,3257,-1316,-2882,-2439,42,58,-1,883
642008,84160,116476,86618,119386,1932,3800,-1250,3191,-1093,-2684,-2799,-264,42,8,881
643009,84332,116460,86815,119583,2093,3800,-1710,2962,-876,-2506,-2883,-529,42,8,881
644010,84504,116468,87012,119780,2104,3800,-2178,2642,-652,-2413,-2668,-862,47,13,883
645012,84668,116468,87209,119977,2169,3800,-2611,2174,-399,-2517,-2030,-1025,47,13,883
646012,84836,116480,87406,120174,2157,3800,-3037,1605,-109,-2502,-2523,-1145,48,13,882
647013,84992,116476,87603,120371,2251,3800,-3447,996,183,-2321,-2996,-1127,48,13,882
648014,85156,116484,87800,120568,2215,3800,-3754,407,441,-2208,-3062,-1123,39,9,882
649015,85340,116488,87997,120765,2097,3800,-3953,-243,659,-2113,-3393,-1003,39,9,882
650016,85500,116492,88194,120962,2263,3800,-4086,-844,865,-2019,-3896,-640,47,9,881
651017,85676,116492,88391,121159,2174,3800,-4236,-1332,1098,-1885,-4360,89,47,9,881
652018,85848,116508,88588,121356,2210,3800,-4411,-1608,1321,-1834,-4550,753,32,12,881
653019,86016,116520,88785,121553,2248,3800,-4588,-1720,1487,-2006,-4510,1457,32,12,881
654020,86188,116524,88982,121750,2235,3800,-4749,-1678,1562,-2148,-4349,2203,30,12,881
655021,86376,116540,89179,121947,2139,3800,-4882,-1526,1529,-2232,-4167,2705,30,12,881
656022,86580,116564,89376,122144,2037,3800,-4982,-1303,1396,-2354,-4163,3308,45,15,882
657023,86732,116564,89573,122341,2382,3800,-5029,-1044,1225,-2331,-4384,3712,45,15,882
658024,86944,116596,89770,122538,2001,3800,-5039,-738,1075,-2190,-4640,4385,28,17,882
659025,87116,116612,89967,122735,2262,3800,-5003,-330,968,-1980,-4694,4736,28,17,882
660026,87288,116612,90164,122932,2274,3800,-4929,70,818,-1800,-3796,4920,51,13,880
661027,87476,116624,90361,123129,2178,3800,-4796,342,526,-1814,-2333,4783,51,13,880
662029,87656,116620,90558,123326,2237,3800,-4623,474,107,-1708,-1325,4864,30,13,881
663029,87840,116616,90755,123523,2218,3800,-4436,530,-325,-1435,-916,4848,30,13,881
664030,88084,116628,90952,123720,1823,3800,-4267,474,-667,-1129,-869,4909,56,5,881
665031,88304,116624,91149,123917,1963,3800,-4138,443,-865,-854,-1209,5167,56,5,881
666032,88516,116640,91346,124114,2007,3800,-4046,302,-943,-586,-1219,5284,48,-2,883
667033,88744,116648,91543,124311,1895,3800,-3971,191,-1013,-274,-527,5423,48,-2,883
668034,88956,116656,91740,124508,1988,3800,-3514,293,-1125,22,-233,8448,35,14,882
669035,89128,116668,91937,124705,2250,3800,8,6015,-1043,1552,-1325,32767,35,14,882
670036,89316,116672,92134,124902,2154,3800,4814,13429,-868,1462,-501,32767,37,15,883
671037,89464,116700,92331,125099,2426,3800,6601,14226,-901,1695,1546,896,37,15,883
672038,89620,116736,92528,125296,2394,3800,6139,10289,-1010,2000,1705,-3231,43,10,882
673039,89752,116740,92725,125493,2574,3800,5375,5718,-1046,2346,296,-3855,43,10,882
674040,89908,116788,92922,125690,2442,3800,4860,2695,-894,1885,-451,-1796,43,20,880
675050,90024,116820,93152,125920,2743,3800,4489,696,-624,1218,-837,-734,43,20,880
676042,90140,116888,93349,126117,2780,3800,3895,-694,-439,1139,-1286,1095,36,16,879
677043,90296,116928,93546,126314,2548,3800,3240,-1955,-370,319,-775,1211,36,16,879
678045,90408,116964,93743,126511,2861,3800,2644,-3400,-442,-383,-119,1506,27,14,879
679045,90544,117016,93940,126708,2738,3800,2116,-4632,-699,-713,589,1971,27,14,879
680046,90644,117068,94137,126905,3007,3800,1695,-5756,-995,-1436,1397,2236,14,22,879
681047,90760,117156,94334,127102,2943,3800,1301,-6246,-1203,-1565,1399,4353,14,22,879
682048,90860,117236,94531,127299,3086,3800,812,-6059,-1275,-1817,615,6079,25,14,878
683049,90992,117360,94728,127496,2915,3800,419,-5660,-1174,-2450,384,6411,25,14,878
684050,91088,117508,94925,127693,3186,3800,179,-5067,-1028,-2675,660,7030,37,32,877
685051,91224,117708,95122,127890,2963,3800,98,-4621,-878,-2817,553,6604,37,32,877
686052,91340,118004,95319,128087,3124,3800,108,-4126,-609,-3038,180,6969,17,42,877
687053,91448,118324,95516,128284,3214,3800,182,-3658,-230,-2835,155,6631,17,42,877
688054,91552,118708,95713,128481,3281,3800,317,-3288,198,-2426,419,6162,32,74,879
689055,91660,119100,95910,128678,3296,3800,504,-2999,641,-2317,700,5897,32,74,879
690056,91748,119448,96107,128875,3469,3800,697,-2966,1016,-2156,1101,4838,34,85,879
691057,91848,119868,96304,129072,3438,3800,872,-3012,1325,-1748,1187,4593,34,85,879
692058,91944,120324,96501,129269,3508,3800,992,-2895,1626,-1185,1084,5126,24,96,878
693059,92032,120724,96698,129466,3607,3800,1111,-2670,1952,-556,787,5054,24,96,878
694060,92148,121172,96895,129663,3469,3800,1274,-2450,2201,-250,984,4617,37,100,878
695062,92280,121636,97092,129860,3398,3800,1505,-2548,2327,128,1330,3702,37,100,878
696063,92376,122080,97289,130057,3669,3800,1765,-2822,2360,652,1404,3212,22,94,877
697064,92492,122612,97486,130254,3580,3800,2029,-3206,2353,761,1173,2673,22,94,877
698064,92628,123160,97683,130451,3483,3800,2290,-3730,2342,1051,957,2271,33,88,876
699065,92732,123568,97880,130648,3724,3800,2526,-4215,2369,1575,720,2416,33,88,876
700066,92844,124068,98077,130845,3712,3800,2728,-4511,2448,1976,693,2671,21,100,878
701068,92980,124508,98274,131042,3590,3800,2882,-4677,2507,2240,760,2852,21,100,878
702068,93092,124892,98471,131239,3778,3800,3003,-4822,2472,2394,931,2834,19,92,876
703070,93216,125328,98668,131436,3736,3800,3089,-4847,2352,2497,1116,3153,19,92,876
704070,93352,125720,98865,131633,3690,3800,3153,-4801,2230,2782,874,3095,37,79,875
705072,93476,126092,99062,131830,3798,3800,3184,-4657,2159,3038,501,3326,37,79,875
706072,93608,126500,99259,132027,3778,3800,3175,-4311,2166,3096,-19,3830,41,88,876
707074,93764,126908,99456,132224,3647,3800,3144,-3954,2207,3226,-295,3575,41,88,876
708074,93904,127340,99653,132421,3773,3800,3119,-3613,2262,3340,-410,3560,46,85,875
709076,94044,127664,99850,132618,3799,3800,3076,-3114,2323,3263,-513,3988,46,85,875
710089,94184,128004,100047,132815,3800,3800,2972,-2491,2386,3571,-479,4292,41,88,874
711090,94324,128344,100244,133012,3800,3800,2825,-1771,2521,3798,-719,4309,41,88,874
712091,94456,128660,100441,133209,3800,3800,2743,-1171,2610,3683,-209,3650,33,74,876
713092,94596,128940,100638,133406,3800,3800,2707,-715,2574,3728,30,3239,33,74,876
714093,94724,129236,100835,133603,3800,3800,2638,-357,2439,3808,768,3288,35,71,874
715094,94848,129532,101032,133800,3800,3800,2495,229,2239,3833,1589,3832,35,71,874
716095,94988,129756,101229,133997,3800,3800,2289,941,1992,3713,1839,3844,36,51,874
717096,95120,129952,101426,134194,3800,3800,2049,1581,1644,3292,2108,3401,36,51,874
718097,95232,130124,101623,134391,3800,3800,1753,2157,1162,2776,2401,3339,35,39,873
719098,95352,130268,101820,134588,3800,3800,1392,2596,514,2163,2886,2666,35,39,873
720099,95464,130392,102017,134785,3800,3800,1021,2667,-275,1632,3185,1563,18,25,873
721100,95576,130496,102214,134982,3800,3800,663,2489,-1159,1229,3509,802,18,25,873
722101,95692,130580,102411,135179,3800,3800,219,2182,-2069,985,3703,644,33,13,872
723102,95832,130616,102608,135376,3800,3800,-377,1890,-2884,1029,3173,457,33,13,872
724103,95972,130648,102805,135573,3800,3800,-1002,1415,-3558,986,2843,-215,37,18,872
725104,96112,130656,103002,135770,3800,3800,-1558,836,-4061,897,2025,-339,37,18,872
726105,96304,130680,103199,135967,3800,3800,-2072,270,-4380,810,1281,-129,29,17,872
727106,96484,130692,103396,136164,3800,3800,-2583,-224,-4492,640,966,193,29,17,872
728107,96688,130708,103593,136361,3800,3800,-2998,-679,-4455,621,842,256,51,17,872
729108,96896,130740,103790,136558,3800,3800,-3264,-1032,-4305,658,801,677,51,17,872
730109,97104,130772,103987,136755,3800,3800,-3436,-1244,-4079,401,1031,1206,47,20,869
731110,97308,130768,104184,136952,3800,3800,-3580,-1334,-3816,96,754,1760,47,20,869
732098,97532,130788,104381,137149,3760,3800,-3643,-1358,-3531,-255,399,2027,34,17,872
733112,97740,130800,104578,137346,3800,3800,-3600,-1257,-3245,-565,188,2630,34,17,872
734101,97984,130816,104775,137543,3613,3800,-3519,-981,-2996,-773,204,3196,47,16,872
735102,98260,130836,104972,137740,3379,3800,-3471,-548,-2768,-920,-56,3969,47,16,872
736102,98516,130848,105169,137937,3479,3800,-3479,178,-2490,-910,-705,5063,58,18,874
737103,98768,130880,105366,138134,3482,3800,-3549,1124,-2142,-715,-1436,5907,58,18,874
738104,99068,130904,105563,138331,3138,3800,-3611,2108,-1793,-472,-1579,5960,46,9,875
739105,99332,130968,105760,138528,3334,3800,-3611,2875,-1515,-105,-1494,5553,46,9,875
740106,99592,131020,105957,138725,3333,3800,-3545,3436,-1333,295,-1374,5205,62,23,876
741107,99868,131068,106154,138922,3200,3800,-3429,3800,-1228,639,-990,4809,62,23,876
742108,100124,131152,106351,139119,3300,3800,-3261,4029,-1202,912,-526,4581,54,12,874
743109,100376,131244,106548,139316,3302,3800,-3072,4092,-1260,1283,-25,4322,54,12,874
744110,100668,131316,106745,139513,3011,3800,-2861,4012,-1398,1616,248,3989,52,19,876
745111,100956,131412,106942,139710,2997,3800,-2624,3743,-1593,1787,244,3671,52,19,876
746112,101240,131528,107139,139907,2986,3800,-2375,3362,-1830,1756,-5,3476,62,20,878
747113,101540,131640,107336,140104,2842,3800,-2135,2916,-2089,1596,-466,3492,62,20,878
748114,101832,131748,107533,140301,2851,3800,-1925,2496,-2355,1436,-799,3537,69,24,878
749115,102152,131864,107730,140498,2623,3800,-1744,2034,-2616,1227,-1022,3608,69,24,878
750116,102504,132004,107927,140695,2356,3800,-1614,1531,-2885,1031,-707,3478,59,24,880
751117,102844,132156,108124,140892,2369,3800,-1531,1012,-3181,729,-157,3655,59,24,880
752118,103156,132276,108321,141089,2494,3800,-1463,510,-3466,444,-64,3861,57,39,881
753119,103508,132428,108518,141286,2177,3800,-1379,72,-3715,207,-105,4010,57,39,881
754120,103832,132536,108715,141483,2297,3800,-1276,-276,-3928,-99,-39,4287,73,40,881
755121,104160,132664,108912,141680,2216,3800,-1157,-706,-4098,-322,24,4248,73,40,881
756122,104492,132808,109109,141877,2132,3800,-1044,-1088,-4197,-519,14,4510,79,33,882
757123,104820,132952,109306,142074,2101,3800,-936,-1514,-4202,-840,211,4468,79,33,882
758131,105132,133088,109536,142304,2165,3800,-806,-2001,-4115,-1183,348,4334,71,24,883
759125,105444,133228,109733,142501,2115,3800,-636,-2488,-3956,-1449,319,4390,71,24,883
760127,105760,133364,109930,142698,2039,3800,-446,-2964,-3736,-1701,295,4452,69,35,882
761128,106056,133516,110127,142895,2122,3800,-263,-3313,-3448,-1910,49,4970,69,35,882
762129,106356,133680,110324,143092,2052,3800,-70,-3536,-3117,-2098,211,5435,68,41,882
763129,106684,133840,110521,143289,1820,3800,140,-3729,-2804,-2307,902,5561,68,41,882
764130,106980,133996,110718,143486,1977,3800,342,-3904,-2510,-2415,1010,5753,64,42,882
765132,107280,134164,110915,143683,1908,3800,476,-3946,-2191,-2357,833,6199,64,42,882
766132,107608,134340,111112,143880,1676,3800,509,-3858,-1856,-2309,753,6478,68,42,884
767134,107920,134504,111309,144077,1726,3800,485,-3698,-1551,-2181,1114,6349,68,42,884
768134,108220,134700,111506,144274,1757,3800,454,-3582,-1303,-1930,1293,6223,67,30,884
769135,108552,134892,111703,144471,1498,3800,443,-3544,-1114,-1739,1196,5915,67,30,884
770136,108864,135088,111900,144668,1573,3800,444,-3591,-949,-1636,495,5675,77,48,885
771137,109160,135300,112097,144865,1630,3800,470,-3741,-804,-1507,-123,5257,77,48,885
772138,109504,135564,112294,145062,1266,3800,498,-3976,-699,-1137,-631,4979,71,50,886
773140,109768,135900,112491,145259,1737,3800,533,-4290,-604,-418,-951,4551,71,50,886
774141,110068,136316,112688,145456,1467,3800,590,-4661,-462,-10,-1484,4316,75,77,886
775141,110416,136748,112885,145653,1102,3800,666,-5102,-273,27,-2103,4043,75,77,886
776143,110708,137216,113082,145850,1410,3800,734,-5688,-99,260,-2146,3752,52,93,886
777144,110980,137752,113279,146047,1503,3800,761,-6179,48,617,-2213,4074,52,93,886
778145,111288,138280,113476,146244,1229,3800,749,-6642,186,1055,-2123,3885,63,111,890
779145,111584,138904,113673,146441,1262,3800,728,-7041,328,1336,-2022,4001,63,111,890
780146,111836,139464,113870,146638,1512,3800,692,-7430,455,1447,-1998,4196,73,113,889
781147,112132,140044,114067,146835,1194,3800,613,-7673,550,1640,-2104,4745,73,113,889
782148,112408,140552,114264,147032,1285,3800,489,-7826,604,1908,-2060,4935,49,120,891
783149,112644,141088,114461,147229,1518,3800,352,-7975,649,2217,-1951,4968,49,120,891
784150,112924,141584,114658,147426,1207,3800,200,-8007,699,2515,-2051,5419,70,98,890
785151,113160,142012,114855,147623,1465,3800,46,-7953,754,2670,-2081,5462,70,98,890
786152,113396,142352,115052,147820,1448,3800,-97,-7901,836,2921,-2235,5532,62,78,887
787153,113608,142680,115249,148017,1592,3800,-246,-7707,959,3275,-2440,6205,62,78,887
788154,113808,142916,115446,148214,1666,3800,-462,-7328,1137,3573,-2620,6919,37,47,887
789155,113996,143112,115643,148411,1745,3800,-654,-6899,1309,3835,-2330,6674,37,47,887
790156,114184,143284,115840,148608,1749,3800,-785,-6647,1429,4003,-2025,6229,33,29,884
791157,114400,143492,116037,148805,1567,3800,-908,-6351,1605,4157,-2609,6786,33,29,884
792158,114560,143724,116234,149002,1933,3800,-1137,-5789,1970,4529,-3534,7437,40,49,884
793159,114732,144012,116431,149199,1869,3800,-1349,-5314,2389,4547,-3705,6694,40,49,884
794160,114916,144320,116628,149396,1801,3800,-1448,-5052,2707,4480,-3899,6288,39,72,886
795161,115096,144704,116825,149593,1833,3800,-686,-4043,2732,6664,-4252,15014,39,72,886
796162,115256,145096,117022,149790,1975,3800,1047,-1164,2353,9548,-4600,27989,50,72,885
797164,115424,145532,117219,149987,1938,3800,2138,-5,2129,4877,-3231,6475,50,72,885
798164,115580,145948,117416,150184,2031,3800,2382,-477,2132,3579,-3177,3827,47,83,885
799165,115708,146328,117613,150381,2237,3800,2356,-1422,2185,2731,-3755,3905,47,83,885
800154,115864,146796,117810,150578,2081,3400,2482,-1801,2167,1811,-4095,4667,33,100,886
801155,116000,147332,118007,150775,2232,2827,2743,-1782,2027,859,-3824,4925,33,100,886
802155,116144,147804,118204,150972,2206,3106,3095,-1447,1855,157,-3858,5490,43,88,885
803157,116288,148328,118401,151169,2230,2638,3474,-905,1779,-571,-4581,6115,43,88,885
804157,116468,148788,118598,151366,2013,2922,3869,-376,1781,-1417,-4831,6098,48,98,890
805159,116604,149324,118795,151563,2315,2299,4254,138,1676,-2061,-3990,5937,48,98,890
806160,116760,149872,118992,151760,2208,2070,4613,618,1408,-2618,-2774,5474,30,99,892
807161,116860,150344,119189,151957,2601,2425,4901,1013,1102,-3209,-2381,5539,30,99,892
808161,116972,150880,119386,152154,2564,1876,5061,1457,757,-3607,-1787,5673,24,93,891
809163,117056,151388,119583,152351,2789,1915,5127,1991,438,-3553,-1517,5677,24,93,891
810164,117136,151876,119780,152548,2866,1912,5184,2484,152,-3251,-1399,4849,15,106,890
811165,117220,152444,119977,152745,2891,1250,5281,2556,-216,-2924,-603,3169,15,106,890
812166,117328,153004,120174,152942,2781,1140,5409,2232,-684,-2453,148,2211,34,103,891
813167,117440,153600,120371,153139,2794,740,5559,1807,-1077,-1773,110,1864,34,103,891
814168,117564,154168,120568,153336,2752,752,5706,1320,-1296,-1153,-207,1367,22,104,893
815169,117748,154700,120765,153533,2382,829,5843,784,-1353,-407,-143,900,22,104,893
816169,117932,155248,120962,153730,2389,574,5968,143,-1290,518,-292,505,45,98,895
817171,118096,155828,121159,153927,2530,206,6065,-482,-1136,1110,-472,471,45,98,895
818172,118244,156320,121356,154124,2651,626,6135,-1036,-905,1337,-615,446,44,109,896
819173,118384,156832,121553,154321,2727,362,6201,-1678,-632,1591,-609,268,44,109,896
820173,118504,157272,121750,154518,2886,705,6211,-2110,-374,2175,-215,763,32,82,897
821175,118684,157676,121947,154715,2519,838,6146,-2258,-114,2697,144,1255,32,82,897
822176,118860,158136,122144,154912,2555,373,6020,-2163,187,3062,-9,1812,49,84,896
823177,119072,158504,122341,155109,2323,872,5851,-1690,530,3008,44,2834,49,84,896
824177,119324,158864,122538,155306,2050,849,5677,-868,850,2529,196,3539,61,79,897
825178,119544,159228,122735,155503,2241,751,5521,138,1078,2175,338,3828,61,79,897
826180,119752,159556,122932,155700,2311,917,5375,1313,1192,1962,511,4120,38,59,898
827181,119952,159872,123129,155897,2361,939,5213,2575,1218,2024,382,4168,38,59,898
828182,120164,160160,123326,156094,2279,1073,5028,3846,1195,2282,-36,3970,32,64,899
829183,120404,160468,123523,156291,2086,899,4836,5060,1140,2405,-35,3489,32,64,899
830184,120620,160772,123720,156488,2229,876,4676,6189,1029,2199,109,3029,62,56,896
831185,120836,161036,123917,156685,2220,1095,4526,7295,858,1656,177,2866,62,56,896
832186,121072,161296,124114,156882,2079,1092,4382,8225,621,1276,497,2308,39,62,899
833187,121292,161528,124311,157079,2169,1250,4205,8983,273,1501,1013,1466,39,62,899
834188,121536,161796,124508,157276,2000,993,3963,9504,-236,1831,1972,423,40,45,898
835189,121776,162052,124705,157473,2006,1042,3651,9707,-933,1868,2818,-621,40,45,898
836189,122016,162336,124902,157670,1988,828,3315,9605,-1780,1376,2995,-1394,56,59,898
837191,122264,162552,125099,157867,1916,1244,2995,9365,-2625,596,3025,-1676,56,59,898
838192,122480,162764,125296,158064,2108,1261,2651,9106,-3376,668,2983,-1574,54,55,899
839193,122692,163012,125493,158261,2127,1013,2174,8946,-4028,1267,2896,-1211,54,55,899
840194,122900,163224,125690,158458,2148,1230,1628,8771,-4660,1442,3328,-1719,35,36,898
841201,123132,163420,125920,158688,1998,1344,1098,8333,-5379,1179,4035,-2507,35,36,898
842196,123328,163592,126117,158885,2223,1504,645,7586,-6111,441,4446,-3193,43,33,898
843197,123524,163748,126314,159082,2225,1621,275,6672,-6715,-365,4559,-3576,43,33,898
844198,123692,163892,126511,159279,2412,1719,-9,5573,-7172,-420,4986,-4183,30,24,897
845199,123840,164044,126708,159476,2560,1688,-247,4430,-7513,-68,5220,-4046,30,24,897
846200,123996,164160,126905,159673,2528,1948,-493,3442,-7657,21,3904,-3433,31,26,895
847201,124140,164276,127102,159870,2627,1982,-800,2809,-7532,-457,2596,-2151,31,26,895
848201,124292,164380,127299,160067,2597,2097,-1160,2569,-7151,-1320,1461,-911,35,26,893
849203,124468,164512,127496,160264,2457,1950,-1497,2488,-6649,-1972,1107,-579,35,26,893
850204,124636,164700,127693,160461,2521,1603,-1789,2260,-6182,-2118,1437,-958,32,26,891
851205,124724,164840,127890,160658,3069,1928,-2014,1863,-5753,-2411,1571,-1071,32,26,891
852205,124828,164980,128087,160855,3011,1952,-2255,1516,-5318,-2823,1335,-656,14,32,890
853207,124948,165108,128284,161052,2945,2056,-2543,1236,-4911,-3017,1135,-362,14,32,890
854208,125072,165240,128481,161249,2953,2059,-2940,1152,-4514,-2964,717,615,17,19,888
855209,125196,165356,128678,161446,2986,2194,-3473,1255,-4106,-2863,248,1308,17,19,888
856210,125392,165492,128875,161643,2536,2095,-4038,1456,-3690,-2905,-390,1531,19,20,889
857210,125552,165608,129072,161840,2778,2255,-4584,1497,-3249,-2867,-621,1372,19,20,889
858212,125732,165720,129269,162037,2662,2316,-5031,1147,-2878,-2462,-51,227,30,36,888
859213,125920,165856,129466,162234,2616,2193,-5391,447,-2653,-2017,539,-473,30,36,888
860214,126068,165980,129663,162431,2888,2299,-5689,-643,-2485,-1755,708,-1094,40,26,889
861215,126196,166128,129860,162628,3045,2169,-6007,-1769,-2293,-1171,308,-454,40,26,889
862216,126336,166260,130057,162825,2995,2298,-6331,-2622,-2048,-464,82,284,35,18,889
863217,126464,166364,130254,163022,3101,2513,-6685,-3419,-1763,276,-105,643,35,18,889
864218,126624,166552,130451,163219,2918,1991,-7040,-4149,-1490,1082,-485,897,37,35,885
865219,126860,166676,130648,163416,2427,2423,-7343,-4999,-1250,1430,-784,963,37,35,885
866220,127068,166848,130845,163613,2597,2133,-7585,-5784,-1116,1535,-439,1587,35,37,886
867221,127308,167004,131042,163810,2379,2250,-7792,-6401,-1114,1638,17,2186,35,37,886
868221,127544,167136,131239,164007,2388,2428,-7987,-6796,-1154,1769,267,3169,55,32,890
869222,127772,167276,131436,164204,2425,2403,-8182,-6898,-1207,1974,293,4514,55,32,890
870223,127944,167436,131633,164401,2787,2294,-8406,-6562,-1296,2328,-211,6015,47,28,891
871224,128184,167612,131830,164598,2344,2202,-8598,-6172,-1444,2769,-157,6041,47,28,891
872225,128372,167772,132027,164795,2674,2317,-8684,-5829,-1660,3291,93,6044,38,37,889
873226,128636,167928,132224,164992,2169,2360,-8676,-5613,-1941,2985,-408,6050,38,37,889
874227,128884,168084,132421,165189,2248,2377,-8650,-5201,-2201,2491,-1126,7099,46,23,891
875229,129152,168216,132618,165386,2093,2556,-8608,-4667,-2404,2237,-1388,7555,46,23,891
876229,129360,168372,132815,165583,2463,2423,-8524,-4031,-2610,2241,-1658,7930,58,37,891
877231,129612,168484,133012,165780,2165,2735,-8410,-3467,-2868,2743,-1417,7744,58,37,891
878232,129880,168628,133209,165977,2034,2558,-8220,-3082,-3131,3242,-1300,7343,55,26,891
879233,130128,168764,133406,166174,2137,2634,-7985,-2816,-3323,3180,-1681,7265,55,26,891
880233,130372,168872,133603,166371,2142,2847,-7447,-2464,-3392,2904,-2249,8993,41,25,890
881235,130564,169012,133800,166568,2470,2672,-3500,4674,-3011,3741,-7821,32767,41,25,890
882235,130800,169140,133997,166765,2178,2777,1759,12994,-2479,3277,-5393,32767,39,37,890
883237,131052,169292,134194,166962,2055,2647,3895,13853,-2456,4199,679,654,39,37,890
884237,131344,169416,134391,167159,1764,2853,3791,10048,-2688,5063,1148,-1548,52,26,888
885239,131588,169564,134588,167356,2044,2724,3237,5697,-2757,5039,-501,-2256,52,26,888
886239,131856,169732,134785,167553,1863,2611,3142,2856,-2433,4070,-2126,-601,56,42,890
887241,132104,169904,134982,167750,1966,2597,3125,1086,-1820,3494,-2562,660,56,42,890
888241,132344,170092,135179,167947,1997,2501,2953,-229,-1274,4180,-2059,1420,47,30,891
889243,132624,170252,135376,168144,1712,2691,2728,-1675,-901,4105,-1393,1144,47,30,891
890243,132876,170440,135573,168341,1864,2520,2402,-3023,-668,3125,-1063,2266,52,29,891
891245,133096,170612,135770,168538,2054,2630,1873,-3776,-596,1851,-957,4136,52,29,891
892246,133368,170804,135967,168735,1697,2507,1422,-4320,-642,115,110,3885,63,42,892
893247,133620,170984,136164,168932,1797,2590,1070,-4482,-851,-713,1337,5419,63,42,892
894248,133864,171144,136361,169129,1828,2730,677,-4317,-1213,-702,1921,6172,53,50,890
895249,134136,171324,136558,169326,1620,2612,374,-3876,-1522,-1016,2183,6770,53,50,890
896250,134376,171476,136755,169523,1802,2806,225,-3190,-1715,-1851,1768,7614,49,45,891
897251,134652,171656,136952,169720,1542,2639,177,-2314,-1830,-2430,1349,7939,49,45,891
898251,134892,171832,137149,169917,1748,2673,207,-1449,-1822,-2876,1291,7746,40,39,893
899253,135156,172032,137346,170114,1570,2521,262,-552,-1786,-2665,1708,7785,40,39,893
900254,135460,172192,137543,170311,1273,2787,344,228,-1714,-2263,1710,7182,49,40,893
901255,135724,172384,137740,170508,1494,2589,450,851,-1511,-2375,1414,6866,49,40,893
902256,136000,172552,137937,170705,1385,2751,606,1311,-1178,-2694,983,6260,63,46,893
903257,136264,172700,138134,170902,1430,2897,772,1613,-851,-2702,1503,5689,63,46,893
904258,136560,172900,138331,171099,1188,2571,922,1677,-606,-2365,2542,4950,48,50,894
905259,136848,173112,138528,171296,1198,2488,1044,1575,-413,-1828,2945,4415,48,50,894
906260,137116,173308,138725,171493,1292,2589,1170,1225,-221,-1329,3134,3459,60,35,892
907261,137396,173532,138922,171690,1181,2402,1287,673,15,-1017,3125,3005,60,35,892
908262,137664,173728,139119,171887,1225,2576,1364,173,293,-706,2736,2917,53,47,895
909263,137932,173920,139316,172084,1194,2604,1403,-387,556,-371,2647,2503,53,47,895
910264,138196,174120,139513,172281,1190,2551,1414,-976,733,-25,2633,2397,58,48,896
911265,138460,174316,139710,172478,1161,2577,1378,-1598,807,218,2231,2179,58,48,896
912266,138732,174528,139907,172675,1078,2470,1313,-2142,814,105,1545,2266,37,40,895
913267,138956,174724,140104,172872,1366,2570,1200,-2615,799,-95,963,2446,37,40,895
914267,139188,174912,140301,173069,1301,2624,1031,-3007,753,-165,733,2593,34,42,895
915268,139380,175140,140498,173266,1554,2360,821,-3269,662,-231,681,2788,34,42,895
916269,139568,175352,140695,173463,1583,2452,533,-3382,577,-294,-37,3185,44,43,895
917271,139776,175564,140892,173660,1453,2446,110,-3335,576,-180,-1085,3683,44,43,895
918272,139960,175756,141089,173857,1609,2573,-210,-3440,488,193,-338,2523,49,52,894
919272,140156,175948,141286,174054,1535,2574,-507,-3637,316,795,-828,2703,49,52,894
920273,140364,176168,141483,174251,1455,2389,-958,-3695,163,1427,-1669,3009,28,37,894
921274,140568,176364,141680,174448,1477,2540,-1438,-3835,62,1959,-2036,2295,28,37,894
922275,140736,176516,141877,174645,1715,2833,-1725,-4322,-13,2259,-1994,958,26,31,894
923276,140960,176696,142074,174842,1353,2666,-1804,-5123,-72,2308,-1907,457,26,31,894
924284,141120,176856,142304,175072,1785,2821,-1833,-5751,-70,2073,-2080,1177,43,26,894
925279,141272,177016,142501,175269,1855,2837,-1976,-5961,16,1963,-2635,2404,43,26,894
926280,141448,177204,142698,175466,1714,2666,-2290,-5669,118,2067,-2869,3636,30,37,893
927281,141628,177364,142895,175663,1696,2856,-2562,-5245,180,2325,-2842,3386,30,37,893
928282,141760,177524,143092,175860,2026,2872,-2664,-5056,202,2556,-2694,2935,46,27,890
929283,141964,177660,143289,176057,1573,3049,-2679,-4915,220,2619,-2983,3072,46,27,890
930283,142112,177820,143486,176254,1944,2914,-2671,-4682,291,2502,-3483,3273,26,42,890
931284,142268,178012,143683,176451,1912,2717,-2634,-4367,408,2324,-3615,3546,26,42,890
932285,142432,178180,143880,176648,1878,2879,-2578,-3934,525,2198,-3434,3885,40,26,890
933287,142604,178316,144077,176845,1839,3106,-2500,-3411,600,2141,-3135,4046,40,26,890
934288,142772,178472,144274,177042,1877,2998,-2387,-2858,628,2236,-2812,4270,22,27,891
935288,142932,178632,144471,177239,1943,2989,-2246,-2183,632,2438,-2466,4577,22,27,891
936289,143108,178808,144668,177436,1853,2899,-2070,-1442,637,2564,-2013,4752,23,28,889
937290,143268,178944,144865,177633,1969,3174,-1866,-672,650,2549,-1590,4888,23,28,889
938291,143444,179084,145062,177830,1879,3174,-1645,83,646,2369,-740,4942,45,25,889
939292,143612,179224,145259,178027,1942,3199,-1436,860,599,2251,-235,4837,45,25,889
940294,143796,179344,145456,178224,1848,3358,-1216,1508,503,2163,82,4433,42,30,887
941295,143952,179476,145653,178421,2041,3312,-974,2046,370,2099,97,4146,42,30,887
942296,144164,179636,145850,178618,1685,3152,-730,2499,279,2092,-865,3930,49,27,888
943297,144376,179780,146047,178815,1679,3275,-531,2894,237,1990,-1001,3845,49,27,888
944297,144556,179908,146244,179012,1886,3406,-405,3266,175,1712,-55,3824,51,23,887
945299,144780,180040,146441,179209,1599,3409,-341,3602,89,1419,162,3699,51,23,887
946299,144952,180172,146638,179406,1936,3438,-288,3963,38,1190,-232,3851,30,28,888
947300,145144,180296,146835,179603,1814,3520,-227,4292,75,935,-723,3597,30,28,888
948301,145340,180440,147032,179800,1789,3417,-138,4480,175,644,-1046,3089,36,31,887
949303,145532,180592,147229,179997,1817,3387,-35,4554,261,395,-927,2777,36,31,887
950304,145724,180744,147426,180194,1819,3407,68,4463,339,335,-1019,2506,36,26,883
951304,145936,180924,147623,180391,1688,3239,146,4443,463,369,-1410,2965,36,26,883
952306,146088,181116,147820,180588,2084,3166,195,4537,627,254,-1340,3222,27,30,887
953306,146240,181328,148017,180785,2103,3035,195,4727,746,80,-982,3347,27,30,887
954307,146384,181544,148214,180982,2177,3002,106,4769,763,-176,-467,2933,25,35,889
955308,146552,181748,148411,181179,2040,3073,-5,4625,730,-255,-421,2438,25,35,889
956310,146672,181992,148608,181376,2374,2802,-58,4406,720,-220,-697,2467,40,38,888
957311,146816,182164,148805,181573,2248,3263,-65,4174,792,-346,-1342,2488,40,38,888
958312,146936,182332,149002,181770,2432,3301,-83,4080,885,-674,-1593,2776,37,45,887
959313,147048,182520,149199,181967,2520,3179,-118,4066,901,-954,-1831,3192,37,45,887
960313,147196,182736,149396,182164,2317,2996,-206,4075,827,-979,-2388,3356,34,36,886
961315,147364,183000,149593,182361,2205,2667,-308,4188,729,-901,-2443,3523,34,36,886
962316,147536,183320,149790,182558,2191,2263,-393,4223,632,-1080,-1563,3474,29,66,885
963317,147704,183716,149987,182755,2230,1700,-465,4204,546,-1143,-1267,3531,29,66,885
964317,147852,184060,150184,182952,2376,1960,-536,4230,484,-1039,-1123,3557,50,77,891
965319,148004,184448,150381,183149,2372,1601,-592,4152,445,-807,-846,3378,50,77,891
966320,148140,184836,150578,183346,2499,1517,-619,3890,388,-674,-343,2845,31,86,895
967321,148296,185220,150775,183543,2393,1460,-622,3448,340,-615,-475,2659,31,86,895
968322,148428,185580,150972,183740,2571,1537,-623,2978,337,-592,-664,2660,45,70,894
969323,148548,185968,151169,183937,2681,1278,-599,2539,355,-615,-695,2813,45,70,894
970324,148712,186256,151366,184134,2421,1863,-569,2199,345,-696,-606,3266,22,78,895
971324,148820,186616,151563,184331,2811,1340,-560,1934,275,-804,-397,3601,22,78,895
972325,148968,187000,151760,184528,2582,1108,-563,1751,115,-741,6,3776,26,74,893
973327,149104,187356,151957,184725,2685,1212,-559,1586,-91,-419,517,3948,26,74,893
974328,149240,187776,152154,184922,2712,714,-553,1457,-290,-375,373,4240,44,88,892
975329,149376,188160,152351,185119,2740,856,-541,1324,-414,-421,-137,4164,44,88,892
976330,149528,188572,152548,185316,2660,587,-529,1146,-484,-523,-98,4296,35,78,894
977331,149680,188912,152745,185513,2680,973,-563,1145,-613,-713,413,5069,35,78,894
978332,149844,189288,152942,185710,2621,668,-639,1272,-819,-689,887,5226,48,71,895
979333,150016,189652,153139,185907,2582,670,-716,1292,-1067,-592,1452,4872,48,71,895
980333,150168,190020,153336,186104,2728,569,-818,1350,-1356,-604,1579,5407,50,62,895
981335,150336,190328,153533,186301,2640,894,-978,1551,-1599,-203,1407,5980,50,62,895
982336,150508,190648,153730,186498,2627,765,-1152,1914,-1757,229,1364,6312,39,55,897
983337,150676,190948,153927,186695,2666,844,-1293,2260,-1866,322,1321,6327,39,55,897
984338,150836,191196,154124,186892,2732,1145,-1352,2488,-1948,389,1305,5941,51,53,895
985339,151040,191468,154321,187089,2455,961,-1385,2672,-2012,691,1380,5943,51,53,895
986339,151220,191708,154518,187286,2613,1141,-1408,2850,-2054,816,1159,5906,33,51,895
987340,151408,191960,154715,187483,2568,1041,-1358,2914,-2045,611,275,5562,33,51,895
988341,151600,192196,154912,187680,2546,1124,-1168,2832,-1968,373,-821,5069,53,52,897
989343,151784,192448,155109,187877,2602,999,-912,2662,-1865,-29,-1282,4837,53,52,897
990344,151964,192648,155306,188074,2635,1321,-629,2527,-1818,-505,-1298,5075,53,38,896
991345,152172,192852,155503,188271,2456,1292,-380,2587,-1838,-768,-968,5765,53,38,896
992346,152348,192980,155700,188468,2666,1797,-248,2900,-1965,-1088,-66,6417,47,41,895
993347,152536,193100,155897,188665,2596,1880,-223,3298,-2248,-1530,774,6449,47,41,895
994348,152748,193212,156094,188862,2439,1966,-257,3493,-2714,-1836,1616,5746,45,23,893
995349,152976,193340,156291,189059,2326,1896,-336,3504,-3272,-2087,1397,5450,45,23,893
996349,153176,193484,156488,189256,2501,1818,-460,3379,-3711,-2105,-203,5354,52,40,890
997351,153404,193632,156685,189453,2312,1814,-523,3105,-3930,-1995,-1938,4943,52,40,890
998352,153636,193756,156882,189650,2273,1995,-415,2796,-3972,-2040,-2593,5083,51,27,893
999353,153876,193896,157079,189847,2205,1919,166,3053,-3817,-2155,-3298,11290,51,27,893
1000354,154088,194020,157276,190044,2373,2051,1123,3865,-3526,-2062,-3209,13995,56,23,894
1001355,154312,194152,157473,190241,2288,2029,1686,3900,-3358,-1492,-1058,5494,56,23,894
1002356,154520,194296,157670,190438,2383,1976,1741,2952,-3312,-1157,-96,3334,55,38,894
1003356,154704,194440,157867,190635,2539,1998,1601,1864,-3235,-781,-438,3681,55,38,894
1004357,154896,194596,158064,190832,2493,1941,1445,1217,-2970,-664,-1207,4602,35,40,893
1005358,155068,194748,158261,191029,2629,1985,1284,789,-2556,-460,-1073,4797,35,40,893
1006360,155244,194900,158458,191226,2614,2004,1141,484,-2107,-38,-970,5209,45,38,890
1007370,155432,195052,158688,191456,2557,2037,1026,170,-1678,156,-540,5493,45,38,890
1008361,155596,195228,158885,191653,2723,1896,957,-44,-1303,134,-337,6217,28,42,891
1009363,155756,195360,159082,191850,2765,2199,955,-180,-1064,334,-107,7011,28,42,891
1010363,155960,195496,159279,192047,2487,2200,986,-233,-911,519,74,7540,37,28,891
1011364,156128,195612,159476,192244,2726,2360,943,-150,-809,512,458,7314,37,28,891
1012365,156288,195760,159673,192441,2793,2181,774,-167,-819,365,869,6503,27,42,890
1013366,156464,195916,159870,192638,2702,2148,520,-221,-947,132,1184,6342,27,42,890
1014368,156604,196092,160067,192835,2953,2032,283,-305,-1130,113,1001,6069,28,30,888
1015368,156748,196244,160264,193032,2953,2201,124,-443,-1257,343,38,5736,28,30,888
1016369,156908,196408,160461,193229,2869,2140,17,-628,-1281,375,-843,5266,23,29,888
1017370,157052,196568,160658,193426,2993,2181,-37,-1152,-1275,333,-945,4253,23,29,888
1018372,157180,196712,160855,193623,3124,2303,-6,-1844,-1337,524,-619,3723,39,28,887
1019372,157308,196864,161052,193820,3155,2273,123,-2662,-1447,717,-515,3292,39,28,887
1020373,157448,197020,161249,194017,3106,2265,321,-3444,-1547,895,-471,3278,34,38,888
1021375,157576,197164,161446,194214,3212,2363,554,-4171,-1622,1052,-134,3419,34,38,888
1022376,157732,197308,161643,194411,3055,2385,799,-4793,-1645,1228,123,3672,33,34,885
1023377,157872,197464,161840,194608,3181,2328,1048,-5265,-1648,1283,476,4044,33,34,885
1024378,158020,197612,162037,194805,3154,2399,1305,-5627,-1707,1231,905,3977,43,42,886
1025379,158192,197784,162234,195002,3016,2259,1558,-5966,-1794,1198,709,4217,43,42,886
1026380,158352,197948,162431,195199,3108,2323,1807,-6104,-1846,1244,385,4645,41,34,886
1027381,158532,198116,162628,195396,2991,2310,2058,-6137,-1836,1286,288,4757,41,34,886
1028381,158724,198268,162825,195593,2919,2430,2320,-6015,-1806,1226,298,4875,30,37,886
1029383,158908,198412,163022,195790,2975,2502,2602,-5956,-1812,1155,460,4649,30,37,886
1030384,159100,198576,163219,195987,2929,2392,2898,-5790,-1869,1058,595,4924,31,46,887
1031385,159308,198736,163416,196184,2824,2432,3168,-5431,-1921,936,486,5460,31,46,887
1032386,159520,198908,163613,196381,2793,2368,3373,-4821,-1888,1047,314,6212,48,36,886
1033387,159720,199084,163810,196578,2868,2351,3506,-3935,-1757,1088,254,6711,48,36,886
1034388,159920,199252,164007,196775,2868,2414,3596,-3016,-1597,1135,584,6362,49,42,887
1035388,160148,199408,164204,196972,2680,2506,3705,-2181,-1454,1256,842,5935,49,42,887
1036389,160332,199572,164401,197169,2961,2470,3830,-1548,-1327,1339,839,5222,33,36,887
1037391,160536,199752,164598,197366,2834,2378,3968,-1166,-1201,1436,821,4378,33,36,887
1038392,160740,199948,164795,197563,2831,2277,4114,-974,-1085,1583,766,3640,52,49,887
1039393,160964,200140,164992,197760,2696,2305,4258,-911,-961,1764,561,3043,52,49,887
1040394,161204,200308,165189,197957,2577,2466,4372,-890,-815,1906,380,2821,40,44,887
1041395,161392,200480,165386,198154,2907,2452,4454,-901,-671,1973,355,2580,40,44,887
1042396,161596,200644,165583,198351,2805,2516,4492,-923,-554,1996,388,2530,35,45,889
1043397,161800,200780,165780,198548,2803,2718,4483,-887,-462,2022,313,2515,35,45,889
1044397,162028,200980,165977,198745,2639,2315,4415,-777,-389,2040,271,2667,40,45,888
1045399,162272,201208,166174,198942,2519,2127,4289,-578,-317,2138,296,2918,40,45,888
1046400,162492,201424,166371,199139,2660,2193,4114,-343,-292,2081,632,2947,53,40,887
1047400,162716,201620,166568,199336,2624,2318,3879,-95,-362,2030,1080,2849,53,40,887
1048401,162940,201824,166765,199533,2612,2265,3586,155,-481,2042,1310,2863,44,47,891
1049402,163140,202028,166962,199730,2762,2261,3284,328,-594,2122,1394,2574,44,47,891
1050403,163340,202264,167159,199927,2762,2043,2981,349,-690,2251,1482,2179,53,54,889
1051404,163536,202456,167356,200124,2788,2320,2657,340,-767,2325,1427,2027,53,54,889
1052405,163740,202664,167553,200321,2735,2215,2322,248,-818,2325,1132,1740,54,35,889
1053406,163960,202884,167750,200518,2626,2129,1978,136,-822,2322,710,1619,54,35,889
1054407,164132,203048,167947,200715,2938,2493,1633,-47,-772,2204,324,1395,33,49,889
1055409,164328,203232,168144,200912,2788,2374,1309,-344,-708,2065,137,1100,33,49,889
1056410,164536,203448,168341,201109,2710,2165,959,-610,-687,1964,-26,1255,30,47,890
1057411,164712,203620,168538,201306,2920,2451,596,-806,-701,1784,-64,1392,30,47,890
1058411,164896,203812,168735,201503,2877,2327,237,-965,-726,1643,-246,1521,29,42,888
1059413,165080,203988,168932,201700,2882,2436,-110,-1049,-776,1475,-47,1732,29,42,888
1060413,165244,204180,169129,201897,3023,2337,-448,-1141,-872,1243,213,1877,25,34,886
1061415,165400,204360,169326,202094,3092,2420,-767,-1184,-1022,1075,409,1922,25,34,886
1062416,165612,204528,169523,202291,2736,2506,-1033,-1290,-1220,834,691,1736,47,39,886
1063417,165772,204672,169720,202488,3077,2680,-1265,-1382,-1450,743,786,1994,47,39,886
1064417,165984,204816,169917,202685,2747,2703,-1465,-1409,-1655,775,645,2165,31,39,886
1065419,166216,204976,170114,202882,2607,2618,-1648,-1462,-1816,741,532,2161,31,39,886
1066419,166420,205144,170311,203079,2780,2581,-1811,-1445,-1981,626,662,2299,35,45,885
1067421,166628,205300,170508,203276,2751,2673,-1936,-1579,-2138,607,721,2007,35,45,885
1068421,166832,205452,170705,203473,2774,2718,-2070,-1614,-2259,714,673,2503,49,26,888
1069423,167068,205596,170902,203670,2557,2791,-2187,-1599,-2335,726,894,2387,49,26,888
1070423,167288,205736,171099,203867,2648,2840,-2267,-1692,-2420,582,1112,2277,51,25,887
1071425,167540,205876,171296,204064,2424,2865,-2329,-1782,-2534,481,1154,2311,51,25,887
1072425,167852,206060,171493,204261,2000,2596,-2376,-1931,-2680,402,1286,2189,64,29,886
1073427,168128,206236,171690,204458,2191,2654,-2422,-1999,-2877,381,1421,2499,64,29,886
1074427,168424,206444,171887,204655,2022,2449,-2453,-2107,-3108,224,1416,2406,63,29,887
1075428,168708,206664,172084,204852,2060,2364,-2494,-2142,-3359,111,1528,2879,63,29,887
1076429,168968,206884,172281,205049,2183,2353,-2531,-2071,-3630,108,1709,2932,52,37,890
1077431,169264,207120,172478,205246,1915,2236,-2530,-2120,-3880,173,1610,2542,52,37,890
1078431,169580,207400,172675,205443,1739,1923,-2487,-2227,-4116,256,1635,2493,61,46,892
1079433,169868,207628,172872,205640,1874,2235,-2421,-2500,-4383,271,1737,2086,61,46,892
1080433,170152,207856,173069,205837,1861,2221,-2314,-2795,-4641,459,1437,2001,70,53,894
1081434,170444,208072,173266,206034,1771,2287,-2200,-3148,-4771,745,624,2021,70,53,894
1082435,170716,208288,173463,206231,1863,2279,-2052,-3553,-4761,1010,-124,1845,68,35,893
1083436,170996,208476,173660,206428,1777,2458,-1870,-3934,-4699,954,-727,1849,68,35,893
1084437,171332,208624,173857,206625,1366,2728,-1654,-4338,-4662,868,-998,1872,45,37,893
1085439,171604,208748,174054,206822,1734,2910,-1477,-4563,-4605,872,-1473,2842,45,37,893
1086439,171912,208856,174251,207019,1460,3048,-1351,-4452,-4497,724,-1531,3793,67,35,893
1087441,172236,208968,174448,207216,1306,3061,-1243,-4188,-4348,811,-1328,4267,67,35,893
1088442,172552,209092,174645,207413,1303,3018,-1143,-3768,-4216,1102,-939,4818,47,23,891
1089443,172856,209236,174842,207610,1331,2915,-1010,-3373,-4146,1074,-223,4627,47,23,891
1090451,173128,209372,175072,207840,1514,3006,-828,-3024,-4159,823,272,4576,47,38,891
1091445,173392,209540,175269,208037,1534,2819,-645,-2730,-4247,570,582,4525,47,38,891
1092445,173636,209724,175466,208234,1639,2725,-440,-2590,-4286,576,279,4189,54,26,892
1093447,173932,209932,175663,208431,1271,2569,-270,-2441,-4184,862,-529,4216,54,26,892
1094448,174216,210152,175860,208628,1308,2484,-163,-2215,-3942,1015,-966,4593,63,38,891
1095448,174480,210380,176057,208825,1404,2420,-113,-2010,-3608,971,-1364,4490,63,38,891
1096450,174772,210636,176254,209022,1188,2218,-75,-1788,-3249,1200,-1508,4550,47,47,894
1097450,175044,210872,176451,209219,1280,2326,77,-1418,-2447,1367,-882,4380,47,47,894
1098452,175296,211096,176648,209416,1381,2389,229,-1373,-2010,1487,-696,3957,47,45,895
1099452,175604,211296,176845,209613,983,2537,398,-1451,-1552,1431,-784,3995,47,45,895
1100453,175844,211484,177042,209810,1389,2616,482,-1343,-1098,1399,-1347,4338,45,35,895
1101455,176100,211648,177239,210007,1263,2780,521,-1102,-646,1129,-1934,4629,45,35,895
1102455,176364,211800,177436,210204,1184,2874,529,-775,-171,690,-2232,5222,59,36,895
1103456,176608,211964,177633,210401,1288,2814,500,-274,332,631,-2334,5716,59,36,895
1104458,176836,212180,177830,210598,1375,2480,473,294,833,647,-2331,5624,48,48,893
1105459,177084,212388,178027,210795,1228,2525,458,795,1302,304,-2377,5543,48,48,893
1106460,177360,212564,178224,210992,1018,2734,485,1160,1722,22,-2475,5254,49,39,892
1107461,177592,212708,178421,211189,1278,2957,487,1581,2120,-110,-2729,5690,49,39,892
1108461,177812,212844,178618,211386,1343,3034,476,2217,2540,-364,-3019,6071,41,39,895
1109463,178072,212980,178815,211583,1065,3060,472,2743,2954,-725,-3115,5675,41,39,895
1110464,178304,213160,179012,211780,1226,2792,540,3125,3285,-1120,-2893,5290,47,30,892
1111464,178500,213316,179209,211977,1451,2960,650,3370,3538,-1360,-2718,5148,47,30,892
1112466,178736,213464,179406,212174,1184,3032,764,3607,3740,-1416,-2633,5084,58,27,892
1113467,178968,213580,179603,212371,1194,3266,856,3866,3884,-1751,-2288,5072,58,27,892
1114467,179156,213732,179800,212568,1473,3061,905,4074,3827,-2292,-740,4964,36,26,891
1115468,179348,213868,179997,212765,1450,3188,913,4164,3556,-2465,411,4466,36,26,891
1116469,179564,213996,180194,212962,1291,3268,847,4233,3254,-2454,15,4708,54,31,889
1117471,179752,214120,180391,213159,1471,3324,730,4372,3019,-2588,-130,4944,54,31,889
1118471,179952,214256,180588,213356,1395,3276,554,4485,2831,-2790,-197,4859,45,36,889
1119472,180108,214404,180785,213553,1688,3223,306,4533,2691,-2988,-254,4827,45,36,889
1120474,180280,214588,180982,213750,1599,3003,3,4510,2606,-3114,-269,4793,33,41,889
1121475,180420,214764,181179,213947,1824,3062,-306,4442,2588,-3250,-427,4720,33,41,889
1122476,180596,214936,181376,214144,1608,3098,-591,4273,2669,-3447,-796,4462,44,26,889
1123477,180736,215104,181573,214341,1858,3135,-844,3966,2854,-3471,-1470,3960,44,26,889
1124477,180856,215276,181770,214538,2017,3121,-1063,3460,3069,-3432,-1271,3503,28,26,889
1125479,180972,215460,181967,214735,2079,3052,-1276,2734,3245,-3398,-674,2985,28,26,889
1126480,181044,215664,182164,214932,2409,2924,-1468,1848,3368,-3334,-693,2637,35,33,888
1127480,181136,215868,182361,215129,2330,2921,-1613,936,3542,-3258,-1567,2627,35,33,888
1128482,181220,216136,182558,215326,2429,2490,-1721,53,3811,-3147,-2039,3033,17,45,887
1129483,181288,216432,182755,215523,2587,2271,-1835,-681,4100,-3115,-2035,3453,17,45,887
1130484,181344,216732,182952,215720,2724,2200,-1916,-1390,4303,-2971,-1191,3394,12,58,888
1131484,181420,217048,183149,215917,2652,2047,-1902,-2144,4399,-2494,-431,3324,12,58,888
1132486,181500,217388,183346,216114,2679,1835,-1782,-2890,4444,-2038,-254,3620,20,57,890
1133487,181612,217740,183543,216311,2517,1692,-1649,-3451,4464,-1953,-563,4293,20,57,890
1134488,181680,218104,183740,216508,2849,1542,-1539,-3862,4439,-1961,-1010,4733,19,64,890
1135489,181780,218468,183937,216705,2692,1469,-1404,-4257,4348,-1888,-1263,4884,19,64,890
1136489,181896,218852,184134,216902,2628,1262,-1235,-4597,4161,-1811,-1307,4995,19,70,893
1137491,181980,219300,184331,217099,2878,750,-1037,-4866,3896,-1464,-1481,5133,19,70,893
1138491,182080,219700,184528,217296,2821,961,-840,-5121,3624,-839,-1445,5383,29,81,891
1139492,182180,220064,184725,217493,2864,1113,-675,-5343,3385,85,-1189,5411,29,81,891
1140493,182264,220480,184922,217690,3015,690,-512,-5511,3223,1169,-963,5536,18,77,894
1141495,182336,220860,185119,217887,3144,835,-292,-5692,3100,2138,-630,5475,18,77,894
1142495,182408,221236,185316,218084,3200,780,-4,-5935,2935,2842,-264,5022,23,77,893
1143496,182480,221572,185513,218281,3255,968,374,-6247,2728,3423,35,4662,23,77,893
1144497,182548,221912,185710,218478,3338,880,807,-6569,2470,3885,237,4833,16,70,892
1145499,182624,222248,185907,218675,3342,843,1250,-6760,2171,4279,239,4963,16,70,892
1146499,182700,222552,186104,218872,3395,995,1706,-6862,1892,4507,-14,4933,20,72,891
1147500,182804,222812,186301,219069,3262,1243,2151,-6866,1648,4694,46,5216,20,72,891
1148501,182936,223048,186498,219266,3116,1374,2557,-6642,1394,4590,135,5885,35,47,889
1149503,183084,223332,186695,219463,3038,1035,2868,-5956,1149,4230,-276,7289,35,47,889
1150503,183256,223596,186892,219660,2900,1131,3121,-4887,910,3883,-381,8088,39,61,889
1151504,183412,223828,187089,219857,3019,1314,3410,-3732,626,3434,-180,8044,39,61,889
1152505,183560,224092,187286,220054,3091,1084,3706,-2436,313,3018,-205,8229,40,46,892
1153507,183676,224332,187483,220251,3327,1214,3966,-1153,-19,2902,17,8089,40,46,892
1154508,183768,224568,187680,220448,3525,1221,4175,59,-345,3146,570,7679,20,61,891
1155509,183884,224820,187877,220645,3410,1097,4359,1213,-598,3537,914,7286,20,61,891
1156509,183988,225076,188074,220842,3527,1045,4528,2293,-751,3739,1006,6808,15,42,888
1157511,184116,225308,188271,221039,3408,1178,4664,3318,-801,3747,702,6523,15,42,888
1158512,184280,225516,188468,221236,3199,1323,4769,4217,-809,3614,666,5755,21,50,889
1159512,184456,225744,188665,221433,3134,1183,4858,4876,-861,3300,792,4645,21,50,889
1160513,184632,226004,188862,221630,3143,955,4956,5257,-968,2887,796,3710,41,54,888
1161515,184820,226220,189059,221827,3073,1221,5031,5412,-1083,2526,769,3367,41,54,888
1162516,184948,226436,189256,222024,3480,1212,5027,5652,-1161,2251,686,3309,32,51,891
1163516,185060,226640,189453,222221,3618,1283,4939,5745,-1294,2089,1121,2528,32,51,891
1164517,185192,226824,189650,222418,3523,1412,4801,5737,-1512,2107,1402,2120,35,37,891
1165519,185320,227020,189847,222615,3578,1337,4631,5670,-1773,1923,1535,1689,35,37,891
1166519,185484,227212,190044,222812,3368,1364,4445,5455,-2006,1579,1363,1181,20,50,887
1167521,185668,227452,190241,223009,3250,1044,4250,5168,-2227,1114,1210,1001,20,50,887
1168521,185880,227652,190438,223206,3070,1292,3993,4897,-2501,627,1377,947,44,35,887
1169523,186056,227872,190635,223403,3305,1156,3654,4735,-2766,338,1085,1285,44,35,887
1170523,186212,228060,190832,223600,3449,1359,3265,4592,-2977,-108,692,1131,54,36,890
1171537,186316,228236,191029,223797,3800,1442,2891,4278,-3158,-268,522,714,54,36,890
1172525,186456,228420,191226,223994,3617,1396,2550,3902,-3315,-28,367,615,38,37,889
1173534,186600,228620,191456,224224,3629,1310,2212,3384,-3466,282,466,154,38,37,889
1174528,186756,228840,191653,224421,3574,1174,1842,2913,-3584,292,208,505,22,48,885
1175528,186928,229028,191850,224618,3485,1377,1494,2396,-3661,37,-30,228,22,48,885
1176529,187128,229192,192047,224815,3310,1540,1152,1886,-3703,-71,-592,521,48,37,887
1177531,187332,229364,192244,225012,3283,1500,795,1521,-3714,5,-754,788,48,37,887
1178532,187496,229524,192441,225209,3549,1590,432,1205,-3663,115,-794,1048,39,24,888
1179545,187612,229652,192638,225406,3800,1821,33,1023,-3543,471,-995,1971,39,24,888
1180546,187744,229772,192835,225603,3800,1903,-403,1014,-3403,906,-868,2535,30,38,888
1181547,187860,229904,193032,225800,3800,1856,-854,1099,-3271,1544,-766,2662,30,38,888
1182548,188004,230044,193229,225997,3800,1830,-1270,1040,-3201,1976,-360,2265,21,29,882
1183536,188212,230224,193426,226194,3397,1587,-1587,758,-3242,2000,228,1828,21,29,882
1184537,188396,230404,193623,226391,3554,1594,-1790,402,-3390,1900,409,1818,27,34,884
1185538,188600,230584,193820,226588,3426,1600,-1919,19,-3564,1860,356,2014,27,34,884
1186539,188820,230724,194017,226785,3317,1874,-2032,-285,-3676,2028,192,2363,38,30,888
1187553,188960,230892,194214,226982,3800,1711,-2168,-456,-3690,2304,-457,2940,38,30,888
1188554,189108,231036,194411,227179,3800,1885,-2287,-667,-3693,2501,-528,2804,39,27,887
1189542,189264,231176,194608,227376,3785,1934,-2332,-1054,-3804,2906,173,1965,39,27,887
1190556,189408,231320,194805,227573,3800,1931,-2332,-1557,-4002,3147,322,2008,22,34,884
1191544,189608,231496,195002,227770,3534,1739,-2306,-2000,-4210,2795,360,2451,22,34,884
1192545,189812,231676,195199,227967,3507,1722,-2277,-2219,-4353,2397,170,3055,46,30,882
1193546,190012,231832,195396,228164,3532,1889,-2247,-2377,-4447,2216,69,3182,46,30,882
1194547,190200,232000,195593,228361,3611,1825,-2208,-2388,-4519,2158,-216,3516,42,42,884
1195548,190368,232164,195790,228558,3750,1865,-2153,-2304,-4563,2008,-466,3764,42,42,884
1196562,190524,232312,195987,228755,3800,1985,-2063,-2395,-4587,2000,-452,3456,39,27,885
1197563,190656,232468,196184,228952,3800,1952,-1965,-2510,-4647,2178,-240,3435,39,27,885
1198551,190852,232620,196381,229149,3625,1997,-1887,-2531,-4720,2310,36,3711,20,28,884
1199552,191032,232748,196578,229346,3734,2176,-1823,-2434,-4765,2224,484,4253,20,28,884
1200553,191248,232948,196775,229543,3501,1724,-1826,-2013,-4811,1872,940,5330,45,35,883
1201554,191508,233196,196972,229740,3200,1402,-1847,-1458,-4663,1927,387,5507,45,35,883
1202555,191716,233376,197169,229937,3521,1833,-1816,-969,-4446,1932,1332,5183,42,49,884
1203556,191924,233544,197366,230134,3517,1920,-1796,-506,-4292,1848,1659,5482,42,49,884
1204557,192112,233680,197563,230331,3648,2147,-1877,-9,-4199,2054,1656,6029,44,30,888
1205558,192356,233856,197760,230528,3278,1905,-2105,726,-4083,2543,1288,6844,44,30,888
1206559,192576,234000,197957,230725,3419,2127,-2486,1820,-3969,2631,1937,7812,54,36,885
1207560,192856,234188,198154,230922,3009,1856,-2817,2777,-3891,2298,2843,6763,54,36,885
1208561,193124,234340,198351,231119,3054,2100,-2878,2987,-3806,1542,3079,4432,50,44,888
1209562,193376,234516,198548,231316,3130,1959,-2764,2557,-3767,790,3272,3505,50,44,888
1210563,193620,234664,198745,231513,3161,2155,-2561,2159,-3899,843,4592,3542,36,27,889
1211564,193884,234836,198942,231710,3007,2015,-2438,1832,-4089,1600,5198,3658,36,27,889
1212565,194156,234988,199139,231907,2925,2160,-2429,1807,-4142,1867,4597,4625,47,29,888
1213567,194400,235144,199336,232104,3081,2152,-2447,2039,-4145,996,4178,5237,47,29,888
1214567,194708,235280,199533,232301,2632,2303,-2374,2285,-4142,-173,3346,5153,59,28,888
1215568,194968,235396,199730,232498,2905,2463,-2205,2338,-4084,-685,2450,4807,59,28,888
1216569,195164,235544,199927,232695,3307,2283,-1966,2102,-4019,-292,2661,4059,43,31,886
1217570,195484,235708,200124,232892,2479,2198,-1742,1884,-3981,213,2544,4453,43,31,886
1218572,195732,235872,200321,233089,2907,2212,-1593,1870,-3955,-70,1687,4954,62,29,887
1219573,195988,236004,200518,233286,2832,2440,-1436,1807,-3900,-1153,683,4756,62,29,887
1220574,196176,236124,200715,233483,3262,2548,-1275,1770,-3841,-1848,123,4969,53,33,889
1221575,196412,236264,200912,233680,2946,2448,-1145,1683,-3792,-1423,-165,4781,53,33,889
1222576,196612,236432,201109,233877,3171,2285,-1055,1516,-3737,-657,-97,4732,34,31,887
1223577,196880,236604,201306,234074,2715,2271,-1002,1347,-3647,-439,-342,4772,34,31,887
1224578,197072,236772,201503,234271,3193,2307,-960,1163,-3565,-924,-54,4621,53,49,887
1225579,197272,236960,201700,234468,3142,2186,-903,898,-3508,-1632,393,4722,53,49,887
1226580,197480,237100,201897,234665,3089,2510,-854,699,-3507,-1813,665,4947,34,31,888
1227581,197700,237272,202094,234862,3004,2321,-832,528,-3511,-1040,492,4886,34,31,888
1228582,197864,237452,202291,235059,3370,2278,-839,346,-3442,276,854,4882,50,43,887
1229583,198140,237612,202488,235256,2635,2419,-881,297,-3269,770,603,5433,50,43,887
1230584,198388,237764,202685,235453,2789,2489,-940,306,-3034,49,269,5598,55,29,887
1231585,198628,237916,202882,235650,2821,2508,-970,259,-2827,-920,479,5497,55,29,887
1232586,198912,238076,203079,235847,2509,2474,-952,99,-2697,-922,890,5133,57,27,888
1233587,199152,238224,203276,236044,2766,2569,-903,-232,-2644,-11,1544,4383,57,27,888
1234588,199468,238380,203473,236241,2239,2538,-817,-843,-2578,1361,2251,3364,60,45,887
1235589,199832,238552,203670,236438,1866,2447,-792,-1477,-2417,2280,1630,3750,60,45,887
1236589,200252,238732,203867,236635,1419,2405,-824,-2032,-2139,2254,401,3810,80,41,886
1237591,200640,238912,204064,236832,1536,2412,-1016,-2265,-1808,1634,-741,4932,80,41,886
1238592,201104,239084,204261,237029,944,2472,-1206,-2551,-1572,1269,-483,3933,72,40,891
1239593,201476,239256,204458,237226,1443,2483,-1365,-2995,-1424,1160,-255,3841,72,40,891
1240594,201844,239432,204655,237423,1393,2467,-1566,-3207,-1254,975,-238,4823,83,33,894
1241595,202260,239644,204852,237620,998,2235,-1764,-3408,-1045,761,-89,4266,83,33,894
1242596,202600,239820,205049,237817,1410,2469,-1846,-3823,-795,760,153,3595,56,33,894
1243597,202932,240000,205246,238014,1401,2451,-1845,-4207,-546,764,605,3866,56,33,894
1244598,203292,240180,205443,238211,1155,2458,-1823,-4435,-341,568,911,4479,70,33,897
1245599,203612,240392,205640,238408,1352,2252,-1798,-4488,-174,65,954,4676,70,33,897
1246600,203900,240620,205837,238605,1512,2137,-1714,-4453,-27,-462,1057,4741,64,49,895
1247601,204188,240792,206034,238802,1473,2498,-1607,-4312,71,-750,1304,4929,64,49,895
1248601,204520,240988,206231,238999,1138,2347,-1517,-4007,106,-915,1563,5381,54,54,895
1249603,204824,241180,206428,239196,1266,2375,-1417,-3712,101,-900,2007,5129,54,54,895
1250603,205116,241380,206625,239393,1301,2323,-1240,-3508,18,-675,2019,4675,68,45,894
1251605,205420,241560,206822,239590,1179,2455,-1036,-3310,-44,-654,932,4615,68,45,894
1252606,205680,241712,207019,239787,1426,2650,-879,-3050,4,-1000,-277,4862,65,32,895
1253607,205924,241864,207216,239984,1505,2668,-859,-2670,210,-1396,-1130,5062,65,32,895
1254608,206184,242016,207413,240181,1379,2688,-961,-2338,478,-1658,-1216,4487,45,38,895
1255609,206400,242152,207610,240378,1645,2815,-998,-2190,697,-1475,-1025,3644,45,38,895
1256617,206588,242296,207840,240608,1839,2802,-912,-2440,857,-1080,-893,2571,47,25,892
1257611,206800,242444,208037,240805,1682,2798,-801,-2724,996,-487,-616,2894,47,25,892
1258612,206968,242588,208234,241002,1971,2847,-725,-2777,1106,226,-577,3123,29,38,889
1259613,207152,242732,208431,241199,1877,2869,-701,-2727,1152,714,-1035,3063,29,38,889
1260614,207360,242868,208628,241396,1722,2946,-954,-2257,1229,741,-2698,4661,48,33,890
1261615,207540,243044,208825,241593,1904,2705,-1173,-2047,1277,676,-2760,2738,48,33,890
1262616,207720,243196,209022,241790,1912,2875,-1150,-2200,1250,984,-2368,2085,31,40,890
1263617,207892,243368,209219,241987,1974,2760,-1021,-2535,1264,1329,-2615,2044,31,40,890
1264618,208048,243536,209416,242184,2092,2797,-938,-2777,1369,1812,-3153,2266,41,43,890
1265619,208216,243708,209613,242381,2029,2783,-934,-2801,1493,2210,-3557,2616,41,43,890
1266620,208400,243892,209810,242578,1936,2714,-1037,-2614,1616,2369,-4197,3350,35,34,890
1267621,208560,244080,210007,242775,2102,2692,-1362,-1954,1755,2360,-4937,4818,35,34,890
1268622,208692,244220,210204,242972,2306,3017,-1569,-1529,1828,2289,-4388,3184,43,35,889
1269623,208868,244416,210401,243169,2040,2668,-1548,-1405,1830,2425,-4064,2936,43,35,889
1270624,209016,244580,210598,243366,2238,2882,-1433,-1327,1802,2713,-4025,3324,23,40,889
1271624,209184,244772,210795,243563,2125,2708,-1334,-1053,1771,3169,-4046,3914,23,40,889
1272626,209368,244932,210992,243760,2031,2924,-1247,-449,1737,3300,-3938,4562,35,37,890
1273627,209540,245116,211189,243957,2118,2780,-1126,258,1668,3333,-3826,4605,35,37,890
1274628,209728,245296,211386,244154,2022,2813,-977,859,1552,3412,-3356,4553,31,34,889
1275628,209956,245484,211583,244351,1758,2766,-823,1458,1414,3436,-2946,4781,31,34,889
1276630,210128,245664,211780,244548,2119,2823,-669,2064,1239,3378,-2351,4852,48,29,889
1277631,210312,245848,211977,244745,2051,2804,-555,2812,1047,3332,-2052,5224,48,29,889
1278632,210516,246000,212174,244942,1923,3024,-467,3507,833,3182,-1779,5015,33,42,891
1279633,210704,246168,212371,245139,2027,2936,-350,3999,563,2929,-1566,4332,33,42,891
1280633,210892,246340,212568,245336,2032,2921,-209,4328,257,2795,-1933,3906,33,30,888
1281634,211088,246548,212765,245533,1982,2691,-63,4549,15,2534,-2232,3716,33,30,888
1282635,211332,246772,212962,245730,1662,2580,67,4863,-171,2192,-1693,4103,38,45,888
1283636,211532,246952,213159,245927,1936,2862,184,5231,-357,1854,-1361,3888,38,45,888
1284638,211720,247148,213356,246124,2015,2763,275,5466,-548,1689,-1247,3704,36,32,891
1285639,211912,247356,213553,246321,1993,2682,336,5614,-718,1553,-1213,3601,36,32,891
1286640,212084,247516,213750,246518,2130,2998,407,5698,-833,1190,-1192,3256,40,30,890
1287641,212244,247612,213947,246715,2221,3442,480,5854,-877,729,-1101,3462,40,30,890
1288642,212428,247724,214144,246912,2077,3380,534,5973,-848,394,-1098,3393,50,22,890
1289643,212560,247800,214341,247109,2431,3658,574,6077,-758,126,-958,3385,50,22,890
1290644,212724,247896,214538,247306,2246,3577,613,6190,-661,-310,-411,3308,53,15,884
1291645,212948,247984,214735,247503,1859,3674,677,6202,-568,-847,-514,3009,53,15,884
1292646,213136,248088,214932,247700,2089,3615,734,6264,-424,-1219,-714,3570,39,23,881
1293647,213308,248204,215129,247897,2200,3576,699,6449,-280,-1586,-65,3850,39,23,881
1294648,213504,248336,215326,248094,2050,3504,555,6685,-240,-1920,531,3816,47,18,884
1295649,213680,248476,215523,248291,2185,3479,448,6746,-262,-2350,675,3152,47,18,884
1296650,213840,248640,215720,248488,2302,3344,413,6596,-282,-2756,897,2866,53,31,883
1297651,213992,248880,215917,248685,2371,2850,374,6481,-223,-3021,909,3283,53,31,883
1298652,214152,249208,216114,248882,2339,2242,288,6482,-34,-3216,595,3573,30,52,884
1299653,214296,249508,216311,249079,2462,2372,179,6456,197,-3361,450,3337,30,52,884
1300654,214472,249876,216508,249276,2271,1872,57,6228,371,-3507,744,3099,45,61,888
1301655,214604,250184,216705,249473,2576,2198,-38,5855,451,-3727,903,2753,45,61,888
1302656,214712,250464,216902,249670,2765,2337,-118,5415,423,-3946,875,2793,43,55,889
1303657,214852,250748,217099,249867,2591,2273,-197,4999,352,-4063,101,2887,43,55,889
1304658,214976,251048,217296,250064,2723,2127,-268,4587,299,-4041,-468,3004,27,55,889
1305659,215128,251308,217493,250261,2569,2349,-328,4207,323,-3895,-454,3279,27,55,889
1306660,215304,251572,217690,250458,2428,2295,-369,3873,427,-3533,-313,3496,47,50,890
1307661,215472,251828,217887,250655,2491,2319,-411,3416,552,-3270,-73,3228,47,50,890
1308662,215636,252124,218084,250852,2531,2026,-478,2864,679,-3006,-40,3151,31,52,890
1309663,215820,252456,218281,251049,2412,1740,-541,2332,829,-2925,-199,3217,31,52,890
1310664,215980,252696,218478,251246,2579,2296,-538,1644,951,-2901,-59,2995,34,63,890
1311665,216128,252916,218675,251443,2676,2411,-515,987,1007,-2721,375,3480,34,63,890
1312666,216296,253108,218872,251640,2565,2587,-513,530,1016,-2406,669,3999,28,39,893
1313667,216492,253308,219069,251837,2390,2536,-533,231,964,-2171,1009,4610,28,39,893
1314667,216648,253540,219266,252034,2659,2321,-596,95,826,-1915,1288,5329,30,46,888
1315668,216848,253784,219463,252231,2383,2225,-675,-16,638,-1360,1598,5573,30,46,888
1316669,217056,253968,219660,252428,2329,2605,-309,482,445,156,1387,11369,35,40,889
1317671,217264,254164,219857,252625,2324,2530,1319,3445,109,3603,1324,32108,35,40,889
1318672,217468,254352,220054,252822,2347,2584,2817,5505,-145,1633,778,14498,38,48,891
1319673,217708,254528,220251,253019,2103,2667,3081,4939,-177,169,928,2938,38,48,891
1320673,217900,254752,220448,253216,2406,2356,2742,3061,-74,353,467,1828,37,40,890
1321675,218104,254972,220645,253413,2328,2370,2425,1386,86,612,-58,2145,37,40,890
1322676,218316,255228,220842,253610,2273,2119,2243,264,246,678,-152,2525,52,48,890
1323677,218516,255472,221039,253807,2346,2173,2040,-466,309,721,103,3570,52,48,890
1324677,218684,255724,221236,254004,2560,2099,1706,-768,198,759,842,4420,33,61,889
1325679,218888,256000,221433,254201,2332,1914,1246,-1142,-92,536,1655,4528,33,61,889
1326680,219072,256328,221630,254398,2464,1530,693,-1192,-477,427,1490,5825,55,68,890
1327681,219256,256620,221827,254595,2469,1714,161,-1017,-862,196,1276,5922,55,68,890
1328681,219460,256924,222024,254792,2342,1591,-272,-937,-1266,-154,1387,5556,54,54,893
1329683,219660,257172,222221,254989,2366,1918,-610,-996,-1756,-500,1661,5082,54,54,893
1330683,219820,257412,222418,255186,2633,1949,-883,-1208,-2260,-687,1329,4812,44,64,893
1331684,219984,257720,222615,255383,2623,1474,-1157,-1268,-2662,-565,790,5526,44,64,893
1332685,220124,257980,222812,255580,2799,1747,-1362,-1343,-3008,-569,1037,4731,40,49,893
1333687,220260,258192,223009,255777,2851,2039,-1459,-1601,-3347,-577,1202,4236,40,49,893
1334688,220416,258428,223206,255974,2745,1872,-1505,-1961,-3622,-127,1015,4025,34,47,893
1335689,220552,258628,223403,256171,2896,2095,-1550,-2537,-3770,503,833,3359,34,47,893
1336690,220708,258880,223600,256368,2790,1746,-1590,-3113,-3801,965,830,3373,41,52,888
1337691,220884,259148,223797,256565,2675,1613,-1632,-3628,-3741,1218,707,3341,41,52,888
1338691,221044,259424,223994,256762,2792,1529,-1704,-3997,-3634,1492,637,3962,47,49,889
1339701,221208,259664,224224,256992,2796,1748,-1822,-4023,-3483,1680,603,4764,47,49,889
1340693,221392,259892,224421,257189,2678,1810,-1957,-3852,-3328,1579,764,5087,40,54,891
1341695,221544,260120,224618,257386,2897,1795,-2068,-3496,-3223,1527,827,5837,40,54,891
1342695,221700,260364,224815,257583,2891,1674,-2156,-2944,-3138,1296,389,6340,46,49,891
1343697,221848,260564,225012,257780,2964,1947,-2173,-2339,-3080,848,-15,6103,46,49,891
1344697,221988,260752,225209,257977,3039,2026,-2095,-1876,-3082,365,-140,5616,36,37,890
1345699,222132,260956,225406,258174,3038,1922,-1917,-1578,-3153,-83,-157,5265,36,37,890
1346699,222288,261100,225603,258371,2982,2320,-1668,-1379,-3285,-278,-128,5000,20,38,888
1347700,222444,261260,225800,258568,3000,2235,-1334,-1156,-3430,-484,-578,4858,20,38,888
1348701,222584,261424,225997,258765,3126,2225,-948,-955,-3516,-817,-1511,4791,21,40,887
1349703,222724,261592,226194,258962,3151,2212,-545,-746,-3549,-926,-2360,4739,21,40,887
1350704,222880,261752,226391,259159,3070,2278,-116,-615,-3548,-748,-2816,4342,37,34,887
1351705,223016,261912,226588,259356,3223,2293,316,-578,-3532,-538,-3062,3967,37,34,887
1352706,223176,262088,226785,259553,3089,2202,698,-696,-3535,-373,-3116,3839,42,37,886
1353707,223360,262240,226982,259750,2946,2371,968,-841,-3579,-257,-2494,3803,42,37,886
1354708,223536,262392,227179,259947,3006,2391,1146,-947,-3650,-211,-1926,3813,28,28,885
1355709,223712,262584,227376,260144,3017,2142,1280,-1049,-3747,-227,-1667,3621,28,28,885
1356710,223904,262768,227573,260341,2919,2198,1432,-1194,-3819,-73,-2433,3572,28,49,887
1357711,224108,262984,227770,260538,2842,1989,1675,-1402,-3772,234,-3371,3370,28,49,887
1358712,224316,263204,227967,260735,2813,1953,1954,-1678,-3666,543,-3146,3073,47,41,887
1359713,224512,263400,228164,260932,2888,2103,2182,-2036,-3550,929,-2821,2827,47,41,887
1360713,224716,263572,228361,261129,2836,2264,2370,-2397,-3416,1448,-2273,2699,41,55,889
1361715,224916,263744,228558,261326,2861,2275,2521,-2727,-3231,1951,-1712,2966,41,55,889
1362716,225156,263932,228755,261523,2592,2178,2647,-2886,-2983,2245,-1164,3376,50,43,889
1363717,225372,264132,228952,261720,2735,2102,2747,-2874,-2713,2485,-733,3693,50,43,889
1364717,225568,264304,229149,261917,2861,2287,2788,-2666,-2480,2648,-236,4415,38,35,887
1365719,225800,264524,229346,262114,2621,1976,2726,-2236,-2304,2719,29,5208,38,35,887
1366720,226024,264712,229543,262311,2660,2179,2592,-1663,-2170,2789,50,5243,53,41,890
1367721,226228,264904,229740,262508,2783,2157,2450,-1192,-2077,2854,322,4877,53,41,890
1368722,226436,265116,229937,262705,2753,2024,2325,-827,-2012,2941,632,4637,54,38,890
1369723,226640,265348,230134,262902,2776,1884,2198,-526,-1985,3076,908,4384,54,38,890
1370724,226840,265544,230331,263099,2801,2108,2094,-302,-1967,3078,827,3989,50,45,888
1371724,227048,265740,230528,263296,2746,2108,2037,-153,-1959,2933,836,3873,50,45,888
1372725,227240,265936,230725,263493,2849,2108,2019,-72,-1988,2799,983,3521,33,37,890
1373727,227452,266096,230922,263690,2718,2349,2026,-57,-2020,2783,1112,3227,33,37,890
1374728,227720,266268,231119,263887,2337,2284,2026,-79,-2047,2716,1420,3024,38,39,890
1375729,227952,266476,231316,264084,2548,2054,2017,-253,-2085,2613,1525,2488,38,39,890
1376730,228164,266672,231513,264281,2667,2130,2006,-561,-2133,2547,1479,2174,49,37,889
1377731,228416,266872,231710,264478,2393,2102,1958,-824,-2172,2413,1570,2359,49,37,889
1378732,228620,267096,231907,264675,2691,1941,1857,-933,-2171,2333,1707,2669,40,49,891
1379733,228828,267336,232104,264872,2662,1821,1725,-913,-2112,2204,1873,3083,40,49,891
1380733,229048,267524,232301,265069,2577,2150,1594,-762,-2024,1846,2051,3380,35,57,890
1381734,229272,267752,232498,265266,2541,1885,1480,-547,-1960,1317,2170,3347,35,57,890
1382736,229476,267976,232695,265463,2663,1898,1367,-456,-1902,950,2317,3197,39,54,891
1383737,229668,268172,232892,265660,2741,2073,1273,-407,-1832,794,2540,3106,39,54,891
1384738,229884,268388,233089,265857,2584,1939,1170,-331,-1742,654,2774,3011,42,48,892
1385739,230084,268572,233286,266054,2683,2144,1066,-317,-1587,507,2725,2895,42,48,892
1386740,230272,268788,233483,266251,2763,1936,927,-305,-1370,394,2669,3141,45,52,890
1387741,230492,268968,233680,266448,2553,2167,760,-214,-1153,362,2820,3159,45,52,890
1388742,230652,269160,233877,266645,2945,2094,588,-94,-971,293,2960,3189,31,38,889
1389743,230840,269360,234074,266842,2775,2042,417,-1,-806,186,2908,3079,31,38,889
1390744,231024,269576,234271,267039,2805,1934,242,-15,-651,148,2709,2949,25,45,889
1391745,231208,269764,234468,267236,2812,2112,78,-48,-524,187,2366,2909,25,45,889
1392745,231396,269928,234665,267433,2792,2276,-63,-125,-431,163,2455,2825,30,46,888
1393747,231596,270080,234862,267630,2716,2370,-219,-194,-371,-10,2524,2788,30,46,888
1394748,231820,270232,235059,267827,2555,2390,-409,-250,-360,-65,2738,3101,47,42,889
1395749,232028,270392,235256,268024,2650,2356,-656,-260,-395,82,2897,3431,47,42,889
1396749,232280,270552,235453,268221,2352,2371,-964,-184,-482,329,2815,3478,50,33,888
1397751,232492,270724,235650,268418,2596,2307,-1262,-259,-600,432,2309,2986,50,33,888
1398752,232744,270888,235847,268615,2322,2371,-1511,-542,-739,579,1807,2626,51,41,889
1399753,233020,271040,236044,268812,2138,2465,-1739,-925,-898,847,1522,2292,51,41,889
1400754,233304,271200,236241,269009,2050,2431,-1945,-1416,-1069,1066,1145,2044,54,42,889
1401755,233544,271348,236438,269206,2307,2527,-2137,-1914,-1233,1269,763,2042,54,42,889
1402756,233856,271484,236635,269403,1808,2629,-2316,-2510,-1413,1461,704,1903,59,26,890
1403756,234148,271632,236832,269600,1891,2575,-2456,-3089,-1599,1717,534,1900,59,26,890
1404757,234428,271816,237029,269797,1931,2355,-2579,-3725,-1793,1933,444,1724,63,29,890
1405759,234712,272020,237226,269994,1867,2226,-2682,-4370,-2002,2020,404,1764,63,29,890
1406759,235008,272252,237423,270191,1750,2036,-2766,-4994,-2217,2132,369,1859,65,32,891
1407761,235292,272508,237620,270388,1787,1860,-2821,-5500,-2429,2343,351,2211,65,32,891
1408761,235600,272740,237817,270585,1588,1993,-2858,-5896,-2589,2517,38,2550,45,38,893
1409762,235892,272980,238014,270782,1647,1925,-2881,-6193,-2700,2495,-522,2732,45,38,893
1410763,236140,273200,238211,270979,1900,2038,-2854,-6411,-2811,2337,-732,2791,66,43,896
1411764,236416,273420,238408,271176,1691,2028,-2777,-6591,-2913,2300,-819,3042,66,43,896
1412765,236744,273696,238605,271373,1308,1643,-2651,-6605,-2954,2361,-1329,3682,62,44,895
1413767,237088,273916,238802,271570,1144,1983,-2543,-6289,-2909,2344,-2211,4650,62,44,895
1414767,237432,274112,238999,271767,1080,2133,-2453,-5682,-2869,1954,-2230,5087,57,47,894
1415769,237884,274304,239196,271964,293,2159,-2242,-5081,-2913,1367,-1676,4897,57,47,894
1416770,238168,274456,239393,272161,1305,2429,-1905,-4464,-2994,733,-1785,5343,71,36,897
1417771,238440,274656,239590,272358,1347,2127,-1525,-3719,-3088,240,-1517,5771,71,36,897
1418772,238804,274844,239787,272555,699,2206,-1129,-2988,-3265,-15,-1057,5339,78,35,899
1419773,239164,275020,239984,272752,653,2289,-691,-2373,-3471,102,-1743,4887,78,35,899
1420773,239472,275204,240181,272949,929,2245,-215,-2052,-3583,240,-2482,3889,65,42,896
1421775,239752,275396,240378,273146,1068,2196,200,-1574,-3557,-239,-3158,4671,65,42,896
1422782,240080,275576,240608,273376,725,2293,539,-1089,-3463,-712,-3384,4141,71,45,898
1423777,240312,275748,240805,273573,1309,2354,874,-788,-3297,-439,-3415,3636,71,45,898
1424778,240644,275944,241002,273770,626,2203,1154,-320,-3062,-230,-3611,4031,53,48,896
1425779,240912,276128,241199,273967,995,2284,1377,47,-2764,-324,-3649,3405,53,48,896
1426779,241188,276308,241396,274164,910,2315,1636,38,-2509,-449,-3170,2153,70,46,895
1427781,241440,276488,241593,274361,1036,2323,1957,-309,-2276,-284,-2947,1705,70,46,895
1428781,241672,276664,241790,274558,1145,2357,2201,-252,-1964,84,-3151,2955,53,42,896
1429783,241932,276852,241987,274755,943,2285,2356,-73,-1572,84,-2825,2779,53,42,896
1430784,242216,277012,242184,274952,754,2476,2476,19,-1185,-198,-2517,2734,51,37,896
1431785,242480,277188,242381,275149,850,2384,2558,247,-827,-322,-2547,3342,51,37,896
1432786,242708,277352,242578,275346,1061,2474,2589,701,-462,-448,-2569,3789,40,32,896
1433787,242948,277536,242775,275543,967,2355,2575,1228,-118,-774,-2457,3869,40,32,896
1434788,243152,277724,242972,275740,1189,2333,2496,1679,186,-1223,-2459,3975,40,40,896
1435789,243336,277936,243169,275937,1320,2176,2323,2275,434,-1332,-2376,4735,40,40,896
