"Data file recorded 2014/9/24  14:27:57"
"%  Right Stride Frequency         = 13.0"
"%  Left Stride Frequency         = 13.0"
"%  Phase (Fractional)         = 32768.0"
"%  Experiment.py "
"%  Motor Gains    = [1800, 200, 100, 0, 0, 1800, 200, 100, 0, 0]
"% Columns: "
"% time | Right Leg Pos | Left Leg Pos | Commanded Right Leg Pos | Commanded Left Leg Pos | DCR | DCL | GyroX | GryoY | GryoZ | AX | AY | AZ | RBEMF | LBEMF | VBatt "
11602,62298268,56888148,62264664,56923480,-3800,3800,522,738,-1137,88,-236,4089,-11,5,837
12603,62298224,56888080,62265526,56924342,-3800,3800,521,736,-1138,90,-222,4070,-11,5,837
13604,62298244,56888156,62266388,56925204,-3800,3800,522,740,-1138,112,-218,4131,-10,5,837
14605,62298108,56888260,62267250,56926066,-3800,3800,520,754,-1141,88,-199,4103,-10,5,837
15606,62297772,56888384,62268112,56926928,-3800,3800,512,760,-1155,86,-82,4101,-21,7,806
16607,62297496,56888432,62268974,56927790,-3800,3800,487,742,-1143,289,-238,4139,-21,7,806
17608,62297216,56888492,62269836,56928652,-3800,3800,431,681,-1113,578,-362,3921,-49,7,797
18609,62296748,56888604,62270698,56929514,-3800,3800,369,618,-1082,761,-368,3876,-49,7,797
19610,62296280,56888752,62271560,56930376,-3800,3800,287,598,-1038,742,-361,3981,-69,9,797
20611,62295864,56888908,62272422,56931238,-3800,3800,188,614,-989,796,-315,4118,-69,9,797
21612,62295384,56889040,62273284,56932100,-3800,3800,86,640,-939,1000,-243,4229,-84,16,799
22613,62294792,56889172,62274146,56932962,-3800,3800,20,723,-865,1246,-333,4495,-84,16,799
23614,62294332,56889212,62275008,56933824,-3800,3800,-22,863,-772,1285,-222,4610,-80,13,800
24615,62293940,56889252,62275870,56934686,-3800,3800,-90,1019,-670,1244,-292,4770,-80,13,800
25604,62293360,56889336,62276732,56935548,-2854,3800,-157,1245,-552,1221,-371,4887,-89,8,799
26604,62292940,56889404,62277594,56936410,-3293,3800,-233,1498,-413,1110,-733,5008,-89,8,799
27605,62292588,56889532,62278456,56937272,-3188,3800,-359,1844,-274,899,-1267,5327,-97,10,798
28606,62292192,56889600,62279318,56938134,-2363,3800,-496,2164,-125,641,-1541,5288,-97,10,798
29614,62291832,56889624,62280186,56939002,2437,3800,-658,2542,60,570,-1907,5629,-68,12,802
30608,62291560,56889592,62281048,56939864,2383,3800,-843,2960,283,631,-2072,5641,-68,12,802
31609,62291472,56889584,62281910,56940726,1648,3800,-1017,3345,509,598,-1958,5488,-80,12,801
32610,62291440,56889628,62282772,56941588,1689,3800,-1149,3649,700,410,-1940,5327,-80,12,801
33611,62291496,56889628,62283634,56942450,1492,3800,-1224,3827,828,219,-1778,5020,-48,-1,802
34612,62291620,56889672,62284496,56943312,1390,3800,-1248,3955,923,98,-1824,5053,-48,-1,802
35613,62291800,56889668,62285358,56944174,1338,3800,-1228,4021,1032,167,-2038,4949,18,12,805
36614,62291980,56889692,62286220,56945036,1636,3800,-1161,4053,1129,70,-1986,4885,18,12,805
37615,62292168,56889700,62287082,56945898,1881,3800,-1049,4025,1176,-191,-1403,4640,34,-2,806
38616,62292460,56889724,62287944,56946760,1481,3800,-900,3922,1140,-483,-746,4528,34,-2,806
39617,62292748,56889756,62288806,56947622,1757,3800,-543,3911,1062,-772,-565,6438,48,14,807
40618,62293008,56889848,62289668,56948484,2196,3800,597,5274,972,-1273,-324,19368,48,14,807
41620,62293352,56889928,62290530,56949346,1898,3800,1856,6610,809,-1802,-30,12788,64,22,807
42620,62293648,56889944,62291392,56950208,2446,3800,2308,6477,507,-1792,416,3969,64,22,807
43621,62293948,56889980,62292254,56951070,2668,3800,2205,5441,110,-1736,595,2916,57,20,807
44622,62294252,56890048,62293116,56951932,2887,3800,1970,4275,-343,-1758,694,2350,57,20,807
45623,62294540,56890152,62293978,56952794,3240,3800,1829,3221,-825,-2084,970,1933,76,24,806
46624,62294924,56890244,62294840,56953656,2850,3800,1755,2091,-1337,-2172,1288,1398,76,24,806
47625,62295436,56890304,62295702,56954518,2203,3800,1672,944,-1847,-2001,1438,1396,87,13,804
48633,62295972,56890396,62296570,56955386,2199,3800,1574,-150,-2261,-2363,1177,1780,87,13,804
49627,62296520,56890488,62297432,56956248,2262,3800,1499,-913,-2524,-2972,563,2752,86,19,800
50628,62297036,56890588,62298294,56957110,2614,3800,1463,-1533,-2668,-3366,285,2973,86,19,800
51629,62297568,56890756,62299156,56957972,2660,3800,1498,-2080,-2769,-3240,496,3290,97,36,806
52630,62298148,56890904,62300018,56958834,2484,3800,1611,-2566,-2859,-3096,1145,3262,97,36,806
53631,62298668,56891076,62300880,56959696,3010,3800,1795,-3179,-2934,-2856,1599,3297,84,32,807
54632,62299344,56891168,62301742,56960558,2117,3800,2077,-3730,-2969,-2537,2106,3375,84,32,807
55633,62299996,56891364,62302604,56961420,2360,3800,2368,-4287,-2917,-2337,2308,3481,105,36,805
56634,62300552,56891508,62303466,56962282,3095,3800,2661,-4594,-2801,-2253,2154,3757,105,36,805
57635,62301324,56891720,62304328,56963144,1785,3800,2903,-4916,-2603,-2339,1889,3789,102,48,804
58636,62301920,56891888,62305190,56964006,3003,3800,3187,-5167,-2298,-2424,1478,4066,102,48,804
59637,62302580,56892076,62306052,56964868,2691,3800,3416,-5293,-1915,-2282,1230,4475,130,38,807
60638,62303280,56892244,62306914,56965730,2513,3800,3668,-5241,-1515,-2524,1274,4770,130,38,807
61639,62303960,56892448,62307776,56966592,2719,3800,3899,-4959,-1104,-3045,780,5492,133,45,807
62640,62304644,56892628,62308638,56967454,2774,3800,4121,-4507,-699,-3461,121,5866,133,45,807
63641,62305336,56892820,62309500,56968316,2798,3800,4300,-3939,-361,-3875,-259,6144,138,52,806
64642,62306100,56892968,62310362,56969178,2392,3800,4468,-3143,-39,-4678,-700,6594,138,52,806
65643,62306772,56893100,62311224,56970040,3052,3800,4548,-2252,308,-5556,-1619,7024,150,49,807
66644,62307376,56893196,62312086,56970902,3591,3800,4585,-1293,676,-6105,-2044,7177,150,49,807
67652,62308128,56893320,62312954,56971770,2718,3800,4569,-338,1094,-6309,-2222,7052,129,36,806
68646,62308744,56893424,62313816,56972632,3677,3800,4594,334,1538,-6084,-2305,5797,129,36,806
69660,62309344,56893552,62314678,56973494,3800,3800,4667,670,1960,-5874,-1985,4807,135,45,807
70648,62310024,56893636,62315540,56974356,3475,3800,4787,664,2351,-5593,-1645,3837,135,45,807
71662,62310564,56893668,62316402,56975218,3800,3800,4937,399,2709,-4777,-1402,2830,140,31,801
72663,62311080,56893680,62317264,56976080,3800,3800,5092,-279,3041,-3944,-1279,1573,140,31,801
73664,62311696,56893716,62318126,56976942,3800,3800,5228,-1156,3344,-2889,-1091,895,136,19,797
74665,62312196,56893752,62318988,56977804,3800,3800,5311,-2359,3569,-1742,-940,-164,136,19,797
75666,62312688,56893776,62319850,56978666,3800,3800,5357,-3683,3694,-890,-842,-675,122,22,801
76667,62313152,56893764,62320712,56979528,3800,3800,5343,-4962,3746,-307,-725,-875,122,22,801
77668,62313656,56893716,62321574,56980390,3800,3800,5301,-6391,3707,449,-618,-1292,119,6,797
78669,62314104,56893692,62322436,56981252,3800,3800,5133,-7386,3571,1053,267,70,119,6,797
79670,62314556,56893740,62323298,56982114,3800,3800,4909,-8388,3344,1689,1487,-472,89,12,797
80671,62315036,56893772,62324160,56982976,3800,3800,4543,-9081,3026,2254,1327,787,89,12,797
81672,62315428,56893804,62325022,56983838,3800,3800,4185,-9445,2717,2167,751,1128,106,5,796
82673,62315868,56893796,62325884,56984700,3800,3800,3842,-9959,2347,2530,1028,763,106,5,796
83674,62316352,56893760,62326746,56985562,3800,3800,3445,-9926,1810,2393,1252,2362,98,5,796
84675,62316680,56893728,62327608,56986424,3800,3800,2990,-9705,1289,2523,1034,2927,98,5,796
85676,62317096,56893768,62328470,56987286,3800,3800,2428,-9121,672,3291,2071,3996,72,4,796
86686,62317508,56893800,62329338,56988154,3800,3800,1763,-8122,-45,2928,2446,4872,72,4,796
87677,62317872,56893848,62330200,56989016,3800,3800,1124,-7107,-687,3391,1865,4940,94,6,797
88678,62318292,56893852,62331062,56989878,3800,3800,498,-5820,-1125,4468,1176,5837,94,6,797
89680,62318680,56893844,62331924,56990740,3800,3800,-194,-4254,-1206,4181,517,6904,77,21,796
90680,62319088,56893788,62332786,56991602,3800,3800,-831,-2529,-1640,3705,3293,6945,77,21,796
91682,62319364,56893840,62333648,56992464,3800,3800,-1254,-1482,-2315,4293,3048,4392,71,22,796
92682,62319796,56893884,62334510,56993326,3800,3800,-1450,-794,-2890,4409,2839,4287,71,22,796
93684,62320232,56893948,62335372,56994188,3800,3800,-1612,-229,-3434,4654,3251,3953,87,23,795
94684,62320540,56893972,62336234,56995050,3800,3800,-1708,113,-4027,4622,3369,2865,87,23,795
95686,62320952,56893988,62337096,56995912,3800,3800,-1743,296,-4554,4018,2727,2470,69,12,795
96687,62321452,56893932,62337958,56996774,3800,3800,-1799,522,-5012,4233,2283,2975,69,12,795
97688,62321816,56893956,62338820,56997636,3800,3800,-2001,876,-5415,4878,2325,3608,76,23,796
98689,62322164,56894008,62339682,56998498,3800,3800,-2152,1018,-5777,5015,2597,2277,76,23,796
99690,62322668,56894068,62340544,56999360,3800,3800,-2075,550,-6133,4735,2119,386,83,20,797
100691,62323120,56894136,62341406,57000222,3800,3800,-1899,-183,-6416,4606,1735,468,83,20,797
101692,62323484,56894168,62342268,57001084,3800,3800,-1810,-693,-6542,4539,924,1341,82,23,795
102693,62323920,56894184,62343130,57001946,3800,3800,-1805,-981,-6525,4765,378,1632,82,23,795
103694,62324420,56894260,62343992,57002808,3800,3800,-1706,-1317,-6502,4308,989,1018,100,12,797
104695,62324784,56894384,62344854,57003670,3800,3800,-1508,-1899,-6556,3860,1380,749,100,12,797
105703,62325168,56894520,62345722,57004538,3800,3800,-1326,-2536,-6648,4083,1360,988,80,19,795
106697,62325644,56894676,62346584,57005400,3800,3800,-1234,-2756,-6595,4297,1048,2654,80,19,795
107698,62326040,56894808,62347446,57006262,3800,3800,-1189,-2495,-6372,4261,725,3552,94,23,797
108699,62326408,56894944,62348308,57007124,3800,3800,-1248,-1952,-5977,4348,196,4444,94,23,797
109700,62326872,56895132,62349170,57007986,3800,3800,-1247,-1519,-5556,3935,770,3764,88,34,798
110701,62327352,56895332,62350032,57008848,3800,3800,-1089,-1298,-5205,3986,1155,3612,88,34,798
111702,62327772,56895548,62350894,57009710,3800,3800,-1026,-758,-4759,4180,509,5212,82,40,798
112703,62328300,56895776,62351756,57010572,3800,3800,-1100,178,-4190,3690,39,5836,82,40,798
113704,62328944,56895972,62352618,57011434,3800,3800,-1179,1218,-3625,3436,-4,5783,96,49,799
114705,62329524,56896128,62353480,57012296,3800,3800,-1347,2241,-3014,3666,-748,5869,96,49,799
115706,62330112,56896308,62354342,57013158,3800,3800,-1439,2883,-2472,3807,330,4494,107,56,799
116707,62330824,56896504,62355204,57014020,3800,3800,-1273,3013,-2099,4040,1709,3312,107,56,799
117708,62331500,56896728,62356066,57014882,3800,3800,-1059,2976,-1803,3971,1796,3529,116,56,799
118709,62332168,56896964,62356928,57015744,3800,3800,-869,3158,-1475,3850,1809,3862,116,56,799
119710,62332988,56897172,62357790,57016606,3800,3800,-770,3403,-1173,3861,2270,3717,136,52,801
120711,62333744,56897352,62358652,57017468,3800,3800,-662,3615,-965,3549,2371,3346,136,52,801
121712,62334432,56897516,62359514,57018330,3800,3800,-563,3779,-801,3071,2234,3573,138,46,801
122713,62335184,56897692,62360376,57019192,3800,3800,-422,3904,-639,2722,1968,3328,138,46,801
123714,62335988,56897884,62361238,57020054,3800,3800,-308,4088,-479,2563,1774,3767,142,51,802
124722,62336696,56898116,62362106,57020922,3800,3800,-207,4417,-329,2180,1484,3966,142,51,802
125716,62337400,56898300,62362968,57021784,3800,3800,-110,4830,-181,1512,1043,4074,135,48,802
126717,62338192,56898448,62363830,57022646,3800,3800,-22,5338,-35,867,673,4314,135,48,802
127718,62338828,56898600,62364692,57023508,3800,3800,55,5843,112,752,577,4204,138,53,800
128719,62339512,56898764,62365554,57024370,3800,3800,176,6261,264,1040,895,3749,138,53,800
129720,62340304,56898932,62366416,57025232,3800,3800,334,6470,421,1025,869,3346,136,51,802
130721,62340840,56899140,62367278,57026094,3800,3800,469,6562,542,848,898,3019,136,51,802
131722,62341436,56899308,62368140,57026956,3800,3800,578,6497,628,613,1048,2523,137,43,801
132723,62342116,56899448,62369002,57027818,3800,3800,678,6296,660,607,1345,1976,137,43,801
133724,62342736,56899584,62369864,57028680,3800,3800,757,5994,662,683,1477,1717,137,46,801
134725,62343292,56899748,62370726,57029542,3800,3800,800,5563,656,611,1505,1429,137,46,801
135726,62343852,56899884,62371588,57030404,3800,3800,785,5109,579,326,1720,1436,134,40,800
136727,62344476,56900084,62372450,57031266,3800,3800,711,4640,431,121,1960,1388,134,40,800
137728,62345040,56900240,62373312,57032128,3800,3800,580,4190,200,27,2569,1309,127,40,799
138729,62345608,56900384,62374174,57032990,3800,3800,410,3750,-88,-59,2771,1386,127,40,799
139730,62346236,56900500,62375036,57033852,3800,3800,223,3460,-335,116,2683,2033,132,39,799
140731,62346748,56900704,62375898,57034714,3800,3800,-25,3263,-570,350,3174,2147,132,39,799
141732,62347256,56900928,62376760,57035576,3800,3800,-296,3032,-820,652,3717,1930,130,42,801
142733,62347852,56901112,62377622,57036438,3800,3800,-585,2913,-1067,902,3900,2559,130,42,801
143740,62348328,56901280,62378490,57037306,3800,3800,-919,2992,-1241,1010,3648,3113,127,52,800
144735,62348796,56901428,62379352,57038168,3800,3800,-1275,3208,-1345,1058,3145,3538,127,52,800
145736,62349296,56901552,62380214,57039030,3800,3800,-1649,3413,-1460,1035,2689,3235,108,40,800
146737,62349700,56901700,62381076,57039892,3800,3800,-2029,3480,-1608,1124,1897,3084,108,40,800
147738,62350052,56901892,62381938,57040754,3800,3800,-2382,3548,-1770,973,709,3288,101,36,799
148739,62350412,56902048,62382800,57041616,3800,3800,-2714,3514,-1946,888,226,3151,101,36,799
149740,62350764,56902216,62383662,57042478,3800,3800,-2956,3427,-2109,1040,116,2815,87,41,797
150741,62351072,56902356,62384524,57043340,3800,3800,-3136,3233,-2221,1181,-144,2697,87,41,797
151742,62351396,56902496,62385386,57044202,3800,3800,-3209,2985,-2290,1046,-328,2527,77,42,797
152743,62351768,56902596,62386248,57045064,3800,3800,-3181,2711,-2318,903,-573,2513,77,42,797
153744,62352076,56902756,62387110,57045926,3800,3800,-3061,2292,-2347,1014,-672,2181,59,29,796
154745,62352416,56902876,62387972,57046788,3800,3800,-2895,1811,-2432,1063,-881,2314,59,29,796
155746,62352860,56903036,62388834,57047650,3800,3800,-2659,1315,-2592,718,-1104,2207,71,36,797
156747,62353268,56903216,62389696,57048512,3800,3800,-2384,912,-2824,-6,-1407,2777,71,36,797
157748,62353688,56903412,62390558,57049374,3800,3800,-2129,895,-3078,-671,-1846,4078,80,39,797
158749,62354212,56903592,62391420,57050236,3800,3800,-1861,1111,-3362,-1017,-1582,4415,80,39,797
159750,62354680,56903824,62392282,57051098,3800,3800,-1584,1402,-3668,-1241,-1352,4922,86,46,796
160751,62355212,56904024,62393144,57051960,3800,3800,-1313,1805,-3922,-1781,-760,5516,86,46,796
161752,62355716,56904236,62394006,57052822,3800,3800,-1019,2318,-4124,-2539,-125,6048,109,44,798
162762,62356328,56904464,62394874,57053690,3800,3800,-756,2962,-4248,-2783,-539,6627,109,44,798
163754,62356884,56904688,62395736,57054552,3800,3800,-20,4340,-4176,-2965,-1202,13106,116,59,799
164755,62357380,56904980,62396598,57055414,3800,3800,2220,8683,-3629,-4502,-3252,32767,116,59,799
165756,62358032,56905300,62397460,57056276,3800,3800,4292,11751,-3256,-3355,-562,14985,121,66,800
166757,62358620,56905576,62398322,57057138,3800,3800,4875,11780,-3228,-3028,333,3690,121,66,800
167758,62359144,56905820,62399184,57058000,3800,3800,4715,10385,-3197,-2436,-70,2462,128,66,799
168759,62359804,56906192,62400046,57058862,3800,3800,4519,8855,-2955,-1705,304,1362,128,66,799
169760,62360380,56906560,62400908,57059724,3800,3800,4584,7464,-2529,-1569,1245,407,114,60,801
170761,62360928,56906924,62401770,57060586,3800,3800,4640,5981,-2049,-1123,1321,229,114,60,801
171762,62361640,56907220,62402632,57061448,3800,3800,4583,4625,-1562,-942,1425,517,129,63,801
172763,62362316,56907588,62403494,57062310,3800,3800,4461,3298,-1092,-1416,1875,625,129,63,801
173764,62362964,56907980,62404356,57063172,3800,3800,4289,2037,-793,-1817,2246,966,130,71,802
174765,62363616,56908340,62405218,57064034,3800,3800,4028,901,-628,-2100,2805,1477,130,71,802
175766,62364356,56908672,62406080,57064896,3800,3800,3747,-141,-458,-1909,3419,1547,132,78,800
176766,62365056,56909160,62406942,57065758,3800,3800,3399,-966,-341,-1810,3984,2330,132,78,800
177768,62365684,56909588,62407804,57066620,3800,3800,2952,-1417,-331,-2413,4140,3649,131,89,803
178769,62366508,56909968,62408666,57067482,3800,3800,2459,-1590,-355,-2731,3592,4186,131,89,803
179770,62367200,56910400,62409528,57068344,3800,3800,2039,-1745,-346,-2516,3392,4121,132,76,803
180771,62367900,56910904,62410390,57069206,3800,3800,1738,-1670,-269,-2892,2735,5236,132,76,803
181779,62368652,56911360,62411258,57070074,3800,3800,1518,-1457,-218,-3016,1914,5409,124,96,803
182773,62369396,56911912,62412120,57070936,3800,3800,1371,-1403,-154,-2527,1601,4638,124,96,803
183774,62370148,56912408,62412982,57071798,3800,3800,1335,-1467,15,-2147,1945,4476,137,88,803
184775,62370956,56912880,62413844,57072660,3800,3800,1348,-1566,267,-1925,2099,4521,137,88,803
185776,62371736,56913460,62414706,57073522,3800,3800,1317,-1582,547,-2063,1607,4927,133,97,805
186777,62372512,56914008,62415568,57074384,3800,3800,1348,-1617,829,-2289,1613,4632,133,97,805
187778,62373348,56914620,62416430,57075246,3800,3800,1433,-1761,1070,-2147,1541,4095,160,105,805
188778,62374132,56915260,62417292,57076108,3800,3800,1551,-2099,1280,-2153,1315,3654,160,105,805
189780,62374900,56915848,62418154,57076970,3800,3800,1701,-2494,1552,-2308,771,3637,156,108,806
190780,62375688,56916544,62419016,57077832,3800,3800,1867,-2857,1916,-2493,-258,3692,156,108,806
191782,62376496,56917204,62419878,57078694,3800,3800,2040,-3093,2329,-2959,-957,4094,156,132,807
192782,62377292,56918008,62420740,57079556,3800,3800,2290,-3305,2724,-3214,-959,4033,156,132,807
193784,62378052,56918760,62421602,57080418,3800,3800,2579,-3639,3077,-2888,-1297,3683,151,138,806
194785,62378920,56919624,62422464,57081280,3800,3800,2853,-3987,3384,-2473,-1593,3712,151,138,806
195786,62379716,56920436,62423326,57082142,3800,3800,3054,-4170,3660,-1766,-1611,3996,155,156,808
196787,62380476,56921264,62424188,57083004,3800,3800,3170,-4491,3876,-876,-1762,3338,155,156,808
197788,62381288,56922064,62425050,57083866,3800,3800,3224,-4889,4023,-152,-1504,3178,175,161,809
198789,62382100,56922888,62425912,57084728,3800,3800,3144,-5243,4121,605,-1412,3354,175,161,809
199790,62382796,56923708,62426774,57085590,3800,3800,2955,-5489,4127,1248,-1788,3284,168,165,809
200797,62383664,56924384,62427642,57086458,3800,3800,2672,-5611,4069,1763,-2047,3568,168,165,809
201792,62384480,56925080,62428504,57087320,3800,3800,2322,-5617,3932,2527,-1680,3510,146,171,809
202793,62385228,56925668,62429366,57088182,3800,3800,1785,-5146,3670,3042,-1249,4986,146,171,809
203794,62386108,56926308,62430228,57089044,3800,3800,1054,-4208,3174,2637,603,6154,159,150,807
204794,62386840,56926932,62431090,57089906,3800,3800,239,-3089,2646,2942,-1076,6387,159,150,807
205796,62387664,56927572,62431952,57090768,3800,3800,-523,-2020,2315,3041,-4347,6389,152,148,807
206797,62388552,56928152,62432814,57091630,3800,3800,-1483,-491,1655,2858,-2505,8654,152,148,807
207798,62389360,56928796,62433676,57092492,3800,3800,-2355,544,682,3572,-473,5460,160,133,808
208798,62390176,56929416,62434538,57093354,3800,3800,-2864,594,-179,5205,838,2621,160,133,808
209800,62391036,56929992,62435400,57094216,3800,3800,-3055,29,-839,5694,1741,1814,173,140,808
210801,62391984,56930552,62436262,57095078,3800,3800,-3199,-424,-1506,6006,3835,2110,173,140,808
211802,62392784,56931008,62437124,57095940,3800,3800,-3736,-27,-2295,6932,5708,5083,161,122,808
212803,62393656,56931572,62437986,57096802,3800,3800,-4097,163,-3117,5881,3787,1819,161,122,808
213804,62394584,56932008,62438848,57097664,3800,3800,-4182,-301,-3913,5407,1499,774,158,106,807
214805,62395520,56932564,62439710,57098526,3800,3800,-4087,-1151,-4590,5408,919,-65,158,106,807
215806,62396420,56933204,62440572,57099388,3800,3800,-4045,-1952,-5165,5563,504,234,159,112,805
216807,62397464,56933680,62441434,57100250,3800,3800,-4073,-2616,-5618,5259,-15,45,159,112,805
217808,62398420,56934296,62442296,57101112,3800,3800,-4030,-3367,-6108,5058,459,-772,179,103,806
218809,62399372,56934876,62443158,57101974,3800,3800,-4068,-3886,-6424,5185,-622,408,179,103,806
219817,62400436,56935552,62444026,57102842,3800,3800,-4437,-3714,-6411,4921,-1842,2593,177,122,808
220811,62401388,56936328,62444888,57103704,3800,3800,-4683,-3233,-6502,4269,-129,2047,177,122,808
221811,62402368,56936876,62445750,57104566,3800,3800,-4525,-2896,-6720,3125,587,1770,168,126,808
222812,62403308,56937456,62446612,57105428,3800,3800,-4304,-2329,-6896,2479,-113,3821,168,126,808
223813,62404288,56938156,62447474,57106290,3800,3800,-4323,-1016,-6906,2518,-337,5856,181,125,809
224814,62405208,56938924,62448336,57107152,3800,3800,-4507,696,-6768,2274,-631,6159,181,125,809
225815,62406100,56939684,62449198,57108014,3800,3800,-4535,1958,-6768,1495,204,4072,172,121,807
226817,62406992,56940556,62450060,57108876,3800,3800,-4349,2404,-6987,708,1163,2750,172,121,807
227818,62407808,56941264,62450922,57109738,3800,3800,-4084,2693,-7172,713,626,2870,184,153,808
228819,62408624,56941992,62451784,57110600,3800,3800,-3976,2948,-7208,1201,165,2662,184,153,808
229820,62409476,56942936,62452646,57111462,3800,3800,-3843,3260,-7015,1838,-392,2396,178,179,810
230821,62410216,56943868,62453508,57112324,3800,3800,-3513,3582,-6512,2144,-1069,2302,178,179,810
231822,62410928,56944732,62454370,57113186,3800,3800,-3191,3740,-5989,2085,-1287,2063,187,182,812
232823,62411668,56945772,62455232,57114048,3800,3800,-3084,3801,-5473,2959,-1589,2243,187,182,812
233824,62412312,56946728,62456094,57114910,3800,3800,-3075,3821,-4982,3611,-2002,1848,157,199,812
234825,62412908,56947628,62456956,57115772,3800,3800,-3144,3729,-4543,3396,-2559,1625,157,199,812
235826,62413540,56948532,62457818,57116634,3800,3800,-3212,3435,-4188,2549,-2985,1266,147,188,811
236827,62414100,56949380,62458680,57117496,3800,3800,-3351,3143,-3905,2456,-3309,2149,147,188,811
237828,62414616,56950268,62459542,57118358,3800,3800,-3863,3609,-3430,3124,-5349,4851,143,177,809
238838,62415144,56951112,62460410,57119226,3800,3800,-4703,4438,-2452,3454,-7894,4672,143,177,809
239830,62415600,56951932,62461272,57120088,3800,3800,-5368,4846,-1327,3392,-7449,3196,116,184,809
240831,62416040,56952672,62462134,57120950,3800,3800,-5628,4914,-555,3006,-5763,3642,116,184,809
241832,62416480,56953396,62462996,57121812,3800,3800,-5549,5120,-351,2843,-3471,4535,112,190,807
242833,62416920,56954140,62463858,57122674,3800,3800,-5289,5399,-466,2933,-2863,4192,112,190,807
243834,62417260,56954924,62464720,57123536,3800,3800,-5019,5701,-649,3069,-3321,4638,90,179,806
244835,62417616,56955552,62465582,57124398,3800,3800,-4568,6527,-746,3197,-4423,8042,90,179,806
245836,62418024,56956132,62466444,57125260,3800,3800,-166,15710,-284,2824,-9846,32767,93,149,805
246837,62418380,56956684,62467306,57126122,3800,3800,5594,25880,149,4392,-8581,32767,93,149,805
247838,62418784,56957188,62468168,57126984,3800,3800,7751,28022,-252,4830,-4294,1442,66,138,803
248839,62419348,56957696,62469030,57127846,3800,3800,7576,25374,-1186,4044,-2502,-385,66,138,803
249840,62419924,56958108,62469892,57128708,3800,3800,7235,21421,-2352,3259,-6335,-1861,67,109,800
250841,62420500,56958464,62470754,57129570,3800,3800,8644,17731,-3453,-1188,-22218,6498,67,109,800
251842,62421148,56958764,62471616,57130432,3800,3800,9657,15219,-4145,1497,-6827,97,94,105,802
252843,62421712,56959044,62472478,57131294,3800,3800,9523,13662,-4975,2004,-1262,-1667,94,105,802
253844,62422304,56959308,62473340,57132156,3800,3800,9053,12069,-5964,-813,-662,-1585,124,74,802
254845,62423072,56959628,62474202,57133018,3800,3800,8716,10720,-6929,-3081,-970,-525,124,74,802
255846,62423816,56959908,62475064,57133880,3800,3800,8442,9163,-8046,-3688,-780,-1074,132,67,803
256847,62424556,56960172,62475926,57134742,3800,3800,8094,7710,-9219,-5018,749,-279,132,67,803
257855,62425280,56960440,62476794,57135610,3800,3800,7770,6637,-10274,-5769,1074,265,142,53,803
258849,62426164,56960696,62477656,57136472,3800,3800,7353,5541,-11050,-5662,-627,483,142,53,803
259850,62426912,56960944,62478518,57137334,3800,3800,6948,4799,-11305,-6167,-1806,1889,156,66,801
260851,62427744,56961264,62479380,57138196,3800,3800,6537,4017,-11146,-6687,-2226,1869,156,66,801
261852,62428664,56961552,62480242,57139058,3800,3800,6224,3105,-10713,-6828,-3278,1674,150,57,803
262853,62429520,56961804,62481104,57139920,3800,3800,5963,1664,-9871,-9021,-3918,1366,150,57,803
263854,62430396,56962096,62481966,57140782,3800,3800,5958,-2229,-8265,-20341,-4505,-1978,162,60,804
264855,62431372,56962412,62482828,57141644,3800,3800,5937,-7364,-6318,-19090,-3781,-816,162,60,804
265856,62432292,56962732,62483690,57142506,3800,3800,5395,-9321,-4929,-8621,-2615,4813,172,76,804
266857,62433188,56963028,62484552,57143368,3800,3800,4624,-9091,-4001,-5991,-1458,4502,172,76,804
267858,62434180,56963368,62485414,57144230,3800,3800,4110,-8744,-3105,-5505,-1082,3109,174,77,804
268859,62435072,56963724,62486276,57145092,3800,3800,3837,-9291,-2152,-4898,-721,1892,174,77,804
269860,62436036,56964080,62487138,57145954,3800,3800,3601,-10303,-1157,-5920,335,2165,163,71,803
270861,62437024,56964384,62488000,57146816,3800,3800,3267,-11346,-260,-5806,1612,2256,163,71,803
271862,62437932,56964784,62488862,57147678,3800,3800,2865,-12133,511,-4919,2537,2532,170,75,804
272862,62438792,56965120,62489724,57148540,3800,3800,2571,-12430,1378,-4064,2988,2864,170,75,804
273864,62439664,56965440,62490586,57149402,3800,3800,2388,-12882,2289,-3463,3286,2211,170,78,805
274865,62440580,56965736,62491448,57150264,3800,3800,2250,-13311,3186,-3496,3266,3203,170,78,805
275866,62441412,56965976,62492310,57151126,3800,3800,2050,-13383,4097,-2977,2700,4816,170,70,805
276874,62442180,56966308,62493178,57151994,3800,3800,1891,-12998,5019,-1973,1875,5175,170,70,805
277868,62442992,56966616,62494040,57152856,3800,3800,1800,-12727,5996,-1824,1214,4611,179,78,805
278869,62443744,56966868,62494902,57153718,3800,3800,1803,-12650,6928,-1768,1161,4491,179,78,805
279870,62444440,56967088,62495764,57154580,3800,3800,1824,-12693,7733,-1099,1292,4242,174,77,804
280871,62445200,56967360,62496626,57155442,3800,3800,1935,-12853,8419,-573,1182,3418,174,77,804
281872,62445776,56967604,62497488,57156304,3800,3800,2131,-13302,8964,317,1147,2446,149,58,803
282873,62446436,56967852,62498350,57157166,3800,3800,2413,-13961,9359,1454,953,1933,149,58,803
283874,62447064,56968060,62499212,57158028,3800,3800,2667,-14300,9643,2031,856,2766,141,48,802
284875,62447656,56968252,62500074,57158890,3800,3800,2831,-14310,9811,2248,594,3018,141,48,802
285876,62448208,56968432,62500936,57159752,3800,3800,3016,-14206,9887,2349,73,3028,128,57,801
286877,62448852,56968604,62501798,57160614,3800,3800,3226,-13883,9809,2524,416,3718,128,57,801
287878,62449444,56968836,62502660,57161476,3800,3800,3508,-13594,9620,3514,208,3238,129,53,800
288878,62449972,56969028,62503522,57162338,3800,3800,3759,-12937,9331,3899,179,4089,129,53,800
289880,62450524,56969220,62504384,57163200,3800,3800,4087,-12462,8967,3444,68,2982,118,41,799
290881,62451104,56969384,62505246,57164062,3800,3800,4406,-11755,8457,3109,-607,3814,118,41,799
291882,62451572,56969552,62506108,57164924,3800,3800,4796,-10910,7833,3009,-818,3670,115,46,799
292883,62452020,56969736,62506970,57165786,3800,3800,5085,-9432,7342,2626,-2645,5909,115,46,799
293884,62452624,56969944,62507832,57166648,3800,3800,5195,-7338,6971,2220,-3753,7040,104,50,798
294885,62453048,56970112,62508694,57167510,3800,3800,5211,-4899,6396,2213,-1270,7917,104,50,798
295893,62453612,56970348,62509562,57168378,3800,3800,4902,-1698,5877,3009,-362,10613,96,50,799
296887,62454160,56970584,62510424,57169240,3800,3800,4608,1547,5303,3569,1176,9265,96,50,799
297888,62454648,56970836,62511286,57170102,3800,3800,4542,4476,4544,3208,1782,8560,107,62,799
298889,62455148,56971076,62512148,57170964,3800,3800,4597,7328,3663,3352,2613,8844,107,62,799
299890,62455700,56971344,62513010,57171826,3800,3800,4607,9726,2615,3984,4204,7117,104,63,799
300891,62456280,56971672,62513872,57172688,3800,3800,4563,11579,1464,4556,5007,5280,104,63,799
301892,62456736,56971972,62514734,57173550,3800,3800,4563,12695,195,5557,6103,2946,115,63,800
302893,62457240,56972264,62515596,57174412,3800,3800,4425,13017,-1201,7232,6920,1082,115,63,800
303894,62457880,56972528,62516458,57175274,3800,3800,4243,12828,-2491,8499,6749,-641,99,73,799
304895,62458376,56972788,62517320,57176136,3800,3800,4080,12099,-3619,8903,6052,-2421,99,73,799
305896,62458988,56973204,62518182,57176998,3800,3800,3949,10949,-4683,8764,5666,-3547,96,71,799
306897,62459736,56973532,62519044,57177860,3800,3800,3809,9573,-5623,8371,4962,-3612,96,71,799
307898,62460444,56973844,62519906,57178722,3800,3800,3629,8306,-6374,8337,3930,-3586,109,74,800
308899,62461156,56974132,62520768,57179584,3800,3800,3430,6892,-7050,7665,3320,-4745,109,74,800
309900,62461948,56974468,62521630,57180446,3800,3800,3355,5151,-7711,6755,2468,-5883,129,67,801
310901,62462812,56974856,62522492,57181308,3800,3800,3105,3848,-8126,6253,220,-3579,129,67,801
311901,62463592,56975276,62523354,57182170,3800,3800,2588,3314,-8250,5637,-970,-1793,131,76,802
312903,62464428,56975608,62524216,57183032,3800,3800,1957,3421,-8277,4847,-978,-482,131,76,802
313904,62465520,56976040,62525078,57183894,3800,3800,1270,3916,-8219,3956,-1723,300,162,83,801
314914,62466352,56976468,62525946,57184762,3800,3800,737,4113,-8147,3062,-1132,-877,162,83,801
315906,62467276,56976868,62526808,57185624,3800,3800,328,4259,-8076,2161,-999,-620,175,80,803
316907,62468284,56977248,62527670,57186486,3800,3800,-127,4578,-7668,925,-2761,-397,175,80,803
317908,62469200,56977700,62528532,57187348,3800,3800,-575,4885,-7133,-151,-1978,-794,166,77,805
318909,62470056,56978148,62529394,57188210,3800,3800,-761,5237,-6768,-781,-320,-549,166,77,805
319910,62471160,56978512,62530256,57189072,3800,3800,-830,5825,-6405,-884,-104,99,185,88,806
320911,62471924,56978976,62531118,57189934,3800,3800,-892,6703,-5909,-1017,-405,683,185,88,806
321912,62472812,56979452,62531980,57190796,3800,3800,-985,7686,-5201,-1480,-881,890,184,96,806
322913,62473768,56979900,62532842,57191658,3800,3800,-1037,8656,-4401,-1560,-802,660,184,96,806
323913,62474620,56980404,62533704,57192520,3800,3800,-1044,9418,-3662,-1784,-249,88,178,100,807
324915,62475424,56980916,62534566,57193382,3800,3800,-1030,9998,-3030,-2107,616,-68,178,100,807
325916,62476348,56981408,62535428,57194244,3800,3800,-1042,10672,-2466,-2006,1388,340,184,98,805
326917,62477192,56981964,62536290,57195106,3800,3800,-1084,11388,-1884,-1854,1765,163,184,98,805
327918,62478016,56982600,62537152,57195968,3800,3800,-1114,11982,-1236,-1861,1822,-204,167,101,807
328919,62478828,56983252,62538014,57196830,3800,3800,-1118,12390,-611,-1809,2271,-438,167,101,807
329920,62479688,56983936,62538876,57197692,3800,3800,-1126,12699,-65,-1766,2820,-521,167,114,808
330921,62480448,56984616,62539738,57198554,3800,3800,-1195,12948,435,-1534,2911,-515,167,114,808
331922,62481164,56985348,62540600,57199416,3800,3800,-1294,13164,904,-1099,2908,-503,179,127,808
332923,62481852,56986112,62541462,57200278,3800,3800,-1426,13334,1341,-803,2836,-569,179,127,808
333931,62482480,56986928,62542330,57201146,3800,3800,-1593,13404,1671,-627,2924,-1021,157,147,808
334925,62483044,56987640,62543192,57202008,3800,3800,-1803,13191,1729,-270,3024,-1771,157,147,808
335926,62483692,56988376,62544054,57202870,3800,3800,-1974,12591,1540,251,2872,-2626,122,142,805
336927,62484232,56989168,62544916,57203732,3800,3800,-2188,11543,1133,897,2261,-3378,122,142,805
337928,62484744,56989864,62545778,57204594,3800,3800,-2467,10260,485,1442,1625,-3492,106,137,804
338929,62485332,56990632,62546640,57205456,3800,3800,-2825,9021,-183,1693,52,-2871,106,137,804
339930,62485876,56991228,62547502,57206318,3800,3800,-3263,7940,-913,1684,-569,-2500,122,147,806
340931,62486352,56991820,62548364,57207180,3800,3800,-3742,6985,-1842,1466,-582,-2199,122,147,806
341932,62486888,56992408,62549226,57208042,3800,3800,-4241,5972,-3001,1569,-482,-2257,118,139,805
342933,62487332,56992984,62550088,57208904,3800,3800,-4769,4966,-4288,1951,-907,-2016,118,139,805
343933,62487768,56993552,62550950,57209766,3800,3800,-5252,4041,-5522,1822,-1975,-1332,98,130,804
344935,62488200,56994120,62551812,57210628,3800,3800,-5587,3241,-6630,1797,-2825,-968,98,130,804
345936,62488656,56994704,62552674,57211490,3800,3800,-5722,2361,-7635,1912,-3054,-1273,100,116,804
346937,62489028,56995176,62553536,57212352,3800,3800,-5770,1473,-8498,2220,-3060,-935,100,116,804
347938,62489444,56995660,62554398,57213214,3800,3800,-5858,579,-9298,2196,-160,-969,100,118,801
348939,62489916,56996136,62555260,57214076,3800,3800,-6043,-470,-10204,1919,2197,-1215,100,118,801
349940,62490276,56996500,62556122,57214938,3800,3800,-6327,-1524,-11261,1536,2111,-827,76,109,801
350941,62490688,56996952,62556984,57215800,3800,3800,-6562,-2481,-12258,1465,944,-334,76,109,801
351942,62491244,56997356,62557846,57216662,3800,3800,-6715,-3289,-12961,1591,-622,30,82,91,800
352950,62491712,56997720,62558714,57217530,3800,3800,-6840,-4057,-13413,1388,-163,358,82,91,800
353944,62492184,56998140,62559576,57218392,3800,3800,-6989,-4721,-13738,1228,346,734,82,90,801
354945,62492856,56998584,62560438,57219254,3800,3800,-7223,-5309,-13904,1174,386,1155,82,90,801
355945,62493408,56999040,62561300,57220116,3800,3800,-7517,-6001,-13790,1162,-480,982,96,81,800
356946,62493996,56999428,62562162,57220978,3800,3800,-7811,-6596,-13409,823,-1540,1857,96,81,800
357948,62494652,56999944,62563024,57221840,3800,3800,-8024,-6840,-12774,80,-2417,3165,120,85,801
358949,62495368,57000400,62563886,57222702,3800,3800,-8115,-6919,-11977,-551,-2992,3544,120,85,801
359950,62496008,57000904,62564748,57223564,3800,3800,-8126,-7045,-11110,-1077,-3248,3686,126,99,801
360951,62496704,57001492,62565610,57224426,3800,3800,-8056,-7276,-10155,-2281,-3293,3976,126,99,801
361952,62497476,57002104,62566472,57225288,3800,3800,-6571,-8645,-8980,-6042,-5351,10495,118,101,803
362953,62498188,57002592,62567334,57226150,3800,3800,2945,-5256,-6171,-17261,-16798,32767,118,101,803
363954,62498892,57003136,62568196,57227012,3800,3800,12223,2853,-3377,-7670,-13566,32767,147,109,804
364955,62499688,57003624,62569058,57227874,3800,3800,11584,9659,-1602,-435,-4046,21679,147,109,804
365956,62500444,57004356,62569920,57228736,3800,3800,5961,13339,-1021,-362,433,15524,150,119,804
366957,62501200,57004920,62570782,57229598,3800,3800,2256,12000,-1171,-2780,723,916,150,119,804
367958,62502052,57005756,62571644,57230460,3800,3800,2263,6975,-1378,-2851,465,-7741,152,113,805
368958,62502840,57006500,62572506,57231322,3800,3800,3514,1899,-1297,-2063,465,-7047,152,113,805
369960,62503592,57007280,62573368,57232184,3800,3800,4220,-1561,-937,-1822,-5,-5527,150,137,805
370961,62504400,57008132,62574230,57233046,3800,3800,4034,-4243,-426,-1628,-1504,-3679,150,137,805
371969,62505104,57008884,62575098,57233914,3800,3800,3416,-6122,256,-1918,-2734,-616,154,171,808
372963,62505816,57009904,62575960,57234776,3800,3800,2285,-6894,971,-1779,-2178,3345,154,171,808
373964,62506464,57010776,62576822,57235638,3800,3800,613,-6679,1618,-2228,-2735,5954,170,174,808
374965,62507112,57011640,62577684,57236500,3800,3800,-1143,-6428,2241,-4063,-3746,5581,170,174,808
375966,62507668,57012564,62578546,57237362,3800,3800,-2240,-7122,2841,-4905,-4358,2709,154,180,809
376967,62508156,57013504,62579408,57238224,3800,3800,-2608,-8644,3403,-4160,-4705,1018,154,180,809
377968,62508636,57014432,62580270,57239086,3800,3800,-2608,-10509,3925,-3164,-4662,975,127,190,809
378969,62509056,57015436,62581132,57239948,3800,3800,-2625,-12079,4255,-960,-3577,2239,127,190,809
379970,62509420,57016372,62581994,57240810,3800,3800,-2859,-13075,4542,1434,-3467,3333,116,184,807
380971,62509776,57017304,62582856,57241672,3800,3800,-3121,-14025,4886,2272,-4173,2507,116,184,807
381972,62510052,57018216,62583718,57242534,3800,3800,-3465,-14763,5243,2963,-4419,4142,87,198,806
382973,62510276,57019080,62584580,57243396,3800,3800,-3873,-15230,5558,3909,-3849,5093,87,198,806
383974,62510544,57019944,62585442,57244258,3800,3800,-4120,-15790,5701,5450,-3283,4105,65,197,806
384975,62510744,57020680,62586304,57245120,3800,3800,-4011,-16510,5702,6792,-3514,3694,65,197,806
385976,62510900,57021396,62587166,57245982,3800,3800,-3780,-17100,5556,7686,-4466,4612,46,182,804
386977,62511064,57022048,62588028,57246844,3800,3800,-3529,-17248,5316,7624,-5147,5917,46,182,804
387978,62511152,57022648,62588890,57247706,3800,3800,-2780,-16390,5073,7218,-6072,10925,61,152,803
388978,62511164,57023092,62589752,57248568,3800,3800,630,-9427,4434,12417,-6255,32767,61,152,803
389980,62511188,57023496,62590614,57249430,3800,3800,3828,-2747,3526,8529,-5713,25226,39,121,801
390990,62511216,57023884,62591482,57250298,3800,3800,2774,1593,2051,9842,-12862,1345,39,121,801
391982,62511212,57024264,62592344,57251160,3800,3800,63,3572,527,7090,-10322,-1936,24,108,797
392983,62511204,57024576,62593206,57252022,3800,3800,-1044,3500,-405,4552,137,4223,24,108,797
393984,62511232,57024884,62594068,57252884,3800,3800,-628,2744,-905,3431,1008,4070,12,85,796
394985,62511224,57025172,62594930,57253746,3800,3800,100,1640,-1242,2722,-570,2737,12,85,796
395986,62511212,57025360,62595792,57254608,3800,3800,362,1128,-1632,2758,-1835,3706,1,75,794
396987,62511240,57025596,62596654,57255470,3800,3800,443,489,-1897,2155,-1983,2946,1,75,794
397988,62511260,57025844,62597516,57256332,3800,3800,298,57,-2121,2032,-1701,3939,8,58,794
398989,62511240,57026112,62598378,57257194,3800,3800,315,-521,-2240,1125,-2346,2831,8,58,794
399989,62511220,57026396,62599240,57258056,3800,3800,436,-1239,-2166,195,-2359,3277,20,63,794
400990,62511260,57026636,62600102,57258918,3800,3800,625,-1652,-2039,378,-2133,3704,20,63,794
401992,62511256,57026804,62600964,57259780,3800,3800,755,-2202,-1732,473,-2374,3659,2,66,792
402993,62511248,57026952,62601826,57260642,3800,3800,889,-2300,-1245,53,-2545,4693,2,66,792
403994,62511304,57027124,62602688,57261504,3800,3800,1132,-2608,-850,-867,-2153,3358,16,51,792
404995,62511368,57027296,62603550,57262366,3800,3800,1456,-2954,-572,-1772,-2405,3905,16,51,792
405995,62511520,57027472,62604412,57263228,3800,3800,1741,-2908,-332,-2723,-2723,5108,14,39,793
406997,62511744,57027644,62605274,57264090,3800,3800,1917,-2430,-92,-3609,-3318,6298,14,39,793
407998,62512056,57027772,62606136,57264952,3800,3800,2029,-1568,174,-4396,-3189,7318,18,44,793
408999,62512324,57027848,62606998,57265814,3800,3800,2140,-345,535,-4212,-2495,8368,18,44,793
410007,62512632,57027960,62607866,57266682,3800,3800,2262,1039,894,-3275,-1362,8351,56,32,792
411001,62513020,57028108,62608728,57267544,3800,3800,2468,2223,1114,-2920,108,7661,56,32,792
412002,62513328,57028248,62609590,57268406,3800,3800,2866,2949,1108,-3186,1282,6465,67,31,795
413003,62513608,57028400,62610452,57269268,3800,3800,3328,3324,1007,-3429,634,5926,67,31,795
414004,62513948,57028536,62611314,57270130,3800,3800,3754,3876,938,-3272,568,6256,72,32,793
415005,62514248,57028624,62612176,57270992,3800,3800,4124,4397,930,-2705,452,5593,72,32,793
416006,62514480,57028704,62613038,57271854,3800,3800,4412,4734,950,-1893,-383,5364,59,26,796
417006,62514868,57028836,62613900,57272716,3800,3800,4642,5315,1094,-1394,-1395,5755,59,26,796
418008,62515336,57028976,62614762,57273578,3800,3800,4925,5622,1177,-536,-492,3904,54,27,795
419009,62515832,57029084,62615624,57274440,3800,3800,5302,5372,1014,61,41,2405,54,27,795
420010,62516204,57029240,62616486,57275302,3800,3800,5718,5007,812,-322,-247,2753,71,27,795
421011,62516844,57029372,62617348,57276164,3800,3800,6064,4812,719,-303,-650,3156,71,27,795
422011,62517396,57029540,62618210,57277026,3800,3800,6300,4771,618,122,-503,2980,78,21,796
423013,62518004,57029740,62619072,57277888,3800,3800,6512,4726,418,437,-339,2546,78,21,796
424014,62518672,57029980,62619934,57278750,3800,3800,6698,4589,137,1263,-768,2221,120,28,796
425015,62519344,57030268,62620796,57279612,3800,3800,6779,4368,-144,1736,-897,2204,120,28,796
426016,62519952,57030656,62621658,57280474,3800,3800,6797,4189,-383,2185,-469,2056,129,49,798
427017,62520700,57030976,62622520,57281336,3800,3800,6769,4032,-582,3000,-212,1633,129,49,798
428018,62521396,57031276,62623382,57282198,3800,3800,6692,3891,-706,3294,217,1712,140,72,799
429026,62522196,57031564,62624250,57283066,3800,3800,6565,3912,-798,3103,109,2185,140,72,799
430020,62522940,57031936,62625112,57283928,3800,3800,6401,4006,-973,3083,-299,1890,122,86,802
431021,62523904,57032328,62625974,57284790,3800,3800,6185,4101,-1247,3263,17,1633,122,86,802
432022,62524736,57032636,62626836,57285652,3800,3800,5893,4297,-1571,3199,-7,1829,135,86,803
433022,62525528,57032984,62627698,57286514,3800,3800,5493,4641,-1878,3001,-280,2196,135,86,803
434024,62526560,57033332,62628560,57287376,3800,3800,4895,5298,-2163,2478,-459,3201,161,82,803
435025,62527464,57033640,62629422,57288238,3800,3800,4438,5823,-2431,1896,-539,1723,161,82,803
436026,62528408,57033924,62630284,57289100,3800,3800,4138,6198,-2674,1907,-381,1440,164,82,803
437027,62529428,57034188,62631146,57289962,3800,3800,3885,6551,-2815,2081,-460,1493,164,82,803
438028,62530420,57034472,62632008,57290824,3800,3800,3577,7121,-2863,1903,-511,1733,166,76,803
439029,62531364,57034704,62632870,57291686,3800,3800,3286,7652,-2858,1316,-735,1222,166,76,803
440030,62532372,57034920,62633732,57292548,3800,3800,3052,7959,-2824,1151,-948,769,165,54,804
441031,62533328,57035076,62634594,57293410,3800,3800,2908,8053,-2812,1186,-820,58,165,54,804
442032,62534232,57035232,62635456,57294272,3800,3800,2838,7966,-2804,950,-627,-687,171,59,803
443033,62535184,57035360,62636318,57295134,3800,3800,2818,7675,-2748,537,-778,-1347,171,59,803
444034,62536104,57035472,62637180,57295996,3800,3800,2821,7239,-2595,49,-1007,-1510,183,36,803
445034,62536980,57035564,62638042,57296858,3800,3800,2809,6944,-2314,-170,-1210,-1052,183,36,803
446036,62537776,57035668,62638904,57297720,3800,3800,2768,6772,-1957,-426,-1128,-1049,184,29,801
447036,62538708,57035792,62639766,57298582,3800,3800,2775,6563,-1625,-1145,-683,-1294,184,29,801
448045,62539588,57035904,62640634,57299450,3800,3800,2843,6337,-1341,-1812,-135,-1406,175,31,801
449038,62540484,57035948,62641496,57300312,3800,3800,2971,6043,-1058,-2118,131,-1669,175,31,801
450040,62541424,57036016,62642358,57301174,3800,3800,3081,5806,-810,-2343,723,-1363,181,36,803
451041,62542304,57036064,62643220,57302036,3800,3800,3103,5778,-665,-3284,1738,-746,181,36,803
452042,62543208,57036128,62644082,57302898,3800,3800,3056,6120,-491,-4313,2001,281,188,16,802
453042,62544164,57036176,62644944,57303760,3800,3800,3015,6582,-315,-5345,2761,442,188,16,802
454044,62545068,57036200,62645806,57304622,3800,3800,2880,7212,-374,-5903,4038,1120,210,17,803
455044,62545904,57036228,62646668,57305484,3800,3800,2676,7956,-658,-5604,5367,845,210,17,803
456046,62546884,57036256,62647530,57306346,3800,3800,2393,8399,-1080,-5044,6627,212,181,26,801
457047,62547728,57036288,62648392,57307208,3800,3800,2086,8523,-1570,-4049,7431,-110,181,26,801
458048,62548580,57036332,62649254,57308070,3800,3800,1706,8630,-1922,-2848,7861,222,195,16,800
459049,62549420,57036372,62650116,57308932,3800,3800,1343,8483,-2131,-1898,8264,-1006,195,16,800
460050,62550356,57036428,62650978,57309794,3800,3800,1068,7797,-2247,-1495,8403,-2173,161,12,800
461050,62551212,57036500,62651840,57310656,3800,3800,873,7034,-2240,-1128,7951,-1954,161,12,800
462052,62552020,57036580,62652702,57311518,3800,3800,642,6098,-2154,-862,7514,-2613,152,33,800
463053,62553004,57036680,62653564,57312380,3800,3800,170,5030,-2021,-993,6827,-2485,152,33,800
464054,62553844,57036792,62654426,57313242,3800,3800,-319,3919,-1782,-933,5812,-2960,173,22,801
465055,62554616,57036920,62655288,57314104,3800,3800,-720,2486,-1418,-496,4846,-3913,173,22,801
466056,62555608,57037088,62656150,57314966,3800,3800,-1181,1100,-968,-581,4286,-3211,166,26,802
467066,62556496,57037256,62657018,57315834,3800,3800,-1704,-13,-431,-917,3674,-2604,166,26,802
468058,62557352,57037432,62657880,57316696,3800,3800,-2147,-1039,73,-1336,3382,-2822,174,43,801
469059,62558332,57037620,62658742,57317558,3800,3800,-2404,-1860,479,-2185,3138,-2152,174,43,801
470060,62559328,57037772,62659604,57318420,3800,3800,-2596,-2266,796,-2648,2377,-543,184,37,801
471060,62560340,57037952,62660466,57319282,3800,3800,-2816,-2373,1008,-2770,1424,336,184,37,801
472062,62561564,57038112,62661328,57320144,3800,3800,-2947,-2215,1071,-3603,1351,785,170,36,802
473063,62562596,57038268,62662190,57321006,3800,3800,-2934,-2031,917,-4477,1370,737,170,36,802
474064,62563660,57038492,62663052,57321868,3800,3800,-3013,-1648,665,-4933,430,2032,201,36,802
475065,62564584,57038764,62663914,57322730,3800,3800,-3274,-918,557,-5185,-740,3087,201,36,802
476066,62565764,57039016,62664776,57323592,3800,3800,-3589,-217,521,-5228,-1111,2549,186,59,804
477067,62566768,57039276,62665638,57324454,3800,3800,-3854,154,437,-5649,-1044,1826,186,59,804
478068,62567864,57039516,62666500,57325316,3800,3800,-4043,338,335,-6136,-1332,1758,188,58,805
479068,62568968,57039776,62667362,57326178,3800,3800,-4194,382,273,-5903,-2511,1407,188,58,805
480070,62569932,57040116,62668224,57327040,3800,3800,-4258,285,349,-5734,-4088,1164,212,53,804
481070,62570880,57040436,62669086,57327902,3800,3800,-4227,5,644,-5690,-5003,937,212,53,804
482072,62571904,57040808,62669948,57328764,3800,3800,-4121,-664,1045,-5326,-5659,-84,203,77,805
483073,62572820,57041088,62670810,57329626,3800,3800,-3982,-1715,1467,-5297,-5946,-631,203,77,805
484074,62573652,57041484,62671672,57330488,3800,3800,-3809,-2895,1944,-5533,-5832,-894,212,63,805
485075,62574588,57041868,62672534,57331350,3800,3800,-3609,-4352,2447,-5346,-5668,-1345,212,63,805
486082,62575364,57042216,62673402,57332218,3800,3800,-3422,-5707,2969,-4822,-5299,-441,201,89,805
487077,62576192,57042552,62674264,57333080,3800,3800,-3291,-7055,3482,-3749,-4874,-514,201,89,805
488078,62576980,57043068,62675126,57333942,3800,3800,-3064,-8597,3966,-2211,-4701,-1124,164,72,805
489079,62577716,57043492,62675988,57334804,3800,3800,-2801,-10398,4432,-791,-4086,-1072,164,72,805
490080,62578424,57043876,62676850,57335666,3800,3800,-2542,-12083,4789,798,-3139,-510,167,92,803
491081,62579108,57044348,62677712,57336528,3800,3800,-2462,-13219,4975,2302,-1783,1312,167,92,803
492082,62579908,57044820,62678574,57337390,3800,3800,-2532,-13955,5112,3532,-783,2235,142,89,802
493083,62580516,57045328,62679436,57338252,3800,3800,-3294,-13478,5297,4814,17,6940,142,89,802
494084,62581176,57045872,62680298,57339114,3800,3800,-3944,-13200,5454,4812,167,3776,135,92,803
495085,62581784,57046412,62681160,57339976,3800,3800,-3951,-13449,5383,5321,1499,3474,135,92,803
496086,62582408,57046916,62682022,57340838,3800,3800,-3687,-13083,5074,6304,1840,6733,144,108,803
497087,62582944,57047436,62682884,57341700,3800,3800,-3714,-12252,4763,6302,2732,7656,144,108,803
498088,62583572,57047984,62683746,57342562,3800,3800,-3813,-11063,4215,6534,4156,9105,131,98,803
499089,62584120,57048740,62684608,57343424,3800,3800,-4221,-9138,3277,6319,5243,12181,131,98,803
500090,62584756,57049364,62685470,57344286,3800,3800,-5028,-6255,2018,6466,6416,15174,126,126,803
501091,62585384,57050048,62686332,57345148,3800,3800,-6393,-2011,779,8987,8052,21063,126,126,803
502092,62586040,57050752,62687194,57346010,3800,3800,-6000,4867,-291,13712,6696,32767,108,117,802
503093,62586676,57051432,62688056,57346872,3800,3800,-2117,16089,-1543,18003,5624,32767,108,117,802
504094,62587420,57052216,62688918,57347734,3800,3800,258,20748,-2717,8685,3694,10149,135,126,804
505102,62588104,57052904,62689786,57348602,3800,3800,581,19230,-3811,7223,3989,1367,135,126,804
506096,62588820,57053628,62690648,57349464,3800,3800,119,15346,-4742,8212,3247,-1424,128,152,804
507097,62589536,57054304,62691510,57350326,3800,3800,-352,13855,-5290,10161,818,4780,128,152,804
508098,62590336,57055008,62692372,57351188,3800,3800,-931,14042,-5592,10851,1740,5267,142,149,806
509099,62591108,57055576,62693234,57352050,3800,3800,-1208,13531,-5880,8694,-1574,899,142,149,806
510100,62591932,57056228,62694096,57352912,3800,3800,-1025,11131,-6601,7018,-890,-3911,158,127,806
511101,62592800,57056652,62694958,57353774,3800,3800,-561,7625,-7761,6041,907,-5693,158,127,806
512102,62593616,57057120,62695820,57354636,3800,3800,-141,4655,-8795,5695,-564,-3635,162,122,805
513103,62594524,57057592,62696682,57355498,3800,3800,-103,2938,-9322,5045,-2770,-192,162,122,805
514104,62595488,57058012,62697544,57356360,3800,3800,-75,2333,-9589,3846,-3468,1887,153,112,805
515105,62596444,57058548,62698406,57357222,3800,3800,91,2130,-9977,3378,-2904,2760,153,112,805
516106,62597320,57059140,62699268,57358084,3800,3800,406,1825,-10644,2627,-1719,2274,148,104,805
517107,62598268,57059712,62700130,57358946,3800,3800,725,1474,-11406,1455,-1689,3086,148,104,805
518108,62599224,57060240,62700992,57359808,3800,3800,1003,1548,-11974,281,-2520,4248,164,105,807
519109,62600088,57060696,62701854,57360670,3800,3800,1216,1932,-12231,-547,-3336,4873,164,105,807
520110,62601044,57061144,62702716,57361532,3800,3800,1440,2512,-12241,-1131,-3605,5092,172,109,807
521111,62602016,57061684,62703578,57362394,3800,3800,1653,3135,-12147,-2082,-3279,5092,172,109,807
522112,62602848,57062088,62704440,57363256,3800,3800,1740,3842,-12058,-2917,-3891,6069,174,102,806
523113,62603624,57062624,62705302,57364118,3800,3800,1684,4664,-11999,-3169,-3759,6226,174,102,806
524121,62604444,57063128,62706170,57364986,3800,3800,1657,5338,-11934,-3273,-2512,5182,183,103,805
525115,62605244,57063640,62707032,57365848,3800,3800,1709,5573,-11789,-3541,-1306,3931,183,103,805
526116,62606000,57064208,62707894,57366710,3800,3800,1561,5688,-11598,-4104,-219,4616,172,107,806
527117,62606784,57064676,62708756,57367572,3800,3800,1302,5991,-10994,-3947,-1523,4843,172,107,806
528118,62607496,57065180,62709618,57368434,3800,3800,1079,6434,-9834,-3205,-2246,4463,161,104,806
529119,62608200,57065676,62710480,57369296,3800,3800,176,7770,-8118,-1589,-2571,8664,161,104,806
530120,62608880,57066180,62711342,57370158,3800,3800,-1449,9570,-6235,-437,-1315,9064,172,96,806
531121,62609464,57066760,62712204,57371020,3800,3800,-2912,10359,-4733,-978,-1033,4108,172,96,806
532122,62610028,57067468,62713066,57371882,3800,3800,-3690,9024,-3676,-1426,-905,-1239,134,104,805
533123,62610608,57068008,62713928,57372744,3800,3800,-3813,6260,-2993,-1348,455,-4042,134,104,805
534124,62611092,57068632,62714790,57373606,3800,3800,-3674,2964,-2534,-1380,695,-4889,142,124,803
535125,62611500,57069380,62715652,57374468,3800,3800,-3601,116,-2002,-163,-212,-3479,142,124,803
536126,62611960,57070100,62716514,57375330,3800,3800,-3881,-1856,-1298,1667,-879,-914,118,127,802
537127,62612340,57070756,62717376,57376192,3800,3800,-4429,-2284,-564,3640,-839,6602,118,127,802
538128,62612644,57071460,62718238,57377054,3800,3800,-547,-2417,-952,13355,-4831,32767,96,140,803
539129,62612976,57072348,62719100,57377916,3800,3800,3834,798,-2011,12109,-3929,32767,96,140,803
540130,62613268,57073164,62719962,57378778,3800,3800,3125,4680,-2392,3480,578,16992,68,147,803
541131,62613512,57074044,62720824,57379640,3800,3800,1010,5639,-2200,1734,-830,3428,68,147,803
542132,62613740,57074964,62721686,57380502,3800,3800,308,3489,-1861,-178,-1725,-1883,63,176,803
543142,62613992,57075920,62722554,57381370,3800,3800,622,537,-1745,-728,-1491,-1087,63,176,803
544134,62614188,57076872,62723416,57382232,3800,3800,1050,-1165,-1829,-391,-1986,655,66,183,803
545135,62614404,57077828,62724278,57383094,3800,3800,1346,-2285,-1823,-908,-1692,634,66,183,803
546136,62614628,57078680,62725140,57383956,3800,3800,1379,-2664,-1817,-903,-1424,3343,51,169,801
547137,62614824,57079632,62726002,57384818,3800,3800,1302,-2813,-1943,-1099,-680,3701,51,169,801
548138,62615028,57080588,62726864,57385680,3800,3800,1223,-2855,-2156,-1276,396,4140,58,194,803
549139,62615308,57081604,62727726,57386542,3800,3800,1227,-2781,-2630,-1773,1912,3783,58,194,803
550140,62615564,57082532,62728588,57387404,3800,3800,1394,-3108,-3325,-2798,2599,2766,56,200,803
551141,62615824,57083444,62729450,57388266,3800,3800,1621,-3202,-3980,-3102,1947,3800,56,200,803
552142,62616168,57084312,62730312,57389128,3800,3800,1779,-2991,-4337,-2839,453,4369,67,193,804
553143,62616496,57085156,62731174,57389990,3800,3800,1894,-2298,-4376,-2719,-1557,5631,67,193,804
554145,62616832,57086036,62732036,57390852,3800,3800,2107,-1525,-4266,-3017,-2627,5274,65,188,804
555145,62617240,57086808,62732898,57391714,3800,3800,2471,-1066,-4140,-3029,-3096,4424,65,188,804
556146,62617604,57087568,62733760,57392576,3800,3800,2944,-665,-4086,-2970,-2698,4039,80,188,803
557147,62618008,57088264,62734622,57393438,3800,3800,3465,-438,-4107,-3397,-1119,3340,80,188,803
558148,62618404,57088876,62735484,57394300,3800,3800,3899,-287,-4145,-3529,-370,3328,72,168,803
559149,62618856,57089460,62736346,57395162,3800,3800,4255,-54,-4019,-3609,-1165,3495,72,168,803
560150,62619272,57090072,62737208,57396024,3800,3800,4584,419,-3678,-3912,-1613,3855,98,137,802
561151,62619704,57090624,62738070,57396886,3800,3800,4871,892,-3413,-4517,-883,3329,98,137,802
562159,62620208,57091188,62738938,57397754,3800,3800,5254,1069,-3388,-5197,-359,2491,83,125,802
563153,62620648,57091668,62739800,57398616,3800,3800,5673,1107,-3534,-5313,-246,2225,83,125,802
564154,62621116,57092112,62740662,57399478,3800,3800,6021,1120,-3681,-5227,-776,1991,90,118,802
565155,62621644,57092524,62741524,57400340,3800,3800,6252,1061,-3825,-5609,177,1719,90,118,802
566156,62622112,57092936,62742386,57401202,3800,3800,6376,871,-4013,-5743,853,1170,80,109,801
567157,62622588,57093332,62743248,57402064,3800,3800,6444,575,-4140,-5328,893,889,80,109,801
568158,62623156,57093696,62744110,57402926,3800,3800,6478,414,-4082,-4890,690,1324,96,94,799
569159,62623704,57094032,62744972,57403788,3800,3800,6457,200,-3829,-4560,249,1069,96,94,799
570160,62624236,57094316,62745834,57404650,3800,3800,6425,-208,-3456,-4168,4,661,101,88,800
571161,62624780,57094676,62746696,57405512,3800,3800,6345,-721,-3015,-3717,423,473,101,88,800
572162,62625448,57094976,62747558,57406374,3800,3800,6299,-1413,-2596,-3490,1658,-331,108,82,800
573163,62626016,57095244,62748420,57407236,3800,3800,6266,-2376,-2188,-3546,1924,-1131,108,82,800
574164,62626560,57095552,62749282,57408098,3800,3800,6314,-3634,-1696,-3068,1537,-1986,120,77,800
575165,62627256,57095832,62750144,57408960,3800,3800,6371,-4967,-1103,-2340,1804,-2033,120,77,800
576166,62627840,57096092,62751006,57409822,3800,3800,6401,-6085,-403,-1979,1941,-1701,132,72,799
577167,62628384,57096352,62751868,57410684,3800,3800,6373,-7297,336,-1713,2197,-2121,132,72,799
578168,62629060,57096612,62752730,57411546,3800,3800,6161,-8217,1044,-961,2870,-809,103,63,798
579169,62629656,57096852,62753592,57412408,3800,3800,5781,-8750,1698,-355,3599,-80,103,63,798
580170,62630208,57097060,62754454,57413270,3800,3800,5342,-9257,2296,-155,3698,-502,131,67,799
581178,62630868,57097332,62755322,57414138,3800,3800,4999,-9950,2864,-426,3973,-1052,131,67,799
582172,62631512,57097644,62756184,57415000,3800,3800,4647,-10503,3407,-550,4139,-99,109,58,800
583173,62632160,57097920,62757046,57415862,3800,3800,4190,-10436,3898,-457,3875,1652,109,58,800
584174,62632756,57098180,62757908,57416724,3800,3800,3575,-9720,4406,-650,3229,3634,129,69,800
585175,62633484,57098496,62758770,57417586,3800,3800,2668,-8125,5076,-612,1737,6330,129,69,800
586176,62634136,57098808,62759632,57418448,3800,3800,1487,-6182,5846,-807,1081,6566,132,61,799
587177,62634764,57099132,62760494,57419310,3800,3800,539,-4660,6461,-868,2146,4873,132,61,799
588178,62635496,57099428,62761356,57420172,3800,3800,-63,-3886,6810,-688,3144,3587,135,65,801
589179,62636128,57099760,62762218,57421034,3800,3800,-519,-3507,7064,-652,2654,3404,135,65,801
590180,62636776,57100092,62763080,57421896,3800,3800,-1028,-2945,7465,-944,1516,4074,150,73,799
591181,62637464,57100420,62763942,57422758,3800,3800,-1558,-2250,8008,-1269,478,4066,150,73,799
592182,62638064,57100736,62764804,57423620,3800,3800,-2048,-1801,8552,-719,-63,3223,131,65,801
593183,62638584,57101024,62765666,57424482,3800,3800,-2373,-2002,8961,403,-172,1334,131,65,801
594184,62639160,57101388,62766528,57425344,3800,3800,-2552,-2901,9185,1635,-410,-147,128,75,800
595185,62639700,57101740,62767390,57426206,3800,3800,-2663,-4164,9223,2599,-653,-866,128,75,800
596186,62640144,57102088,62768252,57427068,3800,3800,-2732,-5763,9196,3172,-1247,-1707,132,74,801
597187,62640644,57102384,62769114,57427930,3800,3800,-2763,-7262,9197,4009,-2148,-1476,132,74,801
598188,62641072,57102796,62769976,57428792,3800,3800,-2758,-8763,9156,4690,-2639,-1641,109,80,799
599189,62641512,57103240,62770838,57429654,3800,3800,-2779,-9992,8988,4947,-3249,-690,109,80,799
600197,62641960,57103684,62771706,57430522,3800,3800,-2807,-10889,8680,4429,-3908,98,99,74,799
601191,62642460,57104124,62772568,57431384,3800,3800,-2778,-11597,8237,4047,-4058,586,99,74,799
602192,62642988,57104600,62773430,57432246,3800,3800,-2684,-11730,7718,3623,-4212,2143,86,77,799
603193,62643456,57105020,62774292,57433108,3800,3800,-2500,-11683,7190,3595,-3959,2311,86,77,799
604194,62644044,57105472,62775154,57433970,3800,3800,-2227,-11433,6634,4195,-3668,3091,113,101,799
605195,62644536,57106032,62776016,57434832,3800,3800,-1904,-10747,6079,4193,-3570,4267,113,101,799
606196,62645108,57106568,62776878,57435694,3800,3800,-1580,-9841,5446,4185,-3202,5225,117,99,801
607197,62645648,57107132,62777740,57436556,3800,3800,-1409,-8299,4859,4141,-4286,7589,117,99,801
608198,62646164,57107676,62778602,57437418,3800,3800,-1379,-6125,4285,3607,-3224,9309,104,105,800
609199,62646612,57108168,62779464,57438280,3800,3800,-1371,-3562,3710,3790,-2719,10400,104,105,800
610200,62647112,57108756,62780326,57439142,3800,3800,-1195,-1261,3243,4483,-1373,8438,107,106,802
611201,62647644,57109364,62781188,57440004,3800,3800,-682,145,2636,4355,941,6252,107,106,802
612202,62648176,57109948,62782050,57440866,3800,3800,-66,1453,1889,4713,1281,7169,110,103,801
613203,62648636,57110540,62782912,57441728,3800,3800,436,3302,1253,5745,2031,8725,110,103,801
614204,62649300,57111112,62783774,57442590,3800,3800,763,5381,888,6537,1847,9154,97,104,802
615205,62649900,57111812,62784636,57443452,3800,3800,1086,7480,667,6863,2119,8602,97,104,802
616206,62650532,57112364,62785498,57444314,3800,3800,1559,9040,495,7101,2200,7136,113,121,801
617207,62651184,57113144,62786360,57445176,3800,3800,2041,10159,200,7393,2686,6259,113,121,801
618208,62651848,57113844,62787222,57446038,3800,3800,2490,10925,-184,7724,3225,4956,128,122,804
619219,62652496,57114668,62788090,57446906,3800,3800,2912,11441,-541,8288,3233,4391,128,122,804
620210,62653268,57115356,62788952,57447768,3800,3800,3212,12101,-869,8840,3183,4895,117,135,805
621211,62654044,57116176,62789814,57448630,3800,3800,3352,13023,-1060,9253,2877,5737,117,135,805
622212,62654864,57117008,62790676,57449492,3800,3800,3427,13992,-1189,8983,2168,5177,151,139,804
623213,62655632,57117788,62791538,57450354,3800,3800,3513,14622,-1402,7976,1535,3974,151,139,804
624214,62656448,57118492,62792400,57451216,3800,3800,3640,14785,-1801,6693,1235,2695,148,141,806
625215,62657264,57119236,62793262,57452078,3800,3800,3623,14851,-2461,5831,1505,2834,148,141,806
626216,62658236,57119912,62794124,57452940,3800,3800,3361,15144,-3185,5151,740,3123,147,155,807
627217,62659080,57120560,62794986,57453802,3800,3800,3008,15462,-3840,5086,917,2434,147,155,807
628218,62660012,57121136,62795848,57454664,3800,3800,2668,15642,-4522,4778,1217,1999,178,145,808
629219,62660888,57121712,62796710,57455526,3800,3800,2310,15925,-5310,4109,660,2204,178,145,808
630220,62661984,57122184,62797572,57456388,3800,3800,1922,16184,-6270,3369,251,1231,167,138,806
631221,62662932,57122732,62798434,57457250,3800,3800,1531,15769,-7565,2862,2178,-1091,167,138,806
632222,62663868,57123348,62799296,57458112,3800,3800,1043,15151,-9071,2711,3282,-1057,170,127,807
633223,62664904,57123980,62800158,57458974,3800,3800,460,14904,-10408,2239,2726,-92,170,127,807
634224,62665764,57124644,62801020,57459836,3800,3800,11,14946,-11411,1214,1023,38,167,117,805
635225,62666672,57125192,62801882,57460698,3800,3800,-165,14923,-12037,320,-629,-90,167,117,805
636226,62667676,57125788,62802744,57461560,3800,3800,-172,14965,-12265,702,-2275,276,187,122,807
637227,62668444,57126280,62803606,57462422,3800,3800,-231,15072,-12155,1754,-3411,427,187,122,807
638235,62669288,57126808,62804474,57463290,3800,3800,-404,15166,-11940,1540,-3230,314,175,133,807
639229,62670136,57127380,62805336,57464152,3800,3800,-680,15051,-11980,30,-1930,-201,175,133,807
640230,62670944,57127968,62806198,57465014,3800,3800,-873,14375,-12366,-1183,-1103,-1690,167,129,808
641231,62671796,57128536,62807060,57465876,3800,3800,-870,13101,-12953,-1648,67,-3487,167,129,808
642232,62672628,57129132,62807922,57466738,3800,3800,-706,11486,-13602,-2409,1020,-4455,172,108,807
643233,62673428,57129772,62808784,57467600,3800,3800,-482,9931,-14122,-3658,-39,-4236,172,108,807
644234,62674220,57130368,62809646,57468462,3800,3800,-425,8514,-14369,-4645,-864,-3775,174,111,806
645235,62674932,57131056,62810508,57469324,3800,3800,-594,7510,-14326,-4836,-1741,-2613,174,111,806
646236,62675676,57131656,62811370,57470186,3800,3800,-858,7209,-13951,-4912,-3000,-888,171,136,805
647237,62676296,57132412,62812232,57471048,3800,3800,-1070,6802,-13250,-4909,-4342,-1474,171,136,805
648238,62676872,57133164,62813094,57471910,3800,3800,-1255,5917,-12406,-4830,-5313,-1992,157,140,806
649239,62677436,57133828,62813956,57472772,3800,3800,-1477,4892,-11402,-4765,-5963,-1954,157,140,806
650240,62677900,57134664,62814818,57473634,3800,3800,-1666,3671,-10270,-4666,-6425,-2633,146,133,806
651241,62678272,57135516,62815680,57474496,3800,3800,-1858,2269,-9058,-4797,-6301,-2530,146,133,806
652242,62678664,57136328,62816542,57475358,3800,3800,-2071,734,-7784,-4578,-5722,-2574,118,138,804
653243,62678968,57137188,62817404,57476220,3800,3800,-2377,-941,-6610,-3819,-5081,-2347,118,138,804
654244,62679228,57137908,62818266,57477082,3800,3800,-2756,-2280,-5494,-3429,-5055,-884,81,145,804
655245,62679544,57138664,62819128,57477944,3800,3800,-3211,-3779,-4395,-3179,-5124,-1350,81,145,804
656246,62679828,57139696,62819990,57478806,3800,3800,-3685,-5480,-3380,-2129,-4906,-1155,59,169,802
657254,62680156,57140760,62820858,57479674,3800,3800,-5095,-5670,-2328,-265,-4112,5998,59,169,802
658248,62680484,57141724,62821720,57480536,3800,3800,-7670,-4124,-867,-502,-7470,9830,57,194,804
659249,62680836,57142656,62822582,57481398,3800,3800,-5247,-5788,287,5919,-3781,18836,57,194,804
660250,62681228,57143664,62823444,57482260,3800,3800,3721,-5629,-378,21781,1762,32767,67,179,804
661251,62681600,57144744,62824306,57483122,3800,3800,3509,3590,-543,5241,259,32767,67,179,804
662252,62682080,57145740,62825168,57483984,3800,3800,-698,8841,-396,-1059,2301,10071,90,201,805
663253,62682576,57146728,62826030,57484846,3800,3800,-2705,7384,-210,-1543,433,-2112,90,201,805
664254,62683088,57147708,62826892,57485708,3800,3800,-2186,2716,-130,-2387,1305,-3940,96,199,806
665255,62683616,57148684,62827754,57486570,3800,3800,-1278,-840,-42,-1810,1109,-2006,96,199,806
666256,62684180,57149628,62828616,57487432,3800,3800,-1152,-2410,4,-1396,1784,940,87,189,806
667257,62684836,57150660,62829478,57488294,3800,3800,-1412,-2810,192,-1172,287,3292,87,189,806
668258,62685532,57151584,62830340,57489156,3800,3800,-1676,-2732,553,-874,-1472,4307,125,194,806
669259,62686232,57152476,62831202,57490018,3800,3800,-1504,-3329,892,-1495,-2248,2424,125,194,806
670260,62687004,57153340,62832064,57490880,3800,3800,-1026,-4214,1105,-1749,-2511,2278,132,192,809
671261,62687808,57154124,62832926,57491742,3800,3800,-316,-5095,1243,-2242,-3113,2337,132,192,809
672262,62688532,57154952,62833788,57492604,3800,3800,481,-5687,1231,-3838,-1992,3130,143,186,808
673263,62689328,57155616,62834650,57493466,3800,3800,1236,-5980,885,-4807,929,3372,143,186,808
674264,62690148,57156292,62835512,57494328,3800,3800,1935,-6008,230,-5257,2378,3859,155,169,808
675265,62691108,57156896,62836374,57495190,3800,3800,2665,-6010,-623,-5764,2154,3704,155,169,808
676273,62692064,57157476,62837242,57496058,3800,3800,3483,-6016,-1610,-6085,387,3837,154,151,808
677267,62693020,57158012,62838104,57496920,3800,3800,4281,-5778,-2549,-6342,-1170,5085,154,151,808
678268,62694100,57158456,62838966,57497782,3800,3800,4959,-5132,-3233,-6322,-1859,6140,164,137,805
679269,62695056,57158920,62839828,57498644,3800,3800,5441,-4385,-3721,-6515,-1573,6121,164,137,805
680270,62696088,57159308,62840690,57499506,3800,3800,5774,-3811,-4161,-6796,-473,5358,172,113,807
681271,62697092,57159636,62841552,57500368,3800,3800,6007,-3672,-4625,-7071,239,3997,172,113,807
682272,62698112,57159980,62842414,57501230,3800,3800,6270,-4084,-5110,-7439,385,2394,173,93,806
683273,62699064,57160328,62843276,57502092,3800,3800,6545,-4846,-5422,-7208,-525,1952,173,93,806
684274,62700132,57160612,62844138,57502954,3800,3800,6838,-5775,-5436,-6615,-1777,1274,188,90,806
685275,62701020,57160872,62845000,57503816,3800,3800,7105,-6998,-5169,-6245,-2536,373,188,90,806
686276,62701908,57161124,62845862,57504678,3800,3800,7425,-8270,-4592,-5869,-3397,306,177,78,806
687277,62702852,57161368,62846724,57505540,3800,3800,7714,-9885,-3796,-5075,-3465,-782,177,78,806
688278,62703680,57161564,62847586,57506402,3800,3800,8017,-11599,-2948,-4659,-2526,-958,185,72,804
689279,62704436,57161764,62848448,57507264,3800,3800,8121,-13060,-1986,-4404,-2514,505,185,72,804
690280,62705152,57161904,62849310,57508126,3800,3800,8122,-14156,-933,-3963,-2154,1052,173,51,803
691281,62705972,57162056,62850172,57508988,3800,3800,8077,-15161,117,-3433,-1174,1075,173,51,803
692282,62706632,57162212,62851034,57509850,3800,3800,7983,-16028,1149,-1898,-254,1380,179,44,802
693283,62707360,57162400,62851896,57510712,3800,3800,6880,-15513,2186,1081,528,7030,179,44,802
694284,62708052,57162592,62852758,57511574,3800,3800,5107,-14036,3211,1714,-406,7169,149,44,801
695294,62708756,57162816,62853626,57512442,3800,3800,4321,-14599,4015,1970,1843,-627,149,44,801
696286,62709380,57163104,62854488,57513304,3800,3800,3929,-15099,4740,3048,2640,4204,147,38,800
697287,62710124,57163424,62855350,57514166,3800,3800,3294,-14865,5527,3539,2293,5154,147,38,800
698288,62710796,57163732,62856212,57515028,3800,3800,2766,-14238,6388,5222,1905,4408,138,51,801
699289,62711396,57164108,62857074,57515890,3800,3800,2481,-14069,7272,6218,1393,3090,138,51,801
700290,62712092,57164544,62857936,57516752,3800,3800,2468,-14257,7892,6315,1933,2614,143,76,800
701291,62712668,57164908,62858798,57517614,3800,3800,2259,-14459,8095,6269,2791,3252,143,76,800
702292,62713324,57165256,62859660,57518476,3800,3800,1476,-13803,7876,5794,4298,5766,131,71,802
703293,62714024,57165672,62860522,57519338,3800,3800,1077,-13541,7467,5103,3896,2085,131,71,802
704294,62714596,57166048,62861384,57520200,3800,3800,950,-13282,7020,4847,3075,3168,128,83,801
705295,62715260,57166408,62862246,57521062,3800,3800,1018,-12973,6676,4863,1787,3330,128,83,801
706296,62715936,57166752,62863108,57521924,3800,3800,1086,-11819,6636,5238,-573,6203,124,88,801
707297,62716720,57167160,62863970,57522786,3800,3800,1230,-9936,6756,4861,-734,7081,124,88,801
708298,62717484,57167528,62864832,57523648,3800,3800,1284,-7531,6473,3526,459,8658,140,84,802
709299,62718184,57167848,62865694,57524510,3800,3800,1304,-4754,5936,3064,-546,9150,140,84,802
710300,62719028,57168176,62866556,57525372,3800,3800,1412,-2016,5308,3437,556,8750,147,76,801
711301,62719796,57168616,62867418,57526234,3800,3800,1672,517,4685,3304,87,8102,147,76,801
712302,62720568,57168972,62868280,57527096,3800,3800,2070,3034,4077,3363,-210,7790,154,86,800
713303,62721460,57169268,62869142,57527958,3800,3800,2437,5230,3398,4230,-6,6531,154,86,800
714311,62722340,57169600,62870010,57528826,3800,3800,2723,7080,2642,5332,-195,4922,149,77,803
715305,62723188,57169984,62870872,57529688,3800,3800,2958,8378,1870,5705,-145,2743,149,77,803
716306,62724104,57170312,62871734,57530550,3800,3800,3287,8950,1051,6040,-312,456,136,84,802
717306,62725024,57170640,62872596,57531412,3800,3800,3710,9017,245,6746,-394,-694,136,84,802
718308,62725952,57170968,62873458,57532274,3800,3800,4107,9001,-376,7769,-730,-1045,143,80,803
719309,62726892,57171376,62874320,57533136,3800,3800,4505,8858,-784,8703,-2000,-2886,143,80,803
720310,62727964,57171752,62875182,57533998,3800,3800,4976,8416,-1136,8812,-2328,-3541,164,70,804
721311,62728852,57172100,62876044,57534860,3800,3800,5437,7954,-1438,9269,-2284,-2797,164,70,804
722312,62729788,57172472,62876906,57535722,3800,3800,5662,7645,-1826,9272,-1232,-2524,183,73,803
723313,62730780,57172976,62877768,57536584,3800,3800,5758,7490,-2348,8491,91,-2436,183,73,803
724314,62731680,57173396,62878630,57537446,3800,3800,5896,7167,-2845,8035,-90,-3204,166,88,802
725315,62732552,57173768,62879492,57538308,3800,3800,6172,6622,-3289,7201,-182,-3805,166,88,802
726316,62733568,57174284,62880354,57539170,3800,3800,6521,6252,-3622,6506,-186,-3029,184,94,805
727317,62734324,57174764,62881216,57540032,3800,3800,6705,6510,-3780,5857,-946,-1004,184,94,805
728318,62735192,57175220,62882078,57540894,3800,3800,6639,7226,-3796,4669,-1538,88,173,100,804
729319,62736068,57175808,62882940,57541756,3800,3800,6466,8291,-3796,3686,-889,651,173,100,804
730320,62736904,57176384,62883802,57542618,3800,3800,6334,9625,-3777,3435,-361,1039,173,100,805
731321,62737700,57176984,62884664,57543480,3800,3800,6229,11047,-3760,2706,418,1127,173,100,805
732322,62738612,57177640,62885526,57544342,3800,3800,6062,12637,-3725,2199,1034,1876,169,97,805
733330,62739436,57178316,62886394,57545210,3800,3800,5821,14408,-3637,2047,1403,1982,169,97,805
734324,62740248,57179128,62887256,57546072,3800,3800,5529,16176,-3545,1833,1793,1763,181,128,806
735325,62741056,57179900,62888118,57546934,3800,3800,5239,17755,-3549,1302,2536,991,181,128,806
736326,62741916,57180700,62888980,57547796,3800,3800,5008,18942,-3565,912,2351,112,166,134,807
737327,62742648,57181484,62889842,57548658,3800,3800,4765,19891,-3568,1160,2899,-623,166,134,807
738328,62743304,57182264,62890704,57549520,3800,3800,4371,20650,-3594,1573,4574,-1400,176,150,808
739329,62743924,57183228,62891566,57550382,3800,3800,3885,21111,-3639,1841,4843,-2218,176,150,808
740330,62744444,57183936,62892428,57551244,3800,3800,3532,21057,-3688,2109,4846,-3780,169,166,808
741331,62744872,57184760,62893290,57552106,3800,3800,3283,20306,-3865,2824,5719,-5497,169,166,808
742332,62745288,57185588,62894152,57552968,3800,3800,3026,18840,-4455,3218,6767,-7148,112,161,806
743333,62745612,57186348,62895014,57553830,3800,3800,2763,16876,-5396,3202,6917,-8077,112,161,806
744334,62745912,57187156,62895876,57554692,3800,3800,2280,14850,-6318,3600,4962,-7428,107,158,804
745335,62746248,57187912,62896738,57555554,3800,3800,1477,13238,-7030,3986,3071,-5878,107,158,804
746336,62746520,57188708,62897600,57556416,3800,3800,476,11979,-7656,3936,2885,-5007,65,152,803
747337,62746784,57189400,62898462,57557278,3800,3800,-492,10539,-8408,3365,3074,-5837,65,152,803
748338,62747096,57190268,62899324,57558140,3800,3800,-1276,8603,-9301,3005,3017,-6812,58,154,803
749339,62747380,57191012,62900186,57559002,3800,3800,-1969,6386,-10325,2776,3544,-7381,58,154,803
750341,62747688,57191708,62901048,57559864,3800,3800,-2682,4161,-11508,2237,4423,-7272,55,167,802
751341,62748024,57192420,62901910,57560726,3800,3800,-3510,2234,-12848,1440,4585,-6025,55,167,802
752349,62748424,57193032,62902778,57561594,3800,3800,-4489,763,-14205,1007,3737,-4658,52,161,802
753343,62748760,57193712,62903640,57562456,3800,3800,-5534,-392,-15380,1105,2874,-4011,52,161,802
754345,62749164,57194328,62904502,57563318,3800,3800,-6438,-1505,-16248,1447,2300,-3918,58,136,801
755345,62749624,57195008,62905364,57564180,3800,3800,-7190,-2570,-16738,1736,1207,-3214,58,136,801
756346,62750052,57195672,62906226,57565042,3800,3800,-7866,-3498,-16832,1736,33,-2907,70,121,800
757347,62750520,57196336,62907088,57565904,3800,3800,-8585,-4414,-16512,1763,-868,-2819,70,121,800
758348,62751052,57197016,62907950,57566766,3800,3800,-9319,-5306,-15887,1823,-1292,-2532,77,124,801
759349,62751616,57197768,62908812,57567628,3800,3800,-9928,-6106,-15014,1728,-1840,-1861,77,124,801
760350,62752116,57198540,62909674,57568490,3800,3800,-10423,-6743,-13982,1406,-2068,-1208,103,144,802
761351,62752728,57199184,62910536,57569352,3800,3800,-10802,-7291,-12878,838,-2794,-801,103,144,802
762352,62753340,57199956,62911398,57570214,3800,3800,-11124,-7791,-11804,113,-3009,-391,112,135,803
763353,62753896,57200796,62912260,57571076,3800,3800,-11466,-8197,-10784,-657,-3147,191,112,135,803
764354,62754532,57201588,62913122,57571938,3800,3800,-11822,-8245,-9759,-1741,-3552,1884,115,136,803
765355,62755260,57202432,62913984,57572800,3800,3800,-12135,-8107,-8760,-2862,-3360,2295,115,136,803
766356,62755956,57203280,62914846,57573662,3800,3800,-12421,-7928,-7823,-3775,-3711,3035,130,148,803
767357,62756688,57204156,62915708,57574524,3800,3800,-12703,-7287,-6929,-4539,-4406,5258,130,148,803
768358,62757480,57205024,62916570,57575386,3800,3800,-13003,-6176,-6027,-5326,-4445,6844,138,173,806
769359,62758232,57205992,62917432,57576248,3800,3800,-13225,-5066,-5136,-5853,-4809,7154,138,173,806
770360,62758956,57206912,62918294,57577110,3800,3800,-13282,-4052,-4286,-6438,-5792,8223,141,191,807
771370,62759816,57207932,62919162,57577978,3800,3800,-6376,-3408,-3060,-8598,-16186,32767,141,191,807
772362,62760592,57208940,62920024,57578840,3800,3800,8779,1061,-2326,4773,-20706,32767,153,208,808
773363,62761372,57210008,62920886,57579702,3800,3800,13189,11598,-1297,1590,-4825,32767,153,208,808
774364,62762264,57210924,62921748,57580564,3800,3800,7586,19516,-557,-3270,-67,24132,172,208,810
775365,62763080,57211832,62922610,57581426,3800,3800,3043,21538,-729,-4088,-172,4970,172,208,810
776366,62763952,57212708,62923472,57582288,3800,3800,2395,17341,-1069,-4678,801,-5135,169,199,808
777367,62764852,57213580,62924334,57583150,3800,3800,3665,12986,-1334,-3783,334,-5339,169,199,808
778368,62765648,57214492,62925196,57584012,3800,3800,4368,8789,-1303,-3716,-723,-6872,154,203,809
779369,62766436,57215340,62926058,57584874,3800,3800,4467,5723,-797,-3157,-1360,-4837,154,203,809
780370,62767252,57216192,62926920,57585736,3800,3800,4041,3278,112,-1612,-3130,-3791,165,198,809
781371,62768092,57217044,62927782,57586598,3800,3800,3708,559,1159,-2515,-3424,-4501,165,198,809
782372,62768884,57217876,62928644,57587460,3800,3800,3481,-2276,2076,-4248,-3013,-4076,159,195,810
783373,62769580,57218748,62929506,57588322,3800,3800,3304,-5136,2898,-4627,-3795,-3523,159,195,810
784374,62770328,57219664,62930368,57589184,3800,3800,3096,-7410,3720,-5073,-4706,-2320,174,177,809
785375,62770992,57220440,62931230,57590046,3800,3800,2896,-9382,4583,-5138,-5748,-1734,174,177,809
786376,62771624,57221164,62932092,57590908,3800,3800,2732,-11418,5329,-3944,-6229,-1991,164,190,809
787377,62772260,57221904,62932954,57591770,3800,3800,2498,-13139,5961,-2103,-5748,-804,164,190,809
788378,62772808,57222544,62933816,57592632,3800,3800,2442,-14474,6595,-1680,-5954,-424,145,180,808
789379,62773292,57223140,62934678,57593494,3800,3800,2266,-15084,7139,-2480,-6905,2861,145,180,808
790387,62773744,57223664,62935546,57594362,3800,3800,2169,-15070,7543,-3773,-7078,4064,137,144,806
791381,62774096,57224060,62936408,57595224,3800,3800,1987,-14227,7705,-3992,-5806,6451,137,144,806
792382,62774408,57224468,62937270,57596086,3800,3800,1777,-13222,7502,-4204,-4422,5931,123,116,803
793383,62774716,57224800,62938132,57596948,3800,3800,1569,-12379,7037,-5124,-4347,5808,123,116,803
794384,62774996,57225040,62938994,57597810,3800,3800,1292,-11402,6458,-5573,-4100,6955,69,96,801
795385,62775384,57225172,62939856,57598672,3800,3800,837,-9986,5841,-5599,-4318,8389,69,96,801
796386,62775844,57225316,62940718,57599534,3800,3800,404,-7995,5319,-6431,-4210,8602,62,73,797
797387,62776280,57225448,62941580,57600396,3800,3800,227,-6516,4845,-6867,-1851,6893,62,73,797
798388,62776808,57225600,62942442,57601258,3800,3800,169,-5483,4266,-5749,-329,6059,65,40,794
799389,62777288,57225732,62943304,57602120,3800,3800,48,-4933,3668,-3890,208,5066,65,40,794
800390,62777960,57225888,62944166,57602982,3800,3800,-149,-4720,3076,-2041,-233,4016,96,48,795
801391,62778360,57225988,62945028,57603844,3800,3800,-266,-5333,2519,-1257,-271,1785,96,48,795
802392,62778828,57226068,62945890,57604706,3800,3800,-359,-6492,1973,-467,309,982,126,25,797
803393,62779352,57226192,62946752,57605568,3800,3800,-578,-7722,1401,1205,647,651,126,25,797
804394,62779656,57226332,62947614,57606430,3800,3800,-898,-8961,919,3023,275,412,104,29,796
805395,62780060,57226480,62948476,57607292,3800,3800,-1258,-10099,545,4568,514,965,104,29,796
806396,62780520,57226656,62949338,57608154,3800,3800,-2127,-10396,517,6321,270,4376,102,33,795
807397,62781120,57226832,62950200,57609016,3800,3800,-3199,-10221,606,6608,274,4556,102,33,795
808398,62781596,57227004,62951062,57609878,3800,3800,-3757,-10826,423,6368,1249,1568,79,32,796
809406,62782268,57227176,62951930,57610746,3800,3800,-3972,-12066,-4,6444,1545,1075,79,32,796
810400,62782952,57227404,62952792,57611608,3800,3800,-4260,-12804,-502,7489,2744,3716,88,37,795
811401,62783620,57227612,62953654,57612470,3800,3800,-4965,-12235,-968,8971,3631,7704,88,37,795
812402,62784216,57227832,62954516,57613332,3800,3800,-5487,-11848,-1206,8413,1253,4599,119,40,799
813403,62785084,57228076,62955378,57614194,3800,3800,-5500,-12159,-1216,7550,-134,3409,119,40,799
814404,62785864,57228276,62956240,57615056,3800,3800,-5192,-12606,-1139,7279,-303,3795,130,62,800
815405,62786568,57228572,62957102,57615918,3800,3800,-4717,-12911,-1111,6988,-596,3854,130,62,800
816406,62787512,57228856,62957964,57616780,3800,3800,-4128,-12768,-1241,6920,60,5160,133,60,800
817407,62788500,57229120,62958826,57617642,3800,3800,-3742,-11271,-1630,6946,1647,9759,133,60,800
818408,62789400,57229424,62959688,57618504,3800,3800,-3639,-8575,-2317,6291,2802,12328,154,69,802
819409,62790304,57229740,62960550,57619366,3800,3800,-3476,-5770,-2996,5828,2280,11221,154,69,802
820410,62791420,57230052,62961412,57620228,3800,3800,-2947,-3546,-3547,4984,1615,9247,178,69,799
821411,62792276,57230344,62962274,57621090,3800,3800,-2091,-1917,-4064,4528,947,8090,178,69,799
822412,62793300,57230600,62963136,57621952,3800,3800,-1111,-247,-4530,4038,11,8279,172,75,802
823413,62794368,57230892,62963998,57622814,3800,3800,-160,1673,-4869,3582,-374,8433,172,75,802
824414,62795336,57231244,62964860,57623676,3800,3800,775,3743,-5178,3316,-437,8169,174,74,803
825415,62796248,57231540,62965722,57624538,3800,3800,1746,5832,-5533,3224,-280,7646,174,74,803
826416,62797292,57231828,62966584,57625400,3800,3800,2813,7725,-5834,3114,-1024,6812,188,73,804
827417,62798292,57232064,62967446,57626262,3800,3800,3939,9231,-6099,3059,-1431,5400,188,73,804
828425,62799204,57232304,62968314,57627130,3800,3800,5118,10216,-6345,3209,-1461,3927,193,71,804
829419,62800100,57232616,62969176,57627992,3800,3800,6263,11031,-6498,3333,-1679,3537,193,71,804
830420,62800980,57232972,62970038,57628854,3800,3800,7291,11695,-6495,3584,-1961,2774,168,72,803
831421,62801796,57233244,62970900,57629716,3800,3800,8190,12094,-6434,3441,-1725,1793,168,72,803
832422,62802752,57233500,62971762,57630578,3800,3800,8977,12258,-6391,3352,-1470,1220,176,74,802
833423,62803576,57233772,62972624,57631440,3800,3800,9861,12476,-6099,3721,-2416,1132,182,70,803
834424,62804420,57234096,62973486,57632302,3800,3800,10647,12443,-5705,3210,-2503,151,182,70,803
835425,62805272,57234404,62974348,57633164,3800,3800,11275,12207,-5343,2886,-2557,-154,178,79,805
836426,62806172,57234660,62975210,57634026,3800,3800,11651,11967,-5107,2676,-1699,-45,178,79,805
837427,62807000,57234888,62976072,57634888,3800,3800,11805,11970,-4954,2431,-1392,725,188,69,803
838428,62807824,57235196,62976934,57635750,3800,3800,11767,12329,-4824,2139,-959,1633,188,69,803
839429,62808700,57235504,62977796,57636612,3800,3800,11548,12885,-4662,2320,-600,2297,176,69,803
840430,62809440,57235812,62978658,57637474,3800,3800,11024,14025,-4283,3533,220,4172,176,69,803
841431,62810136,57236100,62979520,57638336,3800,3800,9461,16488,-3339,5346,912,8952,167,63,802
842432,62810860,57236352,62980382,57639198,3800,3800,8012,18039,-2597,4142,2322,2400,167,63,802
843433,62811492,57236724,62981244,57640060,3800,3800,7521,17580,-2509,3187,3659,-2439,155,72,800
844434,62812100,57237092,62982106,57640922,3800,3800,7384,16344,-2653,3851,4300,-2378,155,72,800
845435,62812760,57237404,62982968,57641784,3800,3800,7132,15236,-2547,4839,3612,-2347,136,68,800
846436,62813336,57237716,62983830,57642646,3800,3800,6746,14140,-2200,4794,4072,-3193,136,68,800
847446,62813924,57238060,62984698,57643514,3800,3800,6298,12993,-1859,4598,4229,-3139,141,76,800
848438,62814548,57238476,62985560,57644376,3800,3800,5875,12016,-1566,4648,3784,-2664,141,76,800
849439,62815060,57238900,62986422,57645238,3800,3800,5332,11184,-1286,4251,3549,-2353,126,73,800
850440,62815572,57239276,62987284,57646100,3800,3800,4686,10396,-1026,3963,3040,-2285,126,73,800
851441,62816128,57239728,62988146,57646962,3800,3800,3979,9646,-883,3800,2833,-2108,124,85,801
852442,62816696,57240220,62989008,57647824,3800,3800,3232,9112,-874,3458,3156,-1241,124,85,801
853443,62817200,57240620,62989870,57648686,3800,3800,2440,8915,-990,2820,2513,-253,120,100,799
854444,62817712,57241152,62990732,57649548,3800,3800,1723,8656,-1186,2221,1765,-768,120,100,799
855445,62818284,57241692,62991594,57650410,3800,3800,1153,8282,-1472,1794,1579,-877,109,100,800
856446,62818800,57242216,62992456,57651272,3800,3800,782,7767,-1919,1676,2404,-1469,109,100,800
857447,62819324,57242860,62993318,57652134,3800,3800,535,7141,-2450,1517,2613,-1737,115,100,799
858448,62819932,57243432,62994180,57652996,3800,3800,351,6704,-2945,1191,2474,-1072,115,100,799
859449,62820532,57244100,62995042,57653858,3800,3800,171,6469,-3441,1048,2586,-848,102,106,802
860450,62821088,57244732,62995904,57654720,3800,3800,79,6258,-3941,830,2961,-1068,102,106,802
861451,62821752,57245488,62996766,57655582,3800,3800,46,5942,-4391,665,3013,-1155,109,137,802
862452,62822400,57246248,62997628,57656444,3800,3800,100,5621,-4799,577,2702,-1332,109,137,802
863453,62823008,57247100,62998490,57657306,3800,3800,174,5207,-5180,98,2775,-1539,108,128,801
864454,62823648,57247868,62999352,57658168,3800,3800,267,4893,-5567,-243,2997,-1314,108,128,801
865455,62824388,57248696,63000214,57659030,3800,3800,310,4613,-5999,-512,3246,-1398,141,157,804
866463,62825092,57249380,63001082,57659898,3800,3800,269,4255,-6473,-845,3382,-1652,141,157,804
867457,62825760,57250188,63001944,57660760,3800,3800,200,3756,-7026,-1194,3749,-2216,129,166,804
868458,62826564,57250980,63002806,57661622,3800,3800,83,3168,-7624,-1551,3680,-2269,129,166,804
869459,62827312,57251780,63003668,57662484,3800,3800,-159,2785,-8196,-1951,3245,-1479,135,146,806
870460,62828056,57252504,63004530,57663346,3800,3800,-533,2657,-8746,-2570,3071,-1086,135,146,806
871461,62828896,57253148,63005392,57664208,3800,3800,-988,2611,-9336,-3292,2968,-1210,152,145,807
872462,62829680,57253784,63006254,57665070,3800,3800,-1484,2415,-9974,-3814,2399,-1651,152,145,807
873463,62830480,57254460,63007116,57665932,3800,3800,-1966,2155,-10507,-4164,1636,-1390,164,146,806
874464,62831324,57255096,63007978,57666794,3800,3800,-2408,2026,-10755,-4435,152,-1008,164,146,806
875465,62832084,57255892,63008840,57667656,3800,3800,-2759,1891,-10642,-5118,-1414,-1199,154,146,805
876466,62832840,57256656,63009702,57668518,3800,3800,-2982,1783,-10139,-5740,-2832,-962,154,146,805
877467,62833692,57257332,63010564,57669380,3800,3800,-3165,1576,-9326,-6162,-3402,-1261,159,154,807
878468,62834420,57258096,63011426,57670242,3800,3800,-3360,1157,-8356,-6645,-3446,-1753,159,154,807
879469,62835060,57258800,63012288,57671104,3800,3800,-3513,429,-7335,-7251,-2966,-2042,181,155,808
880470,62835664,57259672,63013150,57671966,3800,3800,-3523,-634,-6340,-7581,-3034,-2618,181,155,808
881471,62836288,57260360,63014012,57672828,3800,3800,-3601,-1935,-5487,-7425,-2939,-2945,156,149,806
882472,62836824,57261080,63014874,57673690,3800,3800,-3823,-3531,-4878,-6699,-2656,-3578,156,149,806
883473,62837256,57261716,63015736,57674552,3800,3800,-4260,-5170,-4432,-5549,-2786,-2985,134,137,805
884474,62837716,57262464,63016598,57675414,3800,3800,-4759,-7046,-3973,-4851,-3170,-3538,134,137,805
885482,62838044,57263196,63017466,57676282,3800,3800,-5326,-8849,-3325,-4615,-4365,-2553,113,130,804
886476,62838312,57264116,63018328,57677144,3800,3800,-6010,-10443,-2483,-4403,-5172,-1725,113,130,804
887477,62838552,57264796,63019190,57678006,3800,3800,-6835,-12014,-1578,-3366,-5540,-1270,76,155,802
888478,62838708,57265532,63020052,57678868,3800,3800,-8606,-11721,-543,-1021,-5290,6327,76,155,802
889479,62838768,57266456,63020914,57679730,3800,3800,-10730,-11333,515,-997,-8188,3768,55,156,802
890480,62838820,57267296,63021776,57680592,3800,3800,-12508,-11359,1376,-493,-9684,3377,55,156,802
891481,62838824,57268240,63022638,57681454,3800,3800,-13901,-12072,2185,216,-10487,2814,21,156,800
892482,62838804,57269112,63023500,57682316,3800,3800,-14861,-13114,2896,1750,-10378,2315,21,156,800
893483,62838816,57270028,63024362,57683178,3800,3800,-15557,-14558,3446,3154,-9495,1074,16,168,799
894484,62838820,57270808,63025224,57684040,3800,3800,-15869,-16299,3739,4474,-5684,875,16,168,799
895485,62838812,57271920,63026086,57684902,3800,3800,-16034,-18162,3756,6498,-2704,948,19,195,800
896486,62838812,57272860,63026948,57685764,3800,3800,-16135,-19739,3767,8307,-2746,2007,19,195,800
897487,62838816,57273928,63027810,57686626,3800,3800,-15043,-19798,4048,11271,-5389,5807,12,209,799
898488,62838812,57274936,63028672,57687488,3800,3800,-4488,1049,3615,32767,-12298,32767,12,209,799
899489,62838808,57275868,63029534,57688350,3800,3800,6510,20829,2945,20781,-7863,28308,17,203,801
900490,62838824,57276792,63030396,57689212,3800,3800,9119,22292,3069,8006,-2877,4548,17,203,801
901491,62838824,57277680,63031258,57690074,3800,3800,7062,15550,3356,7794,-3168,959,6,193,801
902492,62838812,57278524,63032120,57690936,3800,3800,4766,9110,3450,7538,-4262,-4368,6,193,801
903493,62838824,57279372,63032982,57691798,3800,3800,3863,5882,3623,7219,-5653,-2359,16,169,800
904501,62838832,57280120,63033850,57692666,3800,3800,3354,4341,3999,7091,-6705,-1312,16,169,800
905495,62838812,57280876,63034712,57693528,3800,3800,2206,3297,4292,8157,-9679,-3788,1,189,799
906496,62838820,57281624,63035574,57694390,3800,3800,604,2199,4158,8069,-12158,-9061,1,189,799
907497,62838840,57282328,63036436,57695252,3800,3800,-980,677,3811,5377,-11954,-11760,8,177,797
908498,62838840,57282888,63037298,57696114,3800,3800,-1566,-1739,3646,3585,-7605,-7956,8,177,797
909499,62838836,57283352,63038160,57696976,3800,3800,-1390,-4544,3688,2627,-5166,-3926,10,146,797
910500,62838848,57283748,63039022,57697838,3800,3800,-1052,-6449,3782,1733,-3827,-193,10,146,797
911501,62838852,57284124,63039884,57698700,3800,3800,-1141,-7021,3835,846,-3624,3643,21,117,797
912502,62838832,57284488,63040746,57699562,3800,3800,-1488,-6343,3851,-908,-3669,6160,21,117,797
913502,62838848,57284792,63041608,57700424,3800,3800,-1894,-5049,3674,-2795,-2910,8033,6,88,795
914504,62838872,57285020,63042470,57701286,3800,3800,-2265,-3065,3177,-4467,-1918,9783,6,88,795
915505,62838864,57285116,63043332,57702148,3800,3800,-2446,-990,2588,-6280,-1519,9614,3,58,794
916506,62838844,57285136,63044194,57703010,3800,3800,-2388,1010,1997,-8094,-2550,9430,3,58,794
917507,62838880,57285208,63045056,57703872,3800,3800,-2192,2850,1440,-9526,-4579,9312,15,34,792
918508,62838884,57285292,63045918,57704734,3800,3800,-1911,4588,804,-10282,-3533,9334,15,34,792
919509,62838860,57285400,63046780,57705596,3800,3800,-1667,6291,64,-10627,-1467,8816,17,23,790
920510,62838892,57285488,63047642,57706458,3800,3800,-1442,7562,-682,-10962,-800,7388,17,23,790
921511,62838920,57285520,63048504,57707320,3800,3800,-1157,8270,-1371,-10686,-1063,5897,-1,18,789
922512,62838924,57285536,63049366,57708182,3800,3800,-782,8363,-1877,-9620,-2020,4120,-1,18,789
923522,62838956,57285576,63050234,57709050,3800,3800,-267,7993,-2076,-8428,-3637,3001,1,13,790
924514,62839000,57285704,63051096,57709912,3800,3800,313,7276,-1917,-7209,-5798,2233,1,13,790
925515,62839044,57285880,63051958,57710774,3800,3800,819,6239,-1482,-5736,-6710,1444,7,22,790
926516,62839044,57286084,63052820,57711636,3800,3800,1095,5019,-834,-3683,-6193,911,7,22,790
927517,62839084,57286292,63053682,57712498,3800,3800,1292,3402,-255,-2095,-3770,-611,9,28,790
928518,62839128,57286440,63054544,57713360,3800,3800,1464,1303,214,-861,-2738,-1680,9,28,790
929519,62839132,57286560,63055406,57714222,3800,3800,1709,-1292,607,-22,-2328,-2952,11,38,790
930520,62839152,57286756,63056268,57715084,3800,3800,2013,-4061,884,397,-1826,-2975,11,38,790
931521,62839224,57287036,63057130,57715946,3800,3800,2282,-6561,1046,347,-1596,-2054,12,56,791
932522,62839284,57287344,63057992,57716808,3800,3800,2440,-8570,1141,384,-1398,-557,12,56,791
933523,62839364,57287716,63058854,57717670,3800,3800,2353,-9751,1176,1113,-1038,2276,14,62,792
934524,62839552,57288056,63059716,57718532,3800,3800,2062,-10188,1238,1869,-1639,4126,14,62,792
935525,62839804,57288404,63060578,57719394,3800,3800,1841,-10469,1404,2199,-2790,4091,14,69,792
936526,62840168,57288812,63061440,57720256,3800,3800,1739,-10686,1517,1963,-2646,5035,14,69,792
937527,62840576,57289260,63062302,57721118,3800,3800,1599,-10410,1501,1566,-1571,7071,40,68,794
938528,62840968,57289708,63063164,57721980,3800,3800,1474,-9871,1394,1384,-946,6947,40,68,794
939529,62841464,57290260,63064026,57722842,3800,3800,1518,-9629,1293,1794,-680,5703,70,104,797
940530,62842072,57290744,63064888,57723704,3800,3800,1592,-9180,1155,2111,20,7558,70,104,797
941531,62842608,57291252,63065750,57724566,3800,3800,1543,-8294,869,2211,1238,8709,103,98,799
942539,62843116,57291756,63066618,57725434,3800,3800,1626,-7667,500,1762,1424,7057,103,98,799
943533,62843628,57292312,63067480,57726296,3800,3800,1874,-7428,111,1212,1653,6568,115,103,801
944534,62844164,57292912,63068342,57727158,3800,3800,2186,-7401,-302,1325,1972,6283,115,103,801
945534,62844732,57293504,63069204,57728020,3800,3800,2414,-7101,-786,1988,2480,6901,114,114,801
946536,62845180,57294056,63070066,57728882,3800,3800,2663,-6751,-1174,2035,1995,6273,114,114,801
947537,62845908,57294720,63070928,57729744,3800,3800,2921,-6502,-1389,1937,839,6298,104,109,800
948538,62846544,57295360,63071790,57730606,3800,3800,3159,-6056,-1524,1477,298,7043,104,109,800
949539,62847396,57296096,63072652,57731468,3800,3800,3359,-5477,-1624,1209,569,6952,124,132,802
950540,62847996,57296904,63073514,57732330,3800,3800,3676,-5102,-1792,1858,1239,5467,124,132,802
951541,62848760,57297660,63074376,57733192,3800,3800,4121,-5219,-1967,2335,1534,4090,146,140,803
952542,62849628,57298448,63075238,57734054,3800,3800,4696,-5407,-2044,2650,1467,4063,146,140,803
953543,62850544,57299188,63076100,57734916,3800,3800,5270,-5399,-1982,2960,945,4338,145,148,805
954544,62851364,57300084,63076962,57735778,3800,3800,5798,-5157,-1811,2724,672,4668,145,148,805
955545,62852244,57300948,63077824,57736640,3800,3800,6243,-4743,-1662,2725,1242,4779,169,166,806
956546,62853288,57301888,63078686,57737502,3800,3800,6608,-4463,-1644,2854,1471,3837,169,166,806
957547,62854292,57302872,63079548,57738364,3800,3800,7046,-4455,-1687,2394,1064,2645,160,181,808
958548,62855244,57303800,63080410,57739226,3800,3800,7562,-4541,-1759,1853,878,2097,160,181,808
959549,62856424,57304748,63081272,57740088,3800,3800,8035,-4461,-1843,1446,579,2729,183,176,810
960550,62857408,57305760,63082134,57740950,3800,3800,8364,-3677,-1751,1126,-308,4698,183,176,810
961558,62858452,57306856,63083002,57741818,3800,3800,8613,-2422,-1449,1007,-513,4947,180,197,810
962552,62859572,57307824,63083864,57742680,3800,3800,8952,-1098,-1158,542,-187,4380,180,197,810
963553,62860544,57308892,63084726,57743542,3800,3800,9342,152,-963,26,-346,4318,200,198,810
964554,62861588,57309964,63085588,57744404,3800,3800,9732,1469,-833,-119,-500,3968,200,198,810
965555,62862704,57311056,63086450,57745266,3800,3800,10123,2673,-664,-271,-949,3041,200,210,812
966556,62863680,57312088,63087312,57746128,3800,3800,10593,3686,-452,-425,-1204,2178,200,210,812
967557,62864664,57313256,63088174,57746990,3800,3800,11045,4695,-171,-599,-1946,2126,216,206,813
968558,62865520,57314396,63089036,57747852,3800,3800,11313,5843,252,-751,-3210,2470,216,206,813
969559,62866476,57315424,63089898,57748714,3800,3800,11334,7123,743,-657,-3989,2552,201,208,813
970560,62867340,57316480,63090760,57749576,3800,3800,11190,8413,1050,-524,-3182,2239,201,208,813
971561,62868208,57317500,63091622,57750438,3800,3800,11089,9566,1251,345,-2627,1779,214,203,813
972562,62869088,57318640,63092484,57751300,3800,3800,11122,10737,1553,1205,-2648,1731,214,203,813
973563,62869924,57319736,63093346,57752162,3800,3800,11063,11766,1818,1256,-2093,1172,199,204,811
974564,62870760,57320684,63094208,57753024,3800,3800,10878,12497,1939,1885,-1448,-54,199,204,811
975565,62871616,57321716,63095070,57753886,3800,3800,10578,12675,1866,2640,-1087,-1762,178,218,811
976566,62872380,57322740,63095932,57754748,3800,3800,10259,12412,1634,3385,-518,-2717,178,218,811
977567,62873120,57323704,63096794,57755610,3800,3800,9775,12218,1213,3905,595,-2171,184,208,812
978568,62873860,57324760,63097656,57756472,3800,3800,9185,12177,840,4579,94,-1773,184,208,812
979568,62874468,57325660,63098518,57757334,3800,3800,8595,12038,487,4814,417,-2265,173,201,811
980577,62875024,57326576,63099386,57758202,3800,3800,8046,11723,9,4809,1574,-2529,173,201,811
981571,62875488,57327388,63100248,57759064,3800,3800,7285,11406,-902,4933,4558,-2203,132,191,809
982572,62875944,57328196,63101110,57759926,3800,3800,6191,10897,-2580,4509,8481,-2768,132,191,809
983573,62876276,57329048,63101972,57760788,3800,3800,4973,9929,-4839,4446,11826,-4161,108,176,806
984574,62876544,57329892,63102834,57761650,3800,3800,3838,8611,-7283,4958,12794,-4693,108,176,806
985575,62876828,57330608,63103696,57762512,3800,3800,2780,7570,-9184,6188,10174,-2957,74,172,803
986576,62877040,57331496,63104558,57763374,3800,3800,1709,7008,-10202,7077,8023,-1418,74,172,803
987577,62877196,57332328,63105420,57764236,3800,3800,722,6497,-10718,7323,7333,-1937,52,140,801
988578,62877344,57333224,63106282,57765098,3800,3800,-118,5575,-11061,7209,6726,-3170,52,140,801
989579,62877468,57334224,63107144,57765960,3800,3800,-932,4360,-11192,7627,6403,-3426,58,158,799
990580,62877544,57335208,63108006,57766822,3800,3800,-2046,3695,-10753,8810,4772,-808,58,158,799
991581,62877628,57336092,63108868,57767684,3800,3800,-3304,3635,-10073,8953,5488,333,23,183,800
992582,62877708,57337052,63109730,57768546,3800,3800,-4407,3699,-9470,8340,6807,570,23,183,800
993583,62877804,57337976,63110592,57769408,3800,3800,-5093,3173,-9342,7490,8713,-1520,19,199,802
994584,62877892,57339036,63111454,57770270,3800,3800,-5598,2460,-9587,6633,10176,-1098,19,199,802
995585,62877996,57340200,63112316,57771132,3800,3800,-6069,2217,-9931,5306,11225,325,27,201,802
996586,62878096,57341204,63113178,57771994,3800,3800,-6594,2471,-10331,3837,11463,1192,27,201,802
997587,62878200,57342188,63114040,57772856,3800,3800,-7201,2993,-10740,2723,10830,1770,38,198,802
998588,62878308,57343168,63114902,57773718,3800,3800,-7823,3596,-11071,2344,10067,1812,38,198,802
999598,62878444,57344128,63115770,57774586,3800,3800,-8355,3910,-11365,1933,10007,1018,23,201,802
1000590,62878576,57345108,63116632,57775448,3800,3800,-8780,3877,-11804,854,10807,348,23,201,802
1001590,62878720,57346076,63117494,57776310,3800,3800,-9095,3637,-12441,-65,10602,-341,36,195,801
1002592,62878872,57346988,63118356,57777172,3800,3800,-9269,3176,-13047,-178,8588,-1360,36,195,801
1003593,62879076,57347884,63119218,57778034,3800,3800,-9318,2540,-13404,-210,6197,-1688,40,195,802
1004594,62879268,57348756,63120080,57778896,3800,3800,-9305,1966,-13471,-521,4899,-1270,40,195,802
1005595,62879524,57349576,63120942,57779758,3800,3800,-9390,1546,-13378,-1045,4114,-691,52,187,802
1006596,62879796,57350456,63121804,57780620,3800,3800,-9562,1360,-13110,-1437,2537,115,52,187,802
1007597,62880092,57351120,63122666,57781482,3800,3800,-9748,1574,-12583,-1559,282,1514,51,175,801
1008598,62880392,57351796,63123528,57782344,3800,3800,-9955,2084,-11913,-1978,-942,2384,51,175,801
1009598,62880764,57352388,63124390,57783206,3800,3800,-10219,2439,-11280,-2793,-1183,2052,57,155,801
1010600,62881112,57352988,63125252,57784068,3800,3800,-10516,2461,-10653,-3523,-2410,1588,57,155,801
1011601,62881516,57353488,63126114,57784930,3800,3800,-10696,2180,-9928,-4129,-3838,1021,76,135,801
1012602,62881964,57353948,63126976,57785792,3800,3800,-10717,1513,-9171,-4839,-4557,24,76,135,801
1013603,62882400,57354288,63127838,57786654,3800,3800,-10608,567,-8423,-5440,-5630,-216,65,108,799
1014604,62882852,57354556,63128700,57787516,3800,3800,-10415,-461,-7687,-6016,-6384,148,65,108,799
1015605,62883380,57354756,63129562,57788378,3800,3800,-10200,-1405,-6991,-6216,-6697,704,79,91,799
1016606,62883856,57354944,63130424,57789240,3800,3800,-9943,-2212,-6267,-6681,-7790,1462,79,91,799
1017607,62884396,57355100,63131286,57790102,3800,3800,-8951,-5266,-5172,-13759,-11863,-1389,89,53,797
1018615,62884924,57355228,63132154,57790970,3800,3800,2318,-14883,-3267,-23298,-32768,32767,89,53,797
1019609,62885504,57355272,63133016,57791832,3800,3800,14118,-21368,-1842,-7098,-23351,32767,108,39,796
1020610,62886108,57355316,63133878,57792694,3800,3800,16766,-19096,-751,-3208,-7749,13607,108,39,796
1021611,62886660,57355408,63134740,57793556,3800,3800,13608,-13714,401,-2999,-6294,14109,108,19,796
1022612,62887304,57355516,63135602,57794418,3800,3800,9106,-8439,1746,-2996,-8679,18832,108,19,796
1023613,62887920,57355692,63136464,57795280,3800,3800,5561,-3200,3768,-1783,-5563,20499,125,21,796
1024614,62888516,57355788,63137326,57796142,3800,3800,2906,1757,5320,230,-526,18800,125,21,796
1025615,62889196,57355944,63138188,57797004,3800,3800,1960,3145,5524,-2169,-113,5289,126,25,796
1026616,62889880,57356124,63139050,57797866,3800,3800,2455,1479,5135,-3928,1373,-499,126,25,796
1027617,62890584,57356328,63139912,57798728,3800,3800,2860,-973,4659,-1527,2515,-702,117,48,797
1028618,62891264,57356592,63140774,57799590,3800,3800,2918,-2779,4398,-48,2326,-1197,117,48,797
1029619,62891984,57356920,63141636,57800452,3800,3800,2859,-4257,4498,-922,1629,-1444,140,55,797
1030620,62892732,57357204,63142498,57801314,3800,3800,2814,-5793,4664,-239,535,-1510,140,55,797
1031621,62893404,57357484,63143360,57802176,3800,3800,2804,-6919,4823,418,573,865,140,61,799
1032622,62894152,57357796,63144222,57803038,3800,3800,2554,-6942,5089,324,66,4238,140,61,799
1033623,62894960,57358120,63145084,57803900,3800,3800,2194,-6578,5159,24,271,3855,129,56,800
1034624,62895676,57358456,63145946,57804762,3800,3800,1896,-6541,4906,-1338,1593,3754,129,56,800
1035625,62896424,57358808,63146808,57805624,3800,3800,1752,-6375,4266,-2084,3618,4122,149,83,800
1036626,62897160,57359108,63147670,57806486,3800,3800,1599,-6216,3323,-2203,4436,4233,149,83,800
1037634,62897912,57359420,63148538,57807354,3800,3800,1331,-5354,2240,-3352,5663,7154,133,73,801
1038628,62898632,57359776,63149400,57808216,3800,3800,1010,-4240,1274,-3280,5916,7030,133,73,801
1039629,62899340,57360120,63150262,57809078,3800,3800,887,-3795,342,-2828,6055,4113,134,80,800
1040630,62900092,57360472,63151124,57809940,3800,3800,1077,-4017,-559,-2940,6441,2683,134,80,800
1041631,62900728,57360824,63151986,57810802,3800,3800,1337,-4524,-1208,-2335,4390,2639,149,72,800
1042632,62901404,57361136,63152848,57811664,3800,3800,1461,-5061,-1541,-1444,2353,2356,149,72,800
1043633,62902084,57361416,63153710,57812526,3800,3800,1491,-5582,-1526,-918,929,2090,162,72,801
1044634,62902708,57361656,63154572,57813388,3800,3800,1530,-6336,-1467,309,1510,567,162,72,801
1045635,62903312,57361908,63155434,57814250,3800,3800,1555,-7446,-1433,1387,1750,390,146,59,800
1046636,62904044,57362172,63156296,57815112,3800,3800,1564,-8487,-1236,2297,956,613,146,59,800
1047637,62904592,57362412,63157158,57815974,3800,3800,1598,-9396,-830,3369,-192,244,130,63,799
1048638,62905300,57362624,63158020,57816836,3800,3800,1692,-10176,-353,3207,-745,509,130,63,799
1049639,62905852,57362816,63158882,57817698,3800,3800,1834,-10769,117,2768,-1233,1242,125,49,798
1050640,62906528,57363012,63159744,57818560,3800,3800,1975,-11012,569,2642,-2029,1987,125,49,798
1051641,62907180,57363168,63160606,57819422,3800,3800,2077,-10754,1111,2567,-3569,3438,134,54,797
1052642,62907832,57363372,63161468,57820284,3800,3800,1968,-9566,1573,2253,-3693,6415,134,54,797
1053643,62908576,57363616,63162330,57821146,3800,3800,1669,-7607,1731,1592,-3481,8519,141,56,797
1054644,62909248,57363872,63163192,57822008,3800,3800,1419,-5417,1775,2055,-2635,8174,141,56,797
1055645,62910016,57364120,63164054,57822870,3800,3800,1561,-4019,1689,2574,-763,5173,115,58,798
1056653,62910708,57364368,63164922,57823738,3800,3800,1991,-3147,1356,2399,514,4642,115,58,798
1057647,62911516,57364596,63165784,57824600,3800,3800,2412,-2086,918,2167,349,5763,129,62,799
1058648,62912268,57364952,63166646,57825462,3800,3800,2587,-326,568,1941,-1269,7472,129,62,799
1059649,62913092,57365292,63167508,57826324,3800,3800,2631,1654,220,2316,-498,7144,148,58,800
1060650,62913868,57365624,63168370,57827186,3800,3800,2717,3385,-247,2708,193,6097,148,58,800
1061651,62914708,57365932,63169232,57828048,3800,3800,2881,4624,-795,2991,102,4977,163,76,801
1062652,62915512,57366324,63170094,57828910,3800,3800,3180,5538,-1277,3019,-451,4272,163,76,801
1063653,62916436,57366768,63170956,57829772,3800,3800,3506,6513,-1621,2766,-1181,4471,160,83,801
1064654,62917304,57367148,63171818,57830634,3800,3800,3839,7424,-1916,2896,-1217,3641,160,83,801
1065655,62918244,57367508,63172680,57831496,3800,3800,4138,8154,-2192,3399,-896,2852,171,78,801
1066656,62919276,57367992,63173542,57832358,3800,3800,4395,8684,-2421,3948,-635,2204,171,78,801
1067657,62920280,57368452,63174404,57833220,3800,3800,4546,9042,-2627,4628,-502,1615,159,86,803
1068658,62921252,57368844,63175266,57834082,3800,3800,4574,9185,-2818,5583,-240,878,159,86,803
1069659,62922300,57369400,63176128,57834944,3800,3800,4537,9077,-2986,6195,228,-52,162,82,802
1070660,62923344,57369912,63176990,57835806,3800,3800,4487,8732,-3177,6165,699,-758,162,82,802
1071661,62924348,57370352,63177852,57836668,3800,3800,4397,8234,-3405,5886,728,-1028,200,96,805
1072662,62925360,57370900,63178714,57837530,3800,3800,4313,7759,-3607,5802,537,-1111,200,96,805
1073662,62926356,57371456,63179576,57838392,3800,3800,4248,7277,-3792,5815,568,-1205,212,95,804
1074664,62927308,57371996,63180438,57839254,3800,3800,4174,6961,-3979,5295,597,-792,212,95,804
1075674,62928336,57372616,63181306,57840122,3800,3800,4032,6839,-4127,4403,405,-171,189,118,805
1076666,62929260,57373116,63182168,57840984,3800,3800,3898,6671,-4249,3934,777,-383,189,118,805
1077667,62930180,57373768,63183030,57841846,3800,3800,3758,6701,-4380,3710,1407,210,182,116,805
1078668,62930972,57374368,63183892,57842708,3800,3800,3650,7021,-4468,3075,1506,672,182,116,805
1079669,62931936,57374976,63184754,57843570,3800,3800,3560,7444,-4498,1898,1340,1113,189,129,806
1080670,62932804,57375672,63185616,57844432,3800,3800,3429,8112,-4525,1075,1337,2146,189,129,806
1081671,62933700,57376388,63186478,57845294,3800,3800,3233,9237,-4416,1305,677,3285,181,124,806
1082672,62934612,57377144,63187340,57846156,3800,3800,3068,10391,-4246,1392,1136,2541,181,124,806
1083673,62935456,57377876,63188202,57847018,3800,3800,2938,11130,-4171,745,1763,1298,178,126,808
1084674,62936344,57378676,63189064,57847880,3800,3800,2781,11695,-4179,158,2167,1361,178,126,808
1085675,62937264,57379564,63189926,57848742,3800,3800,2598,12315,-4178,182,2077,1434,179,160,806
1086676,62938096,57380328,63190788,57849604,3800,3800,2346,13075,-4129,277,2173,1599,179,160,806
1087677,62938964,57381192,63191650,57850466,3800,3800,2115,13697,-4100,206,2999,835,171,149,807
1088678,62939836,57382000,63192512,57851328,3800,3800,1908,13921,-4174,5,3753,-59,171,149,807
1089679,62940616,57382808,63193374,57852190,3800,3800,1718,13952,-4328,207,3979,-282,186,173,808
1090680,62941336,57383612,63194236,57853052,3800,3800,1539,13733,-4574,422,4386,-1452,186,173,808
1091681,62942076,57384412,63195098,57853914,3800,3800,1316,13220,-5000,521,5094,-2152,172,170,807
1092682,62942708,57385192,63195960,57854776,3800,3800,1003,12600,-5634,486,5948,-2307,172,170,807
1093683,62943408,57385880,63196822,57855638,3800,3800,555,12051,-6352,709,5575,-1852,159,165,806
1094691,62944040,57386672,63197690,57856506,3800,3800,-54,11772,-6897,1242,4252,-845,159,165,806
1095685,62944764,57387464,63198552,57857368,3800,3800,-761,11580,-7355,1466,4393,-865,143,173,804
1096686,62945360,57388256,63199414,57858230,3800,3800,-1396,11007,-8008,1221,4963,-2533,143,173,804
1097687,62945988,57389060,63200276,57859092,3800,3800,-1922,9848,-8866,936,4040,-4014,144,156,804
1098688,62946676,57389784,63201138,57859954,3800,3800,-2393,8290,-9724,769,3824,-4819,144,156,804
1099689,62947272,57390616,63202000,57860816,3800,3800,-2753,6575,-10571,537,5185,-5540,136,178,806
1100690,62947880,57391328,63202862,57861678,3800,3800,-3139,4754,-11454,580,4769,-5571,136,178,806
1101691,62948528,57392032,63203724,57862540,3800,3800,-3575,3074,-12211,1058,3002,-4931,134,150,806
1102692,62949152,57392724,63204586,57863402,3800,3800,-4033,1534,-12696,945,2126,-4332,134,150,806
1103693,62949760,57393452,63205448,57864264,3800,3800,-4536,373,-13045,315,1946,-3102,117,135,804
1104694,62950376,57394176,63206310,57865126,3800,3800,-5148,-471,-13256,-9,1253,-2140,117,135,804
1105695,62950984,57395044,63207172,57865988,3800,3800,-5713,-1310,-13152,134,466,-2463,113,136,804
1106696,62951632,57395640,63208034,57866850,3800,3800,-6192,-2536,-12841,110,1184,-3547,113,136,804
1107697,62952312,57396236,63208896,57867712,3800,3800,-6586,-4040,-12452,-686,1250,-4014,117,144,803
1108698,62952940,57396852,63209758,57868574,3800,3800,-6912,-5330,-11996,-2291,249,-2859,117,144,803
1109699,62953616,57397392,63210620,57869436,3800,3800,-7147,-6135,-11511,-3823,-1227,-1664,118,121,804
1110700,62954252,57397884,63211482,57870298,3800,3800,-7295,-6308,-10990,-5057,-2184,-63,118,121,804
1111701,62954936,57398360,63212344,57871160,3800,3800,-7394,-6019,-10373,-6267,-2973,1198,128,105,803
1112702,62955620,57398844,63213206,57872022,3800,3800,-7513,-5501,-9788,-7112,-3766,2197,128,105,803
1113710,62956304,57399256,63214074,57872890,3800,3800,-7698,-4495,-9291,-7624,-4666,4110,133,105,803
1114704,62957048,57399620,63214936,57873752,3800,3800,-7853,-3152,-8832,-8113,-5987,4367,133,105,803
1115705,62957764,57400000,63215798,57874614,3800,3800,-7881,-1913,-8392,-8766,-7424,3652,123,93,802
1116706,62958484,57400344,63216660,57875476,3800,3800,-7844,-999,-7959,-9472,-9421,3497,123,93,802
1117707,62959272,57400676,63217522,57876338,3800,3800,-7909,39,-7555,-9805,-10675,4640,138,76,800
1118708,62960064,57401104,63218384,57877200,3800,3800,-8036,1663,-7163,-10364,-12372,6037,138,76,800
1119709,62960896,57401536,63219246,57878062,3800,3800,-7345,3235,-6765,-11924,-20813,9778,136,93,801
1120710,62961764,57401896,63220108,57878924,3800,3800,-1938,4130,-6149,-18258,-32768,32767,136,93,801
1121711,62962564,57402304,63220970,57879786,3800,3800,2652,6031,-4732,-24532,-32768,25159,175,81,802
1122712,62963328,57402728,63221832,57880648,3800,3800,2936,7760,-3532,-15608,-13005,3211,175,81,802
1123713,62964176,57403128,63222694,57881510,3800,3800,1677,8426,-2982,-11637,-6194,2811,177,87,802
1124714,62964916,57403660,63223556,57882372,3800,3800,876,8262,-2564,-10923,-5032,1604,177,87,802
1125715,62965700,57404144,63224418,57883234,3800,3800,586,7692,-2148,-8854,-4253,628,167,86,803
1126716,62966392,57404636,63225280,57884096,3800,3800,492,6520,-1643,-8438,-3763,-771,167,86,803
1127717,62967112,57405212,63226142,57884958,3800,3800,265,5011,-1066,-7460,-2763,-707,166,108,803
1128718,62967768,57405832,63227004,57885820,3800,3800,-62,3304,-464,-5102,-2107,-1118,166,108,803
1129719,62968340,57406428,63227866,57886682,3800,3800,-377,1298,215,-3512,-1867,-1372,149,110,803
1130720,62968944,57407172,63228728,57887544,3800,3800,-699,-881,958,-1589,-2590,-1220,149,110,803
1131721,62969464,57407812,63229590,57888406,3800,3800,-1888,-2232,2082,1205,-5609,3012,132,124,803
1132729,62969964,57408492,63230458,57889274,3800,3800,-3914,-2827,3507,3133,-6957,3602,132,124,803
1133723,62970456,57409088,63231320,57890136,3800,3800,-4260,-6039,3606,12895,-12760,4497,111,130,802
1134724,62970892,57409744,63232182,57890998,3800,3800,-2762,-11652,2211,20167,-16603,12565,111,130,802
1135725,62971312,57410352,63233044,57891860,3800,3800,-2267,-15254,2004,9615,-1389,551,110,130,803
1136726,62971764,57411008,63233906,57892722,3800,3800,-1363,-19209,1809,15106,-1457,8408,110,130,803
1137727,62972208,57411460,63234768,57893584,3800,3800,-817,-21696,1690,13826,1801,5634,79,147,801
1138728,62972740,57411908,63235630,57894446,3800,3800,-1417,-22178,1844,12519,4202,7131,79,147,801
1139729,62973268,57412304,63236492,57895308,3800,3800,-2087,-21889,2200,11226,1677,7790,83,108,800
1140730,62973816,57412684,63237354,57896170,3800,3800,-808,-20239,2498,11560,1042,14260,83,108,800
1141731,62974416,57413088,63238216,57897032,3800,3800,5062,-9126,1834,18908,5585,32767,91,110,799
1142732,62974876,57413404,63239078,57897894,3800,3800,10273,1,812,9890,3842,24740,91,110,799
1143733,62975528,57413644,63239940,57898756,3800,3800,10014,2723,6,5655,6245,14098,116,88,799
1144734,62976068,57413816,63240802,57899618,3800,3800,8185,2721,-890,5697,8823,8895,116,88,799
1145735,62976552,57413932,63241664,57900480,3800,3800,6561,1654,-1704,4312,9768,5942,111,70,799
1146736,62977144,57414136,63242526,57901342,3800,3800,6087,1303,-2464,4559,9035,5479,111,70,799
1147737,62977676,57414352,63243388,57902204,3800,3800,6138,816,-3108,4151,7177,3307,118,46,798
1148738,62978264,57414516,63244250,57903066,3800,3800,5999,106,-3634,3556,4379,3304,118,46,798
1149739,62978872,57414612,63245112,57903928,3800,3800,5817,-504,-4081,3227,2657,3056,104,42,796
1150740,62979488,57414656,63245974,57904790,3800,3800,5389,-1223,-4746,2649,2391,3051,104,42,796
1151750,62980072,57414708,63246842,57905658,3800,3800,4945,-1648,-5668,1715,1662,3642,130,27,794
1152742,62980600,57414820,63247704,57906520,3800,3800,4407,-2031,-6434,1492,-1751,4015,130,27,794
1153743,62981216,57414984,63248566,57907382,3800,3800,4005,-2561,-7141,1837,-3212,2392,118,40,797
1154744,62981792,57415116,63249428,57908244,3800,3800,3580,-3639,-7561,2466,-4408,1730,118,40,797
1155745,62982364,57415232,63250290,57909106,3800,3800,3349,-4848,-7636,3140,-4502,280,114,27,795
1156746,62982992,57415320,63251152,57909968,3800,3800,3388,-6784,-7796,3568,-1509,-2350,114,27,795
1157747,62983720,57415432,63252014,57910830,3800,3800,3624,-8715,-7966,3139,-503,-1219,116,27,796
1158748,62984452,57415576,63252876,57911692,3800,3800,3041,-8635,-7630,3650,-1980,6009,116,27,796
1159749,62985168,57415824,63253738,57912554,3800,3800,2436,-8224,-7078,2742,-2661,2403,122,35,795
1160750,62985948,57416060,63254600,57913416,3800,3800,2319,-8675,-6749,2115,-1065,754,122,35,795
1161751,62986744,57416268,63255462,57914278,3800,3800,2529,-9474,-6644,2087,315,1112,144,55,798
1162752,62987624,57416484,63256324,57915140,3800,3800,2755,-10032,-6554,2536,651,1821,144,55,798
1163753,62988544,57416692,63257186,57916002,3800,3800,2895,-8635,-4673,2496,-2693,4449,139,46,798
1164754,62989512,57416976,63258048,57916864,3800,3800,3105,-7198,-3733,1933,-351,6321,139,46,798
1165755,62990456,57417228,63258910,57917726,3800,3800,3324,-5222,-3179,872,834,7904,160,55,800
1166756,62991316,57417520,63259772,57918588,3800,3800,3505,-2868,-2760,458,1524,8640,160,55,800
1167757,62992272,57417796,63260634,57919450,3800,3800,3698,-336,-2332,39,2592,8642,173,72,801
1168758,62993116,57418084,63261496,57920312,3800,3800,3853,2211,-1879,-393,3966,8709,173,72,801
1169759,62994028,57418376,63262358,57921174,3800,3800,4048,4527,-1470,-894,4481,7235,164,76,802
1170767,62994984,57418688,63263226,57922042,3800,3800,4306,6295,-1154,-1561,5517,5503,164,76,802
1171761,62995768,57418964,63264088,57922904,3800,3800,4598,7653,-864,-1498,6237,4441,180,80,803
1172762,62996560,57419232,63264950,57923766,3800,3800,4787,8975,-498,-923,6145,4390,180,80,803
1173763,62997272,57419512,63265812,57924628,3800,3800,4934,10458,121,-614,5200,4559,182,71,800
1174764,62997996,57419728,63266674,57925490,3800,3800,5157,11565,881,-649,5022,3064,182,71,800
1175765,62998716,57419900,63267536,57926352,3800,3800,5338,12264,1526,-728,5896,2190,145,71,801
1176766,62999412,57420104,63268398,57927214,3800,3800,5451,12873,2135,-536,6267,1831,145,71,801
1177767,63000052,57420284,63269260,57928076,3800,3800,5581,13150,2718,-381,6940,90,147,48,800
1178768,63000696,57420444,63270122,57928938,3800,3800,5608,12896,3047,-590,7588,-1540,147,48,800
1179769,63001324,57420600,63270984,57929800,3800,3800,5495,12381,3200,-435,7193,-2041,137,52,800
1180770,63001908,57420696,63271846,57930662,3800,3800,5272,11810,3188,-520,6714,-2444,137,52,800
1181771,63002400,57420792,63272708,57931524,3800,3800,4980,11158,3129,-772,5927,-2563,139,46,799
1182772,63002936,57420924,63273570,57932386,3800,3800,4517,10582,3068,-686,5387,-2194,139,46,799
1183773,63003428,57421016,63274432,57933248,3800,3800,3968,10118,2834,-723,4640,-1948,118,36,797
1184774,63003868,57421128,63275294,57934110,3800,3800,3438,9885,2430,-739,4174,-1462,118,36,797
1185775,63004340,57421196,63276156,57934972,3800,3800,2817,9724,1962,-833,3845,-1394,113,22,795
1186776,63004776,57421212,63277018,57935834,3800,3800,2229,9221,1360,-894,4110,-2657,113,22,795
1187777,63005200,57421156,63277880,57936696,3800,3800,1718,8334,532,-692,4721,-3675,84,21,795
1188778,63005596,57421176,63278742,57937558,3800,3800,1134,7026,-419,-631,4595,-4559,84,21,795
1189786,63006012,57421224,63279610,57938426,3800,3800,454,5742,-1315,-715,4052,-4394,88,13,793
1190780,63006424,57421272,63280472,57939288,3800,3800,-233,4685,-2043,-1117,3228,-3998,88,13,793
1191781,63006748,57421288,63281334,57940150,3800,3800,-904,3783,-2637,-810,2291,-3734,99,16,791
1192782,63007112,57421312,63282196,57941012,3800,3800,-1599,3002,-3130,-161,1273,-3424,99,16,791
1193783,63007416,57421272,63283058,57941874,3800,3800,-2252,2189,-3500,-310,545,-3421,93,11,794
1194784,63007632,57421268,63283920,57942736,3800,3800,-2818,1397,-3782,-604,-612,-3203,93,11,794
1195785,63007868,57421300,63284782,57943598,3800,3800,-3183,690,-3859,-763,-2179,-2794,79,17,792
1196786,63008144,57421344,63285644,57944460,3800,3800,-3437,157,-3697,-708,-3090,-2445,79,17,792
1197787,63008328,57421428,63286506,57945322,3800,3800,-3690,-573,-3476,-690,-3417,-3257,64,21,792
1198788,63008464,57421488,63287368,57946184,3800,3800,-3967,-1454,-3281,-865,-3739,-3115,64,21,792
1199789,63008656,57421468,63288230,57947046,3800,3800,-4256,-2213,-3111,-1125,-4155,-2547,59,22,792
1200790,63008844,57421444,63289092,57947908,3800,3800,-4503,-2835,-2961,-1425,-4733,-2324,59,22,792
1201790,63008932,57421488,63289954,57948770,3800,3800,-4669,-3238,-2817,-1774,-5127,-1697,40,9,791
1202792,63009020,57421560,63290816,57949632,3800,3800,-4788,-3494,-2662,-1985,-5559,-1173,40,9,791
1203793,63009200,57421676,63291678,57950494,3800,3800,-4896,-3524,-2488,-2083,-5820,-369,34,26,791
1204794,63009300,57421780,63292540,57951356,3800,3800,-4964,-3346,-2282,-2364,-5752,221,34,26,791
1205795,63009352,57421904,63293402,57952218,3800,3800,-4969,-3065,-2081,-2672,-5314,611,22,18,789
1206796,63009480,57421932,63294264,57953080,3800,3800,-4920,-2716,-1925,-3104,-4215,1071,22,18,789
1207797,63009632,57422004,63295126,57953942,3800,3800,-4845,-2254,-1825,-3421,-3341,1630,23,39,790
1208804,63009696,57422124,63295994,57954810,3800,3800,-4723,-1808,-1800,-3474,-2724,1470,23,39,790
1209799,63009744,57422244,63296856,57955672,3800,3800,-4545,-1559,-1813,-3583,-2359,990,17,28,791
1210800,63009884,57422340,63297718,57956534,3800,3800,-4333,-1583,-1854,-3573,-1951,510,17,28,791
1211801,63009972,57422440,63298580,57957396,3800,3800,-4145,-1873,-1967,-3323,-1273,147,16,19,791
1212802,63009960,57422492,63299442,57958258,3800,3800,-4153,-2177,-2140,-2813,-385,1006,16,19,791
1213803,63010048,57422500,63300304,57959120,3800,3800,-4356,-2317,-2285,-2219,20,1661,13,20,790
1214804,63010188,57422536,63301166,57959982,3800,3800,-4516,-2655,-2338,-1703,184,789,13,20,790
1215805,63010192,57422624,63302028,57960844,3800,3800,-4472,-3270,-2285,-1138,531,430,19,21,790
1216806,63010220,57422724,63302890,57961706,3800,3800,-4345,-3954,-2168,-523,857,1007,19,21,790
1217807,63010360,57422812,63303752,57962568,3800,3800,-4302,-4396,-2032,102,1107,2159,13,28,788
1218808,63010472,57422920,63304614,57963430,3800,3800,-4306,-4694,-1834,695,1188,2600,13,28,788
1219809,63010528,57422976,63305476,57964292,3800,3800,-4265,-5096,-1576,1172,1341,2481,21,18,790
1220810,63010676,57423036,63306338,57965154,3800,3800,-4219,-5461,-1343,1621,2089,3325,21,18,790
1221811,63010848,57423144,63307200,57966016,3800,3800,-4292,-5594,-1176,1905,2357,4432,41,19,788
1222812,63010960,57423280,63308062,57966878,3800,3800,-4452,-5421,-1020,2027,1657,5442,41,19,788
1223813,63011108,57423392,63308924,57967740,3800,3800,-4696,-5049,-893,2118,1642,6305,25,24,791
1224814,63011344,57423544,63309786,57968602,3800,3800,-4988,-4459,-807,2187,1689,7361,25,24,791
1225815,63011484,57423624,63310648,57969464,3800,3800,-5320,-3781,-743,2360,1488,8346,33,25,792
1226816,63011584,57423700,63311510,57970326,3800,3800,-2934,-701,-863,7337,1266,32767,33,25,792
1227826,63011768,57423780,63312378,57971194,3800,3800,4702,8684,-1240,12206,-3717,32767,29,36,790
1228818,63011968,57423928,63313240,57972056,3800,3800,10122,14828,-1243,5749,-1968,32767,29,36,790
1229819,63012024,57424072,63314102,57972918,3800,3800,9678,16125,-831,5857,558,10852,38,39,788
1230820,63012140,57424240,63314964,57973780,3800,3800,7231,14255,-506,5084,2141,2505,38,39,788
1231821,63012348,57424408,63315826,57974642,3800,3800,5789,10995,-545,3548,1956,-3357,30,43,791
1232822,63012472,57424524,63316688,57975504,3800,3800,5415,6999,-639,1698,483,-5838,30,43,791
1233823,63012544,57424644,63317550,57976366,3800,3800,5122,2771,-535,1573,-953,-5894,26,30,791
1234824,63012728,57424780,63318412,57977228,3800,3800,4263,-280,-112,2223,-2335,-2414,26,30,791
1235825,63012920,57424976,63319274,57978090,3800,3800,3153,-1936,459,2420,-1867,-938,26,47,792
1236826,63012988,57425220,63320136,57978952,3800,3800,2306,-3487,784,2188,-151,-1878,26,47,792
1237827,63013136,57425448,63320998,57979814,3800,3800,1739,-5396,744,1655,1129,-1762,26,55,792
1238828,63013344,57425660,63321860,57980676,3800,3800,1268,-7196,552,534,1185,-982,26,55,792
1239829,63013480,57425820,63322722,57981538,3800,3800,800,-8743,428,-55,180,-450,44,49,791
1240830,63013592,57426000,63323584,57982400,3800,3800,301,-9713,306,-863,75,1441,44,49,791
1241831,63013784,57426244,63324446,57983262,3800,3800,-210,-9867,163,-1685,267,3975,39,51,792
1242832,63014000,57426504,63325308,57984124,3800,3800,-695,-9279,37,-1748,152,5699,39,51,792
1243833,63014084,57426760,63326170,57984986,3800,3800,-1146,-8378,-113,-1881,1301,6490,30,46,793
1244834,63014228,57427012,63327032,57985848,3800,3800,-1439,-7418,-193,-1954,1858,6815,30,46,793
1245835,63014452,57427224,63327894,57986710,3800,3800,-1572,-6482,-206,-1828,1714,6686,26,46,792
1246843,63014580,57427472,63328762,57987578,3800,3800,-1595,-5622,-158,-1957,1722,6446,26,46,792
1247837,63014680,57427740,63329624,57988440,3800,3800,-1557,-4856,-37,-1956,1735,6094,44,55,793
1248838,63014884,57428000,63330486,57989302,3800,3800,-1455,-4207,142,-1641,1545,5784,44,55,793
1249838,63015068,57428256,63331348,57990164,3800,3800,-1257,-3654,411,-1482,1252,5430,29,52,792
1250840,63015160,57428524,63332210,57991026,3800,3800,-988,-3182,702,-1373,1005,5252,29,52,792
1251841,63015324,57428768,63333072,57991888,3800,3800,-704,-2721,941,-1300,682,5351,31,64,791
1252842,63015572,57429012,63333934,57992750,3800,3800,-422,-2240,1121,-1313,793,5518,31,64,791
1253843,63015688,57429284,63334796,57993612,3800,3800,-148,-1643,1258,-1117,677,5719,27,66,793
