"Data file recorded 2014/9/24  13:52:35"
"%  Right Stride Frequency         = 5.0"
"%  Left Stride Frequency         = 5.0"
"%  Phase (Fractional)         = 32768.0"
"%  Experiment.py "
"%  Motor Gains    = [1800, 200, 100, 0, 0, 1800, 200, 100, 0, 0]
"% Columns: "
"% time | Right Leg Pos | Left Leg Pos | Commanded Right Leg Pos | Commanded Left Leg Pos | DCR | DCL | GyroX | GryoY | GryoZ | AX | AY | AZ | RBEMF | LBEMF | VBatt "
11419,3967112,4655424,3934755,4688419,-3800,3800,507,747,-1138,85,-346,4067,-14,8,912
12420,3967092,4655416,3935082,4688746,-3800,3800,508,747,-1136,78,-348,4075,-14,-4,913
13421,3967032,4655436,3935409,4689073,-3800,3800,507,749,-1133,88,-342,4098,-14,-4,913
14422,3966924,4655472,3935736,4689400,-3800,3800,506,752,-1134,91,-406,4080,-28,-11,869
15423,3966772,4655488,3936063,4689727,-3800,3800,500,764,-1127,121,-429,4088,-28,-11,869
16424,3966516,4655528,3936390,4690054,-3800,3800,488,800,-1114,192,-558,4138,-34,-5,869
17425,3966244,4655552,3936717,4690381,-3800,3800,460,756,-1104,244,-552,4093,-34,-5,869
18426,3965948,4655588,3937044,4690708,-3800,3800,413,746,-1067,395,-945,4083,-51,-10,870
19427,3965588,4655604,3937371,4691035,-3800,3800,345,718,-1003,546,-1187,4039,-51,-10,870
20428,3965224,4655648,3937698,4691362,-3800,3800,264,744,-933,636,-967,4045,-64,-6,870
21429,3964852,4655668,3938025,4691689,-3800,3800,168,727,-851,754,-914,4083,-64,-6,870
22430,3964436,4655700,3938352,4692016,-3800,3800,76,769,-754,943,-881,4265,-79,-13,871
23431,3963996,4655732,3938679,4692343,-3800,3800,0,825,-638,1038,-887,4435,-79,-13,871
24432,3963576,4655768,3939006,4692670,-3800,3800,-65,964,-511,1059,-1019,4651,-79,-8,871
25433,3963140,4655796,3939333,4692997,-3800,3800,-126,1134,-382,949,-988,4804,-79,-8,871
26434,3962624,4655824,3939660,4693324,-3800,3800,-203,1402,-236,733,-1355,5069,-97,-13,870
27435,3962136,4655840,3939987,4693651,-3800,3800,-312,1770,-68,525,-1900,5351,-97,-13,870
28436,3961652,4655856,3940314,4693978,-3800,3800,-440,2158,148,444,-2469,5354,-91,-16,871
29437,3961056,4655864,3940641,4694305,-3800,3800,-573,2482,369,331,-2524,5374,-91,-16,871
30438,3960532,4655900,3940968,4694632,-3800,3800,-670,2758,554,212,-2453,5160,-110,-18,871
31439,3959960,4655896,3941295,4694959,-3800,3800,-721,2881,698,51,-2354,4718,-110,-18,871
32427,3959352,4655908,3941622,4695286,-3761,3800,-741,2959,791,-41,-2128,4729,-116,-16,871
33428,3958776,4655944,3941949,4695613,-3568,3800,-784,3086,882,-95,-2230,4792,-116,-16,871
34429,3958124,4655968,3942276,4695940,-2666,3800,-852,3190,1011,-94,-2319,4784,-124,-12,872
35430,3957428,4655988,3942603,4696267,-1944,3800,-925,3285,1111,-287,-1993,4586,-124,-12,872
36431,3956784,4656008,3942930,4696594,-1846,3800,-967,3151,1148,-571,-1863,4121,-137,4,873
37432,3956160,4656044,3943257,4696921,-1555,3800,-959,2912,1115,-667,-1816,3768,-137,4,873
38433,3955464,4656080,3943584,4697248,-658,3800,-911,2620,1034,-837,-2087,3744,-121,1,881
39434,3954848,4656096,3943911,4697575,-746,3800,-847,2424,952,-971,-2037,4006,-121,1,881
40435,3954224,4656128,3944238,4697902,-280,3800,-777,2231,877,-1174,-988,3928,-119,-7,883
41436,3953568,4656156,3944565,4698229,350,3800,-681,1998,785,-1329,-207,3930,-119,-7,883
42437,3953024,4656200,3944892,4698556,31,3800,-572,1763,641,-1504,319,4023,-100,-6,885
43437,3952452,4656236,3945219,4698883,600,3800,-428,1516,439,-1662,793,3900,-100,-6,885
44439,3951968,4656272,3945546,4699210,404,3800,-250,1233,220,-1846,834,3992,-113,-6,886
45440,3951472,4656308,3945873,4699537,840,3800,-48,1003,13,-2072,846,3883,-113,-6,886
46441,3951028,4656356,3946200,4699864,853,3800,126,725,-227,-2095,1279,3740,-92,-5,885
47442,3950612,4656432,3946527,4700191,1003,3800,276,444,-498,-2045,1612,3775,-92,-5,885
48443,3950272,4656500,3946854,4700518,820,3800,436,71,-766,-2098,1842,3420,-90,2,883
49444,3950004,4656580,3947181,4700845,632,3800,621,-383,-1032,-2029,2042,3230,-90,2,883
50445,3949764,4656656,3947508,4701172,705,3800,825,-920,-1278,-1790,1988,3065,-67,9,884
51446,3949568,4656736,3947835,4701499,660,3800,1067,-1436,-1482,-1545,1824,3104,-67,9,884
52447,3949432,4656872,3948162,4701826,487,3800,1330,-1980,-1649,-1547,1665,2939,-40,14,886
53448,3949328,4657036,3948489,4702153,477,3800,1625,-2547,-1779,-1479,988,2858,-40,14,886
54449,3949224,4657216,3948816,4702480,666,3800,1926,-3163,-1846,-1105,-478,2851,-19,19,886
55450,3949188,4657416,3949143,4702807,401,3800,2239,-3823,-1870,-641,-1023,2602,-19,19,886
56451,3949160,4657664,3949470,4703134,507,3800,2508,-4483,-1881,-269,-1026,2557,-8,36,888
57452,3949160,4657968,3949797,4703461,475,3800,2774,-5137,-1859,-129,-1068,2623,-8,36,888
58453,3949160,4658292,3950124,4703788,619,3800,3010,-5588,-1793,36,-1080,3165,14,65,888
59454,3949168,4658604,3950451,4704115,709,3800,3219,-5880,-1716,292,-780,3440,14,65,888
60462,3949176,4658964,3950812,4704476,2571,3800,3387,-6066,-1639,627,-271,3602,16,70,889
61456,3949200,4659288,3951139,4704803,2605,3800,3514,-6166,-1564,925,242,3772,16,70,889
62457,3949252,4659600,3951466,4705130,2550,3800,3560,-6284,-1459,1344,748,3771,1,65,888
63458,3949356,4659936,3951793,4705457,2324,3800,3527,-6285,-1281,1764,563,4094,1,65,888
64459,3949484,4660228,3952120,4705784,2262,3800,3462,-6176,-1000,1722,426,4271,28,74,879
65460,3949612,4660516,3952447,4706111,2350,3800,3378,-6005,-706,1737,509,4352,28,74,879
66461,3949768,4660780,3952774,4706438,2250,3800,3267,-5848,-456,1771,457,4178,34,49,880
67462,3949944,4661040,3953101,4706765,2193,3800,3139,-5768,-248,1933,740,4038,34,49,880
68463,3950136,4661288,3953428,4707092,2152,3800,2974,-5617,-66,2297,979,4001,49,58,880
69464,3950308,4661524,3953755,4707419,2346,3800,2799,-5471,144,2544,870,4007,49,58,880
70465,3950496,4661772,3954082,4707746,2308,3800,2652,-5244,435,2798,591,4097,36,58,879
71466,3950696,4662012,3954409,4708073,2289,3800,2502,-4931,734,2894,684,4163,36,58,879
72467,3950896,4662216,3954736,4708400,2346,3800,2313,-4612,974,2868,972,4115,49,52,880
73468,3951112,4662388,3955063,4708727,2296,3800,2087,-4307,1108,2785,1125,3936,49,52,880
74469,3951312,4662588,3955390,4709054,2452,3800,1861,-4018,1164,2752,1071,3971,51,31,879
75470,3951496,4662772,3955717,4709381,2615,3800,1627,-3605,1209,2730,875,4418,51,31,879
76471,3951716,4662944,3956044,4709708,2438,3800,1322,-3010,1323,2778,542,5101,47,33,879
77472,3951920,4663156,3956371,4710035,2594,3800,939,-2249,1462,2795,723,5478,47,33,879
78473,3952116,4663344,3956698,4710362,2702,3800,552,-1494,1541,2748,1291,5460,36,41,877
79474,3952344,4663540,3957025,4710689,2547,3800,253,-861,1556,2878,1786,5111,36,41,877
80475,3952560,4663784,3957352,4711016,2670,3800,-22,-241,1493,3054,2467,5572,40,37,877
81476,3952760,4663980,3957679,4711343,2827,3800,-322,376,1328,3016,3105,5409,40,37,877
82477,3952984,4664196,3958006,4711670,2723,3800,-612,826,1071,2891,3393,4753,41,38,877
83478,3953200,4664404,3958333,4711997,2823,3800,-872,1145,696,2708,4101,4625,41,38,877
84479,3953396,4664660,3958660,4712324,3007,3800,-1155,1587,117,2448,5426,5444,40,45,876
85480,3953600,4664912,3958987,4712651,3012,3800,-1495,2167,-485,2520,4949,5637,40,45,876
86481,3953848,4665132,3959314,4712978,2773,3800,-1834,2710,-989,2800,4981,5426,43,39,876
87482,3954048,4665376,3959641,4713305,3129,3800,-2100,3106,-1544,2540,5821,5119,43,39,876
88483,3954272,4665592,3959968,4713632,3026,3800,-2341,3503,-2149,2259,4935,5579,36,58,874
89484,3954560,4665860,3960295,4713959,2644,3800,-2556,3941,-2588,2037,2791,5527,36,58,874
90485,3954844,4666108,3960622,4714286,2690,3800,-2642,4076,-2910,1740,2430,4098,63,62,876
91486,3955132,4666400,3960949,4714613,2683,3800,-2562,3699,-3222,1490,1788,2865,63,62,876
92487,3955468,4666664,3961276,4714940,2380,3800,-2403,3169,-3479,1169,411,2898,73,45,878
93488,3955816,4666924,3961603,4715267,2297,3800,-2202,2688,-3640,467,-387,2967,73,45,878
94489,3956108,4667204,3961930,4715594,2663,3800,-1975,2300,-3730,-210,-998,3062,69,53,878
95490,3956420,4667520,3962257,4715921,2546,3800,-1498,2684,-3712,-664,-2550,8276,69,53,878
96491,3956688,4667880,3962584,4716248,2848,3800,-224,5699,-3339,-1652,-6369,27571,79,57,880
97492,3956976,4668192,3962911,4716575,2741,3800,612,8254,-2907,-1378,-6361,12049,79,57,880
98493,3957252,4668516,3963238,4716902,2839,3800,551,9136,-2734,-1874,-5693,6042,57,68,880
99494,3957488,4668972,3963565,4717229,3131,3800,174,8757,-2868,-2375,-5164,4262,57,68,880
100495,3957728,4669388,3963892,4717556,3145,3800,16,8160,-3233,-2264,-4477,3424,56,76,879
101496,3957996,4669836,3964219,4717883,2997,3800,128,7651,-3568,-2177,-4374,3124,56,76,879
102497,3958252,4670432,3964546,4718210,3104,3800,390,7319,-3687,-1523,-4741,3439,58,98,876
103498,3958528,4670916,3964873,4718537,3003,3800,675,7086,-3631,-915,-4270,3786,58,98,876
104499,3958808,4671528,3965200,4718864,3000,3800,958,6850,-3542,-926,-3812,3795,72,98,879
105500,3959108,4672116,3965527,4719191,2888,3800,1268,6580,-3533,-931,-3510,3629,72,98,879
106501,3959372,4672708,3965854,4719518,3142,3800,1596,6055,-3621,-1154,-2615,3083,58,128,879
107502,3959648,4673452,3966181,4719845,3090,3800,1919,5543,-3787,-1000,-1505,3295,58,128,879
108503,3959972,4674152,3966508,4720172,2793,3800,2205,4932,-3982,-794,-849,2830,70,124,881
109504,3960236,4674884,3966835,4720499,3197,3800,2506,4322,-4100,-757,-1452,2955,70,124,881
110512,3960524,4675668,3967196,4720860,3081,3800,2836,3810,-4129,-728,-2164,3224,57,147,881
111507,3960816,4676460,3967523,4721187,3072,3800,3185,3378,-4132,-594,-2066,3676,57,147,881
112507,3961092,4677356,3967850,4721514,3195,3800,3503,3143,-4140,-322,-1523,4134,53,160,881
113509,3961372,4678320,3968177,4721841,3193,3800,3807,2897,-4154,-170,-480,3884,53,160,881
114509,3961656,4679248,3968504,4722168,3188,3800,4076,2701,-4172,52,245,4289,64,157,881
115510,3961916,4680252,3968831,4722495,3368,3800,4327,2590,-4141,244,385,4258,64,157,881
116511,3962220,4681196,3969158,4722822,3105,3800,4576,2382,-4027,584,318,3988,66,189,882
117512,3962504,4682172,3969485,4723149,3250,3800,4801,2223,-3834,931,126,4080,66,189,882
118514,3962756,4683312,3969812,4723476,3484,3800,5014,2012,-3578,1130,98,3807,72,187,881
119515,3963020,4684248,3970139,4723803,3439,3800,5211,1803,-3302,1529,289,3620,72,187,881
120515,3963320,4685252,3970466,4724130,3227,3800,5407,1452,-3028,1915,512,2966,57,187,882
121516,3963628,4686300,3970793,4724457,3186,3800,5555,1187,-2773,2146,523,3305,57,187,882
122517,3963900,4687228,3971120,4724784,3437,3800,5640,1081,-2544,2082,149,3298,54,192,882
123518,3964160,4688188,3971447,4725111,3543,3800,5766,850,-2354,2132,585,2417,54,192,882
124519,3964468,4689248,3971774,4725438,3253,3800,5887,667,-2249,2093,900,2690,61,195,882
125520,3964740,4690200,3972101,4725765,3503,3800,5977,590,-2166,2015,713,2600,61,195,882
126522,3965056,4691152,3972428,4726092,3234,3800,6054,556,-2099,1824,518,2448,69,185,879
127523,3965436,4692104,3972755,4726419,2813,3800,6144,525,-2059,1501,428,2190,69,185,879
128523,3965868,4692984,3973082,4726746,2443,3800,6247,419,-2086,1309,354,1700,62,172,880
129525,3966288,4693912,3973409,4727073,2479,3800,6365,389,-2137,1355,336,1730,62,172,880
130526,3966852,4694784,3973736,4727400,1476,3800,6461,336,-2214,1246,665,1425,84,176,884
131526,3967300,4695716,3974063,4727727,2149,3800,6503,281,-2315,1495,808,1196,84,176,884
132527,3967760,4696620,3974390,4728054,2016,3800,6422,267,-2494,1206,663,951,93,192,887
133528,3968256,4697476,3974717,4728381,1719,3800,6245,314,-2748,679,-160,897,93,192,887
134529,3968720,4698456,3975044,4728708,1860,3800,5951,462,-3060,-45,-392,1203,113,191,890
135530,3969196,4699456,3975371,4729035,1720,3800,5471,912,-3470,-1250,313,2024,113,191,890
136531,3969772,4700348,3975698,4729362,987,3800,4863,1684,-4010,-2236,1253,1955,110,175,889
137532,3970260,4701180,3976025,4729689,1467,3800,4249,2115,-4827,-3055,2437,465,110,175,889
138533,3970840,4701908,3976352,4730016,783,3800,3692,2113,-5818,-3264,3055,-418,126,173,891
139534,3971436,4702684,3976679,4730343,566,3800,3201,1879,-6756,-2773,2552,-1160,126,173,891
140535,3971872,4703564,3977006,4730670,1519,3800,2683,1470,-7469,-2020,670,-1813,103,162,891
141536,3972388,4704380,3977333,4730997,937,3800,2162,838,-7791,-1393,-584,-2262,103,162,891
142538,3972824,4705156,3977660,4731324,1390,3800,1669,-73,-7664,-425,-1138,-2911,94,167,895
143538,3973236,4706152,3977987,4731651,1502,3800,1194,-948,-7131,-30,-1705,-2556,94,167,895
144539,3973640,4707060,3978314,4731978,1520,3800,796,-1643,-6286,-493,-1908,-2253,74,174,893
145540,3974020,4707976,3978641,4732305,1647,3800,438,-2434,-5272,-569,-1979,-2350,74,174,893
146541,3974392,4708996,3978968,4732632,1678,3800,194,-3152,-4115,-249,-1901,-2006,66,186,891
147542,3974712,4710020,3979295,4732959,2008,3800,-284,-3463,-2740,925,-1364,-240,66,186,891
148543,3975044,4710868,3979622,4733286,1931,3800,-1278,-2984,-1131,1460,-2012,1933,64,209,891
149544,3975424,4711968,3979949,4733613,1609,3800,-2377,-2870,354,693,-315,-235,64,209,891
150546,3975752,4713036,3980276,4733940,1935,3800,-3100,-3678,1432,895,1708,-2752,65,223,891
151546,3976068,4714188,3980603,4734267,2014,3800,-3493,-5353,2261,1292,2077,-4626,65,223,891
152548,3976424,4715188,3980930,4734594,1753,3800,-3619,-7325,2924,453,1372,-5296,61,198,893
153548,3976744,4716140,3981257,4734921,1982,3800,-3569,-9306,3457,-452,396,-5521,61,198,893
154549,3977084,4717008,3981584,4735248,1852,3800,-3522,-10728,3964,-486,-648,-3137,78,179,890
155550,3977420,4717828,3981911,4735575,1874,3800,-3878,-10306,4552,-495,-1680,3457,78,179,890
156551,3977768,4718648,3982238,4735902,1791,3800,-4475,-8619,5319,-814,-3091,5587,77,179,889
157552,3978080,4719520,3982565,4736229,2023,3800,-4998,-6762,5950,-1909,-2946,5808,77,179,889
158554,3978392,4720304,3982892,4736556,2030,3800,-5229,-5324,6291,-2669,-2468,5412,59,168,887
159554,3978728,4721088,3983219,4736883,1877,3800,-5325,-3991,6369,-2481,-2431,6074,59,168,887
160562,3979020,4721892,3983580,4737244,2183,3800,-5536,-2570,6290,-2293,-2803,6746,67,173,888
161556,3979352,4722756,3983907,4737571,1932,3800,-5785,-1119,6225,-1767,-3330,6999,67,173,888
162557,3979656,4723612,3984234,4737898,2118,3800,-5864,131,6195,-638,-3403,6679,74,177,889
163558,3979928,4724404,3984561,4738225,2343,3800,-5891,1217,6166,579,-2928,6816,74,177,889
164559,3980200,4725144,3984888,4738552,2369,3800,-5867,2071,6030,1664,-1827,6166,70,172,890
165560,3980472,4725764,3985215,4738879,2394,3800,-5659,2331,5756,2838,-893,4513,70,172,890
166562,3980760,4726308,3985542,4739206,2311,3800,-5332,2187,5380,4158,-464,3985,52,120,885
167562,3981008,4726752,3985869,4739533,2597,3800,-4950,1842,4872,4899,2,3459,52,120,885
168563,3981284,4727140,3986196,4739860,2445,3800,-4633,1467,4278,4444,-474,3844,53,79,881
169564,3981496,4727428,3986523,4740187,2897,3800,-4460,1375,3660,3275,-647,5136,53,79,881
170565,3981748,4727644,3986850,4740514,2681,3800,-4372,1354,2969,2036,44,5100,58,56,877
171566,3981984,4727788,3987177,4740841,2822,3800,-4284,1033,1954,1372,2697,3926,58,56,877
172567,3982160,4727872,3987504,4741168,3264,3800,-4438,946,594,1350,4847,6041,35,19,876
173568,3982308,4727924,3987831,4741495,3519,3800,-4878,1172,-623,1374,3866,8748,35,19,876
174570,3982456,4727952,3988158,4741822,3598,3800,-5365,1597,-1666,2176,3445,11077,23,4,874
175571,3982620,4727996,3988485,4742149,3571,3800,-5630,2035,-2731,2456,4780,13151,23,4,874
176584,3982720,4728028,3988812,4742476,3800,3800,-3422,6002,-3578,1186,1508,32767,14,17,869
177572,3982880,4728064,3989139,4742803,3772,3800,1529,14707,-3824,1072,-1200,32767,14,17,869
178586,3983044,4728088,3989466,4743130,3800,3800,4129,17259,-4530,5940,4326,16771,18,19,868
179587,3983188,4728136,3989793,4743457,3800,3800,4505,14802,-5615,4825,3342,10550,18,19,868
180588,3983336,4728220,3990120,4743784,3800,3800,3983,10835,-6304,2821,-672,9571,26,19,866
181589,3983480,4728356,3990447,4744111,3800,3800,3806,8304,-6340,546,-2607,8767,26,19,866
182590,3983600,4728572,3990774,4744438,3800,3800,3958,5951,-5994,-508,-2806,6194,36,33,867
183591,3983684,4728832,3991101,4744765,3800,3800,4325,3673,-5526,-1137,-3268,4826,36,33,867
184592,3983776,4729176,3991428,4745092,3800,3800,4566,1012,-4837,-1676,-3557,2617,19,52,865
185593,3983836,4729528,3991755,4745419,3800,3800,4664,-1614,-3895,-1593,-4012,1196,19,52,865
186594,3983880,4729904,3992082,4745746,3800,3800,4539,-3994,-2743,-1725,-4242,-15,10,65,869
187595,3983932,4730280,3992409,4746073,3800,3800,4257,-6195,-1563,-2623,-4719,-489,10,65,869
188596,3983996,4730708,3992736,4746400,3800,3800,3879,-7873,-395,-3164,-6186,828,19,77,869
189597,3984088,4731116,3993063,4746727,3800,3800,3547,-9140,669,-3772,-5892,1463,19,77,869
190598,3984232,4731600,3993390,4747054,3800,3800,3345,-10035,1531,-4711,-5159,2398,27,79,869
191599,3984408,4732032,3993717,4747381,3800,3800,3306,-10596,2238,-5467,-4749,3192,27,79,869
192600,3984604,4732456,3994044,4747708,3800,3800,3432,-11023,2824,-5620,-4157,3521,44,81,870
193601,3984816,4732880,3994371,4748035,3800,3800,3509,-10648,3338,-5276,-3597,5985,44,81,870
194602,3985044,4733292,3994698,4748362,3800,3800,3444,-9366,3799,-5369,-3159,8835,38,79,871
195603,3985268,4733724,3995025,4748689,3800,3800,3358,-7593,4173,-5786,-2955,9694,38,79,871
196604,3985556,4734100,3995352,4749016,3800,3800,3493,-5789,4467,-5791,-2388,9239,45,97,872
197605,3985860,4734524,3995679,4749343,3800,3800,3795,-4235,4642,-5180,-1445,8234,45,97,872
198606,3986184,4734912,3996006,4749670,3800,3800,4049,-2638,4615,-4355,-366,8689,63,81,873
199607,3986520,4735360,3996333,4749997,3800,3800,4117,-766,4466,-3585,581,9619,63,81,873
200608,3986924,4735800,3996660,4750324,3800,3800,4222,953,4314,-3091,273,7814,73,85,873
201609,3987288,4736264,3996987,4750651,3800,3800,4468,2220,4238,-2202,589,6821,73,85,873
202610,3987684,4736732,3997314,4750978,3800,3800,4766,3206,4175,-991,1219,6073,94,97,870
203598,3988132,4737240,3997641,4751305,3442,3800,5019,3872,4087,308,1448,4552,94,97,870
204599,3988588,4737716,3997968,4751632,3338,3800,5301,3976,4007,1018,1761,2782,79,86,873
205600,3989060,4738260,3998295,4751959,3176,3800,5548,3795,3858,1453,2161,2117,79,86,873
206601,3989552,4738872,3998622,4752286,2979,3800,5748,3390,3586,1628,2742,1077,103,98,877
207603,3990124,4739404,3998949,4752613,2374,3800,5947,2684,3277,2636,2413,140,103,98,877
208603,3990640,4740060,3999276,4752940,2643,3800,6086,1830,2983,3568,1890,-365,111,120,880
209604,3991236,4740640,3999603,4753267,2025,3800,6183,843,2728,3494,1810,-1234,111,120,880
210614,3991836,4741372,3999964,4753628,1897,3800,6194,-65,2427,3271,2051,-904,119,117,884
211606,3992336,4742072,4000291,4753955,2448,3800,6091,-923,2062,2861,2156,-794,119,117,884
212594,3992980,4743016,4000618,4754282,1410,2346,5858,-1340,1659,2141,1979,285,104,158,885
213596,3993556,4743876,4000945,4754609,1728,2639,5488,-1324,1260,1617,1220,1304,104,158,885
214597,3994092,4744696,4001272,4754936,1887,2675,5071,-1151,949,1334,-175,1480,131,145,886
215598,3994672,4745604,4001599,4755263,1502,1871,4645,-859,622,1293,-34,1474,131,145,886
216599,3995248,4746436,4001926,4755590,1419,2126,4240,-667,281,1842,489,783,101,167,896
217600,3995752,4747492,4002253,4755917,1792,407,3856,-542,-9,2140,503,740,101,167,896
218601,3996284,4748332,4002580,4756244,1528,1533,3558,-260,-159,2103,555,1068,97,172,900
219602,3996816,4749116,4002907,4756571,1439,1685,3329,278,-230,1991,448,1518,97,172,900
220602,3997396,4749940,4003234,4756898,1030,1217,3141,1009,-241,1848,76,1609,117,163,903
221603,3997880,4750708,4003561,4757225,1562,1374,3009,1812,-219,1682,65,1425,117,163,903
222604,3998480,4751452,4003888,4757552,718,1343,2898,2627,-159,1565,-554,1276,107,165,901
223605,3999124,4752176,4004215,4757879,305,1295,2776,3627,57,1475,-1623,2136,107,165,901
224607,3999588,4752924,4004542,4758206,1371,961,2554,5129,488,1485,-2590,3508,114,132,900
225607,4000100,4753540,4004869,4758533,990,1660,2303,6905,1021,1563,-3209,3650,114,132,900
226608,4000616,4754216,4005196,4758860,883,1132,2117,8502,1473,1613,-3272,2890,89,125,906
227609,4001088,4754752,4005523,4759187,1094,1916,2088,9787,1743,1485,-3064,1837,89,125,906
228610,4001644,4755384,4005850,4759514,470,1182,2178,10609,1846,1440,-3078,510,104,132,902
229611,4002172,4756000,4006177,4759841,558,1156,2336,11144,1889,1568,-3287,-378,104,132,902
230613,4002580,4756544,4006504,4760168,1273,1512,2461,11526,1915,1793,-2962,-777,117,119,901
231613,4003076,4757080,4006831,4760495,650,1471,2550,11752,1880,2324,-2378,-1402,117,119,901
232614,4003572,4757496,4007158,4760822,575,2182,2572,11595,1697,2764,-1561,-2325,103,113,906
233615,4004088,4757984,4007485,4761149,368,1662,2579,11148,1351,3076,-578,-2905,103,113,906
234616,4004556,4758432,4007812,4761476,607,1860,2681,10391,861,3054,75,-3938,98,89,903
235617,4005040,4758828,4008139,4761803,438,2155,2868,9420,278,3101,469,-4300,98,89,903
236618,4005428,4759256,4008466,4762130,1013,1911,2923,8573,-358,3436,1440,-3433,75,98,902
237619,4005880,4759668,4008793,4762457,558,1974,2706,8013,-1104,3125,2130,-2716,75,98,902
238620,4006300,4760028,4009120,4762784,718,2286,2350,7355,-2024,2621,2698,-3378,81,72,901
239621,4006640,4760308,4009447,4763111,1213,2806,1943,6600,-3035,2628,3177,-3237,81,72,901
240623,4007056,4760684,4009774,4763438,699,2186,1605,5799,-4097,2543,3974,-3426,87,75,901
241624,4007440,4761024,4010101,4763765,875,2405,1392,4884,-5146,2148,4406,-3854,87,75,901
242625,4007792,4761368,4010428,4764092,1064,2374,1272,4037,-6109,2015,4670,-3443,57,80,893
243625,4008172,4761728,4010755,4764419,867,2259,1127,3446,-6876,2182,4653,-2795,57,80,893
244627,4008520,4762060,4011082,4764746,1057,2433,950,3104,-7417,2022,4321,-2205,57,64,897
245627,4008832,4762424,4011409,4765073,1290,2217,755,2945,-7742,1602,3765,-1513,57,64,897
246629,4009224,4762764,4011736,4765400,761,2362,550,3011,-7900,1128,2997,-708,72,72,897
247630,4009512,4763100,4012063,4765727,1430,2383,376,3110,-7939,691,2717,-921,72,72,897
248631,4009816,4763456,4012390,4766054,1340,2246,262,2933,-7915,564,2803,-1791,73,74,897
249632,4010128,4763852,4012717,4766381,1297,1966,133,2503,-7876,283,3067,-2041,73,74,897
250633,4010496,4764184,4013044,4766708,929,2365,-91,2073,-7827,-107,2976,-1849,61,68,895
251633,4010848,4764572,4013371,4767035,1018,1988,-364,1532,-7724,-371,2253,-2483,61,68,895
252635,4011200,4764916,4013698,4767362,1008,2256,-619,740,-7553,-496,1807,-3279,70,65,898
253635,4011548,4765232,4014025,4767689,1024,2436,-885,-322,-7300,-392,1804,-3639,70,65,898
254637,4011872,4765552,4014352,4768016,1176,2415,-1196,-1437,-6911,-185,1424,-3742,72,59,900
255638,4012192,4765876,4014679,4768343,1204,2392,-1603,-2396,-6316,-173,782,-3067,72,59,900
256639,4012556,4766208,4015006,4768670,914,2340,-2119,-3116,-5510,-331,177,-2409,71,70,895
257640,4012884,4766544,4015333,4768997,1139,2311,-2720,-3673,-4592,-614,-399,-2189,71,70,895
258641,4013144,4766816,4015660,4769324,1594,2737,-3339,-4265,-3600,-811,-1477,-2355,63,53,895
259642,4013348,4767092,4015987,4769651,1998,2734,-3991,-4978,-2535,-691,-2400,-2176,63,53,895
260650,4013548,4767420,4016348,4770012,2095,2425,-4715,-5697,-1473,-416,-2649,-2239,58,56,897
261644,4013712,4767760,4016675,4770339,2392,2344,-5490,-6670,-465,-153,-2807,-2778,58,56,897
262645,4013908,4768096,4017002,4770666,2250,2366,-6334,-7703,441,47,-2714,-2039,37,61,890
263646,4014144,4768408,4017329,4770993,2040,2522,-7493,-8176,1199,567,-1694,425,37,61,890
264647,4014348,4768768,4017656,4771320,2295,2209,-10109,-6354,1758,1985,183,9216,45,64,889
265647,4014524,4769152,4017983,4771647,2538,2034,-13126,-4105,2179,2365,272,6625,45,64,889
266648,4014732,4769588,4018310,4771974,2390,1662,-15488,-3386,2630,2633,-367,2535,38,68,891
267649,4014916,4769880,4018637,4772301,2604,2577,-16293,-5204,3043,2823,-637,-4224,38,68,891
268650,4015076,4770144,4018964,4772628,2828,2780,-16011,-8748,3387,3190,-2429,-6849,31,59,890
269651,4015284,4770440,4019291,4772955,2580,2595,-15354,-12287,3844,3895,-4461,-6259,31,59,890
270652,4015476,4770800,4019618,4773282,2741,2180,-15004,-14475,4472,4796,-5162,-1867,47,68,887
271653,4015668,4771240,4019945,4773609,2801,1632,-15282,-14847,5120,5832,-4991,3491,47,68,887
272654,4015892,4771748,4020272,4773936,2647,1127,-15600,-14196,5935,6130,-7082,5686,32,91,888
273656,4016080,4772152,4020599,4774263,2934,1744,-15236,-13107,6677,6898,-7144,7063,32,91,888
274657,4016308,4772444,4020926,4774590,2729,2460,-5132,6255,4718,32767,3890,32767,36,90,891
275658,4016548,4772920,4021253,4774917,2692,1245,9271,32165,1320,32767,2876,32767,36,90,891
276658,4016804,4773380,4021580,4775244,2624,1287,14804,-32008,-195,7097,-2049,-9601,61,85,890
277659,4017048,4773808,4021907,4775571,2737,1442,14105,31787,-506,6171,-1065,-8311,61,85,890
278661,4017320,4774312,4022234,4775898,2587,890,12292,23874,-824,5402,-1223,-9163,62,84,892
279661,4017644,4774740,4022561,4776225,2264,1321,11725,19640,-1366,4556,-2991,-5579,62,84,892
280663,4017952,4775160,4022888,4776552,2374,1330,11242,18131,-1715,3604,-3901,-2165,71,102,892
281664,4018264,4775660,4023215,4776879,2356,754,10774,17143,-2100,3555,-3400,-3053,71,102,892
282665,4018600,4776132,4023542,4777206,2203,866,10057,15127,-2684,2435,-2782,-4165,76,86,897
283665,4018912,4776560,4023869,4777533,2361,1097,9371,12858,-3371,-107,-3336,-4084,76,86,897
284666,4019176,4777132,4024196,4777860,2690,89,8475,11010,-4015,-1928,-6367,-2117,69,86,897
285667,4019456,4777568,4024523,4778187,2611,892,7363,9843,-4600,-3126,-5541,-1082,69,86,897
286669,4019676,4778024,4024850,4778514,3034,710,6241,9125,-5138,-4114,-3820,-982,65,86,897
287670,4019876,4778516,4025177,4778841,3216,412,5173,7930,-5808,-4893,-2205,-2604,65,86,897
288670,4020128,4778916,4025504,4779168,2925,956,4232,6593,-6506,-6328,-1704,-2452,39,80,895
289672,4020352,4779408,4025831,4779495,3146,309,3470,5339,-7074,-7116,-1491,-2428,39,80,895
290672,4020560,4779812,4026158,4779822,3300,825,2845,4331,-7545,-7367,-1209,-2150,51,82,891
291674,4020780,4780176,4026485,4780149,3273,1059,2265,3509,-7782,-7740,-1684,-1002,51,82,891
292674,4020972,4780520,4026812,4780476,3508,1176,1823,3148,-7679,-7802,-2878,-304,36,75,893
293675,4021140,4780764,4027139,4780803,3729,1838,1535,2848,-7203,-7660,-4159,-95,36,75,893
294677,4021328,4781020,4027466,4781130,3666,1794,1389,2750,-6442,-7831,-4346,726,26,69,889
295690,4021500,4781272,4027793,4781457,3800,1852,1184,2771,-5642,-8169,-3315,1178,26,69,889
296678,4021688,4781488,4028120,4781784,3798,2126,901,2906,-4899,-8257,-2687,1621,24,53,881
297692,4021864,4781644,4028447,4782111,3800,2576,558,3218,-4177,-8442,-2447,2314,24,53,881
298681,4022076,4781788,4028774,4782438,3767,2731,96,3546,-3501,-8611,-1790,2623,40,31,881
299694,4022256,4781908,4029101,4782765,3800,2972,-446,3910,-2871,-8419,-800,2833,40,31,881
300695,4022444,4782036,4029428,4783092,3800,3010,-1033,4330,-2271,-8003,940,3178,37,37,876
301696,4022648,4782164,4029755,4783419,3800,3097,-1571,3928,-1608,-9446,2766,1845,37,37,876
302697,4022792,4782272,4030082,4783746,3800,3318,-1879,1547,-745,-10847,3803,-757,25,38,873
303698,4022960,4782404,4030409,4784073,3800,3255,-2072,-1035,84,-9569,4277,360,25,38,873
304699,4023112,4782496,4030736,4784400,3800,3608,-2339,-1795,445,-5791,5084,2537,36,17,873
305701,4023240,4782640,4031063,4784727,3800,3364,-2636,-1356,392,-4970,6321,2726,36,17,873
306701,4023392,4782784,4031390,4785054,3800,3445,-2809,-1301,149,-4637,7095,1749,21,18,871
307702,4023516,4782904,4031717,4785381,3800,3686,-2917,-1751,-184,-3466,7629,1877,21,18,871
308703,4023632,4783028,4032044,4785708,3800,3751,-2988,-2469,-447,-2613,7636,1919,16,25,870
309704,4023736,4783184,4032371,4786035,3800,3626,-3101,-3184,-577,-1228,6156,1900,16,25,870
310712,4023856,4783340,4032732,4786396,3800,3717,-3310,-4032,-569,-31,4638,1664,13,41,868
311706,4023980,4783536,4033059,4786723,3800,3525,-3532,-4899,-467,747,4183,1962,13,41,868
312707,4024092,4783776,4033386,4787050,3800,3289,-3701,-5684,-427,1728,4170,2196,16,52,868
313708,4024224,4784020,4033713,4787377,3800,3302,-3842,-6473,-493,2264,4109,2489,16,52,868
314709,4024360,4784252,4034040,4787704,3800,3418,-3978,-7114,-601,2522,3843,3341,35,45,870
315710,4024492,4784480,4034367,4788031,3800,3488,-4119,-7700,-755,2815,3050,3467,35,45,870
316711,4024624,4784756,4034694,4788358,3800,3211,-4257,-8270,-915,3017,2140,3630,35,59,870
317712,4024764,4785044,4035021,4788685,3800,3154,-4390,-8673,-1019,3146,1360,4130,35,59,870
318713,4024896,4785296,4035348,4789012,3800,3413,-4561,-9004,-1107,3260,951,4342,25,53,871
319714,4025040,4785544,4035675,4789339,3800,3473,-4748,-9273,-1205,3352,813,4641,25,53,871
320715,4025192,4785780,4036002,4789666,3800,3588,-4901,-9349,-1367,3338,746,5248,37,64,872
321716,4025352,4786016,4036329,4789993,3800,3629,-5002,-9337,-1633,3204,639,5423,37,64,872
322717,4025504,4786320,4036656,4790320,3800,3215,-5007,-9112,-1958,2882,362,6080,33,52,870
323718,4025704,4786640,4036983,4790647,3800,3119,-4916,-8851,-2276,2468,215,6038,33,52,870
324719,4025884,4786924,4037310,4790974,3800,3363,-4769,-8491,-2583,2173,-210,6285,43,53,869
325720,4026092,4787212,4037637,4791301,3800,3356,-4579,-8061,-2839,1702,-982,6421,43,53,869
326721,4026328,4787504,4037964,4791628,3800,3348,-4315,-7748,-3047,1310,-1552,5945,52,64,874
327722,4026544,4787820,4038291,4791955,3800,3204,-4027,-7535,-3240,1056,-1950,6005,52,64,874
328723,4026772,4788136,4038618,4792282,3800,3209,-3264,-6929,-3401,390,-2593,9742,42,53,873
329724,4027000,4788400,4038945,4792609,3800,3562,-652,-3075,-3123,-2121,-7340,32767,42,53,873
330725,4027220,4788648,4039272,4792936,3800,3698,2146,431,-2895,-1469,-3666,21502,55,71,874
331726,4027428,4788940,4039599,4793263,3800,3439,3198,798,-3037,-121,130,3508,55,71,874
332727,4027652,4789264,4039926,4793590,3800,3242,3243,-1931,-3274,479,-1541,1654,49,74,872
333728,4027856,4789564,4040253,4793917,3800,3404,3521,-2954,-3148,96,-1624,1475,49,74,872
334729,4028040,4789928,4040580,4794244,3800,2988,3894,-3863,-2965,-1,-1616,917,46,76,871
335730,4028240,4790244,4040907,4794571,3800,3294,4182,-4653,-2798,-183,-1925,1231,46,76,871
336731,4028444,4790552,4041234,4794898,3800,3353,4334,-5285,-2594,-971,-2000,2187,44,75,873
337732,4028660,4790856,4041561,4795225,3800,3389,4303,-5387,-2425,-1246,-1740,3772,44,75,873
338733,4028876,4791168,4041888,4795552,3800,3347,4185,-5191,-2210,-1259,-1696,4059,48,68,872
339734,4029096,4791532,4042215,4795879,3800,3007,4112,-4955,-1982,-1758,-1413,4135,48,68,872
340735,4029304,4791876,4042542,4796206,3800,3124,4060,-4747,-1817,-1980,-1437,4002,49,61,873
341736,4029516,4792188,4042869,4796533,3800,3332,3959,-4433,-1703,-2256,-1300,4497,49,61,873
342738,4029752,4792508,4043196,4796860,3800,3286,3814,-3826,-1534,-2064,-1049,5259,51,65,875
343738,4029940,4792868,4043523,4797187,3800,3022,3660,-3154,-1305,-1667,-601,5131,51,65,875
344739,4030160,4793196,4043850,4797514,3800,3223,3528,-2490,-1030,-1461,-214,5044,51,80,871
345740,4030392,4793568,4044177,4797841,3800,2929,3419,-1916,-746,-1335,85,4793,51,80,871
346741,4030612,4793892,4044504,4798168,3800,3231,3350,-1540,-492,-1152,375,3991,50,63,874
347742,4030824,4794224,4044831,4798495,3800,3179,3325,-1422,-253,-1059,717,3322,50,63,874
348743,4031052,4794560,4045158,4798822,3800,3151,3339,-1442,-21,-769,1053,2770,52,57,876
349744,4031264,4794896,4045485,4799149,3800,3148,3383,-1583,197,-309,1407,2449,52,57,876
350745,4031488,4795228,4045812,4799476,3800,3172,3417,-1616,409,107,2028,2881,52,68,874
351746,4031712,4795568,4046139,4799803,3800,3117,3338,-1510,621,653,2383,3411,52,68,874
352747,4031920,4795896,4046466,4800130,3800,3192,3159,-1216,834,1297,2912,3831,31,67,874
353748,4032116,4796212,4046793,4800457,3800,3273,2913,-816,1055,1830,3150,4190,31,67,874
354749,4032340,4796500,4047120,4800784,3800,3466,2627,-427,1244,2197,3143,3951,40,69,874
355750,4032584,4796796,4047447,4801111,3800,3431,2347,-149,1339,2336,3300,3705,40,69,874
356751,4032816,4797176,4047774,4801438,3800,2882,2036,38,1305,2360,3627,3515,53,60,872
357752,4033076,4797540,4048101,4801765,3800,2967,1671,162,1121,2434,4083,3375,53,60,872
358753,4033376,4797876,4048428,4802092,3800,3139,1289,316,861,2617,3815,3657,47,66,873
359754,4033648,4798244,4048755,4802419,3800,2922,929,524,623,2895,3458,3800,47,66,873
360762,4033952,4798604,4049116,4802780,3800,2974,599,729,422,3235,3165,3796,47,70,876
361756,4034372,4799012,4049443,4803107,3800,2638,312,791,252,3573,2893,3253,47,70,876
362757,4034784,4799348,4049770,4803434,3800,3085,83,550,83,3711,2497,2622,63,69,877
363758,4035248,4799700,4050097,4803761,3800,2975,-156,355,-98,3410,1271,2921,63,69,877
364759,4035820,4800120,4050424,4804088,3800,2510,-416,286,-240,2720,57,3296,95,83,880
365760,4036376,4800504,4050751,4804415,3800,2711,-629,292,-338,2175,-592,3361,95,83,880
366761,4036980,4800928,4051078,4804742,3800,2419,-794,240,-439,1955,-911,3260,99,85,877
367762,4037668,4801436,4051405,4805069,3800,1815,-866,187,-529,1834,-1147,3137,99,85,877
368750,4038380,4801868,4051732,4805396,3724,2245,-908,131,-564,1560,-1657,3129,117,103,881
369751,4039108,4802328,4052059,4805723,3451,2011,-925,-35,-548,1137,-2260,2895,117,103,881
370752,4039924,4802824,4052386,4806050,2688,1713,-875,-172,-479,461,-2610,3128,136,105,886
371754,4040732,4803276,4052713,4806377,2530,1934,-782,-229,-394,-592,-2484,3280,136,105,886
372755,4041508,4803772,4053040,4806704,2534,1585,-623,-216,-274,-1497,-2788,3459,153,97,889
373756,4042344,4804296,4053367,4807031,1938,1324,-422,-196,-69,-2314,-3262,3781,153,97,889
374757,4043092,4804732,4053694,4807358,2305,1827,-173,29,237,-3113,-3724,4359,150,92,894
375758,4043836,4805220,4054021,4807685,2148,1432,130,412,569,-4241,-3876,4753,150,92,894
376759,4044536,4805704,4054348,4808012,2261,1388,554,656,895,-5208,-3834,4547,150,104,899
377759,4045300,4806144,4054675,4808339,1671,1614,1073,736,1238,-5142,-3183,4045,150,104,899
378761,4045912,4806728,4055002,4808666,2498,601,1624,671,1626,-4352,-2124,3648,139,110,897
379762,4046520,4807224,4055329,4808993,2402,1077,2133,617,2116,-3958,-2045,3845,139,110,897
380763,4047096,4807656,4055656,4809320,2493,1432,2599,431,2667,-3805,-2211,3359,122,100,899
381763,4047628,4808144,4055983,4809647,2680,1011,3077,115,3194,-3312,-1647,2815,122,100,899
382765,4048056,4808620,4056310,4809974,3288,1021,3577,-389,3628,-2883,-1114,2228,105,100,898
383766,4048540,4809096,4056637,4810301,2870,956,4033,-930,3987,-2116,-895,2160,105,100,898
384767,4048920,4809580,4056964,4810628,3498,837,4431,-1525,4280,-1051,-576,1728,94,101,895
385768,4049284,4810040,4057291,4810955,3583,929,4733,-2028,4579,59,-551,2035,94,101,895
386769,4049684,4810432,4057618,4811282,3328,1325,4956,-2277,4892,612,-693,2373,75,90,894
387770,4050052,4810964,4057945,4811609,3511,360,5108,-2590,5176,942,-875,1998,75,90,894
388771,4050452,4811392,4058272,4811936,3281,967,5246,-2796,5370,1399,-504,2446,65,95,887
389772,4050860,4811916,4058599,4812263,3196,280,5323,-2794,5491,2373,-214,2763,65,95,887
390773,4051264,4812364,4058926,4812590,3190,702,5326,-2734,5525,3428,-42,2586,86,88,890
391774,4051652,4812820,4059253,4812917,3264,595,5295,-2581,5511,3666,-211,3308,86,88,890
392775,4052092,4813268,4059580,4813244,2891,592,5176,-1906,5464,3607,-609,4743,74,93,894
393775,4052488,4813612,4059907,4813571,3137,1234,5052,-1176,5360,4031,-385,4165,74,93,894
394777,4052864,4814120,4060234,4813898,3242,130,4978,-466,5202,4420,-305,4184,73,81,892
395778,4053300,4814456,4060561,4814225,2820,1201,4868,651,5020,4561,-18,5506,73,81,892
396779,4053712,4814752,4060888,4814552,2934,1465,4701,1798,4837,4861,37,5149,75,72,891
397780,4054164,4815092,4061215,4814879,2631,1184,4469,2804,4511,4690,-23,4608,75,72,891
398781,4054604,4815472,4061542,4815206,2657,911,4218,4047,4067,4098,185,5078,84,61,893
399781,4055096,4815792,4061869,4815533,2261,1289,3950,5230,3566,4057,408,4605,84,61,893
400782,4055620,4816112,4062196,4815860,1976,1292,3538,6489,2904,4069,1063,5200,97,77,893
401783,4056076,4816436,4062523,4816187,2346,1267,3067,7851,2249,3877,1288,4890,97,77,893
402784,4056588,4816740,4062850,4816514,1915,1402,2572,9093,1501,3781,1804,4315,82,56,896
403785,4057060,4817052,4063177,4816841,2103,1359,1977,10182,560,2864,1984,4154,82,56,896
404786,4057512,4817340,4063504,4817168,2175,1526,1273,11270,-311,2061,1061,4134,87,66,896
405787,4057976,4817588,4063831,4817495,2040,1811,511,12175,-1214,1942,932,2753,87,66,896
406789,4058452,4817852,4064158,4817822,1901,1738,-263,12576,-2152,1619,802,1615,92,47,897
407789,4058904,4818112,4064485,4818149,1997,1793,-934,12608,-3051,1753,2225,185,92,47,897
408791,4059400,4818364,4064812,4818476,1649,1876,-1629,12113,-4108,1280,2889,-1031,75,47,895
409791,4059872,4818576,4065139,4818803,1736,2176,-2282,11382,-5361,337,3082,-1572,75,47,895
410802,4060356,4818776,4065500,4819164,1608,2322,-2869,10780,-6527,47,2264,-1343,80,48,895
411793,4060864,4819036,4065827,4819491,1380,1976,-3522,10372,-7345,268,466,-516,80,48,895
412795,4061368,4819268,4066154,4819818,1328,2193,-4189,10100,-7911,154,-20,-181,87,45,893
413795,4061796,4819516,4066481,4820145,1759,2129,-4796,9762,-8374,-282,-904,-650,87,45,893
414797,4062304,4819716,4066808,4820472,1181,2485,-5202,8964,-8797,-667,-2209,-1736,95,39,897
415798,4062804,4819892,4067135,4820799,1156,2701,-5388,7965,-9151,-1316,-2457,-1769,95,39,897
416799,4063216,4820072,4067462,4821126,1668,2741,-5500,7155,-9386,-1388,-2750,-1109,100,47,895
417799,4063720,4820236,4067789,4821453,1017,2912,-5608,6601,-9380,-1302,-3865,-204,100,47,895
418800,4064200,4820396,4068116,4821780,1100,3011,-5706,6318,-8713,-1731,-7236,661,81,36,893
419801,4064680,4820700,4068443,4822107,1034,2122,-5807,6240,-7727,-2524,-7109,1485,81,36,893
420803,4065160,4820936,4068770,4822434,967,2587,-5798,6027,-7189,-3246,-3427,1144,80,54,892
421803,4065704,4821168,4069097,4822761,473,2654,-5665,5659,-6978,-3643,-3000,1248,80,54,892
422805,4066160,4821428,4069424,4823088,967,2509,-5558,5331,-6844,-3873,-3007,1685,84,46,896
423805,4066540,4821696,4069751,4823415,1419,2485,-5534,5067,-6694,-4097,-2529,2149,84,46,896
424807,4067048,4821992,4070078,4823742,540,2324,-5538,4882,-6480,-4292,-2242,2648,75,59,894
425807,4067452,4822260,4070405,4824069,1157,2525,-5532,4745,-6247,-4220,-2032,2797,75,59,894
426809,4067936,4822556,4070732,4824396,588,2364,-5421,4374,-6017,-4085,-1458,2133,80,66,894
427809,4068492,4822844,4071059,4824723,39,2431,-5212,3714,-5789,-3967,-1148,2036,80,66,894
428811,4068960,4823152,4071386,4825050,527,2316,-4925,3013,-5544,-3755,-1453,1975,77,67,895
429811,4069420,4823444,4071713,4825377,519,2431,-4649,2445,-5222,-3629,-1677,2795,77,67,895
430813,4069876,4823728,4072040,4825704,487,2500,-4433,2131,-4829,-3442,-1870,3740,94,70,899
431814,4070304,4824004,4072367,4826031,618,2573,-4276,1917,-4367,-3230,-2386,4100,94,70,899
432814,4070732,4824276,4072694,4826358,575,2622,-4105,1698,-3901,-2704,-1975,3928,79,72,897
433815,4071224,4824672,4073021,4826685,102,1817,-3882,1179,-3507,-1835,-1105,3377,79,72,897
434816,4071620,4825064,4073348,4827012,673,1815,-3640,500,-3189,-1056,-582,3350,77,67,895
435817,4072100,4825428,4073675,4827339,81,1973,-3419,-190,-2899,-604,-190,3534,77,67,895
436819,4072484,4825724,4074002,4827666,656,2413,-3186,-928,-2654,-129,166,3315,77,83,902
437820,4072920,4826084,4074329,4827993,283,1998,-2964,-1640,-2454,225,360,3604,77,83,902
438821,4073280,4826456,4074656,4828320,744,1904,-2730,-2293,-2296,391,376,3718,83,77,902
439822,4073588,4826856,4074983,4828647,1078,1698,-2482,-3160,-2171,1048,-367,3109,83,77,902
440823,4073920,4827264,4075310,4828974,925,1612,-2165,-4237,-2044,1886,-1628,2710,64,85,901
441824,4074248,4827648,4075637,4829301,951,1737,-1824,-5342,-1926,2391,-2853,2719,64,85,901
442825,4074576,4828012,4075964,4829628,950,1847,-1480,-6481,-1881,2730,-4011,2436,60,89,900
443825,4074960,4828440,4076291,4829955,575,1402,-1131,-7716,-1915,3191,-4608,2221,60,89,900
444826,4075312,4828912,4076618,4830282,764,1064,-809,-8844,-1998,3942,-4595,2480,66,84,900
445827,4075628,4829300,4076945,4830609,995,1563,-586,-9815,-2114,4513,-4801,2885,66,84,900
446828,4075940,4829664,4077272,4830936,1027,1696,-444,-10640,-2222,4344,-5160,3380,75,74,903
447830,4076204,4830024,4077599,4831263,1355,1707,-344,-11086,-2297,3887,-5408,4446,75,74,903
448830,4076484,4830364,4077926,4831590,1275,1826,-316,-11336,-2408,3925,-4335,4768,57,77,901
449831,4076796,4830668,4078253,4831917,1083,2061,-324,-11481,-2595,4222,-2946,5012,57,77,901
450832,4077052,4831004,4078580,4832244,1464,1858,-370,-11403,-2772,4431,-3461,5495,64,71,899
451833,4077320,4831312,4078907,4832571,1415,2042,-524,-11091,-2868,4352,-3487,6131,64,71,899
452834,4077584,4831592,4079234,4832898,1468,2237,-1330,-9884,-2732,4066,-4715,9796,49,67,898
453836,4077824,4831892,4079561,4833225,1657,2124,-480,-6420,-2494,6034,-3907,29328,49,67,898
454837,4078116,4832180,4079888,4833552,1347,2217,3369,2026,-2623,8806,-1305,32767,36,67,895
455837,4078384,4832488,4080215,4833879,1523,2101,5626,6279,-2685,3894,-2164,12966,36,67,895
456838,4078600,4832776,4080542,4834206,1898,2243,5017,5642,-2511,2707,-1678,2248,53,66,893
457839,4078804,4833068,4080869,4834533,2027,2233,3350,2933,-2167,3253,-1892,-88,53,66,893
458841,4079016,4833376,4081196,4834860,2029,2143,1811,1052,-1568,3963,-3282,696,33,66,895
459841,4079168,4833660,4081523,4835187,2480,2312,823,-185,-725,3751,-3029,-402,33,66,895
460849,4079364,4833964,4081884,4835548,2278,2212,385,-1515,-195,4113,-133,-1148,38,57,892
461843,4079600,4834324,4082211,4835875,2069,1848,345,-3048,-142,4022,1763,-919,38,57,892
462845,4079860,4834688,4082538,4836202,1948,1807,622,-4637,-135,3281,1780,-899,60,65,889
463846,4080080,4835104,4082865,4836529,2246,1443,824,-5778,-10,3068,876,984,60,65,889
464846,4080316,4835352,4083192,4836856,2186,2527,908,-6253,210,2246,323,2338,62,70,894
465847,4080580,4835576,4083519,4837183,2040,2724,964,-6252,409,568,-159,3788,62,70,894
466848,4080796,4835868,4083846,4837510,2390,2314,936,-5680,547,-212,-1171,5690,38,49,894
467849,4081032,4836200,4084173,4837837,2305,2062,984,-4904,725,-1228,-1350,5944,38,49,894
468850,4081284,4836616,4084500,4838164,2239,1499,1234,-3942,796,-2689,-901,6414,52,69,889
469852,4081512,4837092,4084827,4838491,2432,1058,1647,-2805,665,-3680,-1122,6901,52,69,889
470853,4081736,4837508,4085154,4838818,2504,1394,2215,-1508,513,-4431,-1746,7330,41,79,892
471853,4081992,4837848,4085481,4839145,2336,1863,2882,-192,462,-4894,-2550,7267,41,79,892
472855,4082240,4838148,4085808,4839472,2420,2126,3524,1232,546,-4952,-3584,7582,45,83,895
473855,4082476,4838592,4086135,4839799,2536,1175,4026,2870,821,-4799,-4022,8260,45,83,895
474857,4082740,4839052,4086462,4840126,2390,1016,4491,4483,1178,-4477,-3484,7481,62,92,893
475857,4082956,4839464,4086789,4840453,2739,1279,4951,5818,1481,-4371,-3164,6775,62,92,893
476858,4083192,4839864,4087116,4840780,2655,1323,5385,6958,1724,-4044,-2748,6337,58,85,893
477859,4083452,4840328,4087443,4841107,2535,863,5689,7917,1934,-3071,-2352,5745,58,85,893
478861,4083664,4840744,4087770,4841434,2887,1124,5799,8720,2171,-2078,-1843,5293,51,87,891
479862,4083864,4841204,4088097,4841761,3018,790,5817,9341,2463,-1167,-1269,4546,51,87,891
480862,4084072,4841744,4088424,4842088,3021,197,5796,9691,2722,-238,-724,3717,50,79,895
481864,4084276,4842228,4088751,4842415,3101,478,5762,9721,2889,542,3,2931,50,79,895
482864,4084424,4842760,4089078,4842742,3531,88,5760,9475,2986,1222,380,2039,29,85,892
483865,4084588,4843232,4089405,4843069,3503,399,5781,8931,3005,1838,671,973,29,85,892
484866,4084748,4843684,4089732,4843396,3603,469,5808,8098,2953,2273,1371,406,32,88,892
485868,4084920,4844112,4090059,4843723,3597,575,5763,7242,2870,2841,1846,542,32,88,892
486882,4085068,4844536,4090386,4844050,3800,557,5587,6547,2772,3410,2005,957,33,91,889
487869,4085252,4844872,4090713,4844377,3665,1103,5264,6130,2627,3731,2433,1998,33,91,889
488883,4085416,4845216,4091040,4844704,3800,1046,4865,5945,2432,3898,2253,2670,39,91,887
489884,4085596,4845656,4091367,4845031,3800,396,4453,5885,2182,3917,2202,2864,39,91,887
490872,4085824,4846000,4091694,4845358,3573,988,4050,5900,1830,3754,2869,3408,33,81,886
491873,4086060,4846308,4092021,4845685,3564,1222,3649,5958,1401,3660,2950,3787,33,81,886
492887,4086264,4846608,4092348,4846012,3800,1283,3239,6278,973,3397,2691,4587,46,75,887
493888,4086464,4846856,4092675,4846339,3800,1642,2799,6901,534,2761,2793,5591,31,60,886
494889,4086644,4847108,4093002,4846666,3800,1650,2299,7776,11,2044,3237,6201,31,60,886
495890,4086812,4847308,4093329,4846993,3800,2031,1707,8744,-645,1427,4040,6379,46,48,882
496891,4086964,4847432,4093656,4847320,3800,2595,1059,9571,-1425,632,4867,5987,46,48,882
497892,4087104,4847600,4093983,4847647,3800,2390,486,10087,-2333,-216,5360,5061,39,38,878
498893,4087224,4847720,4094310,4847974,3800,2781,24,10238,-3320,-889,5269,4066,39,38,878
499894,4087336,4847860,4094637,4848301,3800,2738,-367,10172,-4243,-1326,4707,3596,25,36,875
500895,4087416,4847960,4094964,4848628,3800,3088,-764,9942,-5041,-1543,4449,2837,25,36,875
501896,4087512,4848080,4095291,4848955,3800,3054,-1199,9479,-5786,-1801,4537,2163,10,25,874
502898,4087564,4848192,4095618,4849282,3800,3199,-1615,8866,-6500,-2192,4514,1709,10,25,874
503898,4087620,4848296,4095945,4849609,3800,3348,-1885,7951,-7076,-2400,3722,788,4,18,871
504899,4087668,4848412,4096272,4849936,3800,3365,-2034,6868,-7499,-2719,2812,474,4,18,871
505900,4087712,4848560,4096599,4850263,3800,3244,-2116,5636,-7700,-3100,1714,165,19,37,870
506901,4087760,4848672,4096926,4850590,3800,3564,-2140,4294,-7703,-3420,712,-129,19,37,870
507902,4087820,4848844,4097253,4850917,3800,3257,-2109,2875,-7555,-3522,-18,-403,7,28,871
508903,4087860,4849008,4097580,4851244,3800,3379,-2030,1426,-7251,-3581,-956,-484,7,28,871
509904,4087880,4849196,4097907,4851571,3800,3291,-1933,-30,-6769,-3694,-1673,-276,-1,33,870
510912,4087908,4849396,4098268,4851932,3800,3287,-1831,-1492,-6141,-3862,-2115,-157,-1,33,870
511906,4087932,4849588,4098595,4852259,3800,3397,-1743,-2858,-5409,-3960,-2561,155,16,30,870
512907,4087964,4849732,4098922,4852586,3800,3778,-1674,-4172,-4628,-3978,-2492,138,16,30,870
513908,4088012,4849904,4099249,4852913,3800,3672,-1591,-5513,-3873,-4113,-1885,62,18,47,869
514909,4088076,4850124,4099576,4853240,3800,3419,-1486,-6807,-3205,-4168,-1284,403,18,47,869
515910,4088128,4850332,4099903,4853567,3800,3547,-1387,-7853,-2638,-4263,-790,1241,22,42,867
516911,4088196,4850592,4100230,4853894,3800,3253,-1279,-8622,-2149,-4446,-668,2313,22,42,867
517912,4088252,4850824,4100557,4854221,3800,3469,-1178,-9027,-1691,-4458,-1219,3490,19,51,867
518914,4088320,4851060,4100884,4854548,3800,3485,-1162,-8889,-1214,-4326,-1590,5275,19,51,867
519914,4088412,4851288,4101211,4854875,3800,3579,-1245,-8326,-742,-4034,-1734,6470,26,55,868
520915,4088520,4851520,4101538,4855202,3800,3597,-1322,-7608,-322,-3595,-1667,6927,26,55,868
521916,4088648,4851804,4101865,4855529,3800,3291,-1372,-6861,7,-3185,-1347,7187,26,60,869
522917,4088764,4852056,4102192,4855856,3800,3525,-1435,-6078,194,-2619,-492,7683,26,60,869
523918,4088912,4852316,4102519,4856183,3800,3505,-1494,-5248,207,-2029,356,7780,21,50,871
524919,4089040,4852560,4102846,4856510,3800,3642,-1547,-4507,94,-1402,717,7453,21,50,871
525920,4089204,4852856,4103173,4856837,3800,3332,-1574,-3819,-54,-522,788,7489,41,57,871
526921,4089352,4853152,4103500,4857164,3800,3347,-1521,-3202,-188,568,998,7752,41,57,871
527922,4089488,4853480,4103827,4857491,3800,3146,-589,-1533,-329,3305,629,19907,33,52,871
528923,4089656,4853744,4104154,4857818,3800,3575,1080,997,-500,4891,419,24055,33,52,871
529924,4089808,4853984,4104481,4858145,3800,3764,1993,1698,-532,3400,652,5975,23,60,871
530925,4089964,4854232,4104808,4858472,3800,3750,2051,711,-488,3673,1024,2729,23,60,871
531926,4090124,4854520,4105135,4858799,3800,3517,1917,-920,-495,4053,841,1328,42,61,868
532927,4090264,4854812,4105462,4859126,3800,3508,1923,-2336,-541,4252,522,1214,42,61,868
533928,4090408,4855072,4105789,4859453,3800,3739,2031,-3497,-550,4408,220,1529,35,67,870
534929,4090560,4855372,4106116,4859780,3800,3502,2090,-4427,-560,4513,-104,1951,35,67,870
535930,4090680,4855660,4106443,4860107,3800,3595,2077,-5199,-587,4231,-454,2393,34,68,868
536931,4090824,4855940,4106770,4860434,3800,3666,1998,-5843,-646,3787,-705,2956,34,68,868
537932,4090944,4856236,4107097,4860761,3800,3580,1850,-6266,-767,3511,-791,3650,36,53,870
538933,4091084,4856540,4107424,4861088,3800,3541,1650,-6400,-920,3118,-844,4322,36,53,870
539934,4091208,4856840,4107751,4861415,3800,3579,1417,-6179,-1005,2791,-1077,5391,38,69,870
540935,4091348,4857132,4108078,4861742,3800,3645,1178,-5698,-1046,2396,-1047,6060,38,69,870
541936,4091484,4857416,4108405,4862069,3800,3715,964,-5118,-1109,1924,-529,6342,34,55,869
542937,4091620,4857724,4108732,4862396,3800,3575,816,-4511,-1197,1532,-66,6389,34,55,869
543938,4091764,4858048,4109059,4862723,3800,3477,701,-3885,-1279,1177,146,6550,34,56,867
544939,4091888,4858384,4109386,4863050,3800,3399,594,-3105,-1339,868,694,7041,34,56,867
545940,4092020,4858724,4109713,4863377,3800,3368,513,-2300,-1362,757,1152,6775,31,68,871
546941,4092144,4859032,4110040,4863704,3800,3578,500,-1676,-1323,749,1157,6145,31,68,871
547942,4092292,4859352,4110367,4864031,3800,3507,553,-1241,-1252,516,1359,5608,21,74,871
548943,4092416,4859708,4110694,4864358,3800,3270,641,-928,-1192,130,1350,5300,21,74,871
549944,4092548,4860072,4111021,4864685,3800,3205,744,-702,-1138,-208,1023,5005,38,67,870
550945,4092688,4860400,4111348,4865012,3800,3430,912,-681,-1066,-582,824,4105,38,67,870
551946,4092812,4860692,4111675,4865339,3800,3672,1141,-797,-968,-640,949,3646,32,66,872
552947,4092948,4860996,4112002,4865666,3800,3608,1373,-930,-818,-636,1114,3738,32,66,872
553948,4093100,4861300,4112329,4865993,3800,3619,1576,-1012,-635,-634,1177,3777,38,60,867
554949,4093236,4861620,4112656,4866320,3800,3522,1754,-1152,-455,-565,1246,3592,38,60,867
555950,4093372,4861936,4112983,4866647,3800,3553,1923,-1228,-277,-547,1224,3754,29,51,869
556951,4093524,4862220,4113310,4866974,3800,3773,2066,-1249,-109,-580,1511,3923,29,51,869
557952,4093684,4862544,4113637,4867301,3800,3525,2184,-1227,27,-657,1749,4050,29,61,870
558953,4093860,4862892,4113964,4867628,3800,3367,2250,-1076,136,-515,1790,4410,29,61,870
559954,4094076,4863232,4114291,4867955,3800,3412,2254,-798,227,-360,1791,4717,40,66,871
560962,4094284,4863640,4114652,4868316,3800,2967,2232,-535,255,-357,1946,4733,40,66,871
561956,4094496,4864016,4114979,4868643,3800,3147,2202,-331,206,-311,1992,4623,55,74,872
562957,4094728,4864420,4115306,4868970,3800,2939,2157,-118,141,-194,1548,4666,55,74,872
563958,4094948,4864800,4115633,4869297,3800,3066,2121,184,102,15,1132,4739,56,91,873
564959,4095160,4865168,4115960,4869624,3800,3124,2097,467,96,234,784,4751,56,91,873
565960,4095368,4865636,4116287,4869951,3800,2438,2112,767,81,283,342,4700,57,91,874
566961,4095628,4866100,4116614,4870278,3800,2404,2171,958,-6,424,283,4094,57,91,874
567962,4095836,4866572,4116941,4870605,3800,2291,2297,951,-155,483,324,3585,39,87,878
568963,4096056,4867056,4117268,4870932,3800,2148,2442,840,-337,414,859,3420,39,87,878
569964,4096304,4867484,4117595,4871259,3800,2453,2547,806,-492,520,701,3630,38,85,879
570965,4096528,4868000,4117922,4871586,3800,1821,2624,849,-594,903,916,3682,38,85,879
571966,4096760,4868540,4118249,4871913,3800,1579,2688,998,-659,1168,1195,4069,44,98,879
572967,4097008,4868980,4118576,4872240,3800,2154,2713,1408,-698,1305,811,4653,44,98,879
573968,4097240,4869464,4118903,4872567,3800,1811,2749,1759,-801,1224,976,4213,56,92,881
574969,4097484,4869972,4119230,4872894,3800,1583,2880,1889,-1013,884,1307,3382,56,92,881
575971,4097744,4870404,4119557,4873221,3800,2011,3068,1862,-1290,601,1298,2953,58,98,880
576971,4098012,4870940,4119884,4873548,3800,1271,3237,1839,-1554,325,1573,2883,58,98,880
577972,4098292,4871460,4120211,4873875,3800,1286,3366,1903,-1734,81,1739,3082,48,96,881
578973,4098632,4871956,4120538,4874202,3800,1363,3448,2112,-1818,-106,1477,3331,48,96,881
579974,4098940,4872468,4120865,4874529,3800,1181,3490,2383,-1877,-313,1619,3449,61,89,884
580975,4099272,4872944,4121192,4874856,3800,1341,3579,2698,-1965,-467,1813,3164,61,89,884
581976,4099656,4873472,4121519,4875183,3800,928,3702,2880,-2069,-621,1513,2751,61,112,885
582977,4100044,4874036,4121846,4875510,3800,599,3854,3011,-2163,-835,1635,2412,61,112,885
583978,4100500,4874504,4122173,4875837,3800,1137,3956,3170,-2206,-1008,1667,2412,74,107,887
584979,4100964,4875048,4122500,4876164,3800,568,4052,3283,-2178,-1086,948,1948,74,107,887
585980,4101408,4875560,4122827,4876491,3800,687,4156,3323,-2056,-1110,84,1717,78,103,885
586981,4101888,4875996,4123154,4876818,3800,1114,4257,3426,-1862,-1229,-660,1835,78,103,885
587982,4102396,4876548,4123481,4877145,3800,290,4359,3532,-1663,-1403,-948,1567,99,108,887
588983,4102936,4877092,4123808,4877472,3800,244,4479,3628,-1498,-1668,-1121,1339,99,108,887
589984,4103468,4877536,4124135,4877799,3800,818,4625,3733,-1354,-1812,-1193,1133,103,111,889
590985,4103992,4878020,4124462,4878126,3800,499,4739,3845,-1203,-1590,-1490,1204,103,111,889
591986,4104632,4878516,4124789,4878453,3800,350,4831,4156,-997,-1385,-1653,1532,118,97,889
592987,4105176,4878880,4125116,4878780,3800,1159,4872,4460,-751,-1296,-1628,1570,118,97,889
593988,4105776,4879372,4125443,4879107,3800,286,4930,4792,-523,-1199,-1637,1316,116,95,890
594989,4106440,4879812,4125770,4879434,3800,561,4902,4961,-354,-1173,-1658,1158,116,95,890
595990,4107068,4880184,4126097,4879761,3800,967,4988,5115,-254,-1182,-1644,265,116,76,891
596991,4107724,4880420,4126424,4880088,3800,1857,5027,4874,-212,-928,-1656,-199,116,76,891
597992,4108480,4880840,4126751,4880415,3800,666,5138,4621,-221,-551,-1557,-609,139,62,889
598993,4109196,4881156,4127078,4880742,3800,1321,5172,4176,-250,-78,-1523,-806,139,62,889
599994,4109928,4881504,4127405,4881069,3800,1111,5167,3856,-311,304,-1445,-513,146,77,890
600995,4110716,4881824,4127732,4881396,3800,1289,5089,3602,-360,245,-1677,-381,146,77,890
601996,4111476,4882204,4128059,4881723,3800,891,4956,3398,-398,193,-2240,-378,143,79,890
602997,4112212,4882580,4128386,4882050,3800,895,4741,3118,-442,207,-2546,-465,143,79,890
603998,4113060,4882888,4128713,4882377,3800,1328,4468,2766,-533,175,-2593,-517,156,68,891
604999,4113836,4883184,4129040,4882704,3800,1417,4114,2355,-687,91,-2490,-709,156,68,891
606000,4114540,4883524,4129367,4883031,3800,1135,3721,1840,-852,96,-2577,-756,154,64,890
607001,4115268,4883860,4129694,4883358,3800,1156,3286,1270,-1041,283,-2369,-1084,154,64,890
608002,4116036,4884148,4130021,4883685,3800,1473,2789,567,-1283,869,-2049,-1465,134,74,888
609003,4116752,4884404,4130348,4884012,3800,1704,2249,-149,-1535,1574,-2239,-1396,134,74,888
610004,4117392,4884708,4130675,4884339,3800,1414,1584,-876,-1793,1478,-2618,-1000,146,53,887
611001,4118208,4884996,4131036,4884700,3321,1546,831,-1407,-2069,1100,-3055,-372,146,53,887
612006,4118804,4885272,4131363,4885027,3800,1644,55,-1787,-2351,822,-2985,-213,137,64,887
612994,4119508,4885484,4131690,4885354,3742,2094,-705,-2282,-2695,849,-2440,-568,137,64,887
613995,4120268,4885672,4132017,4885681,3204,2305,-1517,-2661,-3132,886,-1281,-77,123,42,887
614997,4120960,4885840,4132344,4886008,3471,2500,-2373,-2926,-3596,275,-517,109,123,42,887
615997,4121676,4886040,4132671,4886335,3152,2356,-3267,-3287,-4073,-128,-233,-45,147,57,887
616999,4122416,4886232,4132998,4886662,2823,2465,-4053,-3653,-4568,-446,126,-309,147,57,887
617999,4123136,4886400,4133325,4886989,2777,2685,-4797,-4046,-5032,-797,136,84,138,49,885
619001,4123712,4886560,4133652,4887316,3570,2809,-5470,-4354,-5401,-1056,-806,499,138,49,885
620001,4124388,4886720,4133979,4887643,2793,2882,-6027,-4647,-5548,-1159,-1617,782,125,40,885
621003,4124900,4886840,4134306,4887970,3739,3223,-6503,-4844,-5495,-966,-2351,1262,125,40,885
622003,4125524,4886964,4134633,4888297,2909,3288,-6930,-5034,-5306,-378,-2581,1229,111,44,884
623004,4126148,4887104,4134960,4888624,2781,3270,-7554,-4965,-4899,463,-2373,3315,111,44,884
624005,4126656,4887340,4135287,4888951,3428,2710,-8535,-4195,-4214,1043,-2126,5131,118,57,880
625006,4127252,4887624,4135614,4889278,2761,2429,-8905,-4463,-3669,451,-1369,164,118,57,880
626007,4127688,4887904,4135941,4889605,3715,2476,-9003,-4941,-3094,1324,-1598,2240,95,51,881
627008,4128312,4888192,4136268,4889932,2412,2443,-9109,-5594,-2435,2313,-1174,1498,95,51,881
628009,4128880,4888452,4136595,4890259,2657,2648,-9143,-6361,-1767,3010,-778,1282,103,58,881
629010,4129348,4888708,4136922,4890586,3222,2705,-9031,-7007,-1058,3514,-204,1573,103,58,881
630011,4129912,4888920,4137249,4890913,2519,3030,-8714,-8085,-471,3432,-568,827,84,50,885
631012,4130368,4889120,4137576,4891240,3138,3162,-8633,-7924,-5,4183,104,6579,84,50,885
632013,4130836,4889352,4137903,4891567,3003,3004,-9204,-6234,108,4788,2126,11083,103,42,883
633014,4131488,4889640,4138230,4891894,1711,2671,-9632,-4394,-210,4700,2776,9558,103,42,883
634016,4131912,4889852,4138557,4892221,3095,3198,-9686,-3259,-701,4452,2837,8178,108,55,882
635017,4132476,4890128,4138884,4892548,2118,2820,-9335,-3301,-1165,4610,1693,5890,108,55,882
636018,4133188,4890412,4139211,4892875,1024,2790,-7062,-1302,-1776,7199,1444,15805,104,60,881
637019,4133716,4890684,4139538,4893202,2087,2889,-585,10726,-3239,18149,1701,32767,104,60,881
638020,4134312,4891004,4139865,4893529,1545,2593,4750,17986,-4468,9096,291,4807,105,46,891
639021,4134876,4891184,4140192,4893856,1642,3533,5607,16366,-5118,5977,509,-1917,105,46,891
640022,4135452,4891404,4140519,4894183,1458,3331,4750,11927,-5555,6574,142,-1977,93,48,891
641023,4135952,4891688,4140846,4894510,1858,2950,3502,8978,-5497,8772,-2220,1807,93,48,891
642024,4136544,4891988,4141173,4894837,1168,2863,2689,7573,-5213,8098,-1929,-305,81,66,885
643025,4137088,4892268,4141500,4895164,1373,3008,2387,5913,-5234,7715,-460,-1418,81,66,885
644026,4137572,4892540,4141827,4895491,1680,3083,1928,3968,-5495,7655,-902,-1084,88,54,890
645026,4138080,4892812,4142154,4895818,1452,3107,1394,1924,-5578,6914,-1662,-1563,88,54,890
646027,4138604,4893088,4142481,4896145,1265,3106,761,129,-5543,6035,-2048,-370,87,48,888
647029,4139112,4893376,4142808,4896472,1287,3049,-83,-759,-5621,5485,-1888,1952,87,48,888
648030,4139552,4893680,4143135,4896799,1663,2959,-1054,-839,-5765,4705,-1587,4367,94,71,889
649031,4140000,4893976,4143462,4897126,1561,3024,-1863,-727,-5966,4429,-449,3639,94,71,889
650032,4140488,4894208,4143789,4897453,1240,3466,-2316,-1091,-6312,4470,978,2709,96,71,889
651033,4140956,4894496,4144116,4897780,1304,3134,-2561,-1430,-6641,4267,1489,3619,96,71,889
652034,4141412,4894796,4144443,4898107,1322,3072,-2779,-1219,-6889,3928,1634,5105,77,49,886
653035,4141840,4895076,4144770,4898434,1454,3217,-3028,-567,-7101,3208,1197,6103,77,49,886
654036,4142252,4895316,4145097,4898761,1518,3506,-3254,688,-7177,1973,107,7499,87,69,886
655037,4142624,4895620,4145424,4899088,1748,3117,-3405,2190,-7059,611,-1258,7854,87,69,886
656038,4142968,4895924,4145751,4899415,1916,3128,-3490,3480,-7024,-322,-1248,7574,84,66,886
657038,4143340,4896228,4146078,4899742,1722,3139,-3476,4697,-7175,-876,-737,7326,84,66,886
658040,4143740,4896512,4146405,4900069,1516,3283,-3391,5929,-7290,-1257,-1342,7055,64,55,887
659041,4144080,4896840,4146732,4900396,1885,3008,-3280,7143,-7218,-1995,-2154,6898,64,55,887
660042,4144376,4897180,4147059,4900723,2175,2928,-3162,8260,-6937,-2725,-2917,6962,66,68,887
661049,4144644,4897504,4147420,4901084,2390,3045,-3090,9441,-6504,-2868,-3172,7086,66,68,887
662044,4144860,4897796,4147747,4901411,2765,3261,-2976,10292,-6007,-2967,-2937,5670,49,72,886
663045,4145168,4898084,4148074,4901738,2199,3304,-2748,10596,-5501,-3166,-2659,4147,49,72,886
664046,4145448,4898396,4148401,4902065,2395,3162,-2474,10436,-4961,-3146,-2906,3236,70,67,881
665047,4145720,4898756,4148728,4902392,2469,2847,-2193,10021,-4353,-2896,-3145,2652,70,67,881
666047,4145988,4899124,4149055,4902719,2521,2780,-1918,9490,-3685,-2671,-3583,2109,61,75,883
667049,4146256,4899472,4149382,4903046,2548,2897,-1629,8769,-2999,-2685,-3929,1373,61,75,883
668049,4146520,4899852,4149709,4903373,2601,2674,-1328,7868,-2302,-2658,-4388,1131,44,85,885
669050,4146768,4900280,4150036,4903700,2737,2330,-1071,6944,-1595,-2572,-4715,1208,44,85,885
670051,4147008,4900720,4150363,4904027,2825,2207,-837,6130,-923,-2671,-4783,1389,41,73,886
671053,4147244,4901064,4150690,4904354,2891,2799,-605,5320,-286,-2842,-4843,1386,41,73,886
672054,4147508,4901380,4151017,4904681,2745,2980,-386,4494,325,-2877,-4921,1794,56,76,887
673054,4147768,4901768,4151344,4905008,2799,2504,-201,3880,908,-2969,-4734,2567,56,76,887
674055,4148044,4902220,4151671,4905335,2722,2049,-31,3476,1451,-3153,-4815,2983,66,86,882
675057,4148304,4902736,4151998,4905662,2853,1567,154,3086,1925,-3160,-4786,3321,66,86,882
676058,4148548,4903252,4152325,4905989,2989,1484,297,2808,2305,-3066,-4390,4023,63,85,886
677058,4148824,4903760,4152652,4906316,2813,1456,422,2705,2624,-2940,-3883,4244,63,85,886
678059,4149092,4904020,4152979,4906643,2890,3035,528,2620,2873,-2894,-3209,4356,52,109,889
679061,4149368,4904556,4153306,4906970,2863,1219,606,2524,3046,-2837,-2548,4766,52,109,889
680061,4149656,4905060,4153633,4907297,2805,1342,657,2571,3201,-2673,-1920,5164,73,106,885
681062,4149984,4905608,4153960,4907624,2556,970,688,2616,3346,-2526,-1492,5242,73,106,885
682063,4150284,4906092,4154287,4907951,2744,1301,774,2533,3462,-2445,-1366,5299,78,118,891
683065,4150608,4906668,4154614,4908278,2596,617,1955,2207,3299,55,-1358,14815,78,118,891
684065,4150940,4907208,4154941,4908605,2544,749,4206,1975,2832,1836,-1715,22083,71,91,893
685067,4151244,4907752,4155268,4908932,2730,629,5242,1778,2606,-1276,-1601,6607,71,91,893
686068,4151548,4908400,4155595,4909259,2741,-162,5010,1334,2640,-1761,-1856,3655,70,102,894
687069,4151884,4908852,4155922,4909586,2538,1008,4513,877,2747,-1539,-1964,3843,70,102,894
688070,4152188,4909384,4156249,4909913,2748,418,4208,499,2803,-1461,-830,3889,52,105,894
689070,4152456,4909864,4156576,4910240,3000,677,4030,287,2747,-1370,193,4070,52,105,894
690071,4152744,4910292,4156903,4910567,2893,957,3909,-188,2620,-1288,772,3323,67,112,894
691072,4153036,4910780,4157230,4910894,2885,512,3784,-734,2524,-1024,702,3466,67,112,894
692073,4153320,4911296,4157557,4911221,2954,254,3693,-1059,2504,-819,280,3643,73,99,892
693074,4153652,4911788,4157884,4911548,2652,331,3660,-1297,2596,-802,-1239,3715,73,99,892
694075,4153916,4912168,4158211,4911875,3106,1008,3618,-1418,2744,-585,-1998,4187,61,104,893
695077,4154176,4912556,4158538,4912202,3161,931,3603,-1507,2939,-211,-2417,4071,61,104,893
696077,4154436,4912896,4158865,4912529,3192,1225,3697,-1608,3058,0,-1845,3863,52,83,891
697078,4154696,4913176,4159192,4912856,3222,1620,3905,-1762,3031,-249,-1159,3700,52,83,891
698079,4154952,4913428,4159519,4913183,3279,1828,4129,-1934,2868,-339,-29,3713,57,46,887
699081,4155240,4913656,4159846,4913510,3097,2021,4248,-1858,2578,-332,1095,4051,57,46,887
700081,4155540,4913832,4160173,4913837,3034,2413,4251,-1878,2175,-793,1877,3713,46,29,885
701083,4155812,4913980,4160500,4914164,3235,2666,4243,-1934,1600,-1326,2378,3579,46,29,885
702083,4156140,4914096,4160827,4914491,2885,2959,4242,-1905,896,-1867,2053,4084,62,41,883
703085,4156520,4914204,4161154,4914818,2538,3105,4127,-1277,242,-1892,283,6095,62,41,883
704086,4156828,4914340,4161481,4915145,2997,3015,3896,-239,-322,-2066,-1071,6419,71,38,881
705087,4157148,4914464,4161808,4915472,2926,3179,3602,566,-1025,-2431,-29,5569,71,38,881
706087,4157500,4914600,4162135,4915799,2716,3188,3243,1074,-1927,-2247,2063,4780,77,40,881
707089,4157872,4914708,4162462,4916126,2573,3460,2855,1281,-2900,-1823,4295,3752,77,40,881
708090,4158180,4914852,4162789,4916453,2981,3315,2466,1232,-3736,-1337,4190,3000,62,31,879
709091,4158520,4914984,4163116,4916780,2776,3477,2117,830,-4367,-829,3539,1916,62,31,879
710092,4158836,4915140,4163443,4917107,2932,3402,1890,56,-4938,-668,3288,524,52,25,877
711100,4159136,4915276,4163804,4917468,3060,3626,1790,-859,-5451,-604,1932,33,52,25,877
712093,4159452,4915432,4164131,4917795,2966,3577,1783,-1870,-5734,-365,-195,-24,74,27,877
713094,4159744,4915588,4164458,4918122,3132,3652,1764,-2772,-5713,422,-1109,509,74,27,877
714095,4160064,4915772,4164785,4918449,2961,3541,1674,-3483,-5506,1160,-1111,742,72,31,875
715096,4160388,4915972,4165112,4918776,2938,3497,1561,-4099,-5242,1467,-1055,965,72,31,875
716097,4160676,4916196,4165439,4919103,3181,3393,1483,-4713,-4996,1300,-750,937,63,54,876
717098,4160944,4916424,4165766,4919430,3333,3411,1469,-5342,-4808,1054,-488,887,63,54,876
718099,4161228,4916648,4166093,4919757,3252,3483,1459,-5763,-4684,915,-159,1562,47,54,876
719100,4161520,4916868,4166420,4920084,3219,3556,1371,-5773,-4585,871,178,2796,47,54,876
720102,4161776,4917076,4166747,4920411,3476,3683,1176,-5350,-4483,732,124,3951,65,55,873
721102,4162032,4917388,4167074,4920738,3508,3041,923,-4671,-4349,721,120,4778,65,55,873
722103,4162308,4917680,4167401,4921065,3407,3181,694,-3803,-4224,779,294,5101,60,65,872
723104,4162604,4917956,4167728,4921392,3296,3304,514,-2852,-4150,735,367,5392,60,65,872
724105,4162876,4918232,4168055,4921719,3471,3328,405,-1976,-4086,622,102,5312,52,57,876
725106,4163144,4918540,4168382,4922046,3523,3136,367,-1273,-4011,748,-93,4863,52,57,876
726107,4163412,4918828,4168709,4922373,3550,3279,389,-645,-3950,935,-166,4532,66,67,873
727109,4163676,4919144,4169036,4922700,3604,3110,454,-196,-3912,933,-230,4087,66,67,873
728109,4164016,4919380,4169363,4923027,3124,3650,559,83,-3896,879,-221,3598,68,68,875
729110,4164292,4919624,4169690,4923354,3548,3638,672,210,-3891,945,-59,3176,68,68,875
730111,4164572,4919924,4170017,4923681,3544,3301,794,256,-3888,1136,325,2825,61,72,873
731112,4164908,4920236,4170344,4924008,3191,3233,939,152,-3880,1270,747,2223,61,72,873
732114,4165212,4920584,4170671,4924335,3402,2999,1073,-203,-3876,1368,1542,1690,63,64,873
733115,4165532,4920948,4170998,4924662,3307,2884,1184,-716,-3885,1563,2341,1465,63,64,873
734115,4165908,4921312,4171325,4924989,2936,2868,1274,-1181,-3888,1605,2671,1563,55,78,877
735116,4166256,4921668,4171652,4925316,3103,2906,1344,-1530,-3849,1438,2481,1664,55,78,877
736118,4166592,4922020,4171979,4925643,3175,2921,1397,-2039,-3758,1306,2224,1433,58,84,881
737118,4166952,4922404,4172306,4925970,3011,2697,1430,-2505,-3640,1352,2198,1524,58,84,881
738119,4167280,4922784,4172633,4926297,3212,2698,1452,-2875,-3464,1339,2055,1800,59,67,880
739120,4167612,4923144,4172960,4926624,3186,2810,1446,-3117,-3242,1211,1903,2334,59,67,880
740122,4167944,4923480,4173287,4926951,3184,2957,1396,-3203,-3006,892,1939,2775,71,82,881
741122,4168296,4923808,4173614,4927278,3050,3006,1286,-3128,-2760,613,1945,3329,71,82,881
742123,4168608,4924148,4173941,4927605,3307,2927,1091,-2784,-2487,430,1938,4060,50,71,879
743125,4168940,4924520,4174268,4927932,3181,2708,844,-2411,-2205,161,2048,3894,50,71,879
744125,4169296,4924820,4174595,4928259,3019,3170,607,-2234,-1964,118,2168,3401,49,59,880
745126,4169632,4925120,4174922,4928586,3141,3183,369,-2194,-1727,215,2324,3383,49,59,880
746127,4169964,4925412,4175249,4928913,3165,3249,83,-2107,-1439,228,2203,3603,57,52,881
747128,4170344,4925700,4175576,4929240,2843,3291,-271,-1923,-1131,83,2084,3799,57,52,881
748130,4170680,4925988,4175903,4929567,3115,3309,-623,-1810,-847,-193,2309,3554,66,63,878
749131,4171008,4926276,4176230,4929894,3165,3327,-922,-1741,-608,-353,2398,3533,66,63,878
750131,4171388,4926560,4176557,4930221,2818,3371,-1202,-1660,-376,-367,2088,3599,59,53,879
751133,4171740,4926836,4176884,4930548,2983,3445,-1465,-1753,-118,-277,1925,3176,59,53,879
752134,4172096,4927080,4177211,4930875,2946,3682,-1698,-1969,122,-216,1824,2867,80,50,874
753134,4172508,4927332,4177538,4931202,2560,3666,-1914,-2378,300,-204,1780,2368,80,50,874
754148,4172880,4927556,4177865,4931529,2791,3800,-2105,-2897,417,-219,1804,2115,77,56,876
755149,4173296,4927796,4178192,4931856,2478,3800,-2283,-3412,524,-408,1157,2540,77,56,876
756137,4173764,4928076,4178519,4932183,2092,3597,-2489,-3671,669,-524,352,3616,73,61,878
757151,4174188,4928328,4178846,4932510,2325,3800,-2705,-3686,807,-634,-84,4136,73,61,878
758152,4174684,4928548,4179173,4932837,1802,3800,-2901,-3563,929,-935,-215,4610,104,56,878
759153,4175104,4928752,4179500,4933164,2237,3800,-3078,-3437,1089,-1378,-890,4853,104,56,878
760154,4175572,4928992,4179827,4933491,1876,3800,-3195,-3375,1300,-1362,-997,4757,98,58,878
761162,4176036,4929236,4180188,4933852,1857,3800,-3276,-3319,1570,-1567,-957,4995,98,58,878
762156,4176416,4929436,4180515,4934179,2359,3800,-3284,-3245,1884,-2301,-1245,5347,97,52,879
763157,4176828,4929636,4180842,4934506,2122,3800,-3227,-3122,2252,-3165,-1683,5720,97,52,879
764158,4177172,4929884,4181169,4934833,2541,3800,-3141,-3008,2678,-3731,-2075,6239,71,49,879
765147,4177540,4930200,4181496,4935160,2374,3755,-2958,-2886,3120,-3557,-2052,5981,71,49,879
766147,4177900,4930524,4181823,4935487,2409,3707,-2700,-2994,3536,-2932,-1504,5355,84,67,879
767149,4178220,4930940,4182150,4935814,2664,3093,-2361,-3267,3953,-2532,-1538,5211,84,67,879
768150,4178536,4931356,4182477,4936141,2694,3055,-2000,-3677,4341,-1909,-1689,5413,80,72,878
769151,4178832,4931752,4182804,4936468,2834,3151,-1621,-4032,4700,-782,-1951,5723,80,72,878
770151,4179036,4932264,4183131,4936795,3463,2346,-1048,-4338,4993,566,-1925,6317,62,91,883
771153,4179264,4932820,4183458,4937122,3358,1971,605,-2677,4922,5665,-2289,24025,62,91,883
772153,4179480,4933324,4183785,4937449,3482,2219,2539,-677,4582,6023,-2743,18381,42,115,882
773155,4179708,4933876,4184112,4937776,3452,1821,3505,-568,4501,2255,-3500,4067,42,115,882
774155,4179920,4934368,4184439,4938103,3603,2124,3684,-1651,4646,2288,-4107,3533,44,107,882
775157,4180120,4934876,4184766,4938430,3734,1945,3775,-2696,4833,2702,-4721,3606,44,107,882
776158,4180324,4935412,4185093,4938757,3764,1679,3997,-3038,4981,2432,-4738,4760,44,92,883
777159,4180536,4935856,4185420,4939084,3766,2203,4342,-3211,5007,2309,-4236,4394,44,92,883
778159,4180764,4936360,4185747,4939411,3710,1751,4705,-3340,4886,3103,-3218,4531,53,86,880
779160,4181028,4936812,4186074,4939738,3514,2022,5094,-3411,4680,3906,-2043,4328,53,86,880
780161,4181332,4937272,4186401,4940065,3275,1914,5407,-3277,4425,4397,-1331,5093,50,90,880
781163,4181624,4937792,4186728,4940392,3366,1455,5557,-2651,4104,4236,-590,6627,50,90,880
782163,4181940,4938340,4187055,4940719,3222,1183,5627,-1538,3853,3531,-137,7812,59,104,883
783165,4182240,4938844,4187382,4941046,3335,1381,5678,-203,3483,3236,1318,7908,59,104,883
784165,4182564,4939364,4187709,4941373,3187,1196,5744,904,2906,3526,2499,7055,73,93,887
785167,4182892,4939860,4188036,4941700,3163,1272,5820,2103,2256,3638,2777,7362,73,93,887
786167,4183164,4940360,4188363,4942027,3538,1172,5866,3314,1702,3391,2138,6965,56,94,885
787169,4183440,4940944,4188690,4942354,3537,534,5902,4330,1327,2858,1477,6323,56,94,885
788169,4183768,4941428,4189017,4942681,3212,1090,5971,5327,1029,2312,1567,6018,65,102,889
789170,4184092,4941948,4189344,4943008,3240,781,6111,6097,705,2530,1632,4789,65,102,889
790171,4184388,4942444,4189671,4943335,3429,857,6309,6573,401,3095,1302,3540,63,108,889
791173,4184752,4942996,4189998,4943662,2989,408,6518,6891,183,2479,1057,2958,63,108,889
792173,4185064,4943448,4190325,4943989,3321,978,6687,7148,9,1369,297,2698,58,110,890
793175,4185384,4944032,4190652,4944316,3276,40,6754,7492,-93,1152,-1067,2658,58,110,890
794175,4185748,4944532,4190979,4944643,2985,489,6743,7939,-170,1576,-823,2250,67,104,893
795176,4186048,4944980,4191306,4944970,3398,761,6737,8136,-334,1619,-464,1209,67,104,893
796177,4186360,4945424,4191633,4945297,3331,735,6740,8127,-604,619,-769,785,64,87,889
797179,4186736,4945776,4191960,4945624,2910,1299,6754,8125,-867,-5,-1267,669,64,87,889
798180,4187088,4946164,4192287,4945951,3050,1047,6678,8395,-1002,544,-1536,1025,76,91,888
799181,4187416,4946548,4192614,4946278,3201,1047,6507,8818,-1052,664,-1116,880,76,91,888
800182,4187792,4946904,4192941,4946605,2880,1209,6310,9202,-1155,-305,-1580,447,60,71,891
801182,4188264,4947288,4193268,4946932,2218,1009,6118,9366,-1320,-736,-1814,24,60,71,891
802183,4188688,4947668,4193595,4947259,2476,1011,5825,9539,-1542,-495,-1740,210,79,80,890
803184,4189084,4948000,4193922,4947586,2622,1309,5381,10099,-1753,-961,-1990,883,79,80,890
804185,4189604,4948372,4194249,4947913,1763,1039,4929,10513,-2035,-1909,-1800,-57,84,75,896
805186,4190120,4948656,4194576,4948240,1706,1608,4441,10778,-2461,-2010,-1235,12,84,75,896
806187,4190552,4949000,4194903,4948567,2185,1225,3749,11387,-2848,-972,-948,1282,89,74,893
807189,4191156,4949316,4195230,4948894,989,1405,2900,12191,-3219,-299,-488,1202,89,74,893
808189,4191640,4949580,4195557,4949221,1671,1757,2028,12767,-3658,-657,107,641,101,58,895
809190,4192180,4949852,4195884,4949548,1228,1731,1240,12947,-4226,-961,1004,-410,101,58,895
810191,4192640,4950108,4196211,4949875,1671,1862,519,12744,-4855,-721,1072,-1243,102,46,901
811201,4193092,4950360,4196572,4950236,1681,1935,-152,12357,-5460,-623,1448,-1821,102,46,901
812193,4193540,4950600,4196899,4950563,1654,2048,-791,11748,-6031,-553,1607,-2346,90,57,898
813194,4193988,4950836,4197226,4950890,1600,2113,-1372,10886,-6495,-368,1118,-2602,90,57,898
814195,4194404,4951056,4197553,4951217,1762,2260,-1900,9967,-6809,63,997,-2766,79,58,895
815197,4194836,4951280,4197880,4951544,1617,2281,-2388,8868,-6979,226,938,-3284,79,58,895
816198,4195228,4951476,4198207,4951871,1839,2513,-2845,7604,-7075,-20,834,-3339,87,50,894
817198,4195616,4951712,4198534,4952198,1838,2303,-3257,6413,-7166,-314,397,-2963,87,50,894
818199,4196016,4951928,4198861,4952525,1731,2478,-3605,5237,-7265,-487,-402,-2861,85,55,892
819200,4196396,4952148,4199188,4952852,1833,2500,-3901,4150,-7331,-839,-1065,-2380,85,55,892
820201,4196780,4952360,4199515,4953179,1783,2600,-4182,3186,-7305,-1477,-2001,-1582,85,54,890
821202,4197116,4952556,4199842,4953506,2080,2758,-4394,2365,-7192,-1897,-2861,-1056,85,54,890
822203,4197500,4952812,4200169,4953833,1756,2414,-4495,1679,-7036,-2170,-2980,-468,69,58,890
823204,4197904,4953088,4200496,4954160,1598,2312,-4548,1276,-6833,-2538,-3108,607,69,58,890
824205,4198276,4953364,4200823,4954487,1779,2335,-4643,1184,-6603,-2886,-3112,1913,80,48,888
825206,4198660,4953648,4201150,4954814,1679,2304,-4709,1274,-6358,-3010,-2754,2555,80,48,888
826207,4199088,4953920,4201477,4955141,1359,2403,-4669,1263,-6145,-2941,-1857,2222,71,59,893
827208,4199480,4954168,4201804,4955468,1557,2588,-4507,1087,-5964,-3047,-1059,2135,71,59,893
828209,4199860,4954424,4202131,4955795,1608,2569,-4287,932,-5778,-3180,-889,2707,75,46,892
829210,4200244,4954688,4202458,4956122,1559,2548,-4064,829,-5578,-2965,-650,3121,75,46,892
830211,4200584,4954956,4202785,4956449,1829,2549,-3830,794,-5396,-2620,-259,3150,62,55,890
831213,4200924,4955268,4203112,4956776,1824,2280,-3549,656,-5241,-2279,-48,2982,62,55,890
832214,4201320,4955548,4203439,4957103,1444,2502,-3213,217,-5098,-1621,127,2488,68,56,892
833214,4201700,4955876,4203766,4957430,1520,2201,-2882,-515,-4934,-428,-65,2037,68,56,892
834215,4202048,4956212,4204093,4957757,1712,2147,-2565,-1542,-4751,724,-1,1038,69,56,892
835216,4202436,4956492,4204420,4958084,1435,2518,-2301,-3002,-4592,1570,425,53,69,56,892
836217,4202784,4956752,4204747,4958411,1677,2674,-2115,-4641,-4428,2158,725,-104,56,65,894
837218,4203128,4957108,4205074,4958738,1695,2061,-2052,-6218,-4240,2580,1046,530,56,65,894
838220,4203492,4957456,4205401,4959065,1553,2102,-2110,-7520,-4020,2877,1173,1237,72,65,893
839221,4203840,4957820,4205728,4959392,1645,1986,-2237,-8540,-3759,3066,1093,1938,72,65,893
840222,4204172,4958216,4206055,4959719,1743,1756,-2334,-9497,-3491,3369,1112,2015,60,85,893
841223,4204516,4958628,4206382,4960046,1661,1619,-2436,-10451,-3240,3756,1169,2224,60,85,893
842223,4204876,4959040,4206709,4960373,1547,1581,-2572,-11293,-3012,4142,1349,2489,59,76,893
843225,4205204,4959396,4207036,4960700,1747,1920,-2784,-12003,-2815,4492,1455,2773,59,76,893
844225,4205556,4959728,4207363,4961027,1586,2067,-3064,-12576,-2666,4757,1465,3144,59,91,897
845226,4205964,4960096,4207690,4961354,1201,1824,-3407,-13076,-2577,4835,1361,3616,59,91,897
846227,4206328,4960464,4208017,4961681,1460,1806,-3869,-13193,-2510,4552,853,4959,54,76,895
847228,4206668,4960756,4208344,4962008,1604,2298,-4869,-12229,-2238,3973,-1062,8518,54,76,895
848229,4207032,4961132,4208671,4962335,1439,1751,-5856,-11225,-1926,3204,-928,6657,67,71,897
849230,4207336,4961460,4208998,4962662,1824,2051,-6563,-10563,-1888,3268,975,6275,67,71,897
850231,4207696,4961764,4209325,4962989,1459,2211,-7063,-10225,-2144,3227,1835,5610,62,66,894
851232,4208064,4962064,4209652,4963316,1392,2249,-7626,-9639,-2467,3036,391,7325,62,66,894
852233,4208348,4962380,4209979,4963643,1936,2154,-7732,-8035,-2639,3597,-2099,12283,50,50,892
853234,4208640,4962688,4210306,4963970,1902,2212,-3651,2164,-3062,12600,-3922,32767,50,50,892
854235,4208992,4962964,4210633,4964297,1517,2434,1543,12869,-3389,8106,-4969,32767,71,66,894
855237,4209316,4963220,4210960,4964624,1693,2591,2477,15012,-3521,3416,349,2588,71,66,894
856237,4209612,4963468,4211287,4964951,1882,2676,1193,11760,-3603,3457,1740,-2180,59,60,891
857238,4209904,4963712,4211614,4965278,1923,2738,-58,6942,-3672,4142,884,-5559,59,60,891
858239,4210136,4964008,4211941,4965605,2340,2426,-460,3672,-3560,4022,33,-4444,65,63,891
859240,4210324,4964348,4212268,4965932,2676,2147,-678,1251,-3312,4027,179,-3868,65,63,891
860241,4210572,4964628,4212595,4966259,2337,2542,-1181,-435,-3133,4673,-660,-1790,41,56,888
861249,4210876,4964880,4212956,4966620,2012,2765,-1758,-1974,-2654,3976,-2195,-1668,41,56,888
862243,4211160,4965204,4213283,4966947,2155,2317,-2173,-3584,-2017,3610,-1476,-1033,51,67,887
863245,4211432,4965552,4213610,4967274,2256,2158,-2516,-4529,-1844,3153,127,1679,51,67,887
864246,4211708,4965948,4213937,4967601,2253,1828,-2712,-4887,-1934,1699,400,3026,69,63,887
865247,4211964,4966296,4214264,4967928,2410,2120,-2629,-5031,-2051,950,69,2946,69,63,887
866247,4212236,4966536,4214591,4968255,2334,2833,-2318,-5342,-2092,318,-1231,2435,58,63,890
867248,4212480,4966800,4214918,4968582,2547,2711,-1804,-5646,-1893,-805,-2337,3128,58,63,890
868249,4212704,4967080,4215245,4968909,2717,2632,-942,-4904,-1548,-1914,-4229,9076,58,62,889
869250,4212932,4967424,4215572,4969236,2736,2225,1083,-607,-847,-4965,-9042,32767,58,62,889
870251,4213200,4967900,4215899,4969563,2513,1334,2966,3745,-182,-4307,-6719,18168,56,77,885
871253,4213412,4968388,4216226,4969890,2914,1190,3482,6174,138,-3485,-4933,9525,56,77,885
872253,4213652,4968668,4216553,4970217,2777,2510,3367,7683,307,-3289,-4585,9382,60,82,887
873254,4213900,4969024,4216880,4970544,2763,2022,3235,9032,468,-3418,-4190,8738,60,82,887
874255,4214144,4969504,4217207,4970871,2825,1181,3364,10529,609,-3139,-3705,7600,44,81,889
875256,4214368,4969960,4217534,4971198,2996,1275,3557,11814,811,-2536,-4316,6985,44,81,889
876257,4214644,4970352,4217861,4971525,2693,1646,3769,12928,1144,-1923,-5117,6345,52,95,888
877258,4214896,4970820,4218188,4971852,2877,1109,3981,13704,1459,-1620,-4975,5115,52,95,888
878259,4215160,4971248,4218515,4972179,2831,1315,4253,14042,1633,-1336,-4476,3805,63,92,890
879261,4215452,4971656,4218842,4972506,2671,1405,4528,14052,1733,-744,-4018,2999,63,92,890
880261,4215696,4972072,4219169,4972833,3009,1316,4745,13776,1798,-150,-3145,2137,60,84,891
881262,4215916,4972608,4219496,4973160,3207,474,4903,13311,1828,268,-2169,1543,60,84,891
882263,4216152,4973068,4219823,4973487,3147,891,5044,12698,1828,609,-1647,1143,51,86,891
883264,4216388,4973532,4220150,4973814,3188,805,5162,11947,1800,1014,-1230,777,51,86,891
884265,4216576,4974008,4220477,4974141,3550,665,5253,11163,1752,1218,-608,806,41,86,890
885266,4216808,4974444,4220804,4974468,3317,867,5285,10419,1647,1217,-81,884,41,86,890
886267,4217040,4974916,4221131,4974795,3359,578,5298,9575,1460,1143,261,687,39,83,887
887269,4217236,4975372,4221458,4975122,3643,622,5288,8781,1193,915,826,933,39,83,887
888269,4217448,4975792,4221785,4975449,3594,806,5237,8142,849,635,1148,1279,46,101,888
889270,4217676,4976204,4222112,4975776,3539,818,5142,7583,480,246,915,1564,46,101,888
890271,4217884,4976656,4222439,4976103,3716,513,5038,7088,209,-104,-369,2052,34,86,886
891272,4218120,4977064,4222766,4976430,3582,753,4948,6843,67,-167,-960,2574,34,86,886
892273,4218412,4977348,4223093,4976757,3249,1547,4855,6601,-106,-516,878,2459,58,68,886
893274,4218724,4977604,4223420,4977084,3131,1753,4694,6309,-390,-975,1778,2590,58,68,886
894275,4219024,4977800,4223747,4977411,3219,2185,4466,6120,-694,-1401,1397,2929,64,54,888
895276,4219376,4978012,4224074,4977738,2884,2135,4311,6061,-911,-2126,1019,3119,64,54,888
896278,4219672,4978192,4224401,4978065,3249,2400,4141,6032,-1041,-2539,607,3344,63,38,884
897279,4219948,4978328,4224728,4978392,3397,2759,3882,6073,-1172,-3078,438,3348,63,38,884
898280,4220236,4978460,4225055,4978719,3340,2869,3490,6085,-1384,-3750,1132,3262,62,32,886
899281,4220484,4978600,4225382,4979046,3625,2901,3035,6063,-1674,-4301,1415,3190,62,32,886
900282,4220736,4978732,4225709,4979373,3634,3037,2634,5926,-1963,-4666,1410,2715,51,21,877
901282,4220976,4978860,4226036,4979700,3748,3151,2321,5704,-2238,-4905,1741,2358,51,21,877
902283,4221252,4978996,4226363,4980027,3547,3185,2032,5326,-2568,-5068,2848,1791,56,33,875
903285,4221532,4979100,4226690,4980354,3543,3483,1701,4618,-2997,-5107,4138,1113,56,33,875
904286,4221828,4979232,4227017,4980681,3458,3393,1322,3758,-3457,-4788,4605,758,65,38,872
905287,4222168,4979360,4227344,4981008,3178,3506,944,2718,-3816,-4337,4099,222,65,38,872
906287,4222468,4979484,4227671,4981335,3441,3621,623,1546,-3975,-4058,3143,-63,51,27,871
907289,4222792,4979628,4227998,4981662,3293,3576,331,275,-3886,-3816,1759,-398,51,27,871
908289,4223132,4979792,4228325,4981989,3189,3524,64,-1136,-3632,-3611,497,-736,77,46,874
909290,4223456,4979968,4228652,4982316,3291,3515,-204,-2722,-3293,-3402,308,-1165,77,46,874
910291,4223748,4980180,4228979,4982643,3507,3341,-444,-4377,-2961,-3484,419,-1307,66,54,873
911299,4224084,4980388,4229340,4983004,3244,3434,-679,-6054,-2708,-3499,514,-1315,66,54,873
912294,4224412,4980624,4229667,4983331,3295,3299,-875,-7670,-2503,-3439,492,-1200,67,40,874
913294,4224708,4980848,4229994,4983658,3509,3420,-1032,-9137,-2245,-3098,171,-728,67,40,874
914295,4225016,4981024,4230321,4983985,3444,3787,-1207,-10451,-1859,-2608,-646,-359,67,49,875
915296,4225300,4981240,4230648,4984312,3614,3587,-1430,-11682,-1385,-2104,-1028,194,67,49,875
916298,4225620,4981472,4230975,4984639,3393,3529,-1675,-12736,-916,-1606,-1027,648,72,44,873
917298,4226012,4981692,4231302,4984966,2915,3651,-1886,-13640,-530,-1198,-829,1098,72,44,873
918299,4226372,4981936,4231629,4985293,3102,3539,-2015,-14346,-299,-1123,-406,1858,70,51,870
919301,4226720,4982212,4231956,4985620,3168,3361,-2097,-14737,-287,-805,461,2876,70,51,870
920302,4227188,4982436,4232283,4985947,2358,3732,-2297,-14557,-484,-239,1564,5012,67,51,875
921303,4227596,4982712,4232610,4986274,2698,3431,-2652,-13595,-708,368,1467,7576,67,51,875
922303,4228028,4982980,4232937,4986601,2503,3507,-2964,-12331,-829,790,715,7804,72,70,877
923304,4228480,4983284,4233264,4986928,2324,3293,-3171,-10990,-938,1199,946,8331,72,70,877
924305,4228992,4983576,4233591,4987255,1869,3384,-3332,-9720,-1123,1644,1091,8439,90,61,879
925306,4229448,4983876,4233918,4987582,2163,3346,-3435,-8476,-1369,2232,761,8240,90,61,879
926307,4229908,4984192,4234245,4987909,2080,3252,-3431,-7558,-1646,2611,780,7089,87,59,883
927308,4230448,4984472,4234572,4988236,1488,3499,-3289,-6909,-1931,3008,965,6546,87,59,883
928310,4230944,4984748,4234899,4988563,1689,3547,-3020,-6542,-2211,3503,1070,5851,85,55,881
929311,4231432,4985004,4235226,4988890,1669,3703,-2639,-6365,-2503,3624,920,5000,85,55,881
930312,4231992,4985296,4235553,4989217,1117,3495,-2157,-6400,-2782,3555,696,4271,108,61,884
931313,4232496,4985612,4235880,4989544,1390,3350,-1613,-6675,-3028,3825,435,3599,108,61,884
932314,4232996,4985916,4236207,4989871,1340,3437,-1094,-6894,-3209,4066,52,3844,104,73,881
933314,4233484,4986208,4236534,4990198,1345,3527,-619,-7036,-3282,4027,-542,3842,104,73,881
934315,4233920,4986520,4236861,4990525,1622,3410,-173,-7213,-3282,3964,-793,3831,105,57,887
935316,4234368,4986880,4237188,4990852,1495,3096,289,-7326,-3296,3648,-685,3927,105,57,887
936317,4234800,4987180,4237515,4991179,1549,3484,771,-7376,-3296,2964,-985,4199,91,74,885
937318,4235172,4987500,4237842,4991506,1905,3362,1282,-7337,-3298,2442,-1303,4241,91,74,885
938319,4235552,4987816,4238169,4991833,1832,3393,1792,-7213,-3235,2061,-1852,4621,77,70,888
939320,4235968,4988156,4238496,4992160,1568,3238,2217,-6686,-3023,1437,-2400,5909,77,70,888
940321,4236308,4988500,4238823,4992487,2038,3207,2552,-5784,-2701,762,-2796,6551,57,74,883
941322,4236656,4988860,4239150,4992814,1979,3092,2795,-4719,-2344,212,-2685,7159,57,74,883
942323,4236992,4989180,4239477,4993141,2051,3346,3024,-3625,-1996,-199,-2179,7327,64,76,885
943324,4237368,4989528,4239804,4993468,1780,3163,3215,-2521,-1663,-270,-1890,7241,64,76,885
944325,4237688,4989860,4240131,4993795,2133,3262,3356,-1386,-1294,-319,-1779,7066,76,79,886
945326,4238012,4990172,4240458,4994122,2110,3393,3463,-513,-881,-314,-1545,6495,76,79,886
946327,4238356,4990520,4240785,4994449,1978,3160,3529,146,-442,-42,-1194,5903,55,56,886
947328,4238688,4990840,4241112,4994776,2052,3339,3589,613,13,34,-660,5123,55,56,886
948329,4239024,4991124,4241439,4995103,2023,3584,3648,913,472,-32,-277,4634,66,67,882
949330,4239400,4991400,4241766,4995430,1752,3656,3660,1018,926,-36,-220,4295,66,67,882
950344,4239720,4991652,4242093,4995757,2105,3800,3627,1125,1375,117,70,4159,66,61,882
951345,4240048,4991896,4242420,4996084,2056,3800,3582,1204,1811,568,547,3753,66,61,882
952333,4240416,4992192,4242747,4996411,1788,3618,3491,1021,2192,946,817,3160,52,46,881
953347,4240712,4992416,4243074,4996738,2251,3800,3338,777,2523,1111,1050,3343,52,46,881
954348,4241020,4992620,4243401,4997065,2186,3800,3109,682,2788,932,1187,3705,68,37,879
955349,4241372,4992808,4243728,4997392,1900,3800,2784,759,2924,677,1249,4175,68,37,879
956350,4241664,4992956,4244055,4997719,2291,3800,2367,969,2976,555,1074,4952,51,33,877
957351,4241952,4993124,4244382,4998046,2333,3800,1883,1261,3006,568,953,5237,51,33,877
958352,4242280,4993300,4244709,4998373,2084,3800,1365,1554,2985,688,1160,5277,59,45,879
959353,4242548,4993464,4245036,4998700,2485,3800,853,1807,2863,545,1554,5212,59,45,879
960354,4242840,4993596,4245363,4999027,2351,3800,365,1908,2658,507,1858,5037,45,26,877
961362,4243148,4993732,4245724,4999388,2275,3800,-101,1878,2439,566,1680,4737,45,26,877
962356,4243404,4993856,4246051,4999715,2632,3800,-511,1720,2272,550,1289,4512,51,19,874
963357,4243676,4993972,4246378,5000042,2556,3800,-868,1554,2162,367,760,4422,51,19,874
964358,4243964,4994072,4246705,5000369,2474,3800,-1188,1211,2109,183,30,3989,65,19,877
965359,4244256,4994160,4247032,5000696,2464,3800,-1448,752,2100,115,-456,3753,65,19,877
966360,4244484,4994244,4247359,5001023,2909,3800,-1640,165,2103,244,-512,3432,42,15,875
967361,4244708,4994340,4247686,5001350,2979,3800,-1773,-537,2125,390,-522,3278,42,15,875
968362,4244940,4994448,4248013,5001677,2972,3800,-1835,-1291,2183,567,-376,3247,37,17,875
969363,4245164,4994524,4248340,5002004,3067,3800,-1839,-1988,2234,748,28,3448,37,17,875
970364,4245404,4994584,4248667,5002331,3006,3800,-1796,-2569,2225,884,546,3758,45,12,871
971365,4245600,4994652,4248994,5002658,3340,3800,-1671,-3114,2170,1039,892,3869,45,12,871
972366,4245768,4994712,4249321,5002985,3585,3800,-1505,-3520,2114,1004,817,4539,54,10,869
973367,4245920,4994776,4249648,5003312,3763,3800,-1339,-3728,2103,850,600,5587,54,10,869
974381,4246068,4994832,4249975,5003639,3800,3800,-1176,-3666,2110,964,554,6271,22,6,866
975382,4246216,4994876,4250302,5003966,3800,3800,-999,-3482,2067,1219,722,6397,22,6,866
976383,4246396,4994936,4250629,5004293,3800,3800,-794,-3329,1934,1595,1009,6141,24,21,865
977371,4246600,4994996,4250956,5004620,3717,3800,-565,-3160,1747,1930,937,6307,24,21,865
978372,4246820,4995076,4251283,5004947,3665,3800,-324,-2844,1570,1904,649,6696,53,25,865
979386,4247012,4995152,4251610,5005274,3800,3800,-100,-2424,1467,1719,-107,7170,53,25,865
980387,4247224,4995228,4251937,5005601,3800,3800,114,-1827,1417,1237,-681,7421,38,10,866
981375,4247452,4995308,4252264,5005928,3770,3800,338,-1281,1336,676,-763,7299,38,10,866
982376,4247688,4995404,4252591,5006255,3761,3800,586,-681,1153,708,-144,7145,40,16,863
983377,4247984,4995520,4252918,5006582,3401,3800,926,-406,871,1195,938,5604,40,16,863
984378,4248340,4995600,4253245,5006909,3014,3800,1339,-407,548,1866,1416,4892,50,18,866
985379,4248680,4995716,4253572,5007236,3109,3800,1712,-319,271,1829,1047,5315,50,18,866
986380,4249016,4995844,4253899,5007563,3131,3800,1986,-4,171,1034,-178,5998,66,25,870
987381,4249416,4995956,4254226,5007890,2700,3800,2170,457,202,711,-603,6093,66,25,870
988382,4249772,4996088,4254553,5008217,2964,3800,2347,890,231,1000,-278,5529,87,42,872
989383,4250136,4996280,4254880,5008544,2898,3800,2552,1182,227,1557,58,4748,87,42,872
990384,4250544,4996548,4255207,5008871,2589,3800,2824,1150,188,1667,567,3671,82,42,874
991385,4250932,4996816,4255534,5009198,2688,3800,3110,987,119,1158,662,3701,82,42,874
992386,4251336,4997124,4255861,5009525,2554,3800,3349,1074,66,773,449,4304,86,57,875
993387,4251772,4997460,4256188,5009852,2307,3800,3566,1303,77,1060,30,3844,86,57,875
994388,4252224,4997880,4256515,5010179,2153,3800,3742,1514,130,1286,-530,3822,93,75,876
995389,4252628,4998344,4256842,5010506,2420,3800,3854,1771,204,1268,-1189,3934,93,75,876
996390,4253104,4998860,4257169,5010833,1906,3800,3874,2191,266,1413,-2281,4333,76,90,879
997391,4253568,4999428,4257496,5011160,1922,3800,3893,2643,243,1587,-2308,3614,76,90,879
998392,4253972,4999948,4257823,5011487,2263,3800,3922,2935,164,975,-2387,3283,82,110,879
999393,4254416,5000528,4258150,5011814,1962,3800,3925,3383,61,328,-2595,3975,82,110,879
1000394,4254836,5001156,4258477,5012141,2073,3800,3960,3834,-19,486,-2337,3527,78,121,883
1001395,4255236,5001816,4258804,5012468,2165,3800,4002,4161,-46,949,-2365,2974,78,121,883
1002396,4255592,5002476,4259131,5012795,2429,3800,4027,4602,-19,792,-2951,3457,76,121,883
1003384,4255976,5003176,4259458,5013122,2230,3696,3995,5073,-27,668,-2784,3452,76,121,883
1004385,4256404,5003924,4259785,5013449,1910,3213,3943,5516,-93,1182,-2232,3388,86,141,884
1005386,4256836,5004716,4260112,5013776,1840,2736,3895,5889,-213,1590,-1853,2663,86,141,884
1006387,4257264,5005532,4260439,5014103,1822,2372,3914,6131,-398,1687,-1602,1957,76,161,884
1007388,4257660,5006500,4260766,5014430,1991,1142,3933,6161,-604,1519,-1750,1696,76,161,884
1008389,4258028,5007288,4261093,5014757,2149,2067,3901,6287,-814,1567,-1682,1949,80,173,892
1009390,4258420,5008148,4261420,5015084,1972,1384,3825,6440,-1083,1737,-1538,1587,80,173,892
1010392,4258784,5009044,4261747,5015411,2131,909,3774,6499,-1488,1781,-1192,1229,88,180,897
1011401,4259144,5009868,4262108,5015772,2157,1158,3711,6585,-2478,1775,-997,1545,88,180,897
1012393,4259580,5010816,4262435,5016099,1634,111,3660,6833,-2878,2001,-1505,1716,78,157,896
1013394,4259984,5011536,4262762,5016426,1801,1364,3655,7131,-3216,1967,-2271,1480,78,157,896
1014395,4260400,5012316,4263089,5016753,1687,791,3760,7226,-3545,1690,-2922,792,77,144,896
1015396,4260860,5013032,4263416,5017080,1355,1020,3948,7180,-3879,1691,-3170,365,77,144,896
1016397,4261220,5013744,4263743,5017407,1965,877,4097,7079,-4172,1877,-3487,350,76,130,896
1017398,4261648,5014296,4264070,5017734,1497,1779,4142,7175,-4336,2166,-3676,1103,76,130,896
1018399,4262096,5014968,4264397,5018061,1319,879,4156,7378,-4432,2235,-3297,1033,78,128,900
1019400,4262504,5015528,4264724,5018388,1534,1476,4193,7489,-4583,2453,-2486,427,78,128,900
1020401,4262880,5016180,4265051,5018715,1713,760,4323,7379,-4820,2416,-1996,-360,85,129,898
1021402,4263264,5016736,4265378,5019042,1638,1259,4490,7092,-5042,2303,-1901,-587,85,129,898
1022403,4263680,5017224,4265705,5019369,1399,1614,4614,6802,-5175,2451,-1851,-490,86,104,898
1023404,4264084,5017804,4266032,5019696,1441,928,4660,6678,-5183,2519,-1591,-123,86,104,898
1024405,4264500,5018224,4266359,5020023,1327,1887,4711,6674,-5118,2342,-1523,-75,74,110,898
1025406,4264928,5018728,4266686,5020350,1208,1285,4798,6842,-5044,2244,-1116,88,74,110,898
1026407,4265328,5019132,4267013,5020677,1351,1876,4888,7059,-5011,1895,-468,104,64,82,900
1027409,4265760,5019512,4267340,5021004,1106,2003,4991,7266,-5097,1358,-16,-236,64,82,900
1028409,4266164,5019912,4267667,5021331,1247,1847,5092,7372,-5311,955,393,-512,76,78,898
1029410,4266584,5020332,4267994,5021658,1106,1681,5119,7525,-5577,812,498,-124,76,78,898
1030411,4266940,5020684,4268321,5021985,1494,2095,5041,7890,-5835,703,478,128,67,69,896
1031413,4267388,5020984,4268648,5022312,866,2432,4883,8107,-6131,508,925,-535,67,69,896
1032413,4267776,5021300,4268975,5022639,1214,2338,4687,8131,-6509,417,1316,-1009,80,69,899
1033415,4268148,5021624,4269302,5022966,1295,2289,4447,8050,-6927,177,1585,-1256,80,69,899
1034415,4268516,5021968,4269629,5023293,1302,2157,4190,7815,-7310,-46,1254,-1644,69,52,895
1035417,4268904,5022240,4269956,5023620,1151,2631,3903,7455,-7565,139,858,-1994,69,52,895
1036417,4269260,5022480,4270283,5023947,1338,2870,3614,6858,-7669,665,934,-2936,76,70,894
1037418,4269648,5022812,4270610,5024274,1111,2293,3316,5759,-7678,1234,1209,-4027,76,70,894
1038419,4270028,5023132,4270937,5024601,1138,2371,2976,4377,-7596,1389,1165,-4595,68,61,891
1039421,4270368,5023432,4271264,5024928,1382,2508,2579,2891,-7376,1370,1168,-4567,68,61,891
1040421,4270696,5023744,4271591,5025255,1458,2441,2119,1454,-7054,1422,1552,-4244,74,60,894
1041422,4271080,5024036,4271918,5025582,1083,2581,1613,116,-6643,1212,1969,-3942,74,60,894
1042423,4271408,5024344,4272245,5025909,1432,2489,1016,-938,-6154,814,2011,-2999,67,65,892
1043425,4271728,5024668,4272572,5026236,1485,2392,317,-1724,-5614,254,2075,-2118,67,65,892
1044426,4272084,5024988,4272899,5026563,1248,2420,-462,-2317,-5076,-104,2586,-1743,55,80,893
1045426,4272376,5025336,4273226,5026890,1663,2235,-1926,-1796,-4562,192,3023,3007,55,80,893
1046427,4272640,5025668,4273553,5027217,1867,2334,-3990,-435,-4000,-115,2021,3700,72,61,893
1047429,4272952,5025988,4273880,5027544,1573,2412,-5978,418,-3583,367,4825,2194,72,61,893
1048429,4273248,5026280,4274207,5027871,1687,2603,-7897,1350,-3472,515,7268,3954,48,55,893
1049430,4273508,5026568,4274534,5028198,1941,2645,-9703,1618,-3453,0,6151,1476,48,55,893
1050431,4273768,5026860,4274861,5028525,1971,2636,-11184,1077,-3408,-377,4420,-1132,47,62,890
1051432,4274008,5027188,4275188,5028852,2134,2411,-12146,-523,-3270,-514,3401,-3739,47,62,890
1052433,4274268,5027468,4275515,5029179,2039,2731,-12833,-2538,-3012,-40,2437,-3865,56,57,889
1053434,4274512,5027736,4275842,5029506,2176,2833,-13387,-4626,-2704,-107,1034,-3857,56,57,889
1054435,4274788,5028024,4276169,5029833,1998,2725,-13999,-6210,-2339,-50,-370,-1694,42,60,889
1055437,4275036,5028300,4276496,5030160,2208,2823,-14756,-7004,-1888,277,-2399,698,42,60,889
1056437,4275268,5028616,4276823,5030487,2351,2579,-15452,-7449,-1219,249,-4373,1933,53,47,886
1057438,4275468,5028876,4277150,5030814,2607,2958,-15903,-7919,-390,23,-5217,2132,53,47,886
1058439,4275668,5029136,4277477,5031141,2662,2988,-16040,-8684,355,-181,-4762,1648,54,53,884
1059441,4275828,5029416,4277804,5031468,2987,2884,-15872,-9750,893,-615,-4481,1431,54,53,884
1060442,4276048,5029764,4278131,5031795,2659,2450,-15510,-10804,1181,-1224,-4224,2053,48,67,882
1061449,4276308,5030116,4278492,5032156,2453,2430,-13255,-10128,1522,452,-4616,8232,48,67,882
1062443,4276564,5030456,4278819,5032483,2510,2499,-75,6057,644,9308,-7424,32767,53,67,879
1063445,4276852,5030824,4279146,5032810,2328,2306,15342,22789,-107,1233,-9236,32767,53,67,879
1064445,4277080,5031204,4279473,5033137,2747,2209,18840,26288,-103,285,-2570,6155,51,74,887
1065447,4277332,5031664,4279800,5033464,2630,1651,15833,22253,110,1106,-2015,-1291,51,74,887
1066447,4277592,5031924,4280127,5033791,2611,2930,12435,17128,112,2013,-1747,-3258,63,64,889
1067448,4277848,5032168,4280454,5034118,2667,3067,10322,15385,86,1783,614,1896,63,64,889
1068449,4278096,5032444,4280781,5034445,2752,2890,8424,14881,-270,850,22,567,58,48,890
1069450,4278348,5032776,4281108,5034772,2760,2539,6776,13651,-902,542,-1782,-3250,58,48,890
1070451,4278584,5033216,4281435,5035099,2901,1814,5523,10449,-1196,-515,-2755,-6970,59,78,881
1071452,4278824,5033756,4281762,5035426,2915,1095,4724,6392,-1514,-426,-845,-8431,59,78,881
1072453,4279104,5034176,4282089,5035753,2686,1806,4340,2100,-2285,-818,1208,-9426,44,97,885
1073454,4279340,5034588,4282416,5036080,3001,1818,4150,-1459,-3001,-1535,261,-7009,44,97,885
1074455,4279584,5034976,4282743,5036407,2989,1941,3777,-3600,-3235,-1268,-2213,-3548,65,102,890
1075456,4279856,5035452,4283070,5036734,2839,1326,3185,-4902,-2962,-1961,-3933,-1260,65,102,890
1076457,4280096,5035864,4283397,5037061,3077,1690,2480,-5089,-2520,-3368,-3655,1879,64,106,887
1077458,4280348,5036376,4283724,5037388,3036,983,1888,-4891,-2319,-4475,-2585,2256,64,106,887
1078459,4280592,5036856,4284051,5037715,3123,1116,1635,-4638,-2342,-5742,-2324,2350,44,102,890
1079460,4280832,5037264,4284378,5038042,3187,1530,1565,-4273,-2448,-6914,-2175,2915,44,102,890
1080461,4281080,5037776,4284705,5038369,3173,799,1491,-3688,-2643,-7693,-1939,3076,55,96,890
1081462,4281284,5038268,4285032,5038696,3502,853,1380,-2924,-2816,-8460,-1882,3653,55,96,890
1082463,4281484,5038732,4285359,5039023,3583,967,1351,-1861,-2879,-8832,-1832,4064,50,102,885
1083464,4281696,5039300,4285686,5039350,3560,211,1371,-803,-2835,-8700,-1803,3716,50,102,885
1084478,4281876,5039796,4286013,5039677,3800,587,1459,267,-2691,-8464,-1550,3588,36,98,885
1085466,4282088,5040264,4286340,5040004,3676,700,1533,1314,-2461,-8094,-1294,3392,36,98,885
1086467,4282292,5040720,4286667,5040331,3781,719,1437,2373,-2175,-7237,-713,3829,47,94,885
1087468,4282512,5041176,4286994,5040658,3729,662,1127,3722,-1771,-5951,-376,5079,47,94,885
1088469,4282732,5041652,4287321,5040985,3777,470,962,4790,-1192,-5083,-1257,3014,56,105,886
1089483,4282952,5042136,4287648,5041312,3800,351,1049,5023,-572,-4488,-1205,617,56,105,886
1090484,4283164,5042516,4287975,5041639,3800,978,1281,4549,-43,-3571,-191,-714,42,93,885
1091485,4283368,5042816,4288302,5041966,3800,1490,1489,3754,396,-2470,349,-1323,42,93,885
1092486,4283552,5043096,4288629,5042293,3800,1636,1663,2926,829,-1567,622,-1204,34,64,885
1093487,4283708,5043332,4288956,5042620,3800,1951,1789,2368,1247,-722,1343,-465,34,64,885
1094488,4283880,5043584,4289283,5042947,3800,1884,1817,2113,1519,-120,2327,433,34,60,880
1095489,4284048,5043768,4289610,5043274,3800,2370,1816,2032,1605,268,3071,755,34,60,880
1096490,4284232,5043912,4289937,5043601,3800,2701,1839,1812,1446,354,3692,333,42,45,878
1097491,4284468,5044020,4290264,5043928,3800,3022,1875,1455,1016,310,4569,298,42,45,878
1098492,4284716,5044132,4290591,5044255,3800,3092,1844,1069,370,409,5152,549,40,22,876
1099493,4284984,5044252,4290918,5044582,3800,3133,1675,717,-355,878,4283,799,40,22,876
1100494,4285264,5044372,4291245,5044909,3800,3223,1344,483,-1058,1071,3119,1327,62,21,872
1101482,4285596,5044488,4291572,5045236,3700,3341,888,377,-1765,776,3314,1435,62,21,872
1102496,4285896,5044620,4291899,5045563,3800,3328,387,326,-2493,477,4086,1629,70,37,872
1103497,4286208,5044760,4292226,5045890,3800,3360,-118,162,-3200,704,4126,1407,70,37,872
1104498,4286524,5044900,4292553,5046217,3800,3442,-639,-103,-3882,1263,3543,1166,73,38,871
1105486,4286848,5045084,4292880,5046544,3779,3230,-1151,-497,-4522,1346,2587,958,73,38,871
1106500,4287116,5045220,4293207,5046871,3800,3614,-1591,-1011,-5103,1354,2105,821,70,33,870
1107488,4287448,5045372,4293534,5047198,3755,3592,-1972,-1583,-5585,1730,1771,616,70,33,870
1108490,4287780,5045560,4293861,5047525,3754,3428,-2316,-2275,-5916,2217,1623,144,64,38,871
1109490,4288108,5045784,4294188,5047852,3779,3249,-2650,-3159,-6123,2507,1887,-199,64,38,871
1110491,4288472,5045984,4294515,5048179,3540,3455,-2934,-4187,-6265,2434,2002,-423,76,50,869
1111500,4288816,5046216,4294876,5048540,3674,3312,-3172,-5198,-6336,2296,1678,-163,76,50,869
1112493,4289164,5046432,4295203,5048867,3640,3462,-3352,-6031,-6281,2282,1142,296,65,46,873
1113494,4289548,5046608,4295530,5049194,3391,3778,-3541,-6659,-6088,2045,650,902,65,46,873
1114495,4289896,5046848,4295857,5049521,3608,3417,-3768,-7018,-5783,1823,253,1799,61,52,873
1115496,4290232,5047072,4296184,5049848,3680,3562,-3972,-7265,-5431,1658,70,2042,61,52,873
1116497,4290600,5047288,4296511,5050175,3463,3662,-4094,-7459,-5089,1520,48,2261,77,49,870
1117498,4290940,5047500,4296838,5050502,3634,3738,-4136,-7567,-4798,1080,171,2622,77,49,870
1118499,4291308,5047744,4297165,5050829,3442,3575,-4149,-7606,-4555,492,21,3193,60,62,871
1119500,4291664,5047972,4297492,5051156,3506,3719,-4190,-7280,-4314,42,-451,4501,60,62,871
1120501,4291984,5048200,4297819,5051483,3735,3763,-4256,-6583,-4059,-404,-1184,5432,77,64,870
1121502,4292340,5048484,4298146,5051810,3498,3433,-4292,-5785,-3820,-821,-1858,5527,77,64,870
1122503,4292692,5048780,4298473,5052137,3513,3372,-4256,-5049,-3626,-1246,-2092,5608,73,54,870
1123504,4293020,5049044,4298800,5052464,3664,3600,-4170,-4389,-3494,-1328,-1974,5743,73,54,870
1124505,4293344,5049308,4299127,5052791,3691,3629,-4055,-3816,-3450,-1132,-1588,5712,63,52,874
1125506,4293692,5049604,4299454,5053118,3533,3443,-3875,-3310,-3451,-798,-977,5726,63,52,874
1126507,4294040,5049912,4299781,5053445,3525,3377,-3647,-2844,-3447,-398,-380,5652,72,55,870
1127521,4294344,5050260,4300108,5053772,3800,3119,-3419,-2456,-3460,-92,103,5466,72,55,870
1128522,4294648,5050528,4300435,5054099,3800,3645,-3179,-2282,-3477,189,83,4936,58,72,871
1129510,4295004,5050840,4300762,5054426,3486,3377,-2893,-2423,-3506,523,-324,4251,58,72,871
1130511,4295316,5051148,4301089,5054753,3768,3412,-2560,-2816,-3571,968,-392,3662,62,80,874
1131512,4295640,5051492,4301416,5055080,3696,3179,-954,-1522,-3733,3884,195,21163,62,80,874
1132513,4295992,5051820,4301743,5055407,3511,3280,2473,3086,-4152,7325,1633,32767,57,77,874
1133514,4296340,5052200,4302070,5055734,3528,2933,4693,4714,-4388,3072,934,6417,57,77,874
1134515,4296716,5052564,4302397,5056061,3332,3016,4965,3243,-4390,2565,1417,834,81,78,874
1135516,4297160,5052904,4302724,5056388,2857,3162,4485,777,-4360,3114,1721,93,81,78,874
1136517,4297544,5053276,4303051,5056715,3208,2943,4065,-1085,-4337,3440,1776,779,85,87,877
1137518,4297908,5053680,4303378,5057042,3317,2709,3813,-2356,-4261,3045,1604,1037,85,87,877
1138519,4298332,5054128,4303705,5057369,2902,2382,3599,-3465,-4145,3016,1161,1322,82,87,880
1139520,4298736,5054536,4304032,5057696,2994,2597,3358,-4458,-3977,2684,943,1649,82,87,880
1140521,4299096,5054948,4304359,5058023,3255,2535,3066,-5404,-3830,2060,1421,2017,83,81,881
1141522,4299472,5055356,4304686,5058350,3135,2525,2666,-6064,-3719,2275,1571,3136,83,81,881
1142523,4299868,5055728,4305013,5058677,2980,2730,2195,-6469,-3586,2101,1680,3722,73,94,883
1143524,4300216,5056124,4305340,5059004,3272,2551,1572,-6179,-3422,1762,1937,6116,73,94,883
1144525,4300604,5056552,4305667,5059331,2996,2307,506,-4895,-3109,1534,908,9444,55,72,882
1145526,4301012,5056944,4305994,5059658,2836,2504,-549,-3544,-2726,899,1552,8156,55,72,882
1146527,4301412,5057272,4306321,5059985,2855,2905,-1123,-2950,-2535,266,2868,5820,84,72,882
1147528,4301812,5057592,4306648,5060312,2824,2958,-1232,-3212,-2498,310,3299,3995,84,72,882
1148529,4302256,5057932,4306975,5060639,2498,2828,-1256,-3682,-2431,285,2971,4112,67,62,883
1149530,4302656,5058268,4307302,5060966,2742,2849,-1374,-3791,-2173,-19,2385,5237,67,62,883
1150531,4303076,5058536,4307629,5061293,2577,3301,-1609,-3448,-1720,-260,1670,6151,84,68,881
1151532,4303520,5058780,4307956,5061620,2377,3488,-1869,-2821,-1135,-498,1158,6742,84,68,881
1152533,4303896,5059060,4308283,5061947,2781,3284,-2037,-2410,-575,-721,1514,6226,72,64,883
1153534,4304324,5059336,4308610,5062274,2413,3332,-2101,-2179,-161,-762,1827,5737,72,64,883
1154535,4304772,5059568,4308937,5062601,2235,3649,-2045,-2230,136,-984,1957,4940,90,48,880
1155536,4305188,5059816,4309264,5062928,2397,3584,-1873,-2547,370,-1106,1787,4291,90,48,880
1156537,4305608,5060048,4309591,5063255,2332,3727,-1625,-2953,575,-978,1616,3985,85,43,881
1157538,4306092,5060328,4309918,5063582,1864,3448,-1334,-3393,822,-972,957,4117,85,43,881
1158540,4306476,5060616,4310245,5063909,2464,3416,-1051,-3571,1123,-1390,-106,4884,73,40,879
1159541,4306888,5060956,4310572,5064236,2252,3086,-791,-3582,1459,-1776,-701,5246,73,40,879
1160542,4307276,5061348,4310899,5064563,2377,2732,-566,-3492,1843,-2205,-1308,5849,69,71,882
1161550,4307740,5061756,4311260,5064924,1857,2613,-318,-3325,2249,-2562,-1878,6060,69,71,882
1162543,4308096,5062124,4311587,5065251,2520,2846,-14,-3103,2586,-2660,-2243,5960,87,88,885
1163545,4308464,5062560,4311914,5065578,2428,2373,364,-3084,2755,-2449,-2172,5268,87,88,885
1164545,4308856,5062992,4312241,5065905,2250,2353,873,-3333,2802,-1766,-2267,4592,80,82,889
1165546,4309232,5063472,4312568,5066232,2329,1985,1435,-3540,2854,-794,-2615,4759,80,82,889
1166548,4309620,5063984,4312895,5066559,2228,1705,1951,-3724,2965,-251,-2839,4498,77,114,889
1167549,4309980,5064476,4313222,5066886,2388,1758,2461,-4070,3095,297,-2428,4084,77,114,889
1168550,4310296,5064984,4313549,5067213,2669,1579,2918,-4250,3247,317,-3286,4823,85,95,891
1169550,4310596,5065408,4313876,5067540,2782,2061,3351,-4128,3413,210,-3954,5133,85,95,891
1170552,4310940,5065824,4314203,5067867,2499,2073,3817,-4111,3515,829,-3734,4620,57,90,890
1171553,4311212,5066332,4314530,5068194,2975,1419,4301,-4108,3558,1424,-3686,4690,57,90,890
1172554,4311452,5066740,4314857,5068521,3214,2008,4784,-3999,3554,1401,-3186,4906,68,91,887
1173554,4311748,5067128,4315184,5068848,2877,2107,5239,-3856,3515,1606,-3458,4790,68,91,887
1174556,4312028,5067584,4315511,5069175,2999,1626,5615,-3526,3442,1876,-3542,5300,47,80,888
1175557,4312320,5067992,4315838,5069502,2940,1890,5927,-2961,3333,2128,-3200,5351,47,80,888
1176558,4312660,5068388,4316165,5069829,2635,1936,6188,-2536,3105,2945,-2253,4495,75,84,886
1177559,4312964,5068876,4316492,5070156,2871,1290,6456,-2260,2797,3370,-739,4023,75,84,886
1178560,4313248,5069324,4316819,5070483,3016,1487,6679,-1893,2534,3036,-50,4557,78,89,887
1179560,4313552,5069720,4317146,5070810,2901,1782,6807,-1368,2325,3068,43,4716,78,89,887
1180561,4313808,5070192,4317473,5071137,3233,1244,6899,-752,2148,3214,432,4483,52,90,890
1181562,4314028,5070656,4317800,5071464,3506,1234,6979,-111,1949,3063,849,4277,52,90,890
1182563,4314232,5071088,4318127,5071791,3660,1387,7002,453,1699,2834,960,4063,37,89,886
1183565,4314452,5071540,4318454,5072118,3608,1208,6876,1222,1411,2345,1241,4979,37,89,886
1184566,4314704,5072036,4318781,5072445,3442,858,6558,2464,1139,2366,986,5671,32,91,885
1185566,4314980,5072440,4319108,5072772,3316,1399,6178,3536,898,3140,789,4183,32,91,885
1186568,4315300,5072904,4319435,5073099,3044,964,5861,4369,678,3221,757,3510,63,94,885
1187568,4315600,5073364,4319762,5073426,3182,931,5650,4958,526,2210,405,2805,63,94,885
1188570,4315932,5073888,4320089,5073753,2980,444,5470,5172,379,1923,330,1782,64,85,886
1189570,4316272,5074344,4320416,5074080,2926,812,5210,5549,266,2440,252,2060,64,85,886
1190572,4316604,5074844,4320743,5074407,2974,461,4875,6040,231,2895,316,1537,67,85,889
1191573,4316920,5075236,4321070,5074734,3079,1108,4507,6460,224,3038,-7,1299,67,85,889
1192574,4317264,5075704,4321397,5075061,2898,571,4185,6797,287,2377,-928,1248,71,88,890
1193575,4317636,5076108,4321724,5075388,2704,937,3984,7086,341,1882,-1098,593,71,88,890
1194576,4317984,5076592,4322051,5075715,2846,368,3907,7142,316,1994,-1258,-728,60,94,889
1195577,4318348,5076904,4322378,5076042,2729,1450,3925,6918,277,2184,-1203,-1196,60,94,889
1196578,4318672,5077196,4322705,5076369,2982,1589,3879,7025,336,2186,-1861,162,66,73,892
1197579,4319084,5077536,4323032,5076696,2395,1283,3712,7685,558,1853,-2785,1330,66,73,892
1198580,4319516,5077900,4323359,5077023,2225,1117,3286,9106,877,2116,-3287,3818,73,67,890
1199581,4319888,5078332,4323686,5077350,2582,646,2790,10528,976,2205,-2133,2663,73,67,890
1200582,4320284,5078696,4324013,5077677,2401,1055,2477,11290,754,1625,-1300,413,66,79,893
1201582,4320748,5079044,4324340,5078004,1917,1145,2255,11558,323,832,-1071,-76,66,79,893
1202583,4321188,5079348,4324667,5078331,2018,1430,1917,11760,-181,712,-1042,359,75,55,895
1203584,4321552,5079584,4324994,5078658,2477,1895,1365,12378,-683,1035,-1107,1212,75,55,895
1204585,4322012,5079916,4325321,5078985,1820,1292,735,13056,-1260,718,-182,831,74,69,895
1205586,4322504,5080220,4325648,5079312,1548,1477,46,13664,-1954,756,387,1141,74,69,895
1206587,4322904,5080512,4325975,5079639,2091,1568,-660,14064,-2744,632,807,469,87,52,890
1207589,4323356,5080776,4326302,5079966,1712,1771,-1335,14291,-3635,285,1481,21,87,52,890
1208589,4323836,5080984,4326629,5080293,1470,2172,-1949,14316,-4565,195,1888,-445,91,54,897
1209591,4324228,5081224,4326956,5080620,1992,2010,-2469,14153,-5453,94,1821,-690,91,54,897
1210591,4324636,5081476,4327283,5080947,1857,1968,-2921,13882,-6328,238,2135,-1071,69,43,895
1211602,4325080,5081708,4327644,5081308,1596,2150,-3415,13418,-7185,473,2016,-1288,69,43,895
1212593,4325464,5081920,4327971,5081635,1946,2325,-3920,12937,-7940,102,1259,-661,66,46,891
1213594,4325860,5082136,4328298,5081962,1842,2349,-4385,12467,-8551,-183,502,-790,66,46,891
1214595,4326248,5082316,4328625,5082289,1865,2639,-4776,11859,-9060,-343,-406,-1227,79,39,891
1215597,4326596,5082488,4328952,5082616,2107,2757,-5048,10893,-9488,-689,-1054,-2062,79,39,891
1216598,4326944,5082724,4329279,5082943,2098,2397,-5175,9516,-9851,-1040,-1683,-2792,79,56,889
1217598,4327328,5082944,4329606,5083270,1849,2544,-5202,7914,-10099,-1379,-2417,-2947,79,56,889
1218599,4327676,5083160,4329933,5083597,2064,2618,-5167,6422,-10185,-1800,-3064,-2367,84,55,886
1219600,4328020,5083380,4330260,5083924,2083,2640,-5087,5079,-10101,-2209,-3790,-1984,84,55,886
1220601,4328416,5083620,4330587,5084251,1728,2553,-4979,3871,-9846,-2689,-4387,-1281,57,54,889
1221602,4328764,5083992,4330914,5084578,2018,1708,-4793,2795,-9449,-3168,-4483,-730,57,54,889
1222603,4329144,5084304,4331241,5084905,1796,2090,-4545,1834,-8973,-3568,-4424,-140,75,63,888
1223605,4329504,5084612,4331568,5085232,1907,2124,-4267,1013,-8470,-4104,-3751,491,75,63,888
1224606,4329944,5084912,4331895,5085559,1358,2186,-3962,252,-7952,-4583,-3039,908,80,68,893
1225607,4330348,5085132,4332222,5085886,1549,2733,-3672,-415,-7410,-4789,-2646,1445,80,68,893
1226607,4330740,5085416,4332549,5086213,1595,2352,-3421,-898,-6857,-5016,-2166,2138,84,49,891
1227609,4331196,5085696,4332876,5086540,1140,2397,-3230,-1177,-6313,-5189,-1864,3113,84,49,891
1228609,4331608,5085964,4333203,5086867,1377,2498,-3127,-1132,-5838,-5261,-1335,4387,73,53,890
1229610,4331972,5086236,4333530,5087194,1661,2497,-3011,-991,-5448,-5215,-673,4439,73,53,890
1230611,4332376,5086560,4333857,5087521,1378,2175,-2803,-1050,-5133,-4739,-233,4083,90,63,893
1231613,4332756,5086932,4334184,5087848,1505,1855,-2553,-1364,-4864,-3964,258,3944,90,63,893
1232614,4333120,5087332,4334511,5088175,1589,1648,-2313,-1845,-4571,-3020,309,3484,67,69,891
1233615,4333508,5087648,4334838,5088502,1412,2178,-2111,-2604,-4191,-1776,-88,2949,67,69,891
1234615,4333860,5087912,4335165,5088829,1627,2530,-1947,-3566,-3762,-425,361,2504,72,62,895
1235617,4334204,5088236,4335492,5089156,1670,2157,-1808,-4671,-3339,554,855,2311,72,62,895
1236617,4334648,5088580,4335819,5089483,993,2025,-1709,-5837,-2990,1120,1418,2250,66,69,893
1237618,4335032,5088960,4336146,5089810,1343,1777,-1651,-7042,-2731,1566,1544,2476,66,69,893
1238619,4335324,5089320,4336473,5090137,1934,1888,-1592,-8200,-2522,2186,1489,2551,69,82,892
1239621,4335688,5089728,4336800,5090464,1468,1552,-1499,-9313,-2323,2827,1354,2572,69,82,892
1240622,4336048,5090080,4337127,5090791,1479,1891,-1426,-10430,-2124,3330,1354,2737,55,72,897
1241623,4336396,5090448,4337454,5091118,1544,1773,-1437,-11434,-1965,3911,1373,3119,55,72,897
1242623,4336708,5090836,4337781,5091445,1776,1621,-1558,-12237,-1881,4616,1478,3701,58,74,897
1243625,4337112,5091260,4338108,5091772,1168,1355,-1742,-12926,-1909,5082,1695,3889,58,74,897
1244626,4337508,5091600,4338435,5092099,1188,1874,-2178,-13018,-2004,5333,875,6355,73,71,895
1245626,4337880,5091904,4338762,5092426,1318,2109,-3516,-11648,-1940,4909,-1791,11281,73,71,895
1246627,4338208,5092208,4339089,5092753,1593,2119,-4623,-10533,-1794,4371,-1187,7134,75,72,898
1247628,4338544,5092504,4339416,5093080,1539,2183,-4422,-9105,-1905,5956,829,15706,75,72,898
1248629,4338896,5092844,4339743,5093407,1428,1902,-649,-1288,-2708,13336,1207,32767,58,71,894
1249630,4339244,5093124,4340070,5093734,1444,2298,2752,5841,-3527,8176,252,32767,58,71,894
1250631,4339544,5093428,4340397,5094061,1756,2158,2520,7381,-3927,4258,1530,5628,68,59,893
1251632,4339880,5093700,4340724,5094388,1527,2382,658,5391,-4169,4290,1699,1736,68,59,893
1252633,4340244,5093972,4341051,5094715,1336,2407,-776,2600,-4367,4798,632,-975,51,52,893
1253634,4340568,5094252,4341378,5095042,1587,2378,-1604,466,-4420,4738,542,-1227,51,52,893
1254635,4340840,5094504,4341705,5095369,1937,2586,-2237,-1312,-4392,4551,719,-1575,71,49,892
1255636,4341100,5094752,4342032,5095696,2042,2645,-2905,-2819,-4398,4632,700,-684,71,49,892
1256638,4341280,5095032,4342359,5096023,2607,2466,-3381,-4341,-4314,4163,-144,-478,48,50,892
1257638,4341508,5095328,4342686,5096350,2350,2380,-3566,-5857,-4122,3997,-443,-477,48,50,892
1258639,4341808,5095612,4343013,5096677,1912,2475,-3508,-7359,-3909,3607,-604,-817,62,63,887
1259640,4342072,5095908,4343340,5097004,2165,2413,-3361,-8601,-3577,2701,-1401,697,62,63,887
1260641,4342324,5096208,4343667,5097331,2274,2400,-3378,-8900,-3057,1795,-3340,4003,67,54,886
1261649,4342572,5096540,4344028,5097692,2348,2213,-3308,-8117,-2435,826,-4097,7625,67,54,886
1262643,4342824,5096860,4344355,5098019,2356,2291,-1648,-3852,-1495,-2454,-7259,32767,63,74,889
1263644,4343068,5097268,4344682,5098346,2443,1706,623,1032,-896,-3501,-4656,26014,63,74,889
1264646,4343300,5097512,4345009,5098673,2561,2768,1590,2700,-971,-2621,-1546,5538,56,75,889
1265646,4343540,5097772,4345336,5099000,2549,2697,1819,2457,-1130,-2894,-2905,4218,56,75,889
1266648,4343768,5098040,4345663,5099327,2667,2673,2095,2074,-1014,-2949,-4750,3655,46,58,890
1267648,4343996,5098348,4345990,5099654,2712,2432,2507,2532,-551,-3341,-6185,5436,46,58,890
1268649,4344264,5098732,4346317,5099981,2488,1932,2890,3753,63,-3379,-5780,6387,53,61,884
1269650,4344484,5099184,4346644,5100308,2836,1452,3248,5044,571,-3258,-4928,5703,53,61,884
1270651,4344744,5099480,4346971,5100635,2615,2441,3525,6163,991,-3468,-5185,5831,61,74,884
1271652,4344996,5099928,4347298,5100962,2698,1438,3746,7120,1396,-3211,-5345,5580,61,74,884
1272654,4345256,5100320,4347625,5101289,2679,1760,3927,7997,1742,-2516,-4882,5232,61,76,889
1273655,4345512,5100776,4347952,5101616,2735,1304,4087,8751,2026,-1951,-4360,4719,61,76,889
1274655,4345788,5101168,4348279,5101943,2633,1675,4274,9311,2241,-1238,-4191,4055,53,86,890
1275656,4346044,5101548,4348606,5102270,2789,1727,4418,9766,2399,-679,-3865,3946,53,86,890
1276657,4346308,5102024,4348933,5102597,2768,1061,4535,10134,2530,-393,-3446,3616,48,90,891
1277658,4346600,5102468,4349260,5102924,2608,1210,4631,10343,2620,223,-2767,2976,48,90,891
1278659,4346852,5102864,4349587,5103251,2892,1480,4642,10378,2638,755,-2053,2565,66,93,889
1279660,4347096,5103348,4349914,5103578,2979,862,4592,10268,2608,1110,-1580,2125,66,93,889
1280662,4347332,5103824,4350241,5103905,3070,846,4540,9970,2514,1612,-924,1500,54,99,891
1281662,4347592,5104316,4350568,5104232,2949,674,4485,9490,2365,2010,-284,1195,54,99,891
1282663,4347868,5104856,4350895,5104559,2873,280,4385,9000,2188,2360,224,1325,44,92,889
1283664,4348144,5105308,4351222,5104886,2895,775,4236,8458,1995,2759,305,1258,44,92,889
1284665,4348460,5105720,4351549,5105213,2651,987,4078,7868,1808,2922,-122,1362,62,85,891
1285666,4348724,5106196,4351876,5105540,3005,521,3924,7405,1628,2793,-980,1621,62,85,891
1286667,4348980,5106656,4352203,5105867,3086,563,3783,7001,1412,2523,-718,1768,63,98,892
1287668,4349244,5107116,4352530,5106194,3065,504,3589,6674,1092,2111,357,2218,63,98,892
1288670,4349476,5107560,4352857,5106521,3306,553,3300,6518,697,1639,880,2712,46,102,892
1289671,4349712,5107980,4353184,5106848,3322,662,2996,6425,300,1271,870,2644,46,102,892
1290671,4349936,5108328,4353511,5107175,3444,1102,2776,6193,-32,1017,67,2591,48,83,891
1291673,4350148,5108676,4353838,5107502,3569,1093,2641,6080,-292,681,-331,3187,48,83,891
1292673,4350352,5109012,4354165,5107829,3674,1164,2522,6146,-490,313,-594,3529,52,72,887
1293687,4350536,5109252,4354492,5108156,3800,1802,2449,6224,-672,-312,619,3218,52,72,887
1294688,4350716,5109464,4354819,5108483,3800,2027,2398,6203,-890,-873,1844,3162,25,46,885
1295689,4350924,5109644,4355146,5108810,3800,2291,2328,6146,-1108,-1227,1477,3235,25,46,885
1296677,4351224,5109796,4355473,5109137,3269,2543,2239,6066,-1286,-1580,1132,2957,48,43,879
1297679,4351524,5109912,4355800,5109464,3282,2861,2180,5844,-1450,-2117,1385,2502,48,43,879
1298679,4351832,5110044,4356127,5109791,3241,2846,2134,5543,-1603,-2708,1220,2430,47,22,877
1299681,4352160,5110160,4356454,5110118,3117,3039,2041,5288,-1735,-3437,313,2599,47,22,877
1300681,4352544,5110256,4356781,5110445,2741,3266,1893,5041,-1844,-4287,-500,2610,65,24,878
1301682,4352892,5110404,4357108,5110772,2958,3019,1734,5016,-2007,-5244,-438,3114,65,24,878
1302683,4353236,5110520,4357435,5111099,2977,3312,1551,5041,-2285,-6095,326,3026,57,22,877
1303685,4353580,5110668,4357762,5111426,2970,3191,1336,4913,-2709,-6105,1376,2481,57,22,877
1304685,4353908,5110796,4358089,5111753,3071,3403,1108,4516,-3234,-6028,2556,1669,53,34,877
1305687,4354216,5110948,4358416,5112080,3204,3330,863,3924,-3765,-6154,3267,1523,53,34,877
1306687,4354536,5111108,4358743,5112407,3133,3354,591,3286,-4171,-5971,2993,1461,55,31,878
1307689,4354832,5111320,4359070,5112734,3298,3080,278,2547,-4367,-5479,2464,1276,55,31,878
1308689,4355100,5111548,4359397,5113061,3500,3023,-36,1676,-4407,-5109,2197,562,58,51,875
1309691,4355404,5111768,4359724,5113388,3286,3121,-233,348,-4392,-4948,2146,-790,58,51,875
1310691,4355664,5111984,4360051,5113715,3591,3195,-312,-1256,-4346,-4646,1948,-1323,43,56,876
1311700,4355920,5112200,4360412,5114076,3663,3259,-343,-3073,-4263,-4214,1876,-1766,43,56,876
1312693,4356208,5112460,4360739,5114403,3481,3014,-367,-4973,-4146,-3745,1574,-2151,59,61,876
1313694,4356480,5112708,4361066,5114730,3606,3124,-405,-6887,-3967,-3218,677,-1954,59,61,876
1314695,4356776,5112992,4361393,5115057,3470,2918,-481,-8638,-3674,-2512,-399,-1191,47,63,872
1315696,4357084,5113260,4361720,5115384,3405,3045,-554,-10162,-3273,-1774,-1021,-677,47,63,872
1316697,4357360,5113516,4362047,5115711,3628,3151,-607,-11564,-2811,-1275,-1526,-419,67,54,874
1317698,4357640,5113768,4362374,5116038,3625,3209,-683,-12823,-2354,-1014,-1633,186,67,54,874
1318699,4357952,5114076,4362701,5116365,3431,2868,-784,-13906,-1989,-757,-1370,863,53,68,876
1319701,4358248,5114408,4363028,5116692,3546,2716,-863,-14748,-1771,-433,-952,1574,53,68,876
1320701,4358520,5114704,4363355,5117019,3721,2956,-882,-15289,-1701,-140,-627,2570,67,80,874
1321703,4358848,5115036,4363682,5117346,3372,2729,-946,-15317,-1773,287,130,4503,67,80,874
1322704,4359216,5115372,4364009,5117673,3105,2701,-1124,-14739,-1895,1041,364,6403,57,61,878
1323705,4359540,5115664,4364336,5118000,3382,2991,-1351,-13697,-1994,1581,373,7485,57,61,878
1324705,4359860,5115948,4364663,5118327,3411,3061,-1562,-12437,-2126,1915,706,8186,61,70,878
1325707,4360228,5116260,4364990,5118654,3094,2893,-1771,-11075,-2324,2381,739,8965,61,70,878
1326707,4360596,5116572,4365317,5118981,3077,2899,-1914,-9708,-2542,2933,869,8995,81,75,877
1327709,4360972,5116892,4365644,5119308,3007,2853,-1965,-8483,-2764,3687,1675,8310,81,75,877
1328710,4361360,5117192,4365971,5119635,2906,2990,-1941,-7505,-3017,4380,2409,8034,61,78,880
1329711,4361712,5117516,4366298,5119962,3120,2842,-1313,-5767,-3354,6143,2707,15760,61,78,880
1330712,4362096,5117888,4366625,5120289,2896,2523,113,-2935,-3885,7844,3435,23503,83,77,881
