"Data file recorded 2014/9/24  17:59:8"
"%  Right Stride Frequency         = 3.0"
"%  Left Stride Frequency         = 3.0"
"%  Phase (Fractional)         = 32768.0"
"%  Experiment.py "
"%  Motor Gains    = [1800, 200, 100, 0, 0, 1800, 200, 100, 0, 0]
"% Columns: "
"% time | Right Leg Pos | Left Leg Pos | Commanded Right Leg Pos | Commanded Left Leg Pos | DCR | DCL | GyroX | GryoY | GryoZ | AX | AY | AZ | RBEMF | LBEMF | VBatt "
10950,1813884,1831324,1822602,1855370,3800,3800,-139,-702,316,226,-329,4092,0,6,924
11944,1813880,1831336,1822799,1855567,3800,3800,-140,-701,315,205,-336,4102,0,6,924
12945,1813968,1831336,1822996,1855764,3800,3800,-134,-690,312,205,-350,4166,20,14,924
13947,1814116,1831384,1823193,1855961,3800,3800,-117,-682,308,227,-320,4286,20,14,924
14935,1814424,1831576,1823390,1856158,3252,3800,-110,-695,297,163,-303,3861,41,40,880
15936,1814764,1831788,1823587,1856355,2991,3800,-130,-753,287,-165,-569,3803,41,40,880
16937,1815192,1831984,1823784,1856552,2341,3800,-184,-714,278,-725,-842,4202,79,39,882
17938,1815664,1832228,1823981,1856749,1946,3800,-235,-622,271,-1305,-1101,4231,79,39,882
18939,1816112,1832464,1824178,1856946,1988,3800,-260,-521,295,-1755,-1114,4239,78,39,888
19940,1816556,1832696,1824375,1857143,1906,3800,-252,-490,343,-2307,-1073,4147,78,39,888
20941,1817056,1832952,1824572,1857340,1424,3800,-230,-572,410,-2803,-1180,3999,98,62,892
21942,1817492,1833192,1824769,1857537,1720,3800,-223,-673,516,-3161,-1598,4028,98,62,892
22943,1817896,1833436,1824966,1857734,1831,3800,-238,-942,666,-3250,-1746,3684,99,60,894
23944,1818360,1833668,1825163,1857931,1340,3800,-224,-1293,841,-3145,-1575,3448,99,60,894
24945,1818748,1833900,1825360,1858128,1732,3800,-221,-1661,1062,-3174,-1594,3659,97,45,894
25946,1819172,1834092,1825557,1858325,1409,3800,-232,-1918,1323,-3100,-1509,4086,97,45,894
26947,1819568,1834280,1825754,1858522,1498,3800,-267,-2240,1585,-2961,-1361,3988,80,50,895
27948,1819900,1834456,1825951,1858719,1840,3800,-300,-2534,1834,-2853,-1507,4265,80,50,895
28949,1820236,1834648,1826148,1858916,1755,3800,-312,-2868,2040,-2494,-1249,4443,66,30,896
29950,1820580,1834808,1826345,1859113,1641,3800,-98,-2898,2210,-1364,-1196,8029,66,30,896
30951,1820856,1834976,1826542,1859310,2032,3800,293,-2500,2352,-620,-1148,10200,63,45,894
31951,1821100,1835108,1826739,1859507,2214,3800,499,-2542,2507,-677,-831,5066,63,45,894
32953,1821376,1835232,1826936,1859704,1980,3800,485,-3162,2642,-21,-375,3920,55,21,894
33953,1821600,1835340,1827133,1859901,2294,3800,417,-4010,2743,932,-99,3692,55,21,894
34955,1821848,1835444,1827330,1860098,2123,3800,535,-4555,2777,2480,235,6529,64,19,890
35955,1822044,1835516,1827527,1860295,2449,3800,808,-4794,2743,3675,315,7843,64,19,890
36957,1822236,1835600,1827724,1860492,2477,3800,932,-5147,2653,4136,503,5828,36,23,888
37957,1822392,1835656,1827921,1860689,2721,3800,908,-5682,2478,4706,672,5949,36,23,888
38959,1822560,1835680,1828118,1860886,2660,3800,809,-6309,2214,5355,819,5103,44,4,887
39959,1822736,1835752,1828315,1861083,2620,3800,667,-6931,1920,5884,1070,4683,44,4,887
40961,1822920,1835788,1828512,1861280,2577,3800,528,-7421,1605,5960,1054,4684,49,2,885
41961,1823124,1835824,1828709,1861477,2450,3800,413,-7598,1253,5939,873,6125,49,2,885
42962,1823300,1835872,1828906,1861674,2635,3800,306,-7433,886,5413,764,6613,51,1,886
43963,1823476,1835932,1829103,1861871,2645,3800,158,-7089,536,4820,697,6550,51,1,886
44965,1823632,1835992,1829300,1862068,2789,3800,25,-6803,165,4479,1034,6235,32,6,887
45965,1823812,1836052,1829497,1862265,2648,3800,-74,-6569,-243,4396,1475,6136,32,6,887
46967,1823972,1836124,1829694,1862462,2790,3800,-101,-6286,-614,4343,1612,5865,44,18,885
47968,1824140,1836184,1829891,1862659,2755,3800,-50,-6126,-898,4080,1592,5337,44,18,885
48969,1824380,1836248,1830088,1862856,2287,3800,72,-5965,-1083,3479,1242,5250,29,10,882
49970,1824580,1836344,1830285,1863053,2537,3800,263,-5828,-1171,2866,1170,4975,29,10,882
50971,1824768,1836436,1830482,1863250,2617,3800,477,-5631,-1266,1828,1299,5172,35,12,886
51972,1824960,1836508,1830679,1863447,2595,3800,659,-5205,-1435,680,1343,5912,35,12,886
52973,1825144,1836628,1830876,1863644,2651,3800,895,-4733,-1523,509,1099,5623,46,17,887
53973,1825308,1836704,1831073,1863841,2792,3800,1176,-4179,-1551,515,1393,5699,46,17,887
54975,1825544,1836796,1831270,1864038,2326,3800,1479,-3502,-1601,90,1682,5751,29,18,887
55975,1825760,1836920,1831467,1864235,2443,3800,1742,-2703,-1651,-624,1124,6075,29,18,887
56977,1825964,1837024,1831664,1864432,2516,3800,1989,-1835,-1623,-1471,466,6204,58,17,886
57977,1826192,1837128,1831861,1864629,2354,3800,2243,-882,-1492,-2343,-219,6469,58,17,886
58979,1826376,1837268,1832058,1864826,2636,3800,2484,218,-1189,-2670,-1231,6539,40,26,886
59979,1826580,1837364,1832255,1865023,2509,3800,2705,1085,-920,-2716,-677,5637,40,26,886
60981,1826824,1837476,1832452,1865220,2240,3800,2951,1745,-740,-1897,-476,4843,32,15,888
61982,1827076,1837572,1832649,1865417,2167,3800,3276,2102,-600,-1372,-649,3459,32,15,888
62983,1827324,1837680,1832846,1865614,2170,3800,3649,2192,-452,-1544,-1353,2773,59,18,888
63984,1827580,1837784,1833043,1865811,2095,3800,3953,2323,-186,-1889,-2170,3306,59,18,888
64985,1827796,1837912,1833240,1866008,2338,3800,4048,2696,110,-2040,-2445,3846,56,32,889
65986,1828008,1838016,1833437,1866205,2357,3800,3979,3172,270,-1544,-1821,3430,56,32,889
66987,1828240,1838140,1833634,1866402,2218,3800,3928,3218,238,-594,-862,1861,53,28,890
67987,1828544,1838268,1833831,1866599,1722,3800,3918,3032,115,223,-807,1457,53,28,890
68989,1828816,1838400,1834028,1866796,1890,3800,3889,2768,91,226,-1562,1578,47,34,888
69990,1829020,1838528,1834225,1866993,2313,3800,3823,2697,182,-225,-2123,2007,47,34,888
70991,1829272,1838680,1834422,1867190,1990,3800,3727,2592,255,-446,-1972,1559,48,21,891
71992,1829452,1838816,1834619,1867387,2448,3800,3580,2348,223,160,-1377,1151,48,21,891
72993,1829708,1838948,1834816,1867584,1948,3800,3389,1999,89,1296,-730,879,38,37,889
73994,1830008,1839080,1835013,1867781,1629,3800,3129,1501,-104,1986,-256,506,38,37,889
74995,1830236,1839224,1835210,1867978,2066,3800,2835,979,-270,1816,-505,729,60,24,888
75995,1830428,1839336,1835407,1868175,2295,3800,2550,559,-407,1174,-447,940,60,24,888
76996,1830680,1839484,1835604,1868372,1896,3800,2281,142,-550,1146,-300,817,38,40,892
77997,1830852,1839644,1835801,1868569,2408,3800,1986,-296,-722,1827,62,690,38,40,892
78998,1831052,1839788,1835998,1868766,2233,3800,1646,-767,-875,2661,157,715,40,37,889
80000,1831324,1839972,1836195,1868963,1751,3800,1307,-1309,-978,2904,230,668,40,37,889
81001,1831564,1840120,1836392,1869160,1933,3800,996,-1816,-1037,2337,110,996,42,24,888
82002,1831740,1840280,1836589,1869357,2342,3800,687,-2050,-1081,1482,45,1675,42,24,888
83003,1831984,1840404,1836786,1869554,1898,3800,345,-2155,-1122,1422,354,1900,53,24,892
84004,1832148,1840560,1836983,1869751,2413,3800,-24,-2195,-1133,1942,714,2175,53,24,892
85005,1832424,1840696,1837180,1869948,1680,3800,-403,-2187,-1079,2540,1047,2139,43,23,889
86006,1832688,1840860,1837377,1870145,1726,3800,-746,-2318,-994,2608,1237,1705,43,23,889
87007,1832924,1841000,1837574,1870342,1885,3800,-1045,-2489,-896,1827,1340,1847,52,26,889
88008,1833132,1841144,1837771,1870539,2056,3800,-1317,-2540,-794,780,1320,2267,52,26,889
89009,1833352,1841272,1837968,1870736,1972,3800,-1636,-2443,-674,542,1382,2610,46,17,892
90010,1833564,1841396,1838165,1870933,2016,3800,-1951,-2252,-516,970,1767,2711,46,17,892
91011,1833820,1841544,1838362,1871130,1716,3800,-2288,-2002,-322,1391,2014,2753,38,19,889
92012,1834092,1841684,1838559,1871327,1584,3800,-2579,-1960,-111,1189,2114,2240,38,19,889
93020,1834332,1841816,1838986,1871754,1867,3800,-2808,-1985,121,443,2093,2271,53,30,886
94014,1834552,1841960,1839183,1871951,1983,3800,-2976,-2005,357,-281,2133,2177,53,30,886
95015,1834784,1842112,1839380,1872148,1893,3800,-3139,-2001,578,-319,2355,2271,59,25,893
96016,1835052,1842284,1839577,1872345,1638,3800,-3342,-1870,818,-15,2654,2767,59,25,893
97017,1835300,1842452,1839774,1872542,1742,3800,-3554,-1706,1095,212,2636,2612,61,24,891
98018,1835516,1842628,1839971,1872739,1934,3800,-3704,-1610,1377,-40,2476,2476,61,24,891
99018,1835760,1842812,1840168,1872936,1739,3800,-3778,-1662,1624,-615,2390,2276,44,29,893
100020,1836016,1842996,1840365,1873133,1639,3800,-3839,-1705,1822,-896,2310,2458,44,29,893
101021,1836220,1843164,1840562,1873330,1962,3800,-3938,-1675,2023,-667,2146,2598,43,45,891
102022,1836496,1843368,1840759,1873527,1478,3800,-4047,-1629,2161,-430,2588,2743,43,45,891
103023,1836740,1843568,1840956,1873724,1658,3800,-4159,-1518,2254,-313,2188,3032,59,37,892
104024,1836964,1843768,1841153,1873921,1772,3800,-4251,-1493,2278,-493,2025,2810,59,37,892
105025,1837220,1843976,1841350,1874118,1546,3800,-4309,-1530,2286,-527,1346,2963,44,37,894
106026,1837456,1844172,1841547,1874315,1655,3800,-4354,-1581,2306,-375,1036,2866,44,37,894
107027,1837724,1844412,1841744,1874512,1425,3800,-4391,-1736,2280,-274,843,2688,59,34,892
108028,1837992,1844604,1841941,1874709,1395,3800,-4401,-1926,2241,-163,408,2596,59,34,892
109029,1838252,1844828,1842138,1874906,1417,3800,-4360,-2238,2167,-147,324,2310,65,43,894
110030,1838536,1845044,1842335,1875103,1230,3800,-4288,-2552,2078,18,-8,2526,65,43,894
111030,1838828,1845268,1842532,1875300,1139,3800,-4230,-2839,1998,336,-255,2767,60,33,895
112032,1839072,1845468,1842729,1875497,1420,3800,-4211,-3007,1916,672,-410,3159,60,33,895
113033,1839336,1845660,1842926,1875694,1265,3800,-4233,-3014,1815,921,-627,3891,56,45,893
114034,1839620,1845848,1843123,1875891,1103,3800,-4289,-2837,1667,1103,-606,4321,56,45,893
115035,1839868,1846028,1843320,1876088,1306,3800,-4318,-2626,1459,1354,-299,4362,42,35,893
116036,1840088,1846204,1843517,1876285,1471,3800,-4320,-2500,1225,1788,-167,4345,42,35,893
117037,1840368,1846420,1843714,1876482,1061,3800,-4320,-2345,995,2223,-65,4715,54,46,895
118038,1840612,1846640,1843911,1876679,1266,3800,-4335,-2156,796,2489,-236,4914,54,46,895
119039,1840840,1846864,1844108,1876876,1353,3800,-4334,-1930,610,2592,-543,5058,38,47,894
120040,1841100,1847068,1844305,1877073,1126,3800,-4303,-1689,411,2687,-582,5018,38,47,894
121041,1841340,1847288,1844502,1877270,1232,3800,-3840,-1129,258,2775,-947,8307,52,39,895
122041,1841544,1847488,1844699,1877467,1455,3800,-1508,3474,473,1762,-3167,32767,52,39,895
123042,1841788,1847704,1844896,1877664,1185,3800,1061,7247,513,2769,-185,19218,39,40,896
124043,1842012,1847976,1845093,1877861,1298,3800,1747,7034,209,3758,1572,1369,39,40,896
125045,1842224,1848224,1845290,1878058,1368,3800,1431,5120,-107,4228,747,1040,50,44,893
126046,1842448,1848484,1845487,1878255,1281,3800,922,3418,-281,4447,-33,1393,50,44,893
127046,1842644,1848724,1845684,1878452,1457,3800,744,2542,-389,3763,216,1249,48,55,894
128047,1842848,1849012,1845881,1878649,1405,3800,755,1394,-605,3599,706,-80,48,55,894
129049,1843028,1849332,1846078,1878846,1563,3800,748,341,-931,3609,518,636,25,60,895
130050,1843232,1849636,1846275,1879043,1411,3800,611,-485,-1064,2873,-739,2129,25,60,895
131050,1843404,1849932,1846472,1879240,1622,3800,388,-630,-1017,2240,-1635,3818,50,48,895
132051,1843588,1850204,1846669,1879437,1553,3800,158,-547,-949,1467,-1632,3909,50,48,895
133053,1843804,1850496,1846866,1879634,1345,3800,14,-483,-926,701,-1393,3955,50,66,895
134053,1844008,1850912,1847063,1879831,1418,3800,-106,-314,-994,285,-1305,4341,50,66,895
135055,1844200,1851268,1847260,1880028,1496,3800,-214,-160,-1052,-337,-1566,4593,48,63,892
136055,1844428,1851620,1847457,1880225,1258,3800,-332,392,-955,-911,-1948,5932,48,63,892
137057,1844632,1852072,1847654,1880422,1406,3800,-424,1109,-739,-1571,-2012,5842,48,82,895
138057,1844836,1852532,1847851,1880619,1402,3800,-486,1869,-493,-2368,-2082,6180,48,82,895
139059,1845044,1853000,1848048,1880816,1374,3800,-489,2558,-258,-2881,-1709,5696,50,84,897
140059,1845232,1853608,1848245,1881013,1504,3800,-420,3012,-53,-3034,-1299,5177,50,84,897
141061,1845428,1854116,1848442,1881210,1454,3800,-328,3507,188,-3177,-1254,5458,46,99,898
142062,1845604,1854628,1848639,1881407,1589,3800,-195,3804,478,-3185,-1099,4595,46,99,898
143062,1845796,1855228,1848836,1881604,1491,3800,2,3825,754,-3044,-791,3758,32,115,898
144063,1845964,1855768,1849033,1881801,1655,3800,227,3592,1004,-2937,-579,3067,32,115,898
145065,1846156,1856536,1849230,1881998,1507,3800,445,3194,1270,-2447,-687,2475,51,119,898
146066,1846312,1857156,1849427,1882195,1751,3800,619,2692,1601,-2050,-1028,2242,51,119,898
147067,1846504,1857944,1849624,1882392,1530,3800,753,2236,2040,-1737,-1479,2480,36,128,898
148068,1846676,1858680,1849821,1882589,1666,3800,852,1779,2475,-1411,-1563,2185,36,128,898
149069,1846872,1859512,1850018,1882786,1517,3800,951,1106,2835,-1262,-1283,1541,38,145,899
150070,1847036,1860320,1850215,1882983,1732,3800,1068,330,3118,-942,-1033,1223,38,145,899
151071,1847192,1861304,1850412,1883180,1801,3800,1187,-488,3356,-356,-992,1079,48,158,900
152072,1847384,1862248,1850609,1883377,1579,3800,1267,-1049,3608,6,-1146,1955,48,158,900
153073,1847580,1863136,1850806,1883574,1554,3800,1297,-1375,3854,235,-1087,2359,37,177,900
154073,1847756,1864108,1851003,1883771,1689,3800,1316,-1610,3999,360,-1102,2518,37,177,900
155075,1847976,1865128,1851200,1883968,1404,3800,1294,-1622,4045,407,-1027,3425,58,176,902
156063,1848184,1866204,1851397,1884165,1475,3155,1258,-1502,4055,668,-1062,3587,58,176,902
157064,1848412,1867228,1851594,1884362,1338,3120,1203,-1242,4047,945,-1255,4064,45,197,902
158065,1848652,1868324,1851791,1884559,1244,2278,1154,-901,4018,1007,-1249,4173,45,197,902
159066,1848848,1869404,1851988,1884756,1520,1993,1119,-513,3929,1232,-1101,4293,52,205,905
160067,1849056,1870436,1852185,1884953,1441,1929,1119,-78,3749,1421,-933,4069,52,205,905
161068,1849288,1871344,1852382,1885150,1276,2395,1136,198,3512,1518,-833,3839,61,188,912
162069,1849512,1872448,1852579,1885347,1315,773,1170,516,3267,1879,-836,3942,61,188,912
163070,1849784,1873408,1852776,1885544,982,1341,1186,855,3054,2183,-996,3822,45,187,912
164071,1850000,1874264,1852973,1885741,1325,1703,1237,1238,2879,2360,-1244,3627,45,187,912
165072,1850220,1875108,1853170,1885938,1290,1496,1361,1457,2680,2370,-1372,2964,44,168,916
166073,1850412,1875940,1853367,1886135,1468,1294,1524,1641,2457,2369,-1619,3000,44,168,916
167074,1850604,1876704,1853564,1886332,1471,1472,1656,1976,2216,2306,-1747,3328,56,164,913
168075,1850792,1877416,1853761,1886529,1500,1572,1761,2336,1910,1988,-1620,3033,56,164,913
169076,1850948,1878220,1853958,1886726,1719,732,1836,2602,1489,1509,-1353,2712,38,139,912
170077,1851120,1878968,1854155,1886923,1630,841,1855,2754,940,1261,-889,2312,38,139,912
171078,1851348,1879664,1854352,1887120,1268,949,1726,2890,281,1169,65,2147,41,152,912
172079,1851556,1880396,1854549,1887317,1388,490,1440,3008,-527,767,957,1769,41,152,912
173080,1851748,1881032,1854746,1887514,1491,899,1074,2918,-1488,531,1037,1127,65,140,914
174081,1851952,1881628,1854943,1887711,1413,975,669,2683,-2535,608,1284,662,65,140,914
175082,1852148,1882196,1855140,1887908,1464,988,217,2335,-3542,714,2121,55,50,110,916
176090,1852320,1882660,1855370,1888138,1641,1536,-258,1776,-4358,903,2011,-678,50,110,916
177084,1852500,1883120,1855567,1888335,1598,1446,-688,1155,-4863,919,1060,-655,33,96,914
178085,1852664,1883552,1855764,1888532,1714,1519,-1060,754,-4979,1055,-237,326,33,96,914
179086,1852828,1883972,1855961,1888729,1728,1497,-1425,673,-4757,1270,-1333,1092,48,89,909
180087,1853016,1884368,1856158,1888926,1583,1561,-1756,512,-4379,969,-1753,920,48,89,909
181088,1853156,1884760,1856355,1889123,1909,1501,-1938,149,-4038,723,-1402,232,38,89,909
182089,1853324,1885192,1856552,1889320,1747,1149,-1977,-398,-3713,727,-1552,78,38,89,909
183090,1853460,1885712,1856749,1889517,1975,458,-1993,-766,-3291,694,-2133,961,46,84,911
184091,1853612,1886196,1856946,1889714,1895,556,-2065,-898,-2796,593,-2098,1572,46,84,911
185092,1853756,1886536,1857143,1889911,1969,1395,-2169,-957,-2257,690,-2008,1707,47,82,911
186093,1853936,1886864,1857340,1890108,1752,1413,-2276,-952,-1682,821,-2029,2047,47,82,911
187094,1854092,1887232,1857537,1890305,1920,1088,-2414,-855,-1093,710,-2338,2624,36,58,913
188095,1854252,1887652,1857734,1890502,1913,666,-2608,-632,-518,555,-2506,3115,36,58,913
189096,1854396,1888112,1857931,1890699,2037,300,-2794,-292,32,490,-2491,3493,39,65,910
190097,1854572,1888460,1858128,1890896,1846,935,-2968,232,531,389,-2279,4305,39,65,910
191098,1854744,1888832,1858325,1891093,1883,708,-3133,968,937,156,-2246,5520,42,68,910
192099,1854932,1889148,1858522,1891290,1788,1007,-1559,4777,1164,2455,-1484,32692,42,68,910
193100,1855112,1889360,1858719,1891487,1846,1650,1955,12674,1148,4553,-1616,32767,42,65,912
194101,1855284,1889776,1858916,1891684,1908,280,3881,16330,1156,1388,-2049,8369,42,65,912
195102,1855492,1890128,1859113,1891881,1679,612,3762,15668,1262,1090,-1474,1680,33,73,911
196103,1855664,1890496,1859310,1892078,1915,437,2997,13499,1350,1468,-1555,324,33,73,911
197104,1855856,1890820,1859507,1892275,1793,657,2416,12122,1418,1520,-1650,862,48,71,913
198105,1856064,1891100,1859704,1892472,1689,895,2065,11236,1529,1442,-1297,488,48,71,913
199106,1856248,1891364,1859901,1892669,1846,966,1656,10372,1368,1613,509,182,32,48,913
200107,1856420,1891600,1860098,1892866,1932,1124,1015,9233,874,887,1570,-293,32,48,913
201108,1856588,1891856,1860295,1893063,1971,974,333,7794,202,70,1660,-761,34,46,911
202109,1856776,1892088,1860492,1893260,1851,1109,-305,6402,-573,-388,1652,-467,34,46,911
203110,1856928,1892328,1860689,1893457,2095,1040,-893,5127,-1297,-1078,1756,93,32,52,909
204111,1857088,1892536,1860886,1893654,2063,1235,-1584,4301,-1916,-1458,1772,1429,32,52,909
205112,1857248,1892744,1861083,1893851,2080,1230,-2294,3447,-2540,-2002,2310,923,32,46,911
206113,1857420,1892952,1861280,1894048,2017,1226,-2891,2499,-3075,-2467,2070,1345,32,46,911
207114,1857600,1893188,1861477,1894245,1974,1034,-3298,1614,-3440,-2455,1608,1845,36,39,909
208115,1857780,1893416,1861674,1894442,1983,1070,-2033,1056,-3388,-5185,-906,16983,36,39,909
209116,1857956,1893612,1861871,1894639,2018,1271,2037,1567,-2595,-9365,-4226,32767,39,43,909
210116,1858140,1893796,1862068,1894836,1974,1352,4594,1778,-2070,-4492,-1571,13512,39,43,909
211118,1858324,1893956,1862265,1895033,1980,1519,4287,1180,-2114,-2299,220,2974,25,29,910
212119,1858500,1894088,1862462,1895230,2041,1722,3007,446,-2346,-2128,17,2726,25,29,910
213120,1858676,1894220,1862659,1895427,2051,1751,2055,-400,-2506,-1965,628,2012,30,30,907
214121,1858844,1894328,1862856,1895624,2114,1940,1514,-980,-2547,-1715,1067,2595,30,30,907
215122,1859016,1894452,1863053,1895821,2101,1873,1087,-1557,-2500,-1576,724,1943,39,17,905
216123,1859204,1894556,1863250,1896018,2006,2039,689,-2228,-2393,-1531,506,1925,39,17,905
217124,1859400,1894652,1863447,1896215,1957,2133,317,-2866,-2236,-1541,253,2108,42,24,903
218125,1859556,1894740,1863644,1896412,2226,2231,-18,-3556,-2075,-1470,-174,1950,42,24,903
219126,1859748,1894832,1863841,1896609,2003,2253,-354,-4102,-1935,-1490,-403,2440,48,21,904
220127,1859948,1894936,1864038,1896806,1953,2219,-683,-4534,-1838,-1529,-23,2704,48,21,904
221128,1860132,1895028,1864235,1897003,2060,2340,-1001,-4813,-1761,-1414,-127,3190,37,21,902
222129,1860292,1895104,1864432,1897200,2227,2495,-1287,-5018,-1667,-1435,-198,3449,37,21,902
223130,1860484,1895208,1864629,1897397,2029,2360,-1518,-5173,-1553,-1483,-285,3626,38,10,902
224131,1860652,1895308,1864826,1897594,2193,2429,-1704,-5247,-1429,-1482,-528,3839,38,10,902
225132,1860840,1895416,1865023,1897791,2073,2418,-1823,-5344,-1321,-1580,-513,3691,39,11,899
226133,1861044,1895520,1865220,1897988,1971,2484,-1863,-5455,-1241,-1588,-574,3704,39,11,899
227134,1861228,1895608,1865417,1898185,2102,2633,-1859,-5563,-1170,-1593,-563,3653,34,26,900
228135,1861440,1895716,1865614,1898382,1921,2547,-1822,-5688,-1086,-1488,-806,3674,34,26,900
229136,1861624,1895828,1865811,1898579,2102,2560,-1750,-5778,-999,-1316,-850,3702,47,10,902
230137,1861848,1895928,1866008,1898776,1842,2678,-1659,-5900,-922,-1206,-850,3546,47,10,902
231138,1862060,1896056,1866205,1898973,1911,2534,-1555,-6002,-821,-1022,-1011,3719,45,20,901
232139,1862268,1896184,1866402,1899170,1932,2566,-1419,-6125,-686,-835,-1214,3591,45,20,901
233140,1862528,1896320,1866599,1899367,1580,2543,-1250,-6211,-543,-683,-1297,3711,36,26,901
234141,1862768,1896444,1866796,1899564,1687,2651,-727,-5771,-445,132,-1650,8447,36,26,901
235142,1863004,1896576,1866993,1899761,1695,2629,425,-4019,-442,1483,-2057,18149,38,34,900
236143,1863284,1896696,1867190,1899958,1385,2739,1285,-2961,-446,180,-1686,6490,38,34,900
237144,1863516,1896824,1867387,1900155,1670,2720,1532,-3003,-434,-170,-1378,3264,60,30,901
238145,1863796,1896924,1867584,1900352,1334,2938,1521,-3501,-454,43,-1336,2941,60,30,901
239146,1864068,1897036,1867781,1900549,1352,2901,1519,-3772,-493,142,-1486,3292,48,24,902
240147,1864328,1897148,1867978,1900746,1401,2939,1570,-3775,-512,151,-1773,3433,48,24,902
241148,1864600,1897292,1868175,1900943,1293,2763,1616,-3653,-513,294,-2071,3525,53,34,902
242149,1864888,1897428,1868372,1901140,1154,2841,1642,-3541,-566,323,-1891,3332,53,34,902
243150,1865160,1897572,1868569,1901337,1222,2815,1654,-3513,-671,434,-1724,3233,52,20,901
244151,1865408,1897716,1868766,1901534,1349,2838,1660,-3474,-726,685,-2087,3210,52,20,901
245152,1865696,1897836,1868963,1901731,1060,3023,1650,-3388,-760,713,-1868,3270,64,22,902
246153,1865940,1897972,1869160,1901928,1316,2951,1624,-3204,-799,732,-1826,3489,64,22,902
247154,1866204,1898096,1869357,1902125,1161,3058,1571,-3023,-893,596,-1557,3357,50,32,901
248155,1866480,1898248,1869554,1902322,1052,2904,1525,-2844,-1068,402,-1096,3336,50,32,901
249156,1866724,1898404,1869751,1902519,1232,2898,1474,-2678,-1257,396,-1062,3261,50,39,902
250157,1866988,1898568,1869948,1902716,1078,2863,1426,-2561,-1395,518,-1312,3098,50,39,902
251158,1867252,1898720,1870145,1902913,1049,2959,1381,-2440,-1494,550,-1334,2879,39,37,903
252159,1867500,1898872,1870342,1903110,1127,2979,1375,-2462,-1591,578,-1123,2407,39,37,903
253160,1867740,1899040,1870539,1903307,1160,2893,1384,-2522,-1684,637,-861,2337,65,39,903
254161,1867976,1899220,1870736,1903504,1167,2826,1403,-2570,-1752,665,-538,2300,65,39,903
255162,1868244,1899384,1870933,1903701,937,2942,1395,-2579,-1812,715,-281,2326,50,41,902
256163,1868452,1899548,1871130,1903898,1307,2957,1368,-2586,-1873,670,-22,2349,50,41,902
257164,1868692,1899704,1871327,1904095,1089,3025,1329,-2550,-1940,573,273,2421,43,29,902
258165,1868944,1899868,1871524,1904292,990,2991,1305,-2480,-2007,473,378,2402,43,29,902
259175,1869164,1900104,1871754,1904522,1196,2539,1285,-2390,-2029,332,183,2543,37,43,902
260167,1869400,1900300,1871951,1904719,1079,2790,1266,-2259,-1981,266,-112,2643,37,43,902
261168,1869624,1900500,1872148,1904916,1143,2765,1228,-2065,-1899,205,-238,2713,31,51,902
262169,1869804,1900700,1872345,1905113,1425,2765,1194,-1839,-1804,11,-175,2739,31,51,902
263170,1870024,1900916,1872542,1905310,1166,2657,1143,-1646,-1709,-105,-147,2774,54,38,905
264171,1870292,1901144,1872739,1905507,835,2569,1095,-1461,-1625,-158,-17,2602,54,38,905
265172,1870532,1901368,1872936,1905704,992,2583,1043,-1322,-1541,-225,180,2544,35,53,903
266173,1870756,1901592,1873133,1905901,1080,2572,983,-1204,-1449,-272,266,2477,35,53,903
267174,1870984,1901804,1873330,1906098,1041,2642,915,-1116,-1339,-241,285,2354,34,40,905
268175,1871200,1902024,1873527,1906295,1109,2582,833,-1109,-1196,-152,395,2143,34,40,905
269176,1871456,1902236,1873724,1906492,833,2626,743,-1154,-1046,-68,571,1831,36,56,905
270177,1871696,1902476,1873921,1906689,915,2433,650,-1305,-907,1,695,1527,36,56,905
271178,1871928,1902728,1874118,1906886,950,2335,565,-1575,-774,51,869,1313,41,43,906
272179,1872176,1902988,1874315,1907083,828,2258,443,-1864,-654,214,1129,1306,41,43,906
273180,1872420,1903224,1874512,1907280,833,2392,289,-2100,-547,321,1359,1260,47,44,908
274181,1872672,1903452,1874709,1907477,759,2428,124,-2383,-436,356,1500,1250,47,44,908
275182,1872884,1903688,1874906,1907674,1003,2362,-35,-2695,-338,354,1656,1238,39,50,909
276183,1873124,1903948,1875103,1907871,809,2185,-198,-2991,-255,359,1852,1257,39,50,909
277184,1873352,1904180,1875300,1908068,872,2346,-358,-3279,-184,383,1969,1339,39,54,909
278185,1873588,1904396,1875497,1908265,804,2438,-534,-3506,-118,380,2095,1525,39,54,909
279186,1873816,1904616,1875694,1908462,841,2404,-722,-3775,-63,424,2254,1555,51,37,908
280187,1874016,1904812,1875891,1908659,1015,2555,-911,-4007,1,528,2230,1684,51,37,908
281188,1874212,1905028,1876088,1908856,1041,2423,-1099,-4144,93,562,2198,2023,41,38,908
282189,1874372,1905240,1876285,1909053,1282,2441,-1288,-4219,204,525,2191,2262,41,38,908
283190,1874588,1905488,1876482,1909250,925,2195,-1472,-4267,321,532,2098,2478,44,42,906
284191,1874764,1905680,1876679,1909447,1184,2548,-1642,-4261,461,664,1912,2685,44,42,906
285192,1874940,1905876,1876876,1909644,1193,2524,-1821,-4177,632,752,1734,3045,35,40,906
286193,1875144,1906108,1877073,1909841,1016,2284,-2012,-4028,819,711,1462,3253,35,40,906
287194,1875328,1906316,1877270,1910038,1147,2430,-2183,-3868,1001,701,1230,3449,38,46,906
288195,1875488,1906508,1877467,1910235,1314,2533,-2362,-3696,1168,785,1045,3608,38,46,906
289196,1875692,1906696,1877664,1910432,1036,2562,-2571,-3513,1331,899,818,3701,46,44,906
290197,1875864,1906888,1877861,1910629,1247,2540,-2809,-3315,1481,1036,593,3801,46,44,906
291198,1876056,1907064,1878058,1910826,1125,2651,-3039,-3200,1593,1035,401,3678,36,44,903
292199,1876232,1907244,1878255,1911023,1235,2634,-3255,-3095,1695,978,-77,3904,36,44,903
293200,1876404,1907420,1878452,1911220,1271,2668,-3478,-2865,1825,933,-553,4285,35,29,904
294201,1876572,1907572,1878649,1911417,1309,2839,-3703,-2740,1959,1055,-782,4088,35,29,904
295202,1876748,1907760,1878846,1911614,1268,2619,-3920,-2599,2030,1290,-574,4323,27,35,904
296203,1876908,1907936,1879043,1911811,1386,2703,-4080,-2575,1992,1488,-350,4191,27,35,904
297204,1877048,1908108,1879240,1912008,1536,2740,-2677,-73,1825,4170,-1153,27280,23,32,902
298205,1877256,1908272,1879437,1912205,1106,2806,258,5299,1531,5570,-1649,32767,23,32,902
299206,1877420,1908432,1879634,1912402,1396,2848,1845,6950,1233,2154,53,3542,29,32,903
300206,1877588,1908572,1879831,1912599,1384,2998,1748,5239,983,1922,396,-490,29,32,903
301208,1877744,1908708,1880028,1912796,1478,3051,1184,2595,771,2312,199,-1282,39,26,902
302209,1877928,1908868,1880225,1912993,1309,2918,769,788,636,2309,-186,-351,39,26,902
303210,1878092,1909000,1880422,1913190,1449,3123,574,-443,646,2220,-812,-92,29,25,900
304211,1878268,1909160,1880619,1913387,1384,2965,336,-1306,704,2257,-1254,1026,29,25,900
305212,1878448,1909288,1880816,1913584,1366,3195,17,-2040,735,1461,-1053,1340,41,31,901
306213,1878608,1909456,1881013,1913781,1508,2959,-274,-2885,697,716,-755,1406,41,31,901
307214,1878788,1909588,1881210,1913978,1391,3214,-556,-3517,587,317,-778,2247,29,26,901
308215,1878960,1909736,1881407,1914175,1453,3136,-767,-4090,498,-268,-681,2407,29,26,901
309216,1879132,1909904,1881604,1914372,1464,3025,-944,-4312,447,-570,-809,3520,46,24,900
310217,1879316,1910040,1881801,1914569,1396,3253,-950,-4153,451,-1127,-1256,5811,46,24,900
311218,1879520,1910196,1881998,1914766,1267,3146,-52,-1886,688,-2460,-2605,23218,41,27,898
312219,1879700,1910348,1882195,1914963,1426,3192,1102,750,926,-2392,-1769,16934,41,27,898
313220,1879884,1910508,1882392,1915160,1407,3159,1395,1382,961,-1954,-620,4371,38,26,897
314221,1880096,1910628,1882589,1915357,1226,3444,1081,884,936,-1770,-482,3845,38,26,897
315222,1880280,1910760,1882786,1915554,1407,3398,754,148,966,-1398,-441,3145,46,17,898
316223,1880464,1910896,1882983,1915751,1413,3401,537,-153,1094,-1290,-270,3779,46,17,898
317224,1880668,1911008,1883180,1915948,1285,3589,406,-328,1274,-1275,-207,3580,46,21,896
318225,1880852,1911148,1883377,1916145,1417,3440,265,-516,1415,-1319,32,3672,46,21,896
319226,1881032,1911292,1883574,1916342,1450,3440,159,-820,1533,-1504,340,3388,43,32,897
320227,1881228,1911424,1883771,1916539,1351,3544,94,-1272,1644,-1316,456,3046,43,32,897
321228,1881392,1911544,1883968,1916736,1566,3654,38,-1743,1723,-1174,688,3023,29,21,896
322229,1881548,1911676,1884165,1916933,1635,3609,-6,-2239,1812,-1105,840,3041,29,21,896
323230,1881736,1911808,1884362,1917130,1439,3638,-69,-2602,1892,-732,845,3456,32,35,895
324231,1881924,1911964,1884559,1917327,1442,3507,-156,-2901,1954,-575,975,3476,32,35,895
325232,1882096,1912100,1884756,1917524,1554,3660,-253,-3084,2009,-676,852,4079,24,27,894
326233,1882272,1912248,1884953,1917721,1540,3608,-362,-3214,2036,-796,621,4247,24,27,894
327234,1882416,1912380,1885150,1917918,1763,3737,-446,-3378,2046,-813,687,4295,47,21,895
328247,1882596,1912504,1885347,1918115,1546,3800,-514,-3467,2052,-702,567,4483,47,21,895
329236,1882756,1912640,1885544,1918312,1688,3773,-581,-3575,2062,-562,363,4370,24,21,894
330250,1882908,1912768,1885741,1918509,1758,3800,-638,-3705,2073,-450,392,4486,24,21,894
331251,1883048,1912900,1885938,1918706,1859,3800,-671,-3844,2092,-154,426,4434,24,32,892
332251,1883204,1913040,1886135,1918903,1778,3800,-702,-3986,2109,94,429,4526,24,32,892
333240,1883332,1913196,1886332,1919100,1983,3754,-719,-4046,2119,55,531,4690,23,38,889
334241,1883488,1913360,1886529,1919297,1827,3720,-716,-4132,2127,116,483,4639,23,38,889
335242,1883660,1913544,1886726,1919494,1738,3601,-722,-4151,2140,142,242,4909,32,29,889
336243,1883832,1913704,1886923,1919691,1750,3770,-726,-4131,2166,173,6,4916,32,29,889
337257,1883976,1913856,1887120,1919888,1949,3800,-714,-4139,2183,259,-113,4769,35,19,892
338245,1884140,1914028,1887317,1920085,1839,3727,-692,-4165,2184,146,-380,4807,35,19,892
339258,1884300,1914184,1887514,1920282,1881,3800,-648,-4225,2206,78,-702,4855,32,23,891
340247,1884476,1914388,1887711,1920479,1790,3544,-582,-4273,2238,105,-814,4839,32,23,891
341249,1884620,1914564,1887908,1920676,2014,3729,-502,-4261,2277,64,-922,4917,40,41,892
342256,1884788,1914744,1888138,1920906,1893,3728,-388,-4243,2313,12,-773,4846,40,41,892
343250,1884936,1914924,1888335,1921103,2039,3737,-244,-4264,2313,72,-669,4830,34,24,893
344251,1885068,1915116,1888532,1921300,2169,3665,-76,-4281,2335,126,-593,4797,34,24,893
345252,1885216,1915304,1888729,1921497,2091,3695,99,-4253,2382,62,-920,4996,32,29,890
346253,1885356,1915540,1888926,1921694,2166,3379,280,-4187,2425,-62,-1044,5034,32,29,890
347254,1885496,1915748,1889123,1921891,2192,3550,469,-4108,2463,-11,-1229,5122,41,40,888
348255,1885636,1915952,1889320,1922088,2218,3574,661,-4002,2486,167,-1310,4979,41,40,888
349256,1885800,1916236,1889517,1922285,2083,3037,848,-3898,2522,239,-1397,5003,21,58,891
350257,1885932,1916512,1889714,1922482,2313,3053,1033,-3807,2560,269,-1359,5000,21,58,891
351258,1886100,1916804,1889911,1922679,2101,2912,1216,-3704,2587,389,-1309,4958,40,51,892
352259,1886232,1917104,1890108,1922876,2355,2818,1381,-3526,2628,382,-1388,5127,40,51,892
353260,1886372,1917432,1890305,1923073,2331,2586,1526,-3313,2693,248,-1709,5232,26,68,895
354261,1886524,1917744,1890502,1923270,2277,2637,1664,-3084,2757,294,-1799,5082,26,68,895
355262,1886652,1918052,1890699,1923467,2458,2614,1805,-2959,2782,574,-1473,4807,26,58,896
356263,1886768,1918348,1890896,1923664,2569,2647,1960,-2907,2784,1071,-1133,4487,26,58,896
357264,1886928,1918760,1891093,1923861,2311,1828,2108,-2848,2777,1481,-1032,4347,24,70,896
358265,1887080,1919100,1891290,1924058,2382,2216,2219,-2717,2789,1614,-1061,4556,24,70,896
359266,1887248,1919432,1891487,1924255,2295,2208,2302,-2512,2807,1684,-1073,4588,41,55,897
360267,1887460,1919744,1891684,1924452,2015,2283,2382,-2318,2814,1706,-1098,4393,41,55,897
361268,1887640,1920052,1891881,1924649,2222,2261,2465,-2165,2815,1435,-1075,4364,35,70,901
362269,1887816,1920456,1892078,1924846,2257,1571,2547,-1897,2805,985,-1048,4451,35,70,901
363270,1887988,1920820,1892275,1925043,2294,1748,2649,-1757,2765,833,-795,4012,38,79,903
364271,1888172,1921116,1892472,1925240,2226,2131,2760,-1595,2726,1161,-502,3979,38,79,903
365272,1888364,1921496,1892669,1925437,2179,1525,2863,-1395,2724,1497,-212,3797,35,66,905
366273,1888564,1921872,1892866,1925634,2129,1473,2965,-1205,2726,1528,68,3579,35,66,905
367274,1888808,1922228,1893063,1925831,1833,1529,3073,-1006,2691,1204,254,3528,52,76,901
368275,1889000,1922572,1893260,1926028,2162,1540,3186,-793,2654,866,181,3467,52,76,901
369276,1889192,1922936,1893457,1926225,2165,1342,3271,-402,2682,576,-69,3907,56,70,907
370277,1889396,1923344,1893654,1926422,2088,975,3361,-91,2746,340,60,3390,56,70,907
371278,1889584,1923688,1893851,1926619,2193,1311,3444,198,2798,439,-18,3267,34,64,907
372279,1889796,1924012,1894048,1926816,2036,1381,3517,502,2848,780,26,2913,34,64,907
373280,1890028,1924428,1894245,1927013,1897,710,3590,776,2919,1000,90,2652,36,55,909
374281,1890236,1924788,1894442,1927210,2043,989,3645,1026,2976,765,55,2684,36,55,909
375282,1890444,1925116,1894639,1927407,2039,1132,3683,1365,3010,246,-295,2858,58,61,908
376283,1890640,1925428,1894836,1927604,2115,1182,3704,1731,3056,122,-444,2762,58,61,908
377284,1890840,1925812,1895033,1927801,2089,650,3706,2051,3088,251,-208,2411,42,62,909
378285,1891060,1926192,1895230,1927998,1955,595,3683,2340,3094,516,-168,2199,42,62,909
379286,1891284,1926536,1895427,1928195,1919,756,3671,2571,3061,820,-196,1702,49,66,907
380287,1891500,1926820,1895624,1928392,1962,1092,3665,2773,3005,929,-466,1666,49,66,907
381288,1891728,1927144,1895821,1928589,1874,788,3652,2967,2986,805,-781,1595,55,61,911
382289,1891936,1927476,1896018,1928786,1994,678,3606,3165,2992,593,-850,1650,55,61,911
383290,1892136,1927784,1896215,1928983,2044,779,3528,3422,2959,443,-673,1650,34,59,910
384291,1892324,1928072,1896412,1929180,2124,864,3434,3618,2838,674,-357,1192,34,59,910
385292,1892576,1928312,1896609,1929377,1701,1147,3318,3761,2630,1254,-37,967,39,61,910
386293,1892828,1928620,1896806,1929574,1677,673,3182,3860,2398,1608,-101,808,39,61,910
387294,1893056,1928880,1897003,1929771,1814,945,3041,4063,2255,1622,-596,1040,54,45,910
388294,1893320,1929168,1897200,1929968,1561,730,2909,4265,2165,1290,-770,966,54,45,910
389296,1893548,1929436,1897397,1930165,1773,824,2750,4405,2024,1096,-310,841,36,58,912
390297,1893772,1929620,1897594,1930362,1786,1356,2535,4494,1767,1226,259,583,36,58,912
391298,1894016,1929864,1897791,1930559,1641,960,2285,4559,1449,1485,570,352,58,44,913
392299,1894312,1930136,1897988,1930756,1274,752,1993,4690,1150,1575,458,722,58,44,913
393300,1894560,1930372,1898185,1930953,1553,960,1698,4909,878,1275,266,764,62,55,910
394301,1894788,1930596,1898382,1931150,1664,1023,1422,4997,577,948,389,306,62,55,910
395302,1895048,1930796,1898579,1931347,1437,1172,1146,4832,182,843,1159,-403,59,53,915
396303,1895252,1930988,1898776,1931544,1785,1224,792,4482,-304,1023,1627,-734,59,53,915
397304,1895532,1931208,1898973,1931741,1274,1039,339,4153,-810,1231,1644,-554,58,49,912
398305,1895804,1931436,1899170,1931938,1292,975,-193,3998,-1242,1377,1264,99,58,49,912
399306,1896040,1931696,1899367,1932135,1501,748,-712,3967,-1618,1238,1352,365,53,50,909
400307,1896276,1931916,1899564,1932332,1483,988,-1201,3848,-2025,941,1677,-66,53,50,909
401308,1896520,1932124,1899761,1932529,1414,1058,-1634,3433,-2509,623,2149,-890,44,47,913
402309,1896744,1932328,1899958,1932726,1527,1080,-2049,2771,-3027,347,2384,-1281,44,47,913
403310,1897008,1932568,1900155,1932923,1248,837,-2486,2126,-3473,227,1918,-915,60,53,913
404311,1897276,1932828,1900352,1933120,1193,684,-2912,1682,-3757,119,1253,-500,60,53,913
405312,1897504,1933092,1900549,1933317,1430,629,-3320,1332,-3892,-83,838,-153,46,51,912
406313,1897732,1933304,1900746,1933514,1417,948,-3727,1022,-4000,-360,914,62,46,51,912
407314,1897992,1933500,1900943,1933711,1189,1048,-4139,665,-4132,-602,1028,94,56,48,916
408315,1898252,1933656,1901140,1933908,1163,1316,-4499,274,-4259,-820,925,56,56,48,916
409316,1898448,1933856,1901337,1934105,1564,1040,-4819,-175,-4346,-1042,466,322,61,37,914
410317,1898676,1934092,1901534,1934302,1350,798,-5101,-476,-4319,-1284,-302,1082,61,37,914
411318,1898840,1934308,1901731,1934499,1766,914,-5383,-625,-4178,-1394,-814,1579,46,46,911
412319,1899012,1934532,1901928,1934696,1727,853,-5646,-826,-3996,-1294,-811,1509,46,46,911
413320,1899200,1934708,1902125,1934893,1632,1162,-5868,-1179,-3835,-1078,-519,1357,46,41,915
414321,1899380,1934888,1902322,1935090,1689,1144,-6062,-1639,-3653,-713,-423,1475,46,41,915
415322,1899584,1935052,1902519,1935287,1537,1259,-6280,-2058,-3398,-401,-390,1979,44,40,912
416323,1899768,1935252,1902716,1935484,1668,1032,-6527,-2381,-3059,-176,-509,2257,44,40,912
417324,1899952,1935448,1902913,1935681,1675,1058,-6762,-2736,-2686,118,-467,2341,36,32,911
418325,1900144,1935656,1903110,1935878,1628,978,-6973,-3137,-2330,510,-163,2555,36,32,911
419326,1900344,1935828,1903307,1936075,1577,1215,-7168,-3534,-2005,887,188,2752,46,36,911
420327,1900520,1935992,1903504,1936272,1737,1280,-7359,-3897,-1719,1247,539,3197,46,36,911
421328,1900692,1936136,1903701,1936469,1773,1428,-7547,-4187,-1463,1465,773,3757,27,35,910
422329,1900848,1936288,1903898,1936666,1892,1398,-7753,-4416,-1227,1665,407,4058,27,35,910
423330,1901012,1936424,1904095,1936863,1856,1524,-7967,-4517,-997,2090,-37,4518,38,20,909
424331,1901140,1936564,1904292,1937060,2113,1524,-8512,-4035,-716,2420,-1735,7301,38,20,909
425339,1901308,1936680,1904522,1937290,1891,1725,-8444,-2999,-432,4069,-2181,10335,25,30,908
426333,1901472,1936868,1904719,1937487,1930,1279,-3825,6244,-612,13827,-5680,32767,25,30,908
427334,1901680,1937024,1904916,1937684,1652,1497,1914,14822,-916,9167,-3334,32767,30,30,906
428335,1901820,1937172,1905113,1937881,2102,1568,3578,14701,-976,5030,753,-1826,30,30,906
429336,1902060,1937324,1905310,1938078,1459,1563,2778,10582,-649,5250,-1057,-2528,24,25,909
430337,1902228,1937424,1905507,1938275,1922,1931,1428,6592,-105,5372,-2855,-2357,24,25,909
431338,1902448,1937536,1905704,1938472,1587,1894,713,4563,398,4814,-2781,-1196,50,27,906
432339,1902656,1937644,1905901,1938669,1659,1958,234,2648,709,4482,-2001,-2157,50,27,906
433340,1902840,1937768,1906098,1938866,1815,1890,-186,831,753,4502,-1414,-1549,50,24,904
434341,1903016,1937872,1906295,1939063,1874,2056,-613,-1071,616,3501,-217,-980,50,24,904
435341,1903200,1938024,1906492,1939260,1831,1777,-1131,-2455,265,2555,216,1159,42,24,906
436343,1903380,1938156,1906689,1939457,1864,1930,-1725,-3299,-150,1674,-854,2266,42,24,906
437344,1903572,1938304,1906886,1939654,1792,1852,-2171,-3855,-385,759,-1624,2909,45,34,905
438345,1903772,1938452,1907083,1939851,1742,1873,-2479,-4035,-589,59,-1638,3920,45,34,905
439346,1903936,1938580,1907280,1940048,1981,2030,-2665,-4203,-892,-985,-1557,3992,27,28,905
440347,1904160,1938724,1907477,1940245,1595,1953,-2790,-4161,-1242,-1880,-1795,4930,27,28,905
441348,1904392,1938836,1907674,1940442,1531,2190,-2834,-3800,-1588,-2103,-2345,5520,49,32,906
442349,1904616,1938992,1907871,1940639,1569,1933,-2813,-3250,-1868,-2461,-2779,6099,49,32,906
443350,1904864,1939132,1908068,1940836,1398,2059,-2742,-2629,-2053,-2973,-3271,6473,35,26,905
444351,1905120,1939268,1908265,1941033,1322,2111,-2682,-1900,-2133,-3267,-3843,6894,35,26,905
445352,1905356,1939424,1908462,1941230,1430,2004,-2636,-1025,-2112,-3441,-3755,7346,50,21,906
446353,1905584,1939576,1908659,1941427,1468,2050,-2290,145,-1986,-3616,-4015,9764,50,21,906
447354,1905804,1939724,1908856,1941624,1508,2096,-1186,2505,-1650,-4224,-5133,21195,53,38,907
448355,1906064,1939872,1909053,1941821,1231,2118,-136,4147,-1380,-3019,-3376,10095,53,38,907
449356,1906316,1940012,1909250,1942018,1257,2194,237,4322,-1249,-1935,-2448,4298,45,34,906
450357,1906516,1940164,1909447,1942215,1582,2139,290,3610,-1107,-1113,-2528,2988,45,34,906
451358,1906764,1940288,1909644,1942412,1259,2347,315,2707,-879,-468,-2557,2339,50,23,907
452359,1906980,1940440,1909841,1942609,1452,2192,436,1798,-562,63,-2410,1613,50,23,907
453360,1907204,1940588,1910038,1942806,1391,2238,562,880,-252,755,-2069,1289,40,33,906
454361,1907444,1940720,1910235,1943003,1272,2368,660,-136,8,1066,-1515,775,40,33,906
455362,1907664,1940896,1910432,1943200,1388,2102,758,-1321,276,1203,-1465,498,32,24,905
456363,1907900,1941040,1910629,1943397,1271,2326,857,-2341,533,1323,-1352,1328,32,24,905
457364,1908184,1941228,1910826,1943594,934,2055,910,-3084,777,1206,-1190,2008,35,32,906
458365,1908380,1941412,1911023,1943791,1484,2087,907,-3595,1041,1178,-1387,2777,35,32,906
459366,1908580,1941612,1911220,1943988,1459,1986,869,-3905,1286,1163,-1325,3168,47,41,906
460367,1908772,1941840,1911417,1944185,1511,1797,820,-4054,1465,866,-1043,3795,47,41,906
461368,1908976,1942048,1911614,1944382,1434,1918,805,-4124,1570,662,-845,3826,29,50,907
462369,1909156,1942256,1911811,1944579,1591,1913,832,-4180,1623,692,-765,4089,29,50,907
463370,1909388,1942532,1912008,1944776,1252,1455,847,-4048,1657,767,-530,4606,41,40,908
464371,1909596,1942776,1912205,1944973,1397,1634,828,-3881,1645,972,-173,4639,41,40,908
465372,1909796,1943036,1912402,1945170,1447,1507,787,-3622,1599,1422,-79,4924,28,58,906
466373,1909996,1943288,1912599,1945367,1445,1533,741,-3284,1564,1723,-13,5133,28,58,906
467374,1910168,1943564,1912796,1945564,1632,1348,707,-2772,1539,1724,10,5406,46,42,909
468375,1910348,1943816,1912993,1945761,1590,1475,686,-2209,1502,1188,139,5425,46,42,909
469376,1910536,1944056,1913190,1945958,1545,1531,689,-1711,1441,687,287,5247,32,40,910
470377,1910716,1944304,1913387,1946155,1602,1460,681,-1276,1332,676,516,5203,32,40,910
471378,1910888,1944548,1913584,1946352,1664,1464,699,-917,1196,760,715,4696,29,51,910
472379,1911064,1944768,1913781,1946549,1648,1604,764,-684,1064,737,811,4170,29,51,910
473380,1911244,1944988,1913978,1946746,1632,1595,836,-612,902,651,982,3612,42,53,910
474381,1911408,1945196,1914175,1946943,1746,1665,886,-700,690,665,1152,3174,42,53,910
475382,1911580,1945392,1914372,1947140,1708,1741,911,-858,418,795,1305,2674,26,49,909
476383,1911752,1945628,1914569,1947337,1719,1475,945,-1213,102,744,1172,1922,26,49,909
477384,1911924,1945812,1914766,1947534,1731,1805,982,-1684,-193,624,874,1679,36,37,907
478385,1912100,1946000,1914963,1947731,1716,1784,1001,-2199,-428,774,765,1596,36,37,907
479386,1912284,1946176,1915160,1947928,1672,1869,976,-2598,-583,970,491,1721,29,29,909
480387,1912432,1946376,1915357,1948125,1919,1718,882,-2864,-627,977,-217,1876,29,29,909
481388,1912616,1946576,1915554,1948322,1701,1717,763,-3207,-549,965,-757,1646,28,43,907
482389,1912772,1946752,1915751,1948519,1895,1877,641,-3474,-381,914,-885,2042,28,43,907
483390,1912928,1946932,1915948,1948716,1913,1859,558,-3625,-141,785,-957,2180,21,38,906
484391,1913076,1947096,1916145,1948913,1985,1974,503,-3663,135,735,-957,2489,21,38,906
485392,1913252,1947280,1916342,1949110,1819,1856,433,-3529,437,534,-752,3070,23,34,905
486393,1913420,1947428,1916539,1949307,1883,2102,322,-3191,781,470,-653,3631,23,34,905
487394,1913600,1947660,1916736,1949504,1816,1562,217,-2695,1156,517,-610,3874,45,44,903
488395,1913784,1947832,1916933,1949701,1797,1949,134,-2225,1521,415,-399,4005,45,44,903
489396,1913948,1948024,1917130,1949898,1938,1826,73,-1721,1848,272,-295,4172,30,32,904
490397,1914108,1948208,1917327,1950095,1979,1882,48,-1209,2124,171,-253,4124,30,32,904
491398,1914280,1948408,1917524,1950292,1916,1781,54,-635,2387,59,-409,4415,23,28,905
492399,1914416,1948604,1917721,1950489,2168,1807,77,45,2609,-126,-429,4655,23,28,905
493400,1914572,1948780,1917918,1950686,2062,1941,120,742,2771,-221,-331,4566,32,44,905
494401,1914728,1948964,1918115,1950883,2081,1898,187,1324,2844,-336,-306,4365,32,44,905
495402,1914884,1949204,1918312,1951080,2099,1529,271,1796,2818,-349,-294,4101,32,46,904
496403,1915028,1949436,1918509,1951277,2198,1565,352,2178,2735,-393,-550,3832,32,46,904
497404,1915176,1949676,1918706,1951474,2196,1496,409,2553,2641,-438,-957,3805,40,53,904
498405,1915352,1949916,1918903,1951671,2030,1477,438,2900,2550,-386,-1345,3687,40,53,904
499406,1915512,1950152,1919100,1951868,2147,1486,423,3177,2456,-237,-1581,3380,28,54,904
500407,1915668,1950372,1919297,1952065,2191,1575,378,3315,2352,-96,-1603,2919,28,54,904
501408,1915812,1950632,1919494,1952262,2290,1298,318,3315,2226,100,-1477,2539,20,55,907
502409,1915956,1950868,1919691,1952459,2314,1431,237,3152,2071,361,-1196,2290,20,55,907
503410,1916112,1951156,1919888,1952656,2258,1067,127,2979,1923,549,-881,2149,25,57,905
504411,1916252,1951460,1920085,1952853,2384,920,-2,2763,1794,734,-597,1953,25,57,905
505412,1916408,1951696,1920282,1953050,2302,1328,-120,2480,1665,781,-338,1644,44,54,905
506413,1916520,1951820,1920479,1953247,2615,2061,-239,2148,1528,779,-98,1719,44,54,905
507414,1916696,1951944,1920676,1953444,2226,2093,-378,1842,1380,806,-28,1842,47,43,907
508422,1916896,1952080,1920906,1953674,2090,2059,-537,1614,1238,797,-44,2133,47,43,907
509416,1917068,1952208,1921103,1953871,2276,2139,-708,1541,1119,705,-70,2612,52,21,897
510417,1917260,1952352,1921300,1954068,2154,2064,-891,1511,983,628,306,2715,52,21,897
511418,1917424,1952496,1921497,1954265,2344,2087,-1130,1508,753,443,948,2921,50,25,903
512419,1917588,1952676,1921694,1954462,2360,1869,-1421,1582,454,144,1289,3201,50,25,903
513420,1917768,1952876,1921891,1954659,2267,1744,-1728,1666,174,-29,1205,3490,27,25,903
514421,1917924,1953112,1922088,1954856,2436,1502,-2001,1834,1,-128,965,3718,27,25,903
515422,1918072,1953304,1922285,1955053,2509,1779,-2139,2046,-44,-435,708,4256,41,53,902
516423,1918236,1953568,1922482,1955250,2424,1301,-1209,4082,172,-1437,-973,20909,41,53,902
517424,1918400,1953816,1922679,1955447,2440,1378,556,7455,519,-1558,-945,25545,24,47,903
518425,1918544,1954076,1922876,1955644,2588,1276,1374,8477,551,-419,1496,3495,24,47,903
519426,1918680,1954332,1923073,1955841,2666,1276,1137,7499,401,-186,1610,1269,26,57,905
520427,1918812,1954544,1923270,1956038,2721,1544,668,6109,317,54,305,1078,26,57,905
521428,1918944,1954800,1923467,1956235,2750,1243,378,5283,356,-257,-11,1871,38,49,902
522429,1919108,1955032,1923664,1956432,2566,1379,175,4729,369,-666,299,1699,38,49,902
523430,1919260,1955248,1923861,1956629,2661,1470,-85,4178,187,-955,670,1558,25,38,902
524431,1919424,1955456,1924058,1956826,2602,1516,-377,3426,-137,-1440,775,1233,25,38,902
525432,1919576,1955680,1924255,1957023,2697,1404,-688,2609,-527,-1632,666,1547,46,45,904
526433,1919764,1955940,1924452,1957220,2477,1152,-997,2086,-930,-1844,503,2954,46,45,904
527434,1919912,1956192,1924649,1957417,2749,1178,-556,3032,-1130,-2716,-926,15617,47,47,903
528435,1920084,1956460,1924846,1957614,2611,1047,563,5511,-1085,-2867,-2076,22867,47,47,903
529436,1920252,1956720,1925043,1957811,2650,1069,913,6120,-1197,-1902,543,4381,38,42,905
530437,1920428,1956972,1925240,1958008,2610,1095,413,4950,-1410,-1642,679,1336,38,42,905
531438,1920600,1957232,1925437,1958205,2647,1018,-70,3304,-1546,-1202,-322,1238,47,46,904
532439,1920792,1957496,1925634,1958402,2525,964,-4,2256,-1469,-1050,-1510,5051,47,46,904
533440,1920960,1957776,1925831,1958599,2689,827,604,2180,-1276,-379,-1566,10500,37,49,904
534441,1921160,1958024,1926028,1958796,2489,1005,1231,2272,-1175,250,-1321,8883,37,49,904
535442,1921356,1958252,1926225,1958993,2515,1116,1383,1839,-1171,-454,-802,4366,49,54,906
536443,1921564,1958452,1926422,1959190,2435,1290,1149,935,-1233,-746,-286,2365,49,54,906
537444,1921748,1958648,1926619,1959387,2592,1316,821,-62,-1360,-602,-64,2178,31,52,907
538445,1921944,1958880,1926816,1959584,2519,1076,527,-791,-1503,-651,387,2760,31,52,907
539446,1922128,1959080,1927013,1959781,2600,1275,233,-1170,-1647,-540,475,3699,48,34,905
540447,1922316,1959264,1927210,1959978,2580,1380,-57,-1294,-1809,-501,281,4989,48,34,905
541448,1922516,1959468,1927407,1960175,2505,1252,-143,-928,-1978,-622,146,8500,51,30,906
542449,1922708,1959616,1927604,1960372,2558,1624,130,-59,-2188,-634,76,12180,51,30,906
543450,1922908,1959736,1927801,1960569,2508,1833,429,664,-2422,-1151,-88,9575,42,31,903
544451,1923132,1959856,1927998,1960766,2347,1867,437,732,-2642,-1337,18,5445,42,31,903
545452,1923356,1959984,1928195,1960963,2336,1848,253,307,-2800,-1094,-313,3920,38,36,903
546453,1923580,1960120,1928392,1961160,2325,1825,86,-209,-2857,-922,-548,3609,38,36,903
547454,1923796,1960232,1928589,1961357,2368,2012,6,-611,-2847,-903,-429,3588,46,30,903
548455,1924012,1960328,1928786,1961554,2360,2156,-49,-987,-2840,-796,-327,3384,46,30,903
549456,1924216,1960436,1928983,1961751,2432,2121,-88,-1350,-2846,-823,-69,3476,45,21,903
550457,1924412,1960516,1929180,1961948,2484,2348,-82,-1708,-2870,-928,198,3867,45,21,903
551458,1924608,1960612,1929377,1962145,2485,2292,-61,-1924,-2884,-896,-440,4647,45,10,900
552459,1924808,1960708,1929574,1962342,2460,2337,82,-1981,-2840,-914,-1015,5953,45,10,900
553460,1925028,1960824,1929771,1962539,2326,2248,337,-1805,-2803,-701,-892,7139,51,26,896
554461,1925292,1960908,1929968,1962736,2022,2498,514,-1741,-2787,-777,-796,5320,51,26,896
555462,1925492,1960988,1930165,1962933,2422,2574,550,-1859,-2711,-803,-905,4250,44,16,896
556463,1925716,1961108,1930362,1963130,2261,2359,520,-2149,-2603,-700,-661,3642,44,16,896
557464,1925960,1961232,1930559,1963327,2117,2366,470,-2496,-2532,-564,-159,3549,38,24,900
558465,1926176,1961332,1930756,1963524,2284,2560,427,-2665,-2452,-455,34,3772,38,24,900
559466,1926412,1961444,1930953,1963721,2142,2522,369,-2766,-2388,-501,157,3843,47,25,900
560467,1926688,1961576,1931150,1963918,1858,2426,277,-2744,-2341,-545,-79,4296,47,25,900
561468,1926940,1961704,1931347,1964115,1985,2482,168,-2687,-2250,-535,-443,4271,60,23,899
562469,1927184,1961856,1931544,1964312,2016,2352,71,-2636,-2190,-480,-320,4070,60,23,899
563470,1927448,1962000,1931741,1964509,1862,2426,-8,-2644,-2150,-457,-285,3901,37,35,902
564471,1927716,1962124,1931938,1964706,1807,2583,-47,-2741,-2076,-308,-269,3625,37,35,902
565472,1928000,1962252,1932135,1964903,1669,2589,-54,-2875,-2002,-47,-169,3574,61,25,901
566472,1928296,1962360,1932332,1965100,1551,2754,-49,-2956,-1939,60,-130,3597,61,25,901
567474,1928572,1962472,1932529,1965297,1642,2767,-2,-3034,-1898,47,-37,3477,64,28,901
568474,1928840,1962596,1932726,1965494,1662,2724,43,-3157,-1919,135,46,3505,64,28,901
569476,1929172,1962740,1932923,1965691,1203,2623,91,-3186,-1940,198,-194,3678,49,19,901
570476,1929464,1962880,1933120,1965888,1412,2673,122,-3144,-1896,279,-481,3710,49,19,901
571478,1929752,1963024,1933317,1966085,1398,2673,153,-3158,-1863,350,-407,3431,70,28,901
572479,1930048,1963184,1933514,1966282,1306,2590,182,-3216,-1864,327,-287,3443,70,28,901
573480,1930340,1963348,1933711,1966479,1289,2579,253,-3268,-1864,430,-377,3224,68,40,902
574481,1930628,1963492,1933908,1966676,1275,2729,346,-3388,-1855,579,-517,2942,68,40,902
575482,1930940,1963644,1934105,1966873,1074,2698,467,-3513,-1822,575,-577,3017,57,26,901
576483,1931212,1963784,1934302,1967070,1292,2800,591,-3569,-1791,529,-660,3155,57,26,901
577484,1931484,1963940,1934499,1967267,1260,2719,701,-3525,-1752,609,-878,3403,65,36,901
578485,1931756,1964092,1934696,1967464,1227,2763,782,-3394,-1673,617,-929,3717,65,36,901
579486,1932056,1964296,1934893,1967661,1008,2436,819,-3168,-1611,611,-888,3846,55,25,902
580487,1932320,1964452,1935090,1967858,1204,2755,831,-2938,-1605,523,-722,3716,55,25,902
581488,1932608,1964612,1935287,1968055,1015,2747,846,-2776,-1650,326,-666,3449,63,39,903
582489,1932896,1964764,1935484,1968252,975,2817,877,-2686,-1687,253,-881,3267,63,39,903
583490,1933164,1964932,1935681,1968449,1070,2730,927,-2596,-1676,197,-983,3275,61,39,903
584491,1933424,1965080,1935878,1968646,1092,2878,1002,-2476,-1621,152,-979,3295,61,39,903
585492,1933676,1965236,1936075,1968843,1119,2847,1094,-2359,-1550,169,-849,3155,64,25,903
586493,1933928,1965408,1936272,1969040,1095,2759,1203,-2280,-1491,137,-467,2879,64,25,903
587494,1934168,1965580,1936469,1969237,1152,2770,1313,-2252,-1465,110,9,2772,51,42,901
588494,1934424,1965748,1936666,1969434,1026,2808,1401,-2242,-1456,97,215,2675,51,42,901
589496,1934648,1965924,1936863,1969631,1215,2769,1464,-2225,-1423,73,155,2646,40,43,903
590497,1934880,1966128,1937060,1969828,1150,2590,1527,-2247,-1366,7,97,2217,40,43,903
591507,1935108,1966304,1937290,1970058,1175,2790,1584,-2413,-1301,-35,67,1940,54,34,904
592499,1935328,1966496,1937487,1970255,1216,2693,1621,-2583,-1222,-29,32,1862,54,34,904
593500,1935548,1966688,1937684,1970452,1206,2696,1625,-2756,-1116,-9,6,1829,57,30,904
594501,1935800,1966872,1937881,1970649,983,2752,1621,-2919,-987,8,35,1831,57,30,904
595502,1936048,1967084,1938078,1970846,986,2572,1603,-3069,-849,73,207,1853,38,34,904
596503,1936272,1967268,1938275,1971043,1124,2753,1568,-3160,-704,168,220,1879,38,34,904
597504,1936508,1967476,1938472,1971240,1033,2599,1525,-3253,-552,203,250,1929,38,47,903
598505,1936764,1967676,1938669,1971437,882,2648,1474,-3351,-394,258,314,1933,38,47,903
599506,1936996,1967868,1938866,1971634,1017,2701,1401,-3422,-238,365,435,1901,34,37,902
600507,1937236,1968084,1939063,1971831,948,2543,1298,-3449,-89,427,522,2043,34,37,902
601508,1937484,1968328,1939260,1972028,876,2348,1182,-3445,57,388,620,2116,50,49,906
602508,1937740,1968552,1939457,1972225,801,2463,1038,-3478,188,407,672,2113,50,49,906
603510,1938008,1968776,1939654,1972422,695,2452,875,-3434,294,496,798,2230,44,39,906
604511,1938228,1968992,1939851,1972619,985,2493,687,-3387,395,517,879,2208,44,39,906
605512,1938468,1969220,1940048,1972816,842,2406,474,-3340,482,538,962,2187,45,40,907
606513,1938708,1969456,1940245,1973013,823,2340,238,-3301,550,526,1089,2161,45,40,907
607514,1938956,1969680,1940442,1973210,751,2403,8,-3309,596,563,1181,2099,52,39,907
608515,1939192,1969884,1940639,1973407,808,2526,-230,-3340,621,656,1214,1914,52,39,907
609516,1939416,1970076,1940836,1973604,873,2604,-468,-3493,637,720,1218,1642,36,37,906
610517,1939640,1970268,1941033,1973801,861,2606,-722,-3627,668,804,1081,1809,36,37,906
611518,1939844,1970464,1941230,1973998,983,2583,-967,-3818,716,917,893,1640,48,37,906
612519,1940036,1970668,1941427,1974195,1060,2530,-1207,-3991,771,972,721,1708,48,37,906
613520,1940232,1970868,1941624,1974392,1036,2554,-1439,-4141,847,965,523,1782,36,42,906
614521,1940412,1971076,1941821,1974589,1144,2500,-1667,-4278,944,1062,302,1906,36,42,906
615522,1940604,1971284,1942018,1974786,1071,2496,-1907,-4344,1052,1104,187,2193,44,48,905
616523,1940804,1971468,1942215,1974983,1021,2652,-2134,-4404,1163,1064,19,2179,44,48,905
617524,1940984,1971708,1942412,1975180,1153,2284,-2354,-4469,1263,1140,-186,2295,42,44,905
618525,1941176,1971920,1942609,1975377,1080,2454,-2571,-4476,1364,1151,-337,2501,42,44,905
619526,1941348,1972136,1942806,1975574,1216,2420,-2784,-4458,1447,1197,-451,2540,41,43,904
620527,1941528,1972332,1943003,1975771,1175,2547,-3002,-4454,1490,1279,-571,2640,28,37,905
621528,1941676,1972508,1943200,1975968,1396,2682,-3209,-4421,1509,1262,-644,2968,28,37,905
622529,1941852,1972720,1943397,1976165,1230,2450,-3406,-4340,1506,1281,-686,3259,27,29,905
623530,1942012,1972884,1943594,1976362,1347,2766,-3591,-4226,1493,1398,-907,3356,27,29,905
624531,1942172,1973048,1943791,1976559,1364,2781,-3757,-4119,1498,1487,-978,3601,22,38,905
625532,1942344,1973236,1943988,1976756,1300,2635,-3891,-4023,1477,1564,-838,3622,22,38,905
626533,1942492,1973396,1944185,1976953,1471,2828,-3987,-3969,1410,1703,-647,3735,35,30,902
627534,1942672,1973568,1944382,1977150,1280,2765,-4055,-3832,1335,1748,-580,4123,35,30,902
628535,1942828,1973724,1944579,1977347,1448,2883,-3497,-2858,1277,2588,-593,11317,34,25,901
629536,1942988,1973864,1944776,1977544,1439,3009,-600,3104,983,6848,-73,32767,34,25,901
630537,1943160,1974012,1944973,1977741,1376,2981,2237,7745,702,3784,-594,20591,26,34,899
631538,1943324,1974168,1945170,1977938,1441,2949,2876,7775,570,2446,196,1000,26,34,899
632539,1943484,1974312,1945367,1978135,1482,3049,2494,5335,499,2862,302,-1196,44,29,900
633540,1943656,1974480,1945564,1978332,1419,2912,2019,3008,426,3069,-249,-800,44,29,900
634541,1943820,1974632,1945761,1978529,1483,3033,1594,646,466,2568,-735,540,31,35,899
635542,1944012,1974792,1945958,1978726,1312,2999,1274,129,439,2226,-592,1622,31,35,899
636543,1944168,1974948,1946155,1978923,1555,3043,897,-643,340,1302,-8,1094,42,38,899
637544,1944324,1975092,1946352,1979120,1573,3143,518,-1314,148,978,83,1770,42,38,899
638545,1944496,1975248,1946549,1979317,1485,3087,125,-1934,-83,384,438,2025,27,28,897
639546,1944672,1975412,1946746,1979514,1469,3051,-269,-2217,-275,-210,512,3162,27,28,897
640547,1944840,1975552,1946943,1979711,1532,3227,-714,-2166,-428,-603,173,3941,41,20,896
641548,1945036,1975664,1947140,1979908,1358,3441,-1135,-2021,-493,-1247,-160,4494,41,20,896
642549,1945216,1975808,1947337,1980105,1466,3265,-1493,-1633,-448,-1657,-398,5363,39,34,896
643550,1945416,1975960,1947534,1980302,1340,3236,-1719,-1370,-362,-1863,-334,4618,39,34,896
644551,1945624,1976108,1947731,1980499,1285,3282,-1856,-1192,-237,-2133,-441,4954,32,29,896
645552,1945796,1976240,1947928,1980696,1521,3412,-1744,-828,-4,-2273,-649,6834,32,29,896
646553,1945980,1976384,1948125,1980893,1453,3361,-751,1038,428,-2706,-1414,21201,33,31,897
647554,1946176,1976496,1948322,1981090,1379,3599,407,3084,828,-2666,-493,14545,33,31,897
648555,1946372,1976620,1948519,1981287,1380,3557,811,3387,1058,-2539,500,4041,32,27,896
649556,1946532,1976764,1948716,1981484,1621,3457,688,2642,1191,-2183,750,3223,32,27,896
650557,1946744,1976876,1948913,1981681,1290,3695,520,1715,1352,-1837,717,2782,48,18,891
651558,1946904,1976988,1949110,1981878,1632,3733,448,1052,1597,-1654,775,2888,48,18,891
652559,1947080,1977100,1949307,1982075,1541,3771,435,443,1843,-1418,830,2511,29,32,892
653560,1947260,1977240,1949504,1982272,1525,3622,412,-222,2034,-1312,877,2576,29,32,892
654561,1947432,1977384,1949701,1982469,1586,3621,378,-878,2188,-1286,769,2637,45,32,891
655562,1947608,1977536,1949898,1982666,1571,3592,308,-1524,2290,-1336,445,2786,45,32,891
656563,1947784,1977688,1950095,1982863,1580,3613,212,-2040,2370,-1588,258,3224,29,25,891
657564,1947940,1977844,1950292,1983060,1723,3607,135,-2483,2451,-1770,-34,3398,29,25,891
658565,1948120,1977988,1950489,1983257,1582,3706,83,-2893,2527,-1672,-530,3631,46,27,893
659566,1948284,1978144,1950686,1983454,1696,3650,0,-3238,2607,-1591,-622,3977,46,27,893
660566,1948436,1978292,1950883,1983651,1792,3723,-94,-3515,2693,-1376,-695,4163,41,31,892
661581,1948584,1978424,1951080,1983848,1838,3800,-195,-3781,2761,-1071,-685,4171,41,31,892
662581,1948728,1978560,1951277,1984045,1888,3800,-287,-3985,2813,-932,-601,4446,44,20,889
663570,1948864,1978712,1951474,1984242,1964,3776,-379,-4129,2828,-910,-498,4617,44,20,889
664571,1949032,1978872,1951671,1984439,1778,3743,-457,-4275,2809,-768,-496,4620,26,36,889
665585,1949192,1979024,1951868,1984636,1844,3800,-520,-4420,2793,-474,-281,4699,26,36,889
666572,1949376,1979208,1952065,1984833,1701,3621,-573,-4607,2810,-95,-160,4568,29,34,891
667574,1949520,1979376,1952262,1985030,1974,3735,-605,-4795,2843,71,-141,4497,29,34,891
668574,1949696,1979548,1952459,1985227,1785,3722,-605,-5062,2853,243,327,4354,48,32,892
669589,1949840,1979680,1952656,1985424,2008,3800,-581,-5340,2820,441,478,4262,48,32,892
670577,1950024,1979888,1952853,1985621,1765,3523,-534,-5550,2773,578,459,4476,26,37,891
671578,1950180,1980096,1953050,1985818,1958,3519,-471,-5689,2737,591,322,4689,26,37,891
672579,1950344,1980284,1953247,1986015,1923,3649,-405,-5799,2696,524,63,4879,24,37,893
673580,1950472,1980476,1953444,1986212,2179,3627,-318,-5798,2682,383,-159,5054,24,37,893
674588,1950620,1980680,1953674,1986442,2091,3565,-206,-5794,2671,347,-81,4953,34,29,887
675582,1950776,1980884,1953871,1986639,2060,3563,-93,-5742,2653,327,-244,5182,34,29,887
676583,1950916,1981072,1954068,1986836,2185,3668,28,-5690,2639,322,-441,5155,42,33,891
677584,1951064,1981296,1954265,1987033,2157,3433,163,-5627,2622,456,-631,5101,42,33,891
678585,1951192,1981528,1954462,1987230,2313,3368,291,-5525,2610,542,-887,5269,21,55,890
679586,1951344,1981820,1954659,1987427,2183,2953,419,-5364,2615,461,-1193,5404,21,55,890
680587,1951488,1982092,1954856,1987624,2258,3046,548,-5160,2618,467,-1392,5325,40,48,892
681588,1951652,1982364,1955053,1987821,2147,3014,698,-5010,2624,666,-1298,5028,40,48,892
682589,1951792,1982668,1955250,1988018,2323,2768,876,-4919,2634,691,-1354,4986,43,52,895
683590,1951924,1983008,1955447,1988215,2403,2481,1068,-4784,2649,614,-1694,4876,43,52,895
684590,1952080,1983360,1955644,1988412,2271,2339,1274,-4702,2682,614,-1937,4746,38,67,895
685592,1952200,1983668,1955841,1988609,2531,2566,1482,-4625,2746,862,-2121,4729,38,67,895
686593,1952340,1984016,1956038,1988806,2432,2250,1689,-4493,2823,1216,-2124,4589,39,58,898
687594,1952488,1984408,1956235,1989003,2403,1891,1886,-4318,2872,1371,-1928,4541,39,58,898
688595,1952640,1984752,1956432,1989200,2399,2127,2077,-4174,2893,1445,-1856,4529,35,64,899
689596,1952820,1985076,1956629,1989397,2232,2196,2268,-3942,2907,1532,-1790,4633,35,64,899
690597,1953004,1985352,1956826,1989594,2214,2463,2441,-3645,2934,1551,-1577,4829,31,59,900
691598,1953188,1985696,1957023,1989791,2220,1974,2606,-3205,2977,1389,-1370,5027,31,59,900
692599,1953352,1986060,1957220,1989988,2360,1777,2782,-2803,3005,1271,-1088,4726,47,73,900
693600,1953492,1986404,1957417,1990185,2536,1838,2978,-2450,2989,1485,-550,4531,47,73,900
694601,1953688,1986692,1957614,1990382,2187,2148,3172,-2031,2960,1888,-3,4469,50,60,903
695602,1953860,1987044,1957811,1990579,2349,1681,3367,-1703,2915,2055,374,4083,50,60,903
696603,1954064,1987404,1958008,1990776,2147,1560,3566,-1335,2844,1791,435,4170,45,63,901
697604,1954292,1987728,1958205,1990973,1984,1730,3765,-888,2780,1428,299,4143,45,63,901
698605,1954484,1988056,1958402,1991170,2211,1648,3936,-310,2772,1214,69,4407,57,64,906
699606,1954676,1988428,1958599,1991367,2214,1297,4069,334,2804,902,54,4346,57,64,906
700606,1954864,1988812,1958796,1991564,2244,1140,4197,887,2806,744,178,3808,39,62,905
701607,1955068,1989140,1958993,1991761,2142,1433,4328,1382,2776,1073,199,3551,39,62,905
702609,1955272,1989444,1959190,1991958,2139,1536,4462,1780,2778,1491,151,3021,36,64,907
703610,1955496,1989820,1959387,1992155,2003,1009,4571,2117,2812,1584,21,2880,36,64,907
704611,1955716,1990216,1959584,1992352,2019,796,4662,2459,2834,1171,-254,2617,43,65,906
705612,1955920,1990532,1959781,1992549,2117,1244,4708,2869,2855,783,-799,2800,43,65,906
706613,1956116,1990824,1959978,1992746,2168,1353,4730,3246,2898,739,-929,2367,50,60,909
707614,1956336,1991172,1960175,1992943,2009,937,4729,3506,2930,978,-755,1870,50,60,909
708615,1956536,1991540,1960372,1993140,2133,738,4708,3676,2901,1323,-552,1398,53,56,906
709616,1956780,1991920,1960569,1993337,1839,582,4679,3639,2813,1767,-345,800,53,56,906
710617,1957004,1992216,1960766,1993534,1952,1064,4630,3561,2709,1957,-304,687,59,69,910
711618,1957240,1992528,1960963,1993731,1861,913,4560,3557,2637,1681,-472,742,59,69,910
712619,1957460,1992864,1961160,1993928,1951,703,4466,3651,2570,1209,-585,966,34,64,909
713620,1957676,1993196,1961357,1994125,1968,669,4342,3803,2477,943,-554,921,34,64,909
714621,1957848,1993472,1961554,1994322,2255,984,4196,3890,2323,1165,-371,689,34,46,911
715622,1958116,1993744,1961751,1994519,1625,976,4028,3971,2095,1563,-223,537,34,46,911
716622,1958368,1994012,1961948,1994716,1702,970,3830,4151,1898,1702,-494,746,55,49,908
717624,1958588,1994292,1962145,1994913,1892,858,3607,4433,1783,1359,-766,1104,55,49,908
718625,1958820,1994576,1962342,1995110,1802,796,3359,4772,1667,854,-563,1283,53,56,910
719626,1959072,1994800,1962539,1995307,1654,1159,3094,5089,1459,722,203,920,53,56,910
720627,1959288,1995036,1962736,1995504,1871,1067,2753,5347,1129,911,958,662,44,53,911
721628,1959532,1995268,1962933,1995701,1676,1077,2369,5564,765,1137,944,628,44,53,911
722629,1959840,1995552,1963130,1995898,1228,714,1979,5766,476,1147,540,741,62,41,910
723629,1960084,1995800,1963327,1996095,1608,916,1619,5982,252,934,381,557,62,41,910
724630,1960316,1996048,1963524,1996292,1668,894,1267,6014,12,671,861,-109,41,48,915
725632,1960564,1996264,1963721,1996489,1546,1085,896,5738,-313,799,1561,-975,41,48,915
726633,1960788,1996480,1963918,1996686,1685,1077,478,5282,-706,1221,2053,-1315,59,54,912
727634,1961048,1996704,1964115,1996883,1433,1015,-7,4864,-1081,1554,2111,-907,59,54,912
728635,1961308,1996948,1964312,1997080,1406,870,-521,4554,-1461,1405,2177,-703,38,46,910
729636,1961580,1997180,1964509,1997277,1299,929,-1006,4137,-1854,966,2387,-1121,38,46,910
730637,1961812,1997408,1964706,1997474,1533,941,-1447,3539,-2268,665,2694,-1506,58,37,911
731638,1962032,1997620,1964903,1997671,1599,1034,-1860,2884,-2698,432,2738,-1538,58,37,911
732638,1962252,1997832,1965100,1997868,1589,1027,-2251,2286,-3098,108,2687,-1284,44,49,912
733639,1962508,1998092,1965297,1998065,1339,700,-2710,1866,-3397,-1,2207,-542,44,49,912
734641,1962788,1998360,1965494,1998262,1153,618,-3229,1615,-3604,-214,2084,15,61,41,911
735642,1963016,1998616,1965691,1998459,1465,668,-3730,1432,-3804,-557,2318,75,61,41,911
736643,1963256,1998824,1965888,1998656,1372,963,-4188,1134,-4025,-935,2115,-72,39,47,916
737644,1963516,1999040,1966085,1998853,1219,904,-4622,803,-4229,-1330,1788,161,39,47,916
738645,1963776,1999196,1966282,1999050,1193,1297,-5025,485,-4370,-1544,1463,237,54,49,913
739646,1963968,1999404,1966479,1999247,1620,968,-5371,190,-4411,-1595,664,587,54,49,913
740647,1964184,1999660,1966676,1999444,1462,642,-5686,11,-4339,-1686,31,1128,40,37,911
741648,1964348,1999860,1966873,1999641,1802,990,-5964,-240,-4198,-1672,-114,1163,40,37,911
742649,1964524,2000108,1967070,1999838,1736,668,-6245,-526,-4021,-1422,-230,1417,38,40,914
743650,1964700,2000320,1967267,2000035,1747,886,-6510,-841,-3805,-1084,-291,1434,38,40,914
744651,1964908,2000496,1967464,2000232,1542,1120,-6736,-1267,-3533,-764,-299,1264,45,45,912
745652,1965096,2000668,1967661,2000429,1672,1156,-6970,-1765,-3204,-494,-317,1412,45,45,912
746653,1965288,2000860,1967858,2000626,1649,1034,-7203,-2310,-2838,-245,-313,1602,29,29,911
747654,1965528,2001080,1968055,2000823,1331,849,-7463,-2777,-2492,110,-243,2377,29,29,911
748655,1965728,2001268,1968252,2001020,1580,1053,-7736,-3111,-2194,361,219,2768,52,39,911
749656,1965940,2001428,1968449,2001217,1499,1244,-7979,-3467,-1937,381,-12,2772,52,39,911
750657,1966152,2001560,1968646,2001414,1492,1447,-8157,-3885,-1643,577,-634,2970,48,20,910
751658,1966352,2001696,1968843,2001611,1567,1449,-8349,-4110,-1359,710,-601,4201,48,20,910
752659,1966516,2001832,1969040,2001808,1807,1476,-8565,-4154,-1108,947,-893,4560,35,32,909
753660,1966700,2001948,1969237,2002005,1688,1637,-8765,-4283,-880,1306,-1143,4586,35,32,909
754661,1966888,2002048,1969434,2002202,1667,1779,-8929,-4466,-707,1564,-1131,4972,24,24,908
755662,1967092,2002140,1969631,2002399,1565,1875,-6815,-1342,-621,6152,-3011,29140,24,24,908
756663,1967244,2002304,1969828,2002596,1910,1440,-689,10456,-864,12863,-6728,32767,33,19,907
757671,1967428,2002464,1970058,2002826,1731,1496,3237,15694,-1029,4776,-1250,9175,33,19,907
758665,1967608,2002632,1970255,2003023,1764,1458,3714,13703,-1004,3861,568,-1533,45,34,907
759666,1967804,2002764,1970452,2003220,1665,1712,2469,8944,-785,4843,-981,-2500,45,34,907
760667,1967980,2002908,1970649,2003417,1799,1660,1442,5948,-319,4970,-3502,-1143,30,23,908
761668,1968152,2003020,1970846,2003614,1836,1898,757,3923,210,4431,-3266,-1412,30,23,908
762669,1968364,2003132,1971043,2003811,1580,1935,259,2180,381,4437,-2050,-1880,26,13,905
763670,1968568,2003244,1971240,2004008,1628,1972,-324,119,191,4051,-918,-1880,26,13,905
764671,1968760,2003364,1971437,2004205,1705,1956,-933,-1976,-162,3344,-337,-1115,46,25,906
765672,1968980,2003480,1971634,2004402,1521,2018,-1777,-3333,-591,3014,-954,1546,46,25,906
766673,1969184,2003612,1971831,2004599,1618,1946,-2479,-4307,-851,2403,-1142,1685,31,17,905
767674,1969392,2003764,1972028,2004796,1589,1841,-3090,-4814,-967,1815,-1090,3419,31,17,905
768675,1969564,2003912,1972225,2004993,1825,1888,-3458,-5339,-1157,1334,-764,2736,52,17,906
769676,1969804,2004036,1972422,2005190,1382,2070,-3625,-5915,-1442,507,-510,3241,52,17,906
770677,1970008,2004140,1972619,2005387,1604,2236,-3649,-6180,-1804,-48,-714,4009,37,20,905
771678,1970208,2004272,1972816,2005584,1629,2090,-3626,-6329,-2186,-664,-1381,4375,37,20,905
772679,1970468,2004404,1973013,2005781,1226,2119,-3610,-5978,-2455,-1536,-2260,6284,38,27,904
773680,1970692,2004532,1973210,2005978,1440,2174,-3597,-5183,-2581,-2119,-3185,7305,38,27,904
774681,1970864,2004688,1973407,2006175,1776,2018,-2632,-2443,-2372,-3518,-5706,23471,47,31,905
775682,1971084,2004800,1973604,2006372,1467,2330,-626,2135,-1902,-4428,-6042,32726,47,31,905
776683,1971296,2004928,1973801,2006569,1510,2261,557,4236,-1824,-2666,-2487,7396,51,34,905
777684,1971528,2005080,1973998,2006766,1371,2130,652,4059,-1998,-2264,-1995,4706,51,34,905
778685,1971804,2005228,1974195,2006963,1061,2178,426,3345,-2054,-1704,-2379,4257,36,32,904
779686,1972068,2005392,1974392,2007160,1108,2092,318,3090,-1861,-1443,-2601,4121,36,32,904
780687,1972308,2005540,1974589,2007357,1239,2214,409,2919,-1519,-1421,-2405,3208,51,25,907
781688,1972532,2005684,1974786,2007554,1327,2263,563,2434,-1212,-1181,-2250,2396,51,25,907
782689,1972728,2005816,1974983,2007751,1503,2367,715,1701,-991,-1080,-2031,1625,34,30,906
783690,1972948,2005944,1975180,2007948,1343,2422,871,745,-793,-758,-2193,1074,34,30,906
784691,1973164,2006104,1975377,2008145,1361,2239,962,-252,-614,-158,-2047,1060,38,25,903
785692,1973372,2006260,1975574,2008342,1406,2282,1004,-1207,-417,157,-1883,1085,38,25,903
786693,1973556,2006416,1975771,2008539,1563,2301,1007,-1983,-156,430,-2452,1323,42,22,905
787694,1973784,2006572,1975968,2008736,1274,2319,998,-2771,57,678,-2313,1276,42,22,905
788695,1973964,2006732,1976165,2008933,1582,2311,960,-3299,246,647,-2425,2145,31,39,904
789696,1974168,2006900,1976362,2009130,1430,2274,900,-3601,433,503,-2691,2595,31,39,904
790697,1974372,2007088,1976559,2009327,1427,2153,833,-3818,603,191,-2810,2839,41,27,904
791698,1974572,2007280,1976756,2009524,1451,2132,767,-3833,775,-345,-2855,3800,41,27,904
792699,1974780,2007456,1976953,2009721,1396,2241,691,-3597,956,-709,-2873,4364,42,31,905
793700,1975004,2007612,1977150,2009918,1285,2385,613,-3220,1134,-861,-2685,4734,42,31,905
794701,1975220,2007852,1977347,2010115,1327,1841,552,-2804,1301,-928,-2098,4760,45,40,905
795702,1975404,2008136,1977544,2010312,1533,1528,518,-2460,1440,-630,-1521,4577,45,40,905
796703,1975628,2008480,1977741,2010509,1272,1089,513,-2138,1592,-245,-1275,4519,32,63,906
797704,1975808,2008764,1977938,2010706,1555,1426,546,-1887,1765,100,-928,4127,32,63,906
798705,1976004,2009032,1978135,2010903,1455,1496,588,-1809,1895,761,-526,3558,44,64,911
799706,1976220,2009308,1978332,2011100,1323,1411,645,-1904,1976,1235,-90,3066,44,64,911
800707,1976400,2009584,1978529,2011297,1555,1376,718,-2038,2011,1369,225,2913,35,49,910
801708,1976592,2009888,1978726,2011494,1483,1155,774,-2106,2013,1339,424,2972,35,49,910
802709,1976760,2010132,1978923,2011691,1646,1510,825,-2176,2000,1212,596,3083,48,55,910
803710,1976960,2010364,1979120,2011888,1445,1569,870,-2089,1951,1387,948,3212,48,55,910
804711,1977128,2010600,1979317,2012085,1658,1528,924,-2113,1823,1516,1338,2685,48,57,909
805712,1977304,2010872,1979514,2012282,1618,1270,978,-2234,1616,1440,1581,2504,48,57,909
806713,1977484,2011124,1979711,2012479,1601,1371,1010,-2469,1334,1302,1578,2115,41,48,907
807714,1977676,2011352,1979908,2012676,1528,1507,1028,-2713,1001,1362,1466,1986,41,48,907
808715,1977828,2011564,1980105,2012873,1799,1602,1036,-2927,633,1438,1530,2006,42,45,909
809716,1978032,2011792,1980302,2013070,1471,1488,1052,-3135,233,1291,1498,1871,42,45,909
810717,1978172,2012004,1980499,2013267,1896,1582,1024,-3291,-149,1087,1192,2283,25,41,907
811718,1978328,2012204,1980696,2013464,1815,1655,925,-3304,-447,1014,638,2544,25,41,907
812719,1978512,2012404,1980893,2013661,1646,1655,786,-3251,-639,1119,-90,2573,20,34,907
813720,1978676,2012596,1981090,2013858,1786,1707,646,-3124,-715,1211,-489,2598,20,34,907
814721,1978840,2012776,1981287,2014055,1801,1790,563,-3007,-670,1178,-579,2594,31,30,907
815722,1979020,2012932,1981484,2014252,1709,1958,500,-2799,-489,1164,-794,2976,31,30,907
816723,1979180,2013120,1981681,2014449,1851,1763,440,-2562,-200,1079,-697,3016,32,30,905
817724,1979348,2013308,1981878,2014646,1814,1766,378,-2230,155,1050,-686,3267,32,30,905
818725,1979540,2013504,1982075,2014843,1667,1717,329,-1861,527,956,-579,3259,22,41,904
819726,1979704,2013680,1982272,2015040,1857,1851,288,-1508,892,918,-345,3256,22,41,904
820727,1979864,2013884,1982469,2015237,1898,1674,252,-1146,1237,958,24,3265,25,32,906
821728,1980048,2014064,1982666,2015434,1755,1832,215,-739,1577,919,218,3324,25,32,906
822729,1980200,2014240,1982863,2015631,1975,1866,194,-344,1907,786,299,3349,23,27,905
823730,1980344,2014428,1983060,2015828,2049,1795,197,18,2213,630,251,3365,23,27,905
824731,1980524,2014628,1983257,2016025,1832,1719,229,425,2502,517,8,3520,31,46,905
825732,1980684,2014852,1983454,2016222,1974,1558,283,889,2762,305,-253,3599,31,46,905
826733,1980860,2015080,1983651,2016419,1883,1519,335,1366,2966,-5,-327,3548,27,47,906
827734,1981020,2015304,1983848,2016616,2000,1532,330,1881,3066,-285,-193,3755,27,47,906
828735,1981192,2015556,1984045,2016813,1936,1334,261,2423,3048,-452,-159,3939,24,37,905
829736,1981332,2015772,1984242,2017010,2162,1551,176,2923,2966,-518,-364,3820,24,37,905
830737,1981476,2016024,1984439,2017207,2161,1301,104,3340,2839,-559,-611,3425,40,50,907
831738,1981620,2016288,1984636,2017404,2185,1197,33,3585,2671,-563,-804,2979,40,50,907
832739,1981748,2016548,1984833,2017601,2315,1195,-80,3741,2515,-453,-1188,2787,33,57,905
833740,1981900,2016832,1985030,2017798,2186,1007,-257,3812,2366,-387,-1305,2547,33,57,905
834741,1982020,2017144,1985227,2017995,2421,781,-453,3754,2175,-342,-969,2098,41,42,906
835742,1982156,2017324,1985424,2018192,2348,1614,-658,3558,1931,-283,-448,1729,41,42,906
836743,1982320,2017460,1985621,2018389,2188,1916,-875,3259,1679,-146,-488,1613,26,31,907
837744,1982520,2017624,1985818,2018586,1963,1755,-1082,2941,1467,27,-897,1611,26,31,907
838745,1982704,2017808,1986015,2018783,2069,1637,-1246,2696,1346,211,-1210,1705,30,43,901
839746,1982848,2018012,1986212,2018980,2343,1509,-1389,2398,1291,437,-1041,1558,30,43,901
840754,1983036,2018232,1986442,2019210,2086,1413,-1509,1979,1258,571,-639,1485,27,33,904
841748,1983196,2018468,1986639,2019407,2279,1296,-1599,1551,1226,708,-414,1635,27,33,904
842749,1983340,2018712,1986836,2019604,2403,1225,-1642,1181,1223,846,-349,1906,46,48,905
843750,1983508,2018904,1987033,2019801,2266,1553,-1649,952,1269,903,-256,2449,46,48,905
844750,1983656,2019200,1987230,2019998,2413,860,-1618,795,1310,856,-40,2915,27,48,905
845752,1983792,2019488,1987427,2020195,2516,870,-1597,819,1293,713,426,3392,27,48,905
846753,1983964,2019712,1987624,2020392,2302,1258,-1108,1753,1245,949,424,10872,43,45,906
847754,1984104,2019932,1987821,2020589,2528,1273,707,5708,1265,1032,-493,32767,43,45,906
848755,1984220,2020160,1988018,2020786,2715,1210,2176,8438,1164,212,781,11785,20,52,904
849756,1984356,2020364,1988215,2020983,2617,1357,2309,8565,893,242,1494,2721,20,52,904
850757,1984504,2020592,1988412,2021180,2564,1193,1734,7469,603,339,1123,2405,18,47,901
851758,1984644,2020760,1988609,2021377,2640,1582,1099,6727,333,173,1122,2748,18,47,901
852759,1984812,2020920,1988806,2021574,2479,1648,654,6285,-29,-513,2048,1979,28,27,903
853760,1984972,2021072,1989003,2021771,2546,1718,288,5688,-621,-811,3000,1412,28,27,903
854761,1985120,2021244,1989200,2021968,2642,1604,-132,5033,-1330,-1119,3074,1727,44,30,902
855762,1985288,2021480,1989397,2022165,2531,1187,-661,4438,-1931,-1432,2412,2333,44,30,902
856763,1985452,2021692,1989594,2022362,2572,1330,-1229,3977,-2368,-1259,1633,2550,44,41,901
857764,1985612,2021920,1989791,2022559,2614,1216,-1655,3367,-2665,-1356,1469,2322,44,41,901
858765,1985768,2022144,1989988,2022756,2657,1229,-1009,3993,-2646,-2208,-578,15668,43,50,903
859766,1985952,2022364,1990185,2022953,2489,1245,820,6419,-2230,-2903,-2851,27820,43,50,903
860767,1986112,2022560,1990382,2023150,2656,1396,2055,7117,-1894,-1612,-1171,6903,47,41,902
861768,1986276,2022788,1990579,2023347,2646,1182,2061,5782,-1771,-918,-617,960,47,41,902
862769,1986456,2023032,1990776,2023544,2555,1062,1569,3698,-1736,-469,-809,137,27,41,900
863770,1986620,2023240,1990973,2023741,2670,1282,1107,2155,-1635,-657,-1043,1091,27,41,900
864771,1986788,2023448,1991170,2023938,2658,1277,822,1019,-1458,-892,-1063,1320,45,36,903
865772,1986980,2023656,1991367,2024135,2511,1272,653,151,-1322,-679,-1109,3304,45,36,903
866773,1987172,2023848,1991564,2024332,2515,1374,747,-189,-1268,-757,-376,8012,28,37,903
867774,1987348,2024028,1991761,2024529,2625,1457,1046,-257,-1342,-922,169,10129,28,37,903
868775,1987536,2024252,1991958,2024726,2555,1170,1085,-329,-1565,-972,509,7480,43,49,903
869776,1987700,2024484,1992155,2024923,2720,1105,726,-679,-1800,-1241,763,5227,43,49,903
870777,1987876,2024724,1992352,2025120,2654,1037,173,-854,-2018,-1209,817,5824,44,34,902
871778,1988052,2024900,1992549,2025317,2665,1446,-225,-894,-2234,-1369,738,6822,44,34,902
872779,1988236,2025084,1992746,2025514,2621,1401,-285,-743,-2397,-1418,163,8912,48,43,901
873780,1988400,2025244,1992943,2025711,2762,1568,-153,-446,-2514,-1161,-428,8801,48,43,901
874781,1988620,2025384,1993140,2025908,2403,1718,-63,-463,-2557,-1090,-561,6454,49,32,901
875782,1988804,2025488,1993337,2026105,2635,1984,-105,-715,-2502,-1064,-634,5153,49,32,901
876783,1989020,2025604,1993534,2026302,2427,1944,-217,-1150,-2401,-951,-478,3942,51,25,900
877784,1989244,2025732,1993731,2026499,2365,1900,-339,-1674,-2322,-908,-83,3583,51,25,900
878785,1989448,2025840,1993928,2026696,2488,2064,-418,-2152,-2276,-877,137,3483,49,19,898
879786,1989636,2025940,1994125,2026893,2593,2157,-457,-2678,-2260,-864,156,3258,49,19,898
880787,1989832,2026036,1994322,2027090,2545,2227,-483,-3124,-2252,-964,-136,3859,51,27,901
881788,1990040,2026132,1994519,2027287,2466,2271,-446,-3347,-2199,-896,-716,4908,51,27,901
882789,1990244,2026212,1994716,2027484,2489,2422,-260,-3218,-2141,-641,-951,7045,35,19,898
883790,1990464,2026324,1994913,2027681,2380,2260,87,-2729,-2161,-551,-583,8968,35,19,898
884791,1990692,2026428,1995110,2027878,2316,2352,375,-2354,-2205,-926,-549,6958,55,13,897
885792,1990916,2026508,1995307,2028075,2330,2553,452,-2289,-2230,-1234,-498,4873,55,13,897
886793,1991132,2026600,1995504,2028272,2373,2524,412,-2489,-2265,-1359,-141,4151,57,22,899
887794,1991372,2026684,1995701,2028469,2205,2625,369,-2613,-2259,-1238,-275,4081,57,22,899
888795,1991588,2026768,1995898,2028666,2348,2675,356,-2769,-2197,-1149,-533,3738,40,14,897
889796,1991832,2026856,1996095,2028863,2153,2697,348,-2926,-2116,-1170,-662,3718,40,14,897
890797,1992096,2026964,1996292,2029060,1998,2613,349,-3102,-2009,-1007,-910,3490,38,13,897
891798,1992328,2027072,1996489,2029257,2184,2652,351,-3337,-1877,-843,-963,3233,38,13,897
892799,1992576,2027184,1996686,2029454,2063,2664,336,-3528,-1745,-798,-903,3498,43,31,897
893800,1992828,2027328,1996883,2029651,2014,2488,319,-3656,-1624,-638,-732,3495,43,31,897
894801,1993060,2027460,1997080,2029848,2124,2592,310,-3730,-1545,-478,-432,3620,60,25,896
895802,1993300,2027588,1997277,2030045,2056,2648,303,-3661,-1530,-357,-14,4028,60,25,896
896803,1993584,2027712,1997474,2030242,1744,2705,272,-3501,-1529,-235,-106,4304,40,24,899
897804,1993848,2027832,1997671,2030439,1841,2765,241,-3297,-1510,-131,-320,4267,40,24,899
898805,1994096,2027932,1997868,2030636,1918,2933,215,-3188,-1528,-64,-203,3912,47,30,898
899806,1994388,2028044,1998065,2030833,1602,2896,224,-3184,-1576,57,-456,3629,47,30,898
900807,1994668,2028180,1998262,2031030,1642,2773,242,-3192,-1591,201,-655,3584,59,25,898
901808,1994924,2028308,1998459,2031227,1767,2854,274,-3240,-1606,288,-516,3425,59,25,898
902809,1995228,2028452,1998656,2031424,1420,2778,315,-3275,-1623,518,-531,3375,62,25,899
903810,1995528,2028592,1998853,2031621,1401,2829,374,-3282,-1629,684,-429,3352,62,25,899
904811,1995804,2028752,1999050,2031818,1517,2721,439,-3332,-1692,763,-163,3216,48,22,898
905812,1996076,2028908,1999247,2032015,1509,2764,507,-3380,-1767,886,-296,3184,48,22,898
906813,1996388,2029060,1999444,2032212,1209,2810,590,-3454,-1799,1064,-443,2943,46,28,899
907814,1996664,2029204,1999641,2032409,1400,2883,662,-3570,-1845,1097,-459,2888,46,28,899
908815,1996928,2029344,1999838,2032606,1446,2934,720,-3614,-1892,976,-676,3038,46,32,899
909816,1997236,2029520,2000035,2032803,1123,2719,761,-3630,-1907,891,-901,3075,46,32,899
910817,1997504,2029700,2000232,2033000,1342,2702,793,-3567,-1934,951,-741,3147,49,35,901
911818,1997780,2029872,2000429,2033197,1259,2764,819,-3451,-1986,858,-602,3324,49,35,901
912819,1998080,2030048,2000626,2033394,1063,2748,848,-3282,-2032,763,-745,3432,46,38,903
913820,1998352,2030232,2000823,2033591,1206,2705,879,-3104,-2049,682,-799,3251,46,38,903
914821,1998636,2030404,2001020,2033788,1093,2792,933,-2966,-2064,518,-612,3126,50,29,902
915822,1998896,2030580,2001217,2033985,1215,2776,1002,-2857,-2091,454,-632,2913,50,29,902
916823,1999160,2030748,2001414,2034182,1162,2840,1078,-2811,-2078,306,-848,2723,64,39,901
917824,1999400,2030908,2001611,2034379,1293,2907,1155,-2797,-2026,149,-733,2583,64,39,901
918825,1999696,2031108,2001808,2034576,901,2656,1233,-2804,-1974,90,-616,2469,48,43,900
919826,1999928,2031308,2002005,2034773,1285,2655,1289,-2753,-1892,90,-659,2588,48,43,900
920827,2000160,2031520,2002202,2034970,1271,2575,1275,-2602,-1769,72,-534,2994,44,44,901
921828,2000412,2031720,2002399,2035167,1122,2648,1155,-2340,-1667,-114,-211,3095,44,44,901
922828,2000640,2031892,2002596,2035364,1258,2835,996,-2134,-1640,-300,199,2743,46,35,903
923839,2000852,2032132,2002826,2035594,1367,2407,874,-2108,-1667,-389,391,2220,46,35,903
924830,2001100,2032356,2003023,2035791,1120,2495,798,-2227,-1656,-464,129,1968,44,53,904
925832,2001364,2032576,2003220,2035988,990,2511,751,-2309,-1538,-534,-264,2009,44,53,904
926833,2001608,2032820,2003417,2036185,1095,2341,704,-2355,-1332,-441,-422,2051,38,37,905
927834,2001864,2033028,2003614,2036382,995,2561,689,-2362,-1102,-421,-283,1924,38,37,905
928835,2002104,2033248,2003811,2036579,1076,2477,688,-2404,-881,-464,-138,1863,47,50,905
929836,2002320,2033456,2004008,2036776,1218,2547,689,-2517,-677,-465,7,1628,47,50,905
930837,2002600,2033696,2004205,2036973,782,2330,680,-2674,-482,-431,192,1564,40,40,905
931838,2002864,2033972,2004402,2037170,852,2071,652,-2797,-281,-371,346,1607,40,40,905
932839,2003104,2034220,2004599,2037367,984,2223,588,-2909,-92,-326,454,1700,52,40,904
933840,2003360,2034416,2004796,2037564,859,2550,502,-2960,79,-320,621,1863,52,40,904
934841,2003640,2034628,2004993,2037761,672,2443,417,-3022,231,-330,761,1835,46,52,909
935842,2003896,2034872,2005190,2037958,796,2224,351,-3119,375,-245,844,1762,46,52,909
936843,2004112,2035096,2005387,2038155,1039,2338,271,-3179,500,-261,984,1975,58,56,906
937844,2004384,2035356,2005584,2038352,656,2085,174,-3181,607,-187,1183,2098,58,56,906
938845,2004628,2035556,2005781,2038549,810,2460,51,-3224,697,-75,1291,2135,49,39,907
939846,2004844,2035764,2005978,2038746,977,2405,-86,-3245,771,68,1472,2128,49,39,907
940847,2005080,2035960,2006175,2038943,836,2481,-243,-3291,823,271,1621,1894,46,38,908
941848,2005272,2036188,2006372,2039140,1113,2269,-397,-3396,873,507,1591,1942,46,38,908
942849,2005464,2036428,2006569,2039337,1115,2175,-538,-3493,949,653,1481,2095,42,39,906
943850,2005660,2036656,2006766,2039534,1091,2237,-688,-3571,1032,895,1259,2143,42,39,906
944851,2005848,2036876,2006963,2039731,1144,2277,-848,-3597,1130,1153,1185,2317,31,54,906
945852,2006044,2037076,2007160,2039928,1096,2402,-1008,-3686,1236,1363,1165,2274,31,54,906
946853,2006224,2037300,2007357,2040125,1203,2240,-1180,-3686,1328,1516,962,2421,41,43,907
947854,2006416,2037504,2007554,2040322,1131,2363,-1369,-3698,1410,1524,838,2482,41,43,907
948855,2006600,2037732,2007751,2040519,1186,2199,-1575,-3761,1483,1572,633,2495,43,34,906
949856,2006788,2037944,2007948,2040716,1166,2294,-1791,-3816,1536,1725,387,2565,43,34,906
950857,2006948,2038132,2008145,2040913,1358,2448,-2017,-3873,1575,1844,285,2533,24,35,904
951858,2007132,2038320,2008342,2041110,1213,2453,-2238,-3949,1605,2039,119,2621,24,35,904
952859,2007316,2038484,2008539,2041307,1219,2617,-2465,-4026,1614,2178,-63,2633,26,45,906
953860,2007464,2038672,2008736,2041504,1465,2472,-2703,-4062,1619,2161,-330,2867,26,45,906
954861,2007628,2038860,2008933,2041701,1381,2477,-2943,-3980,1616,1928,-697,3188,40,34,905
955862,2007796,2039028,2009130,2041898,1369,2615,-3174,-3898,1600,1706,-917,3258,40,34,905
956863,2007944,2039188,2009327,2042095,1515,2682,-3378,-3841,1583,1794,-1111,3400,21,38,902
957864,2008096,2039352,2009524,2042292,1510,2671,-3546,-3845,1549,1931,-941,3346,21,38,902
958865,2008252,2039536,2009721,2042489,1504,2553,-3665,-3823,1475,1982,-794,3458,41,25,903
959866,2008412,2039696,2009918,2042686,1495,2719,-3748,-3826,1384,2039,-753,3482,41,25,903
960867,2008576,2039844,2010115,2042883,1485,2817,-3806,-3819,1292,2089,-640,3710,41,39,900
961868,2008724,2039972,2010312,2043080,1607,2972,-3826,-3785,1207,2160,-606,4069,41,39,900
962869,2008880,2040140,2010509,2043277,1575,2736,-2273,-1174,1095,3990,-477,27327,33,22,899
963870,2009052,2040300,2010706,2043474,1486,2803,993,4843,945,4133,-1000,32767,33,22,899
964871,2009224,2040472,2010903,2043671,1497,2739,2795,7046,741,2264,-116,4787,28,28,898
965872,2009412,2040612,2011100,2043868,1402,2965,2847,5653,591,2493,211,24,28,28,898
966873,2009580,2040752,2011297,2044065,1540,2990,2369,3185,462,2819,16,-655,33,36,900
967874,2009752,2040912,2011494,2044262,1526,2883,1992,1708,378,2465,-377,691,33,36,900
968875,2009944,2041036,2011691,2044459,1404,3141,1765,828,390,1907,-656,1004,41,33,900
969876,2010120,2041196,2011888,2044656,1513,2932,1488,465,392,1703,-805,2117,41,33,900
970877,2010300,2041328,2012085,2044853,1496,3137,1115,36,329,981,-298,1991,43,19,900
971878,2010488,2041444,2012282,2045050,1451,3273,775,-593,211,428,-165,1788,43,19,900
972879,2010676,2041600,2012479,2045247,1455,3041,414,-1160,64,101,-177,2208,46,24,897
973880,2010856,2041720,2012676,2045444,1512,3301,84,-1660,-48,-612,-79,2393,46,24,897
974881,2011052,2041844,2012873,2045641,1414,3309,-276,-1795,-130,-1005,-181,3588,40,31,896
975882,2011240,2041984,2013070,2045838,1468,3235,-640,-1826,-185,-1324,-374,3691,40,31,896
976883,2011408,2042092,2013267,2046035,1606,3474,-990,-1700,-171,-1642,-457,4599,39,17,895
977884,2011620,2042200,2013464,2046232,1325,3514,-1253,-1475,-123,-1837,-322,4514,39,17,895
978885,2011808,2042304,2013661,2046429,1479,3581,-1416,-1403,-23,-2028,-398,4465,48,11,896
979885,2011992,2042404,2013858,2046626,1511,3650,-1527,-1223,158,-2234,-333,4926,48,11,896
980887,2012192,2042524,2014055,2046823,1409,3559,-1608,-1138,386,-2382,-353,4646,39,14,894
981888,2012372,2042644,2014252,2047020,1542,3594,-1653,-934,638,-2524,-324,5391,39,14,894
982889,2012536,2042764,2014449,2047217,1657,3628,-1553,-665,894,-2191,60,6351,45,20,891
983890,2012700,2042904,2014646,2047414,1672,3529,-862,638,1087,-706,594,16247,45,20,891
984891,2012908,2043048,2014843,2047611,1392,3529,38,2143,1213,-594,971,12915,36,19,891
985892,2013080,2043200,2015040,2047808,1629,3500,413,2290,1360,-1372,1033,4132,36,19,891
986893,2013264,2043368,2015237,2048005,1560,3412,388,1574,1523,-1213,1056,3254,47,21,893
987894,2013444,2043504,2015434,2048202,1592,3640,291,706,1688,-1125,937,3002,47,21,893
988895,2013620,2043628,2015631,2048399,1627,3748,249,109,1866,-1022,676,3230,49,34,893
989896,2013776,2043768,2015828,2048596,1770,3674,238,-398,2050,-837,366,3115,49,34,893
990897,2013968,2043904,2016025,2048793,1548,3727,214,-899,2233,-642,315,3168,29,29,892
991898,2014104,2044052,2016222,2048990,1925,3675,174,-1433,2409,-450,59,3128,29,29,892
992899,2014236,2044204,2016419,2049187,1979,3670,133,-2070,2562,-567,-365,2956,26,22,891
993900,2014396,2044368,2016616,2049384,1821,3611,92,-2661,2656,-736,-584,3269,26,22,891
994901,2014572,2044528,2016813,2049581,1730,3653,59,-3206,2712,-698,-663,3428,29,39,886
995901,2014736,2044688,2017010,2049778,1821,3670,8,-3605,2755,-527,-816,3889,29,39,886
996903,2014920,2044852,2017207,2049975,1702,3661,-71,-3845,2810,-433,-992,4464,29,21,891
997904,2015068,2045008,2017404,2050172,1949,3730,-172,-4007,2870,-383,-1161,4615,29,21,891
998918,2015228,2045152,2017601,2050369,1890,3800,-270,-4100,2928,-246,-1303,4839,46,37,891
999906,2015396,2045336,2017798,2050566,1853,3586,-335,-4249,2957,-172,-1109,4646,46,37,891
1000907,2015568,2045528,2017995,2050763,1840,3539,-376,-4457,2953,23,-962,4548,25,35,890
1001908,2015736,2045716,2018192,2050960,1878,3569,-402,-4661,2933,66,-997,4586,25,35,890
1002909,2015908,2045912,2018389,2051157,1865,3520,-412,-4826,2902,119,-833,4850,28,39,892
1003910,2016048,2046108,2018586,2051354,2090,3522,-416,-4874,2847,180,-675,5028,28,39,892
1004911,2016192,2046300,2018783,2051551,2089,3550,-381,-4895,2814,319,-586,4913,32,46,888
1005912,2016336,2046512,2018980,2051748,2112,3419,-315,-4975,2797,359,-368,4970,32,46,888
1006920,2016480,2046716,2019210,2051978,2151,3482,-226,-5063,2765,289,-189,4989,34,50,888
1007914,2016616,2046924,2019407,2052175,2228,3453,-117,-5129,2716,208,-188,4992,34,50,888
1008915,2016768,2047188,2019604,2052372,2149,3075,-1,-5193,2675,278,-332,4960,27,44,891
1009916,2016932,2047476,2019801,2052569,2088,2886,133,-5256,2655,407,-298,4904,27,44,891
1010917,2017084,2047748,2019998,2052766,2184,2954,281,-5314,2638,584,-244,4925,25,46,891
1011918,2017228,2047980,2020195,2052963,2257,3189,444,-5339,2620,844,-149,4761,25,46,891
1012919,2017380,2048272,2020392,2053160,2228,2774,612,-5397,2620,852,-271,4894,26,48,897
1013920,2017532,2048616,2020589,2053357,2249,2385,772,-5348,2649,601,-790,5212,26,48,897
1014921,2017656,2048936,2020786,2053554,2456,2481,925,-5185,2695,432,-1210,5339,25,63,894
1015922,2017804,2049228,2020983,2053751,2329,2615,1091,-5000,2745,544,-1248,5218,25,63,894
1016923,2017952,2049552,2021180,2053948,2350,2360,1267,-4841,2796,837,-1166,5103,21,71,898
1017924,2018096,2049892,2021377,2054145,2399,2198,1430,-4612,2839,961,-1393,5236,21,71,898
1018925,2018280,2050248,2021574,2054342,2156,2030,1567,-4341,2892,865,-1816,5324,45,60,898
1019926,2018460,2050548,2021771,2054539,2189,2335,1707,-4048,2941,736,-2062,5092,45,60,898
1020927,2018648,2050828,2021968,2054736,2143,2424,1866,-3803,2991,657,-1909,5001,43,56,900
1021928,2018844,2051140,2022165,2054933,2095,2174,2041,-3529,3047,453,-1791,5102,43,56,900
1022929,2019004,2051468,2022362,2055130,2336,2018,2233,-3232,3098,384,-1638,4835,41,57,900
1023930,2019168,2051780,2022559,2055327,2327,2068,2439,-2979,3123,628,-1381,4644,41,57,900
1024931,2019348,2052104,2022756,2055524,2234,1937,2644,-2711,3109,1106,-691,4453,45,66,902
1025932,2019548,2052416,2022953,2055721,2109,1963,2863,-2542,3063,1576,26,4079,45,66,902
1026933,2019768,2052768,2023150,2055918,1975,1645,3090,-2297,3028,1511,223,4137,38,53,900
1027934,2019972,2053112,2023347,2056115,2072,1631,3306,-1994,3013,1140,204,4151,38,53,900
1028935,2020160,2053424,2023544,2056312,2177,1782,3495,-1544,3007,932,120,4327,35,58,902
1029936,2020340,2053792,2023741,2056509,2235,1356,3668,-1097,3011,827,241,4109,35,58,902
1030937,2020532,2054176,2023938,2056706,2162,1175,3826,-728,2996,870,335,3965,31,69,905
1031938,2020720,2054532,2024135,2056903,2192,1280,3965,-308,2982,1116,67,3884,31,69,905
1032939,2020920,2054848,2024332,2057100,2117,1479,4085,151,3013,1341,-277,3597,30,70,905
1033940,2021160,2055192,2024529,2057297,1848,1240,4191,578,3055,1327,-340,3435,30,70,905
1034941,2021344,2055596,2024726,2057494,2205,774,4288,989,3084,1006,-512,3161,38,66,906
1035942,2021532,2055956,2024923,2057691,2185,978,4369,1459,3099,694,-796,3229,38,66,906
1036943,2021712,2056288,2025120,2057888,2242,1094,4456,1821,3125,762,-839,2725,32,57,909
1037944,2021932,2056600,2025317,2058085,1983,1168,4522,2133,3167,1069,-896,2523,32,57,909
1038945,2022152,2056972,2025514,2058282,1973,717,4569,2392,3179,1467,-680,1994,32,67,906
1039946,2022364,2057332,2025711,2058479,2017,721,4610,2524,3120,1897,-345,1479,32,67,906
1040947,2022588,2057692,2025908,2058676,1931,649,4627,2605,3010,2036,-270,1391,57,62,908
1041948,2022816,2058008,2026105,2058873,1893,872,4618,2738,2946,1966,-601,1370,57,62,908
1042949,2023004,2058348,2026302,2059070,2148,660,4591,2912,2906,1730,-422,1329,33,56,910
1043950,2023216,2058688,2026499,2059267,1992,597,4533,3053,2816,1430,-289,1197,33,56,910
1044951,2023408,2059000,2026696,2059464,2119,721,4439,3168,2653,1533,-294,1042,39,65,910
1045952,2023656,2059272,2026893,2059661,1748,938,4297,3287,2408,1996,-158,902,39,65,910
1046953,2023924,2059552,2027090,2059858,1593,852,4121,3487,2192,2145,-404,991,38,51,911
1047954,2024140,2059852,2027287,2060055,1909,682,3946,3791,2058,1870,-912,1049,38,51,911
1048955,2024364,2060144,2027484,2060252,1849,690,3770,4137,1965,1374,-1139,1309,41,52,909
1049956,2024604,2060404,2027681,2060449,1730,862,3554,4497,1822,1127,-675,1385,41,52,909
1050957,2024800,2060640,2027878,2060646,2006,995,3309,4790,1563,1224,-141,813,39,42,909
1051958,2025056,2060904,2028075,2060843,1605,791,3025,5061,1260,1550,-152,808,39,42,909
1052959,2025324,2061156,2028272,2061040,1500,842,2723,5357,1023,1672,-473,885,60,49,911
1053960,2025580,2061436,2028469,2061237,1550,630,2431,5674,849,1350,-616,806,60,49,911
1054961,2025800,2061656,2028666,2061434,1765,995,2138,5902,647,963,-170,397,44,51,912
1055962,2026052,2061876,2028863,2061631,1542,985,1819,5912,367,864,499,-251,44,51,912
1056963,2026280,2062120,2029060,2061828,1678,814,1455,5695,-1,1102,1018,-733,44,49,913
1057964,2026516,2062368,2029257,2062025,1612,767,1047,5421,-361,1603,1124,-840,44,49,913
1058965,2026816,2062628,2029454,2062222,1167,664,592,5227,-672,1836,1024,-586,53,49,911
1059966,2027048,2062904,2029651,2062419,1577,529,123,5002,-965,1623,987,-770,53,49,911
1060967,2027292,2063112,2029848,2062616,1482,950,-308,4613,-1283,1216,1310,-1155,59,42,910
1061968,2027524,2063320,2030045,2062813,1542,945,-741,4136,-1705,876,1894,-1446,59,42,910
1062969,2027756,2063572,2030242,2063010,1527,645,-1182,3547,-2258,539,2458,-1722,62,46,913
1063970,2028016,2063848,2030439,2063207,1325,460,-1673,2968,-2826,187,2524,-1242,62,46,913
1064971,2028284,2064084,2030636,2063404,1244,693,-2214,2580,-3317,-15,2238,-621,59,46,912
1065972,2028532,2064316,2030833,2063601,1348,702,-2726,2338,-3719,-252,1997,-385,59,46,912
1066973,2028748,2064516,2031030,2063798,1539,901,-3226,2136,-4053,-504,2008,-261,52,43,915
1067974,2029000,2064696,2031227,2063995,1291,1033,-3726,1828,-4354,-750,1991,-376,52,43,915
1068975,2029280,2064848,2031424,2064192,1080,1228,-4197,1519,-4634,-1061,1878,-209,49,30,914
1069976,2029512,2065076,2031621,2064389,1364,740,-4635,1258,-4823,-1251,1382,265,49,30,914
1070977,2029728,2065320,2031818,2064586,1457,618,-5056,1043,-4909,-1377,762,549,45,30,912
1071978,2029952,2065536,2032015,2064783,1395,785,-5430,792,-4923,-1603,309,682,45,30,912
1072979,2030132,2065728,2032212,2064980,1679,937,-5747,512,-4869,-1602,-164,823,31,43,912
1073980,2030316,2065908,2032409,2065177,1659,1019,-6018,158,-4767,-1370,-295,723,31,43,912
1074981,2030512,2066072,2032606,2065374,1585,1134,-6252,-308,-4614,-1160,-360,550,28,34,913
1075982,2030704,2066228,2032803,2065571,1613,1202,-6446,-856,-4383,-909,-567,856,28,34,913
1076983,2030860,2066432,2033000,2065768,1856,899,-6653,-1451,-4040,-675,-740,1112,42,35,911
1077984,2031044,2066632,2033197,2065965,1688,921,-6860,-2104,-3627,-316,-671,1077,42,35,911
1078985,2031220,2066812,2033394,2066162,1747,1054,-7107,-2630,-3218,244,-486,1848,39,24,910
1079986,2031440,2066984,2033591,2066359,1462,1115,-7389,-3065,-2908,480,182,2200,39,24,910
1080987,2031668,2067124,2033788,2066556,1399,1340,-7634,-3590,-2650,404,-187,2056,30,19,911
1081988,2031872,2067260,2033985,2066753,1546,1392,-7819,-4142,-2329,588,-535,2609,30,19,911
1082989,2032052,2067400,2034182,2066950,1705,1392,-7998,-4480,-1997,707,-415,3636,46,28,910
1083990,2032220,2067516,2034379,2067147,1792,1577,-8155,-4693,-1627,813,-802,3962,46,28,910
1084991,2032376,2067632,2034576,2067344,1885,1613,-8298,-4845,-1235,1114,-958,4544,39,17,909
1085992,2032540,2067740,2034773,2067541,1851,1702,-8445,-4883,-896,1357,-832,5078,39,17,909
1086993,2032780,2067892,2034970,2067738,1357,1447,-8430,-4899,-596,2029,-1042,5900,25,27,907
1087994,2032884,2068056,2035167,2067935,2249,1386,-4482,2115,-532,10014,-3972,32767,25,27,907
1088995,2033092,2068200,2035364,2068132,1594,1535,1808,13375,-666,10331,-5662,32767,46,34,905
1090003,2033288,2068348,2035594,2068362,1685,1546,4661,16412,-578,3828,-692,1597,46,34,905
1090997,2033488,2068480,2035791,2068559,1659,1674,4048,12826,-296,3873,-564,-1713,38,28,905
1091998,2033664,2068588,2035988,2068756,1818,1863,2899,8441,-98,4287,-1336,-2965,38,28,905
1092999,2033868,2068696,2036185,2068953,1641,1902,2043,5634,151,4409,-2069,-1099,38,26,907
1094000,2034088,2068800,2036382,2069150,1531,1968,1626,3742,477,4277,-2061,-2127,38,26,907
1095001,2034260,2068912,2036579,2069347,1843,1956,922,2267,667,4385,-2138,108,27,30,904
1096002,2034452,2069020,2036776,2069544,1720,2020,157,784,567,3448,-687,-415,27,30,904
1097003,2034668,2069136,2036973,2069741,1562,2005,-650,-877,254,2987,-578,234,32,25,906
1098004,2034876,2069280,2037170,2069938,1608,1854,-1397,-2211,-60,2680,-1125,784,32,25,906
1099005,2035060,2069404,2037367,2070135,1763,2011,-2029,-3394,-267,1841,-662,1392,31,32,905
1100006,2035300,2069536,2037564,2070332,1395,1989,-2493,-4205,-544,1405,-99,2152,31,32,905
1101006,2035524,2069664,2037761,2070529,1484,2045,-2811,-5228,-886,824,175,1382,42,17,905
1102008,2035732,2069796,2037958,2070726,1580,2049,-2973,-5970,-1167,-5,-210,3028,42,17,905
1103009,2035984,2069916,2038155,2070923,1281,2158,-3051,-6254,-1430,-666,-882,3856,44,19,906
1104010,2036220,2070016,2038352,2071120,1364,2326,-3091,-6215,-1693,-1533,-1473,4902,44,19,906
1105011,2036420,2070156,2038549,2071317,1588,2101,-3127,-5656,-1894,-2297,-1921,6489,48,33,904
1106012,2036644,2070296,2038746,2071514,1426,2126,-3165,-4863,-2011,-2428,-2486,7055,48,33,904
1107013,2036828,2070416,2038943,2071711,1683,2286,-3186,-3912,-2073,-2496,-2433,7432,44,24,904
1108014,2037064,2070568,2039140,2071908,1341,2105,-3138,-3028,-2113,-2691,-2404,7279,44,24,904
1109015,2037332,2070688,2039337,2072105,1111,2339,-2912,-2151,-2124,-2741,-2761,7920,39,24,905
1110016,2037552,2070812,2039534,2072302,1400,2346,-1795,396,-1826,-3539,-5195,23472,39,24,905
1111017,2037796,2070956,2039731,2072499,1230,2246,-321,3317,-1426,-3066,-4295,18465,57,29,905
1112018,2038068,2071072,2039928,2072696,1023,2456,315,4234,-1199,-1948,-2460,5152,57,29,905
1113019,2038308,2071212,2040125,2072893,1204,2331,349,3762,-1014,-1333,-2260,3820,53,30,904
1114020,2038560,2071324,2040322,2073090,1105,2545,297,2996,-763,-692,-2388,3188,53,30,904
1115021,2038800,2071444,2040519,2073287,1162,2528,409,2364,-458,-533,-2073,2350,48,33,903
1116022,2039024,2071580,2040716,2073484,1250,2455,644,1599,-165,-491,-1794,1588,48,33,903
1117023,2039248,2071720,2040913,2073681,1238,2456,832,785,57,-62,-1439,1530,50,27,902
1118024,2039440,2071860,2041110,2073878,1441,2481,974,-175,273,255,-1382,940,50,27,902
1119025,2039656,2072020,2041307,2074075,1283,2373,1081,-1091,509,651,-1591,1177,48,37,904
1120026,2039828,2072180,2041504,2074272,1569,2390,1152,-1978,717,832,-1583,1238,48,37,904
1121027,2040016,2072340,2041701,2074469,1474,2406,1174,-2708,919,852,-2035,1768,31,28,903
1122028,2040208,2072496,2041898,2074666,1451,2450,1161,-3274,1075,1049,-2258,2001,31,28,903
1123029,2040400,2072656,2042095,2074863,1453,2441,1136,-3760,1191,1017,-2310,2224,48,30,903
1124030,2040608,2072816,2042292,2075060,1350,2458,1100,-4070,1297,716,-2419,2859,48,30,903
1125030,2040816,2072972,2042489,2075257,1345,2502,1060,-4197,1396,471,-2546,3370,36,38,903
1126032,2040996,2073136,2042686,2075454,1527,2466,1007,-4116,1490,187,-2374,4144,36,38,903
1127033,2041184,2073312,2042883,2075651,1482,2401,928,-3786,1582,-37,-2045,4787,35,41,902
1128034,2041380,2073556,2043080,2075848,1433,1956,855,-3370,1659,-8,-1663,4844,35,41,902
1129035,2041560,2073812,2043277,2076045,1540,1856,801,-2907,1725,56,-1152,5128,28,49,903
1130036,2041720,2074068,2043474,2076242,1682,1830,763,-2422,1801,68,-643,5164,28,49,903
1131037,2041940,2074344,2043671,2076439,1297,1670,752,-2023,1872,224,-434,4868,36,61,906
1132038,2042108,2074636,2043868,2076636,1635,1529,766,-1675,1915,347,-93,4534,36,61,906
1133039,2042284,2074956,2044065,2076833,1595,1300,810,-1462,1926,508,321,4086,33,58,906
1134040,2042464,2075212,2044262,2077030,1578,1675,872,-1374,1904,723,573,3715,33,58,906
1135041,2042632,2075464,2044459,2077227,1665,1676,942,-1378,1893,943,614,3426,40,46,908
1136042,2042808,2075696,2044656,2077424,1626,1786,984,-1325,1907,1201,727,3406,40,46,908
1137043,2043000,2075956,2044853,2077621,1528,1584,997,-1337,1908,1319,992,3073,44,52,906
1138044,2043160,2076204,2045050,2077818,1744,1637,1007,-1463,1844,1284,1328,2687,44,52,906
1139045,2043332,2076460,2045247,2078015,1681,1561,1005,-1684,1697,1229,1495,2415,21,45,905
1140046,2043492,2076692,2045444,2078212,1772,1695,974,-1967,1489,1240,1516,2152,21,45,905
1141047,2043668,2076932,2045641,2078409,1682,1628,905,-2281,1254,1299,1335,2063,22,40,907
1142048,2043832,2077152,2045838,2078606,1772,1742,821,-2598,1002,1317,1225,1758,22,40,907
1143049,2043992,2077384,2046035,2078803,1813,1652,732,-2931,737,1295,1030,1699,32,53,906
1144050,2044156,2077632,2046232,2079000,1804,1531,641,-3141,486,1235,673,2103,32,53,906
1145051,2044328,2077852,2046429,2079197,1765,1696,562,-3295,236,1109,657,2213,46,34,906
1146052,2044480,2078064,2046626,2079394,1910,1739,509,-3381,-19,953,567,2364,46,34,906
1147053,2044672,2078256,2046823,2079591,1663,1866,455,-3368,-242,937,283,2606,24,34,906
1148054,2044848,2078436,2047020,2079788,1772,1950,389,-3293,-387,1010,178,2820,24,34,906
1149055,2045012,2078644,2047217,2079985,1862,1770,306,-3092,-443,1084,80,3110,40,37,904
1150056,2045168,2078860,2047414,2080182,1931,1711,238,-2908,-414,1044,-299,2959,40,37,904
1151057,2045340,2079052,2047611,2080379,1841,1864,211,-2754,-301,1029,-584,2955,35,43,905
1152058,2045480,2079240,2047808,2080576,2068,1894,202,-2508,-96,1020,-477,3377,35,43,905
1153059,2045628,2079456,2048005,2080773,2039,1710,175,-2119,180,1062,-322,3816,20,42,905
1154060,2045752,2079660,2048202,2080970,2222,1782,164,-1655,457,999,-1,3822,20,42,905
1155061,2045896,2079848,2048399,2081167,2120,1886,210,-1238,696,882,297,3660,19,34,903
1156062,2046068,2080040,2048596,2081364,1957,1864,277,-853,927,827,385,3870,19,34,903
1157063,2046204,2080248,2048793,2081561,2209,1760,319,-426,1170,848,411,4138,36,34,903
1158064,2046364,2080496,2048990,2081758,2077,1487,335,93,1389,724,492,4388,36,34,903
1159065,2046524,2080740,2049187,2081955,2093,1491,320,665,1543,479,419,4498,38,51,903
1160066,2046664,2080984,2049384,2082152,2244,1472,252,1323,1610,238,298,4700,38,51,903
1161067,2046784,2081212,2049581,2082349,2403,1558,165,1930,1594,62,277,4388,23,41,904
1162068,2046928,2081444,2049778,2082546,2277,1518,90,2410,1552,-54,-50,4151,23,41,904
1163069,2047068,2081712,2049975,2082743,2327,1262,6,2835,1501,-120,-315,4090,19,41,905
1164070,2047208,2081948,2050172,2082940,2353,1444,-111,3180,1447,-63,-621,3854,19,41,905
1165071,2047344,2082208,2050369,2083137,2405,1268,-272,3485,1408,78,-976,3724,27,42,904
1166072,2047472,2082568,2050566,2083334,2486,571,-451,3680,1365,207,-1022,3298,27,42,904
1167073,2047576,2082776,2050763,2083531,2678,1516,-627,3685,1295,300,-875,2799,24,42,904
1168074,2047744,2082920,2050960,2083728,2291,1940,-800,3569,1175,316,-411,2380,24,42,904
1169075,2047956,2083060,2051157,2083925,2010,1990,-998,3361,1037,394,-203,2299,48,28,906
1170076,2048132,2083232,2051354,2084122,2244,1801,-1204,3162,924,497,-471,2320,48,28,906
1171077,2048296,2083432,2051551,2084319,2335,1625,-1368,2959,889,679,-709,2397,49,42,899
1172078,2048472,2083624,2051748,2084516,2270,1677,-1509,2805,908,777,-419,2343,49,42,899
1173086,2048652,2083852,2051978,2084746,2267,1453,-1640,2626,911,729,7,2346,50,49,901
1174080,2048812,2084104,2052175,2084943,2409,1279,-1761,2445,885,653,60,2524,50,49,901
1175081,2048976,2084296,2052372,2085140,2399,1656,-1846,2317,873,553,17,2792,43,44,903
1176082,2049140,2084584,2052569,2085337,2414,1016,-1890,2331,910,490,-34,3227,43,44,903
1177083,2049300,2084876,2052766,2085534,2457,951,-1463,3014,1014,294,-430,9383,25,56,905
1178084,2049464,2085148,2052963,2085731,2446,1043,-73,5846,1185,-429,-664,25845,25,56,905
1179085,2049616,2085348,2053160,2085928,2542,1491,944,7591,1124,-228,999,8240,35,59,906
1180086,2049764,2085560,2053357,2086125,2589,1410,928,7383,854,-55,1586,2172,35,59,906
1181087,2049916,2085796,2053554,2086322,2584,1243,427,6451,589,82,1143,2102,23,44,904
1182088,2050064,2086020,2053751,2086519,2632,1306,-62,5880,412,-24,409,2520,23,44,904
1183089,2050228,2086236,2053948,2086716,2547,1347,-362,5506,223,-582,578,2165,26,49,901
1184090,2050412,2086424,2054145,2086913,2429,1526,-607,5088,-98,-785,978,2022,26,49,901
1185091,2050576,2086588,2054342,2087110,2568,1691,-913,4688,-531,-1081,1524,2233,28,44,903
1186092,2050760,2086776,2054539,2087307,2450,1545,-1262,4291,-960,-1546,1331,2594,28,44,903
1187093,2050928,2087040,2054736,2087504,2564,1041,-1641,4021,-1385,-1793,1387,2973,44,37,903
1188094,2051100,2087280,2054933,2087701,2550,1173,-1716,4006,-1706,-2167,757,5943,44,37,903
1189095,2051260,2087520,2055130,2087898,2642,1154,-701,6036,-1679,-3104,-1350,23716,44,38,902
1190096,2051452,2087748,2055327,2088095,2445,1215,486,7750,-1586,-2369,-526,12832,44,38,902
1191096,2051632,2087960,2055524,2088292,2529,1308,764,7352,-1640,-1706,468,1463,27,46,904
1192098,2051824,2088168,2055721,2088489,2456,1329,462,5756,-1713,-1359,-367,782,27,46,904
1193098,2051984,2088444,2055918,2088686,2673,869,134,4190,-1693,-1087,-1338,948,29,35,903
1194100,2052180,2088664,2056115,2088883,2450,1209,-38,3151,-1534,-1222,-1771,1987,29,35,903
1195101,2052372,2088888,2056312,2089080,2478,1172,-7,2448,-1332,-1240,-2036,4185,37,37,904
1196102,2052564,2089080,2056509,2089277,2480,1374,570,2365,-1147,-1614,-2722,11862,37,37,904
1197103,2052772,2089268,2056706,2089474,2376,1403,1563,2505,-1038,-1577,-2627,13051,33,40,905
1198104,2052936,2089452,2056903,2089671,2667,1434,2068,2038,-1129,-1117,-1077,5557,33,40,905
1199105,2053128,2089644,2057100,2089868,2495,1386,1847,1022,-1345,-1182,-43,1971,28,32,903
1200106,2053320,2089860,2057297,2090065,2497,1228,1299,-83,-1558,-1184,269,2009,28,32,903
1201107,2053500,2090064,2057494,2090262,2581,1300,734,-892,-1740,-1138,156,2458,29,44,902
1202108,2053692,2090252,2057691,2090459,2509,1403,232,-1473,-1873,-1206,67,3138,29,44,902
1203109,2053852,2090452,2057888,2090656,2726,1327,-150,-1749,-1979,-1050,-47,4690,44,30,903
1204110,2054040,2090600,2058085,2090853,2555,1674,-231,-1712,-2086,-448,-716,7602,44,30,903
1205111,2054244,2090756,2058282,2091050,2453,1642,136,-1231,-2180,136,-887,11974,52,25,902
1206112,2054480,2090888,2058479,2091247,2237,1820,593,-686,-2285,-14,-251,10318,52,25,902
1207113,2054668,2091028,2058676,2091444,2542,1796,704,-700,-2371,-630,46,5591,36,28,902
1208114,2054848,2091144,2058873,2091641,2599,1982,526,-1115,-2385,-882,50,4019,36,28,902
1209115,2055080,2091272,2059070,2091838,2260,1937,295,-1642,-2362,-756,62,3471,36,17,903
1210116,2055276,2091364,2059267,2092035,2486,2208,93,-2054,-2350,-677,116,3459,36,17,903
1211117,2055460,2091464,2059464,2092232,2568,2201,-58,-2398,-2320,-717,-148,3467,42,28,899
1212118,2055664,2091572,2059661,2092429,2441,2190,-171,-2715,-2273,-660,-594,3696,42,28,899
1213118,2055872,2091660,2059858,2092626,2411,2363,-263,-2990,-2217,-660,-800,4114,30,27,898
1214120,2056080,2091744,2060055,2092823,2407,2438,-300,-3156,-2148,-568,-791,4550,30,27,898
1215121,2056268,2091836,2060252,2093020,2537,2435,-217,-3196,-2076,-367,-761,5650,53,16,898
1216122,2056516,2091940,2060449,2093217,2141,2401,6,-3020,-2039,-306,-481,7113,53,16,898
1217123,2056732,2092024,2060646,2093414,2333,2575,221,-2868,-2063,-413,90,5994,48,24,897
1218124,2056916,2092112,2060843,2093611,2539,2598,308,-2931,-2143,-474,600,4294,48,24,897
1219125,2057156,2092224,2061040,2093808,2171,2487,302,-3165,-2224,-534,745,4015,49,29,899
1220126,2057380,2092328,2061237,2094005,2260,2577,258,-3329,-2253,-532,281,4109,49,29,899
1221127,2057624,2092420,2061434,2094202,2115,2699,203,-3427,-2227,-429,-327,4073,48,18,895
1222128,2057868,2092536,2061631,2094399,2095,2585,159,-3449,-2205,-415,-357,4043,48,18,895
1223129,2058112,2092660,2061828,2094596,2076,2567,114,-3534,-2206,-452,-248,3770,44,16,897
1224130,2058356,2092788,2062025,2094793,2055,2573,54,-3673,-2186,-306,-249,3620,44,16,897
1225130,2058596,2092956,2062222,2094990,2062,2336,-2,-3708,-2113,-41,-211,3780,44,19,897
1226132,2058836,2093080,2062419,2095187,2044,2643,-47,-3715,-2005,131,-182,3849,44,19,897
1227133,2059092,2093220,2062616,2095384,1919,2569,-56,-3716,-1918,143,-217,3779,56,35,897
1228134,2059388,2093332,2062813,2095581,1626,2782,-36,-3749,-1872,62,-194,3682,56,35,897
1229135,2059632,2093448,2063010,2095778,1931,2792,-6,-3702,-1863,146,-238,3909,46,20,898
1230136,2059904,2093564,2063207,2095975,1723,2829,12,-3616,-1844,373,-442,3967,46,20,898
1231137,2060204,2093700,2063404,2096172,1504,2731,8,-3534,-1814,418,-382,3907,66,35,899
1232138,2060496,2093828,2063601,2096369,1513,2812,3,-3413,-1815,437,-247,3873,66,35,899
1233139,2060768,2093996,2063798,2096566,1605,2575,-3,-3301,-1853,530,-242,3823,49,35,899
1234140,2061092,2094132,2063995,2096763,1225,2803,1,-3143,-1896,572,-329,3895,49,35,899
1235141,2061364,2094284,2064192,2096960,1517,2722,22,-3033,-1931,561,-439,3689,50,25,900
1236141,2061644,2094428,2064389,2097157,1432,2797,66,-2977,-1958,625,-533,3521,50,25,900
1237142,2061948,2094588,2064586,2097354,1235,2713,142,-2939,-1972,690,-620,3308,55,25,899
1238144,2062232,2094724,2064783,2097551,1323,2891,239,-2946,-1974,706,-738,3189,55,25,899
1239145,2062496,2094880,2064980,2097748,1418,2784,343,-2962,-1980,645,-902,3135,69,29,901
1240146,2062788,2095044,2065177,2097945,1202,2749,457,-2971,-1966,587,-1105,3113,69,29,901
1241146,2063060,2095216,2065374,2098142,1294,2710,570,-2942,-1945,615,-1125,3112,66,39,901
1242148,2063348,2095400,2065571,2098339,1155,2642,687,-2916,-1949,564,-980,3004,66,39,901
1243149,2063608,2095556,2065768,2098536,1303,2836,802,-2904,-1972,472,-942,3064,62,34,902
1244150,2063888,2095744,2065965,2098733,1142,2640,910,-2818,-1996,406,-949,3152,62,34,902
1245150,2064180,2095884,2066162,2098930,1025,2966,1000,-2709,-2013,329,-923,3180,43,44,903
1246152,2064428,2096068,2066359,2099127,1278,2697,1075,-2545,-2020,237,-857,3234,43,44,903
1247153,2064688,2096256,2066556,2099324,1176,2677,1140,-2405,-2003,103,-856,3162,53,43,902
1248154,2064936,2096428,2066753,2099521,1229,2788,1182,-2256,-1967,37,-781,3162,53,43,902
1249155,2065216,2096608,2066950,2099718,994,2746,1195,-2130,-1919,-43,-580,3054,41,34,901
1250156,2065460,2096812,2067147,2099915,1198,2594,1168,-2021,-1880,-127,-315,2968,41,34,901
1251157,2065700,2097004,2067344,2100112,1204,2671,1116,-1951,-1874,-217,-67,2755,45,48,902
1252158,2065928,2097240,2067541,2100309,1265,2380,1062,-1961,-1880,-322,85,2464,45,48,902
1253159,2066176,2097424,2067738,2100506,1119,2711,1035,-2007,-1862,-368,-14,2368,37,46,903
1254160,2066376,2097660,2067935,2100703,1418,2370,1009,-2077,-1795,-384,-152,2344,37,46,903
1255161,2066596,2097876,2068132,2100900,1283,2487,994,-2107,-1667,-426,-298,2316,40,39,905
1256171,2066872,2098084,2068362,2101130,913,2547,983,-2134,-1500,-432,-314,2210,40,39,905
1257162,2067100,2098312,2068559,2101327,1200,2409,986,-2204,-1324,-413,-214,2078,55,52,904
1258163,2067348,2098560,2068756,2101524,1052,2262,973,-2308,-1146,-426,-90,2007,55,52,904
1259165,2067588,2098772,2068953,2101721,1083,2481,953,-2447,-968,-433,50,1898,45,47,903
1260166,2067820,2098968,2069150,2101918,1119,2582,922,-2616,-794,-384,195,1819,45,47,903
1261167,2068060,2099204,2069347,2102115,1050,2316,880,-2801,-624,-347,352,1810,43,54,906
1262168,2068304,2099436,2069544,2102312,1004,2325,832,-2934,-456,-359,463,1872,43,54,906
1263169,2068548,2099680,2069741,2102509,984,2231,776,-3043,-288,-369,539,1842,46,53,904
1264170,2068788,2099908,2069938,2102706,991,2318,715,-3177,-123,-287,597,1896,46,53,904
1265171,2069052,2100120,2070135,2102903,811,2411,626,-3270,45,-214,741,2134,56,50,906
1266172,2069284,2100344,2070332,2103100,996,2326,513,-3329,199,-182,945,2190,56,50,906
1267173,2069504,2100588,2070529,2103297,1061,2180,389,-3368,322,-162,1149,2203,52,54,906
1268174,2069756,2100844,2070726,2103494,838,2080,258,-3439,432,-92,1354,2176,52,54,906
1269175,2070000,2101072,2070923,2103691,867,2241,122,-3470,522,11,1522,2268,38,58,905
1270176,2070224,2101296,2071120,2103888,980,2256,-30,-3521,606,156,1550,2170,38,58,905
1271177,2070440,2101480,2071317,2104085,1022,2511,-177,-3594,701,311,1540,2130,42,52,907
1272178,2070656,2101696,2071514,2104282,1014,2304,-326,-3684,825,511,1592,2238,42,52,907
1273179,2070844,2101936,2071711,2104479,1193,2135,-474,-3800,960,724,1622,2124,40,36,907
1274180,2071020,2102180,2071908,2104676,1278,2090,-631,-3891,1079,800,1538,2257,40,36,907
1275181,2071216,2102420,2072105,2104873,1153,2096,-781,-3947,1184,842,1477,2328,47,37,906
1276182,2071396,2102640,2072302,2105070,1261,2212,-932,-4035,1292,1015,1296,2387,47,37,906
1277183,2071576,2102852,2072499,2105267,1268,2256,-1096,-4019,1410,1149,1135,2628,45,46,906
1278184,2071776,2103068,2072696,2105464,1142,2222,-1269,-4032,1524,1201,1013,2659,45,46,906
1279185,2071964,2103304,2072893,2105661,1221,2081,-1442,-4092,1610,1257,802,2565,32,46,906
1280186,2072140,2103508,2073090,2105858,1306,2278,-1612,-4176,1666,1360,641,2503,32,46,906
1281187,2072332,2103688,2073287,2106055,1208,2437,-1795,-4213,1724,1590,294,2679,39,30,905
1282188,2072512,2103856,2073484,2106252,1291,2524,-1985,-4209,1789,1777,34,2776,39,30,905
1283189,2072680,2104032,2073681,2106449,1378,2485,-2193,-4220,1850,1844,-158,2933,36,36,904
1284190,2072864,2104208,2073878,2106646,1284,2494,-2416,-4159,1893,1863,-392,3210,36,36,904
1285191,2073040,2104412,2074075,2106843,1344,2317,-2636,-4102,1915,1898,-679,3209,37,42,903
1286192,2073196,2104564,2074272,2107040,1487,2662,-2836,-4072,1901,1861,-893,3192,37,42,903
1287193,2073376,2104748,2074469,2107237,1345,2468,-3020,-4032,1862,1854,-1141,3327,25,27,903
1288194,2073516,2104904,2074666,2107434,1620,2661,-3178,-3990,1819,1840,-1239,3422,25,27,903
1289195,2073664,2105056,2074863,2107631,1591,2707,-3308,-3912,1749,1752,-975,3664,40,40,901
1290196,2073840,2105212,2075060,2107828,1427,2700,-3383,-3877,1631,1720,-784,3514,40,40,901
1291197,2074032,2105356,2075257,2108025,1329,2799,-3433,-3806,1498,1839,-884,3923,44,31,899
1292198,2074188,2105512,2075454,2108222,1572,2742,-3348,-3635,1381,2073,-1076,4817,44,31,899
1293199,2074340,2105680,2075651,2108419,1617,2681,-1477,-126,1173,5210,-2067,32767,22,39,900
1294200,2074504,2105816,2075848,2108616,1557,2908,1337,4896,914,4411,-2696,32767,22,39,900
1295201,2074664,2105980,2076045,2108813,1598,2748,2580,6082,710,2145,-603,1943,44,25,899
1296202,2074828,2106144,2076242,2109010,1588,2763,2429,4317,573,2447,-131,11,44,25,899
1297203,2075040,2106292,2076439,2109207,1281,2886,2064,2260,446,2649,-410,-147,44,22,899
1298204,2075192,2106436,2076636,2109404,1677,2934,1793,1078,399,2217,-796,1057,44,22,899
1299205,2075368,2106564,2076833,2109601,1536,3065,1622,515,448,1733,-1317,1606,28,21,900
1300206,2075532,2106688,2077030,2109798,1626,3122,1313,325,462,1344,-1193,2722,28,21,900
1301207,2075720,2106824,2077227,2109995,1480,3075,990,-35,371,623,-480,1965,27,29,898
1302208,2075896,2106956,2077424,2110192,1565,3130,694,-639,214,465,-369,1926,27,29,898
1303209,2076104,2107080,2077621,2110389,1360,3212,419,-1183,46,285,-244,2156,48,32,895
1304210,2076284,2107192,2077818,2110586,1543,3325,120,-1573,-57,-232,-185,2816,48,32,895
1305211,2076472,2107312,2078015,2110783,1498,3309,-206,-1573,-100,-527,-553,3864,28,26,896
1306212,2076676,2107444,2078212,2110980,1395,3263,-816,-1338,-141,-1195,-100,4499,28,26,896
1307213,2076876,2107556,2078409,2111177,1418,3427,-1036,-1178,-152,-1322,63,4314,40,12,894
1308214,2077076,2107672,2078606,2111374,1417,3438,-1174,-1162,-98,-1419,-119,4332,40,12,894
1309215,2077284,2107812,2078803,2111571,1363,3313,-1269,-1030,77,-1579,-266,4779,45,21,896
1310216,2077472,2107924,2079000,2111768,1492,3527,-1331,-913,325,-1869,-359,4669,45,21,896
1311217,2077648,2108040,2079197,2111965,1576,3538,-1351,-698,579,-2182,-212,5302,32,19,892
1312218,2077852,2108156,2079394,2112162,1399,3574,-1027,-131,799,-1769,181,9231,32,19,892
1313219,2078036,2108284,2079591,2112359,1530,3530,-162,1478,939,-640,804,17336,27,32,892
1314220,2078212,2108416,2079788,2112556,1589,3535,472,2432,1068,-1258,1011,7331,27,32,892
1315221,2078396,2108552,2079985,2112753,1545,3538,583,2168,1233,-1503,1080,3771,44,19,892
1316222,2078588,2108668,2080182,2112950,1498,3699,458,1444,1412,-1197,1064,3436,44,19,892
1317223,2078748,2108788,2080379,2113147,1714,3708,359,785,1603,-1033,1184,3153,24,30,891
1318224,2078916,2108920,2080576,2113344,1677,3663,309,299,1788,-941,1224,3162,24,30,891
1319225,2079096,2109052,2080773,2113541,1610,3692,269,-251,1931,-960,1191,2862,31,20,892
1320226,2079264,2109176,2080970,2113738,1698,3775,217,-859,2055,-903,788,2967,31,20,892
1321227,2079412,2109308,2081167,2113935,1845,3755,149,-1413,2165,-673,478,3091,31,23,891
1322241,2079576,2109416,2081364,2114132,1760,3800,72,-2006,2247,-563,187,3054,31,23,891
1323229,2079736,2109564,2081561,2114329,1802,3717,-7,-2533,2341,-618,-148,3428,42,18,890
1324242,2079872,2109696,2081758,2114526,1978,3800,-98,-2959,2427,-666,-370,3711,42,18,890
1325231,2080016,2109852,2081955,2114723,1953,3715,-193,-3226,2483,-616,-534,4048,25,38,888
1326232,2080184,2110024,2082152,2114920,1815,3627,-286,-3492,2489,-596,-465,4109,25,38,888
1327233,2080336,2110180,2082349,2115117,1935,3746,-388,-3740,2494,-417,-608,4272,32,37,888
1328234,2080524,2110348,2082546,2115314,1715,3685,-495,-3979,2484,-248,-671,4374,32,37,888
1329248,2080664,2110480,2082743,2115511,2040,3800,-593,-4197,2466,-185,-707,4434,34,32,891
1330236,2080832,2110652,2082940,2115708,1879,3701,-667,-4382,2466,-44,-680,4499,34,32,891
1331237,2081000,2110812,2083137,2115905,1892,3794,-712,-4598,2447,107,-459,4400,28,25,891
1332238,2081164,2111004,2083334,2116102,1931,3597,-753,-4764,2419,287,-403,4620,28,25,891
1333239,2081316,2111196,2083531,2116299,2027,3600,-773,-4884,2401,334,-544,4599,24,26,890
1334240,2081488,2111380,2083728,2116496,1913,3657,-753,-5029,2403,290,-567,4535,24,26,890
1335241,2081608,2111564,2083925,2116693,2273,3663,-695,-5194,2420,241,-583,4602,34,29,889
1336242,2081756,2111740,2084122,2116890,2119,3724,-601,-5343,2452,200,-621,4579,34,29,889
1337243,2081904,2111936,2084319,2117087,2142,3600,-479,-5461,2481,84,-419,4635,33,27,889
1338244,2082032,2112136,2084516,2117284,2297,3575,-321,-5620,2487,98,-505,4549,33,27,889
1339252,2082156,2112344,2084746,2117514,2370,3535,-154,-5728,2504,106,-766,4750,27,50,888
1340246,2082296,2112556,2084943,2117711,2295,3505,21,-5739,2532,80,-847,4850,27,50,888
1341247,2082460,2112812,2085140,2117908,2159,3205,204,-5750,2557,163,-889,4893,41,43,887
1342248,2082592,2113096,2085337,2118105,2389,2993,395,-5740,2576,371,-1006,5016,41,43,887
1343249,2082728,2113352,2085534,2118302,2392,3143,595,-5651,2604,566,-952,5005,24,49,890
1344250,2082876,2113644,2085731,2118499,2338,2877,795,-5545,2628,533,-967,5081,24,49,890
1345251,2083020,2113944,2085928,2118696,2387,2783,1001,-5405,2658,297,-1388,5235,42,49,894
1346252,2083148,2114272,2086125,2118893,2518,2550,1189,-5141,2710,183,-1852,5487,42,49,894
1347253,2083276,2114560,2086322,2119090,2549,2761,1367,-4864,2769,534,-1832,5370,42,68,894
1348254,2083408,2114848,2086519,2119287,2553,2722,1540,-4595,2833,1011,-1676,5224,42,68,894
1349255,2083528,2115192,2086716,2119484,2662,2309,1704,-4287,2886,1250,-1633,5274,32,54,896
1350256,2083708,2115584,2086913,2119681,2296,1924,1844,-3996,2931,1335,-1836,5211,32,54,896
1351257,2083860,2115904,2087110,2119878,2491,2321,1970,-3707,2972,1430,-1947,5020,27,69,895
