"Data file recorded 2014/9/22  16:2:14"
"%  Right Stride Frequency         = 3.0"
"%  Left Stride Frequency         = 3.0"
"%  Phase (Fractional)         = 32768.0"
"%  Experiment.py "
"%  Motor Gains    = [1800, 200, 100, 0, 0, 1800, 200, 100, 0, 0]
"% Columns: "
"% time | Right Leg Pos | Left Leg Pos | Commanded Right Leg Pos | Commanded Left Leg Pos | DCR | DCL | GyroX | GryoY | GryoZ | AX | AY | AZ | RBEMF | LBEMF | VBatt "
10732,4107960,4397016,4088642,4449090,-3800,3800,-47,197,-234,242,-41,4112,0,-5,838
11726,4107984,4396996,4088839,4449287,-3800,3800,-47,202,-236,259,-57,4122,0,-5,838
12727,4107896,4397108,4089036,4449484,-3800,3800,-44,200,-238,259,-49,4088,-20,13,803
13728,4107688,4397248,4089233,4449681,-3800,3800,-48,201,-238,257,-10,4098,-20,13,803
14729,4107508,4397356,4089430,4449878,-3800,3800,-75,216,-226,319,-67,4058,-44,13,799
15730,4107248,4397512,4089627,4450075,-3800,3800,-131,142,-197,506,18,3910,-44,13,799
16731,4106892,4397672,4089824,4450272,-3800,3800,-207,32,-173,650,318,3853,-62,29,800
17732,4106540,4397900,4090021,4450469,-3800,3800,-274,-78,-162,733,591,3789,-62,29,800
18720,4106124,4398168,4090218,4450666,-3187,3800,-334,-153,-121,913,435,3897,-67,31,803
19721,4105668,4398380,4090415,4450863,-2653,3800,-407,-219,-70,1116,530,3819,-67,31,803
20722,4105200,4398604,4090612,4451060,-2289,3800,-486,-324,-10,1500,399,3793,-83,26,805
21723,4104708,4398784,4090809,4451257,-1839,3800,-527,-375,84,1794,114,3986,-83,26,805
22724,4104280,4398932,4091006,4451454,-1968,3800,-503,-345,161,1594,723,4120,-81,16,810
23725,4103868,4399080,4091203,4451651,-1802,3800,-458,-294,162,1471,1026,4197,-81,16,810
24726,4103464,4399196,4091400,4451848,-1591,3800,-454,-240,133,1726,320,4398,-79,15,809
25727,4103060,4399308,4091597,4452045,-1329,3800,-500,-33,71,1748,925,4594,-79,15,809
26728,4102732,4399408,4091794,4452242,-1575,3800,-584,210,-39,1497,1463,4632,-55,6,811
27729,4102452,4399496,4091991,4452439,-1668,3800,-702,400,-159,1285,1131,4743,-55,6,811
28731,4102200,4399592,4092188,4452636,-1647,3800,-844,592,-219,1244,947,4973,-41,10,811
29731,4101996,4399672,4092385,4452833,-1773,3800,-1029,954,-235,1317,1022,5303,-41,10,811
30732,4101796,4399744,4092582,4453030,-1626,3800,-1231,1334,-235,1232,945,5218,-29,3,810
31733,4101576,4399812,4092779,4453227,-1319,3800,-1433,1707,-207,1011,466,5233,-29,3,810
32734,4101448,4399880,4092976,4453424,-1753,3800,-1587,1964,-123,1024,-66,4960,-31,3,810
33735,4101332,4399968,4093173,4453621,-1692,3800,-1718,2234,-11,1091,-165,5060,-31,3,810
34736,4101180,4400016,4093370,4453818,-1315,3800,-1851,2462,106,960,-115,4929,-26,15,809
35737,4101092,4400088,4093567,4454015,-1591,3800,-1969,2645,214,751,-71,4751,-26,15,809
36738,4101012,4400128,4093764,4454212,-1521,3800,-2046,2772,316,580,-152,4690,-20,-4,809
37739,4100920,4400156,4093961,4454409,-1321,3800,-2104,2958,409,494,-348,4850,-20,-4,809
38740,4100872,4400212,4094158,4454606,-1489,3800,-2124,3180,481,345,-385,4831,-16,10,809
39741,4100848,4400272,4094355,4454803,-1543,3800,-2080,3371,542,148,-499,4864,-16,10,809
40742,4100812,4400312,4094552,4455000,-1367,3800,-1997,3583,613,61,-757,5152,-5,-2,810
41743,4100800,4400372,4094749,4455197,-1427,3800,-1882,3819,689,4,-935,5240,-5,-2,810
42744,4100816,4400416,4094946,4455394,-1523,3800,-1761,4113,744,-146,-1027,5330,0,10,810
43745,4100784,4400456,4095143,4455591,-1123,3800,-1615,4362,762,-289,-1189,5247,0,10,810
44746,4100788,4400488,4095340,4455788,-1265,3800,-1455,4603,739,-390,-1244,5293,3,6,809
45747,4100780,4400540,4095537,4455985,-1101,3800,-1279,4758,660,-395,-1134,5115,3,6,809
46748,4100792,4400560,4095734,4456182,-1145,3800,-1090,4858,503,-387,-852,5063,11,-7,809
47749,4100800,4400576,4095931,4456379,-1038,3800,-895,4834,268,-479,-603,4920,11,-7,809
48750,4100792,4400612,4096128,4456576,-849,3800,-714,4741,-21,-480,-499,4752,-7,13,811
49751,4100784,4400664,4096325,4456773,-760,3800,-570,4588,-317,-357,-437,4653,-7,13,811
50752,4100800,4400708,4096522,4456970,-831,3800,-460,4380,-573,-290,-389,4336,8,12,812
51753,4100788,4400756,4096719,4457167,-566,3800,-380,4039,-776,-279,-255,3986,8,12,812
52754,4100780,4400832,4096916,4457364,-501,3800,-315,3536,-943,-304,93,3693,-3,7,810
53755,4100788,4400852,4097113,4457561,-518,3800,-215,2921,-1074,-333,470,3463,-3,7,810
54756,4100792,4400928,4097310,4457758,-410,3800,-68,2258,-1170,-450,663,3220,-4,11,813
55757,4100800,4400980,4097507,4457955,-353,3800,104,1511,-1223,-649,863,3111,-4,11,813
56759,4100812,4401068,4097704,4458152,-296,3800,288,800,-1226,-745,744,3205,-4,22,813
57759,4100820,4401164,4097901,4458349,-189,3800,484,136,-1175,-869,402,3356,-4,22,813
58760,4100832,4401276,4098098,4458546,-133,3800,681,-441,-1081,-1118,-80,3606,1,17,813
59761,4100848,4401384,4098295,4458743,-79,3800,868,-959,-967,-1406,-505,3808,1,17,813
60763,4100872,4401516,4098492,4458940,-53,3800,1030,-1455,-860,-1683,-530,4045,13,28,815
61763,4100900,4401652,4098689,4459137,-5,3800,1156,-1811,-757,-1965,-380,4315,13,28,815
62764,4100928,4401796,4098886,4459334,69,3800,1248,-2097,-639,-2162,-149,4519,13,33,814
63765,4100964,4401944,4099083,4459531,89,3800,1321,-2293,-487,-2289,68,4693,13,33,814
64766,4100976,4402092,4099280,4459728,320,3800,1404,-2477,-288,-2412,238,4652,3,23,816
65767,4101044,4402268,4099477,4459925,27,3800,1502,-2643,-82,-2431,398,4606,3,23,816
66768,4101068,4402448,4099674,4460122,377,3800,1607,-2840,95,-2539,610,4487,3,37,815
67769,4101120,4402636,4099871,4460319,266,3800,1701,-2993,255,-2633,630,4456,3,37,815
68770,4101184,4402812,4100068,4460516,249,3800,1779,-3144,415,-2626,512,4437,12,23,814
69771,4101268,4402976,4100265,4460713,174,3800,1832,-3189,603,-2482,66,4582,12,23,814
70772,4101352,4403156,4100462,4460910,223,3800,1873,-3201,830,-2349,-590,4619,8,40,813
71773,4101416,4403348,4100659,4461107,406,3800,1916,-3159,1093,-2165,-1122,4575,8,40,813
72774,4101512,4403552,4100856,4461304,250,3800,1985,-3144,1353,-2021,-1271,4465,15,39,816
73775,4101604,4403796,4101053,4461501,321,3800,2079,-3161,1560,-1882,-1282,4241,15,39,816
74776,4101700,4404020,4101250,4461698,341,3800,2186,-3202,1704,-1746,-1289,3994,32,37,814
75777,4101792,4404260,4101447,4461895,412,3800,2295,-3212,1827,-1630,-1316,3904,32,37,814
76778,4101876,4404496,4101644,4462092,512,3800,2397,-3188,1929,-1468,-1230,3919,26,54,816
77779,4101976,4404748,4101841,4462289,454,3800,2483,-3146,1990,-1241,-1200,3829,26,54,816
78780,4102088,4405040,4102038,4462486,417,3800,2545,-3070,2023,-1032,-1301,3815,35,50,815
79781,4102188,4405320,4102235,4462683,534,3800,2573,-2984,2028,-839,-1383,3772,35,50,815
80782,4102292,4405592,4102432,4462880,550,3800,2587,-2885,2020,-638,-1367,3706,20,56,815
81783,4102424,4405864,4102629,4463077,404,3800,2604,-2780,2006,-465,-1114,3556,20,56,815
82784,4102540,4406124,4102826,4463274,539,3800,2626,-2671,1971,-262,-818,3454,39,53,814
83785,4102676,4406384,4103023,4463471,441,3800,2667,-2580,1921,-79,-811,3322,39,53,814
84786,4102804,4406780,4103220,4463668,521,3800,2717,-2494,1854,34,-898,3180,38,61,816
85787,4102936,4407064,4103417,4463865,525,3800,2752,-2399,1764,95,-818,3191,38,61,816
86788,4103084,4407376,4103614,4464062,446,3800,2771,-2250,1655,132,-714,3120,34,59,816
87789,4103204,4407744,4103811,4464259,655,3800,2774,-2091,1572,167,-894,3197,34,59,816
88790,4103368,4408108,4104008,4464456,395,3800,2764,-1860,1512,236,-1065,3198,20,76,817
89791,4103496,4408480,4104205,4464653,650,3800,2738,-1631,1440,306,-1060,3213,20,76,817
90792,4103640,4408848,4104402,4464850,574,3800,2707,-1340,1380,363,-1142,3301,29,71,815
91793,4103804,4409248,4104599,4465047,464,3800,2658,-1040,1324,354,-969,3281,29,71,815
92801,4103944,4409664,4105026,4465474,740,3800,2615,-767,1284,337,-840,3097,25,82,817
93795,4104060,4410044,4105223,4465671,926,3800,2581,-494,1292,506,-1000,3040,25,82,817
94796,4104200,4410472,4105420,4465868,801,3800,2571,-336,1357,714,-1172,2501,39,92,817
95797,4104352,4411004,4105617,4466065,745,3800,2544,-223,1418,748,-912,2408,39,92,817
96798,4104496,4411432,4105814,4466262,820,3800,2488,-242,1422,586,-100,1907,27,86,817
97799,4104648,4411996,4106011,4466459,789,3800,2412,-327,1399,610,146,1743,27,86,817
98800,4104804,4412516,4106208,4466656,782,3800,2349,-467,1407,719,43,1512,49,99,817
99801,4104944,4413056,4106405,4466853,909,3800,2283,-650,1431,806,139,1354,49,99,817
100802,4105100,4413768,4106602,4467050,827,3800,2195,-751,1453,802,74,1480,45,97,817
101803,4105228,4414340,4106799,4467247,1032,3800,2076,-857,1500,730,115,1403,45,97,817
102804,4105348,4415052,4106996,4467444,1116,3800,1912,-894,1579,922,-350,1639,35,115,818
103805,4105504,4415732,4107193,4467641,910,3800,1722,-882,1703,1142,-325,1688,35,115,818
104806,4105648,4416488,4107390,4467838,1008,3800,1536,-838,1823,1145,461,1827,32,123,818
105807,4105768,4417188,4107587,4468035,1192,3800,1376,-744,1945,1381,158,1971,32,123,818
106808,4105928,4418072,4107784,4468232,959,3800,1228,-652,2076,1491,138,2087,42,150,819
107809,4106088,4418844,4107981,4468429,975,3800,1057,-477,2183,1669,82,2270,42,150,819
108810,4106212,4419684,4108178,4468626,1232,3800,875,-329,2231,1851,123,2133,49,144,820
109811,4106356,4420472,4108375,4468823,1132,3800,700,-167,2219,1897,524,2281,49,144,820
110812,4106512,4421288,4108572,4469020,1075,3800,537,0,2140,2100,719,2312,41,159,819
111813,4106676,4422260,4108769,4469217,1040,3800,396,192,2028,2232,716,2409,41,159,819
112814,4106824,4423164,4108966,4469414,1162,3800,237,444,1908,2393,591,2626,47,178,819
113814,4106992,4424104,4109163,4469611,1050,3800,79,700,1797,2699,236,2549,47,178,819
114816,4107132,4425000,4109360,4469808,1251,3800,-78,1016,1700,2934,-59,2848,51,157,819
115817,4107292,4425824,4109557,4470005,1142,3800,-249,1367,1558,3104,30,2906,51,157,819
116818,4107456,4426700,4109754,4470202,1132,3800,-467,1690,1318,3395,237,3009,33,161,819
117819,4107612,4427580,4109951,4470399,1200,3800,-685,1951,996,3316,204,2856,33,161,819
118820,4107760,4428388,4110148,4470596,1272,3800,-858,2090,607,3267,402,2507,44,157,819
119821,4107956,4429188,4110345,4470793,973,3800,-976,2163,170,3389,757,2367,44,157,819
120822,4108104,4429912,4110542,4470990,1295,3800,-1052,2226,-346,3270,1582,2254,30,161,818
121823,4108276,4430648,4110739,4471187,1157,3800,-1105,2251,-971,3157,1867,2068,30,161,818
122824,4108444,4431348,4110936,4471384,1195,3800,-1160,2212,-1649,3066,1616,2025,54,140,818
123825,4108616,4432096,4111133,4471581,1182,3800,-1194,2205,-2263,3048,1155,2248,54,140,818
124826,4108780,4432760,4111330,4471778,1246,3800,-1227,2258,-2769,3184,792,2294,34,129,817
125827,4108968,4433444,4111527,4471975,1101,3800,-1309,2325,-3182,3195,748,2410,34,129,817
126828,4109148,4434100,4111724,4472172,1159,3800,-1450,2475,-3522,2989,847,2537,41,128,818
127829,4109344,4434768,4111921,4472369,1060,3800,-1632,2566,-3814,2710,898,2425,41,128,818
128830,4109520,4435424,4112118,4472566,1194,3800,-1848,2574,-4096,2256,1443,2264,54,127,817
129831,4109680,4436048,4112315,4472763,1311,3800,-2130,2478,-4469,1873,1960,2056,54,127,817
130832,4109852,4436612,4112512,4472960,1247,3800,-2427,2216,-4989,1557,2505,1539,51,113,817
131833,4110024,4437256,4112709,4473157,1259,3800,-2705,1865,-5613,1241,2772,1439,51,113,817
132834,4110216,4437848,4112906,4473354,1137,3800,-2931,1498,-6123,1124,2010,1420,32,111,816
133835,4110388,4438532,4113103,4473551,1274,3800,-3153,1166,-6295,1076,931,1709,32,111,816
134836,4110516,4439088,4113300,4473748,1579,3800,-3358,969,-6017,927,115,2102,51,108,816
135837,4110688,4439700,4113497,4473945,1316,3800,-3520,832,-5333,684,-457,2476,51,108,816
136838,4110828,4440336,4113694,4474142,1541,3800,-3628,731,-4414,247,-598,2706,47,108,816
137839,4110976,4440892,4113891,4474339,1514,3800,-3671,600,-3414,-315,-620,2785,47,108,816
138840,4111112,4441540,4114088,4474536,1615,3800,-3608,400,-2417,-716,-706,2702,25,120,816
139841,4111228,4442236,4114285,4474733,1777,3800,-3486,75,-1452,-1063,-608,2584,25,120,816
140842,4111364,4442760,4114482,4474930,1680,3800,-3376,-297,-578,-1454,-490,2649,44,110,815
141843,4111492,4443432,4114679,4475127,1760,3800,-3297,-709,219,-1808,-873,2725,44,110,815
142844,4111620,4444196,4114876,4475324,1791,3800,-3229,-1094,976,-2163,-1416,3088,43,127,814
143845,4111752,4444840,4115073,4475521,1795,3800,-3231,-1278,1716,-2352,-1602,3934,43,127,814
144846,4111880,4445552,4115270,4475718,1851,3800,-3377,-1202,2484,-2155,-1912,4953,29,152,816
145847,4112016,4446324,4115467,4475915,1829,3800,-3583,-993,3238,-1840,-1791,5560,29,152,816
146848,4112132,4447208,4115664,4476112,1990,3800,-3795,-507,3945,-1652,-2262,6673,30,149,815
147849,4112280,4448084,4115861,4476309,1812,3800,-3963,7,4637,-1468,-2904,6774,30,149,815
148850,4112404,4448964,4116058,4476506,1995,3800,-4102,319,5232,-1222,-2552,6717,28,184,818
149851,4112524,4449920,4116255,4476703,2054,3800,-4228,611,5664,-1026,-1771,6921,28,184,818
150852,4112700,4450932,4116452,4476900,1714,3800,-4307,952,6010,-1027,-1470,7372,28,183,818
151853,4112828,4451860,4116649,4477097,2046,3800,-4342,1367,6194,-1131,-379,7862,28,183,818
152853,4112932,4452848,4116846,4477294,2238,3800,-4397,1774,6021,-1326,1747,8174,28,187,817
153854,4113060,4453740,4117043,4477491,2118,3800,-4504,2264,5508,-1172,2477,8665,28,187,817
154855,4113180,4454628,4117240,4477688,2203,3800,-4622,2757,4886,-553,2046,8876,40,185,816
155857,4113300,4455600,4117437,4477885,2238,3800,-3996,4137,4327,1094,1297,17876,40,185,816
156858,4113428,4456484,4117634,4478082,2219,3800,-913,10539,3453,7546,2522,32767,46,188,814
157859,4113572,4457384,4117831,4478279,2142,3800,2200,16342,2513,5532,2311,32767,46,188,814
158860,4113728,4458200,4118028,4478476,2086,3800,2921,16899,1929,1801,1485,5385,48,195,815
159861,4113880,4459028,4118225,4478673,2132,3800,2393,14066,1497,1982,1022,1632,48,195,815
160862,4114068,4459852,4118422,4478870,1912,3800,1929,11033,997,2436,1222,926,46,167,815
161863,4114224,4460688,4118619,4479067,2131,3800,1877,8582,569,2536,1601,252,46,167,815
162864,4114372,4461432,4118816,4479264,2203,3800,2001,6689,371,2890,581,994,39,157,815
163865,4114528,4462148,4119013,4479461,2171,3800,2088,5048,508,3316,-1019,1716,39,157,815
164866,4114696,4462844,4119210,4479658,2110,3800,1964,3601,849,3194,-1265,2653,47,132,815
165867,4114848,4463464,4119407,4479855,2231,3800,1578,2539,1025,2180,-650,3709,47,132,815
166868,4115024,4464160,4119604,4480052,2091,3800,1089,1584,867,677,-17,4103,50,123,814
167869,4115188,4464696,4119801,4480249,2182,3800,627,890,450,-594,211,5037,50,123,814
168870,4115376,4465160,4119998,4480446,2037,3800,277,273,-74,-1625,535,4718,44,116,809
169871,4115580,4465628,4120195,4480643,1935,3800,60,-253,-620,-2763,1135,5084,44,116,809
170872,4115748,4466024,4120392,4480840,2172,3800,-50,-1052,-1116,-5625,1413,4545,50,77,811
171873,4115940,4466476,4120589,4481037,2026,3800,2,-4260,-1409,-10893,555,753,50,77,811
172874,4116120,4466804,4120786,4481234,2109,3800,115,-8180,-1525,-10219,-761,2597,34,73,811
173875,4116288,4467076,4120983,4481431,2198,3800,187,-9548,-1231,-10351,-1869,8164,34,73,811
174876,4116452,4467320,4121180,4481628,2238,3800,119,-8820,-673,-7580,-2410,9033,47,43,810
175884,4116628,4467520,4121410,4481858,2188,3800,48,-7716,-14,-6619,-2152,8781,47,43,810
176878,4116804,4467732,4121607,4482055,2198,3800,80,-6775,680,-7000,-1553,8803,41,34,809
177879,4117004,4467956,4121804,4482252,2048,3800,259,-6301,1280,-6808,-1203,7192,41,34,809
178880,4117124,4468140,4122001,4482449,2583,3800,579,-6087,1897,-7540,-722,6734,48,36,807
179881,4117268,4468280,4122198,4482646,2457,3800,1013,-6070,2562,-7312,-545,5651,48,36,807
180882,4117400,4468428,4122395,4482843,2562,3800,1435,-6259,3181,-6686,-706,4850,32,25,807
181883,4117516,4468584,4122592,4483040,2697,3800,1884,-6571,3774,-6180,-783,4271,32,25,807
182884,4117660,4468768,4122789,4483237,2546,3800,2291,-6929,4283,-4966,-731,4253,40,43,806
183885,4117812,4468944,4122986,4483434,2517,3800,2675,-7185,4730,-4278,-678,4252,40,43,806
184886,4117996,4469144,4123183,4483631,2324,3800,3052,-7416,5160,-3946,-1059,4062,46,48,804
185887,4118168,4469324,4123380,4483828,2411,3800,3369,-7609,5527,-3212,-1514,4271,46,48,804
186888,4118324,4469524,4123577,4484025,2530,3800,3628,-7732,5798,-2727,-1519,4453,30,39,805
187889,4118492,4469744,4123774,4484222,2469,3800,3892,-7825,5936,-1979,-1592,4121,30,39,805
188890,4118668,4470004,4123971,4484419,2429,3800,4169,-7994,5947,-1284,-1733,3918,38,49,807
189891,4118828,4470264,4124168,4484616,2546,3800,4439,-8161,5869,-863,-1681,3971,38,49,807
190892,4119004,4470532,4124365,4484813,2456,3800,4687,-8393,5657,-147,-1446,3310,37,60,804
191893,4119176,4470796,4124562,4485010,2493,3800,4895,-8721,5315,399,-1003,2883,37,60,804
192894,4119372,4471088,4124759,4485207,2345,3800,5051,-9023,4868,589,-529,3023,32,58,807
193895,4119540,4471400,4124956,4485404,2534,3800,5103,-9191,4365,877,-303,3341,32,58,807
194896,4119716,4471692,4125153,4485601,2495,3800,5084,-9151,3904,1075,-320,3883,45,74,807
195897,4119876,4472048,4125350,4485798,2612,3800,5018,-8879,3518,1422,-420,4348,45,74,807
196898,4120052,4472424,4125547,4485995,2522,3800,4904,-8478,3168,1886,-188,4814,32,73,807
197899,4120200,4472756,4125744,4486192,2720,3800,4660,-7735,2885,2490,-217,6167,32,73,807
198900,4120400,4473140,4125941,4486389,2395,3800,4332,-6823,2661,3086,18,6084,46,80,806
199901,4120612,4473620,4126138,4486586,2314,3800,3983,-6030,2466,3251,617,5576,46,80,806
200902,4120856,4474024,4126335,4486783,2094,3800,3702,-5296,2347,3301,846,5739,58,77,805
201903,4121108,4474444,4126532,4486980,2021,3800,3491,-4541,2294,3316,1210,5601,58,77,805
202904,4121312,4474932,4126729,4487177,2319,3800,3341,-3919,2225,3140,1677,4762,59,92,809
203905,4121544,4475416,4126926,4487374,2130,3800,3241,-3558,2068,3211,2039,3752,59,92,809
204906,4121768,4475928,4127123,4487571,2169,3800,3164,-3431,1824,3260,2088,2889,55,91,810
205907,4121936,4476512,4127320,4487768,2533,3800,3132,-3436,1552,2956,2401,2553,55,91,810
206908,4122168,4476988,4127517,4487965,2118,3800,3116,-3324,1326,2703,2436,2702,45,100,811
207896,4122396,4477604,4127714,4488162,2131,3521,3095,-2976,1216,2427,2157,3195,45,100,811
208897,4122588,4478224,4127911,4488359,2359,3312,3064,-2319,1238,2170,1621,3839,56,112,810
209898,4122808,4478872,4128108,4488556,2175,2941,3052,-1516,1295,2003,1178,4055,56,112,810
210899,4123028,4479612,4128305,4488753,2165,2130,3034,-510,1362,1919,716,4569,36,135,814
211900,4123224,4480324,4128502,4488950,2317,2080,3029,678,1462,1833,371,4816,36,135,814
212901,4123424,4481012,4128699,4489147,2292,2015,3008,1977,1561,1776,-24,5060,57,121,816
213902,4123760,4481676,4128896,4489344,1382,1962,2970,3366,1634,1587,-212,5144,57,121,816
214903,4124008,4482364,4129093,4489541,1910,1597,2905,4687,1652,1505,-271,4624,56,128,820
215904,4124296,4483092,4129290,4489738,1621,1116,2834,5850,1600,1623,-565,3991,56,128,820
216905,4124592,4483744,4129487,4489935,1529,1392,2794,6706,1495,1683,-663,3027,63,128,825
217906,4124860,4484364,4129684,4490132,1673,1407,2810,7320,1343,1820,-847,2292,63,128,825
218907,4125176,4485068,4129881,4490329,1322,660,2859,7713,1179,1913,-1081,1582,69,116,827
219908,4125512,4485596,4130078,4490526,1137,1616,2927,7980,1031,1922,-1331,1215,69,116,827
220909,4125816,4486220,4130275,4490723,1291,829,2988,8159,903,1945,-1648,706,74,122,826
221910,4126092,4486816,4130472,4490920,1431,830,3036,8167,778,1959,-1745,239,74,122,826
222911,4126396,4487316,4130669,4491117,1210,1298,3076,8078,662,2044,-1846,-141,73,102,827
223912,4126700,4487912,4130866,4491314,1164,523,3108,7899,554,2117,-1906,-430,73,102,827
224913,4126968,4488448,4131063,4491511,1359,750,3143,7676,471,2141,-2073,-540,61,102,828
225914,4127248,4489008,4131260,4491708,1249,441,3141,7479,495,2494,-2325,-363,61,102,828
226915,4127572,4489512,4131457,4491905,918,656,3049,7416,620,2861,-2268,89,52,83,831
227916,4127884,4489876,4131654,4492102,943,1459,2886,7494,615,2497,-842,180,52,83,831
228917,4128140,4490312,4131851,4492299,1268,904,2707,7456,372,2061,48,-323,49,77,831
229918,4128420,4490668,4132048,4492496,1083,1334,2518,7278,42,1917,-501,-664,49,77,831
230919,4128724,4491000,4132245,4492693,886,1425,2339,6864,-328,1591,468,-1574,49,71,829
231920,4128992,4491288,4132442,4492890,1081,1661,2220,6133,-752,1314,1423,-2708,49,71,829
232921,4129272,4491660,4132639,4493087,970,1059,2116,5324,-1189,1154,1854,-2688,60,56,829
233922,4129500,4491936,4132836,4493284,1282,1625,1987,4763,-1568,1147,1694,-2253,60,56,829
234923,4129784,4492200,4133033,4493481,894,1670,1797,4515,-1807,1317,1528,-1528,40,57,825
235924,4130024,4492420,4133230,4493678,1150,1935,1534,4607,-1939,1180,1416,-616,40,57,825
236926,4130256,4492600,4133427,4493875,1186,2193,1208,4927,-2048,672,1040,-63,34,51,827
237926,4130488,4492824,4133624,4494072,1172,1907,897,5184,-2195,311,1142,-529,34,51,827
238927,4130696,4493044,4133821,4494269,1317,1922,672,5197,-2384,182,1369,-1350,55,36,825
239928,4130888,4493240,4134018,4494466,1420,2072,502,4994,-2570,86,1456,-1882,55,36,825
240930,4131088,4493444,4134215,4494663,1369,2019,319,4704,-2709,13,1337,-1980,39,27,825
241930,4131252,4493616,4134412,4494860,1609,2231,117,4357,-2796,-94,1265,-2233,39,27,825
242931,4131472,4493780,4134609,4495057,1250,2296,-105,3995,-2828,-3,1071,-2292,37,38,823
243932,4131632,4493960,4134806,4495254,1641,2203,-356,3766,-2794,69,924,-1722,37,38,823
244933,4131788,4494168,4135003,4495451,1685,2023,-634,3634,-2737,80,960,-1651,24,32,820
245934,4131972,4494348,4135200,4495648,1516,2207,-884,3348,-2654,78,793,-2166,24,32,820
246935,4132132,4494520,4135397,4495845,1683,2268,-1102,2858,-2566,54,618,-2558,37,28,820
247936,4132280,4494692,4135594,4496042,1781,2279,-1297,2113,-2471,34,650,-3145,37,28,820
248937,4132444,4494876,4135791,4496239,1695,2209,-1493,1223,-2332,111,603,-3384,20,34,821
249938,4132596,4495060,4135988,4496436,1791,2216,-1713,270,-2108,193,478,-3423,20,34,821
250939,4132720,4495240,4136185,4496633,1999,2249,-1977,-623,-1817,311,550,-3156,33,35,820
251940,4132888,4495392,4136382,4496830,1737,2443,-2306,-1413,-1488,274,816,-2688,33,35,820
252941,4133020,4495592,4136579,4497027,1992,2142,-2666,-2096,-1143,248,1044,-2536,39,28,820
253942,4133164,4495752,4136776,4497224,1941,2409,-3050,-2793,-789,196,1126,-2513,39,28,820
254943,4133308,4495944,4136973,4497421,1964,2212,-3458,-3477,-357,334,682,-2270,22,35,819
255944,4133400,4496156,4137170,4497618,2336,2080,-3871,-4208,106,585,551,-2323,22,35,819
256945,4133508,4496304,4137367,4497815,2276,2502,-4353,-4929,543,840,320,-2092,17,44,817
257946,4133660,4496504,4137564,4498012,2021,2176,-4920,-5659,928,1286,-65,-2040,17,44,817
258956,4133800,4496656,4137794,4498242,2137,2510,-5513,-6479,1250,1935,-390,-2276,36,48,818
259948,4133944,4496824,4137991,4498439,2136,2423,-6173,-7376,1501,2602,-610,-2176,36,48,818
260949,4134132,4497024,4138188,4498636,1866,2223,-6926,-8140,1703,2930,-842,-1429,25,44,819
261950,4134288,4497204,4138385,4498833,2085,2355,-7700,-8690,1914,2857,-1411,-529,25,44,819
262951,4134420,4497364,4138582,4499030,2264,2497,-8972,-8033,2234,2963,-2821,4225,29,39,817
263952,4134584,4497528,4138779,4499227,2079,2487,-10311,-6975,2498,2805,-2749,3435,29,39,817
264953,4134736,4497672,4138976,4499424,2175,2635,-11052,-6889,2467,3060,-1409,532,17,38,817
265954,4134856,4497836,4139173,4499621,2410,2525,-11669,-7026,2196,3569,-1309,2457,17,38,817
266955,4135020,4497992,4139370,4499818,2150,2594,-12378,-7113,1818,3682,-1840,2477,22,39,816
267956,4135196,4498132,4139567,4500015,2084,2719,-12960,-7220,1502,3883,-2707,2139,22,39,816
268957,4135368,4498312,4139764,4500212,2121,2476,-13346,-7501,1339,4394,-3232,2278,39,32,814
269958,4135496,4498512,4139961,4500409,2428,2351,-13627,-7610,1232,4947,-3489,3346,39,32,814
270959,4135688,4498712,4140158,4500606,2031,2350,-13890,-7543,1070,5280,-3597,4043,22,45,816
271960,4135848,4498896,4140355,4500803,2248,2456,-14016,-7451,789,5742,-3731,4097,22,45,816
272961,4135992,4499092,4140552,4501000,2372,2382,-13972,-7411,447,6199,-4367,4510,39,41,816
273962,4136188,4499272,4140749,4501197,2048,2489,-13850,-7157,162,6609,-5007,5907,39,41,816
274963,4136340,4499424,4140946,4501394,2344,2684,-13670,-6576,-43,6899,-5843,7160,37,36,816
275964,4136484,4499560,4141143,4501591,2418,2812,-13408,-5751,-223,7098,-6152,8006,37,36,816
276965,4136680,4499732,4141340,4501788,2094,2598,-13002,-4821,-429,7189,-6035,8582,24,26,816
277966,4136900,4499900,4141537,4501985,1935,2637,-12437,-3833,-699,7205,-5692,9075,24,26,816
278967,4137076,4500060,4141734,4502182,2220,2703,-8113,2757,-811,8094,-6506,32767,44,28,812
279968,4137280,4500260,4141931,4502379,2043,2452,2262,23217,-228,8073,-10569,32767,44,28,812
280969,4137468,4500476,4142128,4502576,2148,2344,9246,-32570,-1,9859,-4448,18790,36,35,816
281970,4137688,4500648,4142325,4502773,1939,2630,10210,31936,-467,10857,813,-1331,36,35,816
282971,4137904,4500828,4142522,4502970,1956,2589,8879,25082,-1349,11293,2274,-5663,51,52,818
283972,4138120,4501012,4142719,4503167,1949,2570,8390,19176,-2227,10462,2460,-6794,51,52,818
284973,4138320,4501212,4142916,4503364,2048,2468,8365,15667,-2516,9363,868,-3104,40,33,817
285974,4138508,4501432,4143113,4503561,2128,2334,7971,13945,-2292,8558,-2086,-785,40,33,817
286975,4138704,4501636,4143310,4503758,2080,2431,7257,11968,-2246,6974,-1345,-1671,27,47,817
287976,4138884,4501844,4143507,4503955,2188,2402,6569,9942,-2481,5817,-433,-13,27,47,817
288977,4139048,4502016,4143704,4504152,2304,2638,5940,7815,-2976,5106,287,-407,44,39,816
289978,4139232,4502224,4143901,4504349,2185,2408,5260,6094,-3461,4211,201,1160,44,39,816
290979,4139424,4502440,4144098,4504546,2138,2351,4367,5132,-3824,3425,188,2815,28,48,816
291980,4139568,4502644,4144295,4504743,2462,2423,3499,4292,-4332,2040,1027,2073,28,48,816
292981,4139732,4502864,4144492,4504940,2352,2314,2780,3581,-4965,-344,1538,3010,45,50,817
293982,4139904,4503100,4144689,4505137,2314,2197,2187,3077,-5529,-2284,1115,3751,45,50,817
294983,4140064,4503296,4144886,4505334,2407,2447,1693,2945,-5949,-3380,827,4374,36,36,816
295984,4140212,4503544,4145083,4505531,2504,2101,1305,3302,-6150,-4495,991,5595,36,36,816
296985,4140372,4503764,4145280,4505728,2446,2266,1027,4206,-6215,-5658,1022,6556,22,37,817
297986,4140532,4503980,4145477,4505925,2464,2283,834,5256,-6164,-7081,635,7036,22,37,817
298987,4140668,4504228,4145674,4506122,2641,2061,793,6323,-5886,-8075,168,7254,30,53,816
299988,4140828,4504440,4145871,4506319,2509,2279,832,7536,-5293,-8437,-676,7422,30,53,816
300989,4141000,4504668,4146068,4506516,2446,2167,894,8662,-4342,-9141,-1202,6808,36,41,814
301990,4141144,4504884,4146265,4506713,2645,2233,993,8796,-3048,-11334,-1589,4592,36,41,814
302991,4141324,4505128,4146462,4506910,2428,2038,1237,6888,-1573,-12899,-2134,938,43,43,816
303992,4141516,4505408,4146659,4507107,2357,1777,1562,4751,-26,-12299,-2423,2067,43,43,816
304993,4141672,4505684,4146856,4507304,2601,1767,1852,4565,1483,-10263,-2394,4822,46,42,815
305994,4141880,4505936,4147053,4507501,2272,1893,2074,5467,2877,-9431,-2630,4294,46,42,815
306995,4142076,4506160,4147250,4507698,2348,2057,2322,5601,4176,-9860,-2729,2434,50,49,819
307996,4142252,4506440,4147447,4507895,2483,1671,2609,4606,5275,-9383,-2426,1121,50,49,819
308997,4142456,4506720,4147644,4508092,2306,1634,2908,3721,6082,-8040,-1868,1684,35,64,819
309998,4142604,4507016,4147841,4508289,2679,1491,3174,3278,6650,-7045,-1428,1587,35,64,819
310999,4142808,4507356,4148038,4508486,2327,1154,3279,2882,7001,-5761,-1006,1443,49,60,818
312000,4142984,4507552,4148235,4508683,2512,2055,3293,2389,7263,-5071,-691,1526,49,60,818
313001,4143172,4507716,4148432,4508880,2442,2269,3299,1770,7461,-3965,-517,1343,49,41,818
314002,4143368,4507876,4148629,4509077,2393,2310,3282,1131,7539,-2832,-340,1183,49,41,818
315003,4143576,4508032,4148826,4509274,2315,2354,3264,306,7494,-2408,-255,621,31,34,817
316004,4143736,4508252,4149023,4509471,2632,1944,3267,-770,7256,-1863,-168,-281,31,34,817
317005,4143912,4508460,4149220,4509668,2542,2014,3284,-2071,6838,-1351,281,-662,24,48,816
318006,4144072,4508716,4149417,4509865,2659,1688,3327,-3379,6305,-917,545,-773,24,48,816
319008,4144204,4509016,4149614,4510062,2864,1368,3366,-4726,5720,-433,557,-944,23,53,817
320008,4144356,4509284,4149811,4510259,2760,1538,3343,-5994,5185,-91,776,-422,23,53,817
321009,4144528,4509532,4150008,4510456,2647,1641,3191,-7012,4715,381,1119,203,30,58,818
322010,4144668,4509848,4150205,4510653,2873,1163,2956,-7841,4294,603,1376,512,30,58,818
323011,4144776,4510160,4150402,4510850,3113,1138,2692,-8437,3933,523,864,1288,42,63,817
324012,4144944,4510480,4150599,4511047,2752,1034,2415,-8815,3612,349,92,1886,42,63,817
325013,4145176,4510808,4150796,4511244,2337,926,2161,-8989,3367,89,-299,2363,44,74,819
326014,4145364,4511128,4150993,4511441,2617,922,1973,-8892,3247,34,-367,2904,44,74,819
327015,4145540,4511460,4151190,4511638,2702,789,1798,-8549,3217,-140,29,3636,49,56,820
328016,4145736,4511776,4151387,4511835,2579,836,1619,-7961,3239,-356,341,4192,49,56,820
329017,4145900,4512136,4151584,4512032,2794,490,1418,-7313,3246,-402,787,4118,46,57,822
330018,4146072,4512476,4151781,4512229,2756,552,1164,-6493,3213,-536,948,4642,46,57,822
331019,4146248,4512800,4151978,4512426,2742,596,897,-5639,3151,-845,1420,4612,43,69,822
332020,4146428,4513096,4152175,4512623,2725,727,677,-4883,3080,-953,1311,4236,43,69,822
333021,4146572,4513420,4152372,4512820,2975,496,480,-4119,3027,-976,1304,4214,32,73,821
334022,4146744,4513752,4152569,4513017,2812,387,274,-3469,2960,-898,1888,3773,32,73,821
335023,4146872,4514044,4152766,4513214,3119,595,51,-2961,2821,-823,2449,3276,39,52,820
336024,4147008,4514252,4152963,4513411,3096,1115,-183,-2565,2642,-761,2548,3047,39,52,820
337025,4147152,4514512,4153160,4513608,3071,762,-420,-2180,2430,-568,2481,2882,34,43,821
338026,4147312,4514792,4153357,4513805,2988,601,-666,-1817,2210,-387,2498,2913,34,43,821
339027,4147468,4515008,4153554,4514002,3032,991,-921,-1358,2020,-172,2213,3219,27,55,818
340028,4147652,4515232,4153751,4514199,2864,930,-1217,-831,1835,138,2108,3407,27,55,818
341029,4147808,4515408,4153948,4514396,3059,1239,-1534,-252,1686,421,1834,3625,42,47,820
342037,4147972,4515580,4154178,4514626,3039,1289,-1870,365,1617,831,1544,3743,42,47,820
343031,4148132,4515760,4154375,4514823,3081,1247,-2127,832,1557,1222,1032,3260,46,29,819
344032,4148328,4515900,4154572,4515020,2857,1521,-2340,1129,1380,1453,1253,2767,46,29,819
345033,4148484,4516076,4154769,4515217,3126,1305,-2665,1135,1013,1506,2100,2071,50,30,816
346034,4148660,4516236,4154966,4515414,3013,1421,-3034,970,537,1723,2020,1862,50,30,816
347035,4148880,4516392,4155163,4515611,2729,1464,-3315,694,-27,1765,1865,1566,30,35,816
348036,4149052,4516572,4155360,4515808,3041,1322,-3525,392,-658,1700,1640,1530,30,35,816
349037,4149228,4516728,4155557,4516005,3026,1490,-3675,177,-1341,1683,1424,1911,35,42,816
350038,4149424,4516852,4155754,4516202,2902,1722,-3780,58,-2026,1817,1235,2189,35,42,816
351039,4149612,4516976,4155951,4516399,2958,1753,-3859,30,-2652,2156,698,2579,47,26,817
352040,4149812,4517120,4156148,4516596,2883,1651,-3926,125,-3164,2349,161,3048,47,26,817
353041,4150016,4517312,4156345,4516793,2856,1353,-4004,341,-3553,2451,-283,3562,49,28,815
354042,4150200,4517492,4156542,4516990,2988,1436,-4132,737,-3845,2526,-573,4221,49,28,815
355043,4150372,4517652,4156739,4517187,3074,1577,-4299,1395,-4068,2509,-733,5101,48,36,815
356044,4150592,4517796,4156936,4517384,2766,1700,-4422,2082,-4245,2331,-936,4887,48,36,815
357045,4150748,4517908,4157133,4517581,3185,1938,-4438,2603,-4407,2039,-949,4599,46,21,816
358046,4150936,4518064,4157330,4517778,2990,1681,-4402,3078,-4571,1707,-889,4705,46,21,816
359047,4151136,4518260,4157527,4517975,2915,1431,-4316,3466,-4771,1377,-791,4325,38,21,817
360048,4151324,4518344,4157724,4518172,2995,2181,-4193,3716,-5004,950,-804,4017,38,21,817
361049,4151532,4518440,4157921,4518369,2867,2150,-4079,3948,-5248,559,-1001,4207,46,35,816
362050,4151748,4518560,4158118,4518566,2810,2034,-3997,4308,-5480,250,-1248,4707,46,35,816
363051,4151944,4518700,4158315,4518763,2936,1934,-3922,4716,-5683,-158,-1252,4817,32,25,813
364052,4152124,4518884,4158512,4518960,3045,1665,-3835,5084,-5811,-370,-1442,4766,32,25,813
365053,4152320,4519072,4158709,4519157,2947,1644,-3739,5465,-5847,-621,-1759,4901,49,31,814
366054,4152548,4519224,4158906,4519354,2735,1889,-3606,5697,-5818,-981,-2044,4607,49,31,814
367055,4152720,4519340,4159103,4519551,3097,2149,-3434,5783,-5733,-1163,-2155,4247,31,41,815
368056,4152944,4519476,4159300,4519748,2761,2051,-3248,5792,-5547,-1249,-2265,4197,31,41,815
369057,4153164,4519600,4159497,4519945,2777,2158,-3075,5786,-5270,-1386,-2447,4339,51,39,815
370058,4153352,4519780,4159694,4520142,2983,1816,-2917,5766,-4966,-1669,-2557,4492,51,39,815
371059,4153580,4519928,4159891,4520339,2720,2037,-2779,5782,-4665,-1951,-2518,4698,46,35,815
372060,4153816,4520004,4160088,4520536,2654,2540,-2663,5796,-4379,-2127,-2349,4889,46,35,815
373061,4154012,4520140,4160285,4520733,2905,2192,-2545,5767,-4092,-2261,-2207,4748,45,36,815
374062,4154240,4520276,4160482,4520930,2693,2219,-2414,5661,-3817,-2400,-2046,4704,45,36,815
375063,4154488,4520416,4160679,4521127,2547,2219,-2271,5434,-3570,-2523,-1950,4555,46,22,813
376064,4154704,4520576,4160876,4521324,2740,2110,-2143,5132,-3345,-2548,-1712,4555,46,22,813
377065,4154944,4520700,4161073,4521521,2572,2368,-2047,4834,-3131,-2469,-1467,4514,53,31,813
378066,4155204,4520812,4161270,4521718,2420,2481,-1982,4498,-2926,-2536,-1260,4575,53,31,813
379067,4155424,4520924,4161467,4521915,2661,2518,-1964,4117,-2734,-2559,-1150,4581,45,36,814
380068,4155660,4521036,4161664,4522112,2545,2555,-1979,3696,-2558,-2456,-1100,4622,45,36,814
381069,4155936,4521200,4161861,4522309,2262,2245,-2017,3249,-2385,-2363,-1068,4647,62,27,815
382070,4156192,4521320,4162058,4522506,2362,2554,-2049,2730,-2225,-2251,-1024,4548,62,27,815
383071,4156452,4521444,4162255,4522703,2311,2562,-2065,2189,-2104,-2194,-924,4550,62,39,814
384072,4156752,4521560,4162452,4522900,2016,2647,-2077,1574,-2013,-2000,-726,4429,62,39,814
385073,4157020,4521712,4162649,4523097,2186,2442,-2078,935,-1952,-1739,-562,4393,61,22,815
386074,4157284,4521832,4162846,4523294,2183,2676,-2063,242,-1904,-1597,-474,4332,61,22,815
387075,4157592,4522000,4163043,4523491,1860,2390,-2008,-485,-1856,-1457,-404,4501,64,26,816
388076,4157912,4522120,4163240,4523688,1732,2724,-1867,-1216,-1812,-1271,-413,4702,64,26,816
389077,4158172,4522260,4163437,4523885,2080,2624,-977,-1774,-1826,-56,-704,11640,68,22,814
390078,4158476,4522360,4163634,4524082,1759,2917,810,-1852,-1946,1230,-1428,19595,68,22,814
391079,4158824,4522492,4163831,4524279,1419,2746,1728,-2073,-1887,-466,-1673,6707,70,37,817
392080,4159112,4522624,4164028,4524476,1755,2774,1717,-2482,-1695,-738,-1149,5497,70,37,817
393081,4159404,4522780,4164225,4524673,1689,2643,1539,-2922,-1516,-775,-907,5406,59,25,816
394082,4159724,4522928,4164422,4524870,1461,2715,1571,-3355,-1396,-914,-895,5190,59,25,816
395083,4160024,4523056,4164619,4525067,1542,2870,1740,-3764,-1311,-939,-595,5184,51,25,817
396084,4160328,4523212,4164816,4525264,1471,2714,1934,-4167,-1250,-873,-426,4998,51,25,817
397085,4160636,4523340,4165013,4525461,1398,2920,2107,-4468,-1171,-905,-769,5229,48,27,818
398086,4160912,4523488,4165210,4525658,1563,2817,2270,-4690,-1040,-923,-1275,5320,48,27,818
399087,4161192,4523640,4165407,4525855,1503,2812,2421,-4842,-866,-836,-1453,5533,56,26,816
400088,4161492,4523776,4165604,4526052,1334,2939,2588,-4913,-667,-786,-1416,5565,56,26,816
401089,4161776,4523948,4165801,4526249,1396,2726,2770,-4937,-467,-769,-1512,5601,54,43,816
402090,4162056,4524104,4165998,4526446,1386,2844,2983,-4955,-269,-831,-1523,5471,54,43,816
403091,4162336,4524276,4166195,4526643,1349,2756,3225,-4965,-88,-894,-1388,5395,62,30,817
404092,4162596,4524432,4166392,4526840,1448,2874,3492,-4949,49,-878,-1274,5269,62,30,817
405093,4162832,4524596,4166589,4527037,1582,2839,3766,-4908,148,-933,-1268,5144,60,43,817
406094,4163096,4524768,4166786,4527234,1378,2800,4034,-4855,232,-1007,-1297,5102,60,43,817
407095,4163332,4524924,4166983,4527431,1536,2919,4284,-4748,327,-971,-1550,5095,36,30,817
408096,4163564,4525100,4167180,4527628,1547,2803,4516,-4557,456,-898,-1721,5156,36,30,817
409097,4163776,4525288,4167377,4527825,1666,2733,4720,-4321,595,-838,-1712,5077,40,29,818
410098,4164064,4525460,4167574,4528022,1151,2844,4915,-4101,709,-825,-1364,4845,40,29,818
411099,4164304,4525636,4167771,4528219,1433,2829,5083,-3884,779,-751,-709,4730,48,26,817
412100,4164516,4525808,4167968,4528416,1602,2866,5227,-3663,825,-675,-349,4487,48,26,817
413101,4164776,4525996,4168165,4528613,1275,2770,5328,-3460,866,-636,-177,4299,41,44,818
414102,4165016,4526156,4168362,4528810,1382,2962,5410,-3284,931,-547,-99,4067,41,44,818
415103,4165264,4526300,4168559,4529007,1310,3085,5455,-3153,1013,-330,65,3842,41,32,817
416104,4165544,4526492,4168756,4529204,1074,2788,5471,-3018,1093,-162,235,3659,41,32,817
417106,4165768,4526676,4168953,4529401,1413,2845,5437,-2931,1167,-26,303,3306,64,35,817
418107,4166072,4526896,4169150,4529598,866,2610,5373,-2878,1237,131,389,3146,64,35,817
419108,4166364,4527132,4169347,4529795,900,2494,5259,-2848,1293,309,583,2908,48,38,820
420108,4166628,4527332,4169544,4529992,1047,2717,5114,-2809,1335,424,656,2738,48,38,820
421109,4166864,4527568,4169741,4530189,1205,2476,4930,-2841,1363,494,744,2505,60,44,820
422110,4167160,4527792,4169938,4530386,787,2539,4743,-2883,1373,512,847,2304,60,44,820
423111,4167444,4528024,4170135,4530583,824,2475,4529,-2914,1368,557,942,2149,55,37,819
424112,4167724,4528244,4170332,4530780,814,2540,4296,-2989,1345,594,970,1957,55,37,819
425120,4167988,4528488,4170562,4531010,899,2385,4052,-3048,1318,552,900,1938,66,47,822
426114,4168216,4528708,4170759,4531207,1111,2525,3819,-3147,1307,547,921,1718,66,47,822
427115,4168448,4528928,4170956,4531404,1071,2515,3566,-3192,1298,569,1005,1737,59,44,822
428116,4168680,4529192,4171153,4531601,1056,2211,3282,-3259,1283,528,1241,1642,59,44,822
429117,4168920,4529416,4171350,4531798,987,2449,2952,-3296,1246,491,1335,1652,43,46,822
430118,4169144,4529624,4171547,4531995,1077,2545,2651,-3314,1229,533,1174,1488,43,46,822
431119,4169352,4529844,4171744,4532192,1172,2460,2393,-3358,1284,707,946,1443,47,40,823
432120,4169596,4530044,4171941,4532389,927,2585,2131,-3325,1426,846,980,1461,47,40,823
433121,4169796,4530228,4172138,4532586,1201,2691,1861,-3327,1590,857,1096,1343,53,40,819
434122,4169980,4530396,4172335,4532783,1306,2804,1590,-3306,1722,881,1120,1450,53,40,819
435123,4170176,4530612,4172532,4532980,1233,2496,1325,-3262,1824,866,1177,1427,38,32,821
436125,4170348,4530784,4172729,4533177,1394,2783,1062,-3171,1882,880,1206,1527,38,32,821
437125,4170528,4530964,4172926,4533374,1352,2741,822,-3039,1917,833,1213,1621,26,44,818
438126,4170684,4531108,4173123,4533571,1520,2989,571,-2899,1918,792,1327,1650,26,44,818
439127,4170860,4531260,4173320,4533768,1406,2960,290,-2721,1868,895,1444,1736,42,21,818
440128,4171036,4531384,4173517,4533965,1415,3167,-10,-2526,1785,1032,1402,1870,42,21,818
441129,4171208,4531520,4173714,4534162,1452,3120,-284,-2305,1681,1278,1048,1983,42,30,816
442130,4171376,4531680,4173911,4534359,1490,2986,-548,-2067,1589,1432,736,2068,42,30,816
443131,4171544,4531788,4174108,4534556,1503,3351,-841,-1765,1523,1593,544,2309,30,20,814
444132,4171716,4531924,4174305,4534753,1489,3203,-1158,-1446,1459,1768,555,2416,30,20,814
445133,4171880,4532016,4174502,4534950,1555,3525,-1475,-1123,1385,1900,579,2630,27,28,814
446134,4172060,4532148,4174699,4535147,1462,3304,-1772,-874,1288,2053,721,2545,27,28,814
447135,4172264,4532284,4174896,4535344,1310,3306,-2046,-685,1165,2295,900,2491,27,31,814
448136,4172408,4532404,4175093,4535541,1708,3441,-2283,-501,1020,2431,1160,2525,27,31,814
449137,4172608,4532508,4175290,4535738,1358,3582,-2492,-342,865,2453,1291,2527,43,17,814
450138,4172776,4532648,4175487,4535935,1571,3383,-2674,-209,701,2476,1363,2564,43,17,814
451139,4172968,4532772,4175684,4536132,1424,3516,-2843,-103,517,2485,1569,2594,48,33,812
452141,4173160,4532920,4175881,4536329,1426,3388,-2992,13,307,2531,1690,2798,48,33,812
453141,4173344,4533072,4176078,4536526,1483,3383,-3116,150,94,2485,1604,2981,37,27,813
454142,4173556,4533240,4176275,4536723,1301,3296,-3235,355,-84,2384,1221,3413,37,27,813
455143,4173748,4533416,4176472,4536920,1430,3256,-3354,649,-218,2243,894,3668,48,35,812
456144,4173956,4533560,4176669,4537117,1325,3481,-3454,972,-332,2038,689,3812,48,35,812
457145,4174148,4533700,4176866,4537314,1428,3531,-3523,1337,-437,1746,412,3974,40,36,814
458146,4174348,4533872,4177063,4537511,1377,3343,-3581,1651,-548,1391,228,4184,40,36,814
459147,4174548,4534044,4177260,4537708,1376,3355,-3627,1993,-650,1029,103,4258,44,32,813
460148,4174756,4534204,4177457,4537905,1321,3447,-3651,2266,-751,701,-48,4059,44,32,813
461149,4174952,4534360,4177654,4538102,1398,3490,-3651,2481,-840,408,-319,3994,32,37,814
462150,4175124,4534548,4177851,4538299,1559,3295,-3627,2626,-903,73,-472,3959,32,37,814
463151,4175324,4534748,4178048,4538496,1384,3220,-3568,2767,-941,-239,-498,3939,33,37,813
464152,4175504,4534980,4178245,4538693,1516,3004,-3497,2835,-958,-622,-452,3897,33,37,813
465153,4175720,4535220,4178442,4538890,1284,2936,-3452,2827,-949,-996,-400,3886,43,39,813
466154,4175912,4535404,4178639,4539087,1436,3293,-3435,2780,-892,-1266,-388,4025,43,39,813
467155,4176080,4535624,4178836,4539284,1600,3058,-3403,2748,-787,-1497,-279,4023,34,35,815
468156,4176244,4535872,4179033,4539481,1639,2861,-3326,2727,-652,-1729,-227,3941,34,35,815
469157,4176456,4536148,4179230,4539678,1334,2653,-3218,2594,-506,-2001,-409,4010,47,41,814
470158,4176628,4536396,4179427,4539875,1595,2806,-3091,2465,-358,-2296,-699,4176,47,41,814
471159,4176772,4536644,4179624,4540072,1794,2784,-2951,2351,-208,-2506,-953,4332,43,39,817
472160,4176948,4536892,4179821,4540269,1604,2763,-2794,2280,-26,-2641,-1142,4443,43,39,817
473161,4177092,4537124,4180018,4540466,1827,2848,-2630,2213,186,-2736,-1271,4667,41,41,817
474162,4177268,4537336,4180215,4540663,1638,2967,-2482,2207,424,-2747,-1374,5056,41,41,817
475163,4177424,4537668,4180412,4540860,1781,2158,-2349,2179,686,-2719,-1447,5024,26,47,818
476164,4177580,4537980,4180609,4541057,1800,2233,-2222,2105,962,-2682,-1555,5130,26,47,818
477165,4177724,4538228,4180806,4541254,1898,2611,-2096,1954,1236,-2682,-1549,4993,44,46,815
478166,4177876,4538464,4181003,4541451,1869,2670,-1911,1671,1509,-2653,-1386,4485,44,46,815
479167,4178020,4538752,4181200,4541648,1943,2305,-1661,1197,1763,-2564,-1279,4235,39,51,820
480168,4178156,4539060,4181397,4541845,2020,2132,-1385,678,1984,-2509,-1361,4267,39,51,820
481169,4178324,4539320,4181594,4542042,1834,2405,-1103,153,2160,-2355,-1303,4162,24,58,817
482170,4178468,4539564,4181791,4542239,2007,2485,-831,-415,2311,-2122,-1015,4147,24,58,817
483171,4178572,4539792,4181988,4542436,2299,2571,-577,-953,2444,-1757,-645,4506,19,41,819
484172,4178692,4540036,4182185,4542633,2234,2452,-333,-1389,2576,-1457,-520,4814,19,41,819
485173,4178788,4540320,4182382,4542830,2428,2164,-84,-1758,2709,-1212,-425,4915,17,47,817
486174,4178908,4540596,4182579,4543027,2313,2180,152,-2118,2809,-1036,-241,4988,17,47,817
487175,4179024,4540844,4182776,4543224,2374,2332,375,-2515,2827,-792,305,4936,33,56,815
488176,4179148,4541068,4182973,4543421,2356,2472,588,-2900,2775,-589,461,5036,33,56,815
489177,4179284,4541284,4183170,4543618,2309,2513,818,-3225,2687,-459,531,5110,20,52,816
490178,4179412,4541564,4183367,4543815,2391,2078,1072,-3539,2593,-252,607,5167,20,52,816
491179,4179564,4541880,4183564,4544012,2261,1800,1325,-3787,2513,-30,391,5293,29,57,815
492180,4179712,4542164,4183761,4544209,2308,1962,1549,-3951,2433,184,219,5549,29,57,815
493181,4179844,4542416,4183958,4544406,2437,2139,1729,-3992,2337,420,352,5837,42,59,817
494182,4179996,4542668,4184155,4544603,2333,2115,1858,-3891,2267,591,342,6327,42,59,817
495183,4180120,4542988,4184352,4544800,2541,1636,1960,-3730,2239,769,254,6347,42,65,818
496184,4180272,4543300,4184549,4544997,2387,1636,2056,-3540,2233,860,199,6416,42,65,818
497185,4180392,4543632,4184746,4545194,2621,1452,2148,-3347,2215,918,375,6273,29,68,817
498186,4180588,4543876,4184943,4545391,2147,1981,2242,-3176,2181,1008,470,6182,29,68,817
499187,4180732,4544172,4185140,4545588,2497,1614,2348,-2975,2175,1050,336,6104,24,57,818
500188,4180888,4544504,4185337,4545785,2441,1329,2485,-2772,2206,999,369,5975,24,57,818
501189,4181108,4544820,4185534,4545982,2032,1377,2621,-2487,2247,835,578,6166,47,58,819
502190,4181292,4545148,4185731,4546179,2263,1245,2889,-1810,2288,580,770,6072,47,58,819
503191,4181460,4545436,4185928,4546376,2376,1456,3031,-1486,2286,451,564,5885,45,51,820
504192,4181664,4545784,4186125,4546573,2149,1014,3168,-1160,2254,258,482,5717,45,51,820
505193,4181840,4546104,4186322,4546770,2334,1135,3289,-785,2179,47,674,5667,51,57,822
506194,4182016,4546380,4186519,4546967,2344,1375,3399,-389,2074,-20,627,5622,51,57,822
507195,4182248,4546672,4186716,4547164,1980,1234,3497,61,1985,-71,186,5619,42,57,823
508203,4182480,4546948,4186946,4547394,1980,1313,3605,533,1903,-193,-78,5591,42,57,823
509197,4182672,4547272,4187143,4547591,2232,958,3707,1046,1803,-277,-186,5486,40,55,820
510198,4182896,4547568,4187340,4547788,2021,1089,3790,1492,1706,-136,-221,5183,40,55,820
511199,4183092,4547820,4187537,4547985,2198,1340,3831,1906,1615,64,-119,4850,33,53,822
512200,4183300,4548068,4187734,4548182,2119,1344,3847,2257,1530,299,-9,4475,33,53,822
513201,4183544,4548308,4187931,4548379,1874,1375,3859,2532,1484,505,-143,4159,50,43,824
514202,4183740,4548600,4188128,4548576,2176,1008,3872,2748,1491,623,-301,4003,50,43,824
515203,4183972,4548852,4188325,4548773,1936,1234,3883,2959,1540,737,-372,3746,53,40,822
516204,4184180,4549084,4188522,4548970,2082,1343,3873,3044,1596,996,-243,3264,53,40,822
517205,4184392,4549360,4188719,4549167,2051,1034,3838,3012,1604,1240,-4,2788,54,42,823
518206,4184608,4549568,4188916,4549364,2019,1453,3776,2869,1552,1386,123,2282,54,42,823
519207,4184820,4549816,4189113,4549561,2038,1180,3710,2649,1476,1385,145,2002,34,48,823
520208,4185028,4550072,4189310,4549758,2059,1105,3634,2378,1403,1296,320,1807,34,48,823
521209,4185232,4550332,4189507,4549955,2081,1052,3526,2102,1308,1216,700,1662,50,47,821
522210,4185428,4550548,4189704,4550152,2133,1318,3377,1806,1179,1343,953,1332,50,47,821
523211,4185652,4550756,4189901,4550349,1947,1364,3205,1457,1031,1402,962,1196,34,46,823
524212,4185832,4550956,4190098,4550546,2230,1412,3018,1228,875,1338,1001,1396,34,46,823
525213,4186012,4551176,4190295,4550743,2239,1277,2798,1048,727,1205,927,1428,43,36,823
526214,4186228,4551428,4190492,4550940,2006,1053,2537,986,575,1031,915,1744,43,36,823
527215,4186420,4551656,4190689,4551137,2159,1189,2237,994,414,868,927,1825,53,49,822
528216,4186620,4551864,4190886,4551334,2108,1310,1907,1087,223,787,724,1912,53,49,822
529217,4186812,4552052,4191083,4551531,2161,1439,1557,1143,21,709,405,1842,44,35,824
530218,4187000,4552268,4191280,4551728,2191,1255,1211,1190,-206,642,694,1652,44,35,824
531219,4187156,4552428,4191477,4551925,2410,1620,870,1162,-477,608,984,1396,24,31,821
532220,4187336,4552668,4191674,4552122,2268,1102,518,1128,-735,585,329,1421,24,31,821
533221,4187480,4552868,4191871,4552319,2517,1350,166,1078,-938,412,-258,1484,22,36,820
534222,4187652,4553072,4192068,4552516,2354,1322,-199,1042,-1101,247,-454,1446,22,36,820
535223,4187868,4553308,4192265,4552713,2072,1105,-572,1009,-1236,245,-638,1403,24,42,822
536224,4188036,4553492,4192462,4552910,2386,1436,-953,942,-1342,400,-869,1250,24,42,822
537225,4188204,4553672,4192659,4553107,2399,1468,-1335,788,-1420,554,-999,1173,39,47,821
538226,4188372,4553880,4192856,4553304,2412,1288,-1703,560,-1457,622,-1029,1071,39,47,821
539227,4188552,4554056,4193053,4553501,2345,1498,-2059,324,-1451,737,-1043,1121,28,45,820
540228,4188736,4554248,4193250,4553698,2327,1399,-2417,101,-1402,824,-1026,1051,28,45,820
541229,4188900,4554460,4193447,4553895,2468,1267,-2749,-177,-1313,897,-895,1062,48,39,821
542230,4189112,4554632,4193644,4554092,2162,1528,-3045,-469,-1208,937,-682,1081,48,39,821
543231,4189340,4554812,4193841,4554289,2049,1486,-3295,-808,-1112,1044,-596,1065,37,37,819
544232,4189508,4554948,4194038,4554486,2438,1787,-3529,-1137,-1039,1255,-602,1286,37,37,819
545233,4189712,4555064,4194235,4554683,2210,1948,-3805,-1357,-987,1508,-504,1979,39,35,821
546234,4189880,4555204,4194432,4554880,2449,1823,-4105,-1545,-945,1736,-482,2114,39,35,821
547235,4190052,4555352,4194629,4555077,2436,1795,-4424,-1680,-903,1932,-219,2469,47,24,818
548237,4190244,4555512,4194826,4555274,2314,1736,-4694,-1892,-843,2183,227,2195,47,24,818
549237,4190416,4555680,4195023,4555471,2451,1699,-4874,-2326,-772,2290,400,1569,29,37,818
550239,4190604,4555856,4195220,4555668,2356,1658,-5002,-2852,-716,2408,587,1621,29,37,818
551239,4190816,4555960,4195417,4555865,2200,2149,-5106,-3342,-670,2584,648,1889,37,20,819
552241,4190984,4556152,4195614,4556062,2489,1601,-5232,-3630,-594,2831,664,2691,37,20,819
553241,4191164,4556288,4195811,4556259,2422,1978,-5455,-3629,-498,2885,508,3652,41,33,818
554242,4191388,4556412,4196008,4556456,2136,2085,-5746,-3436,-386,2972,328,4331,41,33,818
555243,4191576,4556540,4196205,4556653,2366,2090,-6065,-3068,-265,3030,212,5002,46,21,817
556244,4191796,4556644,4196402,4556850,2157,2281,-6335,-2678,-192,2899,185,5140,46,21,817
557245,4192056,4556808,4196599,4557047,1880,1921,-6528,-2339,-174,2868,-45,5212,53,27,818
558246,4192272,4556956,4196796,4557244,2148,2042,-6658,-2109,-194,2896,-299,5132,53,27,818
559247,4192488,4557128,4196993,4557441,2140,1903,-6730,-1923,-246,2987,-563,5087,41,31,817
560248,4192744,4557280,4197190,4557638,1865,2048,-6780,-1706,-307,3021,-897,5293,41,31,817
561249,4193032,4557400,4197387,4557835,1625,2282,-6794,-1401,-344,2878,-1407,5596,49,23,817
562250,4193324,4557528,4197584,4558032,1560,2262,-6742,-1104,-372,2732,-1669,5563,49,23,817
563251,4193576,4557652,4197781,4558229,1786,2319,-6621,-868,-413,2714,-1598,5533,59,18,820
564252,4193876,4557816,4197978,4558426,1442,2084,-6406,-737,-504,2796,-1386,5326,59,18,820
565253,4194148,4557956,4198175,4558623,1585,2259,-6107,-648,-659,2828,-1197,5394,64,24,819
566254,4194416,4558080,4198372,4558820,1579,2391,-5731,-524,-851,2712,-1082,5549,64,24,819
567255,4194684,4558256,4198569,4559017,1549,2076,-5316,-358,-1045,2600,-1185,5745,61,41,822
568256,4194900,4558392,4198766,4559214,1866,2353,-4870,-105,-1187,2553,-1464,5943,61,41,822
569257,4195096,4558596,4198963,4559411,1993,1925,-4429,135,-1254,2401,-1682,6055,39,26,820
570258,4195332,4558808,4199160,4559608,1726,1868,-4016,395,-1249,2227,-1997,6319,39,26,820
571259,4195552,4558976,4199357,4559805,1817,2156,-3626,671,-1219,2102,-1863,6452,46,36,818
572260,4195808,4559124,4199554,4560002,1567,2302,-3255,991,-1197,1911,-1401,6595,46,36,818
573261,4196024,4559280,4199751,4560199,1809,2270,-2869,1330,-1196,1702,-806,6622,44,38,822
574262,4196244,4559408,4199948,4560396,1774,2477,-2458,1628,-1187,1560,-634,6548,44,38,822
575263,4196544,4559592,4200145,4560593,1230,2132,-2022,1899,-1155,1306,-739,6565,48,26,819
576264,4196836,4559768,4200342,4560790,1239,2192,-1583,2209,-1128,949,-778,6709,48,26,819
577265,4197060,4559940,4200539,4560987,1652,2228,-1141,2509,-1164,645,-423,6678,58,42,818
578266,4197304,4560100,4200736,4561184,1508,2319,-718,2808,-1203,496,-512,6660,58,42,818
579267,4197544,4560288,4200933,4561381,1515,2149,-327,3107,-1197,479,-423,6492,52,26,822
580268,4197728,4560444,4201130,4561578,1871,2367,45,3263,-1179,508,-226,6102,52,26,822
581269,4197960,4560604,4201327,4561775,1556,2358,396,3372,-1162,658,-322,5949,47,35,820
582270,4198172,4560752,4201524,4561972,1676,2455,710,3344,-1119,875,-619,5490,47,35,820
583271,4198360,4560964,4201721,4562169,1830,2048,996,3237,-1034,1041,-1217,5357,32,27,818
584272,4198572,4561136,4201918,4562366,1674,2310,1265,3109,-901,1052,-1610,5132,32,27,818
585273,4198796,4561352,4202115,4562563,1587,2027,1514,2948,-748,916,-1387,5042,37,43,819
586274,4199032,4561520,4202312,4562760,1496,2339,1717,2834,-599,818,-850,5063,37,43,819
587275,4199252,4561692,4202509,4562957,1587,2325,1869,2676,-453,836,-394,4842,46,33,818
588276,4199476,4561892,4202706,4563154,1550,2150,1969,2561,-307,859,-81,4975,46,33,818
589277,4199664,4562092,4202903,4563351,1780,2149,2055,2393,-172,815,144,4678,44,35,820
590278,4199864,4562296,4203100,4563548,1705,2121,2120,2173,-50,808,71,4714,44,35,820
591288,4200048,4562472,4203330,4563778,1825,2319,2145,1997,57,886,-58,4644,29,36,821
592280,4200232,4562652,4203527,4563975,1831,2303,2162,1780,136,1135,-409,4267,29,36,821
593281,4200420,4562868,4203724,4564172,1810,2070,2147,1589,199,1375,-1061,4335,24,46,820
594282,4200596,4563088,4203921,4564369,1896,2034,2105,1329,275,1542,-1796,4086,24,46,820
595283,4200748,4563264,4204118,4564566,2066,2319,2021,1073,351,1590,-2244,4059,43,29,819
596284,4200936,4563448,4204315,4564763,1845,2275,1923,828,422,1533,-2594,4146,43,29,819
597286,4201088,4563620,4204512,4564960,2091,2361,1798,676,470,1479,-2623,4298,24,47,818
598286,4201236,4563780,4204709,4565157,2139,2453,1663,534,493,1514,-2399,4063,24,47,818
599287,4201412,4564000,4204906,4565354,1973,2068,1531,369,515,1643,-2228,3944,41,39,817
600288,4201608,4564184,4205103,4565551,1849,2299,1409,231,527,1705,-1679,3991,41,39,817
601289,4201764,4564392,4205300,4565748,2118,2144,1291,162,498,1501,-839,4074,30,32,816
602290,4201936,4564564,4205497,4565945,2029,2380,1186,202,451,1176,-438,4303,30,32,816
603291,4202128,4564748,4205694,4566142,1908,2311,1111,317,404,755,-212,4484,28,44,819
604292,4202292,4564912,4205891,4566339,2098,2452,1074,555,353,483,-5,4772,28,44,819
605293,4202460,4565080,4206088,4566536,2086,2439,1061,831,295,382,-27,4818,35,43,817
606294,4202636,4565264,4206285,4566733,2046,2345,1071,1173,228,333,-234,4922,35,43,817
607295,4202804,4565456,4206482,4566930,2110,2297,1117,1472,151,218,-410,4681,31,29,816
608296,4202972,4565632,4206679,4567127,2123,2407,1173,1716,86,225,-850,4597,31,29,816
609297,4203184,4565812,4206876,4567324,1842,2390,1212,2023,85,238,-1128,4669,26,47,816
610298,4203340,4566000,4207073,4567521,2211,2344,1214,2419,139,59,-859,4702,26,47,816
611299,4203516,4566184,4207270,4567718,2096,2376,1176,2680,188,-62,-597,4273,44,38,817
612300,4203668,4566352,4207467,4567915,2266,2488,1120,2870,220,-176,-424,4223,44,38,817
613301,4203836,4566520,4207664,4568112,2180,2501,1082,3052,220,-294,-393,4046,31,43,816
614302,4203984,4566712,4207861,4568309,2327,2354,1051,3140,187,-364,-455,3655,31,43,816
615303,4204140,4566896,4208058,4568506,2295,2410,1037,3095,155,-439,-484,3421,21,35,815
616304,4204300,4567084,4208255,4568703,2288,2389,1017,3032,194,-351,-1152,3323,21,35,815
617305,4204432,4567288,4208452,4568900,2492,2286,974,2978,352,-182,-1893,3152,40,29,815
618306,4204604,4567456,4208649,4569097,2254,2525,900,2841,590,-328,-1626,2806,40,29,815
619307,4204772,4567628,4208846,4569294,2292,2511,798,2551,836,-510,-1288,2524,40,38,813
620308,4204924,4567816,4209043,4569491,2413,2415,693,2200,1027,-738,-475,2334,40,38,813
621309,4205064,4568032,4209240,4569688,2514,2232,614,1796,1151,-917,-185,2157,34,46,814
622310,4205236,4568220,4209437,4569885,2326,2411,572,1372,1212,-1106,-223,2048,34,46,814
623311,4205408,4568468,4209634,4570082,2338,2014,530,992,1246,-1261,-266,2262,40,35,815
624312,4205556,4568668,4209831,4570279,2509,2313,489,718,1301,-1318,-287,2449,40,35,815
625313,4205700,4568872,4210028,4570476,2558,2285,453,557,1389,-1406,-327,2764,35,49,815
626314,4205888,4569096,4210225,4570673,2288,2149,405,476,1528,-1551,-398,3171,35,49,815
627315,4206032,4569300,4210422,4570870,2588,2271,328,535,1679,-1611,-528,3651,43,39,815
628316,4206164,4569536,4210619,4571067,2692,2054,222,630,1790,-1775,-496,3645,43,39,815
629317,4206340,4569784,4210816,4571264,2427,1957,91,737,1858,-1946,-529,3765,39,38,817
630318,4206488,4569984,4211013,4571461,2624,2256,-29,775,1889,-2008,-392,3691,39,38,817
631319,4206652,4570208,4211210,4571658,2540,2095,-87,780,1914,-2040,-274,3570,44,54,814
632320,4206820,4570400,4211407,4571855,2528,2297,-101,728,1960,-1921,-170,3471,44,54,814
633321,4207004,4570640,4211604,4572052,2435,1978,-99,594,2072,-1735,-147,3342,28,58,815
634322,4207172,4570928,4211801,4572249,2549,1638,-99,471,2249,-1625,-22,3492,28,58,815
635323,4207336,4571172,4211998,4572446,2589,1893,-92,326,2452,-1523,9,3361,45,50,815
636324,4207556,4571396,4212195,4572643,2230,2006,-81,159,2637,-1402,140,3397,45,50,815
637325,4207724,4571612,4212392,4572840,2569,2048,-54,-97,2779,-1372,468,3199,27,39,818
638326,4207896,4571848,4212589,4573037,2555,1906,-7,-387,2864,-1245,555,3203,27,39,818
639327,4208092,4572124,4212786,4573234,2406,1622,57,-715,2917,-1130,502,3209,47,44,818
640328,4208252,4572400,4212983,4573431,2649,1588,136,-1004,2998,-961,389,3413,47,44,818
641329,4208400,4572644,4213180,4573628,2746,1767,198,-1254,3126,-747,303,3591,28,58,816
642330,4208604,4572968,4213377,4573825,2394,1211,242,-1409,3298,-705,367,3916,28,58,816
643331,4208780,4573156,4213574,4574022,2579,2065,288,-1486,3475,-754,360,4073,26,49,816
644332,4208948,4573312,4213771,4574219,2643,2284,346,-1553,3606,-751,183,4274,26,49,816
645333,4209140,4573488,4213968,4574416,2496,2168,422,-1600,3692,-778,158,4390,26,36,820
646334,4209308,4573652,4214165,4574613,2660,2258,521,-1572,3746,-724,590,4679,26,36,820
647335,4209456,4573868,4214362,4574810,2807,1924,631,-1523,3753,-673,796,4756,37,42,814
648336,4209596,4574100,4214559,4575007,2884,1809,752,-1380,3712,-706,428,5124,37,42,814
649337,4209776,4574392,4214756,4575204,2642,1392,903,-1137,3655,-565,-150,5459,23,50,814
650338,4209900,4574720,4214953,4575401,3024,1111,1062,-804,3573,-473,287,5652,23,50,814
651339,4210036,4575076,4215150,4575598,2977,866,1217,-426,3480,-437,929,5831,37,70,815
652340,4210180,4575328,4215347,4575795,2951,1492,1371,-122,3378,-362,1078,5643,37,70,815
653341,4210300,4575540,4215544,4575992,3136,1735,1485,153,3265,-385,768,5743,46,53,816
654342,4210456,4575840,4215741,4576189,2930,1140,1555,407,3181,-277,149,5624,46,53,816
655343,4210684,4576208,4215938,4576386,2467,640,1609,610,3123,-197,275,5521,34,69,816
656344,4210840,4576596,4216135,4576583,2936,431,1654,846,3059,-202,325,5531,34,69,816
657345,4211032,4576940,4216332,4576780,2715,641,1695,1009,2960,-162,157,5329,39,65,817
658346,4211224,4577252,4216529,4576977,2718,791,1748,1132,2804,-117,438,5247,39,65,817
659347,4211388,4577632,4216726,4577174,2908,285,1792,1203,2616,-38,798,5092,47,63,820
660348,4211564,4578016,4216923,4577371,2844,178,1828,1314,2423,47,824,5185,47,63,820
661349,4211716,4578364,4217120,4577568,3014,337,1877,1430,2232,62,824,5083,46,75,821
662350,4211876,4578612,4217317,4577765,2983,939,1935,1515,2043,113,856,5038,46,75,821
663351,4212052,4578968,4217514,4577962,2893,194,1958,1647,1829,191,1080,5247,28,63,820
664352,4212212,4579324,4217711,4578159,3010,124,1913,1769,1591,215,1338,5130,28,63,820
665353,4212356,4579596,4217908,4578356,3134,616,1825,1907,1317,233,1451,4997,47,54,817
666354,4212476,4579804,4218105,4578553,3319,1011,1684,2041,997,212,1607,5110,47,54,817
667355,4212600,4580068,4218302,4578750,3327,631,1512,2215,650,138,1738,5324,25,60,819
668356,4212744,4580304,4218499,4578947,3227,788,1346,2448,287,-30,1986,5332,25,60,819
669357,4212920,4580508,4218696,4579144,3037,985,1154,2670,-95,-234,2326,5247,43,50,816
670358,4213076,4580696,4218893,4579341,3181,1089,903,2900,-464,-265,2474,5213,43,50,816
671359,4213256,4580856,4219090,4579538,3039,1280,597,3039,-788,-115,2248,4845,47,47,817
672360,4213408,4581036,4219287,4579735,3235,1162,313,3086,-1056,33,2026,4664,47,47,817
673361,4213588,4581188,4219484,4579932,3069,1357,78,3049,-1267,214,1791,4279,47,26,816
674369,4213756,4581356,4219714,4580162,3173,1284,-143,2917,-1424,462,1510,4070,47,26,816
675363,4213932,4581500,4219911,4580359,3133,1457,-326,2813,-1500,762,1327,4052,27,39,814
676364,4214116,4581660,4220108,4580556,3090,1372,-475,2799,-1520,1096,1612,4330,27,39,814
677365,4214304,4581828,4220305,4580753,3070,1335,-581,2877,-1517,1274,1783,4404,51,31,816
678366,4214504,4582016,4220502,4580950,2994,1214,-661,2874,-1520,1304,1952,4210,51,31,816
679367,4214680,4582160,4220699,4581147,3155,1512,-724,2829,-1578,1357,2002,3941,47,35,816
680368,4214884,4582324,4220896,4581344,2977,1402,-770,2653,-1705,1312,2004,3705,47,35,816
681369,4215088,4582448,4221093,4581541,2975,1683,-807,2468,-1895,1246,1813,3718,34,42,817
682370,4215280,4582564,4221290,4581738,3055,1769,-846,2341,-2111,1151,1378,3708,34,42,817
683371,4215516,4582732,4221487,4581935,2763,1456,-903,2332,-2294,1116,654,4081,34,34,817
684372,4215716,4582904,4221684,4582132,2988,1442,-992,2464,-2436,1008,239,4458,34,34,817
685374,4215908,4583060,4221881,4582329,3041,1560,-1103,2718,-2588,761,125,4821,37,39,814
686374,4216112,4583208,4222078,4582526,2964,1632,-1211,3064,-2789,408,-147,5059,37,39,814
687375,4216304,4583332,4222275,4582723,3042,1813,-1278,3460,-3064,-19,-608,5187,45,30,815
688376,4216492,4583456,4222472,4582920,3072,1845,-1299,3862,-3438,-488,-826,5154,45,30,815
689377,4216660,4583624,4222669,4583117,3212,1583,-1334,4225,-3848,-762,-1158,5187,48,35,815
690378,4216872,4583776,4222866,4583314,2932,1702,-1402,4585,-4218,-945,-1530,5114,48,35,815
691379,4217080,4583904,4223063,4583511,2953,1883,-1475,4914,-4509,-1166,-1884,5048,31,32,814
692380,4217268,4584000,4223260,4583708,3083,2127,-1525,5219,-4702,-1305,-2264,4921,31,32,814
693381,4217480,4584136,4223457,4583905,2927,1904,-1549,5374,-4775,-1364,-2602,4454,40,39,815
694382,4217664,4584316,4223654,4584102,3109,1636,-1553,5471,-4740,-1484,-2721,4146,40,39,815
695383,4217836,4584504,4223851,4584299,3196,1590,-1519,5357,-4618,-1708,-2792,3578,31,29,813
696384,4218016,4584684,4224048,4584496,3155,1648,-1456,5105,-4472,-1932,-2822,3342,31,29,813
697385,4218196,4584856,4224245,4584693,3164,1709,-1372,4791,-4317,-2232,-2780,3154,27,38,813
698386,4218384,4584980,4224442,4584890,3119,2041,-1283,4394,-4152,-2372,-2778,2877,27,38,813
699387,4218584,4585112,4224639,4585087,3043,2020,-1200,3920,-3960,-2504,-2962,2929,25,24,814
700388,4218784,4585260,4224836,4585284,3043,1941,-1136,3519,-3719,-2703,-3042,3193,25,24,814
701389,4218948,4585440,4225033,4585481,3284,1749,-1083,3168,-3441,-2745,-3137,3374,30,35,813
702390,4219180,4585572,4225230,4585678,2845,2077,-1018,2794,-3095,-2717,-3198,3502,30,35,813
703391,4219376,4585700,4225427,4585875,3072,2132,-944,2464,-2719,-2648,-2674,3560,48,23,813
704392,4219560,4585808,4225624,4586072,3153,2297,-880,2054,-2383,-2555,-1997,3363,48,23,813
705393,4219780,4585964,4225821,4586269,2919,2015,-821,1538,-2082,-2525,-1642,3379,49,35,814
706394,4219976,4586112,4226018,4586466,3071,2086,-775,1027,-1803,-2329,-1518,3504,49,35,814
707395,4220188,4586252,4226215,4586663,2965,2161,-752,577,-1539,-2189,-1490,3695,38,35,810
708396,4220424,4586368,4226412,4586860,2799,2347,-760,219,-1292,-2159,-1320,4147,38,35,810
709397,4220632,4586448,4226609,4587057,2971,2623,-800,-110,-1083,-1987,-1180,4192,43,35,811
710398,4220848,4586592,4226806,4587254,2914,2246,-879,-426,-912,-1814,-1003,4402,43,35,811
711399,4221072,4586708,4227003,4587451,2853,2457,-992,-684,-778,-1570,-749,4435,48,37,813
712400,4221352,4586876,4227200,4587648,2467,2145,-1123,-1003,-676,-1256,-530,4373,48,37,813
713401,4221588,4587024,4227397,4587845,2726,2292,-1249,-1337,-605,-1054,-244,4425,49,37,813
714402,4221852,4587144,4227594,4588042,2523,2501,-1365,-1721,-566,-771,43,4410,49,37,813
715403,4222156,4587256,4227791,4588239,2227,2588,-1466,-2053,-563,-462,356,4470,41,35,816
716404,4222440,4587400,4227988,4588436,2315,2412,-1535,-2408,-612,-277,598,4427,41,35,816
717405,4222684,4587556,4228185,4588633,2545,2355,-1562,-2757,-703,-83,813,4453,67,22,813
718406,4223020,4587704,4228382,4588830,1910,2427,-1530,-3081,-824,171,813,4492,67,22,813
719407,4223324,4587816,4228579,4589027,2064,2690,-1450,-3350,-941,326,505,4597,70,26,814
720408,4223636,4587992,4228776,4589224,1964,2299,-1352,-3597,-1043,517,44,4718,70,26,814
721409,4223968,4588124,4228973,4589421,1781,2602,-1248,-3801,-1109,699,-194,4893,59,35,817
722410,4224276,4588256,4229170,4589618,1883,2631,-1133,-3914,-1144,870,-136,5120,59,35,817
723411,4224612,4588412,4229367,4589815,1648,2500,-990,-3971,-1173,979,-81,5135,57,40,818
724412,4224948,4588572,4229564,4590012,1588,2491,-833,-3981,-1208,856,-42,5262,57,40,818
725413,4225260,4588744,4229761,4590209,1688,2427,-634,-3948,-1264,734,-55,5276,72,35,816
726414,4225588,4588896,4229958,4590406,1532,2573,-411,-3939,-1323,737,-302,5231,72,35,816
727415,4225904,4589036,4230155,4590603,1556,2673,-152,-3850,-1363,667,-631,5344,54,40,819
728416,4226244,4589192,4230352,4590800,1344,2591,127,-3730,-1376,486,-895,5456,54,40,819
729417,4226556,4589336,4230549,4590997,1468,2689,435,-3580,-1386,316,-1014,5484,57,41,817
730418,4226872,4589492,4230746,4591194,1392,2633,766,-3372,-1372,217,-1024,5520,57,41,817
731419,4227180,4589624,4230943,4591391,1394,2812,1132,-3100,-1318,184,-1123,5529,75,26,817
732420,4227448,4589800,4231140,4591588,1614,2546,1515,-2810,-1239,28,-1158,5498,75,26,817
733421,4227744,4589980,4231337,4591785,1395,2530,1912,-2535,-1142,-150,-1155,5404,53,40,819
734422,4228060,4590136,4231534,4591982,1219,2698,2305,-2268,-1052,-261,-966,5234,53,40,819
735423,4228316,4590288,4231731,4592179,1569,2743,2700,-1992,-979,-406,-817,5149,52,28,817
736424,4228608,4590444,4231928,4592376,1302,2737,3092,-1679,-909,-620,-1013,5142,52,28,817
737425,4228856,4590636,4232125,4592573,1556,2514,3498,-1400,-839,-789,-1249,4954,62,39,819
738426,4229088,4590828,4232322,4592770,1642,2517,3895,-1109,-748,-771,-1588,4919,62,39,819
739427,4229340,4590992,4232519,4592967,1493,2706,4277,-770,-617,-724,-1826,4760,62,28,818
740428,4229608,4591152,4232716,4593164,1362,2748,4609,-487,-472,-764,-1784,4454,62,28,818
741429,4229872,4591308,4232913,4593361,1358,2792,4857,-319,-320,-786,-1679,4120,55,31,817
742430,4230100,4591472,4233110,4593558,1570,2756,5012,-216,-169,-782,-1303,3735,55,31,817
743431,4230372,4591648,4233307,4593755,1263,2690,5111,-146,-33,-770,-911,3391,56,42,818
744432,4230600,4591852,4233504,4593952,1525,2513,5223,-224,89,-813,-775,2904,56,42,818
745433,4230884,4592004,4233701,4594149,1137,2858,5325,-319,193,-766,-663,2722,45,36,817
746434,4231196,4592184,4233898,4594346,912,2692,5388,-482,282,-768,-479,2361,45,36,817
747435,4231464,4592412,4234095,4594543,1157,2378,5413,-678,338,-679,-387,2233,65,39,819
748436,4231732,4592620,4234292,4594740,1126,2498,5383,-864,379,-639,-435,2118,65,39,819
749437,4232020,4592848,4234489,4594937,962,2361,5320,-1043,439,-623,-510,2006,43,42,820
750438,4232328,4593076,4234686,4595134,788,2347,5247,-1215,531,-484,-499,1869,43,42,820
751439,4232588,4593292,4234883,4595331,1061,2415,5164,-1449,640,-430,-384,1639,61,36,820
752440,4232872,4593512,4235080,4595528,873,2379,5049,-1686,743,-415,-219,1583,61,36,820
753441,4233144,4593732,4235277,4595725,915,2369,4889,-1936,835,-383,-170,1359,47,45,821
754442,4233412,4593948,4235474,4595922,910,2387,4700,-2216,927,-419,-226,1313,47,45,821
755443,4233684,4594192,4235671,4596119,852,2191,4497,-2456,1030,-417,-243,1252,46,53,822
756444,4233940,4594400,4235868,4596316,927,2412,4287,-2696,1151,-425,-145,1166,46,53,822
757452,4234156,4594652,4236098,4596546,1183,2128,4052,-2874,1314,-444,-89,1259,59,46,822
758446,4234400,4594884,4236295,4596743,987,2237,3785,-3035,1505,-335,25,1221,59,46,822
759447,4234656,4595100,4236492,4596940,887,2330,3472,-3160,1702,-195,192,1236,37,44,822
760448,4234864,4595328,4236689,4597137,1183,2241,3125,-3252,1887,-146,393,1308,37,44,822
761449,4235076,4595524,4236886,4597334,1151,2442,2760,-3370,2059,-5,600,1112,47,51,823
762450,4235316,4595700,4237083,4597531,958,2577,2383,-3481,2215,117,826,1180,47,51,823
763451,4235512,4595892,4237280,4597728,1233,2479,2001,-3553,2353,189,1050,1158,56,40,820
764452,4235700,4596100,4237477,4597925,1287,2375,1610,-3658,2470,263,1260,1052,56,40,820
765453,4235892,4596268,4237674,4598122,1266,2638,1226,-3758,2570,377,1481,1148,38,40,821
766454,4236052,4596476,4237871,4598319,1482,2383,836,-3854,2661,523,1577,1236,38,40,821
767455,4236216,4596656,4238068,4598516,1471,2566,452,-3868,2757,745,1566,1382,39,30,820
768456,4236412,4596788,4238265,4598713,1273,2895,62,-3851,2844,870,1594,1452,39,30,820
769457,4236560,4596924,4238462,4598910,1594,2897,-327,-3810,2898,993,1515,1650,39,24,819
770458,4236728,4597060,4238659,4599107,1483,2925,-707,-3751,2907,1115,1578,1741,39,24,819
771459,4236912,4597208,4238856,4599304,1389,2872,-1066,-3689,2870,1331,1593,1812,31,24,817
772460,4237056,4597356,4239053,4599501,1662,2893,-1412,-3579,2794,1559,1483,1933,31,24,817
773461,4237208,4597488,4239250,4599698,1633,3023,-1749,-3456,2688,1706,1496,2163,35,28,815
774462,4237412,4597564,4239447,4599895,1305,3426,-2080,-3275,2543,1789,1569,2380,35,28,815
775463,4237552,4597672,4239644,4600092,1730,3266,-2413,-3077,2371,1927,1622,2593,27,12,813
776464,4237720,4597760,4239841,4600289,1569,3439,-2764,-2868,2166,2025,1643,2760,27,12,813
777465,4237908,4597896,4240038,4600486,1448,3167,-3107,-2625,1969,2240,1386,3021,36,30,812
778466,4238076,4597992,4240235,4600683,1586,3461,-3435,-2323,1781,2443,1520,3198,36,30,812
779467,4238228,4598124,4240432,4600880,1706,3266,-3729,-2091,1607,2538,1544,3191,37,15,811
780468,4238428,4598224,4240629,4601077,1405,3508,-4008,-1813,1429,2748,1434,3520,37,15,811
781469,4238624,4598332,4240826,4601274,1431,3498,-4304,-1444,1233,2968,1294,4041,27,22,811
782470,4238804,4598444,4241023,4601471,1539,3511,-4566,-1002,1010,2969,1262,4135,27,22,811
783471,4238996,4598576,4241220,4601668,1467,3415,-4781,-590,790,2912,1077,4270,40,18,812
784472,4239220,4598708,4241417,4601865,1255,3444,-4945,-105,568,2854,1000,4709,40,18,812
785473,4239428,4598860,4241614,4602062,1351,3340,-5082,380,327,2661,986,4765,29,20,810
786474,4239608,4598976,4241811,4602259,1534,3601,-5144,784,68,2350,818,4542,29,20,810
787475,4239820,4599132,4242008,4602456,1327,3369,-5163,1105,-169,2100,542,4694,52,29,813
788476,4240012,4599280,4242205,4602653,1455,3442,-5173,1430,-346,1882,271,4860,52,29,813
789477,4240204,4599404,4242402,4602850,1457,3624,-5171,1774,-458,1658,-61,4760,43,20,810
790478,4240440,4599560,4242599,4603047,1166,3443,-5136,2063,-549,1404,-192,4686,43,20,810
791479,4240628,4599700,4242796,4603244,1470,3569,-5059,2250,-650,1013,-246,4617,34,35,812
792480,4240792,4599848,4242993,4603441,1635,3540,-4930,2309,-758,624,-293,4410,34,35,812
793481,4240996,4600036,4243190,4603638,1383,3295,-4735,2291,-870,207,-282,4237,52,43,813
794482,4241204,4600244,4243387,4603835,1353,3167,-4493,2233,-965,-198,-315,4359,52,43,813
795483,4241384,4600452,4243584,4604032,1536,3162,-4255,2219,-999,-534,-511,4768,51,32,810
796484,4241572,4600684,4243781,4604229,1490,2997,-4046,2239,-949,-813,-670,4837,51,32,810
797485,4241744,4600896,4243978,4604426,1602,3117,-3849,2301,-837,-1121,-748,4991,36,44,814
798486,4241912,4601108,4244175,4604623,1640,3111,-3634,2240,-698,-1485,-850,4991,36,44,814
799487,4242112,4601372,4244372,4604820,1439,2757,-3394,2177,-541,-1817,-989,5107,46,54,815
800488,4242300,4601628,4244569,4605017,1519,2782,-3158,2179,-357,-2112,-1223,5500,46,54,815
801489,4242436,4601892,4244766,4605214,1870,2702,-2920,2204,-162,-2357,-1270,5550,47,47,814
802490,4242600,4602144,4244963,4605411,1711,2754,-2671,2188,33,-2545,-1284,5542,47,47,814
803491,4242772,4602392,4245160,4605608,1672,2758,-2417,2112,244,-2647,-1370,5647,37,42,817
804492,4242928,4602644,4245357,4605805,1791,2709,-2164,2017,488,-2647,-1480,5640,37,42,817
805493,4243068,4602856,4245554,4606002,1916,2953,-1910,1902,761,-2615,-1593,5696,23,60,816
806494,4243240,4603168,4245751,4606199,1728,2278,-1629,1723,1049,-2618,-1688,5533,23,60,816
807495,4243388,4603464,4245948,4606396,1900,2335,-1327,1462,1318,-2629,-1736,5408,22,62,815
808496,4243520,4603724,4246145,4606593,2029,2533,-1020,1149,1561,-2542,-1740,5340,22,62,815
809497,4243672,4603956,4246342,4606790,1924,2693,-713,787,1806,-2377,-1671,5334,27,55,819
810498,4243836,4604268,4246539,4606987,1864,2143,-404,427,2098,-2194,-1787,5484,27,55,819
811499,4243964,4604556,4246736,4607184,2120,2253,-118,109,2407,-2106,-1742,5654,32,48,816
812500,4244124,4604844,4246933,4607381,1937,2214,133,-157,2647,-2018,-1207,5737,32,48,816
813501,4244228,4605108,4247130,4607578,2328,2335,364,-437,2780,-1756,-641,5745,19,51,819
814502,4244336,4605344,4247327,4607775,2343,2494,581,-751,2851,-1428,-450,5680,19,51,819
815503,4244464,4605672,4247524,4607972,2248,1861,788,-1120,2904,-1110,-363,5622,35,56,818
816504,4244576,4605944,4247721,4608169,2387,2179,983,-1492,2930,-761,-29,5602,35,56,818
817505,4244692,4606212,4247918,4608366,2397,2173,1166,-1870,2927,-444,142,5561,41,48,813
818506,4244860,4606468,4248115,4608563,2086,2222,1375,-2189,2917,-153,169,5618,41,48,813
819507,4244972,4606720,4248312,4608760,2474,2224,1606,-2498,2868,43,470,5684,25,57,815
820509,4245116,4606980,4248509,4608957,2298,2146,1837,-2706,2778,221,667,5941,25,57,815
821509,4245300,4607316,4248706,4609154,2054,1611,2047,-2838,2673,470,636,6082,22,48,818
822510,4245428,4607608,4248903,4609351,2436,1844,2226,-2899,2571,709,750,6229,22,48,818
823511,4245568,4607872,4249100,4609548,2386,1990,2385,-2918,2458,892,1134,6250,45,61,817
824512,4245724,4608128,4249297,4609745,2305,2015,2532,-2927,2357,1105,1155,6189,45,61,817
825513,4245876,4608444,4249494,4609942,2350,1588,2677,-2848,2276,1062,800,6373,45,54,817
826514,4246036,4608788,4249691,4610139,2317,1348,2815,-2730,2207,1011,620,6316,45,54,817
827515,4246192,4609084,4249888,4610336,2361,1605,2960,-2591,2132,996,772,6267,42,55,818
828516,4246380,4609356,4250085,4610533,2166,1723,3134,-2438,2060,913,684,6195,42,55,818
829517,4246564,4609664,4250282,4610730,2196,1449,3310,-2230,2017,758,523,6285,41,61,819
830518,4246756,4610000,4250479,4610927,2150,1213,3478,-1999,1991,554,545,6179,41,61,819
831519,4246948,4610320,4250676,4611124,2153,1259,3648,-1713,1979,423,370,6123,32,65,820
832520,4247144,4610664,4250873,4611321,2129,1044,3806,-1372,2004,285,320,6115,32,65,820
833521,4247324,4610956,4251070,4611518,2237,1328,3957,-1029,2042,119,320,5732,47,67,822
834522,4247528,4611304,4251267,4611715,2085,912,4114,-750,2080,-73,230,5629,47,67,822
835523,4247728,4611632,4251464,4611912,2109,980,4269,-436,2107,-242,393,5487,39,64,823
836524,4247944,4611924,4251661,4612109,2001,1163,4420,-79,2121,-416,544,5341,39,64,823
837525,4248180,4612232,4251858,4612306,1860,1014,4557,366,2147,-574,302,5438,36,58,824
838526,4248380,4612500,4252055,4612503,2084,1233,4678,851,2202,-676,35,5315,36,58,824
839527,4248580,4612804,4252252,4612700,2083,961,4775,1327,2264,-659,-83,5039,56,49,822
840535,4248804,4613112,4252482,4612930,1937,902,4838,1722,2297,-531,-45,4528,56,49,822
841529,4249016,4613360,4252679,4613127,2006,1254,4866,2045,2304,-277,-158,4220,36,61,821
842530,4249232,4613600,4252876,4613324,1974,1285,4874,2281,2325,-85,-189,3842,36,61,821
843531,4249464,4613828,4253073,4613521,1858,1347,4876,2514,2374,16,-102,3801,44,54,824
844532,4249668,4614112,4253270,4613718,2031,958,4870,2768,2450,204,-176,3557,44,54,824
845533,4249872,4614360,4253467,4613915,2029,1161,4852,2970,2549,441,-232,3214,57,55,823
846534,4250096,4614596,4253664,4614112,1892,1218,4801,3104,2620,706,-11,2780,57,55,823
847535,4250292,4614844,4253861,4614309,2069,1120,4718,3059,2621,903,236,2178,45,40,824
848536,4250516,4615056,4254058,4614506,1883,1339,4619,2920,2577,986,376,1789,45,40,824
849537,4250712,4615236,4254255,4614703,2058,1546,4507,2660,2518,1070,210,1401,37,52,823
850538,4250912,4615504,4254452,4614900,2033,965,4372,2370,2442,1169,-29,1177,37,52,823
851539,4251132,4615744,4254649,4615097,1899,1121,4194,2024,2320,1288,366,769,45,35,821
852540,4251332,4615956,4254846,4615294,2023,1290,3974,1670,2148,1442,416,676,45,35,821
853541,4251528,4616176,4255043,4615491,2049,1229,3723,1382,1969,1516,300,799,33,33,823
854542,4251732,4616376,4255240,4615688,1997,1353,3431,1168,1776,1403,542,903,33,33,823
855543,4251948,4616552,4255437,4615885,1914,1511,3099,1069,1541,1269,562,1161,35,46,823
856544,4252168,4616796,4255634,4616082,1880,1066,2688,1068,1248,1079,812,1279,35,46,823
857545,4252368,4617016,4255831,4616279,2004,1206,2233,1100,918,1104,593,1213,47,50,822
858546,4252544,4617236,4256028,4616476,2164,1196,1735,1114,592,1116,610,1049,47,50,822
859547,4252724,4617456,4256225,4616673,2147,1185,1256,1051,245,1016,1083,718,27,36,824
860548,4252880,4617688,4256422,4616870,2316,1095,776,913,-130,874,1031,557,27,36,824
861549,4253040,4617848,4256619,4617067,2307,1561,287,747,-479,666,378,546,33,41,821
862550,4253200,4618048,4256816,4617264,2325,1309,-205,582,-755,539,-362,602,33,41,821
863551,4253404,4618276,4257013,4617461,2047,1120,-703,479,-971,543,-615,659,33,46,820
864552,4253576,4618452,4257210,4617658,2258,1455,-1189,389,-1138,607,-893,653,33,46,820
865553,4253744,4618664,4257407,4617855,2297,1223,-1632,277,-1241,761,-1179,702,40,40,821
866554,4253908,4618880,4257604,4618052,2338,1190,-2046,103,-1284,838,-1219,576,40,40,821
867555,4254092,4619064,4257801,4618249,2218,1395,-2463,-65,-1299,842,-1023,646,45,41,820
868556,4254284,4619224,4257998,4618446,2172,1561,-2862,-241,-1291,813,-967,701,45,41,820
869557,4254476,4619456,4258195,4618643,2175,1095,-3230,-424,-1262,848,-898,725,28,28,821
870558,4254696,4619636,4258392,4618840,1991,1428,-3569,-592,-1204,878,-767,815,28,28,821
871559,4254940,4619800,4258589,4619037,1820,1542,-3871,-780,-1146,936,-683,777,51,39,821
872560,4255188,4619984,4258786,4619234,1774,1423,-4133,-1022,-1123,1008,-630,878,51,39,821
873561,4255404,4620136,4258983,4619431,1966,1643,-4362,-1278,-1144,1110,-485,931,34,33,821
874562,4255616,4620276,4259180,4619628,1985,1743,-4578,-1564,-1189,1268,-512,1054,34,33,821
875563,4255844,4620408,4259377,4619825,1872,1820,-4828,-1707,-1217,1359,-689,1840,41,30,823
876564,4256084,4620544,4259574,4620022,1779,1822,-5161,-1538,-1226,1465,-716,3148,41,30,823
877565,4256320,4620676,4259771,4620219,1787,1876,-5503,-1230,-1246,1559,-820,3199,44,23,820
878566,4256580,4620796,4259968,4620416,1610,1985,-5812,-983,-1279,1723,-826,3290,44,23,820
879567,4256856,4620956,4260165,4620613,1477,1751,-6055,-905,-1336,2124,-557,2960,39,21,821
880568,4257068,4621144,4260362,4620810,1870,1580,-6178,-1152,-1405,2259,-645,2102,39,21,821
881569,4257352,4621312,4260559,4621007,1383,1717,-6209,-1504,-1504,2210,-568,2145,60,29,821
882570,4257600,4621452,4260756,4621204,1586,1918,-6224,-1855,-1654,2151,-473,2319,60,29,821
883571,4257880,4621592,4260953,4621401,1350,1943,-6244,-2069,-1795,2204,-746,2751,62,22,821
884572,4258116,4621744,4261150,4621598,1609,1887,-6318,-2113,-1868,2452,-963,3463,62,22,821
885573,4258332,4621876,4261347,4621795,1725,2041,-6426,-2066,-1880,2733,-1468,3824,43,35,820
886574,4258580,4622016,4261544,4621992,1504,2016,-6531,-1954,-1839,2775,-2049,4122,43,35,820
887575,4258856,4622136,4261741,4622189,1294,2175,-6598,-1904,-1761,2774,-2609,4071,57,32,822
888576,4259044,4622244,4261938,4622386,1849,2289,-6590,-1966,-1700,2860,-2438,3812,57,32,822
889577,4259280,4622396,4262135,4622583,1533,2034,-6510,-2103,-1714,2789,-1926,3749,55,20,821
890578,4259508,4622536,4262332,4622780,1570,2134,-6379,-2255,-1775,2862,-1708,3810,55,20,821
891579,4259720,4622692,4262529,4622977,1664,2052,-6225,-2387,-1835,2906,-1585,4217,36,24,818
892580,4259952,4622832,4262726,4623174,1524,2177,-6057,-2337,-1858,2805,-1435,4850,36,24,818
893581,4260172,4622968,4262923,4623371,1589,2229,-5896,-2156,-1832,2736,-1672,5355,40,33,819
894582,4260408,4623104,4263120,4623568,1472,2255,-5662,-1838,-1742,2685,-1736,5802,40,33,819
895583,4260608,4623212,4263317,4623765,1697,2470,-5376,-1478,-1618,2523,-1586,6137,49,25,819
896584,4260836,4623368,4263514,4623962,1508,2188,-5010,-1031,-1525,2299,-1347,6456,49,25,819
897585,4261052,4623512,4263711,4624159,1576,2286,-4590,-532,-1474,2064,-1241,6834,50,29,819
898586,4261216,4623648,4263908,4624356,1916,2364,-4140,37,-1432,1888,-1039,7038,43,21,819
899587,4261424,4623756,4264105,4624553,1637,2578,-3690,632,-1412,1715,-618,7302,43,21,819
900588,4261600,4623916,4264302,4624750,1846,2269,-3235,1312,-1416,1529,-597,7544,27,32,817
901589,4261792,4624132,4264499,4624947,1749,1911,-2774,1983,-1377,1433,-1173,7588,27,32,817
902590,4261952,4624312,4264696,4625144,1965,2143,-2315,2588,-1294,1436,-1274,7402,47,25,818
903591,4262128,4624488,4264893,4625341,1876,2177,-1878,3103,-1208,1380,-956,7158,47,25,818
904592,4262308,4624624,4265090,4625538,1858,2454,-1504,3468,-1131,1294,-738,6770,27,38,817
905593,4262520,4624764,4265287,4625735,1652,2455,-1160,3646,-1045,1258,-507,6300,27,38,817
906594,4262696,4624892,4265484,4625932,1887,2561,-804,3717,-922,1227,-323,6073,48,32,815
907595,4262892,4625092,4265681,4626129,1763,2109,-426,3728,-780,1245,-254,5789,48,32,815
908596,4263108,4625268,4265878,4626326,1630,2268,-55,3765,-638,1175,-233,5893,37,23,816
909597,4263328,4625440,4266075,4626523,1596,2304,300,3784,-500,1077,-445,5807,37,23,816
910598,4263536,4625580,4266272,4626720,1667,2530,623,3806,-407,947,-806,5965,52,28,819
911599,4263740,4625724,4266469,4626917,1689,2529,935,3878,-350,805,-1080,6019,52,28,819
912600,4263996,4625864,4266666,4627114,1339,2579,1247,3857,-327,752,-1202,5629,39,23,818
913601,4264196,4626040,4266863,4627311,1688,2363,1528,3807,-339,882,-1393,5547,39,23,818
914602,4264396,4626212,4267060,4627508,1687,2400,1777,3712,-362,960,-1193,5270,50,29,818
915603,4264624,4626364,4267257,4627705,1499,2545,1969,3542,-407,1000,-795,4987,50,29,818
916604,4264788,4626564,4267454,4627902,1914,2243,2100,3321,-462,1013,-685,4975,29,29,817
917605,4264988,4626708,4267651,4628099,1688,2617,2171,3134,-522,911,-426,5065,29,29,817
918606,4265172,4626884,4267848,4628296,1794,2427,2189,2953,-587,932,-91,4976,36,39,818
919607,4265360,4627088,4268045,4628493,1773,2249,2184,2760,-618,1002,121,4830,36,39,818
920608,4265520,4627280,4268242,4628690,1966,2326,2155,2513,-577,1061,18,4700,27,28,817
921609,4265684,4627484,4268439,4628887,1955,2248,2138,2228,-435,1228,-655,4557,27,28,817
922610,4265812,4627648,4268636,4629084,2212,2514,2120,1873,-202,1359,-1118,4429,25,40,817
923620,4265972,4627812,4268866,4629314,2042,2543,2104,1553,63,1348,-1068,4336,25,40,817
924612,4266136,4628004,4269063,4629511,2033,2370,2090,1208,310,1374,-1077,4235,22,47,816
925613,4266300,4628228,4269260,4629708,2047,2158,1964,1024,564,1377,-1288,4930,22,47,816
926614,4266460,4628400,4269457,4629905,2090,2495,1571,1268,825,1355,-1557,6079,39,38,816
927615,4266640,4628596,4269654,4630102,1972,2345,1317,1233,932,1244,-491,4066,39,38,816
928616,4266828,4628764,4269851,4630299,1927,2533,1184,921,920,1030,-464,4092,23,45,814
929617,4267004,4628944,4270048,4630496,2012,2467,1088,538,892,732,-898,4060,23,45,814
930618,4267172,4629140,4270245,4630693,2075,2367,1024,259,887,592,-1244,4244,21,48,815
931619,4267348,4629292,4270442,4630890,2035,2662,1003,114,934,606,-1627,4480,21,48,815
932620,4267500,4629484,4270639,4631087,2205,2414,993,159,987,555,-1380,4993,43,46,816
933621,4267668,4629648,4270836,4631284,2119,2604,1005,281,1000,238,-1272,5044,43,46,816
934622,4267868,4629828,4271033,4631481,1918,2512,1029,497,1012,201,-1789,5408,32,33,815
935623,4268012,4630024,4271230,4631678,2292,2412,1078,761,1009,277,-1464,5474,32,33,815
936624,4268184,4630260,4271427,4631875,2129,2146,1154,1064,979,161,-1166,5490,28,48,816
937625,4268404,4630408,4271624,4632072,1819,2718,1246,1353,916,-158,-1023,5316,28,48,816
938626,4268564,4630604,4271821,4632269,2211,2418,1333,1516,831,-354,-786,5008,42,41,816
939627,4268748,4630748,4272018,4632466,2068,2767,1410,1615,730,-437,-510,4918,42,41,816
940628,4268892,4630956,4272215,4632663,2341,2363,1457,1765,644,-512,-282,4823,40,29,815
941630,4269056,4631152,4272412,4632860,2231,2438,1461,1855,606,-600,-226,4570,40,29,815
942631,4269220,4631380,4272609,4633057,2247,2225,1429,1820,607,-684,-75,4295,42,48,814
943632,4269376,4631580,4272806,4633254,2315,2399,1368,1714,613,-654,204,4081,42,48,814
944632,4269552,4631764,4273003,4633451,2200,2505,1296,1566,600,-607,236,3807,27,38,816
945634,4269700,4631924,4273200,4633648,2397,2672,1218,1345,602,-637,141,3636,27,38,816
946634,4269844,4632120,4273397,4633845,2446,2448,1146,1077,639,-674,-60,3529,21,44,815
947635,4270024,4632364,4273594,4634042,2229,2127,1072,819,707,-601,-187,3488,21,44,815
948637,4270148,4632588,4273791,4634239,2611,2241,987,536,797,-599,-349,3459,36,35,813
949638,4270296,4632784,4273988,4634436,2484,2416,882,276,899,-585,-600,3527,36,35,813
950639,4270480,4632972,4274185,4634633,2266,2470,782,-1,1010,-686,-724,3420,30,35,813
951640,4270616,4633160,4274382,4634830,2593,2474,708,-209,1142,-758,-686,3532,30,35,813
952641,4270776,4633368,4274579,4635027,2460,2346,664,-425,1267,-875,-380,3524,41,33,815
953642,4270956,4633624,4274776,4635224,2343,2020,638,-643,1354,-1077,-272,3552,41,33,815
954642,4271092,4633848,4274973,4635421,2646,2208,628,-851,1398,-1180,-248,3592,24,43,814
955643,4271204,4634084,4275170,4635618,2833,2117,640,-1032,1395,-1240,-155,3653,24,43,814
956644,4271408,4634296,4275367,4635815,2256,2260,658,-1130,1383,-1342,-226,4017,41,39,814
957645,4271552,4634516,4275564,4636012,2656,2200,678,-1082,1396,-1439,-364,4280,41,39,814
958646,4271672,4634780,4275761,4636209,2840,1896,716,-979,1435,-1512,-583,4447,41,37,815
959647,4271828,4634992,4275958,4636406,2634,2215,769,-842,1490,-1595,-884,4603,41,37,815
960648,4272000,4635240,4276155,4636603,2545,1967,799,-648,1544,-1592,-802,4729,33,39,813
961649,4272156,4635456,4276352,4636800,2664,2159,814,-486,1591,-1639,-450,4594,33,39,813
962650,4272296,4635684,4276549,4636997,2790,2072,830,-403,1631,-1705,-136,4511,22,42,814
963651,4272488,4635904,4276746,4637194,2469,2111,855,-348,1686,-1525,-100,4442,22,42,814
964652,4272640,4636180,4276943,4637391,2739,1727,903,-334,1797,-1334,-53,4265,47,46,814
965653,4272824,4636428,4277140,4637588,2545,1879,949,-344,1950,-1165,-65,4232,47,46,814
966654,4273008,4636676,4277337,4637785,2552,1858,1008,-397,2139,-1034,-60,4106,46,40,816
967655,4273200,4636920,4277534,4637982,2505,1862,1062,-479,2343,-876,-49,4093,46,40,816
968656,4273344,4637164,4277731,4638179,2829,1842,1127,-622,2519,-715,-164,3880,25,44,816
969657,4273524,4637428,4277928,4638376,2613,1687,1211,-764,2650,-652,-99,3905,25,44,816
970658,4273704,4637676,4278125,4638573,2621,1765,1317,-943,2770,-489,-371,3801,46,57,813
971659,4273856,4637928,4278322,4638770,2816,1717,1414,-1079,2867,-354,36,3987,46,57,813
972660,4274004,4638176,4278519,4638967,2864,1719,1481,-1179,2942,-272,612,4063,40,60,815
973661,4274224,4638488,4278716,4639164,2405,1269,1522,-1213,3011,-96,610,4277,40,60,815
974663,4274368,4638680,4278913,4639361,2904,2021,1559,-1188,3093,-91,702,4466,38,40,815
975664,4274560,4638840,4279110,4639558,2607,2237,1605,-1107,3137,-131,768,4656,38,40,815
976664,4274740,4639000,4279307,4639755,2690,2253,1661,-958,3095,-168,539,4797,28,38,814
977665,4274860,4639180,4279504,4639952,3100,2136,1749,-759,3013,-236,250,5006,28,38,814
978666,4275024,4639404,4279701,4640149,2840,1850,1847,-483,2914,-164,313,5101,42,43,813
979667,4275176,4639624,4279898,4640346,2936,1865,1966,-205,2777,-182,119,5100,42,43,813
980668,4275336,4639936,4280095,4640543,2903,1239,2125,174,2629,-167,-476,5438,40,53,814
981669,4275444,4640268,4280292,4640740,3268,1055,2330,559,2444,-148,-130,5360,40,53,814
982671,4275604,4640624,4280489,4640937,2960,835,2505,967,2224,-192,570,5496,37,66,815
983671,4275736,4640868,4280686,4641134,3165,1514,2649,1333,2011,-191,859,5261,37,66,815
984672,4275848,4641048,4280883,4641331,3328,1922,2757,1666,1793,-234,971,5182,45,70,817
985673,4276028,4641360,4281080,4641528,2912,1046,2865,1964,1579,-312,789,5057,45,70,817
986674,4276224,4641728,4281277,4641725,2813,621,2947,2188,1423,-265,499,4795,53,77,812
987675,4276400,4642056,4281474,4641922,2948,814,2955,2360,1308,-197,461,4646,53,77,812
988676,4276612,4642372,4281671,4642119,2718,836,2914,2423,1190,-250,536,4283,34,67,819
989677,4276772,4642640,4281868,4642316,3060,1105,2883,2473,1028,-288,453,4098,34,67,819
990678,4276948,4642960,4282065,4642513,2970,726,2880,2439,863,-300,644,3820,41,71,820
991679,4277116,4643308,4282262,4642710,3034,485,2864,2471,759,-245,646,4030,41,71,820
992680,4277272,4643620,4282459,4642907,3128,659,2823,2555,715,-181,709,3965,37,70,817
993681,4277428,4643924,4282656,4643104,3147,662,2760,2662,688,-248,923,4080,37,70,817
994682,4277604,4644216,4282853,4643301,3032,695,2689,2782,642,-302,1059,4071,39,61,816
995683,4277764,4644536,4283050,4643498,3149,465,2601,2847,595,-279,1127,3753,39,61,816
996684,4277892,4644840,4283247,4643695,3381,518,2496,2848,533,-264,1482,3676,30,47,818
997685,4278056,4645124,4283444,4643892,3171,605,2348,2814,434,-215,1838,3493,30,47,818
998687,4278188,4645320,4283641,4644089,3401,1156,2153,2751,296,-198,1987,3461,25,53,816
999687,4278344,4645548,4283838,4644286,3270,941,1910,2739,115,-182,2207,3444,25,53,816
1000688,4278480,4645784,4284035,4644483,3423,874,1662,2678,-96,-135,2448,3310,26,45,814
1001689,4278684,4645988,4284232,4644680,2996,1071,1378,2684,-334,-141,2779,3434,26,45,814
1002690,4278852,4646192,4284429,4644877,3234,1068,1061,2682,-590,-10,2863,3371,34,36,815
1003691,4279008,4646376,4284626,4645074,3328,1197,741,2746,-805,233,2683,3626,34,36,815
1004692,4279192,4646556,4284823,4645271,3160,1230,447,2782,-957,366,2744,3548,28,28,814
1005693,4279364,4646708,4285020,4645468,3247,1425,136,2822,-1093,546,2759,3469,28,28,814
1006701,4279540,4646868,4285250,4645698,3247,1405,-229,2797,-1249,768,2801,3224,48,30,815
1007696,4279748,4647012,4285447,4645895,3043,1529,-601,2756,-1366,1080,2723,3240,48,30,815
1008696,4279940,4647188,4285644,4646092,3146,1337,-960,2735,-1457,1309,2661,3267,42,26,814
1009698,4280128,4647368,4285841,4646289,3176,1319,-1263,2706,-1530,1484,2466,3221,42,26,814
1010698,4280348,4647528,4286038,4646486,2967,1461,-1512,2673,-1614,1636,2471,3154,35,40,815
1011699,4280560,4647688,4286235,4646683,3012,1477,-1701,2543,-1733,1732,2588,2907,35,40,815
1012700,4280748,4647848,4286432,4646880,3167,1493,-1864,2426,-1900,1781,2777,2874,36,28,816
1013701,4281008,4648012,4286629,4647077,2691,1482,-1992,2216,-2121,1782,2826,2677,36,28,816
1014702,4281204,4648152,4286826,4647274,3092,1657,-2106,2051,-2380,1699,2667,2838,34,28,813
1015703,4281408,4648300,4287023,4647471,3040,1628,-2210,1969,-2636,1610,2511,3113,34,28,813
1016704,4281640,4648460,4287220,4647668,2851,1569,-2305,2033,-2851,1582,1957,3511,44,36,813
1017705,4281844,4648612,4287417,4647865,3024,1639,-2407,2260,-2984,1555,1265,4064,44,36,813
1018706,4282044,4648744,4287614,4648062,3048,1793,-2545,2678,-3080,1456,763,4541,33,35,815
1019707,4282268,4648892,4287811,4648259,2887,1713,-2686,3098,-3213,1187,582,4496,33,35,815
1020708,4282464,4649036,4288008,4648456,3064,1762,-2809,3520,-3446,784,403,4495,54,33,814
1021709,4282696,4649224,4288205,4648653,2824,1491,-2918,3931,-3792,379,62,4489,54,33,814
1022710,4282904,4649364,4288402,4648850,2971,1816,-3025,4323,-4191,-86,-242,4464,53,24,814
1023711,4283076,4649504,4288599,4649047,3208,1841,-3139,4712,-4592,-542,-444,4493,53,24,814
1024712,4283272,4649628,4288796,4649244,3059,1973,-3284,5174,-4974,-955,-782,4715,41,39,814
1025713,4283448,4649752,4288993,4649441,3194,2005,-3449,5675,-5319,-1333,-1285,4777,41,39,814
1026714,4283628,4649956,4289190,4649638,3179,1502,-3582,6116,-5592,-1575,-1840,4648,39,36,811
1027715,4283792,4650104,4289387,4649835,3294,1873,-3658,6505,-5745,-1771,-2378,4536,39,36,811
1028716,4283984,4650308,4289584,4650032,3122,1520,-3657,6706,-5777,-1916,-2679,3970,27,31,813
1029717,4284172,4650436,4289781,4650229,3152,2026,-3608,6744,-5726,-2044,-2993,3625,27,31,813
1030718,4284368,4650572,4289978,4650426,3104,2002,-3530,6606,-5597,-2258,-3260,3269,29,39,814
1031719,4284556,4650704,4290175,4650623,3159,2055,-3423,6330,-5421,-2441,-3457,2935,29,39,814
1032720,4284748,4650868,4290372,4650820,3137,1869,-3287,5852,-5207,-2640,-3604,2458,51,22,812
1033721,4284948,4651048,4290569,4651017,3087,1777,-3116,5276,-4926,-2723,-3963,2206,51,22,812
1034722,4285144,4651196,4290766,4651214,3113,1998,-2927,4543,-4576,-2859,-4288,1919,33,39,812
1035723,4285324,4651284,4290963,4651411,3222,2421,-2751,3759,-4189,-3038,-4209,2065,33,39,812
1036724,4285536,4651428,4291160,4651608,3016,2095,-2616,3091,-3787,-3099,-4132,2583,33,24,811
1037725,4285728,4651580,4291357,4651805,3144,2065,-2488,2447,-3366,-3172,-4008,2758,33,24,811
1038726,4285940,4651736,4291554,4652002,3014,2058,-2362,1831,-2935,-3199,-3494,3028,33,39,810
1039728,4286148,4651884,4291751,4652199,3035,2130,-2227,1172,-2530,-3150,-2908,2865,33,39,810
1040728,4286372,4651992,4291948,4652396,2924,2419,-2079,427,-2143,-3125,-2651,2917,53,21,813
1041730,4286612,4652088,4292145,4652593,2807,2538,-1909,-296,-1758,-3100,-2488,3044,53,21,813
1042730,4286856,4652216,4292342,4652790,2762,2369,-1775,-964,-1375,-3061,-2249,3377,59,36,811
1043731,4287096,4652368,4292539,4652987,2769,2239,-1680,-1503,-1009,-2929,-2044,3872,59,36,811
1044732,4287384,4652524,4292736,4653184,2430,2232,-1634,-1931,-676,-2747,-1797,4324,64,26,812
1045733,4287676,4652656,4292933,4653381,2365,2410,-1648,-2180,-395,-2571,-1571,4943,64,26,812
1046734,4287992,4652780,4293130,4653578,2163,2492,-1694,-2387,-164,-2315,-1205,5103,48,22,815
1047735,4288276,4652916,4293327,4653775,2326,2444,-1750,-2596,12,-2001,-839,5240,48,22,815
1048736,4288604,4653052,4293524,4653972,1995,2472,-1781,-2799,137,-1740,-367,5218,65,41,814
1049737,4288900,4653184,4293721,4654169,2152,2525,-1786,-3039,205,-1454,70,5271,65,41,814
1050738,4289224,4653348,4293918,4654366,1921,2340,-1745,-3264,215,-1154,358,5370,63,36,815
1051739,4289556,4653488,4294115,4654563,1813,2515,-1654,-3445,194,-803,643,5565,63,36,815
1052740,4289904,4653616,4294312,4654760,1648,2620,-1521,-3507,141,-410,859,5839,71,36,816
1053741,4290248,4653744,4294509,4654957,1609,2652,-1371,-3586,48,-72,1078,5745,71,36,816
1054742,4290592,4653892,4294706,4655154,1545,2548,-1215,-3650,-91,258,1173,5850,81,36,817
1055743,4290896,4654032,4294903,4655351,1749,2623,-1027,-3705,-249,567,1036,5866,81,36,817
1056744,4291252,4654184,4295100,4655548,1355,2568,-812,-3798,-404,874,710,5796,59,27,818
1057745,4291592,4654364,4295297,4655745,1393,2401,-586,-3841,-547,1123,168,5912,59,27,818
1058746,4291920,4654504,4295494,4655942,1411,2676,-362,-3854,-677,1320,-200,5885,69,26,817
1059747,4292200,4654624,4295691,4656139,1676,2835,-150,-3882,-813,1450,-360,5876,69,26,817
1060748,4292556,4654764,4295888,4656336,1131,2735,75,-3899,-947,1510,-494,5715,67,25,817
1061749,4292856,4654912,4296085,4656533,1436,2708,335,-3946,-1060,1536,-593,5643,67,25,817
1062750,4293140,4655096,4296282,4656730,1498,2489,624,-3961,-1148,1539,-705,5650,49,39,817
1063751,4293480,4655284,4296479,4656927,1086,2468,935,-3932,-1218,1407,-836,5589,49,39,817
1064752,4293756,4655420,4296676,4657124,1453,2820,1256,-3910,-1290,1244,-983,5538,62,26,818
1065753,4294000,4655556,4296873,4657321,1632,2847,1588,-3867,-1361,1037,-1210,5477,62,26,818
1066754,4294288,4655708,4297070,4657518,1318,2767,1921,-3713,-1406,702,-1480,5574,42,43,817
1067755,4294548,4655876,4297267,4657715,1465,2681,2268,-3556,-1423,319,-1782,5491,42,43,817
1068756,4294784,4656052,4297464,4657912,1599,2640,2615,-3332,-1419,-36,-1995,5639,48,43,817
1069757,4295044,4656240,4297661,4658109,1422,2569,2944,-3015,-1387,-313,-2119,5624,48,43,817
1070758,4295352,4656408,4297858,4658306,1074,2708,3271,-2690,-1317,-503,-2264,5609,58,39,816
1071759,4295604,4656572,4298055,4658503,1400,2747,3605,-2336,-1216,-738,-2165,5572,58,39,816
1072760,4295852,4656724,4298252,4658700,1403,2842,3952,-1938,-1111,-1072,-1864,5478,60,26,818
1073762,4296132,4656888,4298449,4658897,1167,2782,4283,-1528,-1032,-1377,-1330,5311,60,26,818
1074762,4296396,4657060,4298646,4659094,1238,2743,4592,-1186,-943,-1526,-1358,5011,44,25,816
1075763,4296684,4657224,4298843,4659291,1048,2809,4888,-818,-802,-1659,-1691,4882,44,25,816
1076765,4296984,4657384,4299040,4659488,928,2850,5152,-548,-636,-1783,-1698,4447,46,32,818
1077765,4297264,4657576,4299237,4659685,1018,2652,5363,-332,-459,-1771,-1626,4111,46,32,818
1078766,4297548,4657768,4299434,4659882,954,2656,5463,-185,-257,-1690,-1588,3717,49,53,818
1079767,4297876,4658012,4299631,4660079,623,2310,5505,-173,-32,-1587,-1617,3274,49,53,818
1080769,4298156,4658240,4299828,4660276,886,2397,5545,-211,192,-1564,-1331,2924,66,51,819
1081769,4298448,4658448,4300025,4660473,770,2517,5589,-393,397,-1504,-1030,2445,66,51,819
1082770,4298752,4658668,4300222,4660670,648,2432,5591,-629,544,-1456,-784,2140,45,40,821
1083771,4299024,4658920,4300419,4660867,816,2209,5550,-946,635,-1372,-490,1619,45,40,821
1084773,4299320,4659148,4300616,4661064,622,2345,5479,-1320,711,-1245,-428,1523,48,41,822
1085774,4299604,4659400,4300813,4661261,659,2171,5408,-1701,816,-1104,-497,1354,48,41,822
1086774,4299820,4659636,4301010,4661458,1076,2255,5313,-2071,964,-907,-482,1426,47,54,822
1087775,4300068,4659880,4301207,4661655,854,2185,5156,-2415,1150,-663,-490,1211,47,54,822
1088776,4300320,4660092,4301404,4661852,805,2378,4970,-2817,1378,-412,-625,967,58,59,822
1089784,4300552,4660328,4301634,4662082,929,2226,4750,-3218,1634,-241,-636,941,58,59,822
1090778,4300764,4660560,4301831,4662279,1047,2236,4549,-3706,1860,-105,-441,455,49,44,822
1091779,4300984,4660800,4302028,4662476,988,2167,4349,-4169,2067,64,-249,657,49,44,822
1092780,4301204,4661000,4302225,4662673,978,2417,4146,-4622,2272,190,-179,506,35,36,821
1093781,4301416,4661192,4302422,4662870,1022,2469,3890,-5017,2511,351,-35,709,35,36,821
1094782,4301596,4661368,4302619,4663067,1229,2578,3566,-5274,2758,570,136,1016,34,45,821
1095783,4301780,4661548,4302816,4663264,1210,2562,3220,-5448,3011,765,348,1258,34,45,821
1096784,4301964,4661720,4303013,4663461,1216,2623,2881,-5509,3255,899,611,1525,32,40,819
1097785,4302120,4661868,4303210,4663658,1410,2794,2519,-5478,3487,951,1006,1742,32,40,819
1098786,4302320,4662024,4303407,4663855,1133,2763,2096,-5347,3669,1031,1391,2016,39,23,819
1099787,4302496,4662136,4303604,4664052,1292,3075,1629,-5148,3774,1100,1665,2158,39,23,819
1100788,4302628,4662264,4303801,4664249,1596,3006,1117,-4884,3798,1194,2127,2395,25,16,817
1101789,4302796,4662372,4303998,4664446,1385,3171,610,-4559,3715,1300,2515,2528,25,16,817
1102790,4302968,4662468,4304195,4664643,1371,3290,108,-4207,3555,1489,2678,2740,39,18,813
1103791,4303104,4662560,4304392,4664840,1623,3362,-349,-3789,3383,1715,2785,2955,39,18,813
1104792,4303264,4662680,4304589,4665037,1489,3221,-777,-3345,3229,1945,2554,3061,35,21,812
1105793,4303436,4662760,4304786,4665234,1426,3524,-1223,-2928,3037,2080,2874,3095,35,21,812
1106794,4303596,4662844,4304983,4665431,1517,3548,-1698,-2529,2816,2335,3120,3199,42,24,812
1107795,4303752,4662932,4305180,4665628,1560,3571,-2182,-2098,2606,2821,3122,3578,42,24,812
1108796,4303908,4663020,4305377,4665825,1578,3620,-2683,-1563,2431,3171,2697,3973,30,21,809
1109798,4304072,4663112,4305574,4666022,1544,3642,-3175,-1135,2243,3308,2561,3498,30,21,809
1110811,4304232,4663180,4305771,4666219,1585,3800,-3620,-826,1991,3522,2694,3520,24,11,809
1111812,4304440,4663260,4305968,4666416,1280,3800,-4005,-595,1674,3723,2798,3347,24,11,809
1112800,4304636,4663368,4306165,4666613,1356,3691,-4294,-489,1352,3739,2295,2812,27,14,807
1113814,4304808,4663452,4306362,4666810,1517,3800,-4479,-521,1046,3695,1672,2706,27,14,807
1114802,4305016,4663576,4306559,4667007,1288,3674,-4596,-605,768,3660,1268,2791,45,27,806
1115803,4305188,4663728,4306756,4667204,1524,3519,-4672,-606,508,3536,1014,3008,45,27,806
1116804,4305368,4663848,4306953,4667401,1482,3754,-4743,-485,267,3273,648,3515,35,18,809
1117805,4305584,4663980,4307150,4667598,1249,3707,-4842,-223,45,3006,308,3937,35,18,809
1118806,4305772,4664140,4307347,4667795,1428,3550,-4942,158,-153,2713,-44,4289,50,39,809
1119807,4305968,4664276,4307544,4667992,1379,3728,-5042,617,-325,2256,-480,4800,50,39,809
1120808,4306164,4664468,4307741,4668189,1380,3381,-5082,1074,-515,1683,-530,4907,31,25,810
1121809,4306368,4664652,4307938,4668386,1326,3436,-5040,1472,-760,1140,-280,4806,31,25,810
1122810,4306548,4664824,4308135,4668583,1484,3523,-4907,1841,-1028,705,-261,4858,32,24,811
1123811,4306732,4665004,4308332,4668780,1466,3482,-4700,2138,-1265,338,-292,4774,32,24,811
1124812,4306924,4665176,4308529,4668977,1418,3543,-4479,2397,-1430,-2,-427,4800,43,31,810
1125813,4307092,4665368,4308726,4669174,1581,3421,-4266,2668,-1498,-349,-643,4821,43,31,810
1126814,4307252,4665556,4308923,4669371,1648,3451,-4040,2874,-1467,-639,-895,4807,29,37,810
1127815,4307444,4665784,4309120,4669568,1450,3188,-3793,2981,-1350,-880,-1069,4712,29,37,810
1128816,4307624,4666008,4309317,4669765,1532,3202,-3530,3019,-1184,-1148,-1126,4604,36,42,811
1129817,4307784,4666268,4309514,4669962,1675,2950,-3247,2948,-1012,-1507,-1090,4292,36,42,811
1130818,4307940,4666496,4309711,4670159,1718,3137,-2954,2767,-831,-1837,-1161,4254,35,43,813
1131819,4308104,4666724,4309908,4670356,1682,3124,-2657,2574,-614,-2100,-1278,4311,35,43,813
1132820,4308244,4667020,4310105,4670553,1858,2656,-2365,2419,-367,-2307,-1368,4497,29,54,813
1133821,4308420,4667296,4310302,4670750,1643,2747,-2073,2239,-98,-2550,-1531,4634,29,54,813
1134822,4308572,4667580,4310499,4670947,1812,2659,-1818,2129,186,-2791,-1772,5075,44,44,814
1135823,4308700,4667848,4310696,4671144,1994,2729,-1594,2091,457,-2917,-1839,5273,44,44,814
1136824,4308840,4668088,4310893,4671341,1944,2886,-1366,2017,713,-2939,-1829,5194,20,47,814
1137825,4308988,4668312,4311090,4671538,1916,2974,-1144,1948,981,-2885,-2027,5443,20,47,814
1138826,4309128,4668584,4311287,4671735,1991,2642,-929,1837,1254,-2888,-2141,5433,38,47,814
1139827,4309280,4668892,4311484,4671932,1936,2369,-691,1632,1498,-2852,-1951,5132,38,47,814
1140828,4309432,4669184,4311681,4672129,1957,2428,-448,1357,1697,-2653,-1777,5005,34,61,814
1141829,4309556,4669420,4311878,4672326,2164,2762,-203,1018,1869,-2395,-1401,4839,34,61,814
1142830,4309692,4669704,4312075,4672523,2117,2423,35,630,2025,-2143,-1025,4803,27,53,816
1143831,4309804,4669984,4312272,4672720,2304,2413,244,236,2159,-1914,-1037,4905,27,53,816
1144832,4309908,4670284,4312469,4672917,2396,2243,419,-93,2286,-1662,-1314,5160,37,64,813
1145833,4310044,4670568,4312666,4673114,2223,2305,577,-409,2387,-1439,-1233,5202,37,64,813
1146834,4310164,4670784,4312863,4673311,2358,2722,721,-735,2437,-1125,-777,5159,35,45,814
1147835,4310296,4671056,4313060,4673508,2311,2340,865,-1113,2430,-830,-194,4979,35,45,814
1148836,4310432,4671340,4313257,4673705,2314,2227,1020,-1505,2417,-582,132,4912,20,54,814
1149837,4310584,4671604,4313454,4673902,2234,2323,1197,-1923,2412,-339,389,4826,20,54,814
1150838,4310740,4671864,4313651,4674099,2228,2321,1377,-2352,2414,-91,602,4867,28,51,814
1151839,4310888,4672140,4313848,4674296,2299,2187,1553,-2731,2412,165,657,4931,28,51,814
1152840,4311044,4672360,4314045,4674493,2268,2527,1725,-3038,2400,307,633,5152,26,49,815
1153841,4311196,4672660,4314242,4674690,2313,1982,1896,-3203,2393,351,650,5399,26,49,815
1154842,4311344,4672972,4314439,4674887,2361,1857,2063,-3329,2392,405,652,5511,37,47,815
1155843,4311500,4673252,4314636,4675084,2330,2021,2208,-3321,2379,396,677,5819,37,47,815
1156844,4311680,4673532,4314833,4675281,2187,1984,2338,-3246,2351,313,756,5892,48,62,816
1157845,4311840,4673812,4315030,4675478,2329,1949,2454,-3105,2321,275,796,6113,48,62,816
1158846,4312032,4674124,4315227,4675675,2132,1698,2571,-2904,2300,188,715,6179,30,56,816
1159847,4312228,4674452,4315424,4675872,2108,1541,2702,-2632,2290,136,680,6193,30,56,816
1160848,4312416,4674744,4315621,4676069,2163,1725,2846,-2340,2292,44,703,6123,32,62,817
1161849,4312628,4675024,4315818,4676266,2006,1763,2984,-1996,2312,-72,794,6208,32,62,817
1162850,4312800,4675392,4316015,4676463,2268,1138,3091,-1619,2328,-162,907,6183,48,60,820
1163851,4313004,4675724,4316212,4676660,2065,1304,3178,-1239,2325,-227,962,5955,48,60,820
1164852,4313200,4676020,4316409,4676857,2117,1486,3264,-930,2312,-278,928,5645,33,60,820
1165853,4313420,4676304,4316606,4677054,1958,1523,3360,-687,2306,-284,953,5297,33,60,820
1166854,4313628,4676624,4316803,4677251,2028,1244,3450,-442,2320,-221,1014,5219,45,53,821
1167855,4313836,4676988,4317000,4677448,2024,896,3549,-186,2352,-186,912,5002,45,53,821
1168856,4314040,4677312,4317197,4677645,2046,1090,3656,99,2400,-125,621,4819,39,68,822
1169857,4314260,4677608,4317394,4677842,1937,1221,3757,319,2442,-100,649,4580,39,68,822
1170858,4314492,4677880,4317591,4678039,1847,1338,3834,529,2455,23,690,4389,54,65,822
1171859,4314712,4678176,4317788,4678236,1912,1145,3896,697,2441,183,350,4193,54,65,822
1172867,4314928,4678496,4318018,4678466,1944,955,3935,864,2422,224,180,4057,38,56,823
1173861,4315120,4678820,4318215,4678663,2097,875,3947,1090,2415,289,-211,4118,38,56,823
1174862,4315356,4679064,4318412,4678860,1805,1354,3893,1540,2413,655,-416,3728,45,61,823
1175863,4315572,4679300,4318609,4679057,1923,1387,3839,1695,2375,878,-370,3416,45,61,823
1176864,4315780,4679560,4318806,4679254,1968,1209,3773,1807,2329,1049,-206,3212,49,47,823
1177865,4316028,4679852,4319003,4679451,1697,967,3690,1875,2273,1084,389,2971,49,47,823
1178866,4316212,4680128,4319200,4679648,2103,1033,3601,1886,2203,1129,667,2728,36,46,822
1179867,4316396,4680376,4319397,4679845,2109,1185,3514,1894,2127,1265,685,2484,36,46,822
1180868,4316620,4680580,4319594,4680042,1847,1457,3428,1825,2048,1436,969,2032,51,36,824
1181869,4316800,4680776,4319791,4680239,2131,1508,3327,1699,1954,1667,770,1894,51,36,824
1182870,4316992,4681012,4319988,4680436,2059,1240,3221,1541,1882,1744,652,1707,30,52,821
1183871,4317180,4681292,4320185,4680633,2088,928,3099,1373,1792,1698,888,1604,30,52,821
1184872,4317372,4681564,4320382,4680830,2066,945,2951,1243,1704,1788,370,1565,40,52,820
1185873,4317600,4681784,4320579,4681027,1828,1260,2757,1136,1626,1861,121,1499,40,52,820
1186874,4317816,4681976,4320776,4681224,1895,1437,2520,1094,1500,1816,603,1421,43,52,823
1187875,4318000,4682188,4320973,4681421,2101,1305,2251,1032,1307,1686,806,1343,43,52,823
1188876,4318188,4682428,4321170,4681618,2081,1112,1947,977,1074,1495,1028,1409,41,43,823
1189877,4318392,4682700,4321367,4681815,1978,879,1610,1013,829,1382,929,1584,41,43,823
1190878,4318564,4682932,4321564,4682012,2190,1112,1254,1173,579,1205,840,1608,47,52,821
1191879,4318740,4683152,4321761,4682209,2175,1177,880,1331,312,929,777,1679,47,52,821
1192880,4318980,4683336,4321958,4682406,1756,1408,498,1573,38,724,247,1847,51,50,822
1193881,4319152,4683536,4322155,4682603,2193,1306,90,1863,-202,583,-400,1944,51,50,822
1194882,4319332,4683752,4322352,4682800,2151,1198,-336,2103,-445,583,-279,1795,49,36,821
1195883,4319508,4684028,4322549,4682997,2186,787,-756,2229,-724,550,-22,1556,49,36,821
1196884,4319704,4684268,4322746,4683194,2061,994,-1172,2394,-999,461,-286,1581,47,37,821
1197885,4319900,4684460,4322943,4683391,2063,1296,-1609,2478,-1260,364,-158,1350,47,37,821
1198886,4320104,4684652,4323140,4683588,2011,1298,-2053,2526,-1473,379,-216,1304,51,35,823
1199887,4320360,4684828,4323337,4683785,1660,1407,-2489,2505,-1612,511,-365,1038,51,35,823
1200888,4320596,4685076,4323534,4683982,1769,934,-2893,2356,-1721,691,-259,704,47,47,822
1201889,4320844,4685276,4323731,4684179,1671,1232,-3251,2085,-1802,790,-365,569,47,47,822
1202890,4321072,4685456,4323928,4684376,1784,1365,-3564,1677,-1858,900,-466,481,51,40,822
1203891,4321300,4685620,4324125,4684573,1770,1479,-3833,1286,-1888,945,-652,538,51,40,822
1204893,4321508,4685804,4324322,4684770,1891,1360,-4062,947,-1893,883,-679,744,60,26,823
1205893,4321772,4685948,4324519,4684967,1513,1632,-4303,715,-1904,967,-723,1419,60,26,823
1206894,4322028,4686120,4324716,4685164,1537,1468,-4565,558,-1917,1094,-655,1729,39,30,823
1207895,4322240,4686260,4324913,4685361,1806,1693,-4802,336,-1909,1352,-483,1503,39,30,823
1208896,4322488,4686372,4325110,4685558,1559,1906,-4971,-78,-1857,1521,-449,1153,57,37,823
1209897,4322728,4686516,4325307,4685755,1591,1729,-5066,-607,-1805,1330,-411,1067,57,37,823
1210898,4322956,4686704,4325504,4685952,1652,1458,-5105,-1119,-1793,1177,-423,1186,44,23,821
1211899,4323236,4686884,4325701,4686149,1292,1515,-5131,-1511,-1813,1196,-485,1540,44,23,821
1212900,4323476,4687036,4325898,4686346,1523,1709,-5193,-1791,-1852,1171,-520,1999,61,37,823
1213902,4323712,4687172,4326095,4686543,1531,1836,-5311,-1924,-1866,1325,-792,2736,61,37,823
1214902,4323984,4687312,4326292,4686740,1274,1836,-5473,-1882,-1839,1452,-1086,3494,39,20,823
1215904,4324220,4687440,4326489,4686937,1482,1941,-5637,-1741,-1789,1452,-1170,3732,39,20,823
1216904,4324444,4687568,4326686,4687134,1546,1972,-5737,-1599,-1740,1410,-1290,3892,36,23,822
1217905,4324620,4687704,4326883,4687331,1855,1949,-5752,-1619,-1702,1444,-1364,3363,36,23,822
1218906,4324820,4687820,4327080,4687528,1705,2109,-5688,-1856,-1676,1680,-1449,2935,30,31,821
1219908,4324984,4687968,4327277,4687725,1944,1931,-5604,-2167,-1678,1935,-1465,3043,30,31,821
1220909,4325196,4688088,4327474,4687922,1639,2140,-5485,-2485,-1725,2117,-1610,3172,28,23,819
1221909,4325384,4688264,4327671,4688119,1793,1799,-5409,-2671,-1778,2274,-2045,3827,28,23,819
1222910,4325580,4688456,4327868,4688316,1743,1701,-5361,-2663,-1771,2389,-2268,4364,33,27,819
1223911,4325748,4688612,4328065,4688513,1932,1943,-5302,-2600,-1737,2520,-1941,4477,33,27,819
1224912,4325924,4688748,4328262,4688710,1891,2095,-5228,-2603,-1689,2725,-1753,4533,40,32,819
1225913,4326092,4688900,4328459,4688907,1955,2015,-5135,-2608,-1601,2800,-1910,4731,40,32,819
1226914,4326272,4689048,4328656,4689104,1887,2061,-5036,-2575,-1499,2862,-1615,4984,32,23,818
1227915,4326484,4689172,4328853,4689301,1682,2243,-4934,-2492,-1387,2849,-1397,5182,32,23,818
1228916,4326656,4689356,4329050,4689498,1943,1874,-4826,-2263,-1250,2745,-1511,5788,35,40,819
1229917,4326884,4689544,4329247,4689695,1580,1854,-4678,-1887,-1097,2594,-1611,6336,35,40,819
1230918,4327116,4689720,4329444,4689892,1540,1938,-4468,-1419,-969,2444,-1637,6649,34,25,819
1231919,4327304,4689880,4329641,4690089,1819,2054,-4198,-864,-885,2178,-1885,7067,34,25,819
1232920,4327468,4690024,4329838,4690286,1984,2178,-3895,-283,-859,1877,-2081,7235,48,32,821
1233921,4327720,4690216,4330035,4690483,1410,1880,-3576,286,-878,1711,-2255,7340,48,32,821
1234922,4327920,4690380,4330232,4690680,1735,2069,-3239,898,-920,1602,-2402,7466,52,30,819
1235923,4328092,4690520,4330429,4690877,1921,2244,-2874,1491,-978,1548,-2137,7398,52,30,819
1236925,4328344,4690680,4330626,4691074,1397,2136,-2489,1997,-1063,1439,-1427,7098,51,24,821
1237925,4328544,4690844,4330823,4691271,1721,2125,-2093,2467,-1130,1243,-1561,7187,51,24,821
1238926,4328720,4691004,4331020,4691468,1880,2166,-1707,2921,-1167,1131,-1815,7072,43,38,818
1239927,4328908,4691208,4331217,4691665,1810,1888,-1371,3253,-1204,1053,-1584,6843,43,38,818
1240928,4329172,4691340,4331414,4691862,1306,2367,-1096,3489,-1217,1010,-1342,6563,33,39,819
1241929,4329380,4691500,4331611,4692059,1652,2208,-805,3571,-1162,1082,-1283,6146,33,39,819
1242930,4329572,4691648,4331808,4692256,1754,2305,-496,3567,-1078,976,-1185,6050,53,33,820
1243931,4329852,4691768,4332005,4692453,1169,2514,-163,3558,-979,749,-1106,5968,53,33,820
1244932,4330068,4691920,4332202,4692650,1560,2334,170,3503,-883,647,-1048,5752,47,26,819
1245933,4330248,4692100,4332399,4692847,1793,2167,482,3410,-789,770,-1259,5690,47,26,819
1246934,4330520,4692284,4332596,4693044,1186,2147,774,3288,-679,943,-1662,5557,44,26,818
1247935,4330716,4692456,4332793,4693241,1661,2233,1071,3107,-551,1128,-2295,5356,44,26,818
1248936,4330900,4692628,4332990,4693438,1743,2244,1357,2878,-414,1147,-2403,5170,35,28,816
1249937,4331144,4692780,4333187,4693635,1347,2389,1591,2656,-288,1029,-1709,5194,35,28,816
1250938,4331324,4692968,4333384,4693832,1755,2168,1760,2377,-211,1039,-480,5056,49,25,819
1251939,4331488,4693148,4333581,4694029,1870,2227,1888,2091,-155,1145,99,5085,49,25,819
1252940,4331688,4693328,4333778,4694226,1644,2234,1983,1818,-88,1260,259,5100,47,47,820
1253941,4331856,4693500,4333975,4694423,1858,2295,2023,1623,-7,1457,257,5206,47,47,820
1254942,4332020,4693672,4334172,4694620,1897,2306,2042,1497,105,1596,9,5391,46,29,819
1255952,4332192,4693856,4334402,4694850,1873,2251,2035,1409,211,1453,58,5417,46,29,819
1256944,4332372,4694080,4334599,4695047,1831,1990,1999,1379,296,1169,-80,5623,44,43,817
1257945,4332524,4694260,4334796,4695244,2026,2273,1802,1633,446,847,-687,6678,44,43,817
1258946,4332692,4694416,4334993,4695441,1940,2441,1616,1809,575,571,-548,5690,35,27,817
1259947,4332860,4694600,4335190,4695638,1952,2272,1526,1802,635,607,-868,5235,35,27,817
1260948,4333000,4694728,4335387,4695835,2153,2652,1475,1634,688,646,-1292,5004,41,32,816
1261949,4333144,4694908,4335584,4696032,2152,2335,1457,1438,713,440,-848,4804,41,32,816
1262950,4333316,4695120,4335781,4696229,1989,2129,1462,1205,740,238,-764,4664,39,32,816
1263951,4333476,4695300,4335978,4696426,2080,2336,1468,1057,798,206,-922,4817,39,32,816
1264952,4333648,4695492,4336175,4696623,2016,2264,1456,1008,888,194,-796,4894,39,33,816
1265953,4333840,4695692,4336372,4696820,1894,2212,1419,1028,979,-49,-621,5076,39,33,816
1266954,4334012,4695856,4336569,4697017,2030,2453,1396,1080,1038,-311,-612,5062,45,43,817
1267955,4334176,4696040,4336766,4697214,2096,2333,1443,1067,1080,-388,-988,4925,45,43,817
1268956,4334364,4696220,4336963,4697411,1950,2366,1530,1135,1146,-338,-1491,5137,29,30,816
1269957,4334532,4696400,4337160,4697608,2088,2373,1618,1199,1227,-404,-1477,5002,29,30,816
1270958,4334668,4696600,4337357,4697805,2315,2247,1675,1289,1292,-507,-1464,5169,22,45,814
1271959,4334836,4696788,4337554,4698002,2129,2327,1708,1356,1365,-521,-1308,4971,22,45,814
1272960,4334976,4696976,4337751,4698199,2329,2331,1729,1408,1433,-501,-815,4866,39,33,816
1273961,4335092,4697188,4337948,4698396,2516,2174,1756,1376,1446,-532,-514,4560,39,33,816
1274962,4335256,4697360,4338145,4698593,2230,2435,1800,1246,1389,-714,-335,4245,40,46,815
1275963,4335408,4697520,4338342,4698790,2326,2528,1859,1078,1284,-722,-284,4100,40,46,815
1276964,4335524,4697720,4338539,4698987,2587,2276,1922,830,1165,-687,-256,3725,39,32,814
1277965,4335688,4697892,4338736,4699184,2302,2462,1966,608,1051,-701,-218,3915,39,32,814
1278966,4335856,4698104,4338933,4699381,2291,2206,1971,424,981,-646,-344,3867,36,35,813
1279967,4335980,4698316,4339130,4699578,2598,2200,1937,280,1032,-532,-1007,4079,36,35,813
1280968,4336108,4698512,4339327,4699775,2604,2301,1846,187,1216,-431,-1093,4035,22,44,813
1281969,4336284,4698692,4339524,4699972,2314,2408,1728,-1,1443,-512,-557,3885,22,44,813
1282970,4336432,4698888,4339721,4700169,2511,2308,1637,-194,1630,-694,-123,3871,23,41,814
1283971,4336556,4699124,4339918,4700366,2694,2042,1617,-472,1746,-897,150,3518,23,41,814
1284972,4336720,4699320,4340115,4700563,2458,2293,1637,-735,1784,-981,205,3589,35,43,814
1285973,4336884,4699556,4340312,4700760,2474,2026,1688,-996,1789,-1060,47,3514,35,43,814
1286974,4337028,4699792,4340509,4700957,2623,2008,1744,-1111,1815,-1144,23,3926,21,54,814
1287975,4337172,4700008,4340706,4701154,2647,2125,1789,-1088,1882,-1231,-79,4196,21,54,814
1288976,4337340,4700240,4340903,4701351,2510,2011,1815,-1028,1996,-1317,-368,4454,22,53,815
1289977,4337476,4700484,4341100,4701548,2738,1915,1795,-832,2112,-1464,-438,4726,22,53,815
1290978,4337608,4700712,4341297,4701745,2792,2001,1743,-683,2181,-1651,-270,4558,40,47,812
1291979,4337788,4700956,4341494,4701942,2500,1881,1668,-534,2191,-1719,-190,4591,40,47,812
1292980,4337964,4701180,4341691,4702139,2535,1994,1621,-479,2174,-1645,-82,4241,41,47,813
1293981,4338148,4701384,4341888,4702336,2492,2117,1608,-461,2193,-1536,-211,4190,41,47,813
1294982,4338308,4701640,4342085,4702533,2658,1766,1606,-465,2285,-1394,-346,4063,27,40,816
1295983,4338484,4701900,4342282,4702730,2569,1713,1604,-525,2420,-1293,50,3970,27,40,816
1296984,4338688,4702140,4342479,4702927,2391,1819,1589,-613,2558,-1163,249,3908,45,55,815
1297985,4338848,4702372,4342676,4703124,2683,1854,1585,-729,2696,-1015,141,3759,45,55,815
1298986,4339040,4702592,4342873,4703321,2486,1919,1584,-841,2836,-846,150,3782,35,48,816
1299987,4339200,4702832,4343070,4703518,2703,1776,1614,-992,2937,-688,176,3626,35,48,816
1300988,4339372,4703104,4343267,4703715,2640,1543,1680,-1121,3014,-438,-136,3764,46,45,815
1301989,4339556,4703360,4343464,4703912,2571,1617,1789,-1245,3093,-260,-104,3739,46,45,815
1302990,4339724,4703620,4343661,4704109,2685,1564,1889,-1293,3163,-135,310,4007,24,51,815
1303991,4339872,4703936,4343858,4704306,2832,1162,1961,-1291,3229,-135,385,4090,24,51,815
1304992,4340072,4704132,4344055,4704503,2507,1913,2003,-1212,3290,-105,443,4378,37,39,817
1305993,4340256,4704296,4344252,4704700,2613,2127,2021,-1065,3320,-111,619,4437,37,39,817
1306994,4340420,4704440,4344449,4704897,2753,2275,2034,-880,3286,-117,647,4494,21,26,817
1307995,4340560,4704584,4344646,4705094,2929,2299,2065,-732,3185,-68,653,4485,21,26,817
1308996,4340704,4704712,4344843,4705291,2928,2429,2109,-544,3056,49,780,4614,23,25,813
1309998,4340844,4704880,4345040,4705488,2978,2193,2104,-297,2868,-80,1262,4619,23,25,813
1310998,4340980,4705076,4345237,4705685,3031,2018,2060,24,2566,-271,1473,4823,27,27,811
1311999,4341124,4705324,4345434,4705882,3006,1671,2048,342,2188,-291,1222,4862,27,27,811
1313000,4341252,4705608,4345631,4706079,3137,1407,2064,745,1835,-184,946,5015,30,48,811
1314001,4341372,4705860,4345828,4706276,3222,1583,2057,1077,1607,-35,1140,4778,30,48,811
1315002,4341520,4706116,4346025,4706473,3069,1532,1988,1298,1517,122,1526,4555,26,64,813
1316003,4341728,4706392,4346222,4706670,2689,1373,1890,1399,1493,102,1768,4190,26,64,813
1317004,4341900,4706684,4346419,4706867,2926,1231,1784,1395,1420,48,2024,3806,34,52,813
1318005,4342068,4706916,4346616,4707064,2965,1591,1703,1270,1262,80,2029,3526,34,52,813
1319006,4342248,4707188,4346813,4707261,2899,1308,1666,1183,1082,125,1938,3548,33,61,817
1320007,4342412,4707468,4347010,4707458,3014,1221,1648,1188,930,84,1667,3806,33,61,817
1321008,4342564,4707748,4347207,4707655,3110,1185,1647,1295,794,-59,1539,4018,50,53,815
1322009,4342724,4708020,4347404,4707852,3077,1202,1633,1515,663,-222,1479,4277,50,53,815
1323010,4342892,4708340,4347601,4708049,3041,848,1587,1786,554,-296,1015,4288,29,58,816
1324011,4343052,4708656,4347798,4708246,3107,820,1549,2026,512,-229,151,4150,29,58,816
1325012,4343196,4708960,4347995,4708443,3231,848,1545,2174,537,-217,-187,3860,44,71,814
1326013,4343364,4709288,4348192,4708640,3095,641,1545,2242,571,-208,9,3583,44,71,814
1327014,4343484,4709564,4348389,4708837,3430,931,1492,2284,502,-208,801,3479,23,60,815
1328015,4343608,4709920,4348586,4709034,3438,361,1402,2251,318,-255,1553,3280,23,60,815
1329016,4343772,4710216,4348783,4709231,3204,693,1276,2303,64,-190,1750,3515,42,67,817
1330017,4343920,4710480,4348980,4709428,3326,862,1135,2400,-212,-97,1786,3549,42,67,817
1331018,4344084,4710708,4349177,4709625,3242,1074,953,2621,-501,34,1757,3917,30,41,816
1332019,4344268,4710888,4349374,4709822,3123,1381,724,2857,-789,238,1790,3832,30,41,816
1333020,4344420,4711108,4349571,4710019,3344,1121,447,3081,-1074,386,2297,3798,40,34,815
1334021,4344612,4711344,4349768,4710216,3097,1003,135,3283,-1285,678,2486,3759,40,34,815
1335022,4344788,4711536,4349965,4710413,3208,1280,-182,3399,-1399,961,2536,3632,47,35,814
1336023,4344976,4711736,4350162,4710610,3138,1229,-501,3558,-1455,1126,2498,3741,47,35,814
1337024,4345160,4711916,4350359,4710807,3169,1361,-754,3712,-1450,1409,2202,3705,35,43,815
1338025,4345360,4712096,4350556,4711004,3069,1369,-959,3871,-1475,1518,2600,3488,35,43,815
1339033,4345576,4712284,4350786,4711234,2976,1336,-1118,3853,-1583,1485,3018,2934,47,35,815
1340027,4345776,4712456,4350983,4711431,3076,1447,-1265,3732,-1761,1473,3068,2667,47,35,815
1341028,4345976,4712632,4351180,4711628,3075,1431,-1402,3530,-1973,1386,3223,2623,40,48,815
1342029,4346212,4712820,4351377,4711825,2834,1360,-1506,3375,-2213,1333,3189,2763,40,48,815
1343030,4346436,4713008,4351574,4712022,2898,1364,-1601,3319,-2478,1298,2929,2983,59,36,815
1344031,4346656,4713176,4351771,4712219,2914,1501,-1688,3345,-2720,1264,2109,3113,59,36,815
1345032,4346904,4713344,4351968,4712416,2718,1514,-1796,3457,-2929,1260,1836,3397,44,30,816
1346033,4347128,4713472,4352165,4712613,2857,1794,-1952,3598,-3134,1191,1723,3514,44,30,816
