"Data file recorded 2014/9/24  18:9:31"
"%  Right Stride Frequency         = 3.0"
"%  Left Stride Frequency         = 3.0"
"%  Phase (Fractional)         = 32768.0"
"%  Experiment.py "
"%  Motor Gains    = [1800, 200, 100, 0, 0, 1800, 200, 100, 0, 0]
"% Columns: "
"% time | Right Leg Pos | Left Leg Pos | Commanded Right Leg Pos | Commanded Left Leg Pos | DCR | DCL | GyroX | GryoY | GryoZ | AX | AY | AZ | RBEMF | LBEMF | VBatt "
10632,7709992,8066860,7691812,8117796,-3800,3800,-134,-705,308,818,-465,3945,0,-10,889
11626,7709992,8066876,7692009,8117993,-3800,3800,-132,-704,307,794,-467,3962,0,-10,889
12627,7709932,8066896,7692206,8118190,-3800,3800,-136,-706,306,793,-499,3913,-7,-8,889
13628,7709764,8066936,7692403,8118387,-3800,3800,-126,-712,313,633,-222,4100,-7,-8,889
14629,7709548,8067004,7692600,8118584,-3800,3800,-111,-714,355,317,-399,4192,-45,0,846
15630,7709288,8067052,7692797,8118781,-3800,3800,-61,-727,372,991,-517,4388,-45,0,846
16618,7708904,8067100,7692994,8118978,-3381,3800,-61,-748,362,1211,-70,4244,-64,4,846
17619,7708488,8067184,7693191,8119175,-2916,3800,-48,-633,291,2173,558,4942,-64,4,846
18620,7708024,8067244,7693388,8119372,-2327,3800,-64,-275,139,3159,-497,5985,-95,1,848
19621,7707464,8067332,7693585,8119569,-1398,3800,-153,8,177,1021,-1251,4053,-95,1,848
20622,7706964,8067440,7693782,8119766,-1469,3800,-267,265,291,2093,-970,5022,-98,2,854
21623,7706524,8067552,7693979,8119963,-1566,3800,-352,401,259,3400,-359,4222,-98,2,854
22624,7706052,8067668,7694176,8120160,-1075,3800,-362,436,401,1004,-52,4672,-81,15,860
23625,7705628,8067808,7694373,8120357,-1105,3800,-290,424,705,924,-1889,5083,-81,15,860
24626,7705268,8067924,7694570,8120554,-1262,3800,-221,373,815,3270,-1335,4527,-83,9,859
25627,7704912,8068072,7694767,8120751,-1046,3800,-244,259,855,2850,-641,3805,-83,9,859
26628,7704620,8068200,7694964,8120948,-1233,3800,-280,416,932,2534,-906,6323,-52,28,861
27629,7704396,8068320,7695161,8121145,-1475,3800,-278,813,1016,2416,-1492,6265,-52,28,861
28630,7704188,8068452,7695358,8121342,-1399,3800,-258,1112,1084,2485,-1420,6360,-35,11,863
29631,7704040,8068568,7695555,8121539,-1623,3800,-161,1321,1104,2759,-841,6401,-35,11,863
30632,7703908,8068668,7695752,8121736,-1581,3800,-95,1075,1214,1438,-933,4503,-21,23,860
31633,7703800,8068760,7695949,8121933,-1599,3800,65,922,1355,1865,-1652,6726,-21,23,860
32634,7703720,8068828,7696146,8122130,-1653,3800,244,673,1411,2201,-1476,5324,-26,1,859
33635,7703636,8068892,7696343,8122327,-1506,3800,370,442,1574,219,-1155,4787,-26,1,859
34636,7703568,8068976,7696540,8122524,-1491,3800,463,397,1766,503,-2147,5881,-13,10,858
35637,7703496,8069032,7696737,8122721,-1349,3800,511,453,1953,-248,-1401,5019,-13,10,858
36638,7703452,8069096,7696934,8122918,-1420,3800,501,478,2145,-943,-938,4103,-1,7,857
37639,7703408,8069144,7697131,8123115,-1315,3800,522,493,2248,-72,-1136,4922,-1,7,857
38640,7703408,8069212,7697328,8123312,-1504,3800,570,405,2249,362,-536,4550,-16,2,859
39641,7703388,8069268,7697525,8123509,-1285,3800,630,133,2191,131,13,3906,-16,2,859
40642,7703372,8069332,7697722,8123706,-1217,3800,713,-231,2098,51,76,4290,-13,6,860
41643,7703376,8069428,7697919,8123903,-1259,3800,789,-655,2013,-328,523,3737,-13,6,860
42644,7703372,8069504,7698116,8124100,-1121,3800,843,-1144,1938,-599,258,3738,6,5,860
43645,7703368,8069564,7698313,8124297,-1034,3800,876,-1552,1805,-490,321,4304,6,5,860
44646,7703364,8069616,7698510,8124494,-947,3800,844,-1878,1626,-589,292,3859,5,10,860
45647,7703368,8069736,7698707,8124691,-913,3800,736,-2070,1460,-821,696,4337,5,10,860
46648,7703360,8069828,7698904,8124888,-749,3800,537,-2183,1353,-883,697,3416,-9,5,860
47649,7703360,8069920,7699101,8125085,-713,3800,325,-2255,1297,-827,494,4093,-9,5,860
48650,7703352,8070012,7699298,8125282,-574,3800,168,-2271,1257,-786,425,4338,6,10,861
49651,7703348,8070144,7699495,8125479,-512,3800,15,-2387,1233,-684,62,3411,6,10,861
50652,7703344,8070268,7699692,8125676,-423,3800,-88,-2523,1219,-297,126,4303,10,24,863
51653,7703360,8070404,7699889,8125873,-470,3800,-133,-2650,1191,142,221,4420,10,24,863
52654,7703352,8070528,7700086,8126070,-231,3800,-228,-2766,1071,1072,453,3257,4,24,864
53655,7703360,8070680,7700283,8126267,-248,3800,-354,-2828,988,392,901,3736,4,24,864
54656,7703356,8070840,7700480,8126464,-85,3800,-508,-2801,960,181,184,2997,-7,17,864
55657,7703356,8070996,7700677,8126661,-25,3800,-620,-2736,942,191,1021,3298,-7,17,864
56658,7703344,8071200,7700874,8126858,142,3800,-697,-2691,950,96,239,2881,-2,23,864
57659,7703360,8071364,7701071,8127055,46,3800,-751,-2620,924,557,36,2951,-2,23,864
58660,7703352,8071552,7701268,8127252,286,3800,-768,-2586,932,-184,450,2790,13,37,864
59661,7703340,8071732,7701465,8127449,403,3800,-781,-2617,935,-69,79,2109,13,37,864
60662,7703356,8071936,7701662,8127646,306,3800,-745,-2601,912,185,127,2941,14,35,862
61663,7703364,8072164,7701859,8127843,439,3800,-699,-2503,906,212,-401,2743,14,35,862
62664,7703376,8072420,7702056,8128040,495,3800,-668,-2420,940,-41,-291,2401,-4,37,865
63665,7703400,8072672,7702253,8128237,495,3800,-610,-2305,1007,-472,76,3036,-4,37,865
64666,7703432,8072916,7702450,8128434,518,3800,-557,-2307,1050,15,93,2122,15,39,865
65667,7703476,8073172,7702647,8128631,510,3800,-545,-2382,1023,891,37,1809,15,39,865
66668,7703528,8073428,7702844,8128828,524,3800,-491,-2360,1039,380,-963,2736,20,41,865
67669,7703588,8073744,7703041,8129025,534,3800,-434,-2322,1048,440,-664,1896,20,41,865
68670,7703644,8074060,7703238,8129222,621,3800,-416,-2367,1027,469,-324,1436,13,46,864
69671,7703720,8074372,7703435,8129419,549,3800,-365,-2176,1097,-367,-187,3488,13,46,864
70672,7703780,8074680,7703632,8129616,708,3800,-359,-2055,1154,735,-404,1674,13,63,864
71673,7703856,8075032,7703829,8129813,662,3800,-351,-1950,1167,626,-681,2591,13,63,864
72674,7703968,8075400,7704026,8130010,474,3800,-255,-1715,1198,-51,-816,4133,13,53,866
73675,7704080,8075736,7704223,8130207,511,3800,-209,-1664,1202,320,48,2054,13,53,866
74676,7704180,8076064,7704420,8130404,629,3800,-241,-1800,1206,870,-1345,1729,16,55,865
75677,7704288,8076384,7704617,8130601,618,3800,-188,-1707,1183,1162,-2078,4137,16,55,865
76678,7704408,8076808,7704814,8130798,578,3800,-110,-1673,1174,338,-1612,2374,16,84,866
77679,7704524,8077180,7705011,8130995,639,3800,-100,-1842,1121,663,733,1485,16,84,866
78680,7704660,8077668,7705208,8131192,540,3800,-50,-1724,1171,168,-31,4198,34,86,867
79681,7704800,8078132,7705405,8131389,540,3800,22,-1587,1174,1232,-1577,2579,34,86,867
80682,7704964,8078592,7705602,8131586,405,3800,156,-1316,1111,1021,446,4209,25,81,865
81683,7705084,8079156,7705799,8131783,714,3800,192,-1167,1193,-226,-560,2485,25,81,865
82684,7705248,8079728,7705996,8131980,453,3800,81,-1186,1242,1436,-2109,1291,28,92,868
83685,7705380,8080292,7706193,8132177,682,3800,123,-1050,1206,1104,-1214,4508,28,92,868
84686,7705476,8080944,7706390,8132374,951,3800,163,-1107,1227,323,-2387,1336,44,103,868
85687,7705648,8081532,7706587,8132571,488,3800,152,-1279,1155,1989,-1546,1214,44,103,868
86688,7705768,8082240,7706784,8132768,847,3800,225,-937,1121,1166,-821,5292,24,116,869
87689,7705908,8082912,7706981,8132965,747,3800,191,-639,1172,916,-2556,901,24,116,869
88690,7706068,8083692,7707178,8133162,638,3800,143,-385,1139,1558,290,3036,35,135,870
89691,7706212,8084500,7707375,8133359,762,3800,138,-55,1108,1585,-1861,3073,35,135,870
90692,7706348,8085380,7707572,8133556,839,3800,101,126,1010,2684,-500,1843,30,150,868
91693,7706500,8086184,7707769,8133753,759,3800,61,182,949,2465,-87,1408,30,150,868
92701,7706632,8087084,7708196,8134180,1014,3800,37,285,896,2274,-1295,1717,34,165,869
93695,7706768,8088000,7708393,8134377,1016,3800,120,479,854,2250,-1292,2119,34,165,869
94696,7706884,8088892,7708590,8134574,1177,3800,195,607,838,1992,-101,1224,34,165,871
95697,7707008,8090004,7708787,8134771,1159,3800,207,618,788,2584,-830,394,34,165,871
96698,7707148,8091008,7708984,8134968,1084,3800,182,772,695,2971,-1837,1275,31,165,871
97699,7707284,8092004,7709181,8135165,1137,3800,164,1093,550,2684,-439,1150,31,165,871
98700,7707436,8093044,7709378,8135362,1057,3800,142,1311,438,2310,-69,604,27,186,871
99701,7707584,8094168,7709575,8135559,1103,3800,151,1654,416,1697,1463,1731,27,186,871
100702,7707748,8095260,7709772,8135756,1019,3800,59,1854,450,1933,-389,57,41,191,872
101703,7707908,8096300,7709969,8135953,1060,3800,-145,1945,459,2280,-5529,-1112,41,191,872
102704,7708032,8097304,7710166,8136150,1318,3800,-176,2280,371,2070,-2376,2807,40,206,870
103705,7708192,8098356,7710363,8136347,1110,3800,-191,2381,-43,5505,-249,-1203,40,206,870
104706,7708356,8099384,7710560,8136544,1099,3800,-305,2610,-481,4845,-3961,756,49,198,872
105707,7708504,8100288,7710757,8136741,1222,3800,-356,3002,-596,969,-3229,1062,49,198,872
106708,7708684,8101312,7710954,8136938,1029,3800,-404,3232,-550,-275,-810,-196,50,187,871
107709,7708864,8102272,7711151,8137135,1038,3800,-269,3325,-416,-1382,-329,1280,50,187,871
108710,7709024,8103168,7711348,8137332,1179,3800,39,3370,-376,-1530,-643,2894,53,184,871
109711,7709180,8104120,7711545,8137529,1223,3800,376,3148,-499,-2227,-1041,2514,53,184,871
110712,7709360,8105108,7711742,8137726,1080,3800,675,2674,-676,-2657,-1157,3093,30,185,871
111713,7709512,8106132,7711939,8137923,1276,3800,849,2152,-910,-2465,-283,2344,30,185,871
112714,7709676,8107108,7712136,8138120,1216,3800,736,2100,-1220,-3180,2316,4127,52,186,869
113715,7709852,8108028,7712333,8138317,1150,3800,408,2532,-1605,-4420,2852,6266,52,186,869
114716,7710020,8109024,7712530,8138514,1214,3800,138,2400,-1935,-4811,805,5046,43,177,869
115717,7710176,8109856,7712727,8138711,1307,3800,256,2125,-2108,-3610,-2185,9445,43,177,869
116718,7710332,8110728,7712924,8138908,1326,3800,557,1594,-2124,-2080,-2383,7115,51,181,870
117719,7710528,8111708,7713121,8139105,1076,3800,860,496,-2033,-903,-1546,5270,51,181,870
118720,7710700,8112600,7713318,8139302,1238,3800,1281,-151,-1900,1207,1609,8244,32,169,869
119721,7710856,8113508,7713515,8139499,1356,3800,1557,-784,-1703,2613,1346,5156,32,169,869
120722,7711060,8114488,7713712,8139696,1054,3800,1833,-1173,-1450,3609,-1639,8107,30,169,870
121723,7711232,8115460,7713909,8139893,1265,3800,2131,-749,-957,2512,-407,12291,30,169,870
122724,7711416,8116584,7714106,8140090,1197,3800,2094,-138,-513,2818,-8,7268,54,185,870
123725,7711588,8117528,7714303,8140287,1283,3800,1576,-261,-287,3728,1628,1933,54,185,870
124726,7711756,8118504,7714500,8140484,1321,3800,1056,200,-34,3544,3753,7317,54,197,871
125727,7711960,8119648,7714697,8140681,1093,3800,800,1383,117,6954,2992,9269,54,197,871
126728,7712140,8120780,7714894,8140878,1252,3800,1104,2262,113,9707,-691,10558,42,212,873
127716,7712308,8121952,7715091,8141075,1339,3369,1564,2460,332,6577,-893,8731,42,212,873
128717,7712476,8123144,7715288,8141272,1353,2811,1970,2276,981,3075,885,8986,48,213,874
129718,7712640,8124164,7715485,8141469,1394,3527,2259,2072,1767,2033,1019,8808,48,213,874
130719,7712812,8125112,7715682,8141666,1355,3651,2117,1473,2337,1650,2429,2966,38,220,874
131733,7712968,8125928,7715879,8141863,1474,3800,1491,284,2754,711,2359,-324,38,220,874
132734,7713112,8126708,7716076,8142060,1572,3800,1018,-19,3152,221,-262,8726,31,173,871
133735,7713296,8127480,7716273,8142257,1329,3800,395,69,3119,1388,1606,5061,31,173,871
134736,7713452,8128128,7716470,8142454,1522,3800,-778,289,2750,2418,2549,4161,47,145,867
135737,7713580,8128732,7716667,8142651,1728,3800,-2185,1059,2056,672,4687,8707,47,145,867
136738,7713728,8129308,7716864,8142848,1625,3800,-3525,1780,1187,-5452,2045,8916,37,118,866
137739,7713868,8129840,7717061,8143045,1701,3800,-4169,1601,607,-8340,-3129,13335,37,118,866
138740,7713988,8130316,7717258,8143242,1861,3800,-4133,-892,349,-7302,-4331,7376,26,103,864
139741,7714104,8130760,7717455,8143439,1921,3800,-3815,-4200,273,-5655,-4449,9434,26,103,864
140742,7714216,8131164,7717652,8143636,1984,3800,-3367,-6551,158,-5008,510,11998,18,92,863
141743,7714308,8131560,7717849,8143833,2157,3800,-3090,-7645,-145,-4337,1064,10763,18,92,863
142744,7714440,8131888,7718046,8144030,1935,3800,-3074,-7533,-715,-623,-964,10367,36,69,860
143745,7714576,8132236,7718243,8144227,1938,3800,-3239,-6514,-1116,157,-392,9897,36,69,860
144746,7714708,8132548,7718440,8144424,1993,3800,-3251,-5489,-1218,290,-244,8786,31,59,859
145747,7714848,8132848,7718637,8144621,1968,3800,-2875,-5047,-1230,1220,-1216,7788,31,59,859
146748,7714996,8133092,7718834,8144818,1940,3800,-2348,-4908,-1225,2944,-2866,7408,28,57,858
147749,7715088,8133352,7719031,8145015,2337,3800,-2007,-4981,-1111,3481,-2664,6628,28,57,858
148750,7715204,8133560,7719228,8145212,2224,3800,-1690,-5042,-887,3818,-1905,7047,20,48,858
149751,7715320,8133808,7719425,8145409,2259,3800,-1191,-5379,-906,4284,-1130,6730,20,48,858
150752,7715432,8134060,7719622,8145606,2323,3800,-728,-5780,-1007,2762,1242,4808,35,39,857
151753,7715540,8134292,7719819,8145803,2388,3800,-620,-6106,-993,2092,755,1964,35,39,857
152754,7715644,8134528,7720016,8146000,2455,3800,-752,-6337,-833,2662,-425,1587,23,53,856
153755,7715740,8134772,7720213,8146197,2550,3800,-711,-6439,-551,2464,-1496,3174,23,53,856
154756,7715872,8135036,7720410,8146394,2354,3800,-286,-6604,-171,1300,-1339,4650,36,54,855
155757,7716020,8135316,7720607,8146591,2276,3800,278,-6797,139,1559,-140,4505,36,54,855
156758,7716188,8135624,7720804,8146788,2165,3800,690,-7000,390,1473,1170,3360,44,48,853
157758,7716340,8135916,7721001,8146985,2286,3800,836,-6993,624,1461,655,2679,44,48,853
158760,7716524,8136224,7721198,8147182,2093,3800,878,-6545,932,1177,1075,4184,48,49,856
159761,7716692,8136536,7721395,8147379,2206,3800,977,-5863,1369,555,634,5530,48,49,856
160762,7716828,8136856,7721592,8147576,2434,3800,1161,-5056,1894,229,-90,5423,48,52,857
161762,7717000,8137220,7721789,8147773,2221,3800,1241,-4489,2305,756,-1563,3825,48,52,857
162764,7717204,8137484,7721986,8147970,2019,3800,1226,-4015,2661,261,-807,4122,43,62,857
163765,7717368,8137820,7722183,8148167,2283,3800,1433,-3404,3181,-1241,2341,7443,43,62,857
164766,7717548,8138156,7722380,8148364,2192,3800,1753,-2788,3739,-898,91,6849,50,66,857
165767,7717716,8138504,7722577,8148561,2281,3800,1905,-2325,4068,994,-6185,4284,50,66,857
166768,7717884,8138856,7722774,8148758,2294,3800,1822,-2347,4154,2134,-609,2312,48,62,858
167769,7718036,8139256,7722971,8148955,2415,3800,1073,-4010,3442,10040,3699,-10142,48,62,858
168770,7718216,8139636,7723168,8149152,2249,3800,300,-5156,3181,2264,-814,-475,52,63,857
169771,7718380,8140012,7723365,8149349,2364,3800,96,-4468,3729,-2870,-5648,7376,52,63,857
170772,7718548,8140416,7723562,8149546,2353,3800,148,-3203,4265,-2069,-5239,4746,49,77,857
171773,7718708,8140812,7723759,8149743,2420,3800,-15,-2779,4057,1630,3007,1368,49,77,857
172761,7718876,8141228,7723956,8149940,2384,3624,-580,-2591,3784,593,-8,2678,42,65,857
173762,7719004,8141604,7724153,8150137,2665,3796,-1190,-1790,3787,-1628,-1538,6177,42,65,857
174763,7719164,8141968,7724350,8150334,2483,3800,-1763,-951,3650,-253,-2155,3285,28,68,856
175771,7719284,8142400,7724580,8150564,2782,3288,-2248,-548,3366,-1802,-1251,2338,28,68,856
176765,7719388,8142816,7724777,8150761,2924,3293,-2506,-327,3244,-2751,28,4578,36,79,856
177766,7719500,8143276,7724974,8150958,2912,2904,-2439,-396,3136,-255,1404,3443,36,79,856
178767,7719600,8143796,7725171,8151155,3031,2388,-2160,-1179,3093,-684,-640,305,34,79,857
179768,7719712,8144260,7725368,8151352,2994,2623,-1667,-1964,3189,-881,246,2512,34,79,857
180769,7719876,8144796,7725565,8151549,2685,2025,-1063,-2450,3320,-496,649,2928,30,104,859
181770,7720040,8145304,7725762,8151746,2700,2064,-603,-3096,3396,410,-823,-366,30,104,859
182771,7720212,8145740,7725959,8151943,2662,2410,-205,-3698,3524,23,-1029,1116,30,99,862
183772,7720380,8146256,7726156,8152140,2701,1772,143,-3830,3793,-936,-865,2852,30,99,862
184773,7720540,8146804,7726353,8152337,2768,1419,174,-3947,3941,988,-703,-154,50,102,866
185774,7720684,8147244,7726550,8152534,2892,1988,56,-3821,3838,2223,311,2232,50,102,866
186775,7720876,8147752,7726747,8152731,2597,1428,11,-3270,3742,439,747,3990,45,98,868
187776,7721072,8148224,7726944,8152928,2573,1533,-115,-2995,3620,1787,-105,-100,45,98,868
188777,7721268,8148668,7727141,8153125,2574,1600,-231,-2596,3504,1617,-235,2414,55,102,866
189778,7721508,8149256,7727338,8153322,2282,528,-164,-1766,3521,-76,-496,5102,55,102,866
190779,7721764,8149708,7727535,8153519,2157,1267,-140,-1057,3593,643,-998,1897,39,79,869
191780,7721992,8150156,7727732,8153716,2319,1183,-221,-733,3523,1594,-305,-183,39,79,869
192781,7722228,8150640,7727929,8153913,2253,833,-222,-392,3383,1177,19,2248,62,83,876
193782,7722508,8151096,7728126,8154110,1942,894,-78,64,3202,1609,1049,1987,62,83,876
194784,7722748,8151496,7728323,8154307,2174,1156,82,524,3085,646,1904,850,64,91,874
195785,7723004,8152008,7728520,8154504,2050,317,169,703,2951,1759,1853,-463,64,91,874
196785,7723280,8152456,7728717,8154701,1892,608,266,946,2904,1259,1467,1512,47,89,877
197786,7723532,8152832,7728914,8154898,2019,979,458,1400,2905,1093,1011,1784,47,89,877
198787,7723804,8153308,7729111,8155095,1862,233,704,1788,2863,1393,693,1208,63,78,878
199788,7724080,8153716,7729308,8155292,1803,565,973,2027,2796,1614,445,511,63,78,878
200789,7724328,8154112,7729505,8155489,1957,553,1109,2199,2803,1263,-334,95,67,75,875
201790,7724600,8154548,7729702,8155686,1775,199,1156,2383,2866,968,-738,-558,67,75,875
202791,7724900,8154964,7729899,8155883,1555,227,1179,2514,2944,1558,-1329,-301,55,80,878
203792,7725176,8155292,7730096,8156080,1672,720,1268,3055,3107,2275,-1621,2078,55,80,878
204793,7725464,8155612,7730293,8156277,1557,716,1221,3979,3143,1319,377,2779,65,70,879
205794,7725764,8156004,7730490,8156474,1437,180,993,4801,3091,711,232,136,65,70,879
206795,7726064,8156376,7730687,8156671,1393,228,756,5383,3018,1312,1301,1053,69,65,879
207796,7726328,8156676,7730884,8156868,1590,633,672,5792,2788,299,603,600,69,65,879
208797,7726568,8156896,7731081,8157065,1722,1123,724,6160,2496,-293,-444,954,41,63,882
209798,7726888,8157136,7731278,8157262,1169,979,734,6453,2315,-469,-1149,1222,41,63,882
210799,7727140,8157392,7731475,8157459,1571,854,745,6436,2336,-1719,-1448,1142,47,56,880
211800,7727380,8157640,7731672,8157656,1628,882,1038,6462,2415,-2214,-121,5087,47,56,880
212801,7727640,8157832,7731869,8157853,1475,1234,1457,6051,2313,-698,1059,2731,44,33,879
213802,7727864,8158008,7732066,8158050,1689,1343,1723,5057,2144,-1239,-277,983,44,33,879
214803,7728120,8158148,7732263,8158247,1464,1593,2028,4124,2036,-2069,-1210,3665,55,34,878
215804,7728420,8158324,7732460,8158444,1145,1377,2315,3300,1901,-1120,-1258,3637,55,34,878
216805,7728688,8158524,7732657,8158641,1315,1226,2414,2394,1792,-1474,-1570,1404,42,26,876
217806,7728956,8158724,7732854,8158838,1283,1225,2216,1768,1615,-2066,-1198,3703,42,26,876
218807,7729220,8158916,7733051,8159035,1280,1277,1955,1967,1475,-1785,-1885,7556,62,43,879
219808,7729464,8159092,7733248,8159232,1385,1386,1631,1937,1270,-1018,-1312,4402,62,43,879
220809,7729744,8159260,7733445,8159429,1124,1449,1318,1938,889,-1259,-3270,6678,58,42,879
221810,7730032,8159424,7733642,8159626,1035,1488,777,2441,463,-914,-4432,7605,58,42,879
222811,7730276,8159584,7733839,8159823,1290,1530,-51,3329,173,-2450,-1632,6343,61,35,877
223812,7730492,8159704,7734036,8160020,1458,1813,-851,4091,-48,-2386,-665,5653,61,35,877
224813,7730760,8159864,7734233,8160217,1102,1580,-1381,4422,-290,-2459,374,6947,38,35,877
225814,7731024,8160072,7734430,8160414,1098,1275,-1320,3742,-614,-2694,-534,5617,38,35,877
226815,7731248,8160264,7734627,8160611,1337,1377,-1000,1829,-1060,-1214,-2920,2952,42,36,875
227816,7731464,8160460,7734824,8160808,1379,1352,-497,-135,-1505,-553,-1485,5403,42,36,875
228817,7731688,8160668,7735021,8161005,1318,1273,-54,-1793,-1754,-504,-1546,5441,59,35,879
229818,7731936,8160828,7735218,8161202,1146,1589,-138,-2969,-1909,-55,146,2059,59,35,879
230819,7732172,8161000,7735415,8161399,1205,1525,-523,-3250,-1983,-692,1908,5347,59,27,877
231820,7732432,8161148,7735612,8161596,1028,1696,-721,-3179,-2110,-340,246,6238,59,27,877
232821,7732668,8161336,7735809,8161793,1161,1450,-661,-3688,-2236,-74,-1623,3759,34,38,878
233822,7732860,8161556,7736006,8161990,1439,1240,-544,-4572,-2286,753,-1732,3933,34,38,878
234823,7733088,8161736,7736203,8162187,1200,1499,-605,-5117,-2275,1580,-1491,4201,38,29,876
235824,7733332,8161924,7736400,8162384,1081,1453,-927,-5208,-2247,1437,-1040,3596,38,29,876
236825,7733540,8162068,7736597,8162581,1302,1751,-1306,-4898,-2276,876,-912,4109,48,20,878
237826,7733776,8162228,7736794,8162778,1110,1667,-1571,-4533,-2327,132,-971,5028,48,20,878
238827,7733976,8162380,7736991,8162975,1334,1737,-1696,-4325,-2376,607,-1069,3816,34,34,878
239828,7734176,8162520,7737188,8163172,1333,1837,-1759,-4528,-2428,1666,-760,2357,34,34,878
240829,7734460,8162640,7737385,8163369,771,1996,-1723,-4849,-2462,1811,-720,3058,46,25,877
241830,7734624,8162812,7737582,8163566,1536,1682,-1653,-5133,-2542,1872,-451,2787,46,25,877
242831,7734848,8163008,7737779,8163763,1150,1532,-1564,-5204,-2696,1884,-109,3036,46,35,875
243832,7735084,8163176,7737976,8163960,1058,1721,-1477,-5106,-2875,1949,783,3116,46,35,875
244833,7735284,8163364,7738173,8164157,1282,1600,-1372,-5106,-2982,1746,3116,3173,56,37,874
245834,7735472,8163532,7738370,8164354,1362,1738,-1396,-5416,-2935,1358,1057,791,56,37,874
246835,7735608,8163700,7738567,8164551,1714,1750,-1326,-5550,-2886,3217,-575,3856,44,24,875
247836,7735784,8163840,7738764,8164748,1474,1951,-1084,-5225,-3195,7964,475,5423,44,24,875
248837,7735908,8164032,7738961,8164945,1831,1628,-800,-4792,-3683,7621,504,5120,25,24,875
249838,7736048,8164196,7739158,8165142,1757,1818,-673,-4742,-3849,4553,-37,2587,25,24,875
250839,7736208,8164388,7739355,8165339,1649,1645,-687,-4819,-3772,4938,1768,3190,30,28,874
251840,7736348,8164536,7739552,8165536,1800,1942,-739,-4621,-3496,3488,-78,4252,30,28,874
252841,7736520,8164700,7739749,8165733,1611,1856,-857,-4182,-2969,2766,-6166,3567,31,21,873
253842,7736692,8164836,7739946,8165930,1622,2058,-754,-3156,-2603,6662,528,9298,31,21,873
254843,7736876,8164968,7740143,8166127,1554,2112,-780,-2094,-2289,6602,1685,6300,23,35,872
255844,7737036,8165132,7740340,8166324,1721,1927,-1102,-1553,-1861,5916,1132,2766,23,35,872
256845,7737196,8165268,7740537,8166521,1738,2129,-1325,-1422,-1488,6654,-1425,3495,32,21,871
257846,7737336,8165400,7740734,8166718,1889,2183,-1222,-1199,-1305,6418,-4726,4417,32,21,871
258856,7737496,8165504,7740964,8166948,1796,2413,-809,-425,-1200,5888,548,8003,39,18,872
259848,7737676,8165608,7741161,8167145,1678,2455,-638,436,-802,3813,-1604,5209,39,18,872
260849,7737844,8165712,7741358,8167342,1767,2496,-837,1094,-224,3887,-666,3874,20,14,870
261850,7738008,8165832,7741555,8167539,1807,2430,-1023,1787,388,2611,-1007,5755,20,14,870
262851,7738180,8165928,7741752,8167736,1768,2625,-967,2339,902,2203,-1179,5282,26,17,869
263852,7738356,8166048,7741949,8167933,1753,2509,-603,2665,1309,2045,-721,5724,26,17,869
264853,7738516,8166156,7742146,8168130,1871,2623,-115,2699,1649,2308,-1800,5153,41,14,868
265854,7738708,8166264,7742343,8168327,1673,2663,296,2622,1858,3444,-1858,5211,41,14,868
266855,7738908,8166368,7742540,8168524,1623,2729,624,2901,1993,3487,-1888,7471,40,23,867
267856,7739104,8166488,7742737,8168721,1649,2663,919,3714,2158,2045,-1430,8999,40,23,867
268857,7739284,8166584,7742934,8168918,1757,2858,869,3539,2390,338,-1274,116,32,13,866
269858,7739488,8166688,7743131,8169115,1604,2849,777,2829,2618,-99,-1806,2416,32,13,866
270859,7739664,8166796,7743328,8169312,1790,2864,1005,2763,2767,384,-2702,8352,44,23,868
271860,7739856,8166916,7743525,8169509,1692,2823,1059,2810,2821,518,-2961,2697,44,23,868
272861,7740068,8167040,7743722,8169706,1561,2831,961,2931,2785,680,13,4914,27,31,866
273862,7740240,8167188,7743919,8169903,1823,2703,1008,2990,2698,606,-1850,6422,27,31,866
274863,7740456,8167300,7744116,8170100,1541,2966,1181,2719,2573,138,-2653,5134,29,31,867
275864,7740652,8167424,7744313,8170297,1666,2923,1374,2112,2346,-484,-2483,5308,29,31,867
276865,7740844,8167580,7744510,8170494,1695,2742,1470,1662,2040,-967,-2412,6803,29,32,866
277866,7741004,8167720,7744707,8170691,1912,2867,1311,884,1674,-952,-71,3442,29,32,866
278867,7741260,8167920,7744904,8170888,1286,2492,922,215,1224,496,419,4009,46,38,864
279868,7741480,8168112,7745101,8171085,1502,2545,368,-62,843,1221,-801,3952,46,38,864
280869,7741696,8168336,7745298,8171282,1519,2333,-224,457,642,895,87,6133,45,52,865
281870,7741900,8168584,7745495,8171479,1591,2162,-626,1395,573,265,1341,5400,45,52,865
282871,7742180,8168852,7745692,8171676,1081,2006,-738,2085,581,156,-1254,5694,38,57,870
283872,7742412,8169116,7745889,8171873,1366,2002,-535,1976,680,-29,-1945,4011,38,57,870
284873,7742620,8169372,7746086,8172070,1512,2026,-248,1203,915,-50,-1573,3115,39,60,872
285874,7742892,8169636,7746283,8172267,1080,1948,17,312,1127,1854,-1258,3225,39,60,872
286875,7743120,8169896,7746480,8172464,1342,1945,305,-648,1161,3472,-938,2858,55,59,875
287876,7743336,8170136,7746677,8172661,1409,2052,495,-1606,1182,1547,76,2631,55,59,875
288877,7743592,8170364,7746874,8172858,1134,2113,537,-2164,1268,-174,323,3165,34,51,874
289878,7743832,8170612,7747071,8173055,1216,1967,425,-2105,1366,-332,511,4071,34,51,874
290879,7744040,8170824,7747268,8173252,1411,2185,176,-1717,1421,-30,-134,3615,52,47,873
291880,7744272,8171048,7747465,8173449,1247,2100,-23,-1145,1382,-218,265,5247,52,47,873
292881,7744460,8171288,7747662,8173646,1526,1981,-133,-808,1223,-869,1012,4055,33,58,875
293882,7744648,8171552,7747859,8173843,1531,1802,-219,-864,993,-1437,888,3327,33,58,875
294883,7744884,8171812,7748056,8174040,1214,1800,-261,-889,788,-1051,678,5081,43,57,874
295884,7745076,8172064,7748253,8174237,1492,1825,-291,-999,749,-1040,-563,4232,43,57,874
296885,7745264,8172296,7748450,8174434,1522,1936,-292,-1203,792,-156,-781,3891,50,42,874
297886,7745464,8172540,7748647,8174631,1445,1840,-186,-1472,884,229,-2012,4102,50,42,874
298887,7745652,8172760,7748844,8174828,1525,1981,18,-1723,1029,146,-1392,3810,46,42,875
299888,7745804,8172988,7749041,8175025,1771,1918,257,-1928,1226,471,-665,3503,46,42,875
300889,7745996,8173188,7749238,8175222,1523,2091,393,-1943,1429,1126,-915,3625,31,41,873
301890,7746180,8173352,7749435,8175419,1580,2332,383,-1747,1602,1516,-702,3604,31,41,873
302891,7746360,8173560,7749632,8175616,1613,2052,343,-1473,1768,1212,-1462,3781,45,34,872
303892,7746544,8173748,7749829,8175813,1594,2182,391,-1234,1955,810,-1878,4462,45,34,872
304893,7746752,8173924,7750026,8176010,1440,2266,525,-1046,2042,1156,-1441,4733,35,40,871
305894,7746916,8174100,7750223,8176207,1730,2275,642,-861,2081,1027,-1077,4741,35,40,871
306895,7747088,8174304,7750420,8176404,1692,2098,676,-690,2225,317,-2004,4017,32,33,871
307896,7747252,8174460,7750617,8176601,1757,2416,665,-634,2337,611,-1228,3856,32,33,871
308897,7747420,8174636,7750814,8176798,1745,2302,629,-555,2383,800,-990,3763,27,40,870
309898,7747600,8174792,7751011,8176995,1678,2445,621,-435,2354,1061,379,3944,27,40,870
310899,7747772,8174988,7751208,8177192,1740,2195,610,-341,2346,804,-454,3234,26,39,867
311900,7747960,8175220,7751405,8177389,1644,1956,596,-294,2367,1076,-16,2874,26,39,867
312901,7748128,8175424,7751602,8177586,1783,2128,580,-176,2431,591,-421,3027,31,51,868
313902,7748300,8175636,7751799,8177783,1770,2072,598,71,2479,979,-165,3701,31,51,868
314903,7748440,8175864,7751996,8177980,1995,1958,675,461,2557,636,-511,4748,21,35,873
315904,7748584,8176080,7752193,8178177,1994,2026,798,922,2629,399,-778,4778,21,35,873
316905,7748728,8176344,7752390,8178374,2019,1697,914,1289,2651,211,147,4769,29,53,871
317906,7748876,8176644,7752587,8178571,2015,1426,1011,1576,2667,-320,-330,4416,29,53,871
318907,7749028,8176916,7752784,8178768,2011,1569,1086,1749,2684,-219,-822,3899,26,55,870
319908,7749140,8177204,7752981,8178965,2299,1429,1159,1897,2701,-103,-102,3780,26,55,870
320909,7749280,8177520,7753178,8179162,2149,1202,1239,2092,2707,37,-35,3927,26,50,873
321910,7749452,8177724,7753375,8179359,1961,1900,1280,2164,2727,-430,-1111,3021,26,50,873
322911,7749648,8177936,7753572,8179556,1813,1843,1109,1787,2651,-46,568,64,36,60,871
323912,7749832,8178140,7753769,8179753,1895,1890,918,1284,2588,-148,-1049,1446,36,60,871
324913,7749996,8178372,7753966,8179950,2034,1701,1129,1369,2502,901,166,7461,51,42,871
325915,7750168,8178648,7754163,8180147,1996,1391,1288,1359,2461,105,601,2999,51,42,871
326916,7750348,8178948,7754360,8180344,1955,1196,1224,981,2495,-526,332,1351,29,58,871
327917,7750516,8179248,7754557,8180541,2043,1151,1330,1130,2544,257,213,7261,29,58,871
328917,7750676,8179484,7754754,8180738,2111,1535,1408,1310,2658,-321,-850,3297,48,67,874
329919,7750828,8179804,7754951,8180935,2180,956,1299,1069,2820,-733,-809,804,48,67,874
330920,7751000,8180128,7755148,8181132,2067,875,1307,1026,2905,-223,265,5026,47,72,875
331921,7751172,8180448,7755345,8181329,2079,846,1383,975,2932,-933,-566,3724,47,72,875
332922,7751320,8180768,7755542,8181526,2252,792,1353,739,2815,-725,685,2263,35,73,873
333923,7751460,8181096,7755739,8181723,2327,685,1289,716,2543,-112,737,4705,35,73,873
334924,7751592,8181404,7755936,8181920,2406,761,1240,813,2231,-157,113,4011,25,52,874
335924,7751748,8181656,7756133,8182117,2276,1087,1144,850,1936,477,952,3483,25,52,874
336925,7751904,8181960,7756330,8182314,2295,715,1010,870,1746,31,388,3589,41,62,875
337926,7752084,8182212,7756527,8182511,2153,1016,880,968,1630,-530,555,4557,41,62,875
338927,7752248,8182456,7756724,8182708,2268,1045,726,1101,1391,36,980,3991,33,42,874
339928,7752424,8182724,7756921,8182905,2203,864,519,1146,1087,-572,1346,4463,33,42,874
340929,7752584,8182940,7757118,8183102,2320,1181,302,1201,855,-745,1536,4541,46,38,875
341937,7752752,8183188,7757348,8183332,2298,973,96,1190,736,127,1981,4197,46,38,875
342931,7752916,8183464,7757545,8183529,2339,763,-28,1150,714,609,1698,4452,34,43,875
343932,7753084,8183728,7757742,8183726,2327,809,-59,1056,702,1133,1080,4248,34,43,875
344933,7753260,8183960,7757939,8183923,2288,993,-82,965,677,1467,784,3649,48,42,872
345934,7753452,8184180,7758136,8184120,2191,1058,-173,891,668,1010,1158,3724,48,42,872
346936,7753616,8184356,7758333,8184317,2381,1342,-331,833,614,911,1675,3101,42,44,874
347936,7753792,8184548,7758530,8184514,2317,1245,-546,836,426,1565,1598,3633,42,44,874
348937,7753976,8184752,7758727,8184711,2272,1166,-830,935,142,1023,274,3380,48,29,874
349938,7754132,8184928,7758924,8184908,2466,1351,-1122,1190,-144,382,-310,4542,48,29,874
350940,7754304,8185104,7759121,8185105,2378,1360,-1285,1502,-325,-637,-846,5978,28,27,872
351940,7754464,8185260,7759318,8185302,2471,1503,-1291,1548,-466,-970,-660,5477,28,27,872
352941,7754616,8185440,7759515,8185499,2541,1360,-1180,1170,-630,-769,-760,5575,26,40,871
353942,7754752,8185608,7759712,8185696,2669,1448,-1015,525,-803,-869,-930,5453,26,40,871
354943,7754888,8185764,7759909,8185893,2697,1541,-927,-68,-1042,-93,-703,5386,21,43,869
355944,7755052,8185960,7760106,8186090,2537,1292,-1064,-297,-1326,395,-492,4768,21,43,869
356945,7755172,8186200,7760303,8186287,2847,998,-1412,199,-1549,660,1246,5809,23,39,867
357946,7755312,8186420,7760500,8186484,2748,1113,-1744,1079,-1662,359,1952,5830,23,39,867
358947,7755452,8186612,7760697,8186681,2774,1290,-1848,1528,-1654,228,-824,4636,18,39,870
359948,7755588,8186824,7760894,8186878,2827,1158,-1658,1384,-1663,1233,-2631,5116,18,39,870
360949,7755720,8187000,7761091,8187075,2882,1392,-1343,844,-1703,1702,-3068,4398,25,37,870
361950,7755904,8187196,7761288,8187272,2564,1268,-1060,346,-1668,598,-2013,4725,25,37,870
362952,7756056,8187360,7761485,8187469,2784,1482,-825,-32,-1598,-111,-1944,4751,40,34,869
363952,7756204,8187528,7761682,8187666,2832,1470,-611,-180,-1622,-355,-3184,5930,40,34,869
364953,7756384,8187692,7761879,8187863,2640,1510,-491,-243,-1723,-1109,-2693,5753,32,36,871
365954,7756512,8187840,7762076,8188060,2997,1631,-575,-262,-1787,-1411,-2610,4667,32,36,871
366956,7756676,8187948,7762273,8188257,2787,1920,-710,-101,-1821,-1253,-3254,6005,24,31,866
367956,7756836,8188084,7762470,8188454,2829,1772,-772,104,-1921,-592,-2709,6463,24,31,866
368957,7756984,8188204,7762667,8188651,2927,1907,-747,29,-1994,-994,-2050,5440,20,31,865
369958,7757132,8188296,7762864,8188848,2949,2128,-611,-328,-2016,-802,-2525,5817,22,23,865
370959,7757316,8188380,7763061,8189045,2731,2228,-416,-607,-2045,265,-2946,6113,22,23,865
371960,7757484,8188504,7763258,8189242,2845,2010,-248,-884,-2001,-138,-2424,4890,24,26,861
372961,7757668,8188600,7763455,8189439,2753,2229,-156,-1033,-1933,183,-2374,5096,24,26,861
373962,7757856,8188712,7763652,8189636,2733,2167,-103,-1039,-1820,-375,-2164,4682,34,18,865
374963,7758060,8188844,7763849,8189833,2630,2070,-70,-934,-1704,-106,-1917,4458,34,18,865
375964,7758276,8188952,7764046,8190030,2548,2260,-27,-690,-1665,881,-2014,4900,29,17,863
376965,7758484,8189084,7764243,8190227,2594,2139,26,-470,-1636,522,-1501,4469,29,17,863
377966,7758696,8189188,7764440,8190424,2564,2355,78,-444,-1534,-195,-1104,3592,40,29,864
378968,7758924,8189320,7764637,8190621,2451,2208,137,-603,-1394,-188,-1534,3321,40,29,864
379968,7759144,8189432,7764834,8190818,2492,2371,213,-833,-1333,398,-648,3557,34,28,865
380969,7759412,8189528,7765031,8191015,2162,2516,269,-1027,-1341,919,-529,3203,34,28,865
381970,7759652,8189648,7765228,8191212,2319,2400,293,-1062,-1383,1349,-251,3812,39,21,863
382971,7759888,8189764,7765425,8191409,2328,2460,263,-954,-1407,1075,247,3439,39,21,863
383972,7760156,8189872,7765622,8191606,2099,2551,158,-908,-1344,541,16,2517,60,29,866
384973,7760400,8189996,7765819,8191803,2229,2483,58,-829,-1246,856,-212,2992,60,29,866
385974,7760656,8190124,7766016,8192000,2129,2488,-4,-715,-1230,1801,-133,3162,63,29,867
386975,7760952,8190232,7766213,8192197,1836,2653,-7,-585,-1186,1160,-425,3294,63,29,867
387976,7761212,8190364,7766410,8192394,2035,2532,32,-578,-1103,544,305,2773,48,22,865
388977,7761476,8190480,7766607,8192591,1981,2667,60,-675,-1076,1056,263,2392,48,22,865
389978,7761788,8190612,7766804,8192788,1632,2597,65,-787,-1049,809,291,2446,67,33,867
390979,7762044,8190712,7767001,8192985,1957,2839,77,-875,-984,655,-38,2478,67,33,867
391980,7762340,8190848,7767198,8193182,1664,2642,92,-991,-959,684,508,2429,69,20,868
392981,7762592,8190944,7767395,8193379,1915,2937,105,-1076,-930,384,599,2339,69,20,868
393982,7762928,8191060,7767592,8193576,1330,2848,50,-1160,-911,690,159,2237,66,19,867
394983,7763224,8191188,7767789,8193773,1538,2803,8,-1123,-919,997,152,2918,66,19,867
395984,7763520,8191312,7767986,8193970,1495,2861,-64,-1097,-895,605,-17,1998,62,34,868
396985,7763832,8191468,7768183,8194167,1346,2680,-120,-1130,-844,525,-256,2526,62,34,868
397986,7764116,8191608,7768380,8194364,1483,2805,-85,-1161,-813,570,-405,2974,69,27,866
398987,7764392,8191752,7768577,8194561,1500,2804,-29,-1360,-747,29,175,1750,69,27,866
399988,7764700,8191888,7768774,8194758,1251,2882,-2,-1665,-687,449,-106,1854,53,41,867
400989,7764992,8192060,7768971,8194955,1310,2668,26,-1809,-674,722,404,2767,53,41,867
401990,7765276,8192208,7769168,8195152,1323,2840,-20,-1941,-629,-107,-34,1623,56,28,868
402991,7765592,8192356,7769365,8195349,1072,2862,-93,-1951,-585,-166,-184,2414,56,28,868
403992,7765860,8192508,7769562,8195546,1340,2858,-149,-1949,-640,513,218,2739,52,26,866
404993,7766156,8192676,7769759,8195743,1123,2770,-206,-1954,-730,532,-114,2250,52,26,866
405994,7766440,8192828,7769956,8195940,1161,2891,-226,-2000,-801,476,-155,3246,48,31,868
406995,7766700,8192996,7770153,8196137,1283,2805,-185,-2083,-825,337,31,2983,48,31,868
407996,7766956,8193168,7770350,8196334,1283,2791,-174,-2435,-808,244,-7,1722,49,41,868
408997,7767240,8193316,7770547,8196531,1071,2963,-145,-2714,-793,827,-313,3098,49,41,868
409998,7767500,8193456,7770744,8196728,1193,3038,-130,-2853,-756,393,-177,2651,57,39,867
410999,7767732,8193604,7770941,8196925,1354,3011,-207,-2967,-674,116,42,2189,57,39,867
412000,7767952,8193764,7771138,8197122,1420,2953,-239,-2932,-629,968,-501,2768,45,33,867
413001,7768220,8193924,7771335,8197319,1088,2969,-283,-2858,-597,879,-451,3101,45,33,867
414002,7768460,8194088,7771532,8197516,1246,2960,-220,-2857,-528,509,-813,2575,56,35,866
415003,7768704,8194264,7771729,8197713,1200,2895,-142,-2978,-472,647,-449,3292,56,35,866
416004,7768956,8194400,7771926,8197910,1127,3172,-39,-3156,-402,321,177,2540,54,41,867
417005,7769180,8194552,7772123,8198107,1291,3093,5,-3449,-320,51,-396,2450,54,41,867
418006,7769424,8194720,7772320,8198304,1145,3007,45,-3583,-262,181,-146,3202,36,38,866
419007,7769700,8194876,7772517,8198501,911,3100,32,-3697,-256,727,-249,2769,36,38,866
420008,7769944,8195032,7772714,8198698,1091,3119,-30,-3758,-270,971,-198,2846,61,36,866
421009,7770188,8195224,7772911,8198895,1071,2897,-66,-3733,-228,708,-571,3969,61,36,866
422010,7770460,8195396,7773108,8199092,863,3033,-65,-3723,-172,304,-474,3323,43,42,866
423011,7770688,8195596,7773305,8199289,1126,2857,-85,-3833,-86,189,-394,3242,43,42,866
424013,7770920,8195784,7773502,8199486,1085,2937,-112,-3912,49,130,-1213,3721,46,47,869
425020,7771172,8195972,7773732,8199716,952,2956,-79,-3791,146,785,-716,5115,46,47,869
426014,7771416,8196144,7773929,8199913,981,3068,-100,-3598,87,2203,-1221,4051,40,47,868
427015,7771640,8196284,7774126,8200110,1095,3294,-216,-3448,147,459,-117,3962,40,47,868
428016,7771912,8196504,7774323,8200307,762,2785,-313,-3167,302,908,-309,4813,44,41,868
429017,7772128,8196700,7774520,8200504,1105,2935,-300,-2865,376,1700,-614,5561,44,41,868
430018,7772340,8196928,7774717,8200701,1123,2723,-264,-2812,387,1710,300,3999,32,44,871
431019,7772520,8197104,7774914,8200898,1332,3058,-210,-2957,462,1346,414,4106,32,44,871
432020,7772712,8197288,7775111,8201095,1259,3013,-95,-2936,493,2263,-456,5764,41,29,869
433021,7772896,8197448,7775308,8201292,1314,3181,22,-2964,471,1859,-282,4476,41,29,869
434022,7773072,8197640,7775505,8201489,1375,2984,51,-3038,516,1099,-405,4270,45,30,867
435023,7773280,8197844,7775702,8201686,1170,2907,71,-2798,538,1843,-673,6247,45,30,867
436024,7773456,8197996,7775899,8201883,1380,3252,90,-2435,501,1981,-847,5745,28,34,866
437025,7773624,8198184,7776096,8202080,1443,3032,55,-2260,532,1351,-133,4620,28,34,866
438026,7773820,8198320,7776293,8202277,1269,3384,14,-2215,586,2036,-833,5330,32,38,864
439027,7773992,8198456,7776490,8202474,1430,3412,72,-1985,615,1886,-911,6734,32,38,864
440028,7774152,8198600,7776687,8202671,1523,3386,53,-1996,659,1385,-1359,4409,27,34,864
441029,7774328,8198736,7776884,8202868,1432,3463,31,-1889,694,1471,-833,5980,27,34,864
442030,7774484,8198884,7777081,8203065,1576,3411,50,-1646,723,669,-1154,6712,42,37,862
443031,7774636,8199012,7777278,8203262,1621,3567,71,-1461,760,613,-757,5813,42,37,862
444032,7774796,8199184,7777475,8203459,1588,3304,51,-1336,804,856,-916,5871,34,23,860
445033,7774960,8199308,7777672,8203656,1577,3636,4,-1301,754,1649,-810,5720,34,23,860
446034,7775092,8199452,7777869,8203853,1807,3536,10,-1368,756,483,-754,5864,20,19,861
447035,7775256,8199592,7778066,8204050,1621,3587,31,-1475,810,620,-1284,5877,20,19,861
448036,7775420,8199740,7778263,8204247,1637,3559,92,-1447,808,1364,-1387,6429,29,36,860
449037,7775576,8199876,7778460,8204444,1705,3662,112,-1407,832,724,-832,5780,29,36,860
450038,7775748,8200008,7778657,8204641,1617,3716,114,-1390,864,911,-785,5521,22,37,860
451039,7775892,8200164,7778854,8204838,1815,3585,139,-1381,899,651,-408,5937,22,37,860
452040,7776064,8200300,7779051,8205035,1652,3737,182,-1489,980,-279,-643,5074,38,38,857
453041,7776220,8200456,7779248,8205232,1771,3631,250,-1547,1024,155,-560,5701,38,38,857
454042,7776428,8200596,7779445,8205429,1441,3757,275,-1623,1029,11,-525,4833,36,37,857
455043,7776604,8200760,7779642,8205626,1652,3623,266,-1678,1022,-334,-414,4917,36,37,857
456044,7776776,8200912,7779839,8205823,1688,3719,289,-1661,1072,-961,-724,5617,48,31,859
457046,7776964,8201064,7780036,8206020,1593,3739,315,-1602,992,711,-775,5114,48,31,859
458046,7777128,8201216,7780233,8206217,1757,3760,309,-1591,970,27,-119,4989,26,22,859
459060,7777312,8201340,7780430,8206414,1639,3800,299,-1563,952,942,-629,5335,26,22,859
460048,7777500,8201496,7780627,8206611,1619,3787,286,-1554,997,213,-447,5192,40,24,858
461062,7777704,8201608,7780824,8206808,1516,3800,277,-1593,1120,-319,-911,4540,40,24,858
462063,7777876,8201740,7781021,8207005,1728,3800,239,-1628,1156,352,-299,4777,33,33,858
463064,7778088,8201900,7781218,8207202,1471,3800,231,-1574,1192,-431,-708,4894,33,33,858
464065,7778268,8202044,7781415,8207399,1679,3800,200,-1554,1177,-332,-47,4513,30,18,857
465066,7778460,8202164,7781612,8207596,1608,3800,201,-1608,1185,-729,116,4770,30,18,857
466067,7778632,8202320,7781809,8207793,1744,3800,183,-1856,1127,-223,4,3706,47,28,856
467068,7778832,8202464,7782006,8207990,1568,3800,162,-2102,1090,-793,465,4400,47,28,856
468069,7779020,8202644,7782203,8208187,1647,3800,128,-2186,1092,-871,536,4636,51,36,858
469070,7779196,8202800,7782400,8208384,1733,3800,17,-2107,1063,-283,331,4154,51,36,858
470071,7779412,8202972,7782597,8208581,1475,3800,-131,-1897,1023,-192,225,4910,36,28,858
471072,7779572,8203144,7782794,8208778,1841,3800,-272,-1830,1000,-152,-149,3862,36,28,858
472060,7779752,8203356,7782991,8208975,1725,3671,-340,-1830,1016,-257,-254,4615,31,40,860
473061,7779928,8203580,7783188,8209172,1759,3585,-309,-1905,1015,-156,-396,4545,31,40,860
474062,7780116,8203828,7783385,8209369,1689,3414,-227,-2061,1027,-338,216,4383,26,52,860
475063,7780272,8204052,7783582,8209566,1908,3553,-178,-2196,1083,-536,169,4277,26,52,860
476064,7780460,8204248,7783779,8209763,1712,3729,-176,-2265,1151,-395,-454,4324,39,35,860
477065,7780620,8204460,7783976,8209960,1904,3624,-217,-2361,1122,493,-1205,3534,39,35,860
478066,7780772,8204716,7784173,8210157,1975,3325,-273,-2295,1018,287,-88,4584,39,54,859
479067,7780944,8204980,7784370,8210354,1861,3246,-376,-2147,945,-306,224,3581,39,54,859
480068,7781096,8205224,7784567,8210551,2007,3351,-541,-2068,1027,-1404,119,3517,28,36,861
481069,7781240,8205436,7784764,8210748,2081,3546,-573,-1866,1293,-2448,-583,4881,28,36,861
482070,7781364,8205640,7784961,8210945,2238,3594,-581,-1746,1559,-1917,-1840,3701,39,51,861
483071,7781504,8205868,7785158,8211142,2164,3431,-694,-2025,1397,2218,130,1045,39,51,861
484072,7781640,8206088,7785355,8211339,2217,3472,-746,-2274,896,4287,487,4206,29,46,857
485073,7781824,8206320,7785552,8211536,1923,3383,-546,-2072,712,544,-1492,7072,29,46,857
486074,7781972,8206552,7785749,8211733,2170,3368,-458,-2109,740,376,-1,2327,43,32,857
487075,7782120,8206760,7785946,8211930,2193,3514,-558,-2328,808,247,183,2194,43,32,857
488076,7782280,8206972,7786143,8212127,2134,3484,-611,-2247,842,725,-893,4777,24,44,858
489077,7782420,8207172,7786340,8212324,2285,3559,-569,-1996,893,681,-1160,3789,24,44,858
490078,7782564,8207388,7786537,8212521,2284,3451,-531,-1961,936,835,-138,2698,45,52,858
491080,7782724,8207676,7786734,8212718,2202,2962,-501,-2016,944,1069,-880,2835,45,52,858
492080,7782880,8207956,7786931,8212915,2245,2977,-414,-1911,929,1064,-850,4081,23,46,859
493081,7783028,8208204,7787128,8213112,2317,3154,-262,-1627,947,542,121,4618,23,46,859
494082,7783160,8208460,7787325,8213309,2447,3079,-212,-1562,1024,303,-964,2353,22,51,862
495083,7783300,8208788,7787522,8213506,2423,2573,-233,-1612,972,2103,-979,2729,22,51,862
496084,7783424,8209132,7787719,8213703,2556,2409,-166,-1545,876,1657,-542,4012,38,53,860
497085,7783568,8209452,7787916,8213900,2454,2506,-27,-1550,948,-232,-498,3587,38,53,860
498086,7783692,8209744,7788113,8214097,2612,2640,70,-1772,1071,670,-256,2004,41,61,863
499087,7783812,8210076,7788310,8214294,2672,2332,133,-1986,1055,2161,-102,2763,41,61,863
500088,7783936,8210440,7788507,8214491,2680,2060,225,-1986,1017,1542,-274,3820,26,54,862
501089,7784076,8210784,7788704,8214688,2606,2120,333,-1967,1039,1218,-295,3331,26,54,862
502090,7784184,8211092,7788901,8214885,2846,2297,414,-1942,1127,719,-590,3129,21,53,865
503091,7784340,8211376,7789098,8215082,2565,2410,409,-2040,1211,1023,-637,2092,21,53,865
504092,7784492,8211764,7789295,8215279,2611,1677,373,-2012,1254,1552,-570,3107,28,62,864
505093,7784632,8212104,7789492,8215476,2711,1914,397,-1780,1289,918,-711,3963,28,62,864
506094,7784792,8212416,7789689,8215673,2604,2040,444,-1560,1394,-243,-1198,3226,29,56,867
507096,7784936,8212752,7789886,8215870,2728,1829,439,-1491,1540,-409,-992,2486,29,56,867
508103,7785088,8213128,7790116,8216100,2713,1516,336,-1602,1541,1475,-594,1502,43,68,865
509097,7785224,8213464,7790313,8216297,2841,1705,270,-1564,1446,1787,-364,3062,43,68,865
510098,7785404,8213788,7790510,8216494,2574,1725,297,-1378,1413,318,1124,3170,40,60,866
511099,7785604,8214104,7790707,8216691,2449,1723,280,-1350,1474,220,1201,1272,40,60,866
512100,7785820,8214460,7790904,8216888,2342,1403,236,-1370,1590,791,427,1815,42,61,868
513101,7785996,8214856,7791101,8217085,2602,1067,266,-1118,1699,1201,-102,3943,42,61,868
514102,7786188,8215164,7791298,8217282,2505,1568,333,-730,1853,-68,-381,3167,53,56,870
515103,7786388,8215488,7791495,8217479,2455,1412,408,-556,1981,489,89,2358,53,56,870
516104,7786592,8215848,7791692,8217676,2428,1117,454,-439,1928,2535,773,2842,32,70,870
517105,7786816,8216180,7791889,8217873,2292,1232,468,-225,1758,2962,1193,2677,32,70,870
518106,7787052,8216504,7792086,8218070,2201,1228,526,39,1721,1338,1034,2801,43,53,872
519107,7787288,8216764,7792283,8218267,2185,1600,658,265,1862,452,710,2700,43,53,872
520108,7787492,8217072,7792480,8218464,2382,1251,767,442,1981,1470,467,2671,36,67,871
521109,7787704,8217420,7792677,8218661,2327,935,864,784,1993,1939,431,3189,36,67,871
522110,7787920,8217744,7792874,8218858,2295,1030,939,1020,1958,1703,387,2490,55,57,871
523112,7788188,8218048,7793071,8219055,1939,1108,988,1182,2051,361,182,1881,55,57,871
524112,7788424,8218344,7793268,8219252,2123,1115,1008,1197,2100,2272,1033,1224,44,71,874
525113,7788656,8218712,7793465,8219449,2134,589,1093,1325,2079,2223,899,2320,44,71,874
526114,7788876,8219040,7793662,8219646,2199,782,1190,1609,2170,235,469,2565,45,52,874
527115,7789104,8219320,7793859,8219843,2136,1045,1256,1873,2305,986,-256,1981,45,52,874
528116,7789364,8219588,7794056,8220040,1909,1090,1231,2330,2497,1737,-1039,3394,49,67,875
529117,7789576,8219912,7794253,8220237,2204,684,1110,2820,2636,1654,-659,1972,49,67,875
530118,7789828,8220268,7794450,8220434,1931,414,968,3097,2636,1046,-88,1216,54,54,874
531119,7790088,8220576,7794647,8220631,1854,666,987,3203,2559,-744,-32,1661,54,54,874
532120,7790332,8220824,7794844,8220828,1934,1018,1089,3359,2414,-362,-588,1603,54,53,875
533121,7790588,8221060,7795041,8221025,1834,1076,1088,3758,2261,463,-926,2339,54,53,875
534122,7790848,8221396,7795238,8221222,1783,390,944,4315,2149,529,7,2469,46,54,876
535123,7791108,8221708,7795435,8221419,1755,489,688,4628,2042,-453,-166,1262,46,54,876
536124,7791396,8221956,7795632,8221616,1541,867,557,4652,1904,-209,-765,1995,59,38,877
537125,7791640,8222160,7795829,8221813,1796,1139,640,3902,1463,272,293,1785,59,38,877
538126,7791880,8222328,7796026,8222010,1803,1376,739,3480,1411,-1399,-322,4239,43,33,878
539127,7792096,8222528,7796223,8222207,1946,1174,784,3372,1435,-489,-831,4802,43,33,878
540128,7792352,8222752,7796420,8222404,1670,1013,510,3603,1544,19,-1895,4247,55,39,875
541129,7792584,8222956,7796617,8222601,1806,1134,173,4333,1647,-69,903,5807,55,39,875
542130,7792832,8223140,7796814,8222798,1684,1265,-74,4747,1711,-1191,1416,4454,41,34,875
543131,7793020,8223324,7797011,8222995,2064,1271,-68,4545,1624,1227,-337,4611,41,34,875
544132,7793236,8223500,7797208,8223192,1881,1330,60,3724,1569,114,-2783,4845,32,32,875
545133,7793472,8223652,7797405,8223389,1740,1500,234,2755,1435,136,-3316,4759,32,32,875
546134,7793736,8223856,7797602,8223586,1536,1172,169,1925,1182,-91,-1381,3118,55,36,874
547135,7793988,8224060,7797799,8223783,1588,1169,-67,1875,1041,-1313,401,5695,55,36,874
548136,7794228,8224260,7797996,8223980,1644,1192,-298,2010,914,-1080,1734,5072,54,31,876
549137,7794496,8224452,7798193,8224177,1439,1245,-359,1507,775,-1205,-948,4257,54,31,876
550138,7794708,8224664,7798390,8224374,1784,1113,-243,918,577,-300,-2269,5981,44,33,876
551139,7794948,8224832,7798587,8224571,1590,1401,-250,570,395,-287,-127,5668,44,33,876
552140,7795228,8224988,7798784,8224768,1304,1494,-419,69,303,-319,471,3746,41,43,875
553141,7795472,8225132,7798981,8224965,1510,1592,-493,-1024,276,201,-1843,4971,41,43,875
554142,7795712,8225352,7799178,8225162,1517,1107,-338,-2460,207,225,-2205,5155,39,42,874
555144,7795960,8225580,7799375,8225359,1444,1043,-272,-3957,92,351,-2208,4804,39,42,874
556144,7796196,8225792,7799572,8225556,1503,1136,-379,-4634,-92,761,-1471,6641,40,34,877
557146,7796444,8226040,7799769,8225753,1406,888,-819,-4571,-294,708,422,6078,40,34,877
558146,7796696,8226244,7799966,8225950,1358,1160,-1419,-4174,-467,772,-320,5615,39,37,878
559147,7796924,8226456,7800163,8226147,1495,1104,-1945,-3650,-632,1283,-775,6824,39,37,878
560148,7797136,8226636,7800360,8226344,1588,1311,-2305,-3427,-837,1761,-406,5530,57,46,878
561149,7797368,8226872,7800557,8226541,1449,944,-2530,-3632,-1021,1387,-399,4292,57,46,878
562150,7797612,8227108,7800754,8226738,1354,927,-2616,-3986,-1138,1546,-877,4969,35,40,876
563151,7797836,8227348,7800951,8226935,1467,883,-2624,-4218,-1265,2505,-988,4514,35,40,876
564152,7798072,8227580,7801148,8227132,1376,918,-2633,-4477,-1376,1938,-1346,3204,55,40,877
565153,7798284,8227740,7801345,8227329,1520,1384,-2583,-4699,-1477,1689,-127,3840,55,40,877
566154,7798480,8227900,7801542,8227526,1621,1400,-2460,-4825,-1593,2130,329,3648,32,26,878
567155,7798708,8228052,7801739,8227723,1408,1470,-2351,-4942,-1720,2850,336,3422,32,26,878
568156,7798912,8228260,7801936,8227920,1555,1115,-2305,-5013,-1765,2370,-1292,3087,53,41,875
569157,7799088,8228452,7802133,8228117,1741,1217,-2341,-4880,-1775,2561,-2612,3186,53,41,875
570158,7799256,8228624,7802330,8228314,1803,1353,-2336,-4639,-1870,2846,-246,3274,41,35,876
571159,7799412,8228792,7802527,8228511,1897,1390,-2280,-4493,-2111,3976,1856,3103,41,35,876
572160,7799564,8228932,7802724,8228708,1942,1590,-2237,-4493,-2349,4110,369,2559,20,22,875
573161,7799708,8229068,7802921,8228905,2016,1642,-2148,-4346,-2465,4324,859,4301,20,22,875
574162,7799900,8229224,7803118,8229102,1720,1535,-2020,-4150,-2442,3811,1485,3923,21,30,871
575163,7800044,8229332,7803315,8229299,2043,1874,-1953,-4209,-2195,2050,318,2152,21,30,871
576164,7800184,8229500,7803512,8229496,2094,1512,-1928,-4454,-1951,3365,-5052,1248,19,34,872
577165,7800356,8229656,7803709,8229693,1906,1605,-1596,-4158,-1958,5247,-314,7015,19,34,872
578166,7800500,8229772,7803906,8229890,2104,1890,-1073,-3374,-2086,6111,-1057,7222,40,16,871
579167,7800632,8229920,7804103,8230087,2209,1712,-589,-2663,-2182,6027,113,6585,40,16,871
580168,7800804,8230032,7804300,8230284,1970,1974,-352,-2307,-2019,4575,-3002,3713,30,17,870
581169,7800968,8230160,7804497,8230481,2035,1905,-214,-2066,-1718,3938,731,4790,30,17,870
582170,7801136,8230272,7804694,8230678,2024,2042,-103,-1847,-1355,3057,1816,3842,24,31,870
583171,7801356,8230388,7804891,8230875,1689,2054,-230,-1853,-814,1585,-6158,581,24,31,870
584172,7801528,8230492,7805088,8231072,2001,2169,-180,-1214,-474,3756,-1511,6964,46,17,869
585173,7801700,8230612,7805285,8231269,2013,2103,30,-77,-298,4232,-2336,7603,46,17,869
586174,7801904,8230728,7805482,8231466,1810,2164,138,853,-185,4558,-2963,4887,29,17,868
587175,7802120,8230836,7805679,8231663,1728,2253,126,1397,30,3089,-1485,4550,29,17,868
588177,7802360,8230948,7805876,8231860,1560,2265,183,1829,418,1604,-2343,5116,54,27,869
589178,7802588,8231088,7806073,8232057,1622,2115,365,2321,751,2387,-2306,5959,54,27,869
590178,7802856,8231224,7806270,8232254,1341,2168,488,2468,1030,1250,-2731,3287,36,30,870
591189,7803084,8231336,7806500,8232484,1593,2370,544,2390,1312,207,-2842,3940,36,30,870
592180,7803288,8231444,7806697,8232681,1740,2434,595,2392,1481,1382,-3230,4531,35,25,871
593181,7803564,8231564,7806894,8232878,1256,2393,551,2243,1513,1751,-3520,2410,35,25,871
594182,7803788,8231684,7807091,8233075,1570,2427,528,2323,1509,1220,-1856,5347,36,15,868
595183,7803984,8231784,7807288,8233272,1745,2595,477,2423,1475,1583,-1196,4039,36,15,868
596185,7804264,8231940,7807485,8233469,1185,2263,364,2191,1312,2523,-1173,2512,42,23,868
597185,7804520,8232072,7807682,8233666,1310,2442,275,1648,1101,2398,-516,3066,42,23,868
598186,7804768,8232224,7807879,8233863,1338,2338,211,1275,901,2321,61,3618,43,24,869
599187,7805028,8232408,7808076,8234060,1236,2143,78,1195,759,1744,-170,3807,43,24,869
600188,7805296,8232580,7808273,8234257,1155,2229,-97,1519,765,419,142,4587,38,43,870
601189,7805512,8232744,7808470,8234454,1472,2295,-358,1828,912,-723,367,2741,38,43,870
602190,7805792,8232940,7808667,8234651,1037,2095,-482,1957,1139,-1176,-37,3938,54,41,872
603191,7806064,8233108,7808864,8234848,1054,2283,-395,1712,1262,212,-1046,3355,54,41,872
604192,7806276,8233300,7809061,8235045,1423,2135,-157,1060,1202,1790,-1254,2618,36,43,873
605193,7806528,8233452,7809258,8235242,1149,2406,81,399,1031,2650,-597,3230,36,43,873
606194,7806788,8233624,7809455,8235439,1073,2292,221,26,820,2855,537,3226,55,40,872
607195,7806996,8233824,7809652,8235636,1393,2117,221,8,693,1414,1844,3511,55,40,872
608196,7807232,8234032,7809849,8235833,1202,2062,114,-52,782,-582,437,2331,38,47,871
609197,7807488,8234236,7810046,8236030,1051,2084,75,31,870,854,185,4090,38,47,871
610198,7807728,8234472,7810243,8236227,1133,1868,120,-50,947,120,792,3349,35,49,872
611199,7807976,8234704,7810440,8236424,1060,1877,191,-312,1007,-160,258,3276,35,49,872
612200,7808224,8234908,7810637,8236621,1039,2049,251,-760,1008,481,692,2483,50,44,874
613201,7808444,8235144,7810834,8236818,1204,1833,242,-1129,915,1756,508,3030,50,44,874
614202,7808632,8235376,7811031,8237015,1409,1843,248,-1243,849,1370,-861,3782,31,40,875
615203,7808820,8235596,7811228,8237212,1413,1908,344,-1290,868,209,-177,3791,31,40,875
616204,7809024,8235792,7811425,8237409,1310,2058,418,-1323,925,-504,607,3464,43,32,874
617205,7809224,8235992,7811622,8237606,1334,2033,358,-1436,854,437,42,3020,43,32,874
618206,7809436,8236204,7811819,8237803,1253,1951,189,-1425,763,15,-218,3213,44,48,874
619207,7809604,8236416,7812016,8238000,1541,1945,40,-1300,775,-690,-357,3526,44,48,874
620208,7809776,8236624,7812213,8238197,1527,1966,43,-736,722,220,-83,6135,25,36,872
621210,7809960,8236840,7812410,8238394,1459,1907,15,-452,591,329,-1465,2994,25,36,872
622210,7810104,8237056,7812607,8238591,1732,1899,-44,-591,536,-289,-704,2953,40,37,872
623211,7810272,8237280,7812804,8238788,1596,1838,-58,-887,690,-539,-1434,3538,40,37,872
624212,7810452,8237504,7813001,8238985,1529,1826,43,-973,813,1591,-1725,4995,26,34,873
625213,7810600,8237724,7813198,8239182,1751,1841,195,-804,957,1252,-2458,5361,26,34,873
626214,7810768,8237912,7813395,8239379,1639,2045,267,-856,1141,1211,-1740,3264,40,42,872
627215,7810908,8238124,7813592,8239576,1840,1890,300,-799,1284,2235,-744,4616,40,42,872
628216,7811096,8238324,7813789,8239773,1544,1963,369,-509,1449,1698,-945,5281,41,27,871
629217,7811248,8238508,7813986,8239970,1790,2069,434,-270,1652,1322,-1717,4781,41,27,871
630218,7811408,8238672,7814183,8240167,1756,2209,539,-198,1795,1561,-2573,4875,34,34,870
631219,7811584,8238840,7814380,8240364,1666,2197,740,-255,1863,890,-966,5116,34,34,870
632220,7811724,8238996,7814577,8240561,1916,2290,909,-398,1910,632,-654,3817,25,36,869
633221,7811912,8239168,7814774,8240758,1621,2201,1000,-535,2009,226,-975,4086,25,36,869
634222,7812120,8239328,7814971,8240955,1491,2293,1022,-471,2090,289,-794,4305,38,38,870
635223,7812268,8239508,7815168,8241152,1889,2176,946,-165,2116,33,-529,4611,38,38,870
636224,7812448,8239676,7815365,8241349,1696,2264,811,340,2140,13,148,5084,44,35,870
637225,7812612,8239848,7815562,8241546,1812,2251,612,740,2127,1833,805,3916,44,35,870
638226,7812756,8239996,7815759,8241743,1961,2422,470,1010,2217,1045,-1265,4604,34,39,869
639227,7812920,8240148,7815956,8241940,1851,2417,449,1246,2350,731,-769,4963,34,39,869
640228,7813092,8240296,7816153,8242137,1813,2465,521,1245,2451,-111,-314,3988,22,41,869
641229,7813260,8240484,7816350,8242334,1850,2218,660,1119,2553,-575,771,4909,22,41,869
642230,7813416,8240672,7816547,8242531,1944,2222,757,1014,2639,217,-440,4371,25,45,866
643231,7813624,8240868,7816744,8242728,1615,2174,783,973,2757,-43,-1050,3861,25,45,866
644232,7813784,8241080,7816941,8242925,1932,2067,838,1031,2814,459,-41,5012,39,48,869
645233,7813948,8241288,7817138,8243122,1922,2087,939,1031,2865,-326,-613,4649,39,48,869
646234,7814080,8241516,7817335,8243319,2151,1950,1018,954,2864,357,-426,4516,25,34,871
647235,7814248,8241712,7817532,8243516,1940,2150,1023,792,2819,224,-345,3754,25,34,871
648236,7814392,8241936,7817729,8243713,2114,1963,983,681,2783,-691,442,4021,24,36,869
649237,7814540,8242168,7817926,8243910,2110,1899,924,558,2734,-1767,-362,4215,24,36,869
650238,7814680,8242392,7818123,8244107,2187,1937,838,544,2589,-2339,658,4889,23,52,869
651239,7814780,8242616,7818320,8244304,2479,1925,647,551,2398,-2545,1199,4412,23,52,869
652240,7814932,8242944,7818517,8244501,2175,1219,405,494,2191,-2168,820,4492,41,38,868
653241,7815136,8243144,7818714,8244698,1848,2017,286,513,1892,-773,428,6386,41,38,868
654242,7815308,8243280,7818911,8244895,2059,2444,261,521,1597,-28,749,6253,48,43,867
655243,7815468,8243416,7819108,8245092,2151,2472,174,236,1497,-403,58,3834,48,43,867
656244,7815636,8243540,7819305,8245289,2115,2579,136,25,1476,211,1032,5393,29,35,870
657245,7815804,8243704,7819502,8245486,2129,2344,131,-144,1453,-262,1376,4697,29,35,870
658246,7815948,8243852,7819699,8245683,2302,2466,13,-372,1431,-385,1585,3317,29,35,866
659247,7816128,8244024,7819896,8245880,2085,2327,-171,-401,1482,-814,595,4892,29,35,866
660248,7816256,8244240,7820093,8246077,2442,2044,-240,-214,1579,-1362,-663,5758,44,45,866
661249,7816388,8244488,7820290,8246274,2445,1822,-109,-127,1585,-594,-355,6007,44,45,866
662250,7816524,8244688,7820487,8246471,2448,2121,117,-154,1458,800,447,5279,41,44,867
663251,7816684,8244988,7820684,8246668,2315,1451,250,-181,1398,1294,-378,4667,41,44,867
664252,7816792,8245324,7820881,8246865,2680,1166,286,-303,1423,1544,-971,3754,25,70,867
665253,7816908,8245636,7821078,8247062,2666,1265,398,-296,1494,728,-704,4987,25,70,867
666254,7817044,8245928,7821275,8247259,2569,1348,467,-287,1646,-423,-627,3639,34,70,870
667255,7817164,8246260,7821472,8247456,2704,1039,402,-165,1756,289,-126,3566,34,70,870
668256,7817312,8246596,7821669,8247653,2551,954,238,81,1748,681,-684,4010,36,62,869
669257,7817444,8246876,7821866,8247850,2681,1268,45,387,1614,526,-587,3831,36,62,869
670258,7817592,8247116,7822063,8248047,2603,1499,-125,828,1358,631,-1316,4884,41,63,870
671259,7817740,8247392,7822260,8248244,2625,1239,-215,1310,1020,579,-736,5215,41,63,870
672260,7817904,8247676,7822457,8248441,2540,1151,-319,1580,662,-74,-373,3910,34,62,869
673261,7818060,8247988,7822654,8248638,2609,926,-398,1670,370,-205,285,4709,34,62,869
674269,7818196,8248324,7822884,8248868,2777,730,-404,1697,198,-259,435,5118,35,66,868
675263,7818380,8248600,7823081,8249065,2483,1070,-396,1522,106,-257,100,3403,35,66,868
676264,7818540,8248916,7823278,8249262,2651,768,-377,1410,28,750,551,4390,35,68,870
677265,7818708,8249216,7823475,8249459,2614,822,-433,1366,-8,778,347,3222,35,68,870
678266,7818904,8249500,7823672,8249656,2441,884,-587,1314,-12,745,-397,2264,30,63,872
679267,7819084,8249776,7823869,8249853,2549,899,-619,1574,-49,1334,-797,4429,30,63,872
680268,7819272,8249984,7824066,8250050,2503,1320,-512,1861,-57,144,-432,3999,37,41,872
681269,7819456,8250244,7824263,8250247,2535,967,-407,1829,1,-563,-766,2579,37,41,872
682270,7819668,8250476,7824460,8250444,2354,1126,-252,1748,66,-526,-1791,4894,55,52,872
683271,7819856,8250712,7824657,8250641,2509,1084,-73,1747,21,-3,-2144,4772,55,52,872
684272,7820048,8250932,7824854,8250838,2488,1174,-18,1890,-196,727,-896,4219,50,47,872
685273,7820232,8251164,7825051,8251035,2544,1084,-134,2252,-480,529,755,4478,50,47,872
686274,7820400,8251344,7825248,8251232,2658,1416,-305,2475,-703,-54,248,3330,49,49,870
687275,7820576,8251556,7825445,8251429,2618,1210,-416,2293,-939,-109,-607,3129,49,49,870
688276,7820764,8251772,7825642,8251626,2548,1176,-414,1706,-1206,-555,-156,3518,45,44,871
689277,7820932,8252000,7825839,8251823,2687,1088,-351,996,-1374,-1800,-1152,4111,45,44,871
690278,7821108,8252212,7826036,8252020,2647,1181,-251,463,-1449,-1045,-1694,5461,36,35,869
691279,7821300,8252380,7826233,8252217,2550,1469,-216,100,-1549,-16,-373,5201,36,35,869
692280,7821500,8252528,7826430,8252414,2500,1615,-279,-122,-1659,-18,-836,5465,52,25,870
693281,7821696,8252684,7826627,8252611,2525,1583,-332,-167,-1738,610,-1838,6647,52,25,870
694282,7821892,8252812,7826824,8252808,2527,1789,-383,-209,-1815,860,-1750,5925,51,18,869
695283,7822088,8252940,7827021,8253005,2528,1819,-519,-410,-1850,15,-1701,4787,51,18,869
696284,7822260,8253068,7827218,8253202,2690,1849,-712,-284,-1808,202,-1730,5902,34,23,867
697285,7822444,8253184,7827415,8253399,2622,1960,-912,-136,-1768,681,-1367,4647,34,23,867
698286,7822600,8253308,7827612,8253596,2816,1942,-1061,-112,-1730,530,-1357,3815,42,33,866
699287,7822752,8253428,7827809,8253793,2862,2001,-1087,5,-1662,45,-1253,5129,42,33,866
700288,7822920,8253536,7828006,8253990,2776,2115,-1004,-58,-1556,-343,-1443,3845,42,14,866
701289,7823116,8253660,7828203,8254187,2602,2047,-874,-351,-1530,392,-1376,3521,42,14,866
702290,7823296,8253756,7828400,8254384,2710,2266,-665,-804,-1550,454,-1616,4177,46,30,864
703291,7823468,8253836,7828597,8254581,2772,2418,-470,-1204,-1615,516,-1058,3979,46,30,864
704292,7823676,8253948,7828794,8254778,2544,2255,-375,-1525,-1724,580,-661,3760,50,31,865
705293,7823864,8254048,7828991,8254975,2674,2374,-362,-1523,-1876,1349,-947,4574,50,31,865
706294,7824048,8254160,7829188,8255172,2705,2336,-418,-1241,-2012,1665,-973,4429,44,18,862
707295,7824256,8254312,7829385,8255369,2551,2106,-504,-887,-1962,193,-652,3963,44,18,862
708296,7824428,8254440,7829582,8255566,2788,2286,-592,-657,-1825,-69,-263,3149,35,20,861
709297,7824636,8254564,7829779,8255763,2560,2343,-633,-559,-1731,643,-302,3231,35,20,861
710298,7824860,8254684,7829976,8255960,2449,2403,-619,-517,-1738,1580,-947,3283,34,31,865
711299,7825072,8254796,7830173,8256157,2518,2491,-494,-469,-1756,1636,-1253,3895,34,31,865
712300,7825316,8254916,7830370,8256354,2298,2474,-328,-591,-1764,1589,-651,2807,56,29,864
713301,7825552,8255044,7830567,8256551,2332,2455,-188,-862,-1698,814,-646,2118,56,29,864
714302,7825780,8255140,7830764,8256748,2370,2700,-78,-1112,-1559,539,-1413,2469,58,15,864
715303,7826012,8255248,7830961,8256945,2330,2664,-8,-1079,-1494,1443,-573,2782,58,15,864
716304,7826272,8255356,7831158,8257142,2129,2703,1,-931,-1474,1566,-307,2608,60,34,865
717305,7826532,8255460,7831355,8257339,2102,2770,-14,-628,-1495,1948,50,3254,60,34,865
718306,7826772,8255584,7831552,8257536,2208,2677,2,-261,-1484,1354,-220,3538,37,25,862
719308,7827032,8255712,7831749,8257733,2056,2683,29,-99,-1373,217,-433,2452,37,25,862
720308,7827328,8255812,7831946,8257930,1789,2901,33,-211,-1282,916,-133,1564,44,19,863
721309,7827600,8255916,7832143,8258127,1907,2917,128,-316,-1245,1487,-619,3103,44,19,863
722310,7827888,8256032,7832340,8258324,1768,2879,257,-394,-1216,1146,-614,3123,69,18,864
723311,7828188,8256144,7832537,8258521,1649,2941,342,-600,-1171,538,-568,1776,69,18,864
724312,7828464,8256232,7832734,8258718,1765,3139,353,-759,-1090,117,-705,2955,66,28,864
725313,7828740,8256364,7832931,8258915,1730,2894,341,-738,-1067,853,-1007,3312,66,28,864
726314,7829064,8256468,7833128,8259112,1375,3109,301,-716,-1061,588,-626,3076,67,19,864
727315,7829332,8256568,7833325,8259309,1695,3178,243,-774,-1061,470,-322,3221,67,19,864
728316,7829616,8256688,7833522,8259506,1558,3087,231,-865,-1046,178,-461,3354,69,19,865
729317,7829912,8256816,7833719,8259703,1440,3068,214,-1121,-1000,101,-598,2678,69,19,865
730318,7830200,8256980,7833916,8259900,1451,2858,197,-1387,-934,117,-706,3115,69,30,862
731320,7830484,8257124,7834113,8260097,1438,3007,215,-1645,-913,239,-237,3090,69,30,862
732320,7830796,8257276,7834310,8260294,1214,2978,219,-1872,-863,-356,-756,2675,53,29,865
733321,7831068,8257408,7834507,8260491,1431,3131,239,-2084,-839,58,-994,3123,53,29,865
734322,7831352,8257540,7834704,8260688,1319,3161,272,-2231,-857,401,-653,3168,46,22,866
735324,7831648,8257696,7834901,8260885,1201,3029,270,-2355,-873,611,-952,2479,46,22,866
736324,7831892,8257844,7835098,8261082,1505,3101,284,-2385,-830,427,-792,3414,50,30,864
737325,7832176,8257980,7835295,8261279,1218,3204,256,-2479,-728,109,-593,2311,50,30,864
738326,7832432,8258120,7835492,8261476,1367,3204,210,-2604,-637,540,-593,2202,64,36,866
739327,7832744,8258284,7835689,8261673,968,3070,177,-2591,-609,1157,-578,3337,64,36,866
740328,7832968,8258416,7835886,8261870,1507,3298,189,-2636,-567,614,-664,2388,59,39,861
741329,7833208,8258568,7836083,8262067,1388,3194,259,-2801,-525,531,-90,2591,59,39,861
742330,7833476,8258724,7836280,8262264,1183,3188,300,-3015,-443,-46,-364,2763,56,37,865
743331,7833712,8258876,7836477,8262461,1366,3233,353,-3181,-377,148,187,2252,56,37,865
744332,7833948,8259016,7836674,8262658,1349,3334,301,-3319,-333,398,165,3036,55,25,865
745333,7834212,8259180,7836871,8262855,1145,3199,288,-3278,-329,938,272,3148,55,25,865
746334,7834472,8259312,7837068,8263052,1143,3429,250,-3351,-345,1055,366,3435,38,44,864
747335,7834704,8259492,7837265,8263249,1303,3137,228,-3404,-308,517,-280,3098,38,44,864
748336,7834956,8259676,7837462,8263446,1155,3118,219,-3526,-258,586,300,3846,57,36,864
749337,7835240,8259856,7837659,8263643,917,3152,185,-3643,-218,610,340,3305,57,36,864
750338,7835468,8259992,7837856,8263840,1254,3454,112,-3793,-185,682,189,3567,51,42,865
751339,7835752,8260180,7838053,8264037,866,3133,56,-3857,-205,998,220,4259,51,42,865
752340,7836012,8260340,7838250,8264234,989,3326,-41,-3952,-222,459,291,3553,56,38,866
753341,7836268,8260508,7838447,8264431,988,3289,-164,-4054,-167,120,56,3665,56,38,866
754342,7836532,8260712,7838644,8264628,909,3061,-237,-3852,-91,554,263,5732,40,30,867
755343,7836760,8260908,7838841,8264825,1121,3113,-320,-3557,-145,1949,301,4426,40,30,867
756344,7836996,8261096,7839038,8265022,1054,3168,-479,-3354,-129,770,601,4116,39,35,866
757352,7837236,8261304,7839268,8265252,1025,3053,-594,-3067,37,88,1629,5087,39,35,866
758346,7837484,8261512,7839465,8265449,953,3049,-616,-2836,145,1410,550,4950,38,36,866
759347,7837724,8261704,7839662,8265646,984,3152,-561,-2877,158,1860,170,4295,38,36,866
760348,7837896,8261884,7839859,8265843,1421,3235,-511,-3040,145,2073,432,4151,36,37,867
761349,7838120,8262092,7840056,8266040,1084,3056,-426,-3122,145,2092,-398,4853,36,37,867
762350,7838312,8262304,7840253,8266237,1286,3025,-305,-3075,168,1691,-182,5209,33,35,866
763351,7838500,8262524,7840450,8266434,1316,2966,-260,-3054,216,1577,-251,4261,33,35,866
764352,7838688,8262744,7840647,8266631,1320,2957,-266,-2854,293,1771,-428,5235,45,36,865
765353,7838872,8262936,7840844,8266828,1352,3135,-261,-2610,372,1777,-1137,5369,45,36,865
766354,7839060,8263124,7841041,8267025,1331,3164,-255,-2406,414,1697,-571,5295,28,34,867
767355,7839256,8263332,7841238,8267222,1281,3035,-295,-2261,488,1554,-1136,4771,28,34,867
768356,7839444,8263512,7841435,8267419,1336,3218,-338,-2082,620,1098,-855,5321,32,26,865
769357,7839604,8263684,7841632,8267616,1528,3280,-349,-1870,740,994,-1155,5923,32,26,865
770358,7839796,8263832,7841829,8267813,1330,3452,-298,-1854,722,1737,-703,4990,27,24,866
771359,7839940,8263996,7842026,8268010,1654,3367,-233,-1837,800,476,-1247,6163,27,24,866
772360,7840096,8264148,7842223,8268207,1597,3463,-197,-1755,856,1131,-1580,5615,24,21,862
773361,7840280,8264300,7842420,8268404,1429,3484,-184,-1720,866,1066,-787,5183,24,21,862
774362,7840432,8264460,7842617,8268601,1649,3450,-163,-1648,932,542,-1311,5777,41,36,861
775363,7840588,8264624,7842814,8268798,1642,3441,-72,-1527,988,822,-1192,6438,41,36,861
776364,7840728,8264776,7843011,8268995,1768,3537,-17,-1499,1030,462,-984,5024,42,38,861
777365,7840908,8264916,7843208,8269192,1525,3638,55,-1531,1123,-154,-806,5563,42,38,861
778366,7841076,8265076,7843405,8269389,1614,3530,165,-1606,1197,313,-1003,5663,35,33,861
779367,7841232,8265232,7843602,8269586,1707,3573,284,-1669,1185,883,-588,5400,35,33,861
780368,7841396,8265388,7843799,8269783,1673,3592,384,-1749,1187,451,-369,5226,37,25,859
781369,7841556,8265540,7843996,8269980,1714,3638,456,-1773,1210,486,-1134,5470,37,25,859
782382,7841728,8265660,7844193,8270177,1651,3800,515,-1737,1220,345,-754,5549,42,32,859
783371,7841932,8265824,7844390,8270374,1448,3613,513,-1729,1269,-396,-1152,4924,42,32,859
784372,7842100,8265968,7844587,8270571,1686,3762,511,-1703,1320,-420,-630,5298,29,36,858
785373,7842296,8266140,7844784,8270768,1512,3599,521,-1666,1319,-211,-877,5255,29,36,858
786387,7842480,8266280,7844981,8270965,1593,3800,531,-1622,1299,-502,34,5423,28,25,858
787375,7842644,8266452,7845178,8271162,1733,3636,520,-1646,1245,176,-307,4875,28,25,858
788376,7842816,8266604,7845375,8271359,1694,3782,520,-1696,1149,493,125,5610,41,21,860
789377,7843004,8266776,7845572,8271556,1599,3669,532,-1850,1151,-320,-599,4624,41,21,860
790378,7843204,8266944,7845769,8271753,1523,3708,490,-1930,1153,370,-400,5270,31,37,859
791392,7843376,8267096,7845966,8271950,1710,3800,435,-1837,1195,48,-98,5348,31,37,859
792380,7843600,8267256,7846163,8272147,1373,3796,314,-1632,1235,150,-514,5102,50,35,859
793381,7843780,8267420,7846360,8272344,1656,3786,246,-1397,1298,-498,-254,5624,50,35,859
794395,7843984,8267568,7846557,8272541,1503,3800,220,-1370,1307,-338,204,4535,50,22,858
795383,7844164,8267740,7846754,8272738,1662,3771,187,-1627,1290,-379,481,4099,50,22,858
796384,7844348,8267920,7846951,8272935,1642,3729,158,-1830,1266,-105,80,4393,30,21,856
797398,7844540,8268068,7847148,8273132,1596,3800,149,-1844,1269,-651,521,5099,30,21,856
798386,7844728,8268248,7847345,8273329,1625,3760,100,-1754,1293,-977,23,4395,39,39,858
799400,7844936,8268416,7847542,8273526,1496,3800,61,-1672,1298,-833,246,4623,39,39,858
800388,7845108,8268596,7847739,8273723,1732,3782,55,-1679,1294,-634,121,4709,36,45,858
801389,7845276,8268832,7847936,8273920,1770,3415,24,-1822,1257,-159,450,3734,36,45,858
802390,7845460,8269040,7848133,8274117,1676,3587,-3,-1949,1248,-393,558,4262,30,34,859
803391,7845652,8269268,7848330,8274314,1629,3449,-32,-1892,1315,-956,514,4761,30,34,859
804392,7845812,8269464,7848527,8274511,1846,3650,-84,-1720,1488,-1486,-63,4838,34,48,861
805393,7846000,8269676,7848724,8274708,1676,3545,-193,-1571,1661,-1149,-841,3846,34,48,861
806394,7846152,8269872,7848921,8274905,1920,3646,-305,-1568,1656,540,-1377,3512,46,40,860
807395,7846308,8270120,7849118,8275102,1914,3300,-253,-1526,1453,1642,-507,5281,46,40,860
808396,7846480,8270368,7849315,8275299,1825,3278,-211,-1603,1332,548,-185,3754,29,36,859
809397,7846628,8270584,7849512,8275496,1998,3471,-292,-1919,1341,-150,859,1794,29,36,859
810398,7846760,8270780,7849709,8275693,2127,3598,-375,-1946,1426,-352,952,4450,38,28,861
811399,7846900,8270976,7849906,8275890,2102,3599,-426,-1816,1516,-412,-121,3620,38,28,861
812400,7847032,8271164,7850103,8276087,2182,3654,-446,-1742,1552,107,-702,3532,26,29,859
813401,7847176,8271372,7850300,8276284,2130,3525,-408,-1671,1533,194,-340,4268,26,29,859
814402,7847348,8271576,7850497,8276481,1967,3548,-370,-1659,1521,32,-708,3778,38,40,858
815403,7847492,8271748,7850694,8276678,2166,3760,-371,-1638,1522,-322,-7,3685,38,40,858
816404,7847648,8271940,7850891,8276875,2110,3638,-448,-1590,1538,-161,-667,3345,28,42,857
817405,7847784,8272124,7851088,8277072,2262,3695,-551,-1523,1522,394,-555,3358,28,42,857
818406,7847936,8272332,7851285,8277269,2182,3541,-602,-1466,1590,-482,-849,3701,28,32,854
819407,7848088,8272516,7851482,8277466,2203,3698,-562,-1478,1655,19,-1301,3432,28,32,854
820408,7848248,8272700,7851679,8277663,2170,3704,-472,-1653,1621,695,-469,3235,38,46,856
821409,7848392,8272904,7851876,8277860,2294,3576,-397,-1825,1595,420,-485,3296,38,46,856
822410,7848532,8273184,7852073,8278057,2345,3066,-375,-1874,1628,177,-1315,3305,39,44,856
823411,7848680,8273480,7852270,8278254,2317,2923,-317,-1710,1701,-109,-929,4317,39,44,856
824412,7848808,8273736,7852467,8278451,2472,3149,-220,-1490,1776,-133,182,4178,24,46,857
825413,7848936,8273956,7852664,8278648,2504,3364,-249,-1550,1759,1094,-530,1971,24,46,857
826414,7849060,8274276,7852861,8278845,2562,2686,-320,-1551,1705,1360,-926,3295,30,46,861
827415,7849208,8274600,7853058,8279042,2433,2607,-316,-1484,1739,370,-1259,3468,30,46,861
828416,7849324,8274904,7853255,8279239,2670,2686,-194,-1390,1829,249,-484,3569,34,59,856
829417,7849432,8275232,7853452,8279436,2760,2479,-58,-1418,1879,901,-618,2689,34,59,856
830418,7849584,8275592,7853649,8279633,2506,2207,59,-1470,1823,1833,-151,3350,35,56,862
831419,7849716,8275940,7853846,8279830,2659,2217,157,-1506,1785,1265,21,3280,35,56,862
832420,7849856,8276276,7854043,8280027,2635,2232,231,-1657,1865,66,-172,2545,28,65,862
833421,7850008,8276580,7854240,8280224,2581,2386,296,-1821,2037,-365,-448,2692,28,65,862
834422,7850148,8276860,7854437,8280421,2682,2499,325,-1956,2157,501,-444,2356,44,73,864
835423,7850304,8277276,7854634,8280618,2601,1554,337,-1992,2170,1140,-312,2861,44,73,864
836424,7850444,8277648,7854831,8280815,2726,1753,343,-1935,2174,691,-387,2830,26,65,864
837425,7850616,8277956,7855028,8281012,2538,2104,351,-1845,2238,257,90,2825,26,65,864
838426,7850768,8278268,7855225,8281209,2684,2030,342,-1765,2293,791,622,2465,24,58,868
839427,7850948,8278648,7855422,8281406,2518,1525,332,-1696,2233,1877,338,2841,24,58,868
840435,7851152,8279040,7855652,8281636,2380,1379,387,-1413,2222,536,-235,3936,34,61,864
841429,7851344,8279356,7855849,8281833,2458,1802,455,-1152,2363,-692,-253,3163,34,61,864
842430,7851536,8279676,7856046,8282030,2461,1724,467,-912,2469,669,-104,2875,38,67,869
843431,7851740,8280056,7856243,8282227,2383,1269,421,-759,2375,2360,159,2525,38,67,869
844432,7851936,8280396,7856440,8282424,2435,1457,421,-472,2226,1993,160,3600,41,54,868
845433,7852124,8280712,7856637,8282621,2490,1554,482,-179,2182,1052,903,3056,41,54,868
846434,7852348,8281060,7856834,8282818,2254,1288,518,-145,2234,954,1266,1275,57,67,871
847435,7852592,8281392,7857031,8283015,2109,1330,566,-27,2328,1189,696,3082,57,67,871
848436,7852808,8281712,7857228,8283212,2277,1351,705,330,2379,1050,447,4171,59,54,869
849437,7853024,8282016,7857425,8283409,2270,1404,795,619,2354,1191,230,2138,59,54,869
850438,7853236,8282276,7857622,8283606,2288,1652,823,577,2317,1420,221,1370,55,52,872
851439,7853432,8282620,7857819,8283803,2389,1062,892,780,2290,1299,584,3514,55,52,872
852441,7853672,8282956,7858016,8284000,2096,1051,951,1003,2281,1005,1073,2142,54,51,869
853441,7853896,8283284,7858213,8284197,2186,1044,943,945,2186,1868,995,314,54,51,869
854442,7854108,8283584,7858410,8284394,2255,1173,981,1084,2269,-282,644,3267,60,69,872
855443,7854340,8283868,7858607,8284591,2116,1236,1051,1465,2361,579,373,2607,60,69,872
856444,7854604,8284224,7858804,8284788,1886,716,1087,1809,2266,1529,283,2508,58,57,874
857445,7854832,8284596,7859001,8284985,2099,539,1123,2210,2155,919,-335,3166,58,57,874
858446,7855064,8284928,7859198,8285182,2059,730,965,2573,2264,554,-2716,1885,59,53,873
859448,7855340,8285192,7859395,8285379,1750,1126,671,2941,2397,1381,-3908,1548,59,53,873
860448,7855584,8285492,7859592,8285576,1930,855,591,3366,2300,1181,-318,3679,55,66,876
861449,7855824,8285832,7859789,8285773,1937,543,707,3410,2077,-452,-379,1211,55,66,876
862450,7856076,8286192,7859986,8285970,1839,346,861,3225,1912,-430,29,1214,43,59,874
863451,7856344,8286504,7860183,8286167,1709,595,891,3135,1838,363,-81,2122,43,59,874
864452,7856620,8286764,7860380,8286364,1624,893,864,3232,1796,576,-39,2275,49,67,877
865453,7856912,8287072,7860577,8286561,1483,544,843,3267,1724,397,-345,2184,49,67,877
866454,7857148,8287388,7860774,8286758,1817,442,840,3245,1562,816,-297,2339,61,52,878
867456,7857384,8287628,7860971,8286955,1801,898,785,3187,1331,801,562,2475,61,52,878
868457,7857596,8287848,7861168,8287152,1944,1012,670,3245,1120,763,-641,3283,51,57,879
869457,7857832,8288080,7861365,8287349,1778,921,372,3487,1037,1729,-935,4120,51,57,879
870458,7858076,8288296,7861562,8287546,1708,1013,136,3907,1283,-1003,-874,4706,46,36,876
871459,7858308,8288500,7861759,8287743,1768,1085,51,3835,1561,-319,-362,4138,46,36,876
872460,7858512,8288732,7861956,8287940,1941,894,133,3393,1539,909,-18,5258,37,37,875
873461,7858740,8288912,7862153,8288137,1778,1227,175,2815,1338,522,-1148,5320,37,37,875
874462,7858924,8289064,7862350,8288334,2059,1422,142,2468,1245,-896,-2406,5341,36,27,874
875463,7859168,8289232,7862547,8288531,1664,1333,-107,2254,1151,-719,-54,3445,36,27,874
876464,7859436,8289420,7862744,8288728,1484,1212,-422,2322,963,-247,1123,4307,57,29,875
877465,7859676,8289612,7862941,8288925,1640,1190,-601,2479,799,-869,-499,5649,57,29,875
878466,7859908,8289812,7863138,8289122,1676,1138,-582,2014,625,-553,-662,3835,36,35,875
879467,7860148,8290028,7863335,8289319,1607,1030,-355,673,459,-174,-1561,3434,36,35,875
880468,7860364,8290216,7863532,8289516,1750,1209,-24,-981,300,264,-2006,4829,40,26,876
881469,7860632,8290364,7863729,8289713,1394,1480,190,-2419,242,-242,-2518,4376,40,26,876
882470,7860880,8290512,7863926,8289910,1497,1501,167,-3455,156,-26,-1805,4368,59,41,877
883471,7861128,8290660,7864123,8290107,1476,1522,-80,-3799,59,-676,-1238,5716,59,41,877
884472,7861372,8290832,7864320,8290304,1480,1383,-525,-3618,-28,-867,-1288,5634,49,27,875
885473,7861604,8291092,7864517,8290501,1541,806,-1053,-3195,-229,864,-1089,6369,49,27,875
886474,7861840,8291308,7864714,8290698,1498,1072,-1488,-2847,-464,994,-1084,6022,40,34,875
887475,7862096,8291516,7864911,8290895,1349,1118,-1883,-2833,-687,953,-886,5213,40,34,875
888476,7862336,8291700,7865108,8291092,1431,1273,-2109,-3094,-905,1483,-1529,5551,39,44,878
889477,7862540,8291908,7865305,8291289,1653,1118,-2185,-3430,-1148,1943,-1806,5461,39,44,878
890478,7862780,8292104,7865502,8291486,1410,1194,-2203,-3737,-1344,1419,-457,4647,38,36,878
891480,7862988,8292320,7865699,8291683,1605,1060,-2235,-3980,-1481,1438,63,3697,38,36,878
892480,7863204,8292556,7865896,8291880,1548,917,-2246,-4130,-1596,1724,-154,3976,55,38,876
893481,7863444,8292772,7866093,8292077,1379,1034,-2186,-4332,-1706,1839,-1389,3236,55,38,876
894482,7863648,8292968,7866290,8292274,1602,1160,-2085,-4541,-1816,2472,-1161,3295,43,43,876
895483,7863824,8293140,7866487,8292471,1786,1321,-1967,-4680,-1897,2918,-848,3158,43,43,876
896484,7864036,8293316,7866684,8292668,1555,1305,-1885,-4722,-1983,3239,-677,3215,50,30,876
897485,7864244,8293460,7866881,8292865,1575,1528,-1800,-4666,-2071,3344,-650,3131,50,30,876
898486,7864436,8293600,7867078,8293062,1679,1578,-1718,-4560,-2197,3745,400,3390,33,24,874
899487,7864620,8293732,7867275,8293259,1734,1656,-1590,-4415,-2282,2825,177,3748,33,24,874
900488,7864816,8293924,7867472,8293456,1661,1283,-1434,-4329,-2301,2531,-243,3817,46,23,874
901489,7864968,8294096,7867669,8293653,1955,1419,-1342,-4460,-2351,4054,-874,1893,46,23,874
902490,7865096,8294256,7867866,8293850,2137,1510,-1421,-4748,-2517,5673,-1718,1130,37,29,873
903491,7865272,8294404,7868063,8294047,1846,1607,-1458,-4558,-2656,4950,-850,4536,37,29,873
904492,7865436,8294532,7868260,8294244,1937,1762,-1298,-4057,-2747,4355,2734,5702,33,27,873
905493,7865596,8294680,7868457,8294441,1978,1658,-1176,-3844,-2646,2771,1956,3385,33,27,873
906494,7865796,8294788,7868654,8294638,1727,1948,-1276,-3903,-2300,2584,-5236,1162,43,21,871
907495,7865976,8294908,7868851,8294835,1860,1906,-1241,-3569,-2121,4330,74,5710,43,21,871
908496,7866148,8295072,7869048,8295032,1922,1646,-1047,-2947,-2064,4328,24,5593,24,32,871
909497,7866300,8295208,7869245,8295229,2067,1848,-872,-2393,-2026,5432,-2108,4606,24,32,871
910498,7866468,8295320,7869442,8295426,1980,2035,-740,-1791,-2031,7129,-118,5497,21,21,870
911499,7866604,8295444,7869639,8295623,2208,1992,-678,-1192,-1972,6028,-1503,4623,21,21,870
912500,7866784,8295560,7869836,8295820,1941,2078,-598,-812,-1790,4275,-884,4088,32,18,870
913501,7866960,8295680,7870033,8296017,1976,2087,-515,-728,-1502,3077,-260,2836,32,18,870
914502,7867148,8295808,7870230,8296214,1905,2067,-412,-505,-1060,2787,-2864,4146,23,14,867
915503,7867320,8295900,7870427,8296411,2017,2338,-266,368,-666,3901,-1639,7259,23,14,867
916504,7867516,8296024,7870624,8296608,1868,2170,-136,1417,-440,4311,-2603,6514,26,12,867
917505,7867712,8296128,7870821,8296805,1869,2336,-9,2159,-332,4034,-1509,5397,26,12,867
918506,7867924,8296232,7871018,8297002,1763,2377,110,2488,-133,3091,-1898,4162,33,14,866
919507,7868168,8296344,7871215,8297199,1543,2365,197,2510,84,3386,-2351,3845,33,14,866
920508,7868408,8296456,7871412,8297396,1550,2403,332,2507,325,2219,-3246,4933,42,18,868
921509,7868640,8296584,7871609,8297593,1584,2333,516,2517,546,1428,-3311,5037,42,18,868
922510,7868892,8296692,7871806,8297790,1436,2497,643,2556,698,1515,-3185,4601,38,17,869
923520,7869136,8296840,7872036,8298020,1481,2283,619,2630,809,1246,-2719,4381,38,17,869
924512,7869368,8296952,7872233,8298217,1541,2546,462,2627,917,741,-2548,3564,38,25,868
925513,7869632,8297052,7872430,8298414,1312,2664,339,2791,992,841,-827,5324,38,25,868
926514,7869892,8297176,7872627,8298611,1309,2546,344,2726,1071,228,-940,4442,57,30,870
927515,7870152,8297272,7872824,8298808,1283,2766,365,2125,1217,-511,-2247,3070,57,30,870
928516,7870392,8297388,7873021,8299005,1389,2677,484,1521,1362,37,-3487,5204,55,20,866
929517,7870624,8297508,7873218,8299202,1424,2686,556,1343,1452,340,-2146,5265,55,20,866
930518,7870884,8297628,7873415,8299399,1222,2720,513,1509,1483,301,324,4218,43,19,868
931519,7871124,8297752,7873612,8299596,1329,2728,422,1694,1403,1270,1022,4386,43,19,868
932520,7871372,8297908,7873809,8299793,1256,2546,304,1527,1250,1887,660,2093,38,37,867
933521,7871620,8298080,7874006,8299990,1235,2457,323,1379,1159,1742,118,4471,38,37,867
934522,7871864,8298252,7874203,8300187,1239,2469,529,1017,1077,1976,-87,3481,44,43,867
935523,7872108,8298476,7874400,8300384,1220,2132,688,216,993,1660,387,1417,44,43,867
936524,7872368,8298660,7874597,8300581,1092,2388,723,-540,952,1211,880,2075,53,29,870
937525,7872592,8298844,7874794,8300778,1305,2394,691,-743,935,1343,266,3799,53,29,870
938526,7872848,8299036,7874991,8300975,1080,2347,635,-587,968,356,-114,3738,47,46,871
939527,7873080,8299216,7875188,8301172,1215,2430,562,-405,1018,47,84,4036,47,46,871
940528,7873312,8299456,7875385,8301369,1200,2036,440,-310,1045,-70,-45,3698,38,52,870
941529,7873592,8299688,7875582,8301566,864,2071,287,-340,1076,-403,287,3786,38,52,870
942530,7873816,8299916,7875779,8301763,1202,2083,90,-645,1097,-484,-256,2171,37,42,871
943531,7874012,8300144,7875976,8301960,1379,2070,-19,-994,1019,357,151,3769,37,42,871
944532,7874240,8300388,7876173,8302157,1165,1949,1,-1268,888,63,676,3838,50,43,874
945533,7874436,8300628,7876370,8302354,1365,1956,46,-1746,715,-14,1071,2295,50,43,874
946534,7874616,8300856,7876567,8302551,1474,2017,138,-1979,491,1270,-378,4894,30,41,873
947535,7874828,8301088,7876764,8302748,1267,1977,190,-2061,311,1142,-674,4030,30,41,873
948536,7875016,8301312,7876961,8302945,1422,2016,114,-2138,350,-342,-209,3074,31,49,873
949537,7875204,8301516,7877158,8303142,1426,2138,-87,-2055,472,94,195,3069,31,49,873
950538,7875376,8301724,7877355,8303339,1537,2108,-268,-1582,523,942,1222,4331,27,40,872
951539,7875556,8301944,7877552,8303536,1496,2024,-405,-1075,515,1077,-87,3598,27,40,872
952540,7875716,8302160,7877749,8303733,1637,2041,-475,-927,489,1230,-103,2950,44,51,871
953541,7875900,8302388,7877946,8303930,1493,1952,-453,-1029,599,378,-722,2650,44,51,871
954542,7876080,8302600,7878143,8304127,1526,2046,-234,-987,620,1415,1336,5167,41,41,872
955543,7876260,8302824,7878340,8304324,1534,1960,-2,-980,705,-401,-887,3391,41,41,872
956544,7876436,8303044,7878537,8304521,1569,1975,134,-1296,854,-882,-516,2534,43,36,873
957545,7876588,8303296,7878734,8304718,1739,1750,201,-1472,949,1000,-331,4365,43,36,873
958546,7876732,8303512,7878931,8304915,1812,1968,241,-1337,1023,1600,-537,4700,38,51,872
959547,7876892,8303700,7879128,8305112,1729,2147,299,-1108,1137,1555,-973,4458,38,51,872
960548,7877064,8303912,7879325,8305309,1665,1990,374,-907,1223,2007,-922,4697,25,39,871
961549,7877216,8304088,7879522,8305506,1811,2225,395,-612,1283,1802,-547,4903,25,39,871
962550,7877384,8304296,7879719,8305703,1724,2021,308,-224,1321,1530,-890,4781,33,32,869
963551,7877572,8304444,7879916,8305900,1604,2417,263,172,1376,981,-876,5584,33,32,869
964552,7877740,8304636,7880113,8306097,1741,2145,319,335,1445,994,-1082,5115,34,38,868
965553,7877896,8304812,7880310,8306294,1835,2254,445,384,1532,646,-1322,4904,34,38,868
966554,7878076,8304964,7880507,8306491,1693,2425,545,383,1578,1035,-122,4115,43,23,869
967555,7878200,8305128,7880704,8306688,2075,2364,565,412,1705,345,-342,3822,43,23,869
968556,7878352,8305324,7880901,8306885,1921,2164,533,528,1873,469,-1062,4128,22,28,869
969557,7878516,8305460,7881098,8307082,1860,2567,501,776,1968,489,-65,4811,22,28,869
970558,7878672,8305632,7881295,8307279,1929,2353,429,1112,1955,761,-350,4693,35,34,867
971559,7878800,8305792,7881492,8307476,2135,2445,357,1361,1925,516,140,4867,35,34,867
972560,7878952,8305936,7881689,8307673,2005,2569,277,1470,2025,-299,-351,3752,40,42,864
973561,7879144,8306140,7881886,8307870,1757,2191,260,1545,2174,-225,-311,4204,40,42,864
974562,7879300,8306352,7882083,8308067,2001,2134,350,1866,2227,512,-272,5976,42,32,866
975563,7879468,8306556,7882280,8308264,1939,2182,368,1984,2175,581,-344,3352,42,32,866
976564,7879632,8306780,7882477,8308461,1980,2045,336,1840,2242,-716,17,3183,41,51,870
977565,7879764,8306996,7882674,8308658,2209,2087,401,1788,2353,-458,-586,4849,41,51,870
978566,7879920,8307188,7882871,8308855,2077,2239,539,1761,2373,-124,452,4491,34,38,868
979567,7880076,8307440,7883068,8309052,2096,1841,628,1721,2341,-51,940,4456,34,38,868
980568,7880204,8307660,7883265,8309249,2302,2031,606,1504,2337,-651,-139,3363,24,41,868
981569,7880316,8307904,7883462,8309446,2440,1860,575,1328,2361,-857,-517,3953,24,41,868
982570,7880488,8308144,7883659,8309643,2076,1867,561,1155,2368,-1366,469,3840,47,39,869
983571,7880668,8308408,7883856,8309840,2034,1688,490,911,2234,-1563,1206,3594,47,39,869
984572,7880840,8308612,7884053,8310037,2096,2060,361,874,2055,-2191,517,5348,29,50,866
985573,7881032,8308768,7884250,8310234,1974,2379,166,1043,1869,-1565,714,5600,29,50,866
986574,7881200,8308908,7884447,8310431,2137,2504,-95,1295,1618,-999,718,5194,33,28,871
987575,7881364,8309052,7884644,8310628,2177,2502,-317,1450,1388,-1421,191,5569,33,28,871
988576,7881544,8309224,7884841,8310825,2085,2338,-431,1580,1196,-410,929,5968,49,34,867
989577,7881704,8309440,7885038,8311022,2228,2056,-558,1667,1143,24,838,4604,49,34,867
990578,7881836,8309696,7885235,8311219,2431,1780,-651,1561,1256,-564,339,3818,32,32,864
991579,7882000,8309948,7885432,8311416,2247,1781,-599,1342,1448,-1227,-996,4614,32,32,864
992580,7882156,8310216,7885629,8311613,2316,1650,-330,1017,1578,-746,-489,5914,26,45,867
993581,7882304,8310452,7885826,8311810,2387,1833,-33,680,1609,-247,720,4714,26,45,867
994582,7882424,8310788,7886023,8312007,2597,1147,136,171,1656,-388,-301,2769,24,59,868
995583,7882560,8311120,7886220,8312204,2525,1113,310,-209,1754,-229,-1801,4361,24,59,868
996584,7882688,8311448,7886417,8312401,2605,1081,480,-354,1823,-25,-2009,4565,41,75,868
997585,7882812,8311776,7886614,8312598,2663,1024,526,-360,1872,-28,-1473,3710,41,75,868
998586,7882976,8312100,7886811,8312795,2429,993,436,-96,1918,-295,-1199,4439,37,56,870
999587,7883136,8312408,7887008,8312992,2471,1044,263,358,1877,500,-535,4512,37,56,870
1000588,7883280,8312676,7887205,8313189,2594,1263,22,873,1702,917,-1061,4307,47,55,870
1001589,7883440,8313040,7887402,8313386,2512,590,-182,1371,1485,512,-1047,5052,47,55,870
1002590,7883580,8313352,7887599,8313583,2663,864,-258,1640,1293,358,-992,4832,31,54,871
1003592,7883732,8313640,7887796,8313780,2608,974,-195,1561,1094,13,-508,4425,31,54,871
1004592,7883908,8313924,7887993,8313977,2468,961,-46,1298,879,208,355,4964,42,68,871
1005593,7884052,8314236,7888190,8314174,2692,735,27,1064,731,-25,418,4200,42,68,871
1006601,7884216,8314548,7888420,8314404,2597,699,-44,1011,646,369,1061,3856,32,56,870
1007595,7884432,8314840,7888617,8314601,2265,782,-254,1114,631,222,1152,3200,32,56,870
1008596,7884596,8315104,7888814,8314798,2604,928,-473,1270,632,-80,-1065,3570,33,57,871
1009597,7884784,8315312,7889011,8314995,2459,1273,-469,1642,523,966,-1270,6130,33,57,871
1010598,7884968,8315500,7889208,8315192,2491,1402,-400,1675,408,465,-571,3246,52,54,874
1011599,7885168,8315744,7889405,8315389,2390,1031,-298,1329,412,-540,-760,3713,52,54,874
1012600,7885344,8315996,7889602,8315586,2551,957,-56,982,463,-883,-1539,5733,32,42,870
1013601,7885520,8316224,7889799,8315783,2560,1094,162,346,306,-188,-712,3426,32,42,870
1014602,7885688,8316420,7889996,8315980,2624,1294,275,-247,-34,106,-272,4479,40,47,871
1015603,7885852,8316604,7890193,8316177,2664,1375,254,-636,-334,-1057,-483,4851,40,47,871
1016604,7886016,8316800,7890390,8316374,2680,1300,91,-765,-655,-402,344,4427,34,40,869
1017605,7886172,8316988,7890587,8316571,2749,1354,-202,-613,-1016,15,84,4922,34,40,869
1018606,7886308,8317252,7890784,8316768,2901,849,-494,-189,-1285,-293,-682,5854,31,36,868
1019607,7886468,8317500,7890981,8316965,2768,926,-702,162,-1427,-269,-1356,5760,31,36,868
1020608,7886652,8317700,7891178,8317162,2624,1225,-801,181,-1511,-279,-1137,4895,30,35,867
1021609,7886816,8317912,7891375,8317359,2765,1143,-798,48,-1615,424,-1571,5246,30,35,867
1022610,7887000,8318104,7891572,8317556,2647,1271,-678,-137,-1754,1535,-2354,5668,29,32,870
1023611,7887188,8318304,7891769,8317753,2627,1219,-568,-295,-1860,930,-2157,4840,29,32,870
1024612,7887356,8318468,7891966,8317950,2765,1459,-600,-292,-1934,445,-1404,3950,39,30,869
1025613,7887532,8318620,7892163,8318147,2726,1554,-719,139,-1974,622,-614,5372,39,30,869
1026614,7887728,8318764,7892360,8318344,2602,1627,-875,611,-1959,176,-461,3889,44,22,868
1027615,7887880,8318912,7892557,8318541,2897,1623,-966,674,-1901,168,-1330,3042,44,22,868
1028616,7888040,8319028,7892754,8318738,2864,1859,-884,513,-1895,920,-1597,4507,26,22,866
1029617,7888200,8319172,7892951,8318935,2881,1706,-731,111,-1860,-94,-1994,3085,26,22,866
1030618,7888388,8319280,7893148,8319132,2711,1970,-561,-347,-1898,341,-1216,3800,32,21,865
1031619,7888568,8319388,7893345,8319329,2770,2010,-376,-645,-1999,420,-1116,4439,32,21,865
1032620,7888752,8319492,7893542,8319526,2751,2075,-264,-892,-2124,511,-1386,3850,41,29,865
1033621,7888956,8319604,7893739,8319723,2624,2063,-208,-993,-2242,1178,-806,4446,41,29,865
1034622,7889164,8319756,7893936,8319920,2596,1833,-233,-952,-2238,655,-526,4215,38,19,865
1035623,7889368,8319904,7894133,8320117,2618,1879,-335,-842,-2236,1302,-335,3812,38,19,865
1036624,7889568,8320036,7894330,8320314,2643,2008,-414,-531,-2214,1097,-861,4854,45,21,865
1037625,7889752,8320164,7894527,8320511,2750,2064,-482,-279,-2110,575,-411,3795,45,21,865
1038626,7889956,8320284,7894724,8320708,2622,2148,-493,-253,-1996,722,-882,3125,45,35,865
1039627,7890180,8320408,7894921,8320905,2486,2155,-379,-343,-1899,543,-783,3899,45,35,865
1040628,7890392,8320544,7895118,8321102,2555,2107,-222,-569,-1921,1560,-553,2555,41,29,863
1041629,7890612,8320660,7895315,8321299,2496,2267,-61,-726,-1974,1811,-806,3312,41,29,863
1042630,7890856,8320764,7895512,8321496,2327,2383,84,-764,-1920,564,-534,3382,52,24,865
1043631,7891092,8320872,7895709,8321693,2360,2397,121,-843,-1785,25,-348,1738,52,24,865
1044632,7891312,8321004,7895906,8321890,2451,2276,68,-725,-1651,383,-563,2547,46,29,865
1045633,7891560,8321104,7896103,8322087,2255,2518,-4,-439,-1586,1106,-745,2948,46,29,865
1046634,7891824,8321236,7896300,8322284,2126,2348,-37,-82,-1590,1594,-512,3366,38,17,864
1047635,7892088,8321368,7896497,8322481,2097,2377,-39,160,-1591,1384,-751,3416,38,17,864
1048636,7892368,8321472,7896694,8322678,1962,2592,-28,300,-1582,1472,-252,3193,59,19,864
1049637,7892628,8321596,7896891,8322875,2060,2500,-12,228,-1509,715,-868,3039,59,19,864
1050638,7892908,8321708,7897088,8323072,1899,2613,6,7,-1407,645,-226,2651,45,32,865
1051639,7893184,8321808,7897285,8323269,1891,2731,-9,-268,-1319,612,-282,2621,45,32,865
1052640,7893488,8321940,7897482,8323466,1669,2559,24,-481,-1257,-99,46,3252,63,32,866
1053641,7893768,8322044,7897679,8323663,1783,2775,35,-665,-1212,-452,-382,2796,63,32,866
1054642,7894060,8322164,7897876,8323860,1667,2710,45,-881,-1180,-177,-578,2657,67,18,865
1055643,7894368,8322280,7898073,8324057,1520,2770,80,-928,-1188,797,-877,3745,67,18,865
1056644,7894664,8322408,7898270,8324254,1551,2726,94,-922,-1158,750,-810,3062,68,36,865
1057645,7894948,8322552,7898467,8324451,1589,2650,134,-1111,-1047,213,-339,2199,68,36,865
1058646,7895264,8322696,7898664,8324648,1338,2673,201,-1339,-908,-37,-356,2842,60,21,867
1059647,7895548,8322836,7898861,8324845,1499,2723,241,-1584,-748,-343,-864,2104,60,21,867
1060648,7895852,8322976,7899058,8325042,1328,2749,261,-1728,-630,235,-1377,2379,49,35,866
1061649,7896160,8323128,7899255,8325239,1256,2694,282,-1804,-603,480,-240,3141,49,35,866
1062650,7896436,8323280,7899452,8325436,1421,2715,270,-1947,-600,-302,-582,2041,70,34,867
1063651,7896700,8323416,7899649,8325633,1467,2842,248,-2044,-651,2,-435,3151,70,34,867
1064652,7896992,8323560,7899846,8325830,1251,2815,266,-2107,-721,-216,-267,3435,61,40,868
1065653,7897276,8323732,7900043,8326027,1263,2652,223,-2310,-808,-23,162,2092,61,40,868
1066654,7897532,8323872,7900240,8326224,1413,2877,152,-2463,-873,183,498,3283,51,22,866
1067655,7897808,8324020,7900437,8326421,1254,2850,73,-2470,-862,-63,190,3654,51,22,866
1068656,7898080,8324176,7900634,8326618,1246,2818,-1,-2563,-805,31,50,2641,60,40,868
1069657,7898324,8324320,7900831,8326815,1401,2917,-79,-2674,-762,738,-408,3479,60,40,868
1070658,7898568,8324476,7901028,8327012,1381,2860,-122,-2812,-732,726,-410,2881,49,26,865
1071659,7898804,8324632,7901225,8327209,1414,2879,-146,-2961,-708,939,-592,3342,49,26,865
1072660,7899032,8324784,7901422,8327406,1451,2924,-119,-3046,-681,892,-819,3241,50,29,865
1073661,7899272,8324964,7901619,8327603,1358,2757,-88,-3185,-646,718,-199,2866,50,29,865
1074662,7899516,8325132,7901816,8327800,1312,2845,-91,-3314,-566,491,-89,2696,55,36,867
1075663,7899772,8325304,7902013,8327997,1212,2832,-71,-3350,-495,466,405,3214,55,36,867
1076664,7900012,8325452,7902210,8328194,1293,3003,-43,-3324,-449,396,738,3101,42,38,867
1077665,7900260,8325612,7902407,8328391,1221,2946,-39,-3366,-402,468,-160,2399,42,38,867
1078666,7900500,8325764,7902604,8328588,1253,3016,-29,-3330,-343,665,-313,3522,38,33,867
1079667,7900740,8325920,7902801,8328785,1234,3010,-15,-3283,-296,832,-374,3296,38,33,867
1080668,7901008,8326080,7902998,8328982,1029,3001,-29,-3330,-262,800,-27,2528,41,26,867
1081669,7901256,8326272,7903195,8329179,1132,2804,-9,-3355,-229,1042,-212,4067,41,26,867
1082670,7901488,8326432,7903392,8329376,1216,3020,38,-3349,-213,881,201,3813,51,44,865
1083671,7901748,8326616,7903589,8329573,1015,2877,19,-3496,-131,-18,182,2894,51,44,865
1084672,7901980,8326808,7903786,8329770,1174,2829,29,-3594,39,-401,-139,4401,59,30,868
1085673,7902196,8326996,7903983,8329967,1266,2859,50,-3404,64,1339,-73,5428,59,30,868
1086674,7902468,8327152,7904180,8330164,884,3078,-14,-3313,4,1270,-405,3559,55,45,868
1087675,7902680,8327328,7904377,8330361,1252,2962,-125,-3207,98,-48,127,4744,55,45,868
1088676,7902900,8327504,7904574,8330558,1192,2973,-191,-3019,161,1260,-368,5026,54,40,867
1089684,7903144,8327680,7904804,8330788,1037,2996,-224,-2813,149,1587,-194,5375,54,40,867
1090678,7903368,8327916,7905001,8330985,1150,2605,-260,-2758,165,1371,219,3933,50,37,867
1091679,7903556,8328076,7905198,8331182,1379,3096,-281,-2660,208,1838,266,5493,50,37,867
1092680,7903740,8328260,7905395,8331379,1411,2953,-252,-2595,278,1571,-648,4997,33,30,866
1093681,7903940,8328404,7905592,8331576,1309,3227,-215,-2661,410,805,-483,4470,33,30,866
1094682,7904120,8328596,7905789,8331773,1442,2930,-179,-2654,486,1813,-887,5297,32,43,864
1095683,7904316,8328800,7905986,8331970,1343,2853,-165,-2490,491,2299,-1200,5536,32,43,864
1096684,7904508,8328960,7906183,8332167,1371,3144,-149,-2331,552,1277,-494,5409,28,26,865
1097685,7904708,8329104,7906380,8332364,1319,3268,-132,-2134,589,2109,-559,5582,28,26,865
1098686,7904880,8329260,7906577,8332561,1506,3212,-124,-2072,664,1496,-759,5080,30,37,866
1099687,7905088,8329400,7906774,8332758,1276,3337,-163,-2048,764,1339,-611,4804,30,37,866
1100688,7905268,8329536,7906971,8332955,1459,3390,-169,-1979,886,359,-853,5592,26,29,864
1101689,7905436,8329704,7907168,8333152,1548,3204,-121,-1779,913,807,-486,5872,26,29,864
1102690,7905600,8329840,7907365,8333349,1587,3431,-71,-1732,919,462,-169,5349,26,20,862
1103691,7905792,8329968,7907562,8333546,1414,3512,-53,-1569,950,520,-999,6054,26,20,862
1104692,7905952,8330104,7907759,8333743,1632,3490,-36,-1475,909,1488,-620,5275,26,26,862
1105693,7906128,8330268,7907956,8333940,1541,3329,-30,-1458,902,574,-957,5494,26,26,862
1106694,7906284,8330404,7908153,8334137,1684,3532,35,-1487,944,78,-916,5571,27,20,861
1107695,7906448,8330568,7908350,8334334,1649,3372,109,-1630,1054,-247,-1031,5370,27,20,861
1108696,7906628,8330720,7908547,8334531,1557,3467,186,-1811,1079,439,-1015,4902,44,25,862
1109697,7906828,8330872,7908744,8334728,1430,3488,256,-1905,1062,137,-67,5956,44,25,862
1110698,7906996,8330996,7908941,8334925,1644,3696,285,-1869,1049,104,-450,5287,44,30,861
1111699,7907168,8331156,7909138,8335122,1630,3488,245,-1873,1069,-118,-616,4670,44,30,861
1112700,7907352,8331336,7909335,8335319,1561,3371,256,-1802,1037,452,-466,5858,24,24,861
1113701,7907532,8331492,7909532,8335516,1594,3540,276,-1726,983,309,-976,5678,24,24,861
1114702,7907716,8331664,7909729,8335713,1575,3452,298,-1693,995,-318,-574,5161,25,25,859
1115703,7907900,8331832,7909926,8335910,1582,3491,288,-1688,1029,-318,-509,5031,25,25,859
1116704,7908060,8332004,7910123,8336107,1748,3477,295,-1713,1097,-1030,-302,5193,28,41,858
1117705,7908240,8332152,7910320,8336304,1631,3649,300,-1734,1054,504,-249,5138,28,41,858
1118706,7908436,8332340,7910517,8336501,1532,3404,304,-1721,987,538,-74,5496,26,30,860
1119707,7908608,8332500,7910714,8336698,1693,3596,256,-1755,972,253,-394,4832,26,30,860
1120721,7908800,8332628,7910911,8336895,1571,3800,173,-1802,985,-27,98,4982,46,40,856
1121709,7909004,8332772,7911108,8337092,1493,3751,108,-1768,997,-278,-501,5157,46,40,856
1122710,7909188,8332924,7911305,8337289,1624,3722,55,-1679,1005,-403,-378,5318,37,36,859
1123711,7909372,8333088,7911502,8337486,1631,3662,76,-1669,1022,-532,-217,5119,37,36,859
1124725,7909580,8333224,7911699,8337683,1476,3800,110,-1788,997,-86,297,4589,49,17,858
1125726,7909760,8333364,7911896,8337880,1659,3800,124,-2056,962,-53,-218,4012,49,17,858
1126727,7909940,8333504,7912093,8338077,1667,3800,118,-2224,943,-199,-153,4550,29,19,857
1127728,7910144,8333652,7912290,8338274,1514,3800,111,-2158,997,-932,-72,5135,29,19,857
1128729,7910324,8333808,7912487,8338471,1672,3800,76,-1985,1049,-754,-438,4419,46,33,857
1129730,7910508,8333968,7912684,8338668,1653,3800,74,-1838,1092,-799,-108,4747,46,33,857
1130731,7910672,8334132,7912881,8338865,1793,3800,78,-1790,1116,-385,-22,4530,29,25,858
1131719,7910856,8334320,7913078,8339062,1674,3670,91,-1816,1134,-101,-102,3993,29,25,858
1132720,7911012,8334528,7913275,8339259,1867,3542,125,-1915,1158,-227,-60,4327,45,31,857
1133721,7911192,8334708,7913472,8339456,1725,3725,171,-1995,1174,-300,26,4104,45,31,857
1134722,7911380,8334928,7913669,8339653,1679,3466,238,-1961,1201,-430,464,4767,30,47,859
1135723,7911544,8335120,7913866,8339850,1845,3644,214,-1963,1266,-551,-405,3396,30,47,859
1136724,7911688,8335296,7914063,8340047,1993,3754,192,-1883,1473,-1585,-640,4171,36,46,857
1137725,7911872,8335488,7914260,8340244,1750,3658,171,-1810,1717,-1726,-282,3962,36,46,857
1138726,7912032,8335712,7914457,8340441,1916,3446,128,-1686,1938,-1754,-742,3806,44,34,857
1139727,7912176,8335916,7914654,8340638,2040,3569,-45,-1788,1812,2041,984,1862,44,34,857
1140728,7912320,8336152,7914851,8340835,2064,3352,-150,-1718,1175,6199,1337,4308,43,38,857
1141729,7912448,8336348,7915048,8341032,2195,3604,-10,-1259,1076,-967,-1036,7691,43,38,857
1142730,7912580,8336524,7915245,8341229,2199,3739,38,-1305,1283,-1020,248,1600,41,45,857
1143731,7912732,8336696,7915442,8341426,2094,3776,1,-1610,1392,483,-338,2943,41,45,857
1144732,7912892,8336896,7915639,8341623,2061,3601,71,-1696,1347,1124,-240,5258,33,34,856
1145733,7913048,8337132,7915836,8341820,2105,3360,47,-1738,1345,563,65,2693,33,34,856
1146734,7913212,8337328,7916033,8342017,2069,3611,-71,-1824,1420,151,505,2249,33,31,855
1147735,7913364,8337528,7916230,8342214,2165,3585,-143,-1695,1509,-54,163,4734,33,31,855
1148736,7913496,8337712,7916427,8342411,2319,3691,-186,-1513,1596,-324,-1208,3224,33,27,857
1149737,7913652,8337908,7916624,8342608,2188,3618,-201,-1373,1618,11,-421,3752,33,27,857
1150738,7913820,8338084,7916821,8342805,2125,3753,-142,-1323,1597,100,-673,3765,39,36,857
1151739,7913960,8338288,7917018,8343002,2326,3576,-49,-1444,1551,527,-132,3502,39,36,857
1152740,7914116,8338516,7917215,8343199,2244,3413,-13,-1594,1500,875,-756,2864,28,44,857
1153741,7914260,8338784,7917412,8343396,2344,3133,-25,-1649,1520,70,-1432,3399,28,44,857
1154742,7914380,8339044,7917609,8343593,2528,3157,-33,-1493,1584,97,-264,3978,29,50,856
1155743,7914508,8339292,7917806,8343790,2509,3210,-39,-1378,1613,359,758,3484,29,50,856
1156744,7914648,8339548,7918003,8343987,2460,3134,-103,-1390,1601,752,270,3114,20,60,859
1157745,7914780,8339892,7918200,8344184,2539,2521,-219,-1579,1562,1593,-599,2397,20,60,859
1158746,7914904,8340216,7918397,8344381,2622,2591,-246,-1597,1534,922,-1211,3916,20,61,857
1159747,7915032,8340532,7918594,8344578,2628,2590,-159,-1488,1619,-620,-1386,4327,20,61,857
1160748,7915180,8340820,7918791,8344775,2525,2726,-72,-1419,1696,275,-579,3561,21,69,861
1161749,7915304,8341164,7918988,8344972,2707,2311,-85,-1498,1645,1751,-156,2605,21,69,861
1162750,7915472,8341556,7919185,8345169,2446,1926,-124,-1657,1597,1513,-133,2901,27,53,861
1163751,7915604,8341872,7919382,8345366,2701,2350,-105,-1759,1748,-145,-491,3633,27,53,861
1164752,7915740,8342180,7919579,8345563,2703,2352,-66,-1895,1932,499,-493,2767,43,68,862
1165753,7915892,8342480,7919776,8345760,2623,2357,-59,-2137,2028,1024,-396,2278,43,68,862
1166754,7916040,8342848,7919973,8345957,2671,1858,-33,-2247,2074,1048,-165,3480,44,68,864
1167755,7916176,8343212,7920170,8346154,2774,1809,-11,-2273,2086,1390,-377,3012,44,68,864
1168756,7916336,8343568,7920367,8346351,2640,1790,-1,-2256,2188,357,-487,3099,32,62,864
1169757,7916516,8343912,7920564,8346548,2523,1801,13,-2217,2299,659,535,3236,32,62,864
1170758,7916724,8344284,7920761,8346745,2345,1550,10,-2201,2332,820,37,2770,46,68,864
1171759,7916904,8344624,7920958,8346942,2528,1687,24,-2159,2355,593,-90,3142,46,68,864
1172767,7917112,8344936,7921188,8347172,2363,1827,89,-1845,2433,254,-372,4290,41,61,867
1173761,7917288,8345304,7921385,8347369,2573,1402,126,-1565,2461,822,-292,3133,41,61,867
1174762,7917472,8345672,7921582,8347566,2530,1328,143,-1481,2330,2635,32,2696,53,73,867
1175763,7917688,8346004,7921779,8347763,2322,1493,198,-1252,2146,2673,63,3855,53,73,867
1176764,7917880,8346300,7921976,8347960,2476,1675,285,-1094,2097,1352,401,2692,52,69,868
1177765,7918116,8346628,7922173,8348157,2183,1418,339,-1119,2154,1192,723,1529,52,69,868
1178766,7918336,8346972,7922370,8348354,2274,1254,427,-1041,2274,487,744,3238,35,59,870
1179768,7918544,8347316,7922567,8348551,2345,1189,593,-612,2348,727,705,4318,35,59,870
1180768,7918744,8347620,7922764,8348748,2395,1392,758,-241,2360,1172,580,2901,37,59,870
1181770,7918968,8347896,7922961,8348945,2233,1533,796,-82,2352,2622,10,1882,37,59,870
1182770,7919196,8348216,7923158,8349142,2196,1204,652,265,2524,2166,-923,2618,43,63,870
1183771,7919424,8348544,7923355,8349339,2183,1097,450,636,2599,2817,345,2327,43,63,870
1184772,7919636,8348896,7923552,8349536,2277,879,413,954,2546,1532,553,2715,58,57,870
1185773,7919852,8349180,7923749,8349733,2244,1266,525,1280,2551,-1263,851,3238,58,57,870
1186774,7920076,8349496,7923946,8349930,2183,1013,565,1565,2485,246,1136,1485,38,62,873
1187775,7920292,8349824,7924143,8350127,2226,882,465,1854,2327,1899,737,1979,38,62,873
1188776,7920556,8350148,7924340,8350324,1897,851,327,2314,2298,826,-1559,2620,53,58,872
1189777,7920780,8350464,7924537,8350521,2136,849,308,2597,2323,666,-3766,1652,53,58,872
1190778,7921016,8350764,7924734,8350718,2044,903,448,2770,2221,638,-1620,2287,58,52,873
1191779,7921268,8351092,7924931,8350915,1921,671,561,2862,2102,-222,-521,1532,58,52,873
1192780,7921508,8351428,7925128,8351112,1977,560,621,3030,1987,695,-554,2037,55,68,873
1193781,7921756,8351732,7925325,8351309,1906,713,656,3374,1904,875,2,3033,55,68,873
1194782,7922040,8351992,7925522,8351506,1644,959,677,3602,1910,84,4,1642,55,67,876
1195783,7922296,8352300,7925719,8351703,1793,610,643,3672,1924,1530,-271,1987,55,67,876
1196784,7922540,8352604,7925916,8351900,1848,588,629,3720,1766,1896,30,2095,44,59,876
1197785,7922808,8352892,7926113,8352097,1668,648,700,3731,1646,277,584,2947,44,59,876
1198786,7922992,8353120,7926310,8352294,2199,1010,738,3380,1514,755,1223,817,57,39,877
1199787,7923208,8353304,7926507,8352491,1991,1290,784,3049,1423,378,-37,3075,57,39,877
1200788,7923476,8353492,7926704,8352688,1636,1269,805,3008,1483,-684,-276,4836,50,34,877
1201789,7923696,8353720,7926901,8352885,1926,1005,825,2889,1578,223,191,3300,50,34,877
1202790,7923904,8353920,7927098,8353082,1997,1178,842,2595,1683,-786,-1518,4620,48,48,872
1203791,7924136,8354096,7927295,8353279,1832,1337,799,2603,1668,753,-2111,4835,48,48,872
1204792,7924340,8354296,7927492,8353476,2005,1186,549,2836,1439,1627,891,4012,32,27,873
1205793,7924552,8354456,7927689,8353673,1949,1452,151,3277,1303,-1050,-238,4420,32,27,873
1206794,7924816,8354616,7927886,8353870,1595,1469,-229,3550,1195,-882,-857,5052,40,28,874
1207795,7925072,8354780,7928083,8354067,1620,1458,-401,3049,950,43,-1274,3378,40,28,874
1208796,7925332,8354964,7928280,8354264,1567,1338,-332,2172,686,-746,-3216,5207,38,25,872
1209797,7925568,8355144,7928477,8354461,1701,1370,-268,1530,435,-430,-2904,5899,38,25,872
1210798,7925788,8355340,7928674,8354658,1792,1271,-431,1246,195,59,-227,4548,61,26,874
1211799,7926000,8355540,7928871,8354855,1835,1244,-763,1236,17,-50,1835,4343,61,26,874
1212800,7926280,8355720,7929068,8355052,1375,1377,-959,946,-95,-478,553,4890,56,29,874
1213801,7926532,8355884,7929265,8355249,1526,1491,-912,289,-246,552,-2550,5339,56,29,874
1214802,7926772,8356036,7929462,8355446,1583,1586,-879,-381,-473,1669,-2499,5076,46,38,873
1215803,7927008,8356176,7929659,8355643,1590,1686,-958,-986,-580,-40,427,3556,46,38,873
1216804,7927260,8356344,7929856,8355840,1467,1523,-985,-1853,-600,-136,1110,3669,56,39,875
1217805,7927508,8356548,7930053,8356037,1470,1295,-762,-2777,-692,1370,-1108,5460,56,39,875
1218806,7927720,8356800,7930250,8356234,1689,971,-593,-3846,-881,2214,-1205,4332,46,46,873
1219807,7927980,8357008,7930447,8356431,1362,1241,-610,-4686,-1055,1654,-1327,4035,46,46,873
1220808,7928216,8357208,7930644,8356628,1495,1290,-792,-5006,-1210,1474,-943,5430,36,32,876
1221809,7928416,8357424,7930841,8356825,1719,1181,-1084,-4976,-1361,1523,-739,4402,36,32,876
1222810,7928656,8357604,7931038,8357022,1451,1414,-1418,-4634,-1539,1995,108,4929,58,39,876
1223811,7928900,8357824,7931235,8357219,1406,1154,-1720,-4115,-1690,1915,-478,5231,58,39,876
1224812,7929096,8358056,7931432,8357416,1706,1063,-1970,-3671,-1819,1961,-929,4279,38,50,874
1225813,7929308,8358272,7931629,8357613,1600,1154,-2088,-3464,-1952,2142,-1119,4326,38,50,874
1226814,7929504,8358480,7931826,8357810,1701,1199,-2063,-3527,-2144,2643,-574,3615,49,40,876
1227815,7929708,8358644,7932023,8358007,1649,1489,-1991,-3895,-2344,2915,-650,2471,49,40,876
1228816,7929900,8358796,7932220,8358204,1726,1583,-1926,-4233,-2472,3028,39,3212,33,35,875
1229817,7930108,8358968,7932417,8358401,1622,1469,-1792,-4148,-2539,3144,329,3843,33,35,875
1230818,7930272,8359088,7932614,8358598,1912,1828,-1754,-4037,-2648,3672,-716,2608,48,23,874
1231819,7930424,8359220,7932811,8358795,2007,1782,-1742,-3996,-2876,4875,567,3020,48,23,874
1232820,7930580,8359412,7933008,8358992,2000,1409,-1710,-3928,-3005,4048,84,3704,40,34,874
1233821,7930736,8359592,7933205,8359189,2019,1491,-1687,-3709,-3021,4182,394,4266,40,34,874
1234822,7930920,8359772,7933402,8359386,1850,1498,-1696,-3517,-2953,3895,656,3380,40,38,870
1235823,7931100,8359908,7933599,8359583,1883,1800,-1652,-3499,-2834,3560,215,3426,40,38,870
1236824,7931276,8360016,7933796,8359780,1918,2014,-1492,-3434,-2642,3219,-1998,4249,35,29,870
1237825,7931468,8360152,7933993,8359977,1820,1866,-1147,-3098,-2525,4773,417,6405,35,29,870
1238826,7931656,8360280,7934190,8360174,1850,1946,-796,-2683,-2475,5032,1577,6065,41,16,870
1239827,7931820,8360384,7934387,8360371,2015,2137,-858,-2851,-2228,3624,-4552,-101,41,16,870
1240828,7931972,8360500,7934584,8360568,2110,2097,-936,-2880,-2005,4983,35,4279,32,19,870
1241829,7932136,8360652,7934781,8360765,2050,1892,-767,-2297,-1740,4088,88,7113,32,19,870
1242830,7932292,8360748,7934978,8360962,2119,2287,-731,-1951,-1385,3719,-6708,1395,26,24,867
1243832,7932468,8360876,7935175,8361159,2003,2117,-603,-1558,-1184,4878,995,6219,26,24,867
1244832,7932656,8360992,7935372,8361356,1933,2227,-493,-1028,-846,2593,-1757,5678,44,30,869
1245833,7932856,8361100,7935569,8361553,1857,2317,-568,-445,-384,1929,-4885,4020,44,30,869
1246834,7933060,8361204,7935766,8361750,1830,2382,-649,314,-94,3237,-1622,5989,31,14,867
1247835,7933248,8361296,7935963,8361947,1934,2505,-640,1181,29,2986,-2463,6365,31,14,867
1248836,7933476,8361412,7936160,8362144,1671,2390,-552,1933,151,2560,-1767,6183,50,19,865
1249837,7933688,8361512,7936357,8362341,1764,2533,-528,2213,305,2401,-2433,3587,50,19,865
1250838,7933924,8361624,7936554,8362538,1598,2495,-472,2136,426,2133,-2315,4061,46,20,865
1251839,7934160,8361744,7936751,8362735,1581,2479,-221,2115,569,2013,-2882,6381,46,20,865
1252840,7934372,8361868,7936948,8362932,1726,2486,93,2079,678,1968,-2599,5057,38,24,867
1253841,7934608,8361964,7937145,8363129,1558,2706,283,1630,849,159,-2273,2925,38,24,867
1254842,7934852,8362096,7937342,8363326,1489,2510,368,959,1076,-437,-1658,2779,32,30,868
1255852,7935052,8362216,7937572,8363556,1777,2633,427,367,1169,762,-1217,3929,32,30,868
1256844,7935304,8362344,7937769,8363753,1429,2614,497,100,1163,612,-1515,5542,50,17,867
1257845,7935532,8362472,7937966,8363950,1565,2645,536,-68,1168,207,-1787,4957,50,17,867
1258846,7935748,8362584,7938163,8364147,1633,2782,611,-33,1118,1033,-2003,6770,53,31,864
1259848,7935948,8362700,7938360,8364344,1731,2793,673,61,1083,398,-2797,6210,53,31,864
1260848,7936168,8362832,7938557,8364541,1597,2722,641,254,1110,170,-2043,5495,42,27,866
1261849,7936416,8362940,7938754,8364738,1400,2912,548,709,1130,474,-466,5935,42,27,866
1262850,7936680,8363096,7938951,8364935,1271,2630,423,986,1108,245,-107,3764,41,34,865
1263851,7936916,8363220,7939148,8365132,1429,2862,261,953,998,1162,-92,2721,41,34,865
1264852,7937232,8363384,7939345,8365329,877,2627,143,858,871,1335,-368,3272,39,23,865
1265853,7937504,8363544,7939542,8365526,1120,2668,70,850,810,861,-640,3469,39,23,865
1266854,7937728,8363748,7939739,8365723,1408,2391,-60,669,776,621,708,1376,38,38,866
1267855,7938012,8363948,7939936,8365920,996,2415,-376,436,696,1028,2358,373,38,38,866
1268856,7938228,8364196,7940133,8366117,1413,2093,-640,510,669,932,1446,2872,38,49,868
1269857,7938428,8364424,7940330,8366314,1511,2205,-607,771,771,228,-1596,4389,38,49,868
1270858,7938668,8364600,7940527,8366511,1243,2539,-369,702,817,668,-1159,3309,49,34,870
1271859,7938916,8364784,7940724,8366708,1171,2495,-111,101,822,698,-537,3052,49,34,870
1272860,7939128,8365024,7940921,8366905,1389,2127,174,-607,868,783,-1015,3747,32,35,870
1273861,7939380,8365292,7941118,8367102,1116,1921,451,-1394,860,1730,-1615,3340,32,35,870
1274862,7939592,8365528,7941315,8367299,1360,2104,661,-1970,749,1636,154,3617,34,39,869
1275863,7939820,8365788,7941512,8367496,1246,1927,659,-2403,750,-168,369,2340,34,39,869
1276864,7940084,8365996,7941709,8367693,993,2247,476,-2454,788,57,420,3079,42,50,874
1277865,7940280,8366248,7941906,8367890,1418,1948,252,-2114,766,481,197,3900,42,50,874
1278866,7940480,8366496,7942103,8368087,1392,1952,20,-1632,789,-253,-531,3580,53,48,873
1279867,7940688,8366760,7942300,8368284,1338,1822,-82,-1051,762,1018,-161,5161,53,48,873
1280868,7940860,8366976,7942497,8368481,1574,2114,-61,-875,749,503,51,3324,50,53,871
1281869,7941048,8367224,7942694,8368678,1478,1892,-37,-1192,679,1105,694,1710,50,53,871
1282870,7941200,8367424,7942891,8368875,1724,2191,11,-1467,566,1121,-231,3750,29,47,873
1283871,7941412,8367636,7943088,8369072,1342,2110,91,-1324,419,683,-233,4632,29,47,873
1284872,7941584,8367876,7943285,8369269,1603,1916,75,-1103,276,187,-126,3427,23,54,872
1285873,7941736,8368104,7943482,8369466,1749,1978,52,-935,166,-309,852,3740,23,54,872
1286874,7941916,8368320,7943679,8369663,1581,2045,13,-1027,242,-1416,-274,2052,21,47,872
1287875,7942068,8368536,7943876,8369860,1776,2036,-37,-1092,442,-1064,-332,3150,21,47,872
1288876,7942232,8368756,7944073,8370057,1717,2001,-33,-925,656,28,-806,5223,39,35,871
1289877,7942388,8368948,7944270,8370254,1785,2179,-7,-696,767,1710,-559,4470,39,35,871
1290878,7942552,8369212,7944467,8370451,1749,1700,-37,-616,804,2662,480,3300,44,34,868
1291879,7942700,8369416,7944664,8370648,1872,2072,-71,-399,889,2756,-237,4885,44,34,868
1292880,7942860,8369616,7944861,8370845,1813,2096,5,-7,1003,2722,-1593,5881,23,45,868
1293881,7943036,8369804,7945058,8371042,1722,2176,134,280,1159,2199,-1008,5227,23,45,868
1294882,7943208,8369972,7945255,8371239,1759,2313,248,358,1353,2019,-539,4757,45,35,869
1295883,7943388,8370188,7945452,8371436,1717,2005,376,355,1593,1684,-2282,4376,45,35,869
1296884,7943552,8370372,7945649,8371633,1832,2211,548,309,1848,578,-1769,4244,23,31,869
1297885,7943716,8370540,7945846,8371830,1847,2324,716,261,1990,892,-167,4275,23,31,869
1298886,7943860,8370704,7946043,8372027,1995,2364,793,440,2068,1161,-860,5007,34,25,870
1299887,7944040,8370900,7946240,8372224,1778,2164,755,682,2082,1147,445,3858,34,25,870
1300888,7944192,8371056,7946437,8372421,1973,2432,593,798,2133,-306,-182,3145,27,26,867
1301889,7944348,8371232,7946634,8372618,1967,2318,496,1066,2136,-422,-157,5320,27,26,867
1302890,7944536,8371384,7946831,8372815,1771,2487,459,1492,2115,-620,-359,5441,42,26,867
1303891,7944708,8371572,7947028,8373012,1882,2266,349,1699,2082,116,547,3288,42,26,867
1304892,7944860,8371764,7947225,8373209,2028,2244,266,1793,2089,866,-902,3962,27,43,867
1305893,7945024,8371980,7947422,8373406,1967,2086,307,1725,2160,-167,-645,3707,27,43,867
1306894,7945164,8372220,7947619,8373603,2143,1917,420,1590,2276,-555,-175,3769,26,47,868
1307895,7945324,8372420,7947816,8373800,2035,2166,530,1460,2371,-186,-221,3850,26,47,868
1308896,7945480,8372648,7948013,8373997,2079,1978,608,1449,2453,582,-12,3670,35,36,869
1309897,7945616,8372880,7948210,8374194,2230,1938,669,1422,2585,656,174,4103,35,36,869
1310898,7945748,8373120,7948407,8374391,2285,1869,674,1415,2750,-355,-1132,4316,27,50,868
1311899,7945868,8373392,7948604,8374588,2394,1636,663,1472,2704,-345,-873,4855,27,50,868
1312900,7946028,8373668,7948801,8374785,2161,1576,646,1423,2508,-1462,624,4114,26,60,867
1313901,7946216,8374024,7948998,8374982,1990,1007,619,1260,2417,-1429,413,3714,26,60,867
1314902,7946412,8374252,7949195,8375179,1941,1794,612,1282,2407,-549,-383,5355,51,44,867
1315903,7946576,8374404,7949392,8375376,2156,2289,552,1406,2407,-395,51,4928,51,44,867
1316904,7946732,8374588,7949589,8375573,2225,2094,457,1369,2428,-1112,-569,3918,28,40,874
1317905,7946900,8374800,7949786,8375770,2163,1913,495,1259,2382,-640,341,5334,28,40,874
1318906,7947084,8375036,7949983,8375967,2069,1747,565,968,2332,-970,361,3815,35,31,866
1319907,7947236,8375292,7950180,8376164,2290,1596,637,575,2336,-1035,69,3844,35,31,866
1320908,7947380,8375564,7950377,8376361,2364,1463,788,499,2403,-705,-59,6163,37,39,868
1321909,7947548,8375760,7950574,8376558,2227,1938,880,362,2500,-1098,-37,2961,37,39,868
1322910,7947700,8376056,7950771,8376755,2347,1270,877,168,2568,-1040,-376,3128,45,49,868
1323911,7947840,8376412,7950968,8376952,2448,825,889,152,2497,-212,-821,4265,45,49,868
1324912,7947968,8376724,7951165,8377149,2553,1049,889,291,2412,-1082,-1084,4431,20,74,867
1325913,7948108,8377020,7951362,8377346,2504,1107,789,391,2345,-1079,-1043,3425,20,74,867
1326914,7948224,8377332,7951559,8377543,2691,956,626,505,2253,-394,-489,4173,25,67,871
1327915,7948360,8377660,7951756,8377740,2593,799,446,812,2113,307,-1001,4885,25,67,871
1328916,7948508,8377948,7951953,8377937,2540,1009,294,1031,1935,165,-211,4500,28,64,870
1329917,7948672,8378220,7952150,8378134,2456,1076,176,1068,1756,15,-309,4301,28,64,870
1330918,7948824,8378520,7952347,8378331,2551,855,122,1047,1620,-86,14,4759,40,52,871
1331919,7948964,8378816,7952544,8378528,2652,837,106,1022,1510,-416,236,5033,40,52,871
1332920,7949120,8379100,7952741,8378725,2571,874,63,883,1350,149,360,4393,40,48,871
1333921,7949292,8379380,7952938,8378922,2482,861,5,883,1165,1001,574,5224,40,48,871
1334922,7949444,8379672,7953135,8379119,2628,744,-108,903,1059,787,483,3796,29,46,869
1335923,7949588,8379956,7953332,8379316,2702,756,-248,980,1025,539,527,3907,29,46,869
1336924,7949756,8380232,7953529,8379513,2565,772,-331,1322,1046,142,507,5137,37,64,870
1337925,7949952,8380488,7953726,8379710,2391,871,-356,1660,1094,-265,-1376,4345,37,64,870
1338933,7950096,8380700,7953956,8379940,2755,1154,-277,1884,1029,981,-1552,5142,43,53,870
1339927,7950276,8380884,7954153,8380137,2538,1334,-177,1947,852,1132,-995,4642,43,53,870
1340928,7950468,8381088,7954350,8380334,2465,1206,-90,1794,695,675,-1262,4042,35,32,872
1341929,7950628,8381300,7954547,8380531,2683,1149,2,1433,462,61,265,4018,35,32,872
1342930,7950788,8381516,7954744,8380728,2700,1115,33,791,103,-1073,409,3534,32,46,869
1343931,7950964,8381708,7954941,8380925,2610,1267,36,170,-361,-1284,460,5547,32,46,869
1344932,7951108,8381916,7955138,8381122,2833,1163,-10,-192,-871,-858,796,5832,39,46,868
1345933,7951240,8382136,7955335,8381319,2938,1077,-207,-267,-1258,-751,-213,5647,39,46,868
1346934,7951408,8382308,7955532,8381516,2727,1388,-480,105,-1522,-62,-733,7284,41,31,867
1347935,7951560,8382516,7955729,8381713,2848,1159,-761,761,-1720,230,-239,6924,41,31,867
1348936,7951684,8382756,7955926,8381910,3055,939,-1006,1292,-1844,219,429,5598,23,49,867
1349937,7951816,8382984,7956123,8382107,3034,1000,-1066,1544,-1880,616,-1269,6353,23,49,867
1350938,7951976,8383212,7956320,8382304,2876,986,-902,1387,-1904,1319,-2032,5675,34,51,867
1351939,7952112,8383448,7956517,8382501,3054,919,-626,642,-1922,1148,-1205,3800,34,51,867
1352940,7952272,8383652,7956714,8382698,2922,1116,-370,-354,-1973,1839,-2300,3483,43,36,865
1353941,7952456,8383876,7956911,8382895,2778,979,-156,-895,-2004,1842,-1752,5175,43,36,865
1354942,7952628,8384084,7957108,8383092,2864,1074,-100,-1073,-1990,699,-1327,3610,47,49,865
1355943,7952792,8384280,7957305,8383289,2930,1149,-162,-774,-2099,1138,-178,5006,47,49,865
1356944,7953000,8384500,7957502,8383486,2651,989,-298,-62,-2119,-358,-1287,5941,37,49,867
1357945,7953172,8384688,7957699,8383683,2888,1193,-521,496,-2025,-1271,-642,3894,37,49,867
1358946,7953336,8384848,7957896,8383880,2953,1384,-672,698,-2039,-229,-383,4676,42,43,865
1359947,7953528,8384980,7958093,8384077,2782,1587,-660,636,-2168,-80,-1178,5201,42,43,865
1360948,7953700,8385100,7958290,8384274,2919,1696,-560,212,-2319,-18,-827,4036,45,35,867
1361949,7953872,8385260,7958487,8384471,2930,1462,-434,-319,-2460,611,-849,4685,45,35,867
1362950,7954088,8385412,7958684,8384668,2647,1532,-356,-694,-2555,1145,-1128,4568,36,34,866
1363951,7954276,8385540,7958881,8384865,2827,1712,-379,-742,-2589,1518,-778,4596,36,34,866
