"Data file recorded 2014/9/24  13:41:17"
"%  Right Stride Frequency         = 2.0"
"%  Left Stride Frequency         = 2.0"
"%  Phase (Fractional)         = 32768.0"
"%  Experiment.py "
"%  Motor Gains    = [1800, 200, 100, 0, 0, 1800, 200, 100, 0, 0]
"% Columns: "
"% time | Right Leg Pos | Left Leg Pos | Commanded Right Leg Pos | Commanded Left Leg Pos | DCR | DCL | GyroX | GryoY | GryoZ | AX | AY | AZ | RBEMF | LBEMF | VBatt "
11119,16131812,17626656,16142089,17616649,3800,-3800,-364,-573,362,296,-439,4072,9,8,835
12119,16131836,17626664,16142220,17616780,3800,-3800,-361,-572,363,281,-449,4084,9,8,835
13120,16131860,17626636,16142351,17616911,3800,-3800,-362,-566,362,302,-445,4104,7,0,835
14121,16132008,17626620,16142482,17617042,3800,-3800,-364,-558,363,295,-420,4092,7,0,835
15097,16132200,17626468,16142613,17617173,3520,-3006,-365,-567,363,348,-547,4095,6,-32,802
16098,16132452,17626284,16142744,17617304,3093,-2670,-368,-567,390,407,-813,3990,6,-32,802
17099,16132772,17626124,16142875,17617435,2587,-2693,-373,-619,399,411,-239,3940,31,-48,803
18100,16133116,17625916,16143006,17617566,2346,-2246,-371,-601,409,455,-477,4133,31,-48,803
19101,16133452,17625708,16143137,17617697,2308,-2099,-355,-575,433,425,-514,4094,60,-35,813
20102,16133832,17625516,16143268,17617828,1925,-2058,-333,-553,468,509,-499,4086,60,-35,813
21103,16134196,17625336,16143399,17617959,1925,-1998,-292,-581,509,854,-563,3821,68,-32,819
22104,16134560,17625200,16143530,17618090,1824,-2157,-244,-696,540,1367,-410,3510,68,-32,819
23105,16135000,17625056,16143661,17618221,1215,-1987,-204,-888,527,1849,380,3288,82,-29,822
24106,16135384,17624964,16143792,17618352,1455,-2216,-199,-1076,467,2197,437,3158,82,-29,822
25107,16135756,17624880,16143923,17618483,1427,-2173,-174,-1181,361,2162,743,3384,75,-18,822
26108,16136100,17624784,16144054,17618614,1509,-1999,-154,-1054,260,1616,-289,4266,75,-18,822
27109,16136548,17624712,16144185,17618745,722,-2061,-152,-902,151,1268,-1095,4259,75,-14,822
28110,16136896,17624660,16144316,17618876,1252,-2107,-186,-569,10,1142,-731,4814,75,-14,822
29111,16137196,17624612,16144447,17619007,1479,-2055,-254,-101,-133,842,-216,5062,74,-12,824
30112,16137476,17624568,16144578,17619138,1540,-2004,-321,352,-276,559,-213,4929,74,-12,824
31113,16137700,17624532,16144709,17619269,1851,-1981,-387,765,-389,248,-486,4902,56,-13,824
32114,16137872,17624500,16144840,17619400,2160,-1936,-436,1127,-438,41,-687,4762,56,-13,824
33115,16138140,17624468,16144971,17619531,1500,-1865,-497,1380,-459,-67,-826,4356,35,-10,823
34116,16138360,17624456,16145102,17619662,1762,-1928,-552,1470,-441,-321,-1211,4014,35,-10,823
35117,16138572,17624448,16145233,17619793,1778,-1893,-614,1479,-431,-521,-762,3733,34,-1,821
36118,16138804,17624448,16145364,17619924,1610,-1887,-676,1440,-447,-430,-544,3420,34,-1,821
37119,16138976,17624436,16145495,17620055,1968,-1749,-735,1385,-453,-515,-444,3402,48,-2,822
38120,16139148,17624436,16145626,17620186,1951,-1767,-782,1325,-418,-713,-790,3439,48,-2,822
39121,16139316,17624420,16145757,17620317,1961,-1604,-812,1193,-364,-845,-993,3201,42,5,823
40122,16139492,17624420,16145888,17620448,1893,-1647,-828,1048,-305,-1019,-937,3262,42,5,823
41123,16139636,17624428,16146019,17620579,2089,-1644,-849,985,-250,-1169,-910,3528,39,-6,822
42124,16139784,17624436,16146150,17620710,2057,-1590,-874,947,-209,-1419,-961,3673,39,-6,822
43125,16139900,17624432,16146281,17620841,2265,-1457,-878,983,-175,-1579,-877,3986,29,4,823
44126,16139988,17624412,16146412,17620972,2461,-1291,-860,1091,-168,-1609,-477,4169,29,4,823
45127,16140088,17624412,16146543,17621103,2400,-1359,-848,1232,-187,-1643,-146,4307,17,6,822
46128,16140180,17624412,16146674,17621234,2468,-1302,-873,1382,-212,-1814,119,4578,17,6,822
47129,16140272,17624408,16146805,17621365,2486,-1219,-917,1536,-235,-1830,210,4431,15,3,821
48130,16140372,17624408,16146936,17621496,2451,-1186,-968,1651,-249,-1735,241,4504,15,3,821
49131,16140448,17624416,16147067,17621627,2627,-1183,-1004,1801,-254,-1799,224,4455,20,-6,820
50132,16140524,17624420,16147198,17621758,2652,-1102,-1032,1854,-270,-1805,160,4316,20,-6,820
51133,16140588,17624416,16147329,17621889,2758,-994,-1062,1868,-290,-1678,169,4395,17,-7,822
52134,16140684,17624432,16147460,17622020,2575,-1068,-1101,1873,-295,-1528,255,4349,17,-7,822
53135,16140760,17624408,16147591,17622151,2725,-751,-1142,1785,-304,-1343,169,4109,24,2,821
54136,16140828,17624416,16147722,17622282,2804,-897,-1087,1661,-309,-1217,-63,4610,24,2,821
55137,16140924,17624416,16147853,17622413,2645,-791,-806,1806,-304,-675,-282,7672,20,-1,822
56138,16141012,17624408,16147984,17622544,2716,-680,-379,2144,-333,49,-220,8102,20,-1,822
57139,16141092,17624420,16148115,17622675,2790,-752,-144,2043,-376,-200,-259,4524,6,-1,821
58140,16141200,17624408,16148246,17622806,2626,-541,-143,1499,-412,-158,-613,3142,6,-1,821
59141,16141292,17624424,16148377,17622937,2745,-665,-249,836,-441,191,-890,3003,11,4,821
60142,16141384,17624412,16148508,17623068,2763,-427,-340,286,-453,453,-909,3214,11,4,821
61143,16141484,17624416,16148639,17623199,2729,-472,-382,-136,-444,644,-918,3388,28,9,823
62144,16141588,17624424,16148770,17623330,2717,-443,-375,-481,-405,856,-991,3749,28,9,823
63145,16141684,17624420,16148901,17623461,2783,-309,-309,-663,-330,1164,-1065,4901,32,-2,823
64146,16141800,17624404,16149032,17623592,2667,-169,-188,-636,-254,1444,-852,5765,32,-2,823
65147,16141896,17624412,16149163,17623723,2808,-265,-84,-608,-198,1396,-565,5292,32,-5,823
66148,16142016,17624428,16149294,17623854,2664,-265,-53,-646,-164,1223,-137,4732,32,-5,823
67149,16142124,17624420,16149425,17623985,2751,-55,-60,-729,-162,1198,282,4508,31,-5,823
68150,16142224,17624424,16149556,17624116,2816,-74,-65,-734,-170,1223,78,4787,31,-5,823
69151,16142332,17624436,16149687,17624247,2778,-72,-40,-606,-155,1117,-480,5012,31,0,823
70152,16142420,17624444,16149818,17624378,2923,7,4,-431,-140,1017,-702,5138,31,0,823
71153,16142536,17624460,16149949,17624509,2755,8,52,-218,-138,1005,-660,5179,31,6,822
72154,16142632,17624476,16150080,17624640,2898,59,104,-14,-134,1060,-808,5112,31,6,822
73154,16142728,17624476,16150211,17624771,2914,216,164,145,-122,990,-1046,4894,32,-2,822
74156,16142824,17624476,16150342,17624902,2931,274,227,189,-108,812,-837,4526,32,-2,822
75157,16142900,17624492,16150473,17625033,3081,224,290,143,-106,731,-591,4255,14,12,822
76158,16142960,17624500,16150604,17625164,3214,329,347,29,-107,665,-318,3973,14,12,822
77159,16143036,17624528,16150735,17625295,3140,250,386,-89,-98,462,-39,3888,14,8,821
78160,16143104,17624544,16150866,17625426,3219,375,413,-233,-72,231,229,3785,14,8,821
79161,16143180,17624552,16150997,17625557,3195,479,433,-395,-49,22,325,3609,7,13,820
80162,16143256,17624580,16151128,17625688,3220,399,444,-549,-34,-168,122,3609,7,13,820
81162,16143316,17624608,16151259,17625819,3353,445,452,-651,-4,-302,-501,3668,3,0,819
82164,16143388,17624624,16151390,17625950,3305,571,458,-763,62,-370,-1387,3705,3,0,819
83165,16143472,17624628,16151521,17626081,3253,702,459,-804,162,-411,-1765,3728,24,2,819
84166,16143556,17624636,16151652,17626212,3274,731,456,-925,263,-415,-1612,3445,24,2,819
85166,16143648,17624704,16151783,17626343,3243,384,436,-1075,347,-325,-1511,3368,25,17,818
86168,16143756,17624740,16151914,17626474,3156,627,398,-1290,441,-172,-1445,3167,25,17,818
87169,16143868,17624768,16152045,17626605,3140,722,354,-1549,552,-34,-1109,3018,31,19,818
88170,16143984,17624800,16152176,17626736,3124,740,314,-1846,662,80,-1007,3011,31,19,818
89170,16144152,17624816,16152307,17626867,2783,892,277,-2039,759,138,-1626,3266,37,11,819
90172,16144308,17624832,16152438,17626998,2849,942,250,-2144,846,331,-2203,3658,37,11,819
91173,16144460,17624836,16152569,17627129,2866,1074,230,-2072,924,554,-2240,4075,26,7,819
92174,16144632,17624844,16152700,17627260,2725,1103,213,-1913,997,890,-1969,4395,26,7,819
93175,16144788,17624872,16152831,17627391,2815,1023,202,-1560,1053,1619,-678,4320,33,23,819
94176,16144944,17624912,16152962,17627522,2806,989,197,-1466,1034,1915,-211,4266,33,23,819
95177,16145080,17624972,16153093,17627653,2930,896,194,-1377,1000,2251,91,4234,20,24,821
96178,16145264,17625016,16153224,17627784,2609,1035,199,-1361,928,2503,393,4006,20,24,821
97179,16145400,17625084,16153355,17627915,2908,914,210,-1322,810,2723,289,4136,23,20,821
98180,16145540,17625116,16153486,17628046,2880,1182,223,-1236,695,2864,26,4302,23,20,821
99181,16145656,17625140,16153617,17628177,3039,1280,228,-1033,572,2829,18,4565,29,14,821
100182,16145776,17625164,16153748,17628308,3020,1327,224,-728,426,2679,-59,4754,29,14,821
101182,16145892,17625208,16153879,17628439,3053,1241,211,-339,271,2518,74,4932,35,2,819
102183,16146008,17625228,16154010,17628570,3061,1440,184,12,94,2254,668,4822,35,2,819
103185,16146096,17625244,16154141,17628701,3257,1517,124,310,-109,2063,1139,4588,14,5,817
104186,16146200,17625284,16154272,17628832,3170,1408,64,516,-315,1860,1231,4444,14,5,817
105187,16146276,17625328,16154403,17628963,3371,1421,23,703,-506,1623,1125,4284,30,16,817
106188,16146352,17625364,16154534,17629094,3396,1514,-5,883,-683,1385,1001,4192,30,16,817
107189,16146428,17625408,16154665,17629225,3422,1503,-29,1049,-861,1098,1026,4008,16,11,817
108190,16146504,17625424,16154796,17629356,3447,1728,-39,1083,-1045,811,956,3740,16,11,817
109191,16146560,17625444,16154927,17629487,3607,1753,-39,1102,-1196,511,582,3573,20,17,814
110192,16146628,17625488,16155058,17629618,3562,1642,-32,1050,-1288,182,113,3343,20,17,814
111193,16146672,17625544,16155189,17629749,3751,1601,-37,971,-1327,-102,-277,3108,21,15,813
112194,16146768,17625564,16155320,17629880,3444,1876,-63,855,-1331,-351,-446,2905,21,15,813
113195,16146884,17625596,16155451,17630011,3326,1845,-103,684,-1275,-411,-676,2801,5,5,811
114196,16146992,17625628,16155582,17630142,3388,1889,-139,408,-1157,-373,-833,2739,5,5,811
115197,16147104,17625700,16155713,17630273,3374,1666,-165,181,-1010,-351,-1889,2970,12,6,812
116198,16147232,17625768,16155844,17630404,3276,1720,-180,142,-853,-699,-2574,3453,12,6,812
117199,16147368,17625864,16155975,17630535,3226,1561,-183,194,-722,-1121,-2444,3535,26,24,813
118200,16147516,17625916,16156106,17630666,3145,1872,-220,347,-628,-1188,-1995,4023,26,24,813
119201,16147640,17625964,16156237,17630797,3299,1934,-267,561,-531,-1150,-1179,4046,28,16,815
120202,16147744,17626036,16156368,17630928,3438,1811,-294,693,-436,-1143,-585,3845,28,16,815
121203,16147860,17626144,16156499,17631059,3372,1597,-294,710,-346,-1189,-305,3645,15,21,815
122204,16147976,17626216,16156630,17631190,3380,1848,-271,679,-261,-1164,108,3559,15,21,815
123205,16148072,17626288,16156761,17631321,3522,1875,-241,688,-190,-930,352,3641,12,25,813
124206,16148188,17626372,16156892,17631452,3405,1822,-210,607,-126,-857,361,3389,12,25,813
125207,16148304,17626440,16157023,17631583,3413,1951,-189,476,-51,-794,-80,3337,19,26,812
126208,16148408,17626520,16157154,17631714,3502,1899,-163,323,38,-656,-349,3281,19,26,812
127209,16148528,17626616,16157285,17631845,3408,1815,-126,172,137,-563,-560,3355,21,24,814
128210,16148636,17626712,16157416,17631976,3495,1832,-93,94,224,-587,-619,3560,21,24,814
129211,16148748,17626748,16157547,17632107,3480,2250,-60,-8,286,-642,-741,3518,31,16,812
130212,16148848,17626780,16157678,17632238,3570,2319,-22,-81,338,-542,-960,3692,31,16,812
131213,16148960,17626832,16157809,17632369,3505,2230,9,-109,377,-474,-932,3733,32,21,813
132214,16149068,17626892,16157940,17632500,3542,2212,8,-105,399,-483,-609,3809,32,21,813
133215,16149152,17626960,16158071,17632631,3715,2191,-35,-105,418,-481,-336,3948,13,6,810
134216,16149268,17626996,16158202,17632762,3523,2434,-104,-141,431,-381,-86,3741,13,6,810
135236,16149372,17626992,16158342,17632902,3800,3430,-189,-216,413,-237,108,3606,11,13,809
136231,16149472,17627052,16158473,17633033,3800,3062,-277,-377,363,-219,302,3422,11,13,809
137231,16149600,17627120,16158604,17633164,3800,3041,-368,-603,289,-113,347,3295,25,10,809
138233,16149720,17627212,16158735,17633295,3800,2909,-459,-803,221,45,-72,3328,25,10,809
139234,16149848,17627288,16158866,17633426,3800,3034,-543,-1040,167,122,-200,3252,40,22,805
140234,16150000,17627324,16158997,17633557,3800,3327,-617,-1321,90,72,226,3234,40,22,805
141235,16150152,17627416,16159128,17633688,3800,2996,-682,-1549,-22,41,764,3305,20,11,805
142236,16150304,17627496,16159259,17633819,3800,3094,-731,-1696,-142,153,1039,3684,20,11,805
143238,16150424,17627604,16159390,17633950,3800,2930,-757,-1755,-269,147,1129,3841,25,24,804
144239,16150600,17627712,16159521,17634081,3800,2941,-757,-1825,-415,65,1022,3801,25,24,804
145239,16150724,17627804,16159652,17634212,3800,3060,-750,-1846,-562,70,631,3972,23,14,805
146240,16150864,17627812,16159783,17634343,3800,3641,-750,-1885,-683,211,-39,4110,23,14,805
147228,16151048,17627908,16159914,17634474,3771,3107,-768,-1870,-767,218,-477,4362,43,15,804
148242,16151172,17627996,16160045,17634605,3800,3177,-795,-1821,-854,194,-171,4509,43,15,804
149243,16151316,17628108,16160176,17634736,3800,3036,-744,-1657,-955,241,-88,5459,44,33,802
150244,16151460,17628208,16160307,17634867,3800,3127,-187,-495,-1084,989,-71,14241,44,33,802
151245,16151596,17628264,16160438,17634998,3800,3436,504,750,-1256,867,319,10785,42,16,804
152246,16151732,17628300,16160569,17635129,3800,3604,677,826,-1416,381,558,3721,42,16,804
153247,16151872,17628392,16160700,17635260,3800,3272,501,165,-1551,520,732,2927,25,16,804
154248,16152000,17628504,16160831,17635391,3800,3157,297,-662,-1657,708,429,2440,25,16,804
155249,16152132,17628636,16160962,17635522,3800,3033,170,-1253,-1681,752,-53,2770,26,30,801
156250,16152252,17628736,16161093,17635653,3800,3247,83,-1702,-1641,749,-211,2896,26,30,801
157238,16152440,17628780,16161224,17635784,3727,3637,11,-2006,-1590,762,-300,3181,28,31,803
158252,16152576,17628880,16161355,17635915,3800,3302,-26,-2276,-1555,548,-126,3321,28,31,803
159253,16152728,17629016,16161486,17636046,3800,3076,-35,-2549,-1543,345,14,3698,30,33,803
160242,16152908,17629156,16161617,17636177,3749,3049,-19,-2655,-1545,243,305,4405,30,33,803
161243,16153080,17629324,16161748,17636308,3783,2859,47,-2484,-1506,134,217,5603,38,35,804
162244,16153260,17629484,16161879,17636439,3713,2897,179,-2022,-1418,-63,86,6988,38,35,804
163244,16153436,17629592,16162010,17636570,3719,3234,340,-1375,-1302,-251,-13,7944,34,28,805
164246,16153620,17629700,16162141,17636701,3648,3245,418,-904,-1234,-311,147,5934,34,28,805
165259,16153764,17629852,16162272,17636832,3800,2962,381,-719,-1218,-294,3,5075,45,34,807
166260,16153912,17629996,16162403,17636963,3800,3008,288,-753,-1206,-385,71,4547,45,34,807
167248,16154092,17630172,16162534,17637094,3643,2789,190,-797,-1157,-417,93,4438,28,36,805
168250,16154264,17630344,16162665,17637225,3676,2797,115,-789,-1074,-312,246,4250,28,36,805
169263,16154388,17630452,16162796,17637356,3800,3209,64,-865,-993,-263,601,4017,43,35,804
170252,16154548,17630588,16162927,17637487,3746,3033,17,-977,-935,-230,1067,3856,43,35,804
171253,16154712,17630724,16163058,17637618,3707,3032,-48,-1154,-866,-120,1019,3662,22,38,807
172267,16154828,17630868,16163189,17637749,3800,2978,-130,-1407,-753,44,611,3524,22,38,807
173255,16154996,17631052,16163320,17637880,3676,2706,-195,-1774,-603,172,16,3317,37,27,806
174268,16155136,17631216,16163451,17638011,3800,2818,-236,-2102,-452,142,-347,3450,37,27,806
175269,16155272,17631348,16163582,17638142,3800,3019,-279,-2291,-325,129,-41,3856,43,44,806
176270,16155404,17631508,16163713,17638273,3800,2832,-346,-2400,-238,152,645,4234,43,44,806
177259,16155564,17631648,16163844,17638404,3713,2954,-432,-2402,-188,219,1206,4563,34,40,807
178273,16155692,17631832,16163975,17638535,3800,2657,-497,-2310,-160,325,1315,5096,34,40,807
179273,16155824,17632024,16164106,17638666,3800,2582,-447,-2159,-162,500,1557,5980,18,47,805
180262,16155980,17632216,16164237,17638797,3732,2557,-267,-1890,-186,759,1682,7359,18,47,805
181275,16156124,17632332,16164368,17638928,3800,3039,-123,-1669,-184,819,974,6334,23,47,806
182276,16156220,17632472,16164499,17639059,3800,2886,-118,-1794,-171,710,711,4319,23,47,806
183265,16156396,17632652,16164630,17639190,3602,2617,-216,-2139,-182,698,991,3811,19,41,808
184266,16156552,17632844,16164761,17639321,3718,2516,-346,-2489,-210,750,1660,3790,19,41,808
185279,16156684,17633012,16164892,17639452,3800,2651,-457,-2673,-235,889,2007,3939,34,26,804
186268,16156848,17633172,16165023,17639583,3656,2689,-505,-2834,-221,934,1681,3906,34,26,804
187269,16157068,17633280,16165154,17639714,3268,3026,-489,-3058,-187,935,1026,3837,26,23,808
188283,16157200,17633404,16165285,17639845,3800,2930,-456,-3273,-163,954,390,3907,26,23,808
189271,16157352,17633544,16165416,17639976,3687,2827,-424,-3445,-164,840,81,3994,26,43,808
190271,16157556,17633780,16165547,17640107,3331,2182,-397,-3525,-192,803,-26,4277,26,43,808
191272,16157732,17633972,16165678,17640238,3488,2432,-375,-3529,-245,790,137,4306,44,49,805
192273,16157868,17634144,16165809,17640369,3737,2540,-351,-3486,-304,736,201,4504,44,49,805
193274,16158120,17634272,16165940,17640500,2961,2817,-312,-3481,-358,645,233,4412,25,36,812
194276,16158308,17634432,16166071,17640631,3337,2606,-266,-3506,-401,613,262,4334,25,36,812
195276,16158496,17634608,16166202,17640762,3314,2487,-211,-3458,-432,493,429,4362,42,39,809
196277,16158692,17634804,16166333,17640893,3236,2334,-141,-3464,-462,432,594,4138,42,39,809
197278,16158952,17634968,16166464,17641024,2781,2522,-50,-3494,-501,366,771,4164,32,30,811
198280,16159152,17635112,16166595,17641155,3127,2642,54,-3511,-528,299,885,4223,32,30,811
199280,16159368,17635224,16166726,17641286,2991,2851,170,-3444,-532,310,863,4248,52,27,812
200281,16159600,17635376,16166857,17641417,2849,2593,300,-3393,-513,253,539,4291,52,27,812
201282,16159776,17635540,16166988,17641548,3180,2505,457,-3329,-474,177,258,4319,51,24,811
202284,16159984,17635684,16167119,17641679,2947,2625,611,-3213,-452,32,327,4360,51,24,811
203285,16160224,17635820,16167250,17641810,2701,2675,749,-3064,-467,-173,810,4408,28,40,811
204286,16160432,17635948,16167381,17641941,2868,2727,847,-2866,-524,-350,1370,4502,28,40,811
205287,16160628,17636088,16167512,17642072,2917,2649,914,-2625,-614,-456,1752,4433,47,26,811
206288,16160860,17636272,16167643,17642203,2648,2352,963,-2398,-719,-550,1754,4310,47,26,811
207289,16161052,17636432,16167774,17642334,2873,2490,997,-2253,-792,-527,1068,4055,40,40,813
208289,16161220,17636592,16167905,17642465,3007,2478,1029,-2190,-784,-341,76,3864,40,40,813
209291,16161440,17636748,16168036,17642596,2645,2493,1043,-2182,-716,-206,-546,3602,48,27,815
210292,16161624,17636852,16168167,17642727,2848,2831,1039,-2181,-622,-184,-694,3497,48,27,815
211293,16161812,17636960,16168298,17642858,2799,2818,1019,-2188,-508,-158,-394,3506,44,34,813
212294,16162044,17637112,16168429,17642989,2480,2535,997,-2125,-370,30,-97,3695,44,34,813
213294,16162224,17637232,16168560,17643120,2786,2741,982,-2045,-211,289,410,3694,44,26,811
214296,16162412,17637376,16168691,17643251,2712,2586,967,-2021,-92,412,1294,3392,44,26,811
215296,16162644,17637488,16168822,17643382,2393,2796,945,-2059,-66,478,1946,3170,49,33,815
216297,16162860,17637584,16168953,17643513,2457,2912,867,-2007,-100,556,2103,3595,49,33,815
217298,16163056,17637724,16169084,17643644,2555,2634,722,-1921,-172,584,2424,3464,50,34,813
218300,16163252,17637836,16169215,17643775,2528,2818,549,-1907,-281,588,2030,3108,50,34,813
219301,16163504,17637956,16169346,17643906,2126,2775,362,-1960,-369,679,691,3127,45,19,814
220302,16163720,17638076,16169477,17644037,2314,2781,177,-2012,-403,641,-78,3148,45,19,814
221303,16163908,17638180,16169608,17644168,2465,2894,-7,-1961,-406,394,-534,3454,40,18,814
222304,16164128,17638268,16169739,17644299,2227,3014,-191,-1830,-397,69,-761,3661,40,18,814
223305,16164364,17638388,16169870,17644430,2082,2820,-350,-1668,-398,-196,-517,3740,32,18,814
224305,16164548,17638512,16170001,17644561,2385,2799,-486,-1496,-407,-403,-35,3839,32,18,814
225307,16164780,17638608,16170132,17644692,2041,2990,-574,-1291,-424,-474,729,3890,52,28,813
226308,16165028,17638740,16170263,17644823,1891,2767,-611,-1187,-426,-337,683,3613,52,28,813
227309,16165236,17638868,16170394,17644954,2108,2794,-609,-1176,-397,-150,37,3203,53,23,814
228310,16165440,17638980,16170525,17645085,2102,2903,-582,-1326,-338,-59,-272,2742,53,23,814
229310,16165676,17639100,16170656,17645216,1857,2859,-538,-1584,-247,-31,-380,2428,54,30,817
230312,16165896,17639196,16170787,17645347,1919,3026,-509,-1836,-97,-77,-623,2643,54,30,817
231312,16166092,17639320,16170918,17645478,2041,2855,-501,-1982,108,-193,-847,2821,34,13,815
232313,16166340,17639452,16171049,17645609,1666,2806,-492,-2085,327,-522,-1003,3012,34,13,815
233315,16166548,17639596,16171180,17645740,1883,2727,-475,-2059,540,-962,-1309,3507,46,33,815
234316,16166776,17639700,16171311,17645871,1716,2989,-467,-1886,758,-1241,-1690,4153,46,33,815
235317,16167020,17639828,16171442,17646002,1568,2842,-463,-1557,962,-1388,-1666,4566,38,18,816
236318,16167216,17639948,16171573,17646133,1839,2898,-436,-1153,1152,-1615,-1674,4643,38,18,816
237319,16167452,17640072,16171704,17646264,1544,2877,-378,-824,1342,-1900,-1836,4567,53,29,816
238320,16167648,17640208,16171835,17646395,1766,2801,-311,-553,1547,-1969,-1873,4670,53,29,816
239321,16167852,17640344,16171966,17646526,1685,2800,-255,-313,1761,-1875,-1632,4425,32,22,816
240322,16168064,17640460,16172097,17646657,1601,2933,-206,-218,1941,-1547,-1208,3856,32,22,816
241323,16168224,17640596,16172228,17646788,1913,2807,-163,-300,2085,-1328,-1103,3566,43,21,817
242324,16168408,17640696,16172359,17646919,1741,3046,-130,-400,2241,-1183,-1425,3618,43,21,817
243325,16168596,17640816,16172490,17647050,1692,2928,-107,-490,2404,-1113,-1624,3476,29,31,817
244326,16168784,17640952,16172621,17647181,1668,2827,-86,-640,2535,-1288,-1551,3383,29,31,817
245327,16168952,17641056,16172752,17647312,1776,3040,-84,-807,2636,-1310,-1386,3495,46,29,814
246328,16169144,17641148,16172883,17647443,1601,3133,-101,-958,2731,-1139,-1250,3509,46,29,814
247329,16169276,17641268,16173014,17647574,1976,2964,-140,-1116,2827,-1062,-1221,3682,46,29,816
248330,16169436,17641356,16173145,17647705,1788,3184,-177,-1236,2909,-1073,-1284,3833,46,29,816
249330,16169576,17641472,16173276,17647836,1910,3017,-208,-1337,2949,-1032,-1436,3907,40,26,814
250332,16169728,17641612,16173407,17647967,1827,2864,-243,-1399,2965,-859,-1588,4067,40,26,814
251333,16169832,17641708,16173538,17648098,2140,3156,-302,-1464,2952,-543,-1524,4223,19,26,815
252334,16169956,17641824,16173669,17648229,2018,3038,-376,-1522,2887,-275,-1338,4162,19,26,815
253335,16170044,17641932,16173800,17648360,2263,3100,-454,-1633,2774,-135,-1166,4149,18,27,816
254336,16170160,17642036,16173931,17648491,2096,3138,-542,-1773,2640,35,-1125,4147,18,27,816
255337,16170280,17642156,16174062,17648622,2076,3044,-642,-1908,2508,95,-1226,4222,35,13,814
256338,16170404,17642244,16174193,17648753,2055,3264,-745,-1950,2414,-70,-1577,4477,35,13,814
257338,16170516,17642336,16174324,17648884,2139,3257,-828,-2003,2353,-156,-1863,4549,35,26,812
258340,16170640,17642408,16174455,17649015,2068,3410,-877,-2059,2292,-94,-1762,4497,35,26,812
259341,16170728,17642484,16174586,17649146,2312,3410,-887,-2166,2204,80,-1524,4369,18,9,813
260349,16170804,17642600,16174726,17649286,2416,3172,-868,-2339,2114,356,-1455,4325,18,9,813
261343,16170900,17642672,16174857,17649417,2307,3475,-844,-2501,2046,695,-1401,4425,16,25,811
262344,16170984,17642748,16174988,17649548,2404,3475,-809,-2622,1991,982,-1222,4379,16,25,811
263345,16171052,17642824,16175119,17649679,2532,3500,-753,-2772,1910,1185,-982,4306,26,12,811
264346,16171140,17642912,16175250,17649810,2427,3445,-697,-2840,1805,1248,-1084,4598,26,12,811
265346,16171224,17643016,16175381,17649941,2473,3359,-662,-2830,1705,1329,-1257,4817,10,20,809
266348,16171304,17643120,16175512,17650072,2522,3372,-650,-2776,1614,1398,-1588,4951,10,20,809
267349,16171404,17643220,16175643,17650203,2410,3411,-639,-2691,1523,1331,-1710,5092,12,15,808
268350,16171484,17643292,16175774,17650334,2559,3614,-626,-2512,1425,1192,-1907,5357,12,15,808
269351,16171536,17643404,16175905,17650465,2769,3373,-604,-2294,1348,1087,-2193,5534,30,25,808
270352,16171628,17643504,16176036,17650596,2538,3463,-576,-2062,1307,1084,-2309,5553,30,25,808
271353,16171672,17643636,16176167,17650727,2877,3265,-517,-1854,1270,1224,-2153,5344,9,25,808
272354,16171692,17643752,16176298,17650858,3077,3372,-413,-1756,1210,1491,-1852,5047,9,25,808
273355,16171756,17643860,16176429,17650989,2831,3433,-279,-1739,1142,1751,-1751,4857,12,30,809
274356,16171788,17643956,16176560,17651120,3076,3526,-140,-1726,1088,1820,-1952,4750,12,30,809
275357,16171804,17644084,16176691,17651251,3227,3328,-1,-1677,1049,1832,-2102,4754,3,21,806
276358,16171836,17644216,16176822,17651382,3172,3305,158,-1617,1016,1907,-2079,4794,3,21,806
277359,16171892,17644364,16176953,17651513,3056,3198,338,-1534,988,2012,-1939,4819,3,40,805
278360,16171912,17644500,16177084,17651644,3330,3272,523,-1416,963,2052,-1710,4906,3,40,805
279360,16171924,17644652,16177215,17651775,3434,3165,694,-1221,942,2030,-1597,5052,4,29,805
280361,16171960,17644840,16177346,17651906,3326,2916,855,-1059,916,2067,-1571,5032,4,29,805
281362,16171952,17645036,16177477,17652037,3663,2838,1007,-839,895,2144,-1643,5104,-1,44,805
282364,16171948,17645216,16177608,17652168,3699,2919,1166,-600,880,2167,-1477,5035,-1,44,805
283365,16171984,17645424,16177739,17652299,3492,2711,1320,-371,867,2092,-1593,4950,11,48,807
284366,16171988,17645608,16177870,17652430,3748,2838,1450,-163,845,1941,-1468,4779,11,48,807
285367,16172000,17645816,16178001,17652561,3753,2657,1536,-28,816,1789,-1379,4643,-2,37,805
286368,16172020,17646040,16178132,17652692,3752,2517,1574,118,787,1682,-1354,4628,-2,37,805
287369,16172084,17646260,16178263,17652823,3508,2504,1589,257,742,1599,-1111,4443,4,39,805
288370,16172164,17646504,16178394,17652954,3431,2305,1617,389,707,1607,-1239,4400,4,39,805
289371,16172228,17646704,16178525,17653085,3562,2552,1662,507,676,1403,-1189,4244,26,37,806
290372,16172380,17646924,16178656,17653216,3004,2389,1696,664,617,991,-1055,4397,26,37,806
291373,16172544,17647152,16178787,17653347,2916,2297,1720,900,570,414,-1027,4334,32,48,809
292374,16172716,17647392,16178918,17653478,2849,2175,1781,938,511,238,-364,3487,32,48,809
293375,16172896,17647640,16179049,17653609,2778,2075,1873,881,424,495,228,3355,42,45,813
294376,16173120,17647864,16179180,17653740,2464,2186,1980,779,317,579,1030,2912,42,45,813
295377,16173320,17648076,16179311,17653871,2584,2226,2106,485,188,570,1703,2444,53,35,815
296378,16173488,17648288,16179442,17654002,2769,2192,2252,255,99,390,1935,2620,53,35,815
297378,16173676,17648504,16179573,17654133,2621,2130,2396,85,104,227,1932,2616,55,54,817
298380,16173820,17648740,16179704,17654264,2891,1960,2477,1,201,384,1486,2741,55,54,817
299381,16174008,17649020,16179835,17654395,2592,1621,2493,1,363,512,1416,2874,41,55,816
300382,16174224,17649232,16179966,17654526,2381,2011,2474,130,572,366,1422,3186,41,55,816
301383,16174416,17649432,16180097,17654657,2505,2057,2401,440,818,-89,827,3743,47,42,815
302384,16174576,17649600,16180228,17654788,2693,2241,2258,955,1127,-895,101,4467,47,42,815
303385,16174764,17649780,16180359,17654919,2494,2146,2079,1549,1411,-1057,-40,4259,36,43,818
304386,16174912,17650008,16180490,17655050,2738,1804,1931,1951,1599,-387,529,3446,36,43,818
305387,16175032,17650220,16180621,17655181,2919,1870,1802,2208,1748,384,998,3248,43,48,816
306388,16175224,17650392,16180752,17655312,2443,2103,1662,2360,1871,668,913,2945,43,48,816
307389,16175392,17650556,16180883,17655443,2578,2139,1523,2434,1979,402,471,2562,24,30,817
308390,16175564,17650708,16181014,17655574,2536,2206,1392,2380,2042,38,1024,2149,24,30,817
309391,16175724,17650872,16181145,17655705,2599,2117,1225,2202,2046,-17,1706,1770,28,25,817
310392,16175848,17651024,16181276,17655836,2829,2184,1015,1999,2008,122,1816,1710,28,25,817
311393,16175948,17651160,16181407,17655967,2993,2282,790,1679,1930,544,1892,1265,40,25,815
312394,16176044,17651320,16181538,17656098,3035,2120,537,1285,1793,1289,1741,1047,40,25,815
313394,16176172,17651468,16181669,17656229,2837,2189,270,851,1646,1870,1439,786,23,25,814
314396,16176304,17651620,16181800,17656360,2813,2156,-6,378,1504,2124,1350,786,23,25,814
315397,16176464,17651768,16181931,17656491,2626,2174,-290,-60,1374,1984,1304,838,21,32,812
316398,16176664,17651896,16182062,17656622,2347,2301,-584,-492,1252,1833,1689,1004,21,32,812
317399,16176832,17652020,16182193,17656753,2531,2330,-897,-808,1104,1829,1872,1173,25,33,815
318400,16176996,17652160,16182324,17656884,2543,2227,-1216,-1091,952,1593,1297,1417,25,33,815
319401,16177160,17652304,16182455,17657015,2529,2198,-1542,-1244,803,1297,480,2124,50,37,817
320402,16177312,17652440,16182586,17657146,2596,2247,-1860,-1366,646,1408,256,2158,50,37,817
321403,16177436,17652636,16182717,17657277,2775,1844,-2155,-1407,458,1768,282,2295,24,27,815
322404,16177604,17652868,16182848,17657408,2485,1575,-2431,-1453,281,2069,550,2329,24,27,815
323405,16177760,17653044,16182979,17657539,2550,1906,-2692,-1428,154,2083,640,2724,22,39,815
324406,16177944,17653224,16183110,17657670,2353,1860,-2937,-1185,79,1759,589,3357,22,39,815
325406,16178136,17653420,16183241,17657801,2277,1733,-3127,-873,49,1452,660,3383,29,31,819
326408,16178312,17653624,16183372,17657932,2358,1652,-3262,-545,41,1300,743,3556,29,31,819
327408,16178468,17653808,16183503,17658063,2473,1754,-3347,-238,72,1303,779,3420,36,45,819
328410,16178628,17653988,16183634,17658194,2436,1758,-3381,-88,124,1550,959,3084,36,45,819
329410,16178760,17654180,16183765,17658325,2612,1657,-3365,61,159,1732,736,3076,22,30,820
330412,16178876,17654404,16183896,17658456,2720,1417,-3327,145,158,1501,284,2893,22,30,820
331413,16179040,17654616,16184027,17658587,2406,1458,-3286,252,125,1231,-234,3082,22,36,819
332414,16179176,17654852,16184158,17658718,2580,1262,-3238,383,88,828,-717,3152,22,36,819
333415,16179348,17655060,16184289,17658849,2337,1404,-3185,522,39,522,-925,3133,28,39,818
334416,16179532,17655252,16184420,17658980,2240,1478,-3102,715,-33,350,-1258,3338,28,39,818
335417,16179688,17655412,16184551,17659111,2405,1666,-2963,847,-109,175,-1552,3276,35,33,819
336418,16179800,17655612,16184682,17659242,2689,1386,-2786,982,-177,220,-1851,3379,35,33,819
337419,16179924,17655872,16184813,17659373,2618,955,-2569,1052,-251,389,-1615,3217,29,42,821
338420,16180052,17656080,16184944,17659504,2595,1247,-2306,1058,-354,355,-1446,2969,29,42,821
339421,16180152,17656288,16185075,17659635,2785,1213,-1995,996,-489,237,-1635,2939,16,40,819
340422,16180268,17656500,16185206,17659766,2693,1154,-1654,906,-624,273,-1611,2946,16,40,819
341423,16180404,17656656,16185337,17659897,2566,1494,-1321,866,-741,554,-1276,3110,35,33,819
342424,16180544,17656792,16185468,17660028,2538,1617,-1002,828,-866,708,-903,3058,35,33,819
343425,16180676,17656968,16185599,17660159,2589,1348,-690,739,-1011,718,-492,3092,24,42,819
344426,16180856,17657148,16185730,17660290,2268,1302,-410,690,-1157,660,-200,3406,24,42,819
345426,16181032,17657320,16185861,17660421,2275,1334,-170,703,-1272,571,-318,3720,40,42,818
346428,16181180,17657452,16185992,17660552,2443,1585,34,869,-1351,596,-376,4150,40,42,818
347428,16181340,17657580,16186123,17660683,2356,1611,245,1012,-1398,883,73,4160,40,21,821
348430,16181504,17657672,16186254,17660814,2317,1854,429,1139,-1462,1082,594,4224,40,21,821
349431,16181668,17657800,16186385,17660945,2303,1631,554,1369,-1554,1036,718,4504,34,14,819
350432,16181836,17657908,16186516,17661076,2263,1767,621,1647,-1659,899,655,4748,34,14,819
351433,16182008,17658016,16186647,17661207,2221,1778,650,1970,-1778,648,534,5141,44,26,819
352434,16182172,17658116,16186778,17661338,2258,1841,632,2354,-1889,347,296,5426,44,26,819
353435,16182388,17658188,16186909,17661469,1896,2043,541,2681,-2000,268,328,5377,28,16,819
354436,16182552,17658356,16187040,17661600,2208,1428,429,2883,-2105,320,565,5115,28,16,819
355437,16182732,17658500,16187171,17661731,2087,1572,304,2969,-2206,615,1023,4876,45,23,818
356438,16182904,17658660,16187302,17661862,2119,1461,170,2982,-2322,755,1293,4709,45,23,818
357438,16183060,17658788,16187433,17661993,2209,1662,36,2921,-2432,631,1461,4495,25,24,820
358440,16183228,17658924,16187564,17662124,2119,1611,-117,2726,-2534,527,1692,4280,25,24,820
359440,16183404,17659040,16187695,17662255,2050,1743,-302,2425,-2619,581,1850,3885,26,33,822
360442,16183592,17659156,16187826,17662386,1951,1750,-517,1980,-2658,562,1908,3667,26,33,822
361442,16183816,17659260,16187957,17662517,1686,1838,-749,1530,-2647,441,1911,3644,45,16,821
362444,16183980,17659372,16188088,17662648,2047,1796,-982,971,-2579,453,1703,3436,45,16,821
363445,16184180,17659480,16188219,17662779,1792,1832,-1211,441,-2445,764,1438,3564,49,26,821
364446,16184352,17659584,16188350,17662910,1950,1870,-1444,-14,-2269,1094,1051,4150,49,26,821
365447,16184512,17659700,16188481,17663041,2014,1802,-1708,-327,-2098,1410,593,5177,45,26,821
366448,16184712,17659844,16188612,17663172,1733,1622,-1915,-561,-1968,1414,660,5695,45,26,821
367449,16184924,17659964,16188743,17663303,1624,1778,-1969,-877,-1840,1137,209,5819,48,29,819
368449,16185124,17660096,16188874,17663434,1669,1702,-1885,-1226,-1724,809,220,6169,48,29,819
369451,16185296,17660220,16189005,17663565,1827,1756,-1752,-1513,-1658,822,272,6489,45,17,822
370452,16185476,17660372,16189136,17663696,1756,1573,-1643,-1762,-1628,870,201,6602,45,17,822
371453,16185652,17660496,16189267,17663827,1762,1751,-1556,-1933,-1594,747,276,6549,26,18,822
372454,16185832,17660636,16189398,17663958,1717,1648,-1457,-2155,-1571,586,371,6063,26,18,822
373455,16185992,17660736,16189529,17664089,1829,1912,-1337,-2400,-1560,238,326,5801,45,19,822
374456,16186196,17660856,16189660,17664220,1523,1793,-1221,-2576,-1544,-37,272,5733,45,19,822
375457,16186420,17661020,16189791,17664351,1358,1504,-1114,-2655,-1521,-294,-39,5520,33,36,823
376458,16186576,17661152,16189922,17664482,1772,1704,-1019,-2681,-1473,-487,-418,5239,33,36,823
377459,16186772,17661284,16190053,17664613,1494,1704,-916,-2737,-1415,-375,-456,5071,26,22,822
378460,16186920,17661412,16190184,17664744,1788,1732,-774,-2712,-1366,-93,-529,5270,26,22,822
379461,16187084,17661560,16190315,17664875,1673,1599,-580,-2663,-1301,-33,-699,5261,25,24,821
380461,16187268,17661688,16190446,17665006,1526,1727,-362,-2590,-1236,28,-816,5289,25,24,821
381463,16187464,17661828,16190577,17665137,1423,1648,-182,-2480,-1144,226,-927,5481,32,29,822
382464,16187648,17661932,16190708,17665268,1475,1886,-12,-2294,-1035,433,-775,5460,32,29,822
383465,16187820,17662036,16190839,17665399,1533,1898,166,-2083,-939,545,-1061,5437,28,30,823
384466,16187988,17662156,16190970,17665530,1542,1803,348,-1884,-831,700,-1380,5396,28,30,823
385474,16188140,17662276,16191110,17665670,1638,1813,506,-1689,-690,1015,-1692,5479,33,31,822
386468,16188300,17662376,16191241,17665801,1575,1953,635,-1461,-522,1190,-2036,5322,33,31,822
387469,16188464,17662468,16191372,17665932,1536,2020,678,-1134,-331,1144,-2440,5666,19,15,822
388470,16188596,17662572,16191503,17666063,1736,1958,628,-714,-139,1017,-2748,5816,19,15,822
389471,16188756,17662692,16191634,17666194,1549,1863,561,-346,25,1130,-2607,5418,27,27,821
390472,16188940,17662828,16191765,17666325,1377,1761,554,-119,118,1386,-1791,4857,27,27,821
391472,16189116,17662952,16191896,17666456,1407,1840,584,-34,142,1578,-1366,4668,20,16,821
392474,16189268,17663060,16192027,17666587,1549,1951,578,16,124,1717,-980,4764,41,28,823
393474,16189420,17663148,16192158,17666718,1540,2095,517,107,88,1839,-760,4698,41,28,823
394476,16189604,17663216,16192289,17666849,1317,2249,425,213,27,1883,-503,4554,43,13,822
395477,16189752,17663308,16192420,17666980,1535,2117,344,248,-73,1749,-193,4239,43,13,822
396477,16189916,17663412,16192551,17667111,1421,2054,283,169,-179,1657,-145,4039,39,19,822
397479,16190084,17663528,16192682,17667242,1380,1987,191,96,-258,1637,-216,4141,39,19,822
398480,16190236,17663608,16192813,17667373,1472,2235,67,35,-314,1442,-166,4142,29,9,820
399481,16190432,17663648,16192944,17667504,1168,2526,-35,-15,-382,1244,96,3957,29,9,820
400482,16190656,17663748,16193075,17667635,954,2165,-138,-81,-481,1072,221,4093,46,22,819
401483,16190840,17663796,16193206,17667766,1180,2527,-266,-84,-572,719,-17,4129,46,22,819
402484,16191028,17663872,16193337,17667897,1131,2377,-385,-51,-610,374,-315,4083,43,24,822
403485,16191204,17663964,16193468,17668028,1186,2295,-465,-52,-610,1,-406,4006,43,24,822
404486,16191396,17664012,16193599,17668159,1060,2607,-537,-7,-594,-178,-512,4348,25,7,821
405487,16191532,17664080,16193730,17668290,1408,2511,-595,103,-583,-324,-305,4343,25,7,821
406488,16191728,17664128,16193861,17668421,1005,2673,-592,137,-592,-641,-151,4057,43,21,820
407489,16191884,17664176,16193992,17668552,1245,2711,-517,89,-608,-944,-268,3787,43,21,820
408490,16192064,17664240,16194123,17668683,1073,2641,-443,65,-602,-826,-166,4017,20,10,820
409491,16192208,17664296,16194254,17668814,1293,2724,-392,139,-559,-679,-275,4058,20,10,820
410492,16192356,17664344,16194385,17668945,1261,2811,-326,214,-488,-687,-661,3831,35,10,818
411493,16192516,17664392,16194516,17669076,1173,2849,-234,202,-417,-815,-984,3718,35,10,818
412494,16192656,17664428,16194647,17669207,1295,2967,-149,189,-373,-749,-880,3708,19,22,818
413494,16192800,17664520,16194778,17669338,1265,2635,-88,194,-340,-696,-723,3660,19,22,818
414496,16192928,17664620,16194909,17669469,1366,2599,-30,268,-286,-691,-829,3716,26,26,817
415497,16193044,17664740,16195040,17669600,1449,2480,17,283,-215,-480,-602,3599,26,26,817
416497,16193184,17664868,16195171,17669731,1295,2433,26,302,-101,328,-428,3519,22,22,819
417498,16193284,17665020,16195302,17669862,1558,2274,42,206,-18,1082,527,2786,22,22,819
418500,16193392,17665136,16195433,17669993,1519,2507,37,-143,-15,1659,891,2280,30,40,820
419500,16193552,17665312,16195564,17670124,1182,2112,27,-517,-61,1983,674,2342,30,40,820
420502,16193648,17665488,16195695,17670255,1598,2093,13,-714,-133,2095,676,2644,26,40,819
421502,16193756,17665688,16195826,17670386,1533,1914,-45,-795,-296,2053,864,2948,26,40,819
422504,16193912,17665852,16195957,17670517,1222,2126,-127,-794,-588,1780,1052,3081,18,23,820
423504,16194024,17665992,16196088,17670648,1507,2273,-222,-836,-1008,1701,1391,3100,18,23,820
424505,16194128,17666156,16196219,17670779,1568,2109,-372,-908,-1525,1961,1108,2961,16,22,822
425506,16194284,17666284,16196350,17670910,1233,2336,-559,-1042,-2050,2244,119,2854,16,22,822
426508,16194392,17666396,16196481,17671041,1544,2446,-734,-1152,-2508,2446,-404,2831,16,17,821
427509,16194512,17666520,16196612,17671172,1473,2375,-886,-1264,-2861,2645,-697,2836,16,17,821
428510,16194672,17666616,16196743,17671303,1212,2565,-1033,-1344,-3122,2912,-624,2800,14,22,819
429510,16194792,17666752,16196874,17671434,1466,2314,-1184,-1452,-3329,3125,-448,2715,14,22,819
430512,16194912,17666860,16197005,17671565,1472,2500,-1309,-1663,-3505,3285,-262,2292,30,26,819
431513,16195044,17666956,16197136,17671696,1397,2592,-1366,-1975,-3576,3542,-264,2183,30,26,819
432514,16195180,17667076,16197267,17671827,1370,2447,-1384,-2211,-3471,3643,-339,2345,16,24,819
433515,16195316,17667192,16197398,17671958,1368,2480,-1487,-2297,-3046,3743,-1026,2787,16,24,819
434516,16195460,17667284,16197529,17672089,1313,2648,-1562,-2390,-2472,3409,-800,2264,36,25,819
435517,16195596,17667420,16197660,17672220,1362,2372,-1557,-2496,-2043,3196,428,2555,36,25,819
436518,16195752,17667552,16197791,17672351,1226,2397,-1507,-2576,-1829,2973,1370,2642,30,36,819
437518,16195884,17667676,16197922,17672482,1375,2452,-1489,-2453,-1767,2665,1950,3265,30,36,819
438520,16196032,17667828,16198053,17672613,1269,2268,-1542,-2140,-1775,2372,2397,3722,24,20,821
439521,16196196,17667952,16198184,17672744,1154,2446,-1659,-1713,-1816,2191,2635,3986,24,20,821
440522,16196360,17668080,16198315,17672875,1140,2424,-1817,-1246,-1879,1797,2654,4093,24,30,821
441522,16196520,17668244,16198446,17673006,1153,2185,-1993,-892,-1997,1312,2703,3606,24,30,821
442524,16196660,17668384,16198577,17673137,1274,2332,-2167,-770,-2213,851,2963,3077,26,21,820
443525,16196816,17668524,16198708,17673268,1164,2329,-2369,-764,-2516,422,3329,2767,26,21,820
444526,16196996,17668660,16198839,17673399,992,2353,-2614,-755,-2810,323,2997,2762,26,37,820
445527,16197156,17668816,16198970,17673530,1105,2218,-2881,-672,-2986,355,2372,2810,26,37,820
446528,16197296,17668980,16199101,17673661,1227,2155,-3120,-555,-3013,319,1822,2925,27,36,822
447529,16197440,17669136,16199232,17673792,1196,2195,-3289,-408,-2943,237,1609,2728,27,36,822
448530,16197640,17669280,16199363,17673923,816,2265,-3403,-412,-2838,101,1411,2309,29,36,822
449531,16197816,17669428,16199494,17674054,947,2232,-3504,-438,-2706,64,1079,2294,29,36,822
450532,16197920,17669576,16199625,17674185,1409,2226,-3597,-531,-2522,-11,438,2104,43,27,823
451533,16198060,17669736,16199756,17674316,1180,2139,-3695,-703,-2301,-224,-31,1898,43,27,823
452534,16198224,17669916,16199887,17674447,1016,1994,-3781,-923,-2067,-486,-131,1730,31,22,821
453535,16198388,17670040,16200018,17674578,1002,2348,-3860,-1140,-1834,-576,-303,1657,31,22,821
454536,16198524,17670200,16200149,17674709,1175,2111,-3932,-1398,-1612,-267,-391,1569,21,19,822
455537,16198648,17670344,16200280,17674840,1254,2206,-4002,-1761,-1417,326,-267,1418,21,19,822
456538,16198752,17670464,16200411,17674971,1391,2362,-4076,-2053,-1276,1097,-366,1434,33,22,822
457538,16198972,17670612,16200542,17675102,626,2180,-4157,-2297,-1175,1742,-632,1491,33,22,822
458539,16199176,17670764,16200673,17675233,694,2146,-4254,-2428,-1090,2035,-1206,2016,44,27,821
459541,16199352,17670888,16200804,17675364,851,2325,-4375,-2306,-974,1857,-1746,2806,44,27,821
460541,16199504,17671044,16200935,17675495,991,2116,-4577,-1870,-728,1182,-2860,3885,35,25,824
461542,16199652,17671196,16201066,17675626,1009,2132,-4733,-1432,-474,676,-2856,3756,35,25,824
462543,16199772,17671376,16201197,17675757,1190,1937,-4818,-838,-321,617,-2371,4608,18,27,823
463545,16199916,17671532,16201328,17675888,1034,2076,-4882,-147,-214,664,-2523,4973,18,27,823
464546,16200044,17671672,16201459,17676019,1135,2173,-4953,651,-103,615,-2694,5204,40,25,823
465547,16200164,17671812,16201590,17676150,1190,2170,-5002,1355,65,352,-3156,5263,40,25,823
466548,16200296,17671972,16201721,17676281,1116,2033,-5096,2070,326,309,-3940,5579,18,36,821
467549,16200452,17672160,16201852,17676412,955,1834,-5157,2673,575,311,-3642,5084,18,36,821
468550,16200588,17672324,16201983,17676543,1078,1971,-5091,3055,722,189,-3239,4670,35,24,823
469550,16200744,17672504,16202114,17676674,942,1849,-4967,3286,801,151,-3456,4710,35,24,823
470552,16200864,17672652,16202245,17676805,1172,2043,-4848,3420,859,158,-3645,4532,33,23,823
471553,16200964,17672808,16202376,17676936,1311,1983,-4733,3630,922,86,-3863,4649,33,23,823
472554,16201104,17672968,16202507,17677067,1057,1946,-4604,3702,988,-34,-4013,4351,33,36,823
473554,16201208,17673152,16202638,17677198,1295,1774,-3596,4772,1182,-485,-5277,14742,33,36,823
474556,16201312,17673272,16202769,17677329,1307,2178,-566,10380,1833,-2122,-7689,32767,31,26,824
475557,16201444,17673396,16202900,17677460,1131,2157,1680,13242,2162,27,-2670,9888,31,26,824
476558,16201564,17673532,16203031,17677591,1211,2081,2048,12364,2062,422,-992,774,33,26,821
477559,16201692,17673628,16203162,17677722,1163,2348,1536,9613,1850,503,-919,-1172,33,26,821
478560,16201824,17673756,16203293,17677853,1138,2149,1180,7382,1658,593,-444,-601,24,32,822
479561,16201952,17673896,16203424,17677984,1164,2071,986,5902,1534,-81,458,-174,24,32,822
480561,16202084,17674004,16203555,17678115,1139,2282,865,4512,1388,-91,101,-323,17,23,822
481562,16202196,17674120,16203686,17678246,1273,2240,676,3215,1187,-308,-1169,442,17,23,822
482564,16202296,17674220,16203817,17678377,1362,2354,466,1932,1016,-957,-1887,885,11,25,822
483565,16202380,17674320,16203948,17678508,1483,2368,103,1004,805,-1248,-2169,2102,11,25,822
484566,16202472,17674424,16204079,17678639,1451,2356,-406,355,668,-2335,-2051,3057,24,21,820
485566,16202552,17674516,16204210,17678770,1548,2449,-362,-135,714,-4019,-2214,7152,24,21,820
486567,16202632,17674600,16204341,17678901,1571,2521,1106,-349,1031,-6390,-3492,20410,29,17,819
487569,16202728,17674684,16204472,17679032,1487,2542,2577,-464,1454,-5805,-3133,13964,29,17,819
488570,16202832,17674784,16204603,17679163,1449,2456,2642,-754,1735,-4452,-2210,4521,8,20,817
489570,16202896,17674884,16204734,17679294,1728,2470,1944,-1301,1868,-4279,-1921,3128,8,20,817
490572,16203000,17675004,16204865,17679425,1491,2351,1275,-1746,2051,-4119,-2080,3982,13,14,819
491573,16203060,17675052,16204996,17679556,1797,2839,861,-1887,2391,-3698,-1989,4490,13,14,819
492573,16203136,17675140,16205127,17679687,1721,2609,673,-2142,2686,-3501,-1250,3965,29,9,819
493574,16203232,17675248,16205258,17679818,1613,2495,683,-2403,2809,-3612,-586,4009,29,9,819
494575,16203308,17675352,16205389,17679949,1762,2532,795,-2803,2848,-3173,-200,3589,30,12,816
495577,16203380,17675464,16205520,17680080,1813,2491,932,-3267,2910,-2546,-229,3538,30,12,816
496578,16203440,17675592,16205651,17680211,1920,2393,1050,-3639,3109,-2192,-234,3719,31,32,818
497579,16203560,17675712,16205782,17680342,1550,2449,1168,-3935,3439,-1782,-719,3723,31,32,818
498580,16203664,17675820,16205913,17680473,1663,2535,1311,-4260,3813,-1510,-1098,3708,31,33,816
499581,16203752,17675948,16206044,17680604,1782,2413,1487,-4558,4149,-1439,-1042,3707,31,33,816
500582,16203840,17676080,16206175,17680735,1802,2388,1672,-4923,4336,-1214,-845,3430,25,31,817
501583,16203912,17676216,16206306,17680866,1928,2362,1857,-5212,4353,-1130,-793,3768,25,31,817
502584,16204008,17676332,16206437,17680997,1793,2495,2050,-5291,4304,-1066,-858,4325,28,24,818
503584,16204088,17676456,16206568,17681128,1916,2448,2245,-5259,4251,-723,-955,4414,28,24,818
504586,16204164,17676600,16206699,17681259,1966,2318,2437,-5159,4189,-493,-579,4629,19,33,818
505586,16204224,17676700,16206830,17681390,2098,2608,2588,-4965,4095,-345,-145,4845,19,33,818
506588,16204300,17676844,16206961,17681521,2022,2328,2678,-4755,3923,-123,234,4729,22,26,818
507589,16204364,17676984,16207092,17681652,2127,2350,2730,-4497,3687,31,359,4891,22,26,818
508590,16204428,17677108,16207223,17681783,2157,2454,2773,-4191,3420,268,657,4757,7,33,816
509591,16204492,17677252,16207354,17681914,2187,2324,2788,-3947,3097,563,1074,4541,7,33,816
510601,16204564,17677376,16207494,17682054,2167,2457,2761,-3700,2738,821,997,4567,15,22,816
511593,16204616,17677512,16207625,17682185,2328,2381,2724,-3504,2384,1062,860,4231,15,22,816
512594,16204692,17677648,16207756,17682316,2203,2379,2697,-3383,2038,1295,927,3736,26,26,816
513595,16204740,17677820,16207887,17682447,2414,2137,2677,-3353,1706,1382,1005,3497,26,26,816
514596,16204816,17677964,16208018,17682578,2265,2307,2650,-3366,1407,1517,836,3207,10,30,816
515597,16204888,17678128,16208149,17682709,2316,2169,2608,-3463,1148,1632,497,2843,10,30,816
516598,16204964,17678288,16208280,17682840,2316,2182,2560,-3560,941,1651,277,2700,10,24,817
517599,16205032,17678464,16208411,17682971,2394,2063,2502,-3636,774,1714,411,2643,10,24,817
518600,16205116,17678636,16208542,17683102,2315,2071,2415,-3674,621,1698,518,2670,11,43,817
519600,16205200,17678784,16208673,17683233,2337,2215,2285,-3618,469,1604,529,2879,11,43,817
520602,16205288,17678968,16208804,17683364,2332,1966,2007,-3321,335,1520,510,3642,30,47,816
521603,16205368,17679172,16208935,17683495,2404,1810,1597,-2802,213,1342,895,3941,30,47,816
522604,16205436,17679412,16209066,17683626,2508,1538,1137,-2205,90,1213,798,4075,28,38,817
523605,16205496,17679624,16209197,17683757,2590,1679,796,-1775,-41,1018,841,3323,28,38,817
524606,16205564,17679804,16209328,17683888,2568,1858,636,-1635,-189,818,1184,2555,24,33,818
525606,16205648,17680064,16209459,17684019,2489,1302,580,-1625,-325,673,1389,2370,24,33,818
526608,16205728,17680216,16209590,17684150,2538,1968,485,-1483,-392,652,1265,2709,26,45,817
527608,16205812,17680316,16209721,17684281,2534,2308,325,-1211,-413,603,1128,2752,26,45,817
528610,16205932,17680412,16209852,17684412,2314,2349,166,-983,-428,475,806,2482,23,26,817
529611,16206028,17680524,16209983,17684543,2481,2258,72,-817,-470,335,510,2311,23,26,817
530612,16206124,17680660,16210114,17684674,2497,2106,3,-649,-504,320,226,2395,34,21,815
531613,16206232,17680800,16210245,17684805,2433,2079,-94,-398,-507,311,786,2569,34,21,815
532614,16206344,17680968,16210376,17684936,2416,1888,-278,14,-465,402,1081,3032,36,33,815
533615,16206444,17681160,16210507,17685067,2506,1711,-517,528,-422,445,585,3046,36,33,815
534616,16206552,17681376,16210638,17685198,2467,1525,-721,929,-428,497,247,2687,26,50,817
535616,16206676,17681612,16210769,17685329,2371,1355,-883,1229,-466,667,-303,2633,26,50,817
536618,16206784,17681828,16210900,17685460,2481,1444,-1055,1522,-520,852,-497,2603,39,57,819
537619,16206892,17682016,16211031,17685591,2492,1594,-1292,1898,-602,961,140,2801,39,57,819
538620,16207032,17682272,16211162,17685722,2289,1115,-1569,2217,-724,1042,725,2734,36,49,819
539621,16207160,17682524,16211293,17685853,2367,1087,-1850,2529,-897,1191,1219,2594,36,49,819
540622,16207260,17682752,16211424,17685984,2556,1195,-2137,2802,-1093,1414,672,2500,17,39,821
541623,16207380,17682956,16211555,17686115,2436,1314,-2382,2964,-1276,1552,-37,2362,17,39,821
542624,16207504,17683124,16211686,17686246,2415,1523,-2595,3128,-1456,1740,-193,2503,18,51,819
543625,16207636,17683352,16211817,17686377,2366,1106,-2817,3292,-1667,1818,21,2597,18,51,819
544626,16207740,17683600,16211948,17686508,2554,930,-3050,3476,-1894,2027,-421,2675,19,45,819
545627,16207872,17683824,16212079,17686639,2379,1040,-3236,3676,-2121,2204,-366,2652,19,45,819
546628,16207976,17684052,16212210,17686770,2566,973,-3377,3797,-2356,2287,164,2586,25,48,821
547628,16208096,17684248,16212341,17686901,2472,1144,-3505,3872,-2594,2452,497,2760,25,48,821
548630,16208212,17684488,16212472,17687032,2505,822,-3617,3945,-2811,2588,371,2723,35,55,821
549630,16208316,17684736,16212603,17687163,2592,721,-3697,4011,-2998,2619,241,2827,35,55,821
550632,16208424,17685004,16212734,17687294,2579,537,-3754,4081,-3170,2529,470,2943,13,47,820
551632,16208520,17685232,16212865,17687425,2669,744,-3805,4142,-3346,2383,420,3025,13,47,820
552633,16208596,17685436,16212996,17687556,2819,863,-3859,4249,-3503,2287,97,3294,32,37,820
553634,16208688,17685628,16213127,17687687,2737,911,-3915,4380,-3626,2042,-192,3447,32,37,820
554636,16208784,17685836,16213258,17687818,2729,777,-3967,4525,-3732,1669,-431,3515,21,55,819
555637,16208880,17686112,16213389,17687949,2745,290,-4010,4689,-3812,1384,-831,3788,21,55,819
556638,16208980,17686368,16213520,17688080,2735,360,-4028,4849,-3864,962,-762,3873,26,41,820
557639,16209076,17686568,16213651,17688211,2775,680,-4031,5042,-3904,445,-649,4038,26,41,820
558639,16209172,17686804,16213782,17688342,2791,409,-4020,5194,-3940,61,-949,3978,11,48,820
559640,16209244,17686964,16213913,17688473,2968,872,-3970,5222,-3951,-395,-1274,3728,11,48,820
560641,16209356,17687176,16214044,17688604,2728,511,-3885,5130,-3935,-883,-1430,3486,17,42,820
561643,16209448,17687424,16214175,17688735,2871,236,-3789,4874,-3881,-1303,-1809,3133,17,42,820
562644,16209552,17687616,16214306,17688866,2809,559,-3683,4510,-3790,-1669,-1934,2949,18,48,820
563645,16209676,17687804,16214437,17688997,2688,559,-3553,4106,-3643,-1980,-2618,2983,18,48,820
564646,16209824,17687980,16214568,17689128,2531,614,-3365,3659,-3434,-2231,-3411,2975,23,46,820
565647,16209964,17688156,16214699,17689259,2578,595,-3135,3220,-3201,-2622,-3313,3068,23,46,820
566648,16210084,17688320,16214830,17689390,2709,656,-2890,2712,-2970,-3004,-2621,2984,32,33,821
567649,16210220,17688472,16214961,17689521,2607,721,-2483,2294,-2716,-3367,-1800,4724,32,33,821
568650,16210316,17688600,16215092,17689652,2873,873,-746,3893,-2101,-5315,-3604,25830,31,35,820
569650,16210424,17688764,16215223,17689783,2809,633,2023,6489,-1237,-5661,-3394,28902,31,35,820
570652,16210528,17688912,16215354,17689914,2847,727,3576,7000,-675,-3449,-889,6773,27,32,819
571653,16210636,17689060,16215485,17690045,2833,719,3689,5616,-410,-2791,-331,1305,27,32,819
572654,16210752,17689196,16215616,17690176,2791,792,3353,3777,-244,-2363,-344,660,32,30,819
573655,16210900,17689324,16215747,17690307,2585,843,3171,2330,-5,-2190,-283,926,32,30,819
574656,16211044,17689432,16215878,17690438,2605,979,3145,1165,333,-1871,-406,1040,22,20,818
575657,16211188,17689532,16216009,17690569,2600,1042,3095,87,687,-1327,-862,1125,22,20,818
576657,16211344,17689624,16216140,17690700,2515,1110,2959,-971,1033,-1139,-1340,1391,30,28,819
577659,16211524,17689736,16216271,17690831,2345,994,2734,-1915,1327,-709,-1857,1788,30,28,819
578660,16211696,17689832,16216402,17690962,2377,1109,2449,-2812,1526,-338,-1804,1915,26,17,820
579661,16211880,17689916,16216533,17691093,2279,1205,2077,-3507,1644,-62,-1515,2663,26,17,820
580662,16212072,17689988,16216664,17691224,2203,1307,1634,-3917,1686,252,-1546,3522,40,10,820
581663,16212236,17690052,16216795,17691355,2365,1386,1150,-4202,1691,370,-1669,3817,40,10,820
582664,16212432,17690128,16216926,17691486,2137,1335,700,-4367,1694,528,-1598,4090,37,14,821
583665,16212616,17690204,16217057,17691617,2190,1359,336,-4519,1665,867,-1203,4191,37,14,821
584666,16212784,17690252,16217188,17691748,2275,1572,13,-4499,1598,1166,-1157,4840,24,8,821
585667,16212928,17690328,16217319,17691879,2420,1421,-305,-4343,1537,1412,-955,5113,24,8,821
586668,16213100,17690372,16217450,17692010,2227,1659,-577,-4215,1447,1817,-486,4894,35,11,819
587669,16213248,17690432,16217581,17692141,2371,1591,-784,-4137,1329,2190,-165,4907,35,11,819
588670,16213392,17690476,16217712,17692272,2391,1730,-960,-4076,1197,2345,151,4787,26,15,819
589671,16213524,17690548,16217843,17692403,2466,1581,-1101,-4101,1031,2548,393,4353,26,15,819
590672,16213672,17690604,16217974,17692534,2360,1714,-1189,-4218,841,2687,527,4074,37,6,818
591672,16213792,17690644,16218105,17692665,2540,1855,-1222,-4413,680,2758,239,3890,37,6,818
592673,16213908,17690668,16218236,17692796,2572,2002,-1196,-4674,538,2757,-44,3563,33,19,818
593674,16214048,17690728,16218367,17692927,2419,1809,-1100,-5014,403,2565,-222,3359,33,19,818
594676,16214164,17690776,16218498,17693058,2577,1920,-961,-5306,269,2566,-235,3439,26,17,816
595677,16214304,17690836,16218629,17693189,2424,1877,-801,-5543,137,2515,-260,3511,26,17,816
596678,16214412,17690880,16218760,17693320,2635,2016,-638,-5672,21,2266,-287,3805,26,5,816
597678,16214516,17690876,16218891,17693451,2672,2375,-483,-5648,-81,1911,-128,4184,26,5,816
598680,16214632,17690896,16219022,17693582,2605,2275,-335,-5536,-188,1511,130,4479,31,7,815
599680,16214764,17690940,16219153,17693713,2505,2163,-185,-5253,-294,1102,255,5037,31,7,815
600682,16214864,17690968,16219284,17693844,2720,2309,-14,-4809,-370,735,70,5504,29,2,813
601682,16214988,17690992,16219415,17693975,2574,2381,155,-4196,-411,585,300,6340,29,2,813
602684,16215080,17691024,16219546,17694106,2792,2376,241,-3315,-426,638,1079,6876,12,5,814
603685,16215176,17691056,16219677,17694237,2782,2420,247,-2418,-416,586,1478,6499,12,5,814
604686,16215284,17691124,16219808,17694368,2719,2223,255,-1709,-452,400,1823,5809,15,23,813
605686,16215408,17691184,16219939,17694499,2623,2305,332,-1201,-518,167,1563,5295,15,23,813
606688,16215508,17691268,16220070,17694630,2787,2176,454,-778,-538,133,917,5066,30,10,813
607688,16215612,17691308,16220201,17694761,2775,2492,573,-355,-472,232,177,4924,30,10,813
608689,16215768,17691332,16220332,17694892,2440,2640,651,30,-309,368,-635,4851,17,8,813
609690,16215920,17691392,16220463,17695023,2457,2446,699,391,-88,552,-1021,4591,17,8,813
610692,16216024,17691464,16220594,17695154,2770,2398,748,640,126,658,-1015,4246,20,12,813
611693,16216164,17691564,16220725,17695285,2541,2238,806,746,277,669,-706,3668,20,12,813
612694,16216300,17691624,16220856,17695416,2565,2520,859,724,359,651,-824,3198,30,18,813
613694,16216412,17691684,16220987,17695547,2724,2551,925,585,412,785,-1405,2976,30,18,813
614696,16216548,17691744,16221118,17695678,2573,2583,977,518,436,848,-1335,3263,23,24,814
615696,16216672,17691848,16221249,17695809,2652,2321,983,550,405,743,-1065,3311,23,24,814
616697,16216804,17691920,16221380,17695940,2602,2547,953,620,320,825,-856,3433,37,22,813
617698,16216924,17692020,16221511,17696071,2683,2387,899,716,195,846,-414,3432,37,22,813
618700,16217044,17692100,16221642,17696202,2688,2535,826,757,57,854,-644,3409,18,15,813
619701,16217168,17692132,16221773,17696333,2667,2880,749,869,-65,961,-1398,3595,18,15,813
620702,16217256,17692192,16221904,17696464,2912,2737,717,912,-174,866,-1542,3414,15,23,811
621702,16217376,17692268,16222035,17696595,2718,2661,699,973,-333,842,-1229,3499,15,23,811
622704,16217460,17692344,16222166,17696726,2965,2686,655,1046,-562,838,-899,3647,19,18,810
623705,16217568,17692420,16222297,17696857,2826,2711,580,1176,-792,813,-644,3853,19,18,810
624705,16217688,17692480,16222428,17696988,2757,2844,487,1398,-1002,844,-223,3872,13,27,809
625706,16217796,17692544,16222559,17697119,2843,2849,392,1534,-1198,853,224,3614,13,27,809
626708,16217900,17692608,16222690,17697250,2880,2879,297,1601,-1394,867,617,3617,19,9,810
627709,16218040,17692696,16222821,17697381,2653,2749,188,1598,-1584,919,635,3417,19,9,810
628710,16218176,17692780,16222952,17697512,2675,2795,61,1534,-1741,857,453,3252,33,12,810
629711,16218308,17692880,16223083,17697643,2701,2710,-69,1456,-1844,788,372,3269,33,12,810
630712,16218464,17692972,16223214,17697774,2541,2778,-186,1325,-1895,735,264,3021,42,16,810
631713,16218604,17693028,16223345,17697905,2638,3037,-284,1163,-1909,666,155,2992,42,16,810
632714,16218732,17693112,16223476,17698036,2715,2883,-376,975,-1884,432,14,3053,26,12,811
633715,16218860,17693216,16223607,17698167,2718,2771,-482,799,-1828,232,-216,3142,26,12,811
634716,16219008,17693324,16223738,17698298,2586,2757,-596,665,-1764,-12,-393,3229,24,31,810
635724,16219120,17693452,16223878,17698438,2824,2639,-696,483,-1690,-316,-516,3143,24,31,810
636717,16219224,17693576,16224009,17698569,2887,2668,-785,316,-1618,-515,-506,3107,32,31,811
637719,16219356,17693660,16224140,17698700,2713,2939,-870,105,-1557,-711,-273,3043,32,31,811
638719,16219464,17693776,16224271,17698831,2874,2747,-958,-163,-1507,-785,-128,3041,29,37,811
639721,16219580,17693876,16224402,17698962,2831,2862,-1038,-465,-1486,-844,22,2905,29,37,811
640721,16219696,17694048,16224533,17699093,2838,2395,-1102,-816,-1467,-851,-62,2822,17,31,810
641722,16219808,17694188,16224664,17699224,2872,2592,-1176,-1189,-1417,-744,-655,2903,17,31,810
642724,16219920,17694332,16224795,17699355,2882,2562,-1258,-1586,-1342,-717,-641,2854,25,31,809
643725,16220032,17694468,16224926,17699486,2891,2611,-1333,-1950,-1266,-674,47,3011,25,31,809
644726,16220160,17694608,16225057,17699617,2794,2583,-1392,-2267,-1194,-616,473,3154,34,33,810
645727,16220256,17694756,16225188,17699748,3010,2525,-1429,-2531,-1103,-467,444,3421,34,33,810
646728,16220368,17694904,16225319,17699879,2919,2519,-1441,-2746,-1003,-299,563,3599,24,40,811
647728,16220508,17695052,16225450,17700010,2741,2512,-1420,-2968,-918,-205,680,3599,24,40,811
648730,16220624,17695192,16225581,17700141,2899,2559,-1374,-3175,-847,-4,445,3863,23,28,810
649730,16220724,17695336,16225712,17700272,3013,2530,-943,-2895,-771,889,-512,8724,23,28,810
650732,16220852,17695496,16225843,17700403,2841,2418,578,-426,-803,3176,-961,27571,31,27,812
651733,16220980,17695636,16225974,17700534,2843,2540,1915,1328,-867,1471,-402,11357,31,27,812
652734,16221088,17695828,16226105,17700665,2979,2189,2150,1131,-853,547,102,2992,17,43,810
653735,16221208,17695972,16226236,17700796,2910,2484,1816,16,-781,762,203,2376,17,43,810
654736,16221356,17696160,16226367,17700927,2729,2185,1477,-1015,-716,936,217,2386,13,28,811
655737,16221464,17696308,16226498,17701058,2989,2429,1285,-1702,-726,846,684,2256,13,28,811
656738,16221576,17696476,16226629,17701189,2973,2289,1121,-2427,-826,811,888,1873,34,30,812
657738,16221708,17696636,16226760,17701320,2849,2327,904,-3126,-957,850,671,2094,34,30,812
658739,16221828,17696844,16226891,17701451,2929,1993,632,-3833,-1025,773,103,2293,37,46,811
659741,16221940,17697072,16227022,17701582,2989,1826,332,-4375,-1036,862,-473,2777,37,46,811
660742,16222092,17697276,16227153,17701713,2731,1945,32,-4821,-1050,742,-410,3087,38,50,813
661743,16222264,17697452,16227284,17701844,2589,2102,-257,-5063,-1076,658,-376,3748,38,50,813
662744,16222380,17697640,16227415,17701975,2946,2003,-535,-5068,-1120,639,-59,4417,42,46,815
663745,16222540,17697840,16227546,17702106,2659,1898,-780,-4970,-1133,632,147,4865,42,46,815
664746,16222704,17698064,16227677,17702237,2621,1708,-982,-4725,-1109,702,294,5115,34,49,815
665746,16222856,17698344,16227808,17702368,2688,1293,-1116,-4563,-1086,669,511,4746,34,49,815
666748,16222996,17698520,16227939,17702499,2760,1924,-1211,-4510,-1071,642,514,4714,32,37,816
667749,16223152,17698704,16228070,17702630,2650,1852,-1267,-4488,-1023,786,353,4595,32,37,816
668750,16223328,17698868,16228201,17702761,2506,1963,-1282,-4556,-943,842,404,4317,37,33,818
669751,16223464,17699024,16228332,17702892,2755,2002,-1256,-4550,-858,887,548,4612,37,33,818
670752,16223648,17699272,16228463,17703023,2432,1377,-1104,-4435,-787,909,660,5402,38,48,816
671753,16223848,17699460,16228594,17703154,2303,1728,-638,-3806,-760,1469,873,10156,38,48,816
672753,16224012,17699648,16228725,17703285,2515,1704,-120,-3108,-750,1201,999,7853,27,43,816
673755,16224192,17699788,16228856,17703416,2393,2000,123,-2945,-702,715,990,4526,27,43,816
674756,16224412,17699968,16228987,17703547,2105,1729,202,-3099,-625,727,659,4198,47,46,818
675757,16224592,17700136,16229118,17703678,2334,1789,294,-3356,-555,641,532,3781,47,46,818
676758,16224780,17700320,16229249,17703809,2260,1666,430,-3488,-524,600,510,3912,29,44,817
677759,16224976,17700512,16229380,17703940,2183,1590,575,-3524,-527,511,652,4043,29,44,817
678760,16225164,17700648,16229511,17704071,2209,1939,679,-3399,-536,357,874,4511,29,22,818
679760,16225316,17700756,16229642,17704202,2426,2124,742,-3175,-555,295,1112,4661,29,22,818
680761,16225524,17700856,16229773,17704333,2042,2188,796,-2937,-583,298,1180,4657,30,18,820
681762,16225696,17700996,16229904,17704464,2250,1936,853,-2748,-621,303,1127,4647,30,18,820
682763,16225872,17701088,16230035,17704595,2206,2253,890,-2511,-633,380,939,4671,42,23,816
683764,16226068,17701204,16230166,17704726,2053,2110,909,-2258,-619,485,1052,4647,42,23,816
684766,16226228,17701312,16230297,17704857,2267,2171,915,-2021,-614,580,1295,4456,41,21,819
685766,16226384,17701408,16230428,17704988,2281,2262,918,-1871,-657,659,1665,4139,41,21,819
686767,16226544,17701536,16230559,17705119,2244,2064,904,-1751,-737,709,1579,4044,22,31,817
687768,16226716,17701656,16230690,17705250,2152,2120,888,-1688,-850,716,1679,3786,22,31,817
688769,16226860,17701768,16230821,17705381,2322,2178,867,-1700,-1007,845,1869,3473,41,25,817
689770,16227040,17701896,16230952,17705512,2076,2081,834,-1734,-1193,943,2039,3371,41,25,817
690772,16227224,17702004,16231083,17705643,2028,2217,778,-1789,-1392,1049,2117,3169,22,26,818
691772,16227368,17702124,16231214,17705774,2274,2147,702,-1870,-1595,1218,2119,2930,22,26,818
692774,16227544,17702260,16231345,17705905,2055,2045,625,-2040,-1782,1459,2028,2701,27,34,818
693775,16227760,17702392,16231476,17706036,1768,2071,553,-2237,-1939,1694,1898,2582,27,34,818
694776,16227928,17702500,16231607,17706167,2052,2231,475,-2444,-2064,1937,1243,2547,46,34,817
695777,16228096,17702636,16231738,17706298,2037,2055,387,-2639,-2158,2036,832,2414,46,34,817
696778,16228296,17702728,16231869,17706429,1807,2348,302,-2786,-2248,2092,714,2617,33,18,819
697778,16228504,17702844,16232000,17706560,1724,2205,220,-2810,-2315,2124,577,2887,33,18,819
698780,16228660,17702964,16232131,17706691,2039,2185,144,-2733,-2353,2105,523,3067,30,32,818
699781,16228884,17703068,16232262,17706822,1573,2298,61,-2602,-2377,2091,584,3153,30,32,818
700782,16229096,17703180,16232393,17706953,1613,2258,-26,-2440,-2397,2018,590,3217,45,20,819
701783,16229252,17703304,16232524,17707084,1953,2186,-94,-2225,-2418,1787,615,3225,45,20,819
702783,16229456,17703372,16232655,17707215,1621,2564,-148,-1999,-2436,1532,516,3339,38,29,820
703784,16229648,17703472,16232786,17707346,1671,2379,-220,-1674,-2439,1314,325,3557,38,29,820
704785,16229832,17703564,16232917,17707477,1698,2447,-308,-1315,-2419,1027,110,3704,28,25,818
705786,16230012,17703660,16233048,17707608,1702,2437,-398,-902,-2393,667,-128,3741,28,25,818
706788,16230212,17703764,16233179,17707739,1547,2400,-477,-467,-2377,272,-242,3651,39,20,819
707788,16230416,17703856,16233310,17707870,1490,2493,-542,-45,-2331,51,-566,3618,39,20,819
708790,16230584,17703940,16233441,17708001,1700,2565,-612,373,-2231,-140,-955,3684,29,12,818
709791,16230800,17704012,16233572,17708132,1363,2666,-669,817,-2079,-476,-1204,3541,29,12,818
710792,16230968,17704116,16233703,17708263,1647,2479,-698,1165,-1893,-913,-1534,3241,36,22,819
711792,16231148,17704196,16233834,17708394,1551,2652,-703,1374,-1667,-1244,-1827,2763,36,22,819
712794,16231328,17704308,16233965,17708525,1530,2462,-679,1440,-1396,-1498,-2013,2475,45,27,818
713794,16231500,17704392,16234096,17708656,1562,2658,-643,1499,-1068,-1885,-2390,2654,45,27,818
714796,16231660,17704448,16234227,17708787,1626,2866,-596,1539,-684,-2307,-2637,2605,26,8,817
715797,16231864,17704516,16234358,17708918,1318,2820,-553,1630,-252,-2655,-2825,2799,26,8,817
716798,16232016,17704580,16234489,17709049,1635,2875,-513,1772,231,-3108,-2982,3049,43,16,817
717799,16232176,17704672,16234620,17709180,1573,2719,-481,1887,730,-3396,-2959,2951,43,16,817
718800,16232360,17704732,16234751,17709311,1400,2951,-419,1848,1167,-3335,-2318,2296,41,17,816
719800,16232524,17704784,16234882,17709442,1511,3036,-339,1485,1522,-2723,-1757,1640,41,17,816
720802,16232684,17704852,16235013,17709573,1524,2964,-295,1034,1809,-2039,-1636,1561,25,5,815
721802,16232824,17704912,16235144,17709704,1645,3046,-310,550,2043,-1814,-1515,1516,25,5,815
722804,16233016,17705024,16235275,17709835,1294,2731,-358,138,2228,-1816,-1413,1733,37,23,815
723805,16233160,17705120,16235406,17709966,1589,2847,-445,-207,2368,-1963,-1306,2155,37,23,815
724806,16233308,17705228,16235537,17710097,1556,2783,-561,-421,2455,-2078,-686,2501,37,13,815
725806,16233476,17705340,16235668,17710228,1416,2768,-714,-570,2481,-2039,-277,2900,37,13,815
726808,16233616,17705436,16235799,17710359,1587,2884,-890,-693,2493,-1934,-274,3242,30,23,816
727808,16233752,17705500,16235930,17710490,1611,3114,-1088,-678,2504,-1785,-422,3654,30,23,816
728809,16233884,17705612,16236061,17710621,1635,2824,-1283,-621,2511,-1695,-594,3755,20,12,817
729810,16234028,17705712,16236192,17710752,1555,2913,-1468,-642,2528,-1555,-567,3756,20,12,817
730811,16234124,17705820,16236323,17710883,1871,2874,-1647,-723,2532,-1190,-684,3673,31,29,814
731812,16234284,17705908,16236454,17711014,1458,3019,-1814,-901,2504,-855,-964,3529,31,29,814
732813,16234396,17706000,16236585,17711145,1767,3012,-1967,-1107,2448,-620,-901,3623,15,10,815
733815,16234520,17706076,16236716,17711276,1696,3138,-2093,-1275,2390,-433,-560,3702,15,10,815
734816,16234636,17706156,16236847,17711407,1753,3136,-2192,-1458,2342,-32,-411,3693,34,9,815
735816,16234768,17706236,16236978,17711538,1653,3159,-2263,-1691,2312,239,-118,3597,34,9,815
736817,16234880,17706280,16237109,17711669,1786,3424,-2305,-1955,2293,119,261,3723,29,18,814
737818,16234960,17706336,16237240,17711800,2009,3383,-2356,-2174,2282,-300,174,4020,29,18,814
738820,16235084,17706408,16237371,17711931,1738,3310,-2433,-2313,2294,-547,103,4506,19,18,812
739820,16235192,17706516,16237502,17712062,1849,3096,-2537,-2321,2328,-461,150,4859,19,18,812
740821,16235252,17706636,16237633,17712193,2180,3027,-2641,-2330,2332,-263,78,4839,31,21,810
741822,16235356,17706752,16237764,17712324,1918,3059,-2715,-2415,2289,-207,-462,4741,31,21,810
742824,16235420,17706884,16237895,17712455,2197,2960,-2753,-2531,2235,-311,-1049,4794,7,23,812
743824,16235472,17707000,16238026,17712586,2308,3067,-2781,-2581,2204,-444,-1665,5099,7,23,812
744825,16235572,17707096,16238157,17712717,2021,3209,-2797,-2648,2210,-450,-2064,5192,7,32,813
745826,16235640,17707224,16238288,17712848,2250,3011,-2768,-2712,2231,-298,-2269,5123,7,32,813
746827,16235720,17707356,16238419,17712979,2198,2987,-2689,-2839,2229,-209,-2305,4957,30,22,811
747828,16235816,17707476,16238550,17713110,2114,3067,-2560,-2999,2217,-279,-2370,4995,30,22,811
748829,16235912,17707584,16238681,17713241,2129,3153,-2386,-3196,2201,-405,-2532,4948,31,18,812
749830,16236000,17707684,16238812,17713372,2199,3218,-2176,-3423,2188,-349,-2606,4835,31,18,812
750831,16236100,17707780,16238943,17713503,2138,3260,-1826,-3561,2184,144,-2536,5888,26,19,812
751832,16236200,17707896,16239074,17713634,2152,3143,-590,-1926,2061,2570,-2001,21939,26,19,812
752833,16236264,17707996,16239205,17713765,2407,3258,863,-264,1858,1820,-1937,13767,30,17,810
753834,16236344,17708060,16239336,17713896,2330,3513,1492,-295,1743,428,-1948,3958,30,17,810
754836,16236432,17708168,16239467,17714027,2299,3249,1654,-1197,1689,483,-1629,3659,16,29,810
755836,16236524,17708232,16239598,17714158,2292,3555,1700,-2161,1617,645,-1222,3561,16,29,810
756837,16236576,17708324,16239729,17714289,2578,3398,1826,-2659,1527,623,-1006,4010,11,16,808
757839,16236664,17708444,16239860,17714420,2372,3229,1902,-3275,1333,883,-1153,4565,11,16,808
758840,16236728,17708532,16239991,17714551,2552,3449,1857,-3428,1227,706,-748,4830,13,28,808
759841,16236808,17708608,16240122,17714682,2475,3550,1778,-3494,1089,733,-914,5049,13,28,808
760849,16236908,17708700,16240262,17714822,2368,3472,1661,-3406,958,676,-893,5571,28,17,810
761843,16236988,17708784,16240393,17714953,2517,3543,1521,-3174,843,632,-498,5814,28,17,810
762844,16237040,17708908,16240524,17715084,2727,3298,1364,-2862,751,577,-666,6230,9,13,806
763845,16237128,17709008,16240655,17715215,2521,3462,1208,-2434,727,665,-732,6625,9,13,806
764846,16237200,17709124,16240786,17715346,2648,3370,1065,-1990,734,749,-925,6350,11,27,806
765847,16237252,17709236,16240917,17715477,2808,3405,992,-1742,735,817,-892,5680,11,27,806
766848,16237312,17709360,16241048,17715608,2790,3334,980,-1651,707,1285,-849,5255,5,15,807
767849,16237352,17709492,16241179,17715739,2956,3285,1006,-1660,656,1605,-664,4845,5,15,807
768850,16237388,17709652,16241310,17715870,3023,3098,1047,-1690,604,1720,-683,4780,13,39,807
769851,16237436,17709800,16241441,17716001,2986,3167,1067,-1689,569,1838,-950,4630,13,39,807
770852,16237480,17709936,16241572,17716132,3050,3241,1080,-1790,537,1946,-746,4247,25,41,807
771853,16237484,17710080,16241703,17716263,3357,3187,1077,-1865,502,2168,-653,4167,25,41,807
772854,16237512,17710276,16241834,17716394,3253,2834,1061,-2044,451,2230,-550,3704,4,36,807
773855,16237528,17710484,16241965,17716525,3378,2726,1058,-2267,388,2225,-544,3684,4,36,807
774856,16237524,17710720,16242096,17716656,3564,2506,1075,-2386,352,2264,-712,3835,3,43,804
775857,16237524,17710904,16242227,17716787,3597,2809,1119,-2479,330,2263,-546,3804,3,43,804
776858,16237552,17711072,16242358,17716918,3469,2895,1187,-2460,290,2197,-316,4041,18,45,807
777859,16237572,17711268,16242489,17717049,3568,2692,1254,-2369,238,1935,-469,4127,18,45,807
778860,16237596,17711500,16242620,17717180,3591,2424,1309,-2237,198,1853,-686,4178,11,37,805
779861,16237632,17711748,16242751,17717311,3559,2273,1346,-2062,171,1641,-729,4204,11,37,805
780862,16237708,17712004,16242882,17717442,3334,2169,1378,-1896,169,1430,-743,4065,6,43,806
781863,16237780,17712224,16243013,17717573,3386,2356,1407,-1659,198,1188,-944,4199,6,43,806
782864,16237832,17712428,16243144,17717704,3547,2425,1438,-1323,236,744,-751,4352,7,38,808
783865,16237948,17712680,16243275,17717835,3154,2073,1472,-968,244,406,-190,4320,7,38,808
784866,16238056,17712936,16243406,17717966,3216,1994,1532,-650,208,428,344,3986,21,40,809
785867,16238188,17713192,16243537,17718097,3066,1940,1615,-399,160,524,910,3849,21,40,809
786868,16238316,17713424,16243668,17718228,3093,2047,1692,-126,141,438,935,3773,22,39,812
787869,16238496,17713652,16243799,17718359,2748,2030,1755,133,191,45,627,3698,22,39,812
788870,16238612,17713876,16243930,17718490,3156,2015,1833,389,337,-504,102,3646,28,52,814
789871,16238728,17714064,16244061,17718621,3163,2215,1951,561,566,-776,-44,3241,28,52,814
790872,16238872,17714328,16244192,17718752,2983,1683,2097,568,821,-539,280,2667,22,51,815
791873,16238956,17714560,16244323,17718883,3380,1839,2230,517,1059,-104,428,2442,22,51,815
792874,16239052,17714772,16244454,17719014,3321,1930,2307,488,1254,183,397,2387,15,50,812
793875,16239184,17714968,16244585,17719145,3097,2002,2323,539,1396,122,335,2530,15,50,812
794876,16239292,17715156,16244716,17719276,3258,2028,2305,608,1491,-201,340,2553,12,47,812
795877,16239404,17715340,16244847,17719407,3242,2030,2237,720,1548,-336,10,2727,12,47,812
796878,16239596,17715536,16244978,17719538,2717,1927,2144,862,1586,-216,-27,2588,39,46,812
797879,16239772,17715736,16245109,17719669,2798,1873,2038,991,1596,-209,-76,2473,39,46,812
798880,16239928,17715936,16245240,17719800,2913,1844,1877,1162,1566,-527,-327,2893,30,46,812
799881,16240092,17716140,16245371,17719931,2849,1786,1689,1388,1535,-666,-690,2827,30,46,812
800882,16240208,17716324,16245502,17720062,3157,1889,1553,1396,1500,-150,-597,1958,21,47,815
801883,16240304,17716524,16245633,17720193,3298,1760,1461,1185,1431,638,-303,1381,21,47,815
802884,16240420,17716688,16245764,17720324,3181,1971,1363,806,1330,1206,-73,931,24,43,815
803885,16240576,17716884,16245895,17720455,2921,1743,1231,408,1208,1460,0,990,24,43,815
804886,16240724,17717112,16246026,17720586,2964,1501,1055,104,1068,1282,168,1204,19,50,813
805887,16240888,17717332,16246157,17720717,2851,1513,843,-88,899,1225,485,1391,19,50,813
806888,16241112,17717576,16246288,17720848,2436,1313,604,-239,724,1458,611,1592,43,52,815
807889,16241288,17717800,16246419,17720979,2717,1399,349,-283,569,1284,495,2053,43,52,815
808890,16241424,17717976,16246550,17721110,2966,1679,95,-319,424,1310,204,1985,46,51,816
809891,16241560,17718168,16246681,17721241,2965,1553,-106,-473,260,1673,597,1537,46,51,816
810892,16241668,17718432,16246812,17721372,3151,1045,-287,-657,84,2208,1034,1660,26,52,818
811893,16241804,17718660,16246943,17721503,2975,1228,-476,-825,-104,2671,1184,1698,26,52,818
812894,16241952,17718912,16247074,17721634,2893,1026,-675,-880,-284,2422,934,2153,29,35,815
813895,16242116,17719116,16247205,17721765,2780,1294,-878,-722,-462,1798,906,2774,29,35,815
814895,16242284,17719308,16247336,17721896,2740,1343,-1077,-449,-637,1669,887,2925,45,46,817
815897,16242472,17719532,16247467,17722027,2591,1102,-1286,-148,-772,1707,698,3202,45,46,817
816898,16242608,17719736,16247598,17722158,2914,1196,-1488,200,-832,1459,227,3220,41,47,818
817899,16242744,17720024,16247729,17722289,2913,602,-1639,374,-901,1370,461,2766,41,47,818
818900,16242872,17720284,16247860,17722420,2965,721,-1753,489,-1003,1381,334,2781,28,50,819
819901,16242972,17720500,16247991,17722551,3155,959,-1819,487,-1094,1761,324,2295,28,50,819
820902,16243104,17720724,16248122,17722682,2956,868,-1850,453,-1167,1929,256,2225,15,37,819
821903,16243264,17720904,16248253,17722813,2769,1122,-1863,413,-1227,1412,-19,2344,15,37,819
822904,16243444,17721128,16248384,17722944,2623,807,-1849,353,-1308,1063,46,2235,30,44,817
823905,16243592,17721376,16248515,17723075,2817,606,-1810,338,-1398,1091,74,2410,30,44,817
824906,16243764,17721600,16248646,17723206,2649,715,-1753,372,-1447,1000,-162,2592,45,44,818
825907,16243908,17721812,16248777,17723337,2819,755,-1699,445,-1446,909,-335,2788,45,44,818
826908,16244040,17722016,16248908,17723468,2895,773,-1639,459,-1445,878,-147,2762,24,34,819
827909,16244152,17722176,16249039,17723599,3029,1036,-1550,432,-1481,984,18,2630,24,34,819
828910,16244292,17722360,16249170,17723730,2851,863,-1438,375,-1576,1405,286,2466,24,31,818
829911,16244428,17722516,16249301,17723861,2875,1027,-1345,396,-1645,1667,141,2965,24,31,818
830912,16244592,17722720,16249432,17723992,2686,694,-1307,603,-1646,1347,-237,3534,22,44,816
831913,16244752,17722892,16249563,17724123,2700,877,-1282,869,-1616,961,-652,3559,22,44,816
832914,16244956,17723068,16249694,17724254,2394,833,-1225,1044,-1607,838,-620,3398,31,41,818
833915,16245140,17723236,16249825,17724385,2496,866,-1156,1125,-1616,862,-469,3304,31,41,818
834916,16245280,17723408,16249956,17724516,2768,823,-1126,1237,-1641,1040,-382,3688,32,37,820
835917,16245416,17723632,16250087,17724647,2792,459,-1129,1402,-1673,1089,-222,3932,32,37,820
836918,16245536,17723808,16250218,17724778,2897,739,-1120,1568,-1745,1497,314,3639,28,27,820
837919,16245680,17723908,16250349,17724909,2742,1227,-1119,1683,-1863,1953,628,3592,28,27,820
838920,16245840,17723940,16250480,17725040,2631,1696,-1147,1787,-1993,1837,712,3816,21,28,820
839921,16245976,17723964,16250611,17725171,2779,1793,-1192,1932,-2109,1499,444,4026,21,28,820
840922,16246144,17724076,16250742,17725302,2564,1252,-1229,2045,-2216,1244,294,3947,32,17,816
841923,16246328,17724204,16250873,17725433,2442,1154,-1248,2095,-2285,1233,316,3900,32,17,816
842924,16246528,17724336,16251004,17725564,2312,1128,-1274,2145,-2325,1323,391,4018,34,21,815
843925,16246680,17724484,16251135,17725695,2604,1021,-1310,2118,-2363,1288,651,3950,34,21,815
844926,16246808,17724600,16251266,17725826,2756,1228,-1343,2052,-2389,1358,778,4046,39,19,820
845927,16246924,17724720,16251397,17725957,2838,1208,-1377,2030,-2425,1671,886,4027,39,19,820
846928,16247060,17724824,16251528,17726088,2712,1320,-1431,1960,-2488,1705,1029,4080,27,22,819
847929,16247200,17724928,16251659,17726219,2684,1332,-1520,1922,-2543,1405,819,4323,27,22,819
848930,16247372,17725032,16251790,17726350,2467,1344,-1635,1904,-2557,1038,599,4375,39,31,817
849931,16247552,17725116,16251921,17726481,2396,1490,-1756,1848,-2543,768,585,4390,39,31,817
850932,16247740,17725220,16252052,17726612,2322,1377,-1860,1725,-2528,571,492,4243,37,18,816
851933,16247916,17725344,16252183,17726743,2378,1255,-1947,1466,-2497,422,331,4023,37,18,816
852934,16248040,17725468,16252314,17726874,2707,1259,-2008,1105,-2427,524,462,4084,26,20,818
853935,16248156,17725588,16252445,17727005,2764,1289,-2063,855,-2327,897,467,4187,26,20,818
854936,16248272,17725704,16252576,17727136,2772,1321,-2132,599,-2244,1370,689,4170,32,18,819
855937,16248364,17725844,16252707,17727267,2940,1167,-2218,372,-2172,1529,731,4548,32,18,819
856938,16248496,17725980,16252838,17727398,2690,1191,-2336,227,-2058,1441,589,4834,13,27,818
857939,16248660,17726084,16252969,17727529,2476,1403,-2433,84,-1891,1317,731,5025,13,27,818
858940,16248788,17726192,16253100,17727660,2703,1388,-2460,-115,-1737,1539,1499,5282,26,33,817
859941,16248968,17726300,16253231,17727791,2358,1398,-2432,-398,-1661,2080,1969,5423,26,33,817
860942,16249144,17726428,16253362,17727922,2364,1275,-2387,-650,-1583,1921,1843,5908,40,19,819
861943,16249308,17726576,16253493,17728053,2426,1143,-2367,-758,-1421,1468,855,6236,40,19,819
862944,16249464,17726704,16253624,17728184,2465,1269,-2337,-806,-1205,1188,179,6146,43,34,818
863945,16249620,17726832,16253755,17728315,2455,1271,-2266,-918,-993,1275,-177,5630,43,34,818
864946,16249780,17726972,16253886,17728446,2418,1192,-2199,-1078,-783,1253,-740,5431,21,21,820
865947,16250000,17727108,16254017,17728577,2005,1215,-2185,-1118,-576,1372,-1654,5825,21,21,820
866948,16250208,17727256,16254148,17728708,2046,1133,-2179,-1097,-375,1168,-1780,5896,49,30,819
867949,16250464,17727392,16254279,17728839,1692,1206,-2139,-992,-222,943,-1607,6290,49,30,819
868950,16250744,17727508,16254410,17728970,1478,1338,-2070,-879,-159,941,-1109,6013,45,24,822
869950,16250976,17727628,16254541,17729101,1734,1318,-1960,-934,-130,1464,-43,5909,45,24,822
870952,16251184,17727768,16254672,17729232,1850,1190,-1869,-862,-80,2269,613,6511,47,26,824
871952,16251392,17727864,16254803,17729363,1817,1480,-1780,-842,-45,2388,554,5757,47,26,824
872954,16251608,17727996,16254934,17729494,1731,1255,-1684,-842,-26,2328,473,5745,35,35,822
873955,16251848,17728144,16255065,17729625,1533,1147,-1601,-822,-27,2090,607,5815,35,35,822
874956,16252068,17728292,16255196,17729756,1620,1141,-1492,-821,-46,1664,621,5783,45,21,821
875957,16252284,17728420,16255327,17729887,1608,1267,-1332,-795,-64,1193,419,5792,45,21,821
876958,16252460,17728564,16255458,17730018,1839,1161,-1126,-838,-78,1169,314,5455,31,17,824
877959,16252668,17728704,16255589,17730149,1606,1183,-942,-822,-158,1481,737,5667,31,17,824
878960,16252920,17728812,16255720,17730280,1278,1394,-798,-645,-275,1551,992,5912,53,24,824
879961,16253164,17728920,16255851,17730411,1279,1404,-657,-446,-378,1192,902,5703,53,24,824
880962,16253380,17729004,16255982,17730542,1417,1574,-486,-324,-465,468,702,5496,37,29,824
881962,16253580,17729096,16256113,17730673,1488,1543,-278,-246,-563,-259,737,5516,37,29,824
882964,16253776,17729188,16256244,17730804,1484,1560,-43,-175,-670,-564,564,5242,39,13,824
883965,16253976,17729300,16256375,17730935,1430,1443,203,-176,-742,-520,302,4785,39,13,824
884966,16254164,17729384,16256506,17731066,1480,1640,411,-99,-759,-317,315,5058,46,28,822
885973,16254376,17729472,16256646,17731206,1299,1638,568,117,-753,-569,357,5149,46,28,822
886968,16254572,17729552,16256777,17731337,1370,1710,691,382,-737,-1394,-88,5231,31,12,823
887968,16254780,17729644,16256908,17731468,1262,1652,806,705,-711,-2187,-417,5226,31,12,823
888970,16254944,17729752,16257039,17731599,1523,1563,933,836,-649,-2284,-475,4576,36,22,823
889971,16255152,17729836,16257170,17731730,1214,1734,1045,824,-562,-1897,-399,4016,36,22,823
890972,16255392,17729896,16257301,17731861,967,1916,1120,729,-467,-1660,-336,3607,51,24,823
891973,16255652,17729988,16257432,17731992,786,1733,1145,624,-374,-1567,-226,3536,51,24,823
892974,16255840,17730056,16257563,17732123,1211,1911,1114,526,-290,-1576,-86,3477,37,25,823
893975,16255964,17730136,16257694,17732254,1615,1859,1076,382,-219,-1726,33,3171,37,25,823
894976,16256232,17730224,16257825,17732385,655,1828,1055,219,-141,-1764,-17,2897,36,25,823
895977,16256440,17730304,16257956,17732516,996,1902,1039,-45,-45,-1672,-67,2542,36,25,823
896978,16256632,17730388,16258087,17732647,1070,1897,997,-347,57,-1212,12,2445,51,27,819
897979,16256848,17730484,16258218,17732778,883,1838,859,-511,131,-680,106,2816,51,27,819
898980,16257032,17730576,16258349,17732909,1059,1881,620,-563,151,-573,296,2876,39,21,823
899981,16257272,17730648,16258480,17733040,661,2032,402,-735,102,-700,651,2369,39,21,823
900982,16257460,17730748,16258611,17733171,962,1871,199,-859,36,-526,772,2784,31,12,824
901983,16257648,17730820,16258742,17733302,937,2072,-6,-854,13,-290,557,3008,31,12,824
902984,16257820,17730928,16258873,17733433,1019,1858,-184,-880,-26,-107,967,2607,41,14,823
903984,16258020,17731020,16259004,17733564,814,1975,-361,-999,-131,192,1308,2397,41,14,823
904986,16258168,17731136,16259135,17733695,1131,1833,-578,-1098,-302,569,1597,2385,30,16,822
905987,16258356,17731244,16259266,17733826,857,1893,-797,-1262,-494,744,1433,2055,30,16,822
906988,16258564,17731336,16259397,17733957,699,2011,-1015,-1409,-668,870,1075,2250,38,14,822
907989,16258716,17731424,16259528,17734088,1039,2055,-1259,-1434,-822,936,1123,2636,38,14,822
908990,16258884,17731516,16259659,17734219,923,2048,-1538,-1357,-967,972,1158,2842,40,22,823
909991,16259064,17731580,16259790,17734350,827,2253,-1785,-1262,-1115,897,1132,2602,40,22,823
910992,16259208,17731644,16259921,17734481,1046,2283,-1990,-1205,-1271,680,1080,2522,39,18,822
911993,16259368,17731716,16260052,17734612,933,2259,-2187,-1143,-1399,487,655,2696,39,18,822
912994,16259528,17731788,16260183,17734743,921,2286,-2398,-1067,-1476,388,340,2680,34,23,821
913995,16259692,17731868,16260314,17734874,882,2258,-2621,-1009,-1508,245,34,2634,34,23,821
914996,16259836,17731944,16260445,17735005,1001,2309,-2841,-952,-1515,96,-52,2504,39,21,821
915997,16259992,17732028,16260576,17735136,915,2279,-3061,-992,-1489,-72,-293,2294,39,21,821
916998,16260148,17732112,16260707,17735267,904,2301,-3284,-1028,-1428,-189,-425,2279,19,11,821
917999,16260284,17732212,16260838,17735398,1027,2216,-3508,-1110,-1334,-301,-316,2142,19,11,821
919000,16260420,17732308,16260969,17735529,1025,2256,-3714,-1201,-1221,-348,-282,2156,23,14,821
920001,16260548,17732380,16261100,17735660,1076,2433,-3897,-1278,-1095,-590,-323,2242,23,14,821
921002,16260648,17732432,16261231,17735791,1265,2593,-4068,-1355,-961,-890,-530,2251,14,5,821
922003,16260740,17732488,16261362,17735922,1333,2602,-4229,-1427,-833,-1044,-691,2290,14,5,821
923004,16260872,17732580,16261493,17736053,1082,2395,-4384,-1529,-705,-1093,-719,2313,14,22,820
924005,16260988,17732636,16261624,17736184,1189,2653,-4540,-1650,-569,-991,-945,2326,14,22,820
925006,16261104,17732704,16261755,17736315,1196,2606,-4683,-1787,-412,-914,-1509,2346,29,21,818
926007,16261248,17732768,16261886,17736446,1015,2662,-4793,-1946,-240,-854,-1947,2425,29,21,818
927008,16261340,17732856,16262017,17736577,1357,2531,-4872,-2072,-68,-731,-2357,2677,31,19,818
928009,16261420,17732972,16262148,17736708,1454,2363,-4935,-2067,86,-524,-2695,3087,31,19,818
929010,16261572,17733056,16262279,17736839,995,2585,-4978,-2042,197,-83,-2808,3073,16,24,818
930011,16261712,17733184,16262410,17736970,1067,2312,-5007,-2115,250,584,-2767,2961,16,24,818
931012,16261840,17733332,16262541,17737101,1144,2180,-5021,-2216,285,1176,-2700,3056,27,19,819
932013,16261976,17733468,16262672,17737232,1091,2254,-5012,-2346,322,1736,-2529,2897,27,19,819
933014,16262100,17733672,16262803,17737363,1169,1798,-4978,-2556,371,2228,-2414,2978,19,41,821
934015,16262212,17733852,16262934,17737494,1253,1926,-4928,-2709,424,2640,-2391,3228,19,41,821
935016,16262364,17734012,16263065,17737625,994,2039,-4865,-2824,453,2982,-2317,3451,32,42,821
936017,16262468,17734160,16263196,17737756,1305,2108,-4798,-2846,459,3181,-2342,3913,32,42,821
937018,16262544,17734320,16263327,17737887,1505,2021,-4729,-2728,445,3340,-2359,4408,30,40,822
938019,16262672,17734444,16263458,17738018,1182,2249,-4647,-2530,406,3421,-2426,4744,30,40,822
939020,16262788,17734628,16263589,17738149,1264,1852,-4531,-2341,328,3466,-2372,4857,21,40,820
940021,16262880,17734772,16263720,17738280,1431,2097,-4383,-2130,218,3628,-2305,5112,21,40,820
941022,16262988,17734896,16263851,17738411,1341,2225,-4220,-1886,97,3955,-2140,5307,12,31,820
942023,16263140,17735016,16263982,17738542,1057,2256,-3078,-161,-62,5736,-1767,18763,12,31,820
943024,16263252,17735124,16264113,17738673,1315,2342,-236,5291,-440,7993,-772,32767,15,30,821
944025,16263368,17735248,16264244,17738804,1297,2245,1503,7649,-810,4437,-433,6790,15,30,821
945026,16263504,17735344,16264375,17738935,1170,2437,1695,7036,-1005,4041,-423,2702,36,18,821
946027,16263628,17735452,16264506,17739066,1248,2373,1252,5163,-1065,4357,-604,1478,36,18,821
947028,16263780,17735556,16264637,17739197,1064,2410,1018,3903,-1106,4469,-348,1597,22,16,820
948028,16263916,17735692,16264768,17739328,1162,2208,1049,2857,-1188,3951,518,685,22,16,820
949030,16264052,17735808,16264899,17739459,1160,2341,1172,1755,-1376,3951,757,162,30,22,820
950030,16264188,17735932,16265030,17739590,1159,2294,1206,734,-1563,3771,349,890,30,22,820
951032,16264328,17736068,16265161,17739721,1130,2218,1137,-51,-1608,3060,-283,1551,30,26,820
952032,16264492,17736192,16265292,17739852,965,2297,963,-532,-1606,2709,-786,2471,30,26,820
953033,16264640,17736320,16265423,17739983,1058,2273,768,-839,-1680,1808,-539,2770,26,30,820
954034,16264808,17736436,16265554,17740114,916,2356,556,-918,-1847,800,-463,3563,26,30,820
955036,16264952,17736612,16265685,17740245,1061,1962,312,-724,-2108,-156,-392,4173,19,25,821
956037,16265068,17736776,16265816,17740376,1242,2024,10,-367,-2341,-1359,-413,4958,19,25,821
957038,16265212,17736948,16265947,17740507,1062,1956,-287,331,-2448,-1873,-745,5804,22,25,821
958039,16265324,17737096,16266078,17740638,1271,2099,-530,1019,-2418,-2176,-953,5364,22,25,821
959040,16265436,17737260,16266209,17740769,1279,1986,-681,1592,-2270,-2629,-922,5145,34,25,822
960041,16265576,17737420,16266340,17740900,1100,1998,-750,2000,-2060,-2992,-905,4615,34,25,822
961042,16265660,17737580,16266471,17741031,1471,1986,-772,2162,-1809,-3128,-1093,4085,35,35,820
962043,16265784,17737740,16266602,17741162,1224,1974,-748,2311,-1475,-3079,-1304,3939,35,35,820
963044,16265880,17737888,16266733,17741293,1414,2042,-667,2249,-1056,-2975,-1676,3225,12,29,821
964045,16265996,17738076,16266864,17741424,1297,1768,-537,1999,-585,-2848,-1880,2820,12,29,821
965046,16266096,17738224,16266995,17741555,1411,2011,-375,1630,-89,-2752,-1630,2448,34,23,822
966047,16266212,17738380,16267126,17741686,1317,1950,-195,1153,403,-2411,-1425,2069,34,23,822
967048,16266320,17738536,16267257,17741817,1377,1940,-25,714,917,-2151,-1498,2285,27,29,823
968049,16266408,17738696,16267388,17741948,1521,1903,127,349,1461,-1993,-1412,2404,27,29,823
969050,16266500,17738848,16267519,17742079,1513,1944,262,-7,1974,-1630,-1396,2484,25,25,822
970050,16266608,17739000,16267650,17742210,1424,1936,369,-298,2420,-1331,-1333,2635,25,25,822
971052,16266700,17739144,16267781,17742341,1542,1980,435,-546,2775,-1178,-1261,2939,20,26,821
972053,16266780,17739264,16267912,17742472,1639,2136,449,-726,3017,-951,-1118,3172,20,26,821
973054,16266868,17739384,16268043,17742603,1608,2141,416,-844,3168,-754,-964,3413,30,28,821
974055,16266968,17739512,16268174,17742734,1547,2093,328,-817,3240,-461,-934,3699,30,28,821
975056,16267044,17739640,16268305,17742865,1722,2096,212,-809,3223,-189,-769,3753,19,19,819
976057,16267124,17739748,16268436,17742996,1719,2231,90,-821,3154,104,-584,3815,19,19,819
977058,16267212,17739860,16268567,17743127,1688,2215,-29,-877,3069,441,-429,3793,19,14,820
978059,16267312,17739976,16268698,17743258,1627,2198,-148,-957,2953,795,-279,3689,19,14,820
979060,16267404,17740080,16268829,17743389,1695,2285,-256,-1057,2821,1027,-319,3717,8,13,819
980061,16267484,17740168,16268960,17743520,1792,2405,-337,-1194,2677,1179,-482,3566,8,13,819
981062,16267552,17740288,16269091,17743651,1895,2209,-392,-1395,2503,1374,-711,3570,7,15,819
982062,16267652,17740380,16269222,17743782,1709,2403,-399,-1563,2308,1456,-816,3646,7,15,819
983064,16267732,17740472,16269353,17743913,1857,2421,-353,-1768,2078,1486,-728,3629,6,9,817
984065,16267800,17740540,16269484,17744044,1960,2598,-277,-1926,1839,1612,-913,3809,6,9,817
985066,16267864,17740620,16269615,17744175,2015,2547,-183,-2030,1620,1659,-1065,3949,3,11,817
986066,16267960,17740736,16269746,17744306,1830,2329,-74,-2086,1417,1566,-1097,4020,3,11,817
987068,16268044,17740808,16269877,17744437,1926,2630,37,-2156,1217,1442,-1163,4025,26,10,816
988069,16268120,17740928,16270008,17744568,2001,2336,137,-2256,1027,1315,-936,4040,26,10,816
989070,16268184,17741012,16270139,17744699,2106,2583,213,-2329,865,1374,-1062,4173,26,13,817
990071,16268276,17741116,16270270,17744830,1948,2470,263,-2368,731,1336,-1101,4194,26,13,817
991072,16268340,17741220,16270401,17744961,2153,2482,294,-2377,613,1141,-950,4280,14,29,817
992073,16268420,17741320,16270532,17745092,2076,2522,308,-2388,493,1009,-426,4250,14,29,817
993073,16268516,17741432,16270663,17745223,1991,2456,300,-2370,383,905,170,4317,22,26,816
994074,16268580,17741520,16270794,17745354,2221,2625,269,-2322,304,760,207,4330,22,26,816
995076,16268672,17741616,16270925,17745485,2064,2592,220,-2295,258,599,70,4251,18,19,815
996077,16268740,17741708,16271056,17745616,2242,2635,167,-2260,227,398,207,4450,18,19,815
997078,16268820,17741804,16271187,17745747,2190,2626,122,-2140,196,280,354,4560,16,25,814
998078,16268876,17741888,16271318,17745878,2374,2722,89,-1953,177,144,378,4758,16,25,814
999080,16268948,17741968,16271449,17746009,2300,2770,89,-1672,191,-34,112,5235,16,27,814
1000081,16269060,17742072,16271580,17746140,2059,2633,331,-985,282,-497,-401,8792,16,27,814
1001082,16269176,17742176,16271711,17746271,2041,2646,726,-104,392,-707,-214,9130,20,14,813
1002082,16269288,17742252,16271842,17746402,2074,2845,922,194,412,-438,39,4471,20,14,813
1003084,16269364,17742364,16271973,17746533,2324,2630,899,20,411,-444,-540,3854,13,12,815
1004085,16269460,17742484,16272104,17746664,2214,2585,825,-260,434,-404,-526,3500,13,12,815
1005086,16269540,17742588,16272235,17746795,2338,2698,766,-503,480,-456,-287,3430,19,20,813
1006087,16269628,17742680,16272366,17746926,2307,2791,736,-685,540,-455,-672,3348,19,20,813
1007088,16269684,17742804,16272497,17747057,2541,2594,714,-901,590,-490,-717,3231,11,19,813
1008089,16269780,17742904,16272628,17747188,2307,2759,695,-1105,625,-566,-459,3391,11,19,813
1009089,16269844,17743024,16272759,17747319,2537,2640,677,-1270,629,-542,-328,3532,30,30,813
1010090,16269924,17743144,16272890,17747450,2460,2646,661,-1364,604,-479,-188,3690,30,30,813
1011101,16269976,17743304,16273030,17747590,2674,2388,625,-1364,571,-407,130,4013,27,22,813
1012093,16270048,17743428,16273161,17747721,2576,2616,551,-1233,558,-216,69,4413,27,22,813
1013094,16270128,17743556,16273292,17747852,2548,2593,450,-984,555,-32,-40,4685,16,20,813
1014094,16270196,17743696,16273423,17747983,2652,2515,333,-709,538,69,96,4719,16,20,813
1015095,16270268,17743880,16273554,17748114,2654,2218,201,-437,507,254,210,4739,18,33,812
1016096,16270336,17743996,16273685,17748245,2706,2651,61,-189,465,476,286,4653,18,33,812
1017097,16270388,17744140,16273816,17748376,2842,2471,-59,42,426,659,299,4616,8,39,811
1018098,16270484,17744272,16273947,17748507,2583,2546,-142,261,406,915,110,4509,8,39,811
1019100,16270572,17744412,16274078,17748638,2652,2493,-190,379,385,1168,-71,4313,31,26,810
1020101,16270640,17744596,16274209,17748769,2806,2195,-223,467,363,1492,-50,4231,31,26,810
1021102,16270732,17744788,16274340,17748900,2674,2120,-268,520,340,1794,-412,4042,14,43,813
1022103,16270812,17744976,16274471,17749031,2771,2120,-319,561,300,1924,-502,3940,14,43,813
1023104,16270900,17745156,16274602,17749162,2741,2149,-371,544,228,1924,-232,3814,19,30,813
1024105,16270944,17745348,16274733,17749293,3056,2048,-424,502,131,1945,216,3600,19,30,813
1025106,16270992,17745580,16274864,17749424,3067,1755,-500,505,34,1956,270,3762,11,44,814
1026107,16271068,17745736,16274995,17749555,2917,2220,-603,519,-47,1828,386,3864,11,44,814
1027108,16271140,17745832,16275126,17749686,2969,2610,-723,580,-134,1787,394,3984,24,38,811
1028109,16271204,17745916,16275257,17749817,3050,2707,-817,696,-240,1799,292,4089,24,38,811
1029110,16271284,17746012,16275388,17749948,2972,2648,-881,883,-375,1718,805,4335,18,32,811
1030111,16271360,17746120,16275519,17750079,3022,2583,-951,1138,-495,1631,823,4559,18,32,811
1031112,16271468,17746248,16275650,17750210,2833,2461,-1025,1359,-577,1459,1031,4374,33,30,809
1032113,16271576,17746412,16275781,17750341,2844,2222,-1084,1555,-632,1330,838,4347,33,30,809
1033114,16271672,17746588,16275912,17750472,2936,2128,-1115,1688,-671,1145,613,4176,21,40,810
1034115,16271772,17746752,16276043,17750603,2924,2189,-1134,1773,-687,878,349,4142,21,40,810
1035116,16271872,17746996,16276174,17750734,2939,1640,-1145,1899,-680,666,-267,4169,35,44,813
1036117,16271988,17747256,16276305,17750865,2847,1484,-1128,1956,-652,550,-996,4097,35,44,813
1037118,16272092,17747432,16276436,17750996,2934,1991,-1099,2049,-647,368,-556,4084,35,59,813
1038119,16272204,17747692,16276567,17751127,2894,1409,-1094,2079,-679,70,163,3849,35,59,813
1039120,16272316,17747976,16276698,17751258,2902,1193,-1118,2034,-711,-75,-19,3757,30,53,815
1040121,16272440,17748220,16276829,17751389,2831,1394,-1153,1958,-743,-254,-94,3631,30,53,815
1041122,16272564,17748464,16276960,17751520,2835,1344,-1187,1809,-806,-520,-186,3279,37,49,816
1042123,16272692,17748676,16277091,17751651,2813,1510,-1228,1623,-890,-760,-421,3333,37,49,816
1043124,16272816,17748972,16277222,17751782,2842,912,-1295,1442,-963,-940,-639,3393,20,47,817
1044125,16272920,17749244,16277353,17751913,2980,1001,-1376,1326,-1026,-974,-618,3528,20,47,817
1045126,16273052,17749488,16277484,17752044,2804,1127,-1455,1277,-1100,-1005,-373,3690,39,48,816
1046127,16273172,17749696,16277615,17752175,2885,1319,-1506,1221,-1193,-1070,0,3627,39,48,816
1047128,16273268,17749948,16277746,17752306,3051,991,-1548,1149,-1287,-971,216,3805,32,59,817
1048128,16273392,17750256,16277877,17752437,2880,564,-1599,1130,-1326,-820,209,3987,32,59,817
1049130,16273512,17750520,16278008,17752568,2911,781,-1654,1106,-1312,-688,216,3944,36,44,816
1050130,16273612,17750776,16278139,17752699,3051,777,-1696,1037,-1301,-618,362,3795,36,44,816
1051132,16273724,17751044,16278270,17752830,2985,641,-1725,932,-1314,-533,404,3877,18,48,818
1052133,16273844,17751260,16278401,17752961,2940,929,-1725,941,-1323,-313,223,4491,18,48,818
1053134,16273952,17751520,16278532,17753092,3026,598,-1509,1380,-1333,499,-180,8243,28,62,817
1054135,16274052,17751844,16278663,17753223,3091,114,-1151,2050,-1377,713,-224,8525,28,62,817
1055136,16274148,17752124,16278794,17753354,3132,323,-1001,2193,-1409,248,-50,4213,24,45,818
1056137,16274248,17752360,16278925,17753485,3122,552,-1039,1990,-1404,443,-286,3806,24,45,818
1057138,16274340,17752528,16279056,17753616,3190,962,-1098,1758,-1367,635,-504,3870,22,48,818
1058139,16274464,17752748,16279187,17753747,2994,598,-1099,1642,-1342,675,-700,3785,22,48,818
1059140,16274568,17753020,16279318,17753878,3132,211,-1047,1502,-1348,714,-1016,3648,34,40,818
1060141,16274652,17753236,16279449,17754009,3279,523,-974,1432,-1374,766,-1461,3868,34,40,818
1061142,16274748,17753456,16279580,17754140,3219,459,-901,1402,-1414,642,-1725,4097,27,38,817
1062143,16274832,17753652,16279711,17754271,3316,581,-814,1503,-1474,401,-1989,4440,27,38,817
1063144,16274924,17753848,16279842,17754402,3284,553,-696,1666,-1553,108,-1842,4598,30,40,817
1064145,16275024,17754028,16279973,17754533,3248,631,-544,1924,-1664,-255,-1074,4860,30,40,817
1065146,16275132,17754224,16280104,17754664,3209,503,-373,2216,-1816,-628,-279,4970,14,40,816
1066147,16275256,17754424,16280235,17754795,3114,448,-193,2508,-1987,-912,-269,4869,14,40,816
1067148,16275388,17754608,16280366,17754926,3064,524,-32,2746,-2141,-1087,-480,4871,19,39,817
1068149,16275540,17754776,16280497,17755057,2931,608,103,2924,-2278,-1297,-593,4478,19,39,817
1069150,16275672,17754936,16280628,17755188,3056,645,201,2943,-2406,-1528,-758,4038,27,44,818
1070151,16275812,17755124,16280759,17755319,3003,445,246,2799,-2506,-1730,-876,3621,27,44,818
1071152,16275944,17755264,16280890,17755450,3054,741,253,2557,-2543,-1788,-980,3298,20,28,818
1072153,16276068,17755420,16281021,17755581,3108,630,265,2305,-2507,-1821,-1076,3248,20,28,818
1073154,16276172,17755544,16281152,17755712,3246,833,305,1978,-2396,-2054,-889,3025,31,36,818
1074155,16276304,17755680,16281283,17755843,3072,756,344,1593,-2235,-2114,-625,3017,31,36,818
1075156,16276416,17755824,16281414,17755974,3206,700,383,1242,-2017,-2078,-531,3022,29,36,817
1076157,16276544,17755932,16281545,17756105,3108,936,433,881,-1749,-1969,-500,2912,29,36,817
1077158,16276696,17756028,16281676,17756236,2950,1026,497,469,-1428,-1858,-534,2881,36,19,817
1078159,16276852,17756124,16281807,17756367,2914,1041,586,-27,-1010,-1628,-1338,2970,36,19,817
1079160,16277020,17756192,16281938,17756498,2824,1244,679,-401,-514,-1403,-2184,3297,41,24,817
1080161,16277208,17756260,16282069,17756629,2675,1272,741,-729,-10,-1426,-2416,3496,41,24,817
1081162,16277400,17756316,16282200,17756760,2624,1380,793,-965,455,-1459,-2236,3812,26,12,818
1082162,16277560,17756368,16282331,17756891,2812,1440,1132,-593,810,-394,-1864,9051,26,12,818
1083164,16277740,17756428,16282462,17757022,2667,1422,1967,697,984,1414,-943,16082,48,16,817
1084165,16277912,17756460,16282593,17757153,2700,1640,2482,1303,1129,647,-287,6125,48,16,817
1085165,16278044,17756476,16282724,17757284,2950,1791,2381,1015,1332,545,-241,3635,41,14,816
1086167,16278180,17756492,16282855,17757415,2924,1841,2030,382,1553,955,-202,3468,41,14,816
1087168,16278304,17756548,16282986,17757546,3003,1624,1727,-54,1762,1400,328,3670,36,0,816
1088169,16278416,17756584,16283117,17757677,3087,1791,1499,-353,1890,1906,1036,3482,36,0,816
1089170,16278540,17756624,16283248,17757808,3015,1807,1267,-770,1891,2243,1608,3121,32,2,814
1090171,16278664,17756632,16283379,17757939,3020,2061,986,-1159,1791,2316,2435,3354,32,2,814
1091172,16278776,17756668,16283510,17758070,3104,1928,621,-1458,1574,2675,3350,3542,13,5,812
1092173,16278904,17756720,16283641,17758201,3006,1862,196,-1745,1281,3137,3696,3539,13,5,812
1093174,16279036,17756804,16283772,17758332,2982,1684,-153,-2149,1016,3462,3501,3163,36,12,812
1094175,16279144,17756872,16283903,17758463,3143,1812,-460,-2523,742,3733,2694,3465,36,12,812
1095176,16279256,17756932,16284034,17758594,3127,1893,-809,-2625,423,3531,1968,4394,21,18,812
1096177,16279392,17756980,16284165,17758725,2976,2005,-1165,-2580,106,3263,1667,4538,21,18,812
1097178,16279496,17757052,16284296,17758856,3189,1881,-1455,-2601,-186,3431,1264,4194,12,21,813
1098179,16279596,17757176,16284427,17758987,3228,1559,-1666,-2768,-383,3679,932,3878,12,21,813
1099180,16279744,17757240,16284558,17759118,2922,1965,-1808,-3028,-461,3637,761,3749,21,26,813
1100181,16279876,17757324,16284689,17759249,3022,1860,-1882,-3382,-532,3478,384,3224,21,26,813
1101182,16279988,17757384,16284820,17759380,3156,2042,-1832,-3781,-617,3186,-25,3688,14,18,813
1102183,16280104,17757436,16284951,17759511,3139,2127,-1234,-3174,-573,2727,-1444,12177,14,18,813
1103184,16280228,17757524,16285082,17759642,3093,1921,-366,-2289,-505,2604,-1524,10763,13,25,813
1104185,16280356,17757612,16285213,17759773,3070,1940,93,-2361,-565,2562,-577,2904,13,25,813
1105186,16280512,17757704,16285344,17759904,2885,1933,142,-2941,-683,2350,-362,3067,35,11,810
1106187,16280668,17757756,16285475,17760035,2875,2218,78,-3424,-821,2325,-128,3202,35,11,810
1107188,16280800,17757788,16285606,17760166,3026,2388,49,-3527,-951,1882,-60,3878,26,21,813
1108189,16280968,17757856,16285737,17760297,2785,2190,107,-3459,-1079,1458,-212,3988,26,21,813
1109190,16281104,17757924,16285868,17760428,2984,2219,198,-3323,-1219,1348,-528,4283,39,15,813
1110191,16281276,17757996,16285999,17760559,2742,2220,294,-3010,-1334,952,-531,4813,39,15,813
1111192,16281452,17758080,16286130,17760690,2698,2166,388,-2621,-1427,716,-488,4913,24,21,813
1112193,16281608,17758144,16286261,17760821,2812,2321,492,-2254,-1534,570,-204,4777,24,21,813
1113194,16281752,17758216,16286392,17760952,2883,2298,620,-1838,-1609,361,54,4923,24,21,813
1114195,16281908,17758288,16286523,17761083,2798,2324,766,-1420,-1643,334,78,4861,24,21,813
1115196,16282088,17758384,16286654,17761214,2627,2190,927,-1065,-1657,244,118,4530,39,11,811
1116197,16282220,17758488,16286785,17761345,2928,2152,1100,-795,-1627,-39,162,4229,39,11,811
1117198,16282372,17758576,16286916,17761476,2794,2272,1289,-613,-1555,-18,-590,3827,36,27,811
1118199,16282552,17758624,16287047,17761607,2599,2558,1464,-495,-1442,-18,-1340,3809,36,27,811
1119200,16282696,17758724,16287178,17761738,2819,2248,1595,-244,-1299,-106,-1435,4034,37,11,813
1120201,16282856,17758796,16287309,17761869,2706,2449,1688,-27,-1184,-86,-1362,3713,37,11,813
1121202,16283024,17758900,16287440,17762000,2641,2262,1759,145,-1096,-37,-1305,3641,38,19,812
1122203,16283176,17758980,16287571,17762131,2733,2435,1811,373,-1012,11,-1005,3725,38,19,812
1123204,16283308,17759056,16287702,17762262,2858,2484,1825,538,-946,4,-692,3361,35,23,813
1124205,16283492,17759148,16287833,17762393,2511,2403,1807,606,-888,86,-910,3165,35,23,813
1125206,16283668,17759228,16287964,17762524,2542,2500,1783,622,-822,248,-1378,2952,43,25,812
1126206,16283820,17759332,16288095,17762655,2683,2363,1766,597,-769,514,-1623,2902,43,25,812
1127208,16284004,17759424,16288226,17762786,2461,2456,1728,607,-742,550,-1271,3022,30,30,812
1128208,16284192,17759508,16288357,17762917,2412,2527,1658,584,-759,657,-299,2920,30,30,812
1129210,16284380,17759608,16288488,17763048,2388,2441,1515,633,-832,872,634,3033,47,32,813
1130210,16284548,17759696,16288619,17763179,2498,2536,1325,679,-936,949,1326,2949,47,32,813
1131212,16284720,17759804,16288750,17763310,2454,2421,1115,659,-1050,1161,1441,2737,39,28,813
1132213,16284868,17759904,16288881,17763441,2598,2486,903,501,-1154,1479,1240,2437,39,28,813
1133214,16285040,17760020,16289012,17763572,2431,2393,687,242,-1266,1538,888,2193,43,23,812
1134214,16285204,17760100,16289143,17763703,2468,2641,473,9,-1379,1547,117,2286,43,23,812
1135216,16285356,17760188,16289274,17763834,2533,2611,269,-156,-1501,1381,-78,2495,40,19,813
1136224,16285488,17760280,16289414,17763974,2663,2608,47,-220,-1637,1327,626,2786,40,19,813
1137217,16285672,17760392,16289545,17764105,2316,2491,-209,-231,-1787,1360,1189,2745,28,17,812
1138218,16285836,17760504,16289676,17764236,2427,2501,-482,-292,-1919,1229,1007,2688,28,17,812
1139220,16285956,17760616,16289807,17764367,2707,2510,-732,-419,-2004,1066,207,2609,24,19,811
1140221,16286124,17760744,16289938,17764498,2392,2412,-929,-646,-2045,1055,-995,2382,24,19,811
1141222,16286264,17760852,16290069,17764629,2564,2547,-1083,-889,-2067,896,-1568,2395,39,30,814
1142222,16286424,17760948,16290200,17764760,2427,2639,-1206,-1082,-2111,647,-1401,2561,39,30,814
1143224,16286564,17761096,16290331,17764891,2548,2307,-1330,-1233,-2169,463,-757,2816,38,36,814
1144225,16286720,17761244,16290462,17765022,2438,2300,-1459,-1282,-2229,336,86,3124,38,36,814
1145226,16286860,17761400,16290593,17765153,2535,2240,-1558,-1328,-2274,318,469,3061,20,28,812
1146226,16287004,17761560,16290724,17765284,2504,2203,-1616,-1461,-2304,216,521,2784,20,28,812
1147228,16287144,17761692,16290855,17765415,2526,2379,-1651,-1710,-2308,37,694,2656,37,33,815
1148229,16287284,17761824,16290986,17765546,2523,2378,-1680,-1946,-2279,36,812,2668,37,33,815
1149229,16287424,17761980,16291117,17765677,2520,2218,-1717,-2171,-2214,65,848,2793,35,40,814
1150230,16287576,17762100,16291248,17765808,2436,2449,-1764,-2344,-2120,27,847,2962,35,40,814
1151232,16287728,17762272,16291379,17765939,2428,2106,-1811,-2491,-2007,-26,787,3124,31,44,814
1152233,16287900,17762456,16291510,17766070,2286,2009,-1871,-2579,-1874,-39,663,3282,31,44,814
1153234,16288080,17762596,16291641,17766201,2214,2281,-1943,-2605,-1723,-85,532,3600,40,27,814
1154235,16288288,17762760,16291772,17766332,2007,2116,-2002,-2603,-1581,-189,595,3680,40,27,814
1155236,16288452,17762904,16291903,17766463,2268,2237,-2046,-2563,-1456,-275,561,3888,25,40,817
1156237,16288632,17763036,16292034,17766594,2147,2312,-2071,-2491,-1327,-297,87,4051,25,40,817
1157238,16288820,17763200,16292165,17766725,2072,2099,-2068,-2398,-1186,-133,-809,4165,26,30,818
1158239,16289016,17763356,16292296,17766856,1995,2138,-2018,-2362,-1072,-62,-1111,4105,26,30,818
1159240,16289212,17763504,16292427,17766987,1966,2181,-1945,-2306,-994,-39,-1099,4269,49,34,815
1160241,16289424,17763680,16292558,17767118,1832,1987,-1872,-2283,-953,48,-526,4212,49,34,815
1161242,16289660,17763844,16292689,17767249,1636,2048,-1804,-2233,-966,183,214,4283,51,40,817
1162243,16289868,17764020,16292820,17767380,1778,1954,-1740,-2215,-1003,235,358,4231,51,40,817
1163244,16290076,17764188,16292951,17767511,1745,1988,-1658,-2271,-1031,321,-16,4054,31,27,818
1164245,16290304,17764372,16293082,17767642,1577,1866,-1535,-2431,-1026,529,-749,3974,31,27,818
1165246,16290540,17764504,16293213,17767773,1482,2191,-1200,-2418,-988,871,-1338,6035,46,36,820
1166247,16290708,17764676,16293344,17767904,1891,1923,-157,-1161,-1026,2075,-1443,17811,46,36,820
1167248,16290900,17764844,16293475,17768035,1715,1933,859,-104,-1143,1268,-499,10079,32,41,820
1168249,16291132,17765064,16293606,17768166,1421,1570,1137,-225,-1206,544,131,3391,32,41,820
1169250,16291320,17765264,16293737,17768297,1672,1664,954,-898,-1183,600,50,3051,39,48,819
1170251,16291516,17765448,16293868,17768428,1593,1742,740,-1605,-1160,544,195,2749,39,48,819
1171252,16291732,17765636,16293999,17768559,1432,1692,601,-2159,-1187,236,359,2875,37,47,821
1172253,16291924,17765820,16294130,17768690,1555,1695,500,-2682,-1222,261,-305,2751,37,47,821
1173254,16292080,17766028,16294261,17768821,1769,1511,390,-3082,-1211,363,-1356,3163,33,33,822
1174254,16292252,17766240,16294392,17768952,1652,1451,261,-3327,-1130,27,-1335,3679,33,33,822
1175256,16292404,17766420,16294523,17769083,1768,1630,92,-3438,-1048,-81,-750,3950,41,42,822
1176257,16292548,17766592,16294654,17769214,1813,1663,-118,-3404,-964,-106,-601,4510,41,42,822
1177258,16292708,17766748,16294785,17769345,1700,1752,-316,-3222,-845,-237,-588,4950,27,26,822
1178258,16292868,17766916,16294916,17769476,1688,1662,-477,-3024,-719,-212,-770,4916,27,26,822
1179260,16293020,17767064,16295047,17769607,1729,1779,-573,-2945,-602,-195,-992,4744,42,30,821
1180261,16293192,17767220,16295178,17769738,1586,1719,-617,-2884,-470,80,-1495,4801,42,30,821
1181262,16293372,17767364,16295309,17769869,1516,1788,-643,-2806,-340,364,-1622,4732,43,31,820
1182262,16293540,17767528,16295440,17770000,1574,1650,-677,-2708,-211,345,-1535,4862,43,31,820
1183263,16293708,17767668,16295571,17770131,1558,1796,-701,-2594,-98,294,-1230,4835,33,23,821
1184265,16293880,17767812,16295702,17770262,1516,1766,-710,-2524,-24,313,-904,4727,33,23,821
1185266,16294064,17767952,16295833,17770393,1418,1787,-704,-2435,37,175,-607,4876,24,19,822
1186267,16294192,17768076,16295964,17770524,1769,1891,-689,-2298,104,-24,-543,4916,24,19,822
1187268,16294384,17768216,16296095,17770655,1343,1787,-625,-2260,159,-37,-641,4838,29,19,822
1188269,16294536,17768304,16296226,17770786,1584,2132,-445,-2047,220,170,-1056,6172,29,19,822
1189270,16294668,17768392,16296357,17770917,1709,2151,-81,-1519,259,571,-1294,8673,27,15,820
1190271,16294816,17768508,16296488,17771048,1602,1984,215,-1213,283,158,-1249,5681,27,15,820
1191272,16294960,17768596,16296619,17771179,1622,2178,315,-1119,330,-118,-1072,4987,20,14,820
1192273,16295100,17768712,16296750,17771310,1643,2010,291,-1056,359,-203,-305,4891,20,14,820
1193274,16295280,17768828,16296881,17771441,1372,2017,252,-940,304,-294,569,4924,21,32,819
1194274,16295436,17768936,16297012,17771572,1511,2078,221,-756,209,-489,784,4898,21,32,819
1195276,16295548,17769032,16297143,17771703,1794,2168,202,-624,127,-421,313,4657,24,20,820
1196277,16295716,17769144,16297274,17771834,1428,2078,206,-599,53,-332,-167,4339,24,20,820
1197278,16295852,17769236,16297405,17771965,1627,2220,233,-661,-25,-409,-691,4243,25,26,820
1198279,16296004,17769336,16297536,17772096,1518,2184,235,-779,-131,-511,-322,4123,25,26,820
1199279,16296156,17769440,16297667,17772227,1509,2171,182,-829,-284,-667,984,4270,21,28,820
1200281,16296320,17769544,16297798,17772358,1420,2184,105,-760,-487,-767,1733,4351,21,28,820
1201282,16296448,17769624,16297929,17772489,1646,2357,56,-740,-713,-698,1659,3998,20,13,819
1202283,16296572,17769704,16298060,17772620,1674,2380,52,-807,-876,-749,932,3918,20,13,819
1203284,16296740,17769820,16298191,17772751,1383,2162,73,-863,-936,-860,-36,3901,39,16,819
1204285,16296912,17769936,16298322,17772882,1341,2169,64,-997,-942,-931,-1110,3697,39,16,819
1205286,16297040,17770024,16298453,17773013,1617,2363,8,-1162,-902,-1138,-1358,3546,27,15,817
1206287,16297216,17770116,16298584,17773144,1298,2356,-71,-1317,-809,-1204,-890,3473,27,15,817
1207288,16297388,17770220,16298715,17773275,1306,2294,-158,-1366,-664,-1004,-428,3668,36,29,820
1208289,16297524,17770324,16298846,17773406,1528,2306,-246,-1362,-476,-883,-436,3988,36,29,820
1209290,16297712,17770388,16298977,17773537,1178,2586,-287,-1267,-301,-1142,-346,4028,41,13,818
1210290,16297868,17770472,16299108,17773668,1367,2482,-264,-1205,-153,-1524,-640,4061,41,13,818
1211292,16298028,17770568,16299239,17773799,1330,2423,-189,-1017,21,-1729,-1447,4463,20,12,818
1212293,16298172,17770680,16299370,17773930,1425,2333,-116,-777,238,-1798,-1983,4539,20,12,818
1213294,16298300,17770756,16299501,17774061,1526,2582,-80,-572,449,-1930,-2395,4464,26,27,819
1214295,16298468,17770872,16299632,17774192,1260,2339,-53,-397,658,-2275,-2599,4488,26,27,819
1215295,16298612,17770980,16299763,17774323,1404,2400,2,-219,904,-2515,-2811,4399,19,16,819
1216296,16298764,17771068,16299894,17774454,1346,2544,98,-82,1179,-2481,-3007,4435,19,16,819
1217298,16298892,17771172,16300025,17774585,1497,2457,205,68,1433,-2373,-2803,4329,35,26,819
1218299,16299032,17771264,16300156,17774716,1418,2549,323,12,1609,-2198,-2235,3563,35,26,819
1219300,16299160,17771336,16300287,17774847,1495,2701,453,-234,1734,-1833,-1970,3043,37,15,818
1220301,16299276,17771420,16300418,17774978,1576,2648,591,-529,1884,-1371,-2477,3042,37,15,818
1221302,16299404,17771520,16300549,17775109,1504,2562,731,-837,2054,-1007,-2623,2799,30,16,818
1222303,16299524,17771596,16300680,17775240,1559,2737,874,-1272,2171,-948,-2369,2412,30,16,818
1223304,16299628,17771648,16300811,17775371,1670,2923,1007,-1760,2242,-941,-2289,2592,15,6,817
1224304,16299744,17771696,16300942,17775502,1602,2984,1099,-2106,2322,-600,-2051,3012,15,6,817
1225306,16299884,17771728,16301073,17775633,1449,3129,1169,-2319,2392,-376,-1188,3140,14,1,815
1226306,16300000,17771784,16301204,17775764,1606,3013,1214,-2503,2411,-235,-361,3193,14,1,815
1227308,16300108,17771840,16301335,17775895,1666,3046,1224,-2697,2413,15,-255,3313,20,12,813
1228309,16300220,17771876,16301466,17776026,1649,3213,1208,-2811,2403,255,-240,3491,20,12,813
1229310,16300316,17771912,16301597,17776157,1764,3256,1160,-2857,2365,324,-244,3814,13,0,812
1230311,16300428,17771936,16301728,17776288,1674,3379,1077,-2802,2301,267,-316,4021,13,0,812
1231312,16300540,17771980,16301859,17776419,1682,3293,970,-2693,2234,381,-341,4225,18,8,812
1232312,16300648,17772028,16301990,17776550,1717,3306,834,-2496,2170,623,-190,4383,18,8,812
1233314,16300764,17772092,16302121,17776681,1674,3236,675,-2303,2088,720,36,4336,18,1,811
1234315,16300832,17772140,16302252,17776812,2003,3373,531,-2145,1974,760,231,4182,18,1,811
1235316,16300932,17772176,16302383,17776943,1816,3490,419,-2133,1846,850,214,3938,30,5,812
1236317,16301016,17772248,16302514,17777074,1937,3292,312,-2071,1713,919,180,4060,30,5,812
1237318,16301080,17772300,16302645,17777205,2092,3453,188,-2003,1592,989,174,4059,20,17,809
1238318,16301184,17772384,16302776,17777336,1854,3275,68,-2034,1484,1152,228,3652,20,17,809
1239320,16301296,17772448,16302907,17777467,1812,3430,-21,-2145,1369,1355,199,3327,29,11,810
1240320,16301392,17772500,16303038,17777598,1928,3541,-87,-2283,1269,1357,-53,3270,29,11,810
1241322,16301500,17772572,16303169,17777729,1864,3443,-147,-2459,1173,1239,-237,3261,31,14,811
1242322,16301600,17772612,16303300,17777860,1928,3684,-203,-2642,1083,1098,-316,3203,31,14,811
1243324,16301684,17772688,16303431,17777991,2048,3484,-257,-2809,1017,1060,-359,3249,33,23,809
1244325,16301800,17772760,16303562,17778122,1856,3536,-308,-2931,957,1032,-378,3300,33,23,809
1245326,16301876,17772836,16303693,17778253,2130,3536,-346,-3048,901,866,-320,3332,11,22,806
1246327,16301964,17772880,16303824,17778384,2074,3775,-373,-3146,843,778,-206,3450,11,22,806
1247328,16302068,17772940,16303955,17778515,1987,3707,-407,-3166,792,794,-234,3748,13,8,809
1248328,16302148,17772992,16304086,17778646,2159,3793,-445,-3088,757,791,-139,3974,13,8,809
1249342,16302228,17773048,16304217,17778777,2183,3800,-486,-2996,710,823,25,3951,16,2,806
1250343,16302288,17773096,16304348,17778908,2339,3800,-530,-2931,661,928,101,4106,16,2,806
1251345,16302404,17773136,16304479,17779039,1995,3800,-578,-2777,639,1075,79,4261,10,8,806
1252345,16302480,17773196,16304610,17779170,2271,3800,-634,-2577,629,1140,111,4307,10,8,806
1253347,16302560,17773252,16304741,17779301,2268,3800,-688,-2383,622,1169,106,4406,9,21,806
1254347,16302644,17773320,16304872,17779432,2265,3800,-741,-2181,644,1225,-4,4579,9,21,806
1255348,16302732,17773396,16305003,17779563,2258,3800,-794,-1923,684,1233,-134,4716,14,19,806
1256349,16302796,17773452,16305134,17779694,2438,3800,-837,-1679,709,1166,-117,4637,14,19,806
1257351,16302892,17773504,16305265,17779825,2254,3800,-853,-1505,712,1188,1,4460,19,7,806
1258351,16302956,17773548,16305396,17779956,2484,3800,-838,-1412,701,1452,78,4219,19,7,806
1259352,16303008,17773632,16305527,17780087,2594,3800,-805,-1393,694,1627,17,4100,18,8,804
1260353,16303096,17773716,16305658,17780218,2388,3800,-768,-1424,684,1694,56,3916,18,8,804
1261361,16303140,17773784,16305798,17780358,2707,3800,-721,-1520,672,1882,79,3726,6,12,805
1262355,16303168,17773824,16305929,17780489,2852,3800,-672,-1590,668,2116,34,3841,6,12,805
1263356,16303236,17773884,16306060,17780620,2631,3800,-637,-1585,667,2228,-59,4045,7,25,805
1264357,16303284,17773952,16306191,17780751,2792,3800,-611,-1529,660,2218,-86,4134,7,25,805
1265358,16303308,17773996,16306322,17780882,2990,3800,-584,-1480,623,2217,37,4296,11,13,803
1266359,16303356,17774060,16306453,17781013,2876,3800,-562,-1341,576,2301,80,4514,11,13,803
1267360,16303388,17774072,16306584,17781144,3021,3800,-539,-1151,526,2340,136,4596,20,5,802
1268361,16303388,17774060,16306715,17781275,3280,3800,-508,-964,479,2254,272,4589,20,5,802
1269362,16303436,17774076,16306846,17781406,3016,3800,-469,-771,434,2112,219,4762,1,16,801
1270363,16303496,17774092,16306977,17781537,2973,3800,-420,-544,397,2062,176,4703,1,16,801
1271364,16303548,17774112,16307108,17781668,3059,3800,-367,-345,365,2007,205,4579,26,8,798
1272365,16303616,17774144,16307239,17781799,2987,3800,-307,-175,347,1866,124,4448,26,8,798
1273366,16303740,17774144,16307370,17781930,2641,3800,-248,-75,364,1651,-225,4450,26,2,801
1274367,16303824,17774172,16307501,17782061,2912,3800,-193,59,414,1278,-590,4534,26,2,801
1275368,16303900,17774172,16307632,17782192,2987,3800,-131,194,485,862,-823,4442,19,-2,802
1276369,16304028,17774192,16307763,17782323,2664,3800,-55,255,568,480,-960,4279,19,-2,802
1277370,16304120,17774204,16307894,17782454,2907,3800,32,279,659,261,-817,4230,31,4,802
1278371,16304164,17774260,16308025,17782585,3245,3800,128,255,745,296,-500,3936,31,4,802
1279372,16304268,17774276,16308156,17782716,2883,3800,244,92,816,564,-139,3485,33,17,803
1280373,16304336,17774276,16308287,17782847,3137,3800,381,-218,855,889,303,3063,33,17,803
1281374,16304360,17774304,16308418,17782978,3460,3800,515,-570,862,1011,498,2968,29,-1,799
1282376,16304408,17774372,16308549,17783109,3346,3800,630,-905,844,1037,564,2949,29,-1,799
1283377,16304472,17774476,16308680,17783240,3277,3800,719,-1156,819,984,446,3105,25,11,801
1284378,16304508,17774604,16308811,17783371,3494,3800,772,-1301,803,956,-33,3395,25,11,801
1285379,16304576,17774764,16308942,17783502,3323,3800,789,-1356,780,800,-640,3587,11,24,799
1286380,16304668,17774924,16309073,17783633,3191,3800,767,-1302,732,663,-1041,3869,11,24,799
1287381,16304744,17775160,16309204,17783764,3315,3800,757,-1322,658,916,-620,3420,27,52,800
1288381,16304820,17775388,16309335,17783895,3341,3800,771,-1427,557,1466,-307,3273,27,52,800
1289383,16304952,17775636,16309466,17784026,2991,3800,766,-1449,453,1734,-128,3429,30,63,801
1290371,16305112,17775956,16309597,17784157,2804,3296,735,-1494,351,1576,124,3267,30,63,801
1291372,16305252,17776284,16309728,17784288,2926,3161,690,-1470,260,1313,-172,3478,33,63,801
1292373,16305388,17776568,16309859,17784419,2950,3371,672,-1436,239,858,-729,3715,33,63,801
1293374,16305512,17776884,16309990,17784550,3029,3090,674,-1196,306,660,-1394,4247,34,56,807
1294375,16305616,17777272,16310121,17784681,3166,2529,717,-992,417,726,-892,3767,34,56,807
1295376,16305676,17777604,16310252,17784812,3473,2792,793,-967,527,901,-429,3417,16,64,807
1296377,16305760,17777928,16310383,17784943,3345,2759,866,-982,564,1309,116,3277,16,64,807
1297378,16305840,17778256,16310514,17785074,3394,2649,951,-1098,563,1596,419,2709,23,75,810
1298379,16305916,17778612,16310645,17785205,3444,2376,1015,-1165,551,1560,631,2886,23,75,810
1299380,16306012,17778944,16310776,17785336,3335,2438,1031,-1216,495,1424,1268,2839,34,70,808
1300381,16306120,17779280,16310907,17785467,3271,2325,998,-1198,416,1464,1408,3065,34,70,808
1301382,16306228,17779564,16311038,17785598,3282,2584,920,-1020,338,1547,1509,3369,15,68,809
1302383,16306384,17779912,16311169,17785729,2972,2090,798,-819,260,1325,1521,3578,15,68,809
