"Data file recorded 2014/9/24  14:2:53"
"%  Right Stride Frequency         = 7.0"
"%  Left Stride Frequency         = 7.0"
"%  Phase (Fractional)         = 32768.0"
"%  Experiment.py "
"%  Motor Gains    = [1800, 200, 100, 0, 0, 1800, 200, 100, 0, 0]
"% Columns: "
"% time | Right Leg Pos | Left Leg Pos | Commanded Right Leg Pos | Commanded Left Leg Pos | DCR | DCL | GyroX | GryoY | GryoZ | AX | AY | AZ | RBEMF | LBEMF | VBatt "
11596,18201388,19013788,18165690,19050426,-3800,3800,558,737,-1133,397,-128,4071,-12,-5,878
12597,18201372,19013792,18166158,19050894,-3800,3800,557,734,-1133,403,-149,4082,-12,-5,878
13598,18201312,19013840,18166626,19051362,-3800,3800,557,731,-1138,400,-132,4104,-10,6,878
14599,18201176,19013944,18167094,19051830,-3800,3800,557,734,-1139,377,-96,4102,-10,6,878
15600,18200996,19014068,18167562,19052298,-3800,3800,552,736,-1152,312,71,4158,-31,19,837
16602,18200816,19014248,18168030,19052766,-3800,3800,525,769,-1161,427,-21,4155,-31,19,837
17602,18200432,19014428,18168498,19053234,-3800,3800,487,793,-1155,700,214,3965,-71,29,837
18604,18200048,19014608,18168966,19053702,-3800,3800,427,780,-1168,779,805,4049,-71,29,837
19604,18199508,19014808,18169434,19054170,-3800,3800,359,811,-1189,905,945,4006,-79,38,840
20606,18199008,19014988,18169902,19054638,-3800,3800,276,738,-1196,1390,791,3878,-79,38,840
21606,18198404,19015180,18170370,19055106,-3800,3800,189,688,-1192,2047,1257,3807,-120,21,842
22607,18197736,19015348,18170838,19055574,-3800,3800,74,631,-1192,2596,1210,3820,-120,21,842
23608,18197084,19015480,18171306,19056042,-3800,3800,-48,666,-1219,2911,846,3852,-126,8,842
24610,18196412,19015588,18171774,19056510,-3800,3800,-180,724,-1265,2770,663,4139,-126,8,842
25610,18195708,19015700,18172242,19056978,-3800,3800,-305,989,-1289,2443,545,4551,-120,10,841
26612,18194944,19015792,18172710,19057446,-3800,3800,-432,1214,-1296,2240,821,4516,-120,10,841
27613,18194216,19015904,18173178,19057914,-3800,3800,-583,1412,-1293,2369,824,4601,-141,12,841
28614,18193500,19016004,18173646,19058382,-3800,3800,-735,1699,-1286,2310,976,4806,-141,12,841
29602,18192744,19016088,18174114,19058850,-3226,3800,-863,1955,-1243,2133,557,4515,-117,9,842
30603,18192076,19016176,18174582,19059318,-3279,3800,-996,2114,-1185,2021,135,4533,-117,9,842
31604,18191468,19016292,18175050,19059786,-3185,3800,-1122,2207,-1103,1847,-204,4401,-126,16,842
32605,18190848,19016408,18175518,19060254,-2635,3800,-1240,2267,-1043,1752,-203,4292,-126,16,842
33606,18190336,19016524,18175986,19060722,-2883,3800,-1346,2292,-1011,1556,-220,4161,-111,15,844
34607,18189908,19016660,18176454,19061190,-3016,3800,-1440,2158,-938,1241,-299,4112,-111,15,844
35608,18189532,19016832,18176922,19061658,-2973,3800,-1553,2107,-806,1398,-957,4357,-91,23,846
36609,18189248,19016980,18177390,19062126,-3220,3800,-1667,2034,-679,1507,-1506,4009,-91,23,846
37610,18189032,19017172,18177858,19062594,-3347,3800,-1758,1864,-581,1359,-1905,4010,-44,26,842
38611,18188860,19017372,18178326,19063062,-3343,3800,-1841,1761,-474,1372,-2384,4683,-44,26,842
39612,18188740,19017588,18178794,19063530,-3411,3800,-764,3691,-360,3978,-3461,23588,-25,23,839
40613,18188620,19017804,18179262,19063998,-3155,3800,1441,7977,-321,5395,-3906,32767,-25,23,839
41614,18188528,19018048,18179730,19064466,-3085,3800,2488,9555,-254,2031,-2000,5377,-26,34,840
42615,18188452,19018356,18180198,19064934,-2948,3800,2253,8476,-136,1497,-1379,1866,-26,34,840
43616,18188368,19018668,18180666,19065402,-2657,3800,1752,6499,-5,1592,-1578,844,-12,44,842
44617,18188296,19018988,18181134,19065870,-2496,3800,1454,5004,120,1665,-1277,980,-12,44,842
45618,18188256,19019308,18181602,19066338,-2475,3800,1363,3649,198,1513,-460,411,-24,58,844
46619,18188236,19019656,18182070,19066806,-2386,3800,1302,2218,105,1834,482,70,-24,58,844
47620,18188192,19020004,18182538,19067274,-2012,3800,1184,806,-126,1890,447,448,-15,53,845
48621,18188216,19020372,18183006,19067742,-2243,3800,1101,-546,-438,1367,232,802,-15,53,845
49622,18188200,19020732,18183474,19068210,-1781,3800,1037,-1677,-825,869,788,1530,-10,62,846
50623,18188192,19021152,18183942,19068678,-1623,3800,1001,-2526,-1243,43,986,2187,-10,62,846
51624,18188192,19021612,18184410,19069146,-1469,3800,927,-3035,-1673,-407,809,3525,9,77,849
52625,18188196,19022044,18184878,19069614,-1291,3800,826,-3176,-2114,-751,-351,4316,9,77,849
53626,18188192,19022524,18185346,19070082,-1033,3800,770,-3143,-2483,-1130,-1892,4806,-9,81,853
54626,18188196,19023088,18185814,19070550,-880,3800,837,-2994,-2812,-1248,-2321,4968,-9,81,853
55627,18188200,19023620,18186282,19071018,-676,3800,964,-2907,-3154,-1095,-2116,4960,9,99,855
56629,18188216,19024188,18186750,19071486,-554,3800,1123,-2741,-3433,-914,-2173,5136,9,99,855
57630,18188232,19024744,18187218,19071954,-355,3800,1338,-2607,-3572,-647,-2158,4722,2,104,857
58631,18188260,19025360,18187686,19072422,-237,3800,1583,-2592,-3597,-243,-2023,4505,2,104,857
59632,18188280,19025992,18188154,19072890,10,3800,1834,-2640,-3550,202,-1620,4211,6,122,858
60640,18188320,19026724,18181606,19066342,-422,3800,2118,-2682,-3448,571,-1239,3847,6,122,858
61634,18188396,19027420,18182074,19066810,-476,3800,2428,-2795,-3332,859,-774,3408,6,135,860
62635,18188440,19028244,18182542,19067278,-91,3800,2764,-3051,-3167,1237,-619,3076,6,135,860
63636,18188484,19029004,18183010,19067746,94,3800,3094,-3245,-2945,1600,-615,3013,11,134,861
64637,18188560,19029868,18183478,19068214,65,3800,3401,-3441,-2701,1856,-455,2687,11,134,861
65637,18188652,19030792,18183946,19068682,129,3800,3688,-3583,-2458,1972,-204,2784,18,156,863
66638,18188748,19031688,18184414,19069150,267,3800,3953,-3602,-2234,2047,0,2972,18,156,863
67639,18188880,19032564,18184882,19069618,190,3800,4205,-3527,-2033,2112,93,2864,18,156,863
68641,18189000,19033456,18185350,19070086,416,3800,4434,-3287,-1854,2189,179,3143,18,156,863
69641,18189124,19034404,18185818,19070554,542,3800,4622,-2955,-1710,2105,223,3117,41,179,862
70642,18189288,19035336,18186286,19071022,424,3800,4793,-2614,-1605,1934,14,2968,41,179,862
71643,18189452,19036340,18186754,19071490,558,3800,4959,-2209,-1540,1756,-239,2911,49,179,861
72645,18189600,19037328,18187222,19071958,797,3800,5108,-1715,-1504,1714,-608,3030,49,179,861
73646,18189812,19038380,18187690,19072426,510,3800,5208,-985,-1477,1582,-1268,3368,32,195,863
74646,18189980,19039316,18188158,19072894,916,3800,5270,-167,-1438,1403,-1767,3273,32,195,863
75648,18190160,19040216,18188626,19073362,967,3800,5358,649,-1427,1333,-1731,2870,50,190,863
76648,18190392,19041252,18189094,19073830,746,3800,5473,1431,-1449,1297,-1881,2574,50,190,863
77649,18190624,19042136,18189562,19074298,850,3800,5571,2200,-1484,1392,-2033,2378,40,193,862
78650,18190852,19043036,18190030,19074766,979,3800,5652,2950,-1561,1375,-2147,1861,40,193,862
79651,18191092,19044008,18190498,19075234,1004,3800,5718,3580,-1684,1305,-2198,1333,44,181,862
80653,18191332,19044948,18190966,19075702,1105,3800,5778,4156,-1831,1387,-2221,1010,44,181,862
81653,18191588,19045824,18191434,19076170,1098,3800,5806,4731,-1952,1428,-2503,788,49,189,860
82654,18191884,19046872,18191902,19076638,923,3800,5802,5232,-2017,1465,-2724,317,49,189,860
83655,18192184,19047760,18192370,19077106,972,3800,5780,5588,-2030,1647,-2817,-211,51,181,861
84656,18192488,19048636,18192838,19077574,1019,3800,5734,5843,-2050,1635,-1679,-540,51,181,861
85657,18192756,19049480,18193306,19078042,1332,3800,5636,5998,-2128,1720,-1020,-898,59,186,862
86658,18193060,19050400,18193774,19078510,1179,3800,5463,6035,-2256,1886,-975,-1398,59,186,862
87659,18193332,19051356,18194242,19078978,1465,3800,5210,6007,-2466,1884,-575,-1596,72,184,862
88660,18193624,19052296,18194710,19079446,1418,3800,4857,5928,-2810,1836,164,-1784,72,184,862
89661,18193924,19053204,18195178,19079914,1443,3800,4422,5697,-3357,1642,1777,-2241,67,174,861
90662,18194240,19054048,18195646,19080382,1409,3800,3947,5298,-4103,1565,3114,-2752,67,174,861
91663,18194556,19054904,18196114,19080850,1476,3800,3495,4727,-4903,1765,3366,-3211,66,165,857
92665,18194880,19055736,18196582,19081318,1490,3800,3072,4009,-5625,1943,3364,-3539,66,165,857
93666,18195192,19056700,18197050,19081786,1634,3800,2608,3219,-6096,2353,2754,-3388,62,178,858
94667,18195464,19057444,18197518,19082254,1970,3800,2043,2534,-6202,2700,1840,-3008,62,178,858
95674,18195844,19058344,18197990,19082726,1337,3800,1427,2043,-6094,2386,1296,-2210,56,162,858
96669,18196124,19059264,18198458,19083194,2044,3800,872,1699,-5923,1955,1157,-1996,56,162,858
97670,18196428,19060180,18198926,19083662,1966,3800,435,1360,-5707,1882,897,-2141,77,171,856
98671,18196800,19061196,18199394,19084130,1584,3800,130,994,-5288,1872,715,-2082,77,171,856
99671,18197124,19062116,18199862,19084598,1948,3800,-76,643,-4674,1851,997,-1815,80,177,857
100673,18197408,19062960,18200330,19085066,2280,3800,-384,517,-4023,1650,1452,-702,80,177,857
101673,18197816,19064012,18200798,19085534,1531,3800,-799,690,-3358,1298,2169,-156,85,205,861
102675,18198164,19065028,18201266,19086002,1960,3800,-1261,811,-2722,1127,3088,-377,85,205,861
103675,18198560,19066044,18201734,19086470,1692,3800,-1684,892,-2151,894,4007,-211,88,203,856
104677,18198940,19067196,18202202,19086938,1831,3800,-2045,1070,-1592,244,4538,104,88,203,856
105678,18199344,19068108,18202670,19087406,1710,3800,-2417,1372,-1002,-240,4390,588,74,200,859
106679,18199704,19069044,18203138,19087874,2033,3800,-2815,1816,-386,-596,4188,1457,74,200,859
107679,18200056,19069940,18203606,19088342,2135,3800,-3243,2490,201,-875,4432,2248,88,178,859
108681,18200464,19070872,18204074,19088810,1812,3800,-3760,3445,672,-1206,4862,3461,88,178,859
109682,18200824,19071836,18204542,19089278,2159,3800,-4363,4598,1019,-2089,5447,4319,83,184,858
110683,18201160,19072676,18205010,19089746,2368,3800,-4955,5725,1233,-3039,5590,4435,83,184,858
111683,18201552,19073452,18205478,19090214,2053,3800,-5525,6811,1277,-3591,6003,4458,78,184,859
112685,18201876,19074180,18205946,19090682,2542,3800,-6105,7643,1180,-3923,5982,4114,78,184,859
113686,18202232,19074872,18206414,19091150,2391,3800,-6713,8244,1052,-4187,5216,4069,69,139,854
114687,18202592,19075424,18206882,19091618,2415,3800,-7406,8826,866,-4884,4509,4834,69,139,854
115687,18202924,19076000,18207350,19092086,2651,3800,-8314,9672,628,-5282,3144,6070,84,123,850
116689,18203272,19076476,18207818,19092554,2604,3800,-9170,10245,262,-5979,3244,4742,84,123,850
117690,18203596,19076868,18208286,19093022,2819,3800,-9964,10316,-296,-7237,3161,4308,79,90,851
118691,18203892,19077232,18208754,19093490,3070,3800,-10752,10044,-1073,-8235,2695,4306,79,90,851
119691,18204180,19077516,18209222,19093958,3200,3800,-11584,9905,-1992,-8814,2137,5084,54,66,848
120693,18204488,19077776,18209690,19094426,3147,3800,-12412,9794,-2901,-9233,1304,4769,54,66,848
121693,18204784,19077988,18210158,19094894,3298,3800,-13048,8758,-3747,-9392,579,2460,73,46,844
122694,18205048,19078180,18210626,19095362,3589,3800,-8751,3357,-3594,-17308,-9589,15336,73,46,844
123695,18205320,19078364,18211094,19095830,3626,3800,4887,-8625,-1746,-19910,-26749,32767,48,44,843
124696,18205608,19078544,18211562,19096298,3606,3800,11680,-14158,-852,-3784,-6977,2535,48,44,843
125698,18205892,19078716,18212030,19096766,3713,3800,9459,-13525,-422,-7005,-4483,556,59,36,838
126711,18206164,19078940,18212498,19097234,3800,3800,5662,-10120,-166,-7523,-3439,4626,59,36,838
127699,18206472,19079116,18212966,19097702,3721,3800,2579,-8701,557,-6712,-3900,10189,69,42,839
128713,18206736,19079320,18213434,19098170,3800,3800,486,-6809,1731,-6185,-4211,10962,69,42,839
129714,18207028,19079544,18213902,19098638,3800,3800,-412,-7656,2702,-7417,-2743,986,55,41,836
130722,18207344,19079744,18214374,19099110,3800,3800,-297,-9718,3081,-6909,-1103,-1008,55,41,836
131716,18207620,19080000,18214842,19099578,3800,3800,-92,-12005,3298,-5945,-996,-396,65,52,838
132717,18207880,19080184,18215310,19100046,3800,3800,-133,-13448,3579,-4708,-362,1575,65,52,838
133718,18208188,19080368,18215778,19100514,3800,3800,-488,-13917,4085,-3062,-1648,3334,59,51,838
134719,18208436,19080556,18216246,19100982,3800,3800,-823,-14738,4748,-2047,-2260,1737,59,51,838
135720,18208692,19080748,18216714,19101450,3800,3800,-971,-15433,5289,-772,-1859,2254,71,45,836
136721,18208932,19080964,18217182,19101918,3800,3800,-1081,-15924,5591,194,-1167,3784,71,45,836
137722,18209148,19081188,18217650,19102386,3800,3800,-1418,-15517,5756,443,-2120,6521,44,34,836
138723,18209360,19081428,18218118,19102854,3800,3800,-1741,-14765,5935,812,-3436,6270,44,34,836
139724,18209584,19081692,18218586,19103322,3800,3800,-1786,-14258,5936,1367,-2959,5264,52,55,837
140725,18209808,19081980,18219054,19103790,3800,3800,-1700,-13696,5671,1601,-2974,6271,52,55,837
141726,18209996,19082288,18219522,19104258,3800,3800,-1559,-13018,5297,1387,-3956,6693,53,59,838
142727,18210196,19082708,18219990,19104726,3800,3800,-1403,-12173,4956,1704,-4773,6810,53,59,838
143728,18210344,19083124,18220458,19105194,3800,3800,-1159,-11350,4584,2635,-4432,6246,42,71,838
144729,18210528,19083480,18220926,19105662,3800,3800,-799,-10677,4129,3805,-3741,5562,42,71,838
145730,18210716,19083932,18221394,19106130,3800,3800,-361,-10260,3606,4865,-3155,4755,31,84,839
146731,18210900,19084388,18221862,19106598,3800,3800,103,-10046,3080,5173,-2887,4298,31,84,839
147732,18211104,19084868,18222330,19107066,3800,3800,580,-9734,2582,4922,-2762,4215,38,95,838
148733,18211280,19085400,18222798,19107534,3800,3800,1126,-9450,2125,4655,-2406,3645,38,95,838
149734,18211420,19085920,18223266,19108002,3800,3800,1752,-9286,1718,4873,-2060,3053,42,93,839
150735,18211540,19086384,18223734,19108470,3800,3800,2408,-9176,1375,5118,-2174,2770,42,93,839
151736,18211648,19086980,18224202,19108938,3800,3800,3035,-8948,1080,4933,-2368,2742,19,109,839
152737,18211756,19087532,18224670,19109406,3800,3800,3670,-8669,843,4422,-2668,2681,19,109,839
153738,18211852,19088228,18225138,19109874,3800,3800,4309,-8128,718,3719,-3193,3346,17,110,839
154739,18211964,19088796,18225606,19110342,3800,3800,4864,-7234,675,3207,-3387,3977,17,110,839
155740,18212088,19089488,18226074,19110810,3800,3800,5308,-5980,756,2863,-4277,4734,34,117,840
156741,18212228,19090140,18226542,19111278,3800,3800,5595,-4164,1117,2418,-6106,6512,34,117,840
157742,18212392,19090836,18227010,19111746,3800,3800,5770,-1949,1662,2006,-6094,7109,44,146,840
158743,18212592,19091504,18227478,19112214,3800,3800,5978,146,2058,1317,-4556,6312,44,146,840
159744,18212744,19092316,18227946,19112682,3800,3800,6284,1920,2169,682,-3448,5292,46,145,841
160745,18212908,19093044,18228414,19113150,3800,3800,6642,3474,2136,362,-2984,4434,46,145,841
161746,18213056,19093912,18228882,19113618,3800,3800,7010,4864,2171,523,-2750,3767,40,155,842
162747,18213220,19094764,18229350,19114086,3800,3800,7302,6240,2301,859,-2581,3478,40,155,842
163748,18213388,19095676,18229818,19114554,3800,3800,7546,7492,2532,1120,-2705,2702,38,175,843
164749,18213592,19096716,18230286,19115022,3800,3800,7751,8586,2849,1619,-2737,2155,38,175,843
165759,18213776,19097616,18230758,19115494,3800,3800,7882,9518,3190,1829,-2311,1690,41,190,843
166751,18214024,19098568,18231226,19115962,3800,3800,8006,10195,3522,1677,-1887,670,41,190,843
167752,18214228,19099588,18231694,19116430,3800,3800,8172,10460,3838,1832,-1871,-663,60,195,844
168753,18214428,19100592,18232162,19116898,3800,3800,8324,10374,4135,1938,-1661,-1646,60,195,844
169754,18214652,19101560,18232630,19117366,3800,3800,8423,10175,4425,2152,-1506,-1798,42,184,843
170742,18214840,19102736,18233098,19117834,3800,3114,8439,9983,4681,2308,-1278,-2133,42,184,843
171743,18215068,19103836,18233566,19118302,3800,3315,8422,9687,4898,2312,-938,-2490,45,198,845
172744,18215328,19104856,18234034,19118770,3800,3575,8350,9373,5029,2470,-706,-2601,45,198,845
173745,18215652,19105828,18234502,19119238,3800,3656,8184,9170,5188,2758,-938,-2038,70,193,846
174747,18215996,19106812,18234970,19119706,3800,3357,7797,9377,5500,3298,-1450,-432,70,193,846
175747,18216396,19107844,18235438,19120174,3800,2811,7260,10034,5691,2840,-722,186,84,195,847
176749,18216852,19108780,18235906,19120642,3800,3208,6759,10615,5557,2089,362,-890,84,195,847
177749,18217464,19109704,18236374,19121110,3800,3085,6292,10913,5106,2435,1310,-1225,96,199,849
178751,18218016,19110720,18236842,19121578,3800,2271,5738,11202,4548,3337,1641,-837,96,199,849
179751,18218616,19111620,18237310,19122046,3800,2808,5015,11536,3996,3373,1480,-644,123,195,849
180753,18219212,19112500,18237778,19122514,3800,2754,4277,11856,3396,3010,1337,-939,123,195,849
181753,18219788,19113492,18238246,19122982,3800,1826,3663,11940,2732,2962,2060,-1790,127,193,854
182754,18220412,19114408,18238714,19123450,3800,2106,3042,11935,2087,3981,2325,-1917,127,193,854
183755,18221076,19115228,18239182,19123918,3800,2553,2401,11906,1446,5020,2885,-2480,127,178,853
184757,18221688,19116136,18239650,19124386,3800,1811,1825,11551,754,5177,3430,-3400,127,178,853
185757,18222376,19117020,18240118,19124854,3800,1780,1327,10922,-38,5362,3700,-3940,130,185,856
186759,18223084,19117940,18240586,19125322,3800,1358,903,10233,-939,5373,4045,-4086,130,185,856
187759,18223924,19118804,18241054,19125790,3800,1536,503,9534,-1863,5385,4498,-4250,157,164,856
188760,18224712,19119516,18241522,19126258,3800,2379,71,8886,-2904,5290,4888,-4159,157,164,856
189761,18225532,19120340,18241990,19126726,3800,1524,-363,8242,-4077,4804,5478,-3970,135,172,858
190762,18226428,19121084,18242458,19127194,3800,1905,-691,7557,-5199,5164,4869,-4354,135,172,858
191763,18227328,19121920,18242926,19127662,3800,1169,-884,6660,-6174,5196,5074,-5236,154,158,854
192765,18228208,19122660,18243394,19128130,3800,1650,-925,5506,-7052,4211,4966,-5843,154,158,854
193753,18229140,19123312,18243862,19128598,3613,2120,-993,4390,-7820,3490,2945,-5249,156,142,858
194767,18230008,19124144,18244330,19129066,3800,836,-1191,3561,-8331,3255,179,-4184,156,142,858
195767,18230856,19124892,18244798,19129534,3800,1239,-1453,3338,-8512,3088,-808,-3048,162,154,858
196756,18231800,19125604,18245266,19130002,2994,1358,-1699,3199,-8393,2379,-882,-3431,162,154,858
197757,18232684,19126392,18245734,19130470,3189,744,-1838,2754,-8034,1734,-669,-3660,166,147,861
198758,18233580,19127024,18246202,19130938,2928,1647,-1924,2563,-7468,1614,-1037,-2473,166,147,861
199759,18234528,19127576,18246670,19131406,2395,2111,-1954,2698,-6770,682,-1209,-2146,169,158,864
200767,18235348,19128396,18247142,19131878,3044,284,-1865,2697,-6032,-603,-1223,-2402,169,158,864
201761,18236144,19129036,18247610,19132346,3052,1334,-1667,2707,-5372,-1341,-315,-1988,186,146,862
202762,18237048,19129792,18248078,19132814,2188,483,-1508,2867,-4786,-1614,337,-1635,186,146,862
203763,18237840,19130480,18248546,19133282,2748,812,-1412,3050,-4200,-2127,660,-1778,171,157,865
204764,18238584,19131120,18249014,19133750,2929,1036,-1393,3258,-3696,-2744,943,-872,171,157,865
205765,18239264,19131776,18249482,19134218,3238,855,-1552,4005,-3199,-2855,459,1100,160,146,869
206766,18239956,19132464,18249950,19134686,3066,558,-1810,5165,-2694,-2803,1349,1457,160,146,869
207767,18240560,19133056,18250418,19135154,3558,1104,-2067,6211,-2255,-2748,2466,1109,134,138,864
208781,18241068,19133728,18250886,19135622,3800,515,-2267,6830,-1888,-2743,3258,650,134,138,864
209781,18241552,19134296,18251354,19136090,3800,1121,-2410,7181,-1552,-2632,3783,527,102,147,863
210782,18241980,19134896,18251822,19136558,3800,864,-2410,7346,-1200,-2397,4043,-11,102,147,863
211783,18242320,19135412,18252290,19137026,3800,1368,-2358,7281,-765,-2223,3698,-186,86,121,858
212784,18242636,19135900,18252758,19137494,3800,1534,-2365,7094,-265,-1861,3602,-219,86,121,858
213785,18242836,19136372,18253226,19137962,3800,1633,-2515,6691,139,-1378,4746,-323,52,112,854
214786,18243016,19136788,18253694,19138430,3800,2006,-2732,6104,352,-915,5585,-482,52,112,854
215787,18243168,19137124,18254162,19138898,3800,2564,-2950,5321,450,-696,5793,-424,47,79,851
216788,18243244,19137436,18254630,19139366,3800,2784,-3302,4568,411,-520,6018,307,47,79,851
217789,18243308,19137692,18255098,19139834,3800,3227,-3766,4143,346,-250,5422,1683,30,71,847
218790,18243348,19137932,18255566,19140302,3800,3427,-4313,4133,244,-46,5250,3375,30,71,847
219791,18243392,19138132,18256034,19140770,3800,3796,-5364,5596,-283,29,7414,9782,19,39,842
220805,18243432,19138312,18256502,19141238,3800,3800,-6883,7864,-1423,-732,9499,10913,19,39,842
221806,18243484,19138464,18256970,19141706,3800,3800,-8605,9959,-3175,-1633,11143,10615,6,46,837
222807,18243552,19138628,18257438,19142174,3800,3800,-10316,11079,-5404,-2477,12223,8237,6,46,837
223808,18243640,19138764,18257906,19142642,3800,3800,-11984,10890,-7794,-3159,13194,12396,26,44,833
224809,18243776,19138880,18258374,19143110,3800,3800,-2566,521,-8667,-12377,288,32767,26,44,833
225810,18243900,19139012,18258842,19143578,3800,3800,10926,-10645,-8573,-3724,-8311,27892,26,34,833
226811,18244056,19139136,18259310,19144046,3800,3800,12706,-12057,-9084,600,6966,-8252,26,34,833
227812,18244220,19139264,18259778,19144514,3800,3800,7860,-5892,-9982,-4457,7450,-12462,33,21,835
228813,18244432,19139376,18260246,19144982,3800,3800,3405,-2260,-10694,-5351,4732,1604,33,21,835
229814,18244644,19139520,18260714,19145450,3800,3800,1844,-932,-9968,-5727,-2966,3161,48,25,835
230815,18244892,19139664,18261182,19145918,3800,3800,1487,-1733,-8710,-6622,-1298,3304,48,25,835
231816,18245172,19139820,18261650,19146386,3800,3800,1592,-2485,-8342,-7085,3912,1984,59,31,836
232817,18245456,19139980,18262118,19146854,3800,3800,1568,-3228,-8373,-6893,4321,1844,59,31,836
233818,18245752,19140156,18262586,19147322,3800,3800,1261,-3105,-8183,-6238,2683,3641,62,29,837
234819,18246068,19140356,18263054,19147790,3800,3800,702,-1975,-7299,-5716,292,6914,62,29,837
235827,18246372,19140596,18263526,19148262,3800,3800,295,-410,-5905,-5952,-471,7617,72,57,836
236821,18246704,19140860,18263994,19148730,3800,3800,76,724,-4627,-6177,302,5010,72,57,836
237822,18247060,19141168,18264462,19149198,3800,3800,88,1081,-3672,-6079,1218,2995,74,56,838
238823,18247384,19141484,18264930,19149666,3800,3800,77,811,-2850,-6149,1119,1231,74,56,838
239824,18247720,19141832,18265398,19150134,3800,3800,199,26,-2082,-5731,1226,-306,65,73,839
240825,18248092,19142248,18265866,19150602,3800,3800,373,-927,-1378,-4775,863,-840,65,73,839
241826,18248404,19142712,18266334,19151070,3800,3800,540,-1687,-625,-4204,75,-807,58,92,840
242827,18248708,19143172,18266802,19151538,3800,3800,734,-2322,115,-4214,37,-154,58,92,840
243828,18249028,19143656,18267270,19152006,3800,3800,841,-2431,749,-4051,431,1661,60,104,840
244829,18249288,19144204,18267738,19152474,3800,3800,909,-2337,1300,-3744,231,1380,60,104,840
245830,18249536,19144716,18268206,19152942,3800,3800,923,-2137,1847,-3599,-1384,1674,49,111,839
246831,18249776,19145280,18268674,19153410,3800,3800,915,-1846,2364,-4085,-2863,2179,49,111,839
247819,18250048,19145876,18269142,19153878,3800,3712,964,-1608,2700,-4251,-3158,1736,47,121,839
248833,18250320,19146420,18269610,19154346,3800,3800,1121,-1430,2820,-4053,-3391,894,47,121,839
249834,18250580,19146980,18270078,19154814,3800,3800,1221,-1136,2823,-4094,-4331,1691,47,115,840
250835,18250896,19147524,18270546,19155282,3800,3800,1252,-557,2798,-4114,-5191,2245,47,115,840
251824,18251164,19148108,18271014,19155750,3800,3635,1248,164,2682,-3988,-5484,2709,66,117,841
252825,18251456,19148756,18271482,19156218,3800,3157,1309,906,2458,-3560,-5828,2036,66,117,841
253826,18251784,19149312,18271950,19156686,3800,3695,1611,1051,2136,-3253,-5603,-317,76,123,840
254826,18252048,19149940,18272418,19157154,3800,3176,2026,870,1754,-2909,-5580,-294,76,123,840
255827,18252324,19150552,18272886,19157622,3800,3214,2336,969,1485,-1834,-5927,960,58,130,845
256829,18252628,19151192,18273354,19158090,3800,2965,2508,1292,1404,-825,-6018,750,58,130,845
257829,18252888,19151828,18273822,19158558,3800,2917,2719,1323,1295,-530,-4971,-514,63,124,843
258831,18253140,19152468,18274290,19159026,3800,2818,3071,846,1091,-390,-3586,-1680,63,124,843
259831,18253408,19153068,18274758,19159494,3800,3011,3501,32,777,-143,-1672,-2268,62,122,846
260832,18253640,19153768,18275226,19159962,3800,2285,3872,-766,471,216,-1197,-2126,62,122,846
261833,18253888,19154388,18275694,19160430,3800,2720,4159,-1449,284,507,-1935,-1909,42,132,846
262834,18254136,19155080,18276162,19160898,3800,2172,4470,-2166,147,472,-1910,-2241,42,132,846
263835,18254400,19155796,18276630,19161366,3800,1915,4812,-2844,-76,386,-850,-2165,61,133,849
264837,18254644,19156480,18277098,19161834,3800,2021,5081,-3467,-349,486,-407,-2059,61,133,849
265837,18254904,19157132,18277566,19162302,3800,2141,5257,-3931,-566,497,-515,-1553,43,123,849
266838,18255168,19157868,18278034,19162770,3800,1500,5328,-4225,-693,352,-640,-1224,43,123,849
267839,18255456,19158512,18278502,19163238,3800,1998,5338,-4372,-749,249,-814,-1159,49,144,849
268840,18255736,19159264,18278970,19163706,3800,1199,5268,-4298,-713,247,-1146,-469,49,144,849
269841,18256124,19160024,18279438,19164174,3800,1021,5126,-4007,-601,149,-1135,-104,75,135,851
270849,18256472,19160804,18279910,19164646,3800,762,4964,-3725,-452,25,-1046,-409,75,135,851
271843,18256804,19161400,18280378,19165114,3800,1857,4792,-3461,-276,-186,-1252,-281,80,138,854
272845,18257220,19162136,18280846,19165582,3800,865,4614,-3146,-51,-238,-1321,-27,80,138,854
273845,18257616,19162792,18281314,19166050,3800,1282,4393,-2730,241,-166,-1020,130,73,134,855
274847,18258020,19163560,18281782,19166518,3800,451,4140,-2239,578,19,-740,230,73,134,855
275847,18258504,19164172,18282250,19166986,3800,1363,3869,-1690,946,207,-441,336,88,123,856
276849,18258936,19164824,18282718,19167454,3800,1033,3603,-1133,1287,388,4,234,88,123,856
277849,18259404,19165444,18283186,19167922,3800,1166,3327,-635,1574,524,772,32,74,121,857
278850,18259924,19166064,18283654,19168390,3800,1101,3066,-274,1767,580,1451,-302,74,121,857
279851,18260432,19166744,18284122,19168858,3800,633,2888,-95,1877,590,1695,-983,100,122,854
280853,18260944,19167288,18284590,19169326,3800,1450,2795,-240,1928,672,2184,-1839,100,122,854
281853,18261516,19167904,18285058,19169794,3800,935,2701,-544,1953,859,2750,-2152,106,122,855
282854,18262116,19168464,18285526,19170262,3800,1245,2522,-772,2016,939,2670,-1713,106,122,855
283855,18262684,19169132,18285994,19170730,3800,483,2288,-939,2037,764,3071,-1752,126,124,855
284856,18263340,19169704,18286462,19171198,3800,1037,2069,-1232,1921,767,4102,-2186,126,124,855
285857,18263992,19170272,18286930,19171666,3800,1018,1891,-1753,1718,1145,4682,-2632,127,121,856
286858,18264668,19170792,18287398,19172134,3800,1296,1793,-2516,1531,1591,4046,-3423,127,121,856
287859,18265348,19171284,18287866,19172602,3800,1461,1665,-3581,1408,2004,2692,-3930,133,125,858
288861,18266120,19171920,18288334,19173070,3800,487,1551,-4673,1331,2141,1874,-3996,133,125,858
289862,18266860,19172412,18288802,19173538,3800,1376,1414,-5772,1264,2029,1657,-3811,146,114,856
290863,18267588,19172928,18289270,19174006,3800,1206,1289,-6695,1214,2052,1473,-3323,146,114,856
291863,18268360,19173476,18289738,19174474,3800,971,1092,-7381,1253,2208,993,-2338,152,114,859
292865,18269052,19173936,18290206,19174942,3800,1525,778,-7718,1300,2450,1207,-1128,152,114,859
293865,18269756,19174476,18290674,19175410,3800,993,280,-7607,1348,2906,982,613,158,96,859
294867,18270428,19174984,18291142,19175878,3800,1175,-264,-7299,1393,3129,519,615,158,96,859
295867,18271032,19175400,18291610,19176346,3800,1773,-693,-7133,1423,3454,190,210,145,93,856
296869,18271604,19175848,18292078,19176814,3800,1583,-1078,-7093,1412,3668,268,335,145,93,856
297870,18272200,19176264,18292546,19177282,3800,1806,-1607,-6673,1395,3897,-277,2116,108,98,856
298870,18272740,19176652,18293014,19177750,3800,2016,-2393,-5728,1436,4018,-1370,3411,108,98,856
299871,18273232,19176980,18293482,19178218,3800,2453,-3158,-4633,1531,4164,-1387,3130,112,89,855
300872,18273820,19177376,18293950,19178686,3800,2059,-4120,-3440,1580,4399,-1748,4480,112,89,855
301873,18274256,19177768,18294418,19179154,3800,2119,-5260,-1992,1601,4365,-2205,4784,100,86,850
302874,18274780,19178084,18294886,19179622,3800,2660,-6160,-1288,1503,4374,-1416,2474,100,86,850
303875,18275344,19178380,18295354,19180090,3800,2861,-6910,-720,1224,4596,-1167,3341,104,84,852
304876,18275908,19178712,18295822,19180558,3800,2697,-7426,-642,871,5024,-307,1070,104,84,852
305886,18276488,19179064,18296294,19181030,3800,2624,-7687,-1128,628,5093,-1683,-87,116,69,849
306878,18277080,19179404,18296762,19181498,3800,2756,-7984,-1591,372,4942,-1609,787,116,69,849
307879,18277796,19179764,18297230,19181966,3800,2679,-8279,-1811,100,5128,-1784,1074,122,69,849
308880,18278392,19180112,18297698,19182434,3800,2807,-8474,-2138,-199,5690,-1418,878,122,69,849
309881,18279044,19180496,18298166,19182902,3800,2620,-8535,-2123,-513,6099,-1574,2487,121,77,847
310882,18279656,19180856,18298634,19183370,3800,2817,-8540,-1717,-796,6178,-1447,3975,121,77,847
311883,18280316,19181184,18299102,19183838,3800,3080,-8527,-983,-1059,6299,-1540,4865,131,93,848
312884,18280816,19181600,18299570,19184306,3800,2553,-8448,-117,-1363,5813,-1442,5459,131,93,848
313885,18281512,19181968,18300038,19184774,3800,2898,-8396,877,-1805,5358,-1207,6215,135,73,847
314886,18282076,19182328,18300506,19185242,3800,2995,-8321,1945,-2368,5518,-1752,6406,135,73,847
315887,18282808,19182736,18300974,19185710,3800,2722,-8383,3241,-2858,5454,-2376,8185,124,80,850
316888,18283476,19183148,18301442,19186178,3800,2722,-8570,4939,-3327,5369,-1262,9484,124,80,850
317889,18284212,19183560,18301910,19186646,3800,2748,-8752,6630,-3908,4922,-260,9071,142,80,848
318890,18284972,19184020,18302378,19187114,3800,2451,-8838,7795,-4501,4940,92,7599,142,80,848
319891,18285828,19184456,18302846,19187582,3800,2616,-8948,8853,-5060,5528,1055,8118,150,93,851
320892,18286640,19184832,18303314,19188050,3800,3033,-9384,10287,-5343,6647,808,9803,150,93,851
321893,18287456,19185244,18303782,19188518,3800,2832,-9481,10993,-5651,5769,638,5803,155,100,853
322894,18288312,19185728,18304250,19188986,3800,2376,-9290,11019,-5912,5167,-552,5160,155,100,853
323895,18289272,19186140,18304718,19189454,3800,2851,-8949,10633,-6116,4816,-1119,4441,156,100,849
324884,18290368,19186588,18305186,19189922,3080,2636,-8572,10064,-6420,4524,-766,4149,156,100,849
325885,18291396,19187084,18305654,19190390,3262,2324,-5508,14370,-6077,1189,-6210,32767,166,94,854
326886,18292424,19187572,18306122,19190858,3019,2366,-533,21972,-5302,1043,-5527,32767,166,94,854
327886,18293476,19187916,18306590,19191326,2614,3321,1793,23095,-5400,5296,757,-598,192,96,857
328888,18294524,19188276,18307058,19191794,2388,3269,1709,20080,-5887,4481,1204,-1346,192,96,857
329889,18295564,19188700,18307526,19192262,2188,2889,1307,16015,-6346,4025,563,-3644,187,91,858
330890,18296584,19189124,18307994,19192730,2073,2909,1175,12830,-6731,3265,487,-2960,187,91,858
331891,18297552,19189512,18308462,19193198,2181,3170,1256,10677,-6879,2546,-40,-2077,173,97,856
332891,18298572,19190092,18308930,19193666,1615,1921,1211,8633,-6914,3095,-249,-2289,173,97,856
333893,18299492,19190532,18309398,19194134,2044,2809,1021,6584,-7137,2851,1564,-2024,172,102,858
334893,18300328,19191192,18309866,19194602,2409,1351,900,4535,-7390,1511,1713,-1542,172,102,858
335894,18301120,19191700,18310334,19195070,2543,2283,707,3007,-7549,-123,-239,118,169,128,865
336896,18301828,19192312,18310802,19195538,2964,1571,494,1742,-7394,-2327,-3168,625,169,128,865
337897,18302504,19192872,18311270,19196006,3075,1857,146,740,-6929,-3057,-4889,1979,160,124,865
338898,18303208,19193476,18311738,19196474,2797,1522,-2,104,-6504,-3287,-4462,2984,160,124,865
339899,18303836,19194100,18312206,19196942,3204,1329,1698,79,-5676,-9277,-8819,24205,137,131,861
340919,18304360,19194764,18312678,19197414,3800,995,4614,2504,-4085,-11300,-11871,32767,137,131,861
341901,18304956,19195388,18313146,19197882,3328,1177,4032,7551,-2409,-4560,-7895,26599,135,123,861
342914,18305448,19195924,18313614,19198350,3800,1698,1436,11210,-1377,-3997,-5032,12184,135,123,861
343915,18305952,19196544,18314082,19198818,3800,1107,99,11384,-1305,-4627,-2445,3163,127,118,857
344916,18306424,19197120,18314550,19199286,3800,1334,611,8938,-1461,-5028,-3005,1226,127,118,857
345917,18306832,19197752,18315018,19199754,3800,913,1723,6863,-1377,-3557,-2845,6744,106,125,852
346918,18307228,19198336,18315486,19200222,3800,1162,2346,5929,-1044,-2403,-2172,5454,106,125,852
347919,18307612,19198864,18315954,19200690,3800,1486,2402,5102,-468,-2466,-2467,2230,101,106,855
348920,18307964,19199364,18316422,19201158,3800,1648,2354,4174,287,-3145,-3693,2730,101,106,855
349921,18308284,19199856,18316890,19201626,3800,1687,2557,2992,1068,-3883,-3680,3332,82,110,854
350922,18308560,19200392,18317358,19202094,3800,1382,2913,2107,1677,-3419,-3778,4659,82,110,854
351923,18308860,19200908,18317826,19202562,3800,1487,3128,1682,1980,-2576,-4805,5115,55,99,852
352924,18309080,19201260,18318294,19203030,3800,2563,3201,1603,2119,-2900,-3778,5495,55,99,852
353925,18309296,19201612,18318762,19203498,3800,2614,3229,1904,2189,-3209,-1975,6425,60,86,852
354927,18309516,19201916,18319230,19203966,3800,2987,3246,2225,2073,-2379,-1001,5912,60,86,852
355928,18309672,19202144,18319698,19204434,3800,3568,3289,2443,1785,-2725,50,5920,31,51,843
356929,18309852,19202376,18320166,19204902,3800,3648,3290,2798,1315,-3344,907,6369,31,51,843
357942,18310060,19202588,18320634,19205370,3800,3800,3199,3128,530,-3402,1600,5690,26,44,841
358943,18310280,19202808,18321102,19205838,3800,3800,3045,3620,-362,-3946,1722,6364,26,44,841
359944,18310544,19203004,18321570,19206306,3800,3800,2870,4165,-1198,-3865,1591,6382,48,54,837
360945,18310844,19203220,18322038,19206774,3800,3800,2662,4373,-2040,-3175,588,5499,48,54,837
361946,18311160,19203368,18322506,19207242,3800,3800,2397,4490,-2863,-3014,58,5352,70,44,837
362947,18311472,19203544,18322974,19207710,3800,3800,2036,4171,-3715,-2646,926,3910,70,44,837
363948,18311828,19203692,18323442,19208178,3800,3800,1541,3514,-4643,-2276,1864,3021,76,48,838
364949,18312188,19203872,18323910,19208646,3800,3800,1130,2672,-5404,-2114,2135,2520,76,48,838
365950,18312524,19204048,18324378,19209114,3800,3800,852,1544,-5954,-825,1553,1454,71,53,837
366951,18312860,19204236,18324846,19209582,3800,3800,677,132,-6407,159,1531,512,71,53,837
367952,18313276,19204468,18325314,19210050,3800,3800,568,-1600,-6678,443,1590,-214,76,52,836
368953,18313620,19204676,18325782,19210518,3800,3800,525,-3480,-6762,1625,797,-794,76,52,836
369954,18313972,19204880,18326250,19210986,3800,3800,542,-5463,-6640,2453,-132,-1199,63,44,838
370956,18314348,19205120,18326718,19211454,3800,3800,591,-7380,-6302,2900,-500,-744,63,44,838
371956,18314708,19205356,18327186,19211922,3800,3800,571,-9134,-5935,3514,-335,-401,77,47,838
372957,18315032,19205632,18327654,19212390,3800,3800,500,-10859,-5651,3526,872,-434,77,47,838
373958,18315392,19205960,18328122,19212858,3800,3800,417,-12353,-5413,3469,1526,555,83,54,838
374959,18315740,19206232,18328590,19213326,3800,3800,280,-13305,-5211,3436,1950,2054,83,54,838
375967,18316100,19206584,18329062,19213798,3800,3800,102,-13693,-5048,2929,2129,3896,78,78,839
376961,18316484,19206964,18329530,19214266,3800,3800,-130,-13392,-4931,2501,2344,5767,78,78,839
377962,18316836,19207376,18329998,19214734,3800,3800,-393,-12702,-4888,2109,2064,6757,80,89,839
378963,18317192,19207820,18330466,19215202,3800,3800,-351,-11303,-4868,1893,1932,11716,80,89,839
379964,18317568,19208296,18330934,19215670,3800,3800,480,-7884,-4832,1832,1966,26850,70,87,839
380965,18317920,19208776,18331402,19216138,3800,3800,1166,-4894,-4825,864,2218,14034,70,87,839
381966,18318272,19209252,18331870,19216606,3800,3800,1226,-3433,-4841,359,2700,8233,64,108,840
382967,18318656,19209784,18332338,19217074,3800,3800,1091,-2959,-4848,266,2825,6600,64,108,840
383968,18318996,19210300,18332806,19217542,3800,3800,1073,-2808,-4839,298,2542,5615,61,100,840
384957,18319312,19210912,18333274,19218010,3800,3312,1260,-2791,-4809,-168,2180,4082,61,100,840
385957,18319656,19211488,18333742,19218478,3800,3490,1605,-3218,-4737,-369,972,2508,81,114,841
386959,18320044,19212036,18334210,19218946,3800,3632,2029,-3804,-4561,-425,60,2290,81,114,841
387960,18320412,19212592,18334678,19219414,3800,3544,2450,-4398,-4275,-620,-68,2120,82,120,844
388973,18320756,19213100,18335146,19219882,3800,3800,3112,-5409,-3707,-278,1158,2064,82,120,844
389961,18321200,19213728,18335614,19220350,3800,3010,3412,-5804,-3473,-316,2009,2230,81,112,841
390962,18321620,19214328,18336082,19220818,3800,3128,3660,-6099,-3296,-202,2813,2436,81,112,841
391963,18322068,19214920,18336550,19221286,3800,3124,3832,-6257,-3093,-401,2905,2967,96,112,841
392965,18322540,19215516,18337018,19221754,3800,3044,3962,-6195,-2830,-497,2266,3612,96,112,841
393966,18323016,19216164,18337486,19222222,3800,2641,4074,-5929,-2516,-555,1464,3930,100,122,846
394966,18323528,19216836,18337954,19222690,3800,2403,4162,-5625,-2162,-677,801,3904,100,122,846
395968,18324060,19217468,18338422,19223158,3800,2582,4230,-5264,-1798,-596,494,4067,110,149,847
396968,18324584,19218160,18338890,19223626,3800,2110,4298,-4931,-1474,-459,685,3809,110,149,847
397970,18325116,19218820,18339358,19224094,3800,2226,4389,-4647,-1205,-254,1056,3719,88,124,850
398970,18325712,19219528,18339826,19224562,3800,1822,4468,-4284,-932,53,853,4004,88,124,850
399971,18326288,19220192,18340294,19225030,3800,2012,4431,-3598,-565,122,340,5102,121,140,849
400973,18326824,19220992,18340762,19225498,3800,1017,4353,-2662,-119,-73,-138,5175,121,140,849
401973,18327472,19221628,18341230,19225966,3800,1969,4219,-1870,301,-261,-298,4701,118,121,852
402974,18328088,19222268,18341698,19226434,3800,1868,4165,-1257,605,-420,-293,4072,118,121,852
403976,18328704,19222992,18342166,19226902,3800,1232,4142,-945,802,-576,-534,3306,122,122,857
404977,18329420,19223564,18342634,19227370,3800,2137,4190,-767,952,-393,-932,2946,122,122,857
405977,18330092,19224260,18343102,19227838,3800,1263,4203,-729,1104,-18,-933,2507,132,138,854
406978,18330796,19225016,18343570,19228306,3800,761,4208,-697,1261,643,-786,2323,132,138,854
407979,18331532,19225684,18344038,19228774,3800,1224,4275,-823,1351,1033,-601,1557,146,134,855
408981,18332324,19226412,18344506,19229242,3800,736,4355,-1155,1378,1183,-616,955,146,134,855
409982,18333036,19227060,18344974,19229710,3800,1157,4459,-1489,1390,1169,-1221,1129,142,145,859
410989,18333788,19227768,18345446,19230182,3800,679,4460,-1761,1421,973,-1885,1338,142,145,859
411971,18334608,19228436,18345914,19230650,3458,841,4425,-1916,1457,539,-2575,1652,151,147,858
412984,18335344,19229156,18346382,19231118,3800,406,4423,-2040,1479,195,-2963,1564,151,147,858
413985,18336052,19229744,18346850,19231586,3800,1179,4399,-2008,1506,-15,-3167,2188,147,138,860
414974,18336840,19230388,18347318,19232054,3301,752,4435,-1969,1518,209,-2800,1798,147,138,860
415987,18337488,19230980,18347786,19232522,3800,1023,4461,-2072,1553,1245,-2325,1523,139,133,861
416988,18338156,19231572,18348254,19232990,3800,969,4478,-2304,1578,2348,-1826,987,139,133,861
417989,18338816,19232268,18348722,19233458,3800,218,4496,-2637,1559,3121,-1191,426,134,125,862
418978,18339492,19232804,18349190,19233926,3665,1189,4540,-3004,1492,3435,-1065,288,134,125,862
419992,18340028,19233436,18349658,19234394,3800,517,4613,-3217,1461,3470,-1168,711,137,126,858
420980,18340736,19234012,18350126,19234862,3334,820,4597,-2964,1476,3546,-1453,2071,137,126,858
421993,18341280,19234612,18350594,19235330,3800,612,4487,-2233,1493,3526,-1366,2704,133,127,856
422995,18341856,19235244,18351062,19235798,3800,340,4342,-1618,1419,3475,-1214,2173,133,127,856
423983,18342496,19235764,18351530,19236266,3608,1017,4263,-843,1255,3322,-1213,2653,117,113,858
424984,18343168,19236284,18351998,19236734,3320,994,4158,-62,1063,3212,-1285,2669,117,113,858
425998,18343740,19236756,18352466,19237202,3800,1292,4044,1057,863,3165,-1569,3408,130,111,859
426986,18344384,19237332,18352934,19237670,3376,595,3951,2193,653,2710,-1669,2883,130,111,859
427987,18344980,19237820,18353402,19238138,3621,1136,3916,3161,436,2534,-1581,2538,127,106,860
428988,18345664,19238260,18353870,19238606,2978,1449,3921,4158,214,2776,-1700,2415,127,106,860
429989,18346248,19238744,18354338,19239074,3553,1168,3888,5248,10,2589,-1653,2533,112,93,861
430990,18346996,19239168,18354806,19239542,2407,1562,3849,6355,-204,2550,-1827,2283,112,93,861
431991,18347712,19239592,18355274,19240010,2499,1581,3821,7197,-498,2396,-1692,1225,117,101,860
432992,18348384,19240076,18355742,19240478,2686,1199,3757,7888,-837,2484,-1476,951,117,101,860
433993,18349192,19240464,18356210,19240946,1688,1834,3583,8466,-1229,2585,-1519,455,136,78,862
434994,18349860,19240796,18356678,19241414,2477,2244,3312,8871,-1738,2552,-707,-20,136,78,862
435994,18350572,19241132,18357146,19241882,2095,2277,2847,9590,-2279,3800,167,1233,138,83,864
436996,18351336,19241476,18357614,19242350,1641,2282,2180,10347,-2850,5060,966,668,138,83,864
437997,18352044,19241788,18358082,19242818,1887,2550,1458,10839,-3435,5709,1516,-195,130,64,860
438998,18352704,19242100,18358550,19243286,2104,2620,754,10954,-4051,5640,2012,-913,130,64,860
439998,18353396,19242364,18359018,19243754,1807,3009,8,10852,-4670,5830,2368,-1041,134,76,862
441000,18354068,19242612,18359486,19244222,1843,3206,-800,10847,-5349,6021,3223,-756,134,76,862
442001,18354724,19242852,18359954,19244690,1862,3356,-1661,10970,-6135,6184,3725,-804,136,54,859
443002,18355436,19243100,18360422,19245158,1406,3404,-2455,10966,-6967,5772,3647,-1454,136,54,859
444003,18356108,19243336,18360890,19245626,1567,3581,-3107,10661,-7798,4647,3541,-2201,128,53,853
445004,18356832,19243596,18361358,19246094,1130,3523,-3630,10187,-8743,3203,3522,-2730,128,53,853
446026,18357424,19243760,18361830,19246566,1903,3800,-4066,9778,-9808,1877,3232,-2453,122,58,853
447018,18358196,19243956,18362298,19247034,645,3800,-4478,9815,-10829,789,2762,-873,122,58,853
448019,18358820,19244132,18362766,19247502,1503,3800,-4981,10342,-11654,172,1805,778,117,51,854
449021,18359500,19244316,18363234,19247970,1060,3800,-5460,11240,-12320,50,1417,1398,117,51,854
450021,18360188,19244520,18363702,19248438,914,3800,-5899,12058,-12887,361,967,1216,122,51,853
451022,18360820,19244780,18364170,19248906,1193,3800,-6287,12683,-13389,333,157,1072,122,51,853
452023,18361328,19245096,18364638,19249374,1951,3800,-6617,13114,-13798,-413,-3,840,124,68,853
453012,18361972,19245492,18365106,19249842,1024,3492,-6822,13200,-14096,-1071,-137,-147,124,68,853
454013,18362512,19245908,18365574,19250310,1643,3391,-6959,12822,-14318,-1331,-228,-1127,103,85,854
455014,18363048,19246312,18366042,19250778,1639,3494,-7024,12096,-14368,-1571,-477,-1817,103,85,854
456014,18363636,19246720,18366510,19251246,1261,3496,-7064,11150,-14220,-2058,-897,-2316,111,82,855
457016,18364132,19247144,18366978,19251714,1825,3417,-7023,9994,-13916,-2944,-1540,-2444,111,82,855
458017,18364676,19247532,18367446,19252182,1492,3678,-6992,8805,-13493,-3747,-1859,-1971,118,81,854
459018,18365252,19247988,18367914,19252650,1245,3259,-7048,7908,-12959,-4377,-1958,-1306,118,81,854
460019,18365720,19248556,18368382,19253118,1920,2516,-7091,7128,-12222,-5278,-1954,-1005,97,104,855
461020,18366060,19249088,18368850,19253586,2778,2714,-7154,6382,-11240,-5884,-2218,-425,97,104,855
462021,18366500,19249628,18369318,19254054,2165,2634,-7261,5584,-10048,-5800,-3053,-322,90,97,859
463022,18366904,19250120,18369786,19254522,2419,2923,-7385,4713,-8703,-5996,-3979,-262,90,97,859
464023,18367288,19250592,18370254,19254990,2581,3047,-7510,3706,-7364,-6888,-4583,-291,105,100,854
465024,18367652,19251052,18370722,19255458,2753,3127,-7639,2354,-6100,-8024,-4929,-747,105,100,854
466025,18368052,19251544,18371190,19255926,2559,2917,-7660,-949,-4805,-12377,-5074,-3991,90,92,854
467026,18368368,19252116,18371658,19256394,3150,2372,-7632,-6689,-3508,-12958,-5472,-5724,90,92,854
468026,18368680,19252688,18372126,19256862,3245,2328,-7763,-11790,-2269,-11019,-5825,-1731,83,113,850
469028,18369012,19253292,18372594,19257330,3180,2068,-8223,-13734,-1149,-6829,-5907,3526,83,113,850
470029,18369304,19253748,18373062,19257798,3508,2999,-6311,-14321,-380,-960,-7422,11455,69,120,853
471030,18369584,19254264,18373530,19258266,3667,2604,1011,-14086,-1042,15293,-8796,32767,69,120,853
472030,18369904,19254872,18373998,19258734,3483,1969,3189,-8191,210,1673,-16692,32767,71,106,854
473032,18370216,19255368,18374466,19259202,3601,2656,-1057,-2059,2930,193,-8977,20118,71,106,854
474033,18370524,19256012,18374934,19259670,3697,1655,-5050,1933,4283,-1893,115,14761,82,103,848
475034,18370888,19256732,18375402,19260138,3394,1070,-5694,1475,4363,-2956,-124,2818,82,103,848
476035,18371236,19257236,18375870,19260606,3548,2404,-4008,-1291,3851,401,459,5474,78,136,849
477036,18371576,19257764,18376338,19261074,3655,2229,-2155,-3710,3350,1537,2397,9807,78,136,849
478036,18371952,19258440,18376806,19261542,3472,1214,-1514,-4404,3180,1244,2752,5148,78,133,855
479037,18372308,19259144,18377274,19262010,3647,935,-1637,-4928,3137,1767,592,2655,78,133,855
480038,18372672,19259800,18377742,19262478,3643,1153,-1603,-5496,3151,797,-715,3376,69,131,851
481046,18373080,19260484,18378214,19262950,3397,885,-1286,-5635,3081,1431,-1470,5254,69,131,851
482041,18373472,19261140,18378682,19263418,3531,979,-784,-5482,2873,2512,-2295,6181,77,129,856
483042,18373876,19261856,18379150,19263886,3485,495,-38,-4606,2721,2066,-3404,9650,77,129,856
484042,18374292,19262476,18379618,19264354,3434,1029,749,-3990,2453,1529,-3653,6228,78,134,858
485043,18374760,19263032,18380086,19264822,3110,1390,1443,-4043,1771,1494,-2010,3958,78,134,858
486045,18375208,19263620,18380554,19265290,3245,1137,2050,-4135,900,966,-874,4636,103,123,859
487046,18375656,19264188,18381022,19265758,3255,1219,2605,-4090,-49,779,-1333,4294,103,123,859
488047,18376128,19264728,18381490,19266226,3105,1363,3001,-3653,-1016,639,-1567,5674,85,123,858
489048,18376544,19265316,18381958,19266694,3479,1010,3341,-2577,-1809,408,-2742,7058,85,123,858
490049,18376960,19265888,18382426,19267162,3503,1065,3625,-1408,-2519,822,-3123,6637,96,126,857
491050,18377396,19266372,18382894,19267630,3393,1608,3995,-423,-3202,527,-3086,5965,96,126,857
492051,18377808,19266788,18383362,19268098,3568,2056,4414,445,-3801,-53,-2738,6028,80,118,857
493052,18378192,19267200,18383830,19268566,3781,2106,4844,1191,-4357,8,-2986,5366,80,118,857
494053,18378612,19267544,18384298,19269034,3578,2586,5275,1908,-4763,-205,-3502,5104,89,75,855
495054,18379004,19267816,18384766,19269502,3788,3122,5614,2706,-4982,-385,-2834,5297,89,75,855
496067,18379376,19268072,18385234,19269970,3800,3316,5812,3364,-5134,-198,-2578,4705,80,69,850
497056,18379808,19268320,18385702,19270438,3598,3462,5908,3730,-5286,-727,-2544,3838,80,69,850
498070,18380184,19268560,18386170,19270906,3800,3613,6092,3770,-5479,-1443,-2403,2458,72,55,843
499071,18380568,19268808,18386638,19271374,3800,3660,6385,3190,-5818,-1759,-1893,531,72,55,843
500071,18380924,19269088,18387106,19271842,3800,3544,6630,2321,-6147,-1975,-1861,234,76,58,842
501085,18381292,19269320,18387574,19272310,3800,3800,6681,1681,-6181,-1360,-2528,1028,76,58,842
502086,18381668,19269580,18388042,19272778,3800,3800,6592,1304,-5905,-736,-2811,1313,79,64,840
503074,18382016,19269880,18388510,19273246,3800,3690,6444,949,-5615,-958,-1742,1369,79,64,840
504075,18382372,19270180,18388978,19273714,3800,3764,6272,488,-5421,-716,-960,1096,77,73,837
505077,18382732,19270560,18389446,19274182,3800,3303,6094,-284,-5330,-388,-187,358,77,73,837
506078,18383056,19270912,18389914,19274650,3800,3530,5902,-1137,-5271,-464,604,231,79,69,840
507078,18383388,19271296,18390382,19275118,3800,3367,5638,-1940,-5178,-192,1022,498,79,69,840
508079,18383728,19271684,18390850,19275586,3800,3378,5192,-2422,-5011,594,1730,1676,70,77,841
509080,18384068,19272036,18391318,19276054,3800,3655,4556,-2460,-4719,1274,2309,3001,70,77,841
510082,18384416,19272468,18391786,19276522,3800,3171,3873,-2244,-4362,1699,2844,3496,66,92,840
511082,18384712,19272952,18392254,19276990,3800,2840,3219,-2073,-4037,1928,3487,3563,66,92,840
512083,18385024,19273444,18392722,19277458,3800,2780,2367,-1543,-3725,2606,4699,5366,67,100,839
513085,18385400,19273916,18393190,19277926,3800,2905,1404,-969,-3402,2866,4929,4788,67,100,839
514085,18385740,19274364,18393658,19278394,3800,3064,668,-784,-3123,2380,4900,3302,78,105,845
515087,18386060,19274840,18394126,19278862,3800,2886,197,-1078,-2890,1946,5443,2492,78,105,845
516094,18386432,19275352,18394598,19279334,3800,2644,-93,-1630,-2720,1850,6360,1879,76,100,845
517088,18386796,19275832,18395066,19279802,3800,2840,-377,-2263,-2628,1869,7479,1730,76,100,845
518090,18387192,19276264,18395534,19280270,3800,3157,-653,-2774,-2594,1842,8233,2037,84,92,846
519091,18387628,19276716,18396002,19280738,3800,3039,-886,-3282,-2643,1661,9055,1966,84,92,846
520092,18388012,19277128,18396470,19281206,3800,3315,-1158,-3784,-2779,1530,8803,2262,80,101,846
521093,18388424,19277556,18396938,19281674,3800,3233,-1516,-4115,-2842,1540,7384,2883,80,101,846
522094,18388916,19277980,18397406,19282142,3800,3279,-1847,-4277,-2803,1292,6841,3396,88,91,844
523094,18389324,19278352,18397874,19282610,3800,3646,-2103,-4195,-2718,553,5904,4394,88,91,844
524108,18389744,19278672,18398342,19283078,3800,3800,-2284,-3901,-2609,-114,5199,4885,75,79,844
525096,18390204,19279040,18398810,19283546,3800,3782,-2420,-3760,-2549,-548,4922,4333,75,79,844
526110,18390716,19279396,18399278,19284014,3800,3800,-2528,-3636,-2520,-680,4773,4694,73,69,841
527111,18391180,19279724,18399746,19284482,3800,3800,-2654,-3496,-2492,-821,4297,4597,73,69,841
528112,18391688,19280036,18400214,19284950,3800,3800,-2799,-3481,-2354,-707,2866,4402,87,73,840
529113,18392216,19280424,18400682,19285418,3800,3800,-2971,-3391,-2061,-762,1522,4703,87,73,840
530101,18392748,19280884,18401150,19285886,3800,3430,-3118,-3328,-1701,-906,930,4556,87,81,839
531102,18393292,19281364,18401618,19286354,3800,3300,-3205,-3426,-1362,-1100,981,3979,87,81,839
532091,18393876,19281920,18402086,19286822,3716,2788,-3132,-3802,-1153,-1358,1399,3456,108,87,840
533104,18394412,19282620,18402554,19287290,3800,1786,-2952,-4068,-1073,-1432,1270,4147,108,87,840
534092,18395032,19283200,18403022,19287758,3398,2488,-2681,-4203,-1037,-1343,655,4061,113,104,844
535094,18395668,19283728,18403490,19288226,3225,2787,-2387,-4509,-959,-1148,59,3541,113,104,844
536094,18396272,19284316,18403958,19288694,3367,2360,-1989,-4811,-803,-772,-732,3760,120,132,852
537096,18396908,19284940,18404426,19289162,3094,2068,-1626,-5261,-556,-518,-1601,3575,120,132,852
538097,18397596,19285628,18404894,19289630,2675,1572,-1239,-5780,-329,-350,-1823,3035,135,137,853
539098,18398260,19286312,18405362,19290098,2739,1502,-866,-6479,-134,-228,-1896,2738,135,137,853
540099,18398848,19286908,18405830,19290566,3164,1997,-453,-7112,135,-385,-2130,3128,143,128,858
541100,18399568,19287580,18406298,19291034,2229,1433,-52,-7489,466,-1133,-2686,4115,143,128,858
542101,18400188,19288168,18406766,19291502,2788,1907,291,-7498,813,-1864,-3523,5457,135,121,862
543102,18400812,19288820,18407234,19291970,2696,1426,593,-7139,1183,-2060,-4023,6258,135,121,862
544103,18401400,19289492,18407702,19292438,2870,1212,964,-6936,1456,-1741,-3534,5334,147,129,863
545104,18402036,19290164,18408170,19292906,2497,1122,1439,-7019,1543,-849,-3001,4432,147,129,863
546104,18402612,19290800,18408638,19293374,2826,1275,1984,-7344,1522,279,-2889,3785,124,134,862
547106,18403148,19291452,18409106,19293842,3047,1094,2480,-7569,1518,1616,-3248,4151,124,134,862
548106,18403748,19292116,18409574,19294310,2590,934,2863,-7538,1577,2736,-3603,4439,130,131,864
549108,18404264,19292808,18410042,19294778,3095,660,3247,-7513,1554,3424,-2717,3797,130,131,864
550108,18404776,19293448,18410510,19295246,3102,911,3620,-7598,1381,4216,-2095,3620,125,122,860
551117,18405296,19294004,18410982,19295718,3032,1399,4001,-7548,1137,4850,-1546,3898,125,122,860
552111,18405784,19294684,18411450,19296186,3224,531,4362,-7462,869,5458,-1037,3888,113,111,861
553112,18406276,19295248,18411918,19296654,3190,1214,4694,-6991,618,5636,-1248,4898,113,111,861
554113,18406736,19295864,18412386,19297122,3394,824,5028,-6317,391,5612,-907,4932,87,118,858
555114,18407196,19296488,18412854,19297590,3399,706,5300,-5549,151,5397,-1369,5431,87,118,858
556115,18407640,19297072,18413322,19298058,3510,905,5577,-4386,-4,5448,-1860,5915,87,112,857
557116,18408196,19297700,18413790,19298526,2773,559,5788,-3106,160,5781,-3319,6412,87,112,857
558117,18408692,19298196,18414258,19298994,3136,1373,5710,-885,240,5079,-3063,9716,101,116,859
559118,18409184,19298804,18414726,19299462,3152,612,5672,1699,289,4812,-2829,8805,101,116,859
560119,18409780,19299476,18415194,19299930,2447,122,5875,3508,131,4705,-1801,6039,97,112,863
561120,18410340,19300132,18415662,19300398,2632,139,6116,5303,-172,4106,-2718,7287,97,112,863
562121,18410872,19300656,18416130,19300866,2780,940,6356,7086,-473,4071,-2174,6262,100,121,861
563122,18411516,19301140,18416598,19301334,2004,1183,6552,8731,-842,4115,-2311,5340,100,121,861
564123,18412056,19301648,18417066,19301802,2623,1015,6750,10101,-1214,3392,-3063,4483,106,109,865
565124,18412640,19302132,18417534,19302270,2298,1158,6904,11361,-1605,3647,-3236,4380,106,109,865
566124,18413232,19302580,18418002,19302738,2195,1392,6899,12499,-2028,4054,-3685,3659,102,93,865
567125,18413860,19302952,18418470,19303206,1900,1909,6902,13251,-2425,3818,-4145,2061,102,93,865
568126,18414492,19303272,18418938,19303674,1804,2299,6959,13741,-2812,3514,-4522,1196,104,66,864
569128,18415112,19303528,18419406,19304142,1814,2792,6974,14002,-3159,3219,-4932,667,104,66,864
570129,18415720,19303784,18419874,19304610,1828,2885,6864,14420,-3435,3247,-5165,1117,128,60,863
571130,18416340,19304044,18420342,19305078,1686,2953,6687,14929,-3677,3630,-4786,425,128,60,863
572131,18416960,19304284,18420810,19305546,1620,3178,6452,15089,-3965,3890,-4062,-712,125,60,858
573132,18417620,19304508,18421278,19306014,1287,3385,6090,15049,-4335,3721,-3562,-924,125,60,858
574133,18418168,19304704,18421746,19306482,1953,3680,5476,15160,-4658,3491,-3129,-359,107,52,856
575133,18418752,19304920,18422214,19306950,1677,3667,4477,15497,-4995,2842,-2285,166,107,52,856
576147,18419344,19305112,18422682,19307418,1573,3800,3610,15298,-5601,1371,-1553,-2323,111,37,852
577136,18419920,19305348,18423150,19307886,1627,3765,3016,14577,-6413,1082,-1039,-3234,111,37,852
578149,18420508,19305548,18423618,19308354,1499,3800,2471,13744,-7234,1242,-908,-2797,102,46,850
579150,18421208,19305760,18424086,19308822,698,3800,1708,13201,-7861,1143,-1556,-1448,102,46,850
580151,18421800,19305956,18424554,19309290,1319,3800,902,13057,-8301,697,-1870,-792,119,37,850
581152,18422388,19306152,18425022,19309758,1292,3800,176,12708,-8851,-18,-240,-2031,119,37,850
582153,18422972,19306392,18425490,19310226,1266,3800,-383,11968,-9635,-488,1025,-2653,111,54,853
583154,18423580,19306660,18425958,19310694,1056,3800,-849,11200,-10460,-1111,1539,-2456,111,54,853
584155,18424144,19306960,18426426,19311162,1288,3800,-1235,10666,-11108,-2197,1238,-1778,100,53,852
585144,18424772,19307320,18426894,19311630,819,3775,-1613,10436,-11500,-3123,654,-1042,100,53,852
586154,18425360,19307720,18427366,19312102,1018,3556,-1997,10155,-11646,-3205,205,-1417,107,69,851
587146,18425896,19308200,18427834,19312570,1314,3052,-2335,9507,-11625,-2990,87,-2084,107,69,851
588147,18426368,19308724,18428302,19313038,1712,2753,-2670,8725,-11404,-2814,-456,-2246,100,91,853
589147,18426900,19309148,18428770,19313506,1309,3399,-2944,7513,-11004,-2915,-1021,-3192,100,91,853
590149,18427452,19309568,18429238,19313974,1148,3446,-3162,6295,-10446,-2847,-1309,-2798,107,93,859
591149,18427936,19310056,18429706,19314442,1566,3013,-3421,5241,-9790,-3109,-700,-2480,107,93,859
592151,18428436,19310496,18430174,19314910,1452,3325,-3739,4255,-9094,-3694,-166,-2106,84,112,857
593152,18428876,19311096,18430642,19315378,1841,2268,-4070,3596,-8371,-4684,-38,-867,84,112,857
594153,18429324,19311616,18431110,19315846,1799,2746,-4406,3218,-7579,-5636,164,-119,95,116,859
595154,18429792,19312204,18431578,19316314,1674,2270,-4783,2953,-6782,-5956,692,355,95,116,859
596155,18430184,19312804,18432046,19316782,2184,2138,-5167,2757,-6013,-6264,1483,641,96,125,862
597156,18430628,19313352,18432514,19317250,1869,2427,-5550,2607,-5237,-6528,1686,1072,96,125,862
598157,18431088,19313932,18432982,19317718,1773,2179,-5888,2309,-4466,-6888,2103,963,94,122,860
599158,18431424,19314412,18433450,19318186,2607,2800,-6210,1944,-3718,-7082,2075,1429,94,122,860
600158,18431684,19314868,18433918,19318654,3173,2956,-6526,1660,-3028,-6987,2396,1730,87,97,859
601160,18432056,19315336,18434386,19319122,2516,2881,-6856,1375,-2444,-6964,2828,1928,87,97,859
602161,18432424,19315808,18434854,19319590,2585,2856,-7136,947,-2007,-6976,3325,1932,87,104,854
603162,18432776,19316300,18435322,19320058,2736,2721,-7369,355,-1741,-6416,3502,1908,87,104,854
604163,18433108,19316932,18435790,19320526,2922,1775,-7678,-343,-1458,-5326,2494,1988,94,109,854
605164,18433488,19317452,18436258,19320994,2661,2452,-8048,-1149,-978,-4440,927,2039,94,109,854
606165,18433788,19318052,18436726,19321462,3236,1895,-8471,-2205,-324,-3843,110,1770,70,124,854
607165,18434080,19318672,18437194,19321930,3364,1704,-8853,-3594,343,-3185,368,1164,70,124,854
608167,18434412,19319108,18437662,19322398,3174,2868,-9098,-5323,854,-2257,427,598,64,120,856
609168,18434716,19319576,18438130,19322866,3422,2669,-9108,-7313,1173,-1566,373,400,64,120,856
610169,18435004,19320136,18438598,19323334,3601,2054,-8875,-9205,1373,-837,249,875,67,100,853
611170,18435304,19320736,18439066,19323802,3601,1747,-8592,-10900,1440,814,-128,1181,67,100,853
612170,18435588,19321308,18439534,19324270,3783,1877,-4380,-14895,500,10314,-1081,23280,76,102,849
613171,18435896,19321896,18440002,19324738,3704,1724,617,-16988,-716,10256,-414,30048,76,102,849
614172,18436216,19322464,18440470,19325206,3694,1806,-519,-12872,-622,4396,-988,25196,69,107,852
615173,18436540,19322888,18440938,19325674,3733,2726,-4274,-7270,79,4091,-476,19209,69,107,852
616174,18436864,19323556,18441406,19326142,3797,1114,-4942,-4498,308,4297,947,20834,85,126,852
617176,18437204,19324168,18441874,19326610,3755,1401,-1783,-1987,-258,6376,2087,32767,85,126,852
618190,18437520,19324820,18442342,19327078,3800,1071,1177,266,-1141,4157,2466,23850,79,132,847
619191,18437824,19325384,18442810,19327546,3800,1579,1993,860,-1737,1210,2705,5613,79,132,847
620191,18438144,19326084,18443278,19328014,3800,628,1657,195,-1986,1769,2265,3762,62,122,851
621200,18438500,19326624,18443750,19328486,3800,1598,1479,-347,-2182,2115,1880,4067,62,122,851
622193,18438824,19327132,18444218,19328954,3800,1780,1687,-590,-2425,1254,1855,4194,84,119,851
623194,18439124,19327660,18444686,19329422,3800,1630,2102,-612,-2803,1339,1392,4070,84,119,851
624195,18439424,19328216,18445154,19329890,3800,1416,2420,-617,-3308,1409,852,3752,74,109,851
625197,18439684,19328772,18445622,19330358,3800,1377,2633,-628,-3767,404,236,3945,74,109,851
626198,18439936,19329368,18446090,19330826,3800,1072,2757,-455,-4290,-469,-531,4243,48,107,851
627199,18440212,19329872,18446558,19331294,3800,1631,2884,-265,-4786,-962,-1511,4047,48,107,851
628199,18440436,19330356,18447026,19331762,3800,1749,3096,57,-5135,-1419,-1939,4241,61,107,852
629201,18440716,19330808,18447494,19332230,3800,1956,3329,529,-5400,-1652,-2410,4380,61,107,852
630201,18441012,19331248,18447962,19332698,3800,2045,3501,1084,-5552,-2435,-3586,4695,43,105,851
631202,18441304,19331692,18448430,19333166,3800,2030,3527,1818,-5398,-2630,-6026,5114,43,105,851
632203,18441608,19332056,18448898,19333634,3800,2576,3474,2445,-5005,-2347,-7432,3950,66,95,847
633205,18441956,19332328,18449366,19334102,3800,3238,3541,2418,-4650,-2510,-7005,1915,66,95,847
634205,18442288,19332604,18449834,19334570,3800,3297,3703,2056,-4425,-2806,-6571,1328,61,67,848
635206,18442612,19332880,18450302,19335038,3800,3382,3845,1551,-4283,-3223,-5487,1039,61,67,848
636207,18442960,19333112,18450770,19335506,3800,3762,3917,1156,-4193,-3494,-3997,1224,76,63,842
637209,18443304,19333360,18451238,19335974,3800,3758,3896,1011,-4032,-3328,-3890,1758,76,63,842
638222,18443636,19333592,18451706,19336442,3800,3800,3842,1023,-3715,-2948,-3939,2378,69,57,841
639223,18443976,19333844,18452174,19336910,3800,3800,3745,1176,-3303,-2667,-3908,2915,69,57,841
640224,18444348,19334036,18452642,19337378,3800,3800,3578,1282,-2880,-2346,-3411,2665,78,45,837
641225,18444708,19334268,18453110,19337846,3800,3800,3379,1312,-2551,-1843,-2641,2632,78,45,837
642226,18445044,19334500,18453578,19338314,3800,3800,3158,1204,-2312,-1345,-1908,2474,80,51,837
643227,18445416,19334684,18454046,19338782,3800,3800,2925,1074,-2092,-593,-1205,2726,80,51,837
644228,18445772,19334912,18454514,19339250,3800,3800,2634,940,-1857,300,-770,2757,81,56,836
645229,18446124,19335128,18454982,19339718,3800,3800,2306,740,-1629,978,-53,2636,81,56,836
646230,18446496,19335364,18455450,19340186,3800,3800,1954,515,-1446,1534,478,2555,84,50,837
647231,18446856,19335632,18455918,19340654,3800,3800,1565,198,-1344,2044,938,2464,84,50,837
648232,18447232,19335928,18456386,19341122,3800,3800,1125,-88,-1310,2813,1460,3053,78,52,838
649234,18447608,19336236,18456854,19341590,3800,3800,661,-250,-1307,3479,1905,3241,78,52,838
650234,18447964,19336576,18457322,19342058,3800,3800,212,-526,-1346,4006,2458,2960,62,77,838
651235,18448328,19336916,18457790,19342526,3800,3800,-232,-901,-1496,4393,3151,2947,62,77,838
652236,18448704,19337240,18458258,19342994,3800,3800,-647,-1343,-1709,4760,3382,2981,63,64,839
653237,18449076,19337608,18458726,19343462,3800,3800,-1025,-1743,-1954,5091,3623,3134,63,64,839
654238,18449436,19337992,18459194,19343930,3800,3800,-1371,-2109,-2233,5263,4031,3464,64,77,837
655239,18449828,19338420,18459662,19344398,3800,3800,-1712,-2427,-2550,5327,4339,3636,64,77,837
656247,18450168,19338856,18460134,19344870,3800,3800,-2039,-2756,-2929,5449,4631,3758,79,87,839
657241,18450524,19339328,18460602,19345338,3800,3800,-2311,-3072,-3336,5481,4779,3779,79,87,839
658242,18450936,19339792,18461070,19345806,3800,3800,-2512,-3412,-3708,5359,4739,3919,81,88,840
659230,18451328,19340304,18461538,19346274,3800,3603,-2681,-3723,-4022,5122,4568,4053,81,88,840
660231,18451684,19340828,18462006,19346742,3800,3504,-2807,-4067,-4280,4762,4515,3992,75,115,840
661232,18452092,19341320,18462474,19347210,3800,3695,-2869,-4380,-4499,4403,4286,4117,75,115,840
662233,18452552,19341820,18462942,19347678,3800,3633,-2871,-4780,-4652,4100,3731,3946,88,111,841
663234,18453020,19342340,18463410,19348146,3800,3486,-2798,-5191,-4698,3702,3153,4470,88,111,841
664235,18453456,19342868,18463878,19348614,3800,3411,-1938,-4600,-4503,2325,1505,14630,94,116,841
665236,18453976,19343384,18464346,19349082,3800,3466,618,-1385,-3923,-276,-446,32767,94,116,841
666238,18454472,19343884,18464814,19349550,3800,3552,2835,526,-3580,578,2121,14622,96,104,842
667251,18454920,19344288,18465282,19350018,3800,3800,3396,-122,-3648,1398,3650,2680,96,104,842
668239,18455492,19344800,18465750,19350486,3800,3488,3046,-1880,-3776,1562,2967,1845,108,102,844
669240,18456000,19345268,18466218,19350954,3800,3764,2669,-3252,-3671,1280,1686,2375,108,102,844
670241,18456508,19345780,18466686,19351422,3800,3471,2513,-4067,-3325,662,1136,2571,101,100,841
671242,18457104,19346324,18467154,19351890,3800,3238,2501,-4849,-2978,404,1558,1972,101,100,841
672243,18457652,19346872,18467622,19352358,3800,3179,2480,-5744,-2762,-127,2267,1839,102,103,842
673244,18458224,19347504,18468090,19352826,3800,2583,2485,-6636,-2600,-782,2179,1926,102,103,842
674245,18458880,19348124,18468558,19353294,3800,2592,2447,-7470,-2420,-915,1207,2459,100,111,845
675246,18459536,19348772,18469026,19353762,3800,2339,2440,-7871,-2172,-1298,463,3540,100,111,845
676247,18460188,19349432,18469494,19354230,3800,2181,2418,-7840,-1824,-1736,-400,4566,140,139,850
677236,18460936,19350076,18469962,19354698,3215,2205,2444,-7529,-1469,-2123,-1111,4863,140,139,850
678236,18461652,19350728,18470430,19355166,3308,2075,2469,-7326,-1174,-2644,-1120,4926,131,139,852
679238,18462348,19351396,18470898,19355634,3335,1888,2461,-6991,-942,-2569,-1126,5381,136,123,856
680238,18463136,19352068,18471366,19356102,2621,1774,2466,-6539,-681,-2846,-1168,5369,136,123,856
681239,18463844,19352760,18471834,19356570,3017,1552,2516,-6106,-366,-3948,-1470,5665,156,131,857
682241,18464524,19353444,18472302,19357038,3101,1507,2579,-5472,-16,-4719,-2226,6381,156,131,857
683242,18465232,19354080,18472770,19357506,2821,1734,2605,-4536,419,-4800,-2875,7133,148,132,860
684243,18465964,19354784,18473238,19357974,2557,1206,2623,-3589,879,-4766,-2990,6749,148,132,860
685244,18466628,19355476,18473706,19358442,2897,1183,2784,-3164,1208,-4529,-2205,4941,134,131,860
686245,18467216,19356212,18474174,19358910,3320,791,3116,-3249,1375,-3722,-1407,3398,134,131,860
687246,18467888,19356904,18474642,19359378,2708,968,3484,-3685,1407,-2498,-1148,2420,130,154,860
688247,18468476,19357604,18475110,19359846,3181,817,3836,-4307,1419,-1135,-1373,1637,130,154,860
689248,18469016,19358220,18475578,19360314,3450,1277,4113,-4991,1476,-71,-1706,1256,122,146,863
690249,18469604,19358960,18476046,19360782,3098,383,4362,-5705,1623,1183,-2060,907,122,146,863
691257,18470152,19359620,18476518,19361254,3317,801,4583,-6436,1788,2545,-1785,541,109,141,858
692251,18470640,19360316,18476986,19361722,3684,475,4795,-7098,1941,3623,-1730,403,109,141,858
693252,18471172,19360952,18477454,19362190,3382,778,4992,-7656,2026,4591,-1088,703,101,128,860
694253,18471732,19361572,18477922,19362658,3168,811,5138,-8083,2014,4977,-1180,969,101,128,860
695266,18472176,19362200,18478390,19363126,3800,690,5262,-8096,1909,4977,-1194,1786,104,125,858
696255,18472752,19362772,18478858,19363594,3034,995,5354,-7920,1715,4764,-1525,2182,104,125,858
697256,18473252,19363460,18479326,19364062,3496,173,5378,-7211,1468,4087,-2448,3694,119,128,856
698257,18473808,19363968,18479794,19364530,3108,1280,5340,-6007,1385,4053,-3533,4810,119,128,856
699258,18474400,19364588,18480262,19364998,2830,515,5077,-4049,1574,4040,-5738,7427,117,126,860
700259,18474944,19365196,18480730,19365466,3097,528,4681,-1299,1981,4259,-6306,9066,117,126,860
701260,18475512,19365860,18481198,19365934,2904,92,4395,1283,2296,4119,-5231,7742,125,108,863
702260,18476000,19366408,18481666,19366402,3396,782,4359,3358,2191,3521,-4206,6078,125,108,863
703261,18476652,19366980,18482134,19366870,2292,586,4555,5005,1826,2895,-3831,4576,108,118,863
704262,18477224,19367496,18482602,19367338,2747,915,4819,6285,1366,2860,-3431,3482,108,118,863
705264,18477768,19367916,18483070,19367806,2890,1536,5079,7449,911,3170,-3387,2653,128,98,866
706264,18478436,19368388,18483538,19368274,2029,1209,5253,8407,558,4084,-3560,1884,128,98,866
707266,18479120,19368752,18484006,19368742,1834,1930,5197,9406,207,5461,-3280,2131,123,79,858
708266,18479728,19369080,18484474,19369210,2248,2217,5017,10281,-229,5761,-3092,1212,123,79,858
709268,18480456,19369340,18484942,19369678,1385,2733,4860,10672,-814,5223,-3112,-585,125,58,861
710268,18481072,19369588,18485410,19370146,2021,2905,4859,10445,-1595,4834,-3108,-2301,125,58,861
711270,18481704,19369872,18485878,19370614,1850,2761,4860,9986,-2304,5051,-3582,-2301,118,65,860
712270,18482372,19370120,18486346,19371082,1538,3082,4727,9870,-2827,5269,-3911,-1385,118,65,860
713272,18482984,19370336,18486814,19371550,1826,3393,4483,9944,-3241,5280,-3741,-1377,106,48,857
714272,18483596,19370552,18487282,19372018,1762,3504,4249,10023,-3667,4983,-2917,-1699,106,48,857
715274,18484244,19370764,18487750,19372486,1459,3642,3964,10129,-4202,4962,-1888,-1511,105,43,853
716275,18484900,19370996,18488218,19372954,1328,3621,3564,10344,-4804,4898,-1283,-1193,105,43,853
717276,18485488,19371248,18488686,19373422,1700,3591,3072,10677,-5411,4373,-996,-1029,120,48,852
718277,18486212,19371488,18489154,19373890,738,3767,2515,10925,-6057,3599,-813,-1195,120,48,852
719290,18486808,19371736,18489622,19374358,1482,3800,1955,11068,-6785,2791,-328,-1496,104,61,850
720291,18487396,19371968,18490090,19374826,1480,3800,1406,11141,-7557,1867,-158,-1548,104,61,850
721293,18488000,19372212,18490558,19375294,1321,3800,820,11358,-8260,1185,-816,-788,105,56,851
722293,18488632,19372472,18491026,19375762,1075,3800,196,11728,-8825,528,-1024,-247,105,56,851
723294,18489308,19372744,18491494,19376230,708,3800,-377,12078,-9326,180,-744,-581,121,68,851
724295,18489864,19373052,18491962,19376698,1420,3800,-906,12228,-9824,132,-82,-1094,121,68,851
725284,18490504,19373436,18492430,19377166,820,3455,-1329,12095,-10225,-24,144,-1281,129,78,854
726293,18491064,19373912,18492902,19377638,1282,2878,-1641,11845,-10490,-212,400,-1413,129,78,854
727286,18491624,19374416,18493370,19378106,1242,2688,-1870,11476,-10620,-277,674,-1880,101,102,857
728286,18492168,19374868,18493838,19378574,1308,3021,-2040,10827,-10647,-45,1064,-2599,101,102,857
729288,18492644,19375304,18494306,19379042,1731,3136,-2181,9831,-10585,112,1586,-3302,102,94,860
730289,18493152,19375772,18494774,19379510,1513,2936,-2379,8705,-10440,23,1784,-3301,102,94,860
731290,18493696,19376240,18495242,19379978,1255,2937,-2608,7632,-10164,-298,1704,-2844,89,85,855
732291,18494112,19376652,18495710,19380446,2079,3313,-2851,6794,-9761,-735,1524,-1961,89,85,855
733292,18494632,19377080,18496178,19380914,1406,3230,-3178,6292,-9313,-1255,2105,-963,106,93,859
734292,18495072,19377572,18496646,19381382,1918,2821,-3558,5984,-8919,-2019,3044,-514,106,93,859
735294,18495508,19378232,18497114,19381850,1957,1687,-3968,5939,-8573,-3181,3642,335,98,116,857
736294,18495980,19378756,18497582,19382318,1732,2514,-4318,5998,-8192,-4394,3791,662,98,116,857
737296,18496436,19379336,18498050,19382786,1837,2115,-4625,6026,-7810,-5033,4330,730,95,120,863
738297,18496796,19379820,18498518,19383254,2484,2709,-4981,6069,-7420,-5561,4671,1253,95,120,863
739298,18497072,19380328,18498986,19383722,3095,2542,-5343,6261,-6992,-6442,4414,1713,82,89,861
740299,18497416,19380760,18499454,19384190,2724,3033,-5790,6483,-6474,-7228,3582,2078,82,89,861
741300,18497816,19381284,18499922,19384658,2404,2434,-6225,6627,-5840,-7691,2922,2109,86,102,851
742300,18498172,19381740,18500390,19385126,2729,2865,-6601,6652,-5203,-7622,2765,1982,86,102,851
743302,18498520,19382272,18500858,19385594,2832,2362,-6916,6386,-4589,-7474,2218,1371,77,97,857
744302,18498852,19382788,18501326,19386062,2993,2442,-7265,5751,-3962,-7541,1287,1023,77,97,857
745303,18499196,19383368,18501794,19386530,2972,1993,-7659,4909,-3267,-7399,336,757,66,125,854
746304,18499488,19384068,18502262,19386998,3376,1142,-8143,3714,-2405,-8296,-238,212,66,125,854
747305,18499800,19384456,18502730,19387466,3319,3128,-8505,397,-1029,-12805,-220,-3099,76,102,855
748307,18500120,19384852,18503198,19387934,3335,3110,-8636,-4752,899,-13896,338,-3374,76,102,855
749308,18500408,19385304,18503666,19388402,3614,2768,-8552,-8742,2984,-12034,616,426,79,97,847
750309,18500720,19385868,18504134,19388870,3534,2026,-8426,-10344,4522,-9123,-942,3235,79,97,847
751310,18501008,19386448,18504602,19389338,3764,1878,-8906,-10197,4695,-3515,-2289,5094,73,98,847
752323,18501296,19387092,18505070,19389806,3800,1400,-10254,-9046,4121,-1743,-2575,8703,73,98,847
753312,18501604,19387620,18505538,19390274,3789,2100,-11252,-8345,3715,-2238,-938,6618,58,112,849
754313,18501928,19388100,18506006,19390742,3754,2395,-9587,-9707,3054,3236,-1401,8289,58,112,849
755326,18502240,19388644,18506474,19391210,3800,1962,-2551,-13559,1108,16269,-3364,32767,80,113,850
756327,18502564,19389232,18506942,19391678,3800,1634,527,-11365,370,6804,-4311,29824,80,113,850
757328,18502856,19389840,18507410,19392146,3800,1449,-942,-8209,786,3748,-1740,10441,59,129,849
758329,18503164,19390528,18507878,19392614,3800,852,-2522,-6466,926,2663,-409,9001,59,129,849
759330,18503464,19391060,18508346,19393082,3800,1800,-2395,-5036,385,3126,2196,16207,56,127,851
760331,18503832,19391668,18508814,19393550,3800,1264,-585,-2278,-905,6151,3376,28822,56,127,851
761339,18504212,19392236,18509286,19394022,3800,1472,864,-564,-2097,3327,2323,10191,88,113,851
762333,18504604,19392816,18509754,19394490,3800,1348,1233,-294,-2734,2639,2000,5708,88,113,851
763322,18505048,19393476,18510222,19394958,3493,764,1157,-401,-3230,4492,1770,5301,88,111,851
764323,18505480,19394040,18510690,19395426,3585,1322,1194,-250,-3679,4545,2649,5547,88,111,851
765324,18505920,19394652,18511158,19395894,3548,959,1358,176,-4146,4131,3448,5885,95,109,857
766325,18506372,19395204,18511626,19396362,3481,1297,1493,403,-4673,4780,1848,4555,95,109,857
767325,18506804,19395732,18512094,19396830,3623,1421,1728,393,-5094,3619,361,3789,97,128,856
768339,18507208,19396308,18512562,19397298,3800,1074,1928,587,-5387,2260,-887,4150,97,128,856
769328,18507628,19396792,18513030,19397766,3749,1643,2156,298,-5774,1634,-1631,2047,83,109,854
770341,18507988,19397324,18513498,19398234,3800,1314,2373,19,-6057,923,-2820,3271,83,109,854
771342,18508316,19397732,18513966,19398702,3800,2116,2466,384,-5988,561,-4974,4579,65,91,852
772343,18508700,19398116,18514434,19399170,3800,2303,2493,877,-5730,-70,-6286,3950,65,91,852
773344,18509024,19398460,18514902,19399638,3800,2607,2551,1352,-5526,-1646,-6170,3981,67,71,848
774345,18509332,19398816,18515370,19400106,3800,2582,2714,1616,-5537,-2611,-4513,2986,67,71,848
775346,18509680,19399072,18515838,19400574,3800,3301,2863,1708,-5745,-2953,-3529,2699,58,55,843
776347,18509996,19399332,18516306,19401042,3800,3367,2953,1738,-5935,-3545,-3442,2796,58,55,843
777348,18510308,19399588,18516774,19401510,3800,3485,3053,1700,-5997,-3879,-3722,2450,59,62,842
778349,18510628,19399856,18517242,19401978,3800,3499,3144,1678,-5919,-3938,-4009,2598,59,62,842
779350,18510928,19400132,18517710,19402446,3800,3533,3168,1776,-5704,-4119,-4012,3063,64,51,839
780364,18511240,19400364,18518178,19402914,3800,3800,3166,1827,-5479,-4088,-3568,2641,64,51,839
781365,18511548,19400620,18518646,19403382,3800,3800,3187,1676,-5302,-3817,-2758,2227,48,63,839
782366,18511856,19400888,18519114,19403850,3800,3800,3195,1380,-5120,-3179,-1835,2354,48,63,839
783354,18512176,19401188,18519582,19404318,3800,3744,3164,1121,-4874,-2127,-1126,2489,70,64,838
784355,18512504,19401512,18520050,19404786,3800,3658,3103,819,-4570,-1402,-378,2456,70,64,838
785357,18512880,19401872,18520518,19405254,3800,3481,3016,579,-4215,-684,250,2661,78,85,836
786357,18513232,19402252,18520986,19405722,3800,3395,2878,328,-3830,128,847,2833,78,85,836
787358,18513564,19402600,18521454,19406190,3800,3649,2669,148,-3428,845,1640,3374,75,68,840
788360,18513940,19402952,18521922,19406658,3800,3675,2034,742,-3005,2728,3867,6789,75,68,840
789360,18514276,19403324,18522390,19407126,3800,3593,884,2207,-2554,4503,6164,8884,75,91,840
790361,18514616,19403728,18522858,19407594,3800,3422,-208,3087,-2392,3808,6344,5619,75,91,840
791362,18515020,19404144,18523326,19408062,3800,3371,-627,2638,-2446,3246,5069,1874,58,89,840
792363,18515392,19404616,18523794,19408530,3800,3020,-690,1176,-2512,3665,4652,692,58,89,840
793364,18515764,19405056,18524262,19408998,3800,3233,-750,-340,-2474,4419,4563,952,75,101,842
794365,18516156,19405512,18524730,19409466,3800,3139,-979,-1433,-2328,5238,4976,1924,75,101,842
795366,18516588,19405992,18525198,19409934,3800,2985,-1383,-2016,-2183,5764,5585,3065,91,95,843
796374,18517008,19406492,18525670,19410406,3800,2848,-1816,-2461,-2192,5669,6107,3311,91,95,843
797368,18517488,19406972,18526138,19410874,3800,2968,-2132,-3033,-2454,5153,6698,3018,89,94,844
798369,18517956,19407436,18526606,19411342,3800,3071,-2323,-3662,-2914,4796,6904,3345,89,94,844
799370,18518460,19407896,18527074,19411810,3800,3101,-2497,-4188,-3403,4641,6339,4561,104,101,846
800371,18519008,19408328,18527542,19412278,3800,3291,-2706,-4298,-3771,4216,4938,5940,104,101,846
801372,18519576,19408812,18528010,19412746,3800,2960,-2878,-4158,-4050,3746,3394,7226,116,97,845
802373,18520156,19409216,18528478,19413214,3800,3489,-2841,-3820,-4264,3147,2116,9158,116,97,845
803374,18520700,19409600,18528946,19413682,3800,3652,-1743,-3006,-4233,789,-108,20760,123,91,846
804362,18521324,19409996,18529414,19414150,3705,3609,328,-1740,-3984,-640,-414,25191,123,91,846
805364,18521928,19410444,18529882,19414618,3772,3294,1471,-1284,-3880,658,1950,9925,116,74,842
806377,18522516,19410888,18530350,19415086,3800,3330,1483,-1626,-3926,1022,2853,5027,116,74,842
807366,18523172,19411420,18530818,19415554,3315,2753,1146,-2304,-4016,1432,3404,4011,114,84,843
808366,18523784,19411940,18531286,19416022,3527,2805,1088,-3131,-4018,1398,3275,2963,114,84,843
809368,18524440,19412488,18531754,19416490,3172,2596,1188,-3940,-3880,817,1958,3116,125,106,851
810369,18525132,19413064,18532222,19416958,2849,2375,1354,-4680,-3617,179,684,2813,125,106,851
811369,18525756,19413656,18532690,19417426,3208,2221,1543,-5404,-3267,-399,84,3162,133,118,853
812370,18526416,19414260,18533158,19417894,2899,2086,1695,-5823,-2897,-919,-547,3763,133,118,853
813372,18527128,19414868,18533626,19418362,2468,2001,1860,-6271,-2534,-1474,-955,3352,136,126,856
814373,18527752,19415484,18534094,19418830,2951,1887,2071,-6662,-2125,-1953,-1316,3628,136,126,856
815374,18528396,19416124,18534562,19419298,2750,1661,2314,-7053,-1727,-2454,-1196,3553,138,119,860
816375,18529100,19416732,18535030,19419766,2272,1801,2582,-7317,-1362,-3163,-1469,3967,138,119,860
817376,18529688,19417336,18535498,19420234,2946,1767,2864,-7323,-982,-4163,-2180,4620,122,124,859
818377,18530268,19418096,18535966,19420702,2948,664,3140,-7171,-588,-4840,-2837,5125,122,124,859
819378,18530928,19418620,18536434,19421170,2364,2115,3390,-6786,-205,-4963,-3303,5707,139,133,858
820378,18531540,19419268,18536902,19421638,2602,1261,3670,-6270,152,-4941,-3381,5558,139,133,858
821380,18532132,19419796,18537370,19422106,2673,1986,4012,-5939,405,-4836,-3291,4810,126,130,860
822381,18532648,19420452,18537838,19422574,3128,1103,4430,-5925,613,-4017,-3180,3870,126,130,860
823382,18533180,19421108,18538306,19423042,3001,1020,4854,-6047,772,-2836,-2745,3336,114,132,860
824382,18533708,19421752,18538774,19423510,3001,1019,5236,-6276,956,-1547,-2869,2811,114,132,860
825384,18534188,19422388,18539242,19423978,3296,995,5572,-6527,1150,-487,-2690,2347,120,127,861
826385,18534728,19423056,18539710,19424446,2891,707,5927,-6992,1298,658,-2236,1334,120,127,861
827386,18535192,19423668,18540178,19424914,3369,995,6303,-7481,1371,1656,-1927,939,95,132,859
828387,18535648,19424320,18540646,19425382,3425,664,6642,-8140,1386,2621,-1592,260,95,132,859
829388,18536160,19424932,18541114,19425850,3057,851,6934,-8658,1408,3244,-1676,684,108,128,858
830389,18536624,19425560,18541582,19426318,3359,681,7121,-8873,1428,3623,-1848,1236,108,128,858
831397,18537092,19426116,18542054,19426790,3337,1094,7230,-8856,1395,3811,-1958,1638,106,113,860
832391,18537624,19426644,18542522,19427258,2910,1243,7288,-8377,1326,3726,-2261,2739,106,113,860
833392,18538120,19427260,18542990,19427726,3124,628,7327,-7714,1216,3730,-2446,2746,102,110,858
834392,18538664,19427844,18543458,19428194,2791,777,7266,-6782,1047,3531,-3002,3696,102,110,858
835393,18539172,19428396,18543926,19428662,3000,940,7113,-5313,1127,3432,-4971,4653,107,109,860
836394,18539668,19428956,18544394,19429130,3063,850,6831,-3511,1535,3461,-6243,5912,107,109,860
837395,18540152,19429448,18544862,19429598,3131,1264,6451,-1057,1975,3416,-5748,7503,84,104,861
838396,18540656,19430052,18545330,19430066,2992,505,6173,1381,2190,2862,-4665,6300,84,104,861
839397,18541200,19430596,18545798,19430534,2709,846,6068,3259,2028,2813,-4063,4621,105,121,858
840398,18541644,19431252,18546266,19431002,3346,64,6036,4919,1694,2947,-3647,4204,105,121,858
841399,18542172,19431796,18546734,19431470,2795,730,5968,6475,1381,2900,-3593,3550,94,94,861
842401,18542780,19432236,18547202,19431938,2235,1393,5735,8175,1123,3546,-4124,3791,94,94,861
843401,18543280,19432664,18547670,19432406,2897,1485,5481,9708,956,4531,-3824,2835,119,89,862
844402,18543896,19433108,18548138,19432874,2108,1396,5235,10588,690,5808,-3118,848,119,89,862
845403,18544496,19433504,18548606,19433342,2150,1727,5089,10819,274,6363,-3217,-1373,105,73,860
846405,18545088,19433824,18549074,19433810,2146,2267,5063,10280,-221,5680,-3438,-3339,105,73,860
847405,18545644,19434120,18549542,19434278,2333,2493,4955,9430,-727,5553,-4091,-3248,124,71,862
848406,18546308,19434412,18550010,19434746,1573,2595,4631,8935,-1121,5738,-4773,-2343,124,71,862
849408,18546900,19434648,18550478,19435214,1969,3047,4205,8665,-1481,5821,-4309,-2364,129,63,857
850409,18547436,19434836,18550946,19435682,2290,3470,3796,8326,-1963,5700,-3191,-2572,129,63,857
851410,18548092,19435068,18551414,19436150,1458,3299,3381,8043,-2523,5295,-2401,-1959,100,55,855
852410,18548768,19435284,18551882,19436618,1242,3510,2815,8224,-3167,4743,-1587,-528,100,55,855
853412,18549252,19435496,18552350,19437086,2436,3647,2115,8698,-3884,3903,-1391,-82,115,53,852
854413,18550000,19435724,18552818,19437554,663,3654,1425,9388,-4600,2927,-1269,386,115,53,852
855426,18550480,19435932,18553286,19438022,2334,3800,729,10199,-5281,2133,-1190,866,112,57,848
856414,18551164,19436172,18553754,19438490,965,3794,-32,11074,-5953,1951,-927,947,112,57,848
857415,18551736,19436428,18554222,19438958,1619,3787,-901,11905,-6632,1970,-79,988,126,51,849
858417,18552396,19436704,18554690,19439426,986,3747,-1674,12335,-7389,1740,742,-452,126,51,849
859417,18552924,19437028,18555158,19439894,1784,3511,-2265,12227,-8203,1289,1098,-1669,125,73,851
860418,18553568,19437336,18555626,19440362,982,3682,-2797,11806,-8930,1012,797,-1933,125,73,851
861419,18554200,19437708,18556094,19440830,986,3324,-3311,11354,-9517,1242,596,-2140,128,81,851
862421,18554816,19438152,18556562,19441298,1021,2886,-3774,10755,-10030,1152,1116,-2679,128,81,851
863421,18555396,19438644,18557030,19441766,1197,2575,-4061,9834,-10487,1232,1324,-3585,104,98,854
864422,18555996,19439108,18557498,19442234,1015,2753,-4176,8450,-10889,1247,1509,-4445,104,98,854
865424,18556544,19439532,18557966,19442702,1304,3023,-4281,7049,-11130,1195,1040,-4047,96,85,861
866434,18557040,19440032,18558438,19443174,1619,2536,-4447,5719,-11119,987,392,-3812,96,85,861
867426,18557556,19440400,18558906,19443642,1474,3406,-4665,4525,-10935,502,74,-3331,88,97,859
868426,18558016,19440816,18559374,19444110,1827,3129,-4955,3730,-10648,-131,300,-2084,88,97,859
869427,18558528,19441236,18559842,19444578,1483,3126,-5290,3131,-10362,-685,912,-1612,87,90,856
870428,18559020,19441720,18560310,19445046,1597,2720,-5614,2702,-10150,-1185,1672,-1026,87,90,856
871430,18559496,19442200,18560778,19445514,1695,2740,-5906,2540,-10006,-2114,2621,-204,81,95,856
872430,18559960,19442740,18561246,19445982,1772,2334,-6149,2414,-9901,-2869,3128,25,81,95,856
873431,18560456,19443228,18561714,19446450,1559,2650,-6358,2428,-9791,-3225,3187,718,102,112,857
874433,18560892,19443764,18562182,19446918,1948,2322,-6581,2733,-9624,-4012,3806,1792,102,112,857
875433,18561312,19444224,18562650,19447386,2070,2801,-6880,3377,-9296,-4970,3105,2949,95,111,860
876434,18561824,19444732,18563118,19447854,1476,2483,-7206,4164,-8790,-6033,2937,3416,95,111,860
877435,18562252,19445256,18563586,19448322,2019,2360,-7556,4967,-8190,-6353,2988,3776,80,97,857
878437,18562568,19445772,18564054,19448790,2786,2389,-7885,5681,-7614,-6278,3001,3476,80,97,857
879438,18562848,19446288,18564522,19449258,3094,2369,-8128,6111,-7057,-6780,2486,2995,72,108,859
880439,18563236,19446732,18564990,19449726,2454,2830,-8249,6221,-6408,-7352,1333,2589,72,108,859
881440,18563576,19447204,18565458,19450194,2811,2653,-8407,6006,-5669,-7210,-2,2266,71,107,852
882441,18563912,19447700,18565926,19450662,2895,2492,-8603,5560,-4944,-6645,-685,1696,71,107,852
883442,18564240,19448240,18566394,19451130,3006,2186,-8808,4845,-4320,-6407,-738,1319,67,105,853
884443,18564560,19448756,18566862,19451598,3121,2315,-8999,3833,-3783,-6426,-936,899,67,105,853
885444,18564828,19449356,18567330,19452066,3535,1732,-9152,2586,-3193,-5888,-1556,821,77,103,853
886445,18565136,19449848,18567798,19452534,3355,2398,-9275,1334,-2435,-4977,-2393,1228,77,103,853
887446,18565416,19450240,18568266,19453002,3614,3056,-9326,93,-1566,-4305,-3384,1122,73,92,852
888447,18565724,19450648,18568734,19453470,3509,2984,-2597,-4118,-1548,4445,-9304,28649,73,92,852
889448,18566028,19451228,18569202,19453938,3607,1859,6208,-6224,-1824,7105,-7015,32767,75,93,846
890461,18566312,19451808,18569670,19454406,3800,1811,6024,-2160,-1093,-593,-1657,24084,75,93,846
891450,18566616,19452352,18570138,19454874,3761,2003,-236,5494,-791,-98,4981,26196,66,112,850
892451,18566948,19452892,18570606,19455342,3647,1997,-4271,9205,-744,-3027,1983,8927,66,112,850
893465,18567264,19453232,18571074,19455810,3800,3303,-4272,7389,-595,-2751,140,-2349,68,114,849
894453,18567608,19453856,18571542,19456278,3694,1461,-2974,3230,-397,-1919,-382,-3245,68,114,849
895454,18567976,19454492,18572010,19456746,3589,1312,-1922,-126,60,-2499,-374,-2558,86,114,845
896468,18568316,19455052,18572478,19457214,3800,1748,-1639,-2370,513,-913,-76,-1627,86,114,845
897469,18568644,19455656,18572946,19457682,3800,1413,-1495,-3910,885,-119,365,-483,77,130,853
898470,18568968,19456228,18573414,19458150,3800,1568,-1335,-4699,1281,-789,580,2645,77,130,853
899471,18569332,19456788,18573882,19458618,3800,1603,-1006,-4995,1623,-140,-658,3606,89,108,850
900459,18569724,19457480,18574350,19459086,3703,679,-735,-4810,2023,84,-1442,5963,89,108,850
901479,18570088,19458116,18574822,19459558,3800,958,-469,-3969,2257,-991,-499,7085,87,124,851
902461,18570480,19458792,18575290,19460026,3786,617,-41,-3710,1917,-1565,521,4437,87,124,851
903475,18570836,19459408,18575758,19460494,3800,927,729,-3668,1210,-2034,74,6258,70,107,854
904475,18571200,19460008,18576226,19460962,3800,969,2060,-2116,385,-740,-481,17721,70,107,854
905477,18571608,19460588,18576694,19461430,3800,1045,3277,-350,-410,-1269,-1980,10877,89,107,853
906478,18571952,19461140,18577162,19461898,3800,1184,3791,865,-902,-1854,-3276,7643,89,107,853
907479,18572304,19461536,18577630,19462366,3800,2190,3906,1761,-1168,-983,-3048,7387,84,113,852
908479,18572660,19461932,18578098,19462834,3800,2222,3882,2633,-1376,525,-2908,7405,84,113,852
909480,18572964,19462504,18578566,19463302,3800,1076,3948,3598,-1533,1030,-2095,6959,77,131,849
910481,18573272,19463068,18579034,19463770,3800,1084,4139,4005,-1735,1602,-1070,4620,77,131,849
911483,18573580,19463580,18579502,19464238,3800,1390,4399,3727,-2088,2322,221,2724,64,112,847
912483,18573868,19464016,18579970,19464706,3800,1880,4624,3031,-2478,2536,2071,2091,64,112,847
913485,18574148,19464376,18580438,19465174,3800,2402,4667,2528,-2769,2832,1962,2525,55,92,851
914486,18574444,19464712,18580906,19465642,3800,2610,4612,2085,-2900,2672,1308,2564,55,92,851
915487,18574716,19465016,18581374,19466110,3800,2882,4479,1870,-3033,2040,1501,3226,52,65,848
916488,18574980,19465348,18581842,19466578,3800,2767,4274,1631,-3419,1465,2069,2535,52,65,848
917489,18575260,19465616,18582310,19467046,3800,3255,4017,1097,-3921,1129,1589,2159,70,55,843
918489,18575568,19465836,18582778,19467514,3800,3665,3679,772,-4253,980,957,3147,70,55,843
919491,18575824,19466060,18583246,19467982,3800,3747,3302,511,-4425,720,684,2963,44,50,842
920491,18576096,19466316,18583714,19468450,3800,3640,2905,372,-4609,366,716,3388,44,50,842
921493,18576368,19466580,18584182,19468918,3800,3681,2501,215,-4876,-70,1157,3229,63,57,836
922494,18576644,19466884,18584650,19469386,3800,3503,2077,-101,-5200,-87,1589,3010,63,57,836
923494,18576928,19467164,18585118,19469854,3800,3737,1596,-314,-5484,-62,1899,3498,58,55,837
924495,18577208,19467516,18585586,19470322,3800,3338,1124,-496,-5647,-424,2026,3284,58,55,837
925496,18577500,19467860,18586054,19470790,3800,3443,667,-757,-5727,-650,2049,3229,65,65,839
926497,18577812,19468224,18586522,19471258,3800,3364,234,-1192,-5759,-828,2594,2745,65,65,839
927498,18578156,19468604,18586990,19471726,3800,3303,-162,-1801,-5791,-741,3184,2434,62,72,840
928499,18578488,19468992,18587458,19472194,3800,3289,-496,-2428,-5886,-650,3704,2273,62,72,840
929501,18578832,19469392,18587926,19472662,3800,3245,-736,-3143,-5911,-369,3289,2134,56,96,841
930501,18579260,19469824,18588394,19473130,3800,3061,-963,-3569,-5705,156,2119,3324,56,96,841
931502,18579656,19470252,18588862,19473598,3800,3104,-1180,-3733,-5324,324,1592,3879,88,104,842
932503,18580052,19470708,18589330,19474066,3800,2935,-1322,-3817,-4902,194,1621,3950,88,104,842
933505,18580544,19471196,18589798,19474534,3800,2727,-1382,-4035,-4505,90,1889,3776,98,88,844
934505,18581016,19471656,18590266,19475002,3800,2906,-1454,-4294,-4174,68,2296,4024,98,88,844
935506,18581468,19472104,18590734,19475470,3800,2991,-1520,-4371,-3825,261,2242,4596,93,88,844
936514,18581964,19472552,18591206,19475942,3800,3002,-1615,-4360,-3531,306,2321,4603,93,88,844
937508,18582500,19472992,18591674,19476410,3800,3065,-1710,-4248,-3306,597,2402,5114,104,105,846
938510,18583012,19473508,18592142,19476878,3800,2569,-1789,-4074,-3088,873,2409,5442,104,105,846
939510,18583568,19473932,18592610,19477346,3800,3164,-1816,-3898,-2869,757,2034,5627,105,98,845
940511,18584220,19474356,18593078,19477814,3800,3184,-1697,-3569,-2689,477,1762,6786,105,98,845
941512,18584800,19474780,18593546,19478282,3800,3204,-778,-2109,-2624,1669,985,18958,122,98,847
942513,18585436,19475184,18594014,19478750,3800,3358,640,49,-2694,1832,896,19386,122,98,847
943502,18586112,19475616,18594482,19479218,3635,3199,1330,527,-2773,425,1657,4977,136,101,845
944503,18586780,19476088,18594950,19479686,3598,2949,1424,-301,-2796,359,1528,3145,136,101,845
945504,18587452,19476472,18595418,19480154,3485,3536,1388,-1456,-2744,528,1081,2761,115,84,844
946505,18588192,19476872,18595886,19480622,2943,3466,1476,-2377,-2603,613,935,2590,115,84,844
947506,18588868,19477324,18596354,19481090,3252,3149,1660,-3248,-2450,710,1388,2121,143,100,847
948507,18589548,19477772,18596822,19481558,3135,3184,1853,-4171,-2373,656,1657,2036,143,100,847
949508,18590324,19478352,18597290,19482026,2402,2310,2026,-5065,-2340,391,1668,2171,135,88,849
950509,18590984,19478888,18597758,19482494,3043,2556,2196,-5929,-2351,380,2061,2060,135,88,849
951510,18591708,19479412,18598226,19482962,2532,2608,2330,-6676,-2383,37,1306,2819,134,118,849
952511,18592436,19480000,18598694,19483430,2395,2155,2393,-7178,-2374,-247,-157,3586,134,118,849
953512,18593136,19480584,18599162,19483898,2469,2130,2430,-7371,-2393,-552,-670,4000,140,134,855
954513,18593844,19481200,18599630,19484366,2314,1866,2490,-7497,-2412,-1153,-1175,4277,140,134,855
955514,18594556,19481872,18600098,19484834,2183,1426,2553,-7462,-2397,-1620,-1416,4820,140,133,859
956515,18595200,19482500,18600566,19485302,2532,1632,2613,-7361,-2329,-1601,-1478,4894,140,133,859
957516,18595828,19483132,18601034,19485770,2562,1535,2703,-7227,-2166,-1399,-1294,4798,150,120,861
958517,18596500,19483680,18601502,19486238,2199,2026,2713,-7000,-1899,-1337,-1649,5267,150,120,861
959518,18597164,19484344,18601970,19486706,2164,1214,2705,-6689,-1497,-1646,-2063,5317,135,116,862
960519,18597780,19484952,18602438,19487174,2399,1504,2709,-6355,-1003,-2040,-2272,5423,135,116,862
961520,18598332,19485628,18602906,19487642,2764,988,2775,-6009,-465,-2295,-2482,5352,126,122,860
962521,18598980,19486232,18603374,19488110,2085,1379,2816,-5706,6,-2391,-2658,5387,126,122,860
963522,18599492,19486824,18603842,19488578,2917,1399,2910,-5476,373,-2119,-2421,4538,130,124,861
964523,18600004,19487548,18604310,19489046,2898,462,3095,-5664,610,-1300,-1699,2964,130,124,861
965524,18600572,19488140,18604778,19489514,2505,1233,3348,-6196,776,2,-1353,2158,130,144,864
966525,18601084,19488848,18605246,19489982,2837,403,3589,-6711,999,1010,-1418,2223,130,144,864
967526,18601540,19489452,18605714,19490450,3193,993,3796,-7126,1300,1907,-1440,2167,87,132,862
968526,18601980,19490020,18606182,19490918,3306,1174,4055,-7431,1627,2487,-1475,2009,87,132,862
969528,18602384,19490580,18606650,19491386,3559,1184,4342,-8033,1851,3334,-1064,1027,84,124,862
970529,18602804,19491240,18607118,19491854,3481,475,4658,-8441,1981,4247,-1186,1338,84,124,862
971537,18603184,19491860,18607590,19492326,3773,660,4908,-8681,2037,4543,-845,1537,72,128,857
972531,18603604,19492424,18608058,19492794,3545,968,5089,-8741,2034,4532,-1590,2084,72,128,857
973532,18604036,19493016,18608526,19493262,3487,739,5148,-8169,1977,3807,-2451,3884,94,104,857
974533,18604532,19493492,18608994,19493730,3075,1460,5225,-7057,1962,3096,-3188,4669,94,104,857
975533,18604988,19494076,18609462,19494198,3331,734,5251,-5691,1890,2960,-3665,5210,101,113,856
976534,18605500,19494556,18609930,19494666,2962,1379,5296,-3980,1957,2740,-5071,5695,101,113,856
977536,18606008,19495172,18610398,19495134,2971,464,5284,-1779,2446,3295,-6594,7314,84,119,858
978537,18606500,19495760,18610866,19495602,3061,586,5141,683,3060,3931,-6289,7642,84,119,858
979538,18606976,19496332,18611334,19496070,3159,640,5105,3141,3255,2756,-4472,7103,86,104,859
980539,18607480,19496916,18611802,19496538,2969,514,5346,5207,3020,2002,-3935,4841,86,104,859
981540,18608056,19497432,18612270,19497006,2471,918,5706,6438,2476,1688,-3617,2657,92,98,861
982541,18608484,19497928,18612738,19497474,3415,1031,5965,7714,2005,2073,-3655,3317,92,98,861
983542,18609048,19498408,18613206,19497942,2524,1126,6064,9108,1761,3030,-3965,2809,110,94,861
984542,18609672,19498808,18613674,19498410,2081,1656,6000,10307,1554,3851,-3962,2106,110,94,861
985544,18610140,19499184,18614142,19498878,3057,1845,5893,11416,1303,4142,-3709,1515,106,84,857
986545,18610716,19499544,18614610,19499346,2335,1992,5745,11906,965,4822,-3932,-540,106,84,857
987546,18611324,19499884,18615078,19499814,2074,2174,5582,11807,469,4799,-3837,-2038,103,74,863
988547,18611952,19500184,18615546,19500282,1880,2498,5393,11370,-55,4705,-4146,-2574,103,74,863
989548,18612564,19500424,18616014,19500750,1918,2973,5081,10901,-561,4983,-4768,-2380,131,58,860
990548,18613188,19500736,18616482,19501218,1774,2591,4628,10620,-969,4992,-4460,-1763,131,58,860
991549,18613768,19501024,18616950,19501686,2001,2821,4049,10566,-1404,5116,-2968,-1626,103,57,859
992550,18614328,19501324,18617418,19502154,2085,2820,3457,10214,-2099,4833,-1264,-2862,103,57,859
993552,18614940,19501632,18617886,19502622,1698,2841,2876,9565,-2993,4716,-137,-3139,102,58,858
994553,18615516,19501972,18618354,19503090,1877,2697,2208,9042,-3908,4859,380,-2604,102,58,858
995554,18616096,19502288,18618822,19503558,1802,2914,1398,8723,-4710,4445,251,-1966,101,73,855
996555,18616832,19502620,18619290,19504026,711,2873,529,8514,-5478,3974,571,-1744,101,73,855
997556,18617372,19502940,18619758,19504494,1904,3014,-281,8189,-6323,3590,1204,-2342,125,78,857
998557,18617960,19503224,18620226,19504962,1552,3320,-1030,7820,-7190,2912,1530,-2196,125,78,857
999558,18618600,19503552,18620694,19505430,1152,3107,-1756,7359,-8057,2195,1856,-2338,124,74,860
1000558,18619224,19503892,18621162,19505898,1183,3089,-2464,6772,-8846,1888,2516,-2473,124,74,860
1001560,18619856,19504196,18621630,19506366,1062,3386,-3090,6356,-9507,1852,2301,-1958,124,57,854
1002561,18620476,19504484,18622098,19506834,1070,3565,-3622,6066,-10020,1610,1849,-1605,124,57,854
1003562,18621064,19504804,18622566,19507302,1218,3431,-4040,5865,-10386,1334,1922,-1413,105,68,857
1004563,18621640,19505248,18623034,19507770,1246,2667,-4352,5543,-10572,1166,1965,-1422,105,68,857
1005564,18622148,19505616,18623502,19508238,1654,3187,-4627,5122,-10625,1337,2132,-1445,89,67,853
1006574,18622708,19505900,18623974,19508710,1290,3794,-4963,4624,-10610,1189,2407,-1761,89,67,853
1007566,18623152,19506256,18624442,19509178,2025,3395,-5318,3998,-10515,798,2338,-1964,96,83,858
1008566,18623628,19506628,18624910,19509646,1823,3337,-5652,3383,-10370,299,2794,-1698,96,83,858
1009568,18624156,19507004,18625378,19510114,1472,3353,-5942,2799,-10157,-60,3074,-1804,93,73,853
1010569,18624640,19507420,18625846,19510582,1739,3127,-6153,2200,-9899,-118,3588,-1806,93,73,853
1011570,18625068,19507828,18626314,19511050,2107,3203,-6356,1704,-9614,2,3974,-1326,95,72,854
1012571,18625560,19508280,18626782,19511518,1698,2936,-6687,1330,-9281,45,3605,-657,95,72,854
1013572,18626008,19508656,18627250,19511986,1981,3452,-7059,1448,-8828,-176,3049,639,79,98,855
1014573,18626376,19509108,18627718,19512454,2525,2985,-7400,1852,-8164,-1095,2228,1600,79,98,855
1015574,18626804,19509632,18628186,19512922,2168,2511,-7723,2244,-7315,-1679,1443,2132,90,90,857
1016575,18627248,19510096,18628654,19513390,2079,2888,-8036,2726,-6490,-1571,1606,2248,90,90,857
1017576,18627620,19510576,18629122,19513858,2572,2784,-8310,2891,-5814,-1451,1635,1269,73,89,852
1018577,18627976,19511044,18629590,19514326,2721,2860,-8508,2863,-5287,-2023,1065,1397,73,89,852
1019578,18628216,19511476,18630058,19514794,3546,3101,-8629,2742,-4837,-3233,435,1592,79,97,856
1020579,18628576,19511956,18630526,19515262,2844,2796,-8723,2576,-4428,-3720,-251,1605,79,97,856
1021580,18628916,19512436,18630994,19515730,3026,2792,-8865,2545,-3986,-3695,-923,2502,63,88,852
1022581,18629288,19512864,18631462,19516198,2869,3135,-8983,2676,-3474,-4094,-1393,3291,63,88,852
1023581,18629616,19513372,18631930,19516666,3205,2618,-9115,2738,-3006,-4592,-1815,3269,88,100,852
1024583,18629932,19513832,18632398,19517134,3347,2922,-9202,2659,-2580,-4909,-2591,3573,88,100,852
1025584,18630272,19514312,18632866,19517602,3254,2792,-9186,2624,-2136,-4770,-3405,4324,60,110,850
1026585,18630588,19514936,18633334,19518070,3471,1825,-9081,2659,-1648,-4598,-4054,4698,60,110,850
1027586,18630900,19515436,18633802,19518538,3566,2586,-8032,3130,-1135,-4526,-5947,10780,64,113,847
1028587,18631256,19515792,18634270,19519006,3340,3536,2224,9047,-505,230,-20691,32767,64,113,847
1029588,18631588,19516216,18634738,19519474,3551,3130,15038,17299,-98,4173,-16718,32767,80,95,851
1030589,18631920,19516704,18635206,19519942,3612,2722,17615,21228,751,-219,-5002,12071,80,95,851
1031590,18632304,19517224,18635674,19520410,3323,2501,12369,23727,1720,2557,417,17503,72,108,844
1032591,18632656,19517948,18636142,19520878,3575,1113,6792,25502,1985,1939,1889,9567,72,108,844
1033592,18633024,19518464,18636610,19521346,3520,2393,4841,23236,1784,-2013,1591,-5063,80,121,847
1034593,18633436,19518872,18637078,19521814,3270,3094,5601,16307,1725,-5034,1075,-12884,80,121,847
1035594,18633780,19519412,18637546,19522282,3750,2239,6708,8433,2140,-5385,222,-11606,70,111,854
1036595,18634160,19520068,18638014,19522750,3565,1432,7021,3108,2797,-3754,-750,-7134,70,111,854
1037596,18634544,19520704,18638482,19523218,3577,1483,6346,1227,3362,-441,-1858,-1717,90,129,849
1038597,18634904,19521384,18638950,19523686,3776,1115,5249,286,3609,369,-2389,-1523,90,129,849
1039598,18635288,19521980,18639418,19524154,3663,1585,4402,-1250,3548,-304,-1915,-2245,84,124,851
1040598,18635664,19522612,18639886,19524622,3755,1288,3971,-2979,3271,-519,-1643,-1552,84,124,851
1041607,18636044,19523364,18640358,19525094,3771,416,3495,-4486,2876,-388,-2408,-167,68,118,853
1042614,18636416,19524088,18640826,19525562,3800,478,2922,-5278,2420,-1534,-2507,1510,68,118,853
1043615,18636780,19524680,18641294,19526030,3800,1249,2394,-5683,1719,-2323,-629,1752,68,116,853
1044603,18637200,19525252,18641762,19526498,3632,1329,1972,-5831,742,-2062,364,2591,68,116,853
1045617,18637564,19525720,18642230,19526966,3800,1979,1714,-5705,-231,-2334,999,3326,93,129,855
1046617,18637960,19526276,18642698,19527434,3800,1390,1608,-5706,-1060,-2513,1453,2660,93,129,855
1047618,18638352,19526848,18643166,19527902,3800,1245,1506,-5587,-1636,-1912,162,3521,84,127,854
1048619,18638700,19527460,18643634,19528370,3800,931,1238,-4966,-1900,-1518,-473,4742,84,127,854
1049621,18639012,19527984,18644102,19528838,3800,1458,888,-4261,-1957,-1147,-770,4116,73,109,851
1050622,18639328,19528492,18644570,19529306,3800,1540,565,-3872,-1983,-638,-449,3216,73,109,851
1051622,18639592,19528992,18645038,19529774,3800,1576,257,-3676,-2077,-421,669,3138,56,107,851
1052624,18639824,19529480,18645506,19530242,3800,1642,0,-3608,-2242,-186,834,2281,56,107,851
1053624,18640072,19529960,18645974,19530710,3800,1687,-149,-3676,-2342,39,599,1787,51,102,850
1054626,18640300,19530376,18646442,19531178,3800,2110,-282,-3586,-2253,317,1043,2661,51,102,850
1055626,18640556,19530776,18646910,19531646,3800,2241,-650,-2636,-1648,1472,1381,2938,35,98,849
1056627,18640844,19531124,18647378,19532114,3800,2619,-702,-2310,-1316,1233,2366,2496,35,98,849
1057628,18641144,19531440,18647846,19532582,3800,2885,-689,-2247,-1082,1126,3417,1997,46,68,847
1058629,18641448,19531756,18648314,19533050,3800,2952,-722,-2212,-953,1256,4113,2524,46,68,847
1059630,18641764,19532080,18648782,19533518,3800,2965,-838,-1678,-951,1148,4827,3685,58,62,845
1060631,18642136,19532364,18649250,19533986,3800,3297,-995,-923,-1163,682,5608,3914,58,62,845
1061632,18642456,19532632,18649718,19534454,3800,3485,-1115,-94,-1547,431,5894,4196,55,74,842
1062633,18642768,19532900,18650186,19534922,3800,3573,-1244,760,-2080,489,6424,4485,55,74,842
1063634,18643140,19533152,18650654,19535390,3800,3769,-1359,1506,-2732,394,6722,3846,80,50,841
1064648,18643496,19533392,18651122,19535858,3800,3800,-1461,1939,-3480,-183,7255,2845,80,50,841
1065649,18643848,19533648,18651590,19536326,3800,3800,-1480,1883,-4269,-486,7039,1426,84,45,839
1066650,18644216,19533868,18652058,19536794,3800,3800,-1424,1455,-4990,-292,6073,429,84,45,839
1067651,18644564,19534088,18652526,19537262,3800,3800,-1330,927,-5560,-178,4456,77,76,56,836
1068652,18644908,19534316,18652994,19537730,3800,3800,-1233,317,-5993,-224,2864,-264,76,56,836
1069653,18645260,19534584,18653462,19538198,3800,3800,-1120,-411,-6338,-198,2113,-483,77,67,837
1070654,18645592,19534880,18653930,19538666,3800,3800,-991,-1142,-6587,-83,1748,-456,77,67,837
1071655,18645940,19535188,18654398,19539134,3800,3800,-832,-1917,-6764,117,1651,-592,78,67,836
1072656,18646324,19535516,18654866,19539602,3800,3800,-705,-2723,-6857,178,1335,-412,78,67,836
1073657,18646648,19535868,18655334,19540070,3800,3800,-669,-3339,-6832,295,831,551,58,74,836
1074658,18646976,19536228,18655802,19540538,3800,3800,-782,-3588,-6697,593,93,1651,58,74,836
1075647,18647364,19536628,18656270,19541006,3800,3791,-914,-3596,-6569,572,29,2388,60,79,838
1076667,18647716,19537020,18656742,19541478,3800,3800,-971,-3537,-6428,334,-93,2522,60,79,838
1077661,18648076,19537412,18657210,19541946,3800,3800,-967,-3660,-6292,268,-3,2386,81,88,838
1078649,18648480,19537844,18657678,19542414,3800,3679,-944,-3831,-6175,493,204,2394,81,88,838
1079650,18648908,19538264,18658146,19542882,3800,3776,-870,-4094,-6025,695,239,2066,87,84,838
1080651,18649360,19538720,18658614,19543350,3800,3557,-817,-4293,-5827,890,264,2586,87,84,838
1081652,18649804,19539208,18659082,19543818,3800,3349,-793,-4340,-5626,935,487,3088,87,92,840
1082653,18650312,19539656,18659550,19544286,3800,3608,-774,-4302,-5431,974,531,3267,87,92,840
1083655,18650820,19540136,18660018,19544754,3800,3404,-726,-4211,-5240,1124,644,3409,93,81,841
1084655,18651324,19540564,18660486,19545222,3800,3747,-687,-4142,-5051,1042,779,3656,93,81,841
1085656,18651888,19541012,18660954,19545690,3800,3632,-701,-4038,-4854,1145,576,4045,103,94,842
1086657,18652448,19541520,18661422,19546158,3800,3241,-743,-3914,-4669,1304,796,3917,103,94,842
1087658,18653068,19541944,18661890,19546626,3800,3786,-747,-3900,-4463,1127,848,3631,114,91,841
1088659,18653668,19542388,18662358,19547094,3800,3673,-684,-3854,-4251,892,869,3777,114,91,841
1089661,18654292,19542884,18662826,19547562,3800,3336,-640,-3886,-4017,867,1254,3747,130,107,845
1090661,18654900,19543408,18663294,19548030,3800,3138,-590,-3916,-3739,1174,1492,3785,130,107,845
1091663,18655556,19543960,18663762,19548498,3800,2926,-609,-4126,-3478,1548,1861,3186,130,104,843
1092663,18656184,19544568,18664230,19548966,3800,2515,-589,-4570,-3296,1575,2423,2525,130,104,843
1093652,18656836,19545064,18664698,19549434,3703,3204,-580,-5167,-3152,1259,2170,2532,121,130,846
1094653,18657568,19545696,18665166,19549902,3088,2283,-559,-5579,-2918,1364,1137,2901,121,130,846
1095654,18658280,19546252,18665634,19550370,3108,2720,-624,-5794,-2556,1297,516,3652,142,120,849
1096655,18658944,19546876,18666102,19550838,3323,2228,-766,-5721,-2096,1229,-117,4412,142,120,849
1097656,18659672,19547516,18666570,19551306,2810,2052,-845,-5622,-1653,869,70,4023,129,119,856
1098657,18660328,19548144,18667038,19551774,3179,2058,-909,-5711,-1235,631,-41,4181,129,119,856
1099658,18660936,19548708,18667506,19552242,3419,2417,-959,-5571,-807,632,-125,4639,125,111,855
1100659,18661600,19549260,18667974,19552710,2984,2455,-1068,-5362,-302,278,-459,5077,125,111,855
1101659,18662212,19549896,18668442,19553178,3246,1857,-1189,-4812,316,-483,-1392,6215,121,114,856
1102660,18662768,19550448,18668910,19553646,3560,2346,-1345,-4152,973,-1555,-1775,6536,121,114,856
1103661,18663312,19551200,18669378,19554114,3602,971,-1536,-3366,1671,-2495,-2493,7290,113,132,854
1104662,18663868,19551788,18669846,19554582,3490,1944,-2235,-2029,2572,-2806,-4946,9615,113,132,854
1105664,18664400,19552476,18670314,19555050,3612,1223,-3076,-640,3698,-2899,-6299,8257,108,125,851
1106677,18664868,19553096,18670782,19555518,3800,1582,-3629,10,4715,-2449,-5006,5967,108,125,851
1107665,18665396,19553812,18671250,19555986,3613,873,-3606,-324,5281,-1752,-2626,3610,102,147,853
1108679,18665824,19554484,18671718,19556454,3800,1059,-3214,-1271,5446,-685,-962,2430,102,147,853
1109680,18666280,19555156,18672186,19556922,3800,970,-2788,-2354,5502,755,-1018,2172,96,120,853
1110681,18666716,19555764,18672654,19557390,3800,1308,-2440,-3159,5671,1715,-1768,2637,96,120,853
1111689,18667092,19556324,18673126,19557862,3800,1570,-2217,-3810,5957,2646,-2714,2786,75,116,853
1112683,18667428,19556960,18673594,19558330,3800,1022,-2074,-4179,6475,3657,-5701,3781,75,116,853
1113684,18667780,19557560,18674062,19558798,3800,1189,-1825,-4475,6905,3443,-5148,3384,80,134,852
1114685,18668052,19558208,18674530,19559266,3800,810,-1361,-4761,6955,3396,-4519,3637,80,134,852
1115686,18668328,19558720,18674998,19559734,3800,1641,-769,-5025,6754,4174,-5194,3815,51,123,851
1116687,18668600,19559336,18675466,19560202,3800,926,-142,-4742,6504,4253,-5239,5444,51,123,851
1117688,18668816,19559936,18675934,19560670,3800,968,446,-3861,6289,4337,-5859,7267,44,111,851
1118689,18668996,19560512,18676402,19561138,3800,1071,994,-2737,6039,4661,-6554,7427,44,111,851
1119690,18669124,19561144,18676870,19561606,3800,649,1544,-1502,5655,5296,-7046,7813,44,102,851
1120691,18669256,19561696,18677338,19562074,3800,1112,1074,1476,3554,14745,-19085,3988,44,102,851
1121692,18669384,19562300,18677806,19562542,3800,728,168,4851,1092,10386,-16939,1304,36,110,850
1122693,18669508,19562784,18678274,19563010,3800,1471,240,6426,128,4925,-4593,6777,36,110,850
1123694,18669660,19563216,18678742,19563478,3800,1812,1122,7184,78,4831,-3534,6079,44,82,850
1124695,18669816,19563644,18679210,19563946,3800,1854,2062,7258,184,4110,-3548,5071,44,82,850
1125696,18669924,19564084,18679678,19564414,3800,1792,2904,7656,11,3917,-3737,4324,41,78,847
1126697,18669960,19564444,18680146,19564882,3800,2339,3522,7627,-241,3024,-3372,3672,41,78,847
1127698,18669972,19564772,18680614,19565350,3800,2601,4015,8026,-418,3128,-3292,4902,2,77,844
1128699,18669964,19565112,18681082,19565818,3800,2582,4300,8289,-617,3197,-2473,3892,2,77,844
1129700,18669972,19565416,18681550,19566286,3800,2879,4594,8365,-833,2886,-1892,3619,11,55,842
1130701,18669960,19565700,18682018,19566754,3800,3085,4739,8883,-955,2766,-2262,4891,11,55,842
1131702,18669968,19565932,18682486,19567222,3800,3513,4797,9376,-978,1850,-2539,4595,13,66,841
1132703,18669968,19566240,18682954,19567690,3800,3110,4759,10013,-955,1099,-2702,5185,13,66,841
1133704,18669972,19566584,18683422,19568158,3800,2939,4690,10684,-849,548,-3266,5115,14,61,838
1134705,18669972,19566912,18683890,19568626,3800,3101,4567,11244,-679,-62,-3857,4974,14,61,838
1135706,18669952,19567268,18684358,19569094,3800,2976,4348,11792,-545,-665,-3585,4981,12,58,838
1136707,18669956,19567644,18684826,19569562,3800,2891,4133,12048,-453,-1012,-3207,3993,12,58,838
1137708,18669956,19567968,18685294,19570030,3800,3280,3823,12331,-387,-950,-2915,4157,13,58,837
1138709,18669948,19568320,18685762,19570498,3800,3157,3426,12560,-266,-1298,-2589,3953,13,58,837
1139710,18669960,19568620,18686230,19570966,3800,3555,2981,12639,-102,-1743,-2454,3434,14,72,839
1140712,18669952,19568924,18686698,19571434,3800,3604,2599,12444,49,-2040,-2141,2506,14,72,839
1141713,18669960,19569288,18687166,19571902,3800,3274,2284,11951,170,-2339,-1639,1835,-1,73,838
1142714,18669972,19569632,18687634,19572370,3800,3455,1959,11309,204,-2757,-1108,1468,-1,73,838
1143715,18669960,19569944,18688102,19572838,3800,3723,1600,10526,194,-3649,-1103,1205,14,66,835
1144716,18669964,19570288,18688570,19573306,3800,3579,1266,9679,158,-4100,-1035,977,14,66,835
1145717,18669964,19570672,18689038,19573774,3800,3366,903,8719,29,-4079,-109,580,5,77,836
1146726,18669976,19571112,18689510,19574246,3800,3031,492,7632,-140,-4152,230,560,5,77,836
1147731,18669972,19571424,18689978,19574714,3800,3800,91,6554,-233,-4210,-168,585,10,63,836
1148732,18669972,19571716,18690446,19575182,3800,3800,-203,5327,-238,-4142,46,-45,10,63,836
1149721,18669972,19572076,18690914,19575650,3800,3726,-439,4043,-201,-4051,282,56,-4,78,838
1150721,18669968,19572448,18691382,19576118,3800,3693,-647,2711,-130,-3986,439,-35,-4,78,838
1151735,18669980,19572772,18691850,19576586,3800,3800,-802,1279,-56,-3972,546,-383,2,78,834
1152723,18669996,19573172,18692318,19577054,3800,3613,-944,-216,10,-3851,891,-321,2,78,834
1153737,18670028,19573548,18692786,19577522,3800,3800,-1110,-1672,96,-3483,1084,259,1,78,835
1154738,18670064,19573908,18693254,19577990,3800,3800,-1268,-2964,259,-3172,737,738,1,78,835
1155739,18670104,19574244,18693722,19578458,3800,3800,-1374,-4079,500,-3147,828,1318,17,83,835
1156740,18670144,19574620,18694190,19578926,3800,3800,-1455,-5012,711,-3037,1403,2020,17,83,835
1157729,18670180,19575056,18694658,19579394,3800,3593,-1513,-5762,834,-2579,1792,2722,5,79,835
1158742,18670220,19575396,18695126,19579862,3800,3800,-1512,-6401,971,-2066,1350,3012,5,79,835
1159743,18670256,19575768,18695594,19580330,3800,3800,-1460,-6927,1201,-1645,605,3728,9,79,832
1160744,18670300,19576184,18696062,19580798,3800,3800,-1376,-7339,1513,-1393,417,4201,9,79,832
1161745,18670372,19576580,18696530,19581266,3800,3800,-1318,-7545,1858,-1125,385,5027,4,79,833
1162746,18670452,19576988,18696998,19581734,3800,3800,-1307,-7551,2221,-912,447,5500,4,79,833
1163734,18670572,19577440,18697466,19582202,3800,3684,-1301,-7520,2602,-605,618,5750,12,78,835
1164735,18670704,19577900,18697934,19582670,3800,3639,-1311,-7406,2974,-117,924,6147,12,78,835
1165749,18670912,19578292,18698402,19583138,3800,3800,-1341,-7298,3295,230,1226,6292,30,93,835
1166738,18671108,19578760,18698870,19583606,3800,3624,-1368,-7151,3565,379,1471,6496,30,93,835
1167738,18671380,19579212,18699338,19584074,3800,3732,-1359,-7047,3739,303,1608,6430,59,96,838
1168739,18671600,19579708,18699806,19584542,3800,3445,-1273,-6951,3830,147,1580,6929,59,96,838
1169741,18671780,19580208,18700274,19585010,3800,3407,-1087,-6844,3892,280,1073,7568,34,94,838
1170741,18672008,19580820,18700742,19585478,3800,2644,-806,-6738,3910,757,893,7406,34,94,838
1171755,18672236,19581176,18701210,19585946,3800,3800,-404,-6890,3791,1411,1202,6906,53,93,838
1172756,18672476,19581592,18701678,19586414,3800,3800,93,-7269,3610,1504,719,6270,53,93,838
1173745,18672764,19582072,18702146,19586882,3800,3539,600,-7669,3471,1100,-773,7242,57,79,843
1174745,18673032,19582704,18702614,19587350,3800,2518,1140,-7730,3379,1137,-1245,7862,57,79,843
1175747,18673288,19583288,18703082,19587818,3800,2768,1745,-7918,3319,776,-1021,6870,56,117,838
1176747,18673776,19583824,18703550,19588286,3800,3039,2386,-8158,3204,753,-327,6672,56,117,838
1177749,18673984,19584280,18704018,19588754,3800,3546,3033,-8538,3002,1070,870,5396,72,127,846
1178750,18674364,19584940,18704486,19589222,3800,2186,3660,-9211,2869,1125,403,4454,72,127,846
1179750,18674880,19585720,18704954,19589690,3800,1300,4290,-9506,2870,975,-323,5485,81,126,845
1180751,18675264,19586332,18705422,19590158,3800,2288,4953,-9874,2921,606,-156,5020,81,126,845
1181759,18675692,19587076,18705894,19590630,3800,1344,5568,-9962,2895,704,-219,5908,106,137,847
1182753,18676144,19587708,18706362,19591098,3800,1972,6103,-9706,2764,1021,678,6309,106,137,847
1183754,18676492,19588444,18706830,19591566,3800,1205,6665,-9811,2565,1839,1595,5055,71,132,848
1184755,18676892,19589000,18707298,19592034,3800,2293,7100,-9605,2417,2045,1045,6782,71,132,848
1185757,18677324,19589736,18707766,19592502,3800,1050,7382,-8856,2397,1620,858,7776,95,134,850
1186757,18677820,19590380,18708234,19592970,3800,1549,7558,-8129,2358,2362,1249,7345,95,134,850
1187759,18678248,19591048,18708702,19593438,3800,1311,7603,-7189,2280,2626,1288,8097,100,142,848
1188759,18678804,19591664,18709170,19593906,3800,1572,7591,-5877,2179,2113,1816,9099,100,142,848
1189761,18679356,19592240,18709638,19594374,3800,1774,7393,-4347,2136,2969,1300,9464,108,131,852
1190761,18679904,19592856,18710106,19594842,3800,1459,7253,-3195,2187,3701,1590,7710,108,131,852
1191762,18680480,19593396,18710574,19595310,3800,1904,7322,-2314,2335,3667,1412,7210,126,118,852
1192763,18681128,19593924,18711042,19595778,3800,1952,7382,-1389,2470,3834,225,7343,126,118,852
1193764,18681832,19594392,18711510,19596246,3800,2328,7240,-310,2604,3902,-71,7911,113,119,852
1194765,18682576,19594872,18711978,19596714,3800,2248,6743,1370,3048,4370,-771,9235,113,119,852
1195766,18683384,19595308,18712446,19597182,3800,2537,6586,2018,3291,4305,603,3811,124,108,852
1196767,18684148,19595740,18712914,19597650,3800,2579,6449,2526,3297,3929,-18,6019,124,108,852
1197768,18684932,19596156,18713382,19598118,3800,2702,6203,3584,3314,3964,-88,6826,132,95,850
1198769,18685820,19596532,18713850,19598586,3800,2992,5858,4793,3340,4468,624,6371,132,95,850
1199770,18686692,19596900,18714318,19599054,3800,3087,5534,6078,3297,4363,1899,6344,159,100,850
1200771,18687612,19597256,18714786,19599522,3800,3211,5334,7159,3270,4369,2416,5329,159,100,850
1201772,18688580,19597724,18715254,19599990,3800,2512,5155,8081,3230,4648,2508,4937,150,84,848
1202773,18689472,19598140,18715722,19600458,3800,2860,5013,8873,3240,4174,2354,4170,150,84,848
1203774,18690364,19598576,18716190,19600926,3800,2749,4969,9446,3267,3701,2272,2844,160,93,847
1204775,18691304,19599052,18716658,19601394,3800,2497,4973,9781,3195,3766,2762,1763,160,93,847
1205776,18692220,19599452,18717126,19601862,3800,3002,4896,10225,3039,3693,3882,2569,163,100,849
1206778,18693136,19599840,18717594,19602330,3800,3113,4657,11289,2818,3594,4200,3573,163,100,849
1207778,18693860,19600316,18718062,19602798,3800,2559,4241,12520,2540,2963,4182,3655,165,110,852
1208779,18694724,19600720,18718530,19603266,3800,3038,3793,13628,2254,2830,4356,3267,165,110,852
1209781,18695492,19601164,18718998,19603734,3800,2799,3404,14471,2056,3369,3813,2148,162,109,849
1210782,18696216,19601612,18719466,19604202,3800,2784,2964,14897,1843,2900,4204,837,162,109,849
1211783,18697036,19602028,18719934,19604670,3800,3007,2481,15183,1567,2153,4452,467,157,102,847
1212783,18697716,19602452,18720402,19605138,3800,2977,1797,15512,1162,1899,5893,976,157,102,847
1213784,18698396,19602872,18720870,19605606,3800,3023,892,16129,445,2057,7713,1299,144,100,849
1214785,18699132,19603244,18721338,19606074,3800,3366,75,16565,-437,1842,7362,-158,144,100,849
1215786,18699756,19603588,18721806,19606542,3800,3596,-561,16458,-1545,1138,7630,-1231,136,73,846
1216794,18700332,19603944,18722278,19607014,3800,3573,-1396,16400,-2862,686,9085,-421,136,73,846
1217789,18700984,19604308,18722746,19607482,3800,3568,-2450,16155,-4186,821,9962,-1574,120,73,843
1218802,18701560,19604628,18723214,19607950,3800,3800,-3388,15281,-5379,1694,9592,-3413,120,73,843
1219803,18702096,19604892,18723682,19608418,3800,3800,-3881,14004,-6304,2150,8524,-4246,126,58,842
1220804,18702672,19605124,18724150,19608886,3800,3800,-4197,12535,-6838,2116,6047,-4158,126,58,842
1221805,18703176,19605348,18724618,19609354,3800,3800,-4639,11386,-6996,2134,3258,-2943,113,58,839
1222806,18703620,19605500,18725086,19609822,3800,3800,-5178,10681,-6867,1684,1078,-1827,113,58,839
1223807,18704060,19605688,18725554,19610290,3800,3800,-5758,10471,-6548,1671,-669,-313,100,33,837
1224808,18704428,19605812,18726022,19610758,3800,3800,-6192,10113,-6324,1590,-550,-920,100,33,837
1225809,18704740,19605940,18726490,19611226,3800,3800,-6329,9122,-6505,854,785,-2782,80,24,834
1226810,18704984,19606096,18726958,19611694,3800,3800,-6120,7540,-7095,-68,1369,-4027,80,24,834
1227811,18705220,19606236,18727426,19612162,3800,3800,-5691,5753,-7796,-939,687,-3977,39,22,832
1228812,18705428,19606404,18727894,19612630,3800,3800,-5144,4087,-8359,-1481,434,-3493,39,22,832
1229813,18705632,19606640,18728362,19613098,3800,3800,-4546,2593,-8723,-1691,679,-3114,42,40,834
1230814,18705860,19606848,18728830,19613566,3800,3800,-4041,1471,-8835,-1993,-252,-1314,42,40,834
1231815,18706092,19607072,18729298,19614034,3800,3800,-3631,1069,-8679,-3043,-1384,1032,32,38,834
1232816,18706336,19607316,18729766,19614502,3800,3800,-3265,1092,-8335,-4026,-2033,2195,32,38,834
1233817,18706616,19607544,18730234,19614970,3800,3800,-2903,1286,-7838,-4525,-1846,2973,56,43,835
1234818,18706896,19607816,18730702,19615438,3800,3800,-2537,1439,-7165,-4764,-352,3345,56,43,835
1235819,18707184,19608132,18731170,19615906,3800,3800,-2223,1430,-6370,-5198,464,3215,45,57,835
1236820,18707540,19608464,18731638,19616374,3800,3800,-1856,565,-5352,-8378,459,1856,45,57,835
1237821,18707912,19608808,18732106,19616842,3800,3800,-1165,-3536,-3850,-15326,1072,-2624,76,76,835
1238822,18708268,19609188,18732574,19617310,3800,3800,-418,-9594,-2151,-16589,1606,-2083,76,76,835
1239823,18708700,19609568,18733042,19617778,3800,3800,-32,-13793,-821,-13044,1955,2511,85,81,838
1240824,18709168,19610028,18733510,19618246,3800,3800,-167,-14034,-63,-8191,2921,8358,85,81,838
1241825,18709704,19610444,18733978,19618714,3800,3800,-413,-11654,589,-7515,3756,11273,88,82,839
1242826,18710304,19610824,18734446,19619182,3800,3800,-486,-8430,1312,-7257,3821,12215,88,82,839
1243827,18710916,19611320,18734914,19619650,3800,3800,-508,-6057,1938,-6541,3205,11196,110,96,840
1244828,18711488,19611776,18735382,19620118,3800,3800,-738,-3976,2506,-6385,2967,12917,110,96,840
1245829,18712056,19612368,18735850,19620586,3800,3800,-1212,-1748,3034,-5842,1981,12938,130,96,841
1246830,18712772,19612932,18736318,19621054,3800,3800,-1708,-261,3439,-4772,1178,10117,130,96,841
1247831,18713472,19613524,18736786,19621522,3800,3800,-2233,822,3709,-4329,1104,9677,153,120,842
1248832,18714168,19614164,18737254,19621990,3800,3800,-2716,258,3651,-5030,583,5476,153,120,842
1249833,18714968,19614764,18737722,19622458,3800,3800,-3000,-2376,3240,-4072,-488,3742,151,126,842
1250821,18715748,19615492,18738190,19622926,3800,3207,-2660,-5859,2811,-2461,-1657,7671,151,126,842
1251829,18716568,19616252,18738662,19623398,3800,2883,-2220,-8588,2527,564,-1840,6006,141,134,845
1252823,18717440,19617008,18739130,19623866,3800,2782,-2195,-9286,2473,2587,-1876,5384,141,134,845
1253824,18718312,19617784,18739598,19624334,3800,2523,-2323,-9255,2529,3505,-1367,3775,164,147,850
1254825,18719248,19618564,18740066,19624802,3800,2362,-2433,-10149,2314,5365,-1071,1212,164,147,850
1255827,18720228,19619452,18740534,19625270,3800,1504,-2411,-11554,1921,5991,-1204,1233,195,156,852
1256827,18721204,19620316,18741002,19625738,3800,1481,-2241,-13101,1558,5908,-1141,649,195,156,852
1257828,18722180,19621176,18741470,19626206,3800,1335,-2047,-14610,1148,6471,-2220,267,202,152,854
1258829,18723236,19621980,18741938,19626674,3800,1538,-1868,-15822,834,5880,-3529,1189,202,152,854
1259830,18724236,19622768,18742406,19627142,3800,1499,-1758,-16563,658,4755,-4597,2671,193,155,857
1260831,18725192,19623588,18742874,19627610,3800,1144,-1642,-16988,449,4198,-5925,3075,193,155,857
