"Data file recorded 2014/9/24  18:8:43"
"%  Right Stride Frequency         = 3.0"
"%  Left Stride Frequency         = 3.0"
"%  Phase (Fractional)         = 32768.0"
"%  Experiment.py "
"%  Motor Gains    = [1800, 200, 100, 0, 0, 1800, 200, 100, 0, 0]
"% Columns: "
"% time | Right Leg Pos | Left Leg Pos | Commanded Right Leg Pos | Commanded Left Leg Pos | DCR | DCL | GyroX | GryoY | GryoZ | AX | AY | AZ | RBEMF | LBEMF | VBatt "
10877,7097300,7465228,7117426,7477874,3800,3800,-135,-707,311,468,-488,3996,-4,-10,891
11871,7097308,7465236,7117623,7478071,3800,3800,-138,-710,309,486,-513,4016,-6,2,891
12872,7097392,7465228,7117820,7478268,3800,3800,-131,-713,311,516,-539,4134,-6,2,891
13873,7097508,7465304,7118017,7478465,3800,3800,-90,-601,271,1035,-160,4757,24,27,847
14874,7097696,7465600,7118214,7478662,3800,3800,-57,-505,224,1149,-500,4241,24,27,847
15875,7097916,7465928,7118411,7478859,3800,3800,10,-405,198,810,-154,4979,40,58,850
16876,7098232,7466300,7118608,7479056,3800,3800,124,-312,192,451,-297,5446,40,58,850
17877,7098560,7466696,7118805,7479253,3800,3800,234,-338,98,793,-389,5265,58,77,851
18878,7098932,7467128,7119002,7479450,3800,3800,328,-317,-114,1027,-4,5792,58,77,851
19879,7099364,7467544,7119199,7479647,3800,3800,342,-408,-264,-20,558,4805,70,84,854
20880,7099784,7467904,7119396,7479844,3800,3800,316,-687,-344,-415,1136,3736,70,84,854
21881,7100200,7468260,7119593,7480041,3800,3800,360,-925,-422,-200,490,5434,92,65,855
22882,7100680,7468588,7119790,7480238,3800,3800,442,-1153,-569,-268,79,4942,92,65,855
23883,7101136,7468844,7119987,7480435,3800,3800,482,-1516,-716,-525,118,4557,99,58,853
24884,7101600,7469096,7120184,7480632,3800,3800,487,-1676,-911,-118,917,5456,99,58,853
25885,7102120,7469300,7120381,7480829,3800,3800,374,-1759,-1211,201,1297,4277,85,46,852
26886,7102564,7469456,7120578,7481026,3800,3800,250,-1530,-1534,-156,1432,5876,85,46,852
27887,7103056,7469592,7120775,7481223,3800,3800,216,-1284,-1890,969,1281,5885,110,38,852
28888,7103572,7469676,7120972,7481420,3800,3800,350,-1145,-2255,1509,602,6180,110,38,852
29889,7104056,7469744,7121169,7481617,3800,3800,560,-1438,-2501,792,317,5071,98,25,850
30890,7104560,7469788,7121366,7481814,3800,3800,754,-1844,-2669,1275,1397,5340,98,25,850
31891,7105092,7469828,7121563,7482011,3800,3800,800,-2065,-2886,3091,1147,5293,112,21,851
32892,7105640,7469848,7121760,7482208,3800,3800,737,-1809,-3028,2903,90,6004,112,21,851
33893,7106136,7469888,7121957,7482405,3800,3800,675,-1324,-3075,2909,-100,6186,111,9,847
34894,7106700,7469908,7122154,7482602,3800,3800,658,-1000,-3054,2621,122,5132,111,9,847
35895,7107292,7469924,7122351,7482799,3800,3800,641,-848,-3009,2444,1339,5244,114,14,849
36896,7107840,7469948,7122548,7482996,3800,3800,722,-853,-3049,3285,428,4579,114,14,849
37897,7108448,7469976,7122745,7483193,3800,3800,773,-836,-3032,2297,386,5387,101,19,850
38885,7109060,7470000,7122942,7483390,3603,3800,876,-944,-2960,1983,499,3016,101,19,850
39886,7109664,7470028,7123139,7483587,3477,3800,848,-1120,-2844,1716,340,3182,129,12,851
40887,7110276,7470056,7123336,7483784,3247,3800,860,-1055,-2738,1614,-27,4377,129,12,851
41889,7110980,7470100,7123533,7483981,2452,3800,906,-987,-2671,1358,-965,3051,129,11,852
42889,7111656,7470128,7123730,7484178,2418,3800,862,-975,-2567,647,-350,3154,129,11,852
43891,7112344,7470168,7123927,7484375,2130,3800,820,-1114,-2447,680,-1215,2121,127,11,854
44891,7113060,7470216,7124124,7484572,1730,3800,683,-1392,-2297,301,-1363,1529,127,11,854
45892,7113744,7470244,7124321,7484769,1718,3800,555,-1722,-2084,-755,-2870,967,148,8,859
46893,7114404,7470316,7124518,7484966,1666,3800,435,-1952,-1993,-284,-2793,2160,148,8,859
47895,7115124,7470376,7124715,7485163,1063,3800,207,-2267,-1986,-1380,-3224,-21,143,28,857
48895,7115864,7470460,7124912,7485360,702,3800,-103,-2499,-2009,-1537,-3031,1821,143,28,857
49897,7116484,7470560,7125109,7485557,1267,3800,-449,-2549,-2065,-1579,-4493,2039,137,19,862
50897,7117252,7470692,7125306,7485754,93,3800,-814,-2604,-2087,-1778,-4474,1865,137,19,862
51898,7117892,7470836,7125503,7485951,699,3800,-1121,-2763,-2073,-1469,-3690,2236,122,31,862
52899,7118504,7471012,7125700,7486148,694,3800,-1355,-3099,-2118,-608,-4570,1687,122,31,862
53900,7119112,7471220,7125897,7486345,539,3800,-1531,-3638,-2037,-2110,-3009,1634,116,53,867
54902,7119784,7471428,7126094,7486542,-68,3800,-1503,-3988,-1721,-3051,-3180,3888,116,53,867
55903,7120324,7471680,7126291,7486739,608,3800,-1510,-3963,-1651,532,-3228,3347,127,60,866
56903,7120836,7471952,7126488,7486936,645,3800,-1719,-3977,-1526,-1741,-2494,1084,127,60,866
57904,7121408,7472232,7126685,7487133,106,3800,-1809,-3629,-1158,-2353,-1543,5332,115,52,867
58905,7121836,7472556,7126882,7487330,906,3800,-1770,-3226,-931,60,-2277,3571,115,52,867
59906,7122280,7472832,7127079,7487527,698,3800,-1643,-3109,-856,157,-678,2988,85,68,866
60907,7122740,7473188,7127276,7487724,484,3800,-1563,-3157,-699,-760,-253,3577,85,68,866
61908,7123116,7473540,7127473,7487921,931,3800,-1552,-3470,-453,-593,-1605,1650,82,64,867
62909,7123472,7473876,7127670,7488118,987,3800,-1471,-3750,-192,-725,-539,4349,82,64,867
63911,7123828,7474260,7127867,7488315,917,3800,-1319,-4144,-19,-24,-925,2733,67,73,868
64911,7124112,7474636,7128064,7488512,1330,3800,-1146,-4503,120,-319,-1152,3242,67,73,868
65913,7124408,7475004,7128261,7488709,1213,3800,-839,-4467,201,539,-936,5927,72,73,867
66913,7124696,7475348,7128458,7488906,1224,3800,-576,-4527,216,1147,34,3205,72,73,867
67914,7124952,7475712,7128655,7489103,1398,3800,-396,-4592,272,896,836,3295,54,65,865
68915,7125176,7476080,7128852,7489300,1587,3800,-277,-4608,385,684,-435,3279,54,65,865
69916,7125392,7476504,7129049,7489497,1630,3800,-21,-4373,560,201,-59,4849,61,66,865
70917,7125584,7476884,7129246,7489694,1782,3800,341,-4172,655,1443,1037,4845,61,66,865
71918,7125776,7477260,7129443,7489891,1785,3800,679,-3902,617,2523,1523,4742,48,69,865
72919,7125928,7477640,7129640,7490088,2056,3800,921,-3730,623,1509,2182,4224,48,69,865
73921,7126100,7478000,7129837,7490285,1943,3800,1081,-3637,807,537,2047,4234,28,63,863
74922,7126236,7478400,7130034,7490482,2195,3800,1209,-3569,995,1730,1241,3980,28,63,863
75923,7126408,7478744,7130231,7490679,1982,3800,1292,-3453,1217,1335,-2128,3747,31,79,861
76923,7126580,7479080,7130428,7490876,1994,3800,1531,-3015,1439,1146,202,6505,31,79,861
77925,7126732,7479400,7130625,7491073,2138,3800,1826,-2700,1637,1376,1185,5004,27,60,861
78925,7126860,7479716,7130822,7491270,2320,3800,2005,-2732,1799,2225,1221,3553,27,60,861
79926,7127032,7480044,7131019,7491467,2057,3800,2104,-2615,1967,2307,1826,5565,34,52,860
80927,7127160,7480384,7131216,7491664,2363,3800,2169,-2206,2143,1849,2576,6221,34,52,860
81928,7127280,7480648,7131413,7491861,2447,3800,2193,-1830,2315,1403,2469,4989,39,60,857
82929,7127432,7480920,7131610,7492058,2268,3800,2211,-1419,2491,1556,1874,6247,39,60,857
83930,7127580,7481204,7131807,7492255,2315,3800,2192,-868,2652,1845,1303,6193,25,43,859
84931,7127716,7481468,7132004,7492452,2418,3800,2104,-350,2810,1039,2057,5896,25,43,859
85932,7127840,7481740,7132201,7492649,2526,3800,2015,167,2867,1247,1701,6995,34,54,859
86933,7127952,7481932,7132398,7492846,2638,3800,1911,404,2767,1942,1163,7311,34,54,859
87934,7128076,7482132,7132595,7493043,2596,3800,1684,340,2663,1623,1332,6918,39,42,855
88935,7128200,7482304,7132792,7493240,2629,3800,1359,57,2612,1328,1281,7057,39,42,855
89936,7128320,7482512,7132989,7493437,2689,3800,898,-95,2589,554,1975,7336,32,49,854
90937,7128416,7482696,7133186,7493634,2885,3800,388,-129,2591,-511,2678,7809,32,49,854
91938,7128524,7482900,7133383,7493831,2850,3800,-39,-439,2566,-146,1115,7045,13,45,854
92946,7128664,7483048,7133810,7494258,2777,3800,-328,-1049,2447,422,-524,6672,13,45,854
93940,7128788,7483200,7134007,7494455,2910,3800,-584,-1711,2356,-467,-1912,6212,25,41,853
94941,7128924,7483336,7134204,7494652,2863,3800,-957,-2135,2350,-197,-2929,5081,25,41,853
95942,7129080,7483464,7134401,7494849,2757,3800,-1416,-2171,2322,686,-3909,5687,40,34,854
96943,7129200,7483580,7134598,7495046,3017,3800,-1844,-1963,2251,230,-2838,4791,40,34,854
97944,7129344,7483736,7134795,7495243,2891,3800,-2138,-1789,2205,-267,-387,4825,27,34,853
98945,7129480,7483836,7134992,7495440,2969,3800,-2302,-1608,2153,365,-564,4570,27,34,853
99946,7129600,7483928,7135189,7495637,3104,3800,-2353,-1436,2069,602,1043,4873,20,11,851
100947,7129732,7484040,7135386,7495834,3058,3800,-2399,-1380,1937,771,603,3332,20,11,851
101948,7129860,7484120,7135583,7496031,3114,3800,-2375,-1373,1778,537,999,4080,37,15,851
102949,7130008,7484200,7135780,7496228,3012,3800,-2199,-1216,1652,-299,127,5272,37,15,851
103950,7130176,7484280,7135977,7496425,2901,3800,-1994,-1070,1641,-1406,-360,4512,29,7,849
104951,7130360,7484364,7136174,7496622,2807,3800,-1956,-1067,1621,-912,-1107,3294,29,7,849
105952,7130504,7484444,7136371,7496819,3082,3800,-1982,-1208,1581,-1860,-488,3126,40,12,851
106954,7130664,7484552,7136568,7497016,3000,3800,-1930,-1475,1409,-796,212,3824,40,12,851
107955,7130804,7484648,7136765,7497213,3151,3800,-1815,-1807,1170,-495,-756,2459,26,14,853
108956,7130980,7484780,7136962,7497410,2936,3800,-1713,-2334,1043,-987,-1061,1514,26,14,853
109957,7131144,7484900,7137159,7497607,3027,3800,-1608,-2682,973,-163,-1450,2372,41,16,852
110958,7131352,7485024,7137356,7497804,2748,3800,-1431,-2735,903,-51,-704,3350,41,16,852
111959,7131608,7485160,7137553,7498001,2423,3800,-1200,-2728,907,-791,-618,2831,52,17,853
112960,7131808,7485308,7137750,7498198,2773,3800,-1021,-2926,924,-225,-1332,2382,52,17,853
113961,7132028,7485488,7137947,7498395,2640,3800,-837,-2967,940,136,-2978,3456,52,28,853
114962,7132248,7485644,7138144,7498592,2631,3800,-664,-2885,797,1892,-3661,3546,52,28,853
115963,7132456,7485808,7138341,7498789,2702,3800,-447,-2652,601,1861,-1044,3865,35,39,854
116964,7132684,7485996,7138538,7498986,2564,3800,-253,-2659,539,1132,598,2488,35,39,854
117965,7132972,7486168,7138735,7499183,2150,3800,-115,-2812,605,685,951,2152,56,44,856
118966,7133180,7486356,7138932,7499380,2646,3800,37,-2861,750,141,115,3290,56,44,856
119967,7133404,7486632,7139129,7499577,2535,3800,205,-2769,868,345,-1203,3186,65,53,855
120968,7133668,7486916,7139326,7499774,2257,3800,342,-2734,725,2732,-1535,2545,65,53,855
121969,7133920,7487192,7139523,7499971,2309,3800,420,-2494,578,1276,-3943,3454,50,65,856
122970,7134152,7487480,7139720,7500168,2419,3800,421,-2157,586,-122,-1621,2970,50,65,856
123970,7134420,7487832,7139917,7500365,2164,3800,288,-2110,580,1235,-177,685,56,54,858
124971,7134688,7488244,7140114,7500562,2135,3800,135,-2004,608,592,-1124,2390,56,54,858
125972,7134912,7488636,7140311,7500759,2399,3800,203,-1522,600,1059,-763,5397,63,79,857
126973,7135164,7489072,7140508,7500956,2201,3800,317,-1028,560,607,-490,3365,63,79,857
127962,7135428,7489572,7140705,7501153,2097,3478,208,-1062,524,312,-148,273,56,85,861
128963,7135716,7490052,7140902,7501350,1909,3480,43,-860,454,814,-129,3355,56,85,861
129964,7135956,7490496,7141099,7501547,2191,3599,-122,-440,480,629,-1300,3191,56,93,861
130965,7136232,7491124,7141296,7501744,1932,2262,-280,-366,374,1904,-675,481,56,93,861
131966,7136476,7491632,7141493,7501941,2112,2878,-367,-275,273,3248,-1073,2878,58,112,866
132967,7136704,7492208,7141690,7502138,2200,2288,-350,257,316,1154,-442,4896,58,112,866
133968,7137016,7492776,7141887,7502335,1624,2176,-471,427,498,122,-938,651,63,97,872
134968,7137256,7493320,7142084,7502532,2056,2176,-514,209,495,2145,-583,340,63,97,872
135970,7137516,7494004,7142281,7502729,1904,1089,-238,384,431,526,171,5241,52,120,870
136971,7137800,7494532,7142478,7502926,1717,1920,105,707,406,1456,108,2606,52,120,870
137972,7138044,7495128,7142675,7503123,1948,1321,139,771,439,2486,-100,844,58,117,873
138973,7138316,7495696,7142872,7503320,1741,1335,-26,750,537,1961,-245,656,58,117,873
139974,7138652,7496216,7143069,7503517,1281,1494,-79,857,663,1207,-461,2055,63,95,876
140975,7138956,7496796,7143266,7503714,1435,953,16,1098,783,530,-2064,2426,63,95,876
141976,7139216,7497356,7143463,7503911,1683,919,148,1324,767,1397,-3957,1590,70,112,879
142977,7139500,7497932,7143660,7504108,1495,654,297,1689,704,1016,-188,3381,70,112,879
143978,7139848,7498500,7143857,7504305,1029,542,316,1742,805,527,-1343,-419,57,109,882
144979,7140164,7498988,7144054,7504502,1178,916,211,1671,900,1527,-1823,336,57,109,882
145980,7140476,7499528,7144251,7504699,1153,441,208,1921,937,1130,-2244,2557,73,109,881
146981,7140804,7500028,7144448,7504896,996,559,314,2268,964,250,-998,1714,73,109,881
147982,7141108,7500544,7144645,7505093,1100,319,350,2413,931,1050,-1381,-11,62,97,881
148983,7141396,7501036,7144842,7505290,1161,340,395,2665,849,1369,-2136,2424,62,97,881
149984,7141708,7501436,7145039,7505487,960,827,435,2894,746,1635,-1110,1183,74,78,885
150985,7141984,7501852,7145236,7505684,1152,631,443,2925,741,886,-358,482,74,78,885
151986,7142292,7502244,7145433,7505881,904,697,443,2923,781,1453,-1158,903,55,78,885
152987,7142624,7502644,7145630,7506078,694,558,482,3037,808,1687,-1219,1969,55,78,885
153988,7142924,7502988,7145827,7506275,850,844,452,3133,844,966,-1287,930,64,64,884
154989,7143216,7503408,7146024,7506472,858,272,351,3162,842,654,-921,558,64,64,884
155990,7143484,7503760,7146221,7506669,978,629,351,3287,848,316,-1141,2398,52,64,886
156991,7143752,7504056,7146418,7506866,947,936,473,3309,843,372,-351,2632,52,64,886
157992,7143988,7504312,7146615,7507063,1131,1160,566,3011,805,798,-623,706,62,65,885
158993,7144260,7504644,7146812,7507260,873,627,698,2817,825,62,-1220,3054,62,65,885
159994,7144492,7504984,7147009,7507457,1109,514,792,2640,844,-413,-304,1519,39,66,884
160995,7144724,7505264,7147206,7507654,1093,854,776,2276,876,-1318,944,212,39,66,884
161996,7144976,7505552,7147403,7507851,945,764,805,1880,843,-298,376,2321,41,57,885
162997,7145232,7505792,7147600,7508048,894,1046,973,1466,720,62,-480,2439,41,57,885
163998,7145412,7506076,7147797,7508245,1378,733,1137,885,636,-1433,-1193,2155,58,57,883
164999,7145628,7506352,7147994,7508442,1144,749,1210,440,628,-1536,-2516,3348,58,57,883
166000,7145852,7506608,7148191,7508639,1083,848,1089,564,604,-1004,-1504,3596,34,41,883
167001,7146056,7506796,7148388,7508836,1205,1277,732,1111,480,-1005,1379,2811,34,41,883
168002,7146296,7506972,7148585,7509033,962,1362,376,2038,270,-983,2517,5107,45,31,882
169003,7146552,7507136,7148782,7509230,836,1452,110,2726,-101,-745,3149,4652,45,31,882
170003,7146748,7507308,7148979,7509427,1212,1413,-12,2420,-526,-1269,680,4003,36,37,880
171004,7146972,7507528,7149176,7509624,1026,1104,159,1470,-897,-1114,-2751,5981,36,37,880
172005,7147220,7507704,7149373,7509821,854,1388,330,564,-1300,-143,-701,5651,52,38,881
173007,7147448,7507864,7149570,7510018,966,1505,351,-181,-1668,-1036,2454,4298,52,38,881
174008,7147644,7508000,7149767,7510215,1166,1682,354,-832,-1911,-1730,1302,5483,51,36,883
175009,7147904,7508124,7149964,7510412,739,1790,370,-1053,-2113,-574,2115,5631,51,36,883
176017,7148148,7508268,7150194,7510642,834,1703,327,-1153,-2269,170,2556,4567,46,21,881
177011,7148324,7508380,7150391,7510839,1268,1940,425,-1441,-2227,-378,741,5720,46,21,881
178012,7148532,7508500,7150588,7511036,1064,1925,651,-2310,-2127,775,-712,3917,35,17,880
179013,7148724,7508668,7150785,7511233,1166,1638,824,-3213,-2149,2586,235,4777,35,17,880
180014,7148916,7508800,7150982,7511430,1168,1892,823,-3716,-2169,2446,1474,3930,46,16,874
181015,7149100,7508936,7151179,7511627,1225,1894,601,-3667,-2035,1944,1871,4246,46,16,874
182016,7149284,7509028,7151376,7511824,1231,2216,305,-2959,-1818,2773,939,6763,22,25,879
183017,7149428,7509156,7151573,7512021,1505,2022,-72,-1983,-1603,4311,-809,7383,22,25,879
184018,7149584,7509256,7151770,7512218,1448,2240,-487,-1278,-1356,4202,-602,6598,41,13,877
185019,7149768,7509364,7151967,7512415,1279,2229,-802,-947,-1010,3238,-129,7011,41,13,877
186020,7149936,7509460,7152164,7512612,1393,2350,-1066,-850,-579,3052,-501,7010,29,14,875
187021,7150088,7509576,7152361,7512809,1512,2261,-1349,-917,-109,3014,-8,6068,29,14,875
188022,7150268,7509704,7152558,7513006,1346,2217,-1554,-1084,325,3533,356,6210,33,19,874
189023,7150412,7509804,7152755,7513203,1594,2435,-1554,-1224,743,4959,-2830,8382,33,19,874
190024,7150540,7509916,7152952,7513400,1725,2399,-1385,-1304,1045,6651,-2490,8840,21,15,872
191025,7150712,7510008,7153149,7513597,1461,2570,-1268,-1457,1195,7409,-1809,7962,21,15,872
192026,7150876,7510128,7153346,7513794,1526,2430,-1240,-1534,1368,6952,-2783,8049,17,24,871
193027,7151004,7510248,7153543,7513991,1782,2464,-1255,-1402,1705,5196,-1554,8538,17,24,871
194028,7151172,7510372,7153740,7514188,1545,2471,-1278,-1313,2181,3695,-2291,6822,16,16,871
195029,7151328,7510480,7153937,7514385,1639,2612,-1251,-1424,2595,4115,-2019,6474,16,16,871
196030,7151476,7510612,7154134,7514582,1711,2491,-1156,-1508,2888,4441,-1868,6854,37,28,870
197031,7151628,7510724,7154331,7514779,1706,2654,-982,-1561,3136,4022,-2527,6690,37,28,870
198032,7151772,7510856,7154528,7514976,1780,2558,-700,-1476,3354,3498,-1906,7188,19,29,870
199033,7151904,7510976,7154725,7515173,1884,2668,-343,-1276,3452,3957,-1853,7296,19,29,870
200034,7152040,7511088,7154922,7515370,1887,2756,54,-939,3510,3690,-2447,7688,39,19,869
201035,7152224,7511212,7155119,7515567,1593,2714,453,-520,3591,3382,-2161,7579,39,19,869
202036,7152392,7511348,7155316,7515764,1706,2667,776,-86,3665,2794,-1718,6151,34,30,867
203037,7152536,7511504,7155513,7515961,1880,2560,923,322,3679,725,-1601,5067,34,30,867
204038,7152728,7511660,7155710,7516158,1583,2579,905,749,3512,780,-1394,4927,32,33,869
205039,7152900,7511820,7155907,7516355,1719,2571,1021,1410,3090,1270,1050,7328,32,33,869
206040,7153052,7511980,7156104,7516552,1865,2589,1065,1903,2513,531,512,5075,42,37,869
207041,7153228,7512180,7156301,7516749,1724,2338,809,1194,1989,-767,489,-1489,42,37,869
208042,7153400,7512360,7156498,7516946,1761,2472,840,303,1429,1309,1662,5389,21,45,871
209043,7153596,7512572,7156695,7517143,1612,2266,1077,-425,746,2783,1551,3969,21,45,871
210044,7153784,7512784,7156892,7517340,1666,2260,959,-1178,217,1061,2036,165,24,35,871
211045,7153996,7513016,7157089,7517537,1511,2120,740,-1163,-5,323,548,5145,24,35,871
212046,7154168,7513268,7157286,7517734,1772,1972,568,-502,-27,389,778,5262,50,46,872
213046,7154376,7513524,7157483,7517931,1543,1922,316,58,11,365,1510,1958,50,46,872
214048,7154572,7513792,7157680,7518128,1619,1817,139,214,154,218,1183,3232,34,45,873
215048,7154764,7514080,7157877,7518325,1647,1653,159,295,363,1090,-1002,4210,34,45,873
216050,7155012,7514332,7158074,7518522,1275,1854,241,26,406,3075,224,1879,51,65,875
217051,7155220,7514568,7158271,7518719,1520,1938,308,-463,266,3737,771,2076,51,65,875
218052,7155424,7514832,7158468,7518916,1543,1734,384,-896,84,2700,310,3406,49,57,876
219052,7155620,7515080,7158665,7519113,1595,1813,389,-1172,-24,1095,244,2671,49,57,876
220054,7155836,7515300,7158862,7519310,1461,1979,299,-1300,-16,184,636,2353,47,46,876
221054,7156040,7515560,7159059,7519507,1534,1701,203,-1373,72,60,483,3505,47,46,876
222056,7156228,7515800,7159256,7519704,1638,1808,92,-1457,197,250,421,3146,37,42,876
223057,7156436,7516032,7159453,7519901,1509,1844,-103,-1754,299,938,656,1212,37,42,876
224058,7156648,7516288,7159650,7520098,1478,1669,-281,-1886,302,1663,1074,3105,47,54,876
225059,7156852,7516504,7159847,7520295,1526,1910,-384,-1730,199,1441,773,4306,47,54,876
226060,7157052,7516740,7160044,7520492,1550,1769,-537,-1555,-1,1304,987,3532,42,45,876
227060,7157228,7516976,7160241,7520689,1710,1753,-776,-1496,-213,1033,-601,2302,42,45,876
228062,7157404,7517196,7160438,7520886,1720,1843,-958,-1482,-340,1062,-83,2977,29,52,875
229062,7157572,7517424,7160635,7521083,1783,1780,-936,-1576,-341,1163,-177,3526,29,52,875
230064,7157744,7517616,7160832,7521280,1770,2009,-766,-1719,-136,525,-894,3715,30,48,876
231064,7157920,7517820,7161029,7521477,1754,1932,-636,-1932,118,1198,-1118,2895,30,48,876
232066,7158108,7517984,7161226,7521674,1684,2196,-626,-2163,180,2857,359,2600,33,35,875
233067,7158284,7518172,7161423,7521871,1769,2051,-719,-2331,176,2570,-45,2701,33,35,875
234068,7158444,7518352,7161620,7522068,1885,2110,-834,-2343,273,2101,-431,3145,31,31,873
235069,7158604,7518532,7161817,7522265,1902,2117,-925,-2185,442,1907,-1422,3474,31,31,873
236069,7158748,7518700,7162014,7522462,2026,2206,-906,-1867,640,1083,-823,4393,40,40,873
237070,7158896,7518904,7162211,7522659,2023,1979,-886,-1528,811,1014,-1008,3816,40,40,873
238072,7159024,7519088,7162408,7522856,2180,2110,-945,-1210,888,1597,678,4056,36,31,871
239073,7159184,7519240,7162605,7523053,1996,2330,-1072,-782,934,1941,191,4350,36,31,871
240074,7159292,7519400,7162802,7523250,2361,2297,-1186,-350,1015,1877,-1313,4284,32,25,872
241075,7159404,7519576,7162999,7523447,2374,2208,-1261,117,1134,1956,-637,4115,32,25,872
242076,7159572,7519812,7163196,7523644,2037,1815,-1364,509,1229,2006,-305,3340,26,36,870
243077,7159752,7520036,7163393,7523841,1971,1880,-1452,979,1334,1646,-1267,4072,26,36,870
244078,7159932,7520260,7163590,7524038,1979,1869,-1525,1487,1428,1710,-1131,4041,39,51,869
245079,7160100,7520456,7163787,7524235,2067,2045,-1546,2084,1506,1693,532,4522,39,51,869
246080,7160284,7520692,7163984,7524432,1973,1778,-1514,2603,1642,805,-1504,4127,45,41,873
247081,7160472,7520920,7164181,7524629,1953,1815,-1435,2872,1749,210,-468,3791,45,41,873
248082,7160648,7521212,7164378,7524826,2039,1375,-1312,3074,1711,51,289,3876,30,52,872
249083,7160812,7521484,7164575,7525023,2128,1467,-1190,3224,1574,591,-718,3256,30,52,872
250084,7160988,7521760,7164772,7525220,2063,1408,-1069,3428,1489,50,-20,3543,50,50,873
251085,7161176,7522108,7164969,7525417,1993,893,-938,3591,1486,-973,-533,3191,50,50,873
252086,7161356,7522324,7165166,7525614,2051,1709,-803,3495,1486,-1701,-1149,2247,49,60,875
253087,7161504,7522520,7165363,7525811,2273,1836,-727,3268,1392,-1299,77,2102,49,60,875
254088,7161676,7522728,7165560,7526008,2135,1757,-719,3079,1283,-1032,-1081,2060,29,41,878
255089,7161832,7522964,7165757,7526205,2254,1565,-651,3000,1169,99,2176,3331,29,41,878
256090,7162000,7523244,7165954,7526402,2192,1254,-560,3106,1223,-475,-641,3577,32,41,871
257091,7162168,7523560,7166151,7526599,2206,978,-438,3226,1299,-324,-231,3837,32,41,871
258092,7162372,7523920,7166348,7526796,1979,631,-278,3462,1365,13,559,5105,50,47,871
259102,7162540,7524208,7166578,7527026,2232,1057,-120,3736,1528,-981,-1970,5048,50,47,871
260094,7162728,7524388,7166775,7527223,2111,1739,2,4033,1685,-354,-1793,4390,41,53,877
261095,7162932,7524736,7166972,7527420,2009,624,83,4309,1720,755,1020,4295,41,53,877
262096,7163084,7525040,7167169,7527617,2355,852,122,4575,1826,-455,-1412,3832,45,61,876
263096,7163288,7525336,7167366,7527814,2028,859,52,4707,2010,-1735,-4083,2823,45,61,876
264098,7163500,7525616,7167563,7528011,1971,923,-279,3970,2059,-1787,-2461,-2518,53,56,879
265099,7163684,7525908,7167760,7528208,2153,807,-387,3082,2080,-2150,-3537,2888,53,56,879
266100,7163872,7526112,7167957,7528405,2133,1354,111,2817,2089,-1824,-4916,9047,52,53,878
267101,7164076,7526304,7168154,7528602,2031,1432,511,1983,1912,-2707,-2112,2172,52,53,878
268102,7164276,7526516,7168351,7528799,2055,1301,704,784,1575,-3311,-697,4972,32,39,876
269102,7164456,7526712,7168548,7528996,2188,1401,847,-213,1057,-2731,-121,7698,32,39,876
270103,7164664,7526928,7168745,7529193,2009,1269,745,-994,382,-2225,900,5333,31,31,875
271105,7164824,7527112,7168942,7529390,2326,1475,408,-1291,-257,-2487,482,7289,31,31,875
272106,7165000,7527304,7169139,7529587,2236,1428,-20,-1056,-722,-3450,-674,7812,35,31,874
273107,7165188,7527472,7169336,7529784,2165,1591,-383,-580,-1045,-3510,-237,8049,35,31,874
274108,7165344,7527652,7169533,7529981,2384,1524,-550,-306,-1233,-2330,-969,7856,25,31,873
275109,7165492,7527884,7169730,7530178,2457,1184,-495,-383,-1311,-510,-1224,7188,25,31,873
276110,7165652,7528124,7169927,7530375,2399,1115,-330,-838,-1228,250,-2555,5918,44,51,873
277111,7165816,7528332,7170124,7530572,2390,1311,-106,-1342,-1139,1767,-2902,6110,44,51,873
278112,7165980,7528536,7170321,7530769,2404,1333,124,-1796,-1064,1356,-2231,5511,35,48,873
279113,7166172,7528708,7170518,7530966,2232,1545,273,-2080,-985,1036,-1436,4472,35,48,873
280114,7166348,7528880,7170715,7531163,2343,1556,305,-2076,-930,1244,-1225,3981,42,41,872
281115,7166504,7529080,7170912,7531360,2487,1380,270,-1741,-925,1505,-901,4580,42,41,872
282116,7166640,7529292,7171109,7531557,2639,1299,207,-1318,-903,1373,-1826,4128,34,48,873
283117,7166808,7529492,7171306,7531754,2453,1373,112,-994,-867,790,-1981,3521,34,48,873
284118,7166948,7529692,7171503,7531951,2654,1372,57,-870,-829,-206,-1057,3810,38,35,871
285119,7167092,7529876,7171700,7532148,2653,1478,25,-867,-877,-175,-716,3716,38,35,871
286119,7167244,7530036,7171897,7532345,2623,1645,23,-941,-1068,245,-1411,4285,18,34,873
287121,7167364,7530220,7172094,7532542,2858,1501,98,-895,-1383,498,-894,5743,18,34,873
288122,7167516,7530360,7172291,7532739,2679,1802,135,-955,-1663,-466,-278,4380,38,37,871
289123,7167688,7530508,7172488,7532936,2566,1773,124,-1052,-1813,-505,34,5008,38,37,871
290124,7167836,7530700,7172685,7533133,2738,1502,94,-1079,-1913,777,-337,4898,37,39,868
291125,7168000,7530848,7172882,7533330,2654,1798,54,-1123,-1959,901,-13,3654,37,39,868
292126,7168180,7531036,7173079,7533527,2562,1552,54,-1054,-1918,1011,-409,4207,42,23,869
293127,7168352,7531164,7173276,7533724,2624,1959,101,-883,-1859,1644,-905,3728,42,23,869
294128,7168528,7531288,7173473,7533921,2610,2016,196,-634,-1758,1624,-815,4192,39,29,869
295129,7168684,7531416,7173670,7534118,2754,2022,285,-487,-1636,1444,-948,2898,39,29,869
296130,7168880,7531524,7173867,7534315,2504,2186,363,-405,-1558,1884,-918,2861,25,31,868
297131,7169052,7531652,7174064,7534512,2666,2092,489,-280,-1436,1073,-1844,3517,25,31,868
298132,7169244,7531744,7174261,7534709,2544,2364,647,-169,-1344,1240,-753,3080,32,28,867
299133,7169456,7531848,7174458,7534906,2414,2330,740,-111,-1275,1007,-509,2485,32,28,867
300134,7169636,7531952,7174655,7535103,2622,2372,766,-24,-1172,381,-104,3112,47,17,866
301135,7169852,7532048,7174852,7535300,2390,2467,722,134,-1122,641,419,3442,47,17,866
302135,7170072,7532164,7175049,7535497,2356,2378,609,209,-1193,698,-152,2652,41,15,867
303136,7170276,7532288,7175246,7535694,2454,2361,520,286,-1342,686,-627,4778,41,15,867
304138,7170500,7532436,7175443,7535891,2318,2233,489,390,-1487,783,-933,4941,35,27,867
305139,7170744,7532564,7175640,7536088,2173,2389,471,270,-1589,1058,-431,4287,35,27,867
306140,7171000,7532672,7175837,7536285,2073,2553,426,57,-1629,1192,-120,4286,48,34,867
307141,7171240,7532796,7176034,7536482,2155,2486,355,-169,-1576,691,-101,3962,48,34,867
308142,7171536,7532904,7176231,7536679,1763,2626,217,-277,-1451,315,-302,3933,44,25,868
309143,7171764,7533004,7176428,7536876,2175,2720,31,-227,-1388,777,46,3869,44,25,868
310144,7172032,7533096,7176625,7537073,1895,2816,-125,-187,-1360,430,-147,4033,42,27,868
311144,7172340,7533196,7176822,7537270,1596,2810,-162,-179,-1392,510,-526,3990,42,27,868
312146,7172612,7533308,7177019,7537467,1789,2773,-120,-272,-1470,721,-655,4118,54,17,865
313147,7172900,7533424,7177216,7537664,1650,2785,-35,-493,-1478,54,-845,3126,54,17,865
314148,7173180,7533548,7177413,7537861,1665,2767,22,-837,-1405,-149,-734,3170,55,30,869
315149,7173488,7533688,7177610,7538058,1442,2693,43,-1161,-1335,-154,-693,2751,55,30,869
316150,7173776,7533796,7177807,7538255,1528,2933,54,-1356,-1280,-255,-380,2786,47,22,869
317151,7174064,7533920,7178004,7538452,1488,2866,17,-1454,-1260,-20,-409,3122,47,22,869
318152,7174356,7534032,7178201,7538649,1422,2979,24,-1465,-1270,-101,-187,2903,51,29,870
319152,7174648,7534152,7178398,7538846,1381,2964,-2,-1530,-1270,-328,-126,2569,51,29,870
320154,7174932,7534280,7178595,7539043,1394,2946,14,-1598,-1268,-236,-348,3092,62,31,869
321155,7175248,7534404,7178792,7539240,1142,3003,101,-1740,-1324,-522,-113,2925,62,31,869
322156,7175512,7534528,7178989,7539437,1438,3036,168,-2034,-1401,-955,-218,2148,53,34,867
323157,7175784,7534648,7179186,7539634,1357,3096,254,-2382,-1486,-544,-156,2485,53,34,867
324158,7176084,7534776,7179383,7539831,1136,3077,362,-2606,-1546,-446,-115,2947,61,27,869
325158,7176356,7534900,7179580,7540028,1279,3135,408,-2768,-1541,-197,-110,2371,61,27,869
326160,7176608,7535028,7179777,7540225,1380,3141,399,-2839,-1535,481,201,2825,63,24,867
327160,7176880,7535176,7179974,7540422,1223,3039,351,-2843,-1501,136,399,2926,63,24,867
328162,7177136,7535300,7180171,7540619,1298,3222,310,-2852,-1432,227,216,2111,62,31,867
329163,7177396,7535432,7180368,7540816,1246,3202,276,-2903,-1400,923,-195,3064,62,31,867
330164,7177636,7535564,7180565,7541013,1353,3231,288,-2939,-1382,788,355,2690,44,34,869
331165,7177860,7535692,7180762,7541210,1441,3287,288,-3145,-1345,872,350,2370,44,34,869
332166,7178088,7535836,7180959,7541407,1403,3212,329,-3242,-1289,723,119,3411,38,38,867
333167,7178296,7535992,7181156,7541604,1523,3156,364,-3353,-1213,261,626,2736,38,38,867
334168,7178552,7536172,7181353,7541801,1198,3014,311,-3488,-1148,431,938,2462,51,38,864
335168,7178800,7536332,7181550,7541998,1227,3157,276,-3490,-1123,650,755,3794,51,38,864
336170,7179028,7536512,7181747,7542195,1338,3041,228,-3438,-1107,520,1043,3363,47,42,865
337171,7179284,7536708,7181944,7542392,1138,2942,144,-3526,-1096,641,878,2839,47,42,865
338172,7179516,7536884,7182141,7542589,1273,3078,67,-3618,-1037,286,871,3596,51,39,868
339173,7179736,7537056,7182338,7542786,1339,3115,3,-3691,-996,850,548,3404,51,39,868
340174,7179992,7537260,7182535,7542983,1088,2912,-75,-3779,-995,1209,765,3467,46,34,870
341175,7180264,7537484,7182732,7543180,956,2777,-138,-3850,-939,586,178,3473,46,34,870
342183,7180476,7537680,7182962,7543410,1339,2968,-113,-3740,-843,664,747,5452,44,49,868
343176,7180724,7537880,7183159,7543607,1092,2942,-169,-3590,-809,1414,337,3533,44,49,868
344178,7180968,7538084,7183356,7543804,1097,2915,-348,-3562,-690,289,951,3312,43,52,870
345179,7181188,7538284,7183553,7544001,1237,2940,-450,-3234,-508,528,876,5538,43,52,870
346180,7181416,7538484,7183750,7544198,1174,2941,-530,-3063,-410,1318,171,3707,40,42,868
347180,7181664,7538680,7183947,7544395,1027,2967,-550,-2967,-358,1739,868,4357,40,42,868
348181,7181884,7538944,7184144,7544592,1193,2514,-552,-3009,-256,1380,91,4384,44,44,870
349182,7182140,7539148,7184341,7544789,942,2886,-549,-3130,-115,827,867,3812,44,44,870
350183,7182376,7539340,7184538,7544986,1051,2965,-543,-3319,24,983,302,3811,46,38,870
351184,7182560,7539536,7184735,7545183,1381,2941,-476,-3375,12,2448,58,5193,46,38,870
352186,7182760,7539760,7184932,7545380,1280,2755,-403,-3246,-1,1783,-482,5199,32,50,871
353187,7182948,7539980,7185129,7545577,1360,2771,-388,-3273,84,803,99,3800,32,50,871
354188,7183108,7540212,7185326,7545774,1551,2682,-348,-3112,150,1840,-123,6379,48,40,870
355188,7183280,7540396,7185523,7545971,1488,2988,-331,-2883,179,1879,-934,5182,48,40,870
356190,7183488,7540624,7185720,7546168,1258,2701,-376,-2671,317,1002,-100,5059,45,49,869
357190,7183684,7540792,7185917,7546365,1335,3090,-412,-2427,471,1379,-494,5741,45,49,869
358191,7183856,7540980,7186114,7546562,1496,2970,-464,-2330,593,1105,-773,4927,41,41,868
359192,7184044,7541188,7186311,7546759,1400,2841,-486,-2361,739,572,-460,4786,41,41,868
360193,7184220,7541380,7186508,7546956,1485,2944,-449,-2456,836,1016,-1201,5330,28,48,868
361195,7184380,7541604,7186705,7547153,1601,2734,-380,-2575,869,954,-373,5078,28,48,868
362196,7184568,7541800,7186902,7547350,1431,2910,-351,-2773,961,-99,-470,4264,28,32,870
363197,7184744,7542000,7187099,7547547,1515,2885,-314,-2774,998,968,-1046,6327,28,32,870
364197,7184920,7542208,7187296,7547744,1526,2831,-260,-2587,958,1382,-1399,5832,26,43,870
365199,7185096,7542416,7187493,7547941,1535,2827,-315,-2491,988,388,-1340,4590,26,43,870
366199,7185240,7542612,7187690,7548138,1758,2904,-362,-2380,1073,349,-1446,5829,22,46,867
367200,7185392,7542808,7187887,7548335,1729,2905,-363,-2359,1127,583,-1489,5369,22,46,867
368202,7185580,7542988,7188084,7548532,1508,3014,-361,-2412,1184,461,-1764,4903,31,34,867
369203,7185740,7543160,7188281,7548729,1700,3076,-353,-2461,1202,956,-1453,5231,31,34,867
370204,7185904,7543352,7188478,7548926,1690,2954,-371,-2533,1242,346,-1432,4478,28,43,867
371205,7186056,7543536,7188675,7549123,1785,3011,-390,-2572,1228,1014,-1350,4807,28,43,867
372206,7186224,7543732,7188872,7549320,1698,2937,-374,-2536,1262,404,-1578,5084,29,37,866
373207,7186396,7543912,7189069,7549517,1685,3046,-361,-2466,1264,1165,-1103,4737,29,37,866
374208,7186580,7544120,7189266,7549714,1616,2867,-350,-2464,1253,988,-1296,4572,46,32,866
375209,7186768,7544316,7189463,7549911,1596,2943,-283,-2360,1300,450,-1105,5338,46,32,866
376210,7186944,7544528,7189660,7550108,1680,2838,-224,-2326,1316,1091,-1265,4453,33,43,867
377211,7187108,7544716,7189857,7550305,1771,2994,-170,-2201,1340,757,-1124,4831,33,43,867
378212,7187280,7544892,7190054,7550502,1732,3079,-143,-2087,1325,1206,-1333,4165,43,41,867
379213,7187440,7545072,7190251,7550699,1824,3062,-55,-1971,1295,1023,-1288,5012,43,41,867
380214,7187612,7545276,7190448,7550896,1760,2910,8,-1964,1343,199,-1373,3769,46,30,867
381215,7187820,7545484,7190645,7551093,1531,2881,50,-1969,1373,722,-1166,3745,46,30,867
382216,7188008,7545660,7190842,7551290,1661,3092,128,-1845,1414,210,-1091,5085,28,36,866
383217,7188192,7545836,7191039,7551487,1692,3102,207,-1712,1415,489,-1357,3769,28,36,866
384218,7188380,7546016,7191236,7551684,1672,3085,263,-1610,1407,506,-1233,4458,42,36,868
385219,7188552,7546172,7191433,7551881,1783,3254,310,-1505,1348,952,-1125,3985,42,36,868
386220,7188728,7546352,7191630,7552078,1768,3113,343,-1520,1284,938,-1218,3718,49,44,866
387221,7188932,7546536,7191827,7552275,1590,3095,314,-1613,1276,508,-1356,2989,49,44,866
388222,7189140,7546692,7192024,7552472,1561,3289,331,-1626,1333,-64,-722,4104,30,24,864
389223,7189316,7546872,7192221,7552669,1770,3147,355,-1487,1330,371,-704,4444,30,24,864
390224,7189500,7547032,7192418,7552866,1727,3290,352,-1332,1304,71,-1043,3974,38,31,865
391224,7189700,7547184,7192615,7553063,1627,3361,348,-1184,1261,287,-850,4502,38,31,865
392226,7189876,7547360,7192812,7553260,1786,3221,377,-1051,1209,516,-756,4771,44,35,865
393227,7190048,7547528,7193009,7553457,1823,3285,429,-1103,1135,738,-1002,3607,44,35,865
394228,7190220,7547668,7193206,7553654,1834,3486,478,-1288,1073,702,-281,3914,32,32,864
395229,7190392,7547844,7193403,7553851,1846,3271,478,-1346,1061,690,-265,3738,32,32,864
396230,7190568,7548052,7193600,7554048,1830,3067,437,-1177,1130,-56,-477,4514,25,44,864
397230,7190748,7548224,7193797,7554245,1813,3304,340,-947,1240,-873,-829,3675,25,44,864
398232,7190908,7548452,7193994,7554442,1955,2943,309,-735,1368,-1507,-89,4694,32,29,864
399232,7191072,7548620,7194191,7554639,1945,3332,330,-638,1407,-461,-771,4258,32,29,864
400234,7191240,7548796,7194388,7554836,1934,3292,423,-629,1475,-1125,-1176,4717,35,27,863
401235,7191372,7548944,7194585,7555033,2187,3489,527,-734,1671,-1991,-550,4291,35,27,863
402236,7191508,7549096,7194782,7555230,2190,3485,408,-1179,1521,2370,1194,617,21,28,863
403237,7191660,7549276,7194979,7555427,2110,3319,324,-1294,989,5093,375,4608,21,28,863
404238,7191796,7549472,7195176,7555624,2238,3221,419,-913,894,-633,-772,6694,41,43,860
405239,7191972,7549604,7195373,7555821,1998,3651,430,-859,1044,-876,1315,2147,41,43,860
406240,7192136,7549772,7195570,7556018,2088,3439,325,-889,1142,300,483,3754,31,39,862
407241,7192308,7549892,7195767,7556215,2050,3774,215,-749,1119,1183,-805,4345,31,39,862
408242,7192448,7550024,7195964,7556412,2276,3729,157,-526,1174,58,-427,4301,40,22,859
409243,7192620,7550160,7196161,7556609,2087,3733,132,-601,1268,-214,-271,2547,40,22,859
410257,7192764,7550288,7196358,7556806,2286,3800,143,-809,1278,321,300,3767,41,21,857
411245,7192928,7550432,7196555,7557003,2176,3738,201,-871,1309,-249,-83,4242,41,21,857
412259,7193100,7550564,7196752,7557200,2137,3800,221,-903,1326,55,412,3632,46,18,857
413259,7193236,7550700,7196949,7557397,2390,3800,232,-880,1362,-316,197,4058,46,18,857
414260,7193392,7550820,7197146,7557594,2284,3800,185,-927,1387,84,-4,3004,44,27,857
415261,7193516,7550960,7197343,7557791,2517,3800,110,-889,1379,471,210,3458,44,27,857
416262,7193672,7551100,7197540,7557988,2335,3800,82,-793,1363,176,502,4197,36,28,855
417263,7193800,7551228,7197737,7558185,2542,3800,32,-744,1377,59,-101,3240,36,28,855
418265,7193928,7551340,7197934,7558382,2573,3800,7,-747,1418,250,1,3834,21,34,855
419265,7194072,7551464,7198131,7558579,2497,3800,39,-723,1465,96,-439,4069,21,34,855
420267,7194208,7551608,7198328,7558776,2574,3800,62,-755,1458,154,-243,3562,21,16,854
421267,7194340,7551752,7198525,7558973,2629,3800,52,-731,1453,65,174,3808,21,16,854
422268,7194508,7551880,7198722,7559170,2417,3800,-40,-765,1477,-136,427,2698,41,20,853
423269,7194644,7552056,7198919,7559367,2645,3800,-143,-793,1568,-520,300,2967,41,20,853
424258,7194772,7552252,7199116,7559564,2726,3756,-218,-818,1655,-583,-646,3305,26,30,855
425265,7194944,7552476,7199346,7559794,2477,3585,-184,-873,1697,-707,-322,3615,26,30,855
426260,7195068,7552704,7199543,7559991,2810,3548,-123,-969,1744,-858,445,3474,34,49,855
427261,7195200,7552908,7199740,7560188,2790,3696,-126,-1105,1752,171,211,2761,34,49,855
428262,7195352,7553132,7199937,7560385,2685,3561,-156,-1147,1712,825,-356,3451,28,49,856
429263,7195524,7553416,7200134,7560582,2572,3149,-162,-1118,1669,884,-371,3597,28,49,856
430264,7195684,7553720,7200331,7560779,2665,2979,-172,-1106,1628,937,-364,3297,25,50,855
431265,7195888,7554032,7200528,7560976,2388,2879,-138,-1077,1722,-668,-15,3880,25,50,855
432266,7196068,7554312,7200725,7561173,2545,3044,-117,-1030,1862,-399,113,3810,43,64,860
433267,7196240,7554652,7200922,7561370,2607,2608,-162,-897,1923,661,-570,3597,43,64,860
434268,7196412,7554988,7201119,7561567,2619,2573,-171,-722,1871,1356,-797,4473,28,57,864
435269,7196600,7555296,7201316,7561764,2524,2700,-139,-582,1845,324,-919,4072,28,57,864
436270,7196768,7555600,7201513,7561961,2663,2679,-115,-566,1910,-248,102,3424,47,67,865
437271,7196960,7555908,7201710,7562158,2516,2607,-169,-716,1938,677,367,2016,47,67,865
438272,7197204,7556240,7201907,7562355,2171,2399,-232,-847,1877,1228,-164,2980,42,59,865
439273,7197388,7556592,7202104,7562552,2553,2207,-195,-776,1872,183,-883,4316,42,59,865
440274,7197568,7556928,7202301,7562749,2586,2247,-108,-650,1982,-907,-1394,3575,39,68,866
441275,7197760,7557208,7202498,7562946,2514,2561,-24,-561,2039,-29,-575,4240,39,68,866
442276,7197940,7557556,7202695,7563143,2597,2071,-33,-596,1926,1482,-888,2436,30,71,868
443277,7198156,7557952,7202892,7563340,2365,1684,-101,-798,1724,1607,-414,2377,30,71,868
444278,7198380,7558280,7203089,7563537,2304,2053,-71,-803,1641,70,293,3817,38,75,864
445279,7198588,7558580,7203286,7563734,2400,2183,-24,-712,1733,-711,293,3259,38,75,864
446279,7198804,7558956,7203483,7563931,2343,1631,-78,-662,1793,937,-404,2675,44,60,872
447280,7198988,7559308,7203680,7564128,2549,1714,-105,-419,1713,1672,-809,4601,44,60,872
448282,7199220,7559676,7203877,7564325,2235,1540,-39,-121,1534,1519,-687,4400,57,64,869
449283,7199424,7559976,7204074,7564522,2408,1920,-19,-130,1389,1211,-603,2109,57,64,869
450284,7199664,7560356,7204271,7564719,2165,1341,-70,-421,1337,1387,221,1324,48,64,870
451285,7199900,7560700,7204468,7564916,2173,1502,-50,-362,1377,1222,-90,4365,48,64,870
452286,7200116,7561036,7204665,7565113,2291,1492,38,-55,1396,976,-445,3909,59,61,871
453287,7200344,7561364,7204862,7565310,2203,1485,88,64,1334,1160,-429,2438,59,61,871
454288,7200584,7561732,7205059,7565507,2110,1160,98,101,1269,1184,-556,3308,38,74,873
455289,7200800,7562116,7205256,7565704,2253,979,60,278,1205,1928,-312,3470,38,74,873
456290,7201040,7562472,7205453,7565901,2085,1084,-2,329,1118,1777,-89,2064,47,72,873
457291,7201328,7562796,7205650,7566098,1746,1230,26,416,1093,686,1,3253,47,72,873
458291,7201588,7563172,7205847,7566295,1893,827,116,673,1095,1371,-517,3860,61,62,876
459293,7201804,7563604,7206044,7566492,2161,374,98,912,1063,2727,-1191,2467,61,62,876
460294,7202040,7563972,7206241,7566689,2020,699,55,1183,936,2490,121,3466,39,61,878
461295,7202248,7564268,7206438,7566886,2191,1106,100,1522,806,1958,-128,4022,39,61,878
462295,7202504,7564620,7206635,7567083,1866,689,167,1621,702,1160,485,2206,42,73,878
463297,7202760,7564988,7206832,7567280,1840,514,182,1479,566,1369,1043,1129,42,73,878
464298,7202984,7565336,7207029,7567477,2029,573,236,1671,500,922,387,4084,41,73,876
465299,7203220,7565648,7207226,7567674,1938,748,250,2075,538,1029,-3743,2972,41,73,876
466300,7203416,7565964,7207423,7567871,2189,672,201,2348,443,2916,-1536,1897,54,63,879
467301,7203664,7566304,7207620,7568068,1842,459,169,2506,384,1529,1080,2320,54,63,879
468302,7203956,7566624,7207817,7568265,1526,530,102,2606,458,447,-1260,1973,58,56,878
469303,7204208,7566868,7208014,7568462,1753,985,42,2747,547,719,-1476,2393,58,56,878
470304,7204500,7567120,7208211,7568659,1462,911,28,2841,605,1043,-2038,1845,55,63,879
471305,7204744,7567400,7208408,7568856,1742,699,106,2902,632,1071,-2127,3085,59,58,879
472306,7204996,7567644,7208605,7569053,1668,904,281,2931,672,245,-573,3286,59,58,879
473307,7205324,7567888,7208802,7569250,1137,884,353,2570,665,779,-865,1132,56,51,880
474308,7205616,7568084,7208999,7569447,1320,1184,370,2123,626,1251,-1012,2221,56,51,880
475309,7205888,7568272,7209196,7569644,1413,1238,492,1785,717,-429,-1464,3692,49,32,881
476310,7206180,7568496,7209393,7569841,1247,1003,727,1408,866,-1109,-634,3764,49,32,881
477311,7206472,7568720,7209590,7570038,1206,991,939,883,888,-388,54,2774,59,48,878
478312,7206760,7568952,7209787,7570235,1192,925,1002,544,839,-124,-861,3835,59,48,878
479313,7207048,7569156,7209984,7570432,1152,1097,948,442,817,104,-761,4818,44,34,882
480314,7207280,7569364,7210181,7570629,1487,1067,819,211,814,-357,-1139,2975,44,34,882
481314,7207532,7569564,7210378,7570826,1339,1117,697,135,780,-250,-1055,4920,57,31,881
482315,7207796,7569700,7210575,7571023,1235,1544,586,65,669,-180,326,4709,57,31,881
483316,7208052,7569880,7210772,7571220,1260,1276,495,-236,497,18,61,3879,41,42,880
484318,7208288,7570120,7210969,7571417,1368,882,444,-795,338,323,-1061,4697,41,42,880
485318,7208524,7570352,7211166,7571614,1352,918,479,-1320,195,524,-850,4570,56,32,879
486319,7208768,7570588,7211363,7571811,1281,876,404,-1878,15,876,-284,3955,56,32,879
487320,7208964,7570812,7211560,7572008,1582,939,263,-2105,-215,968,209,4517,42,32,880
488322,7209188,7571004,7211757,7572205,1395,1141,52,-2226,-409,409,-10,4209,42,32,880
489323,7209432,7571192,7211954,7572402,1251,1171,-142,-2064,-581,976,-311,5563,36,35,879
490324,7209620,7571400,7212151,7572599,1605,1041,-308,-1815,-696,1030,-402,5006,36,35,879
491324,7209816,7571620,7212348,7572796,1556,956,-469,-1823,-750,1234,175,4190,31,43,880
492326,7210012,7571828,7212545,7572993,1557,1026,-521,-2095,-794,2153,-106,4001,31,43,880
493326,7210192,7572016,7212742,7573190,1665,1156,-536,-2501,-882,2615,88,3503,29,23,879
494327,7210348,7572188,7212939,7573387,1833,1267,-564,-2832,-828,916,-30,3625,29,23,879
495328,7210548,7572336,7213136,7573584,1558,1439,-571,-3109,-759,1681,997,4043,20,37,878
496330,7210696,7572476,7213333,7573781,1904,1514,-613,-3262,-756,2842,669,3895,20,37,878
497330,7210832,7572612,7213530,7573978,2007,1566,-737,-3374,-845,3836,294,2860,36,22,876
498332,7210984,7572748,7213727,7574175,1927,1594,-911,-3191,-887,3300,1116,5122,36,22,876
499332,7211140,7572936,7213924,7574372,1921,1273,-1094,-2746,-888,3468,1068,5083,40,24,873
500334,7211296,7573116,7214121,7574569,1939,1330,-1270,-2305,-851,3237,1543,5270,40,24,873
501335,7211480,7573280,7214318,7574766,1771,1446,-1430,-2130,-766,3489,-574,3856,24,21,876
502336,7211628,7573448,7214515,7574963,2017,1433,-1502,-2128,-713,4057,1127,4602,24,21,876
503336,7211812,7573592,7214712,7575160,1799,1607,-1463,-2009,-541,2673,231,5580,30,27,876
504338,7211980,7573744,7214909,7575357,1912,1576,-1348,-1870,-384,3510,995,5349,30,27,876
505339,7212144,7573868,7215106,7575554,1952,1784,-1286,-1887,-240,3726,1136,3973,44,27,875
506340,7212288,7573976,7215303,7575751,2100,1924,-1314,-2013,-151,4383,573,3707,44,27,875
507341,7212484,7574124,7215500,7575948,1777,1695,-1314,-2048,-151,4903,659,4418,42,16,873
508349,7212680,7574260,7215730,7576178,1793,1812,-1293,-1942,-140,4249,462,4363,42,16,873
509343,7212856,7574400,7215927,7576375,1927,1812,-1317,-1773,-3,3253,28,3862,29,25,873
510344,7213020,7574524,7216124,7576572,2018,1945,-1398,-1430,194,3317,42,4645,29,25,873
511345,7213204,7574640,7216321,7576769,1898,2031,-1406,-868,341,3440,-207,6038,24,12,873
512346,7213368,7574756,7216518,7576966,2039,2067,-1328,-269,401,3401,-625,6449,24,12,873
513347,7213560,7574880,7216715,7577163,1867,2050,-1189,276,435,3051,-943,6543,41,17,872
514348,7213752,7575004,7216912,7577360,1869,2082,-1034,698,405,4027,-1455,6154,41,17,872
515348,7213940,7575120,7217109,7577557,1899,2168,-878,945,333,4560,-1351,5773,25,31,871
516350,7214112,7575228,7217306,7577754,2010,2258,-731,981,348,3741,-1268,5119,25,31,871
517351,7214364,7575360,7217503,7577951,1487,2137,-624,914,520,2107,-1449,4398,31,25,871
518352,7214592,7575464,7217700,7578148,1624,2353,-562,607,750,932,-1098,3540,31,25,871
519352,7214824,7575612,7217897,7578345,1584,2101,-481,331,947,587,-1790,4372,49,32,872
520354,7215048,7575744,7218094,7578542,1623,2229,-348,422,980,2170,-2918,6166,49,32,872
521355,7215272,7575896,7218291,7578739,1611,2125,-238,713,846,2776,-1967,5799,44,26,872
522356,7215500,7576016,7218488,7578936,1574,2359,-236,714,781,887,-1712,4077,44,26,872
523357,7215740,7576140,7218685,7579133,1480,2367,-207,543,783,688,-2201,5055,38,24,873
524358,7215976,7576260,7218882,7579330,1489,2426,-121,242,851,325,-2670,4802,38,24,873
525358,7216232,7576396,7219079,7579527,1339,2353,-51,40,968,-121,-3283,4972,34,17,872
526359,7216440,7576528,7219276,7579724,1634,2407,-70,-137,1030,356,-3350,4439,34,17,872
527360,7216696,7576660,7219473,7579921,1309,2437,-117,-167,1016,807,-2779,5425,39,22,873
528362,7216908,7576768,7219670,7580118,1577,2627,-100,-206,980,771,-2531,5714,39,22,873
529363,7217124,7576904,7219867,7580315,1545,2478,5,-208,942,448,-2145,6184,42,17,872
530364,7217372,7577048,7220064,7580512,1323,2453,145,-399,900,-342,-1711,5401,42,17,872
531364,7217616,7577196,7220261,7580709,1328,2450,233,-685,846,-499,-1727,4974,49,18,868
532365,7217888,7577340,7220458,7580906,1120,2499,221,-816,781,-522,-1334,4815,49,18,868
533367,7218156,7577468,7220655,7581103,1115,2630,155,-644,774,-672,-1286,5350,48,22,872
534368,7218356,7577620,7220852,7581300,1538,2501,144,-367,685,470,-1115,5478,48,22,872
535368,7218584,7577732,7221049,7581497,1351,2788,220,-296,598,-416,-740,4717,52,28,872
536370,7218808,7577884,7221246,7581694,1364,2559,362,-431,585,-1017,-960,4952,52,28,872
537371,7219020,7578056,7221443,7581891,1433,2446,500,-914,641,-1214,-789,3303,44,35,870
538372,7219240,7578184,7221640,7582088,1373,2751,616,-1481,730,-989,-830,3426,44,35,870
539373,7219488,7578348,7221837,7582285,1177,2542,710,-1958,716,223,-530,2690,31,43,871
540374,7219664,7578536,7222034,7582482,1636,2397,715,-2135,560,1331,241,2980,31,43,871
541375,7219868,7578796,7222231,7582679,1458,1920,510,-1990,386,1477,1175,1928,31,37,872
542376,7220064,7579056,7222428,7582876,1509,1892,167,-1474,182,2541,2527,2611,31,37,872
543377,7220248,7579360,7222625,7583073,1590,1571,-173,-841,-47,3706,2939,2841,33,64,874
544378,7220468,7579640,7222822,7583270,1356,1686,-446,-440,-224,4176,-669,1627,33,64,874
545379,7220676,7579920,7223019,7583467,1426,1650,-481,-84,-90,1249,-1394,3540,34,51,877
546380,7220892,7580212,7223216,7583664,1369,1533,-253,313,321,-363,-785,4339,34,51,877
547380,7221088,7580504,7223413,7583861,1494,1493,-67,409,773,-803,-335,2057,27,55,877
548381,7221288,7580796,7223610,7584058,1469,1452,-23,78,1080,17,1052,541,27,55,877
549383,7221476,7581064,7223807,7584255,1548,1571,99,-239,1186,1711,-366,3024,46,61,877
550384,7221656,7581332,7224004,7584452,1605,1541,362,-483,1034,3366,120,3208,46,61,877
551384,7221828,7581588,7224201,7584649,1667,1590,582,-903,852,1641,422,2559,31,46,877
552386,7222044,7581844,7224398,7584846,1384,1565,669,-1158,676,620,365,3900,31,46,877
553387,7222236,7582108,7224595,7585043,1537,1486,662,-1211,570,38,675,4313,46,43,875
554388,7222420,7582404,7224792,7585240,1593,1243,602,-1212,560,-467,-180,3625,46,43,875
555389,7222616,7582648,7224989,7585437,1519,1548,654,-972,451,449,334,5724,36,43,877
556390,7222776,7582876,7225186,7585634,1761,1635,682,-593,276,-86,367,4418,36,43,877
557391,7222936,7583100,7225383,7585831,1778,1649,591,-519,47,323,884,2409,46,35,877
558391,7223104,7583292,7225580,7586028,1741,1851,470,-529,-136,446,1195,4014,46,35,877
559392,7223272,7583484,7225777,7586225,1754,1854,397,-466,-215,1033,992,3918,28,42,875
560394,7223428,7583684,7225974,7586422,1847,1803,319,-407,-223,1683,727,3096,28,42,875
561395,7223604,7583848,7226171,7586619,1732,2043,271,-401,-45,692,-246,2965,23,26,874
562396,7223784,7584012,7226368,7586816,1715,2058,299,-473,288,868,-1138,2794,23,26,874
563396,7223936,7584172,7226565,7587013,1910,2100,344,-478,597,1854,42,3263,33,22,871
564397,7224104,7584348,7226762,7587210,1824,2009,324,-230,855,2463,110,4079,33,22,871
565399,7224244,7584540,7226959,7587407,2024,1912,199,146,1093,2476,-797,3688,40,32,870
566400,7224372,7584700,7227156,7587604,2130,2129,17,474,1287,2468,-153,3446,40,32,870
567401,7224512,7584852,7227353,7587801,2080,2199,-137,711,1446,1581,-857,3022,21,24,872
568402,7224648,7584996,7227550,7587998,2133,2274,-237,990,1611,1419,-632,3679,21,24,872
569403,7224776,7585172,7227747,7588195,2214,2083,-322,1408,1776,1914,-727,4350,25,31,870
570404,7224888,7585396,7227944,7588392,2351,1772,-418,1963,1857,1711,-368,5024,25,31,870
571404,7225020,7585576,7228141,7588589,2256,2055,-538,2545,1848,1316,-1130,4972,24,30,870
572405,7225172,7585772,7228338,7588786,2151,1956,-600,3016,1775,450,-484,5055,24,30,870
573406,7225360,7585952,7228535,7588983,1931,2063,-617,3316,1730,-210,-4,4644,28,32,870
574408,7225540,7586172,7228732,7589180,1989,1804,-680,3364,1671,239,-367,3034,28,32,870
575408,7225704,7586364,7228929,7589377,2104,1983,-815,2872,1585,-85,-98,573,47,40,870
576410,7225864,7586608,7229126,7589574,2146,1637,-750,2283,1509,-466,160,2984,47,40,870
577410,7226036,7586856,7229323,7589771,2082,1591,-450,1775,1402,-225,-384,4306,27,39,871
578412,7226200,7587128,7229520,7589968,2147,1408,-232,1319,1294,-322,-608,2429,27,39,871
579412,7226356,7587420,7229717,7590165,2217,1242,-222,1117,1218,-320,788,3442,46,43,873
580414,7226528,7587688,7229914,7590362,2127,1361,-397,1140,1237,-910,31,3517,46,43,873
581414,7226672,7587872,7230111,7590559,2327,1892,-566,1377,1259,-400,-349,4422,44,51,874
582416,7226812,7588012,7230308,7590756,2378,2192,-670,1639,1192,340,-361,4494,44,51,874
583416,7226980,7588128,7230505,7590953,2216,2379,-708,1816,1162,-436,-357,4279,21,19,870
584418,7227116,7588248,7230702,7591150,2443,2388,-736,1781,1134,-421,992,3498,21,19,870
585419,7227260,7588392,7230899,7591347,2418,2262,-745,1813,1065,-144,1377,4505,21,17,867
586420,7227384,7588532,7231096,7591544,2575,2313,-819,1634,964,-983,902,3122,21,17,867
587421,7227544,7588732,7231293,7591741,2367,1937,-888,1330,834,-1231,942,4003,26,28,866
588422,7227692,7588944,7231490,7591938,2465,1856,-880,1151,712,-1460,138,5348,26,28,866
589422,7227840,7589192,7231687,7592135,2486,1609,-757,1144,592,-570,-416,6754,43,43,869
590424,7228016,7589380,7231884,7592332,2321,1989,-653,1275,457,715,218,6091,43,43,869
591433,7228160,7589680,7232114,7592562,2560,1258,-634,1299,413,740,1015,4887,46,57,871
592426,7228312,7590016,7232311,7592759,2531,973,-649,1083,575,56,-1143,4286,46,57,871
593426,7228480,7590296,7232508,7592956,2444,1286,-582,760,757,523,-2405,4225,42,51,872
594428,7228632,7590548,7232705,7593153,2564,1438,-451,529,891,-69,-2040,4516,42,51,872
595428,7228792,7590816,7232902,7593350,2532,1307,-373,335,1034,-817,-2203,3363,26,46,873
596430,7228960,7591096,7233099,7593547,2495,1197,-271,451,1239,-218,-3149,5436,26,46,873
597430,7229132,7591332,7233296,7593744,2482,1454,-250,523,1086,481,-2403,4696,26,39,871
598432,7229276,7591580,7233493,7593941,2681,1358,-194,522,767,637,-1764,5829,26,39,871
599432,7229456,7591776,7233690,7594138,2464,1683,-148,312,366,-41,-1096,5309,36,57,872
600434,7229616,7592016,7233887,7594335,2606,1391,-211,-1,-69,-393,-92,4965,36,57,872
601435,7229776,7592268,7234084,7594532,2624,1291,-339,-176,-481,-1339,-717,5833,28,46,871
602436,7229952,7592488,7234281,7594729,2534,1482,-540,-159,-862,-2046,-145,6071,28,46,871
603436,7230104,7592708,7234478,7594926,2704,1472,-730,-48,-1160,-2085,-533,5903,32,47,871
604438,7230244,7592952,7234675,7595123,2805,1302,-799,171,-1330,-944,-1136,7257,32,47,871
605438,7230400,7593164,7234872,7595320,2724,1496,-736,211,-1356,-355,-1696,6134,23,44,870
606440,7230544,7593416,7235069,7595517,2823,1222,-594,80,-1286,576,-2079,6079,23,44,870
607441,7230712,7593696,7235266,7595714,2687,1011,-300,-49,-1152,877,-2418,6496,26,58,869
608442,7230864,7593960,7235463,7595911,2808,1082,-3,-375,-1051,1097,-2149,4420,26,58,869
609443,7231020,7594240,7235660,7596108,2802,945,230,-612,-981,1451,-3100,4835,44,40,871
610444,7231164,7594424,7235857,7596305,2900,1552,446,-712,-925,975,-3492,4972,44,40,871
611444,7231320,7594652,7236054,7596502,2844,1263,562,-685,-1001,1441,-2008,4166,27,51,871
612446,7231496,7594908,7236251,7596699,2729,1064,555,-537,-1148,590,-1526,4213,27,51,871
613446,7231692,7595152,7236448,7596896,2606,1118,481,-273,-1354,119,-1129,4584,42,42,869
614447,7231868,7595392,7236645,7597093,2741,1124,366,26,-1548,-200,-188,4620,42,42,869
615448,7232056,7595644,7236842,7597290,2671,1026,233,225,-1640,-663,-299,4163,43,54,872
616449,7232224,7595836,7237039,7597487,2809,1403,116,273,-1686,-302,-684,4200,43,54,872
617450,7232400,7596012,7237236,7597684,2770,1512,59,184,-1741,471,-1609,4605,47,37,872
618451,7232584,7596196,7237433,7597881,2726,1468,67,14,-1835,1272,-1275,4874,47,37,872
619452,7232752,7596372,7237630,7598078,2840,1528,100,-277,-1848,735,-1398,4226,44,27,868
620453,7232916,7596568,7237827,7598275,2881,1404,164,-550,-1799,844,-751,4822,44,27,868
621454,7233128,7596700,7238024,7598472,2574,1832,215,-707,-1749,1058,-529,4376,26,33,868
622455,7233328,7596824,7238221,7598669,2649,1915,210,-786,-1753,1626,-258,4077,26,33,868
623456,7233508,7596940,7238418,7598866,2782,2001,148,-676,-1735,1135,-279,4308,48,30,868
624458,7233720,7597052,7238615,7599063,2577,2063,73,-459,-1713,939,-645,3998,48,30,868
625458,7233948,7597156,7238812,7599260,2464,2155,68,-269,-1753,1294,-479,4493,47,25,867
626459,7234160,7597308,7239009,7599457,2558,1875,100,-168,-1808,1094,-751,3873,47,25,867
627460,7234348,7597416,7239206,7599654,2713,2190,120,-177,-1823,571,-261,3713,31,29,867
628461,7234584,7597520,7239403,7599851,2397,2256,123,-171,-1822,382,51,3695,31,29,867
629462,7234784,7597644,7239600,7600048,2622,2164,112,-253,-1810,166,284,3226,47,16,866
630463,7235016,7597748,7239797,7600245,2408,2330,99,-357,-1831,731,203,3437,47,16,866
631465,7235256,7597888,7239994,7600442,2340,2130,120,-356,-1864,791,232,4036,53,25,865
632466,7235484,7598044,7240191,7600639,2402,2049,141,-354,-1864,843,48,3705,53,25,865
633467,7235732,7598152,7240388,7600836,2256,2388,159,-378,-1876,1379,-390,3667,39,17,868
634468,7236020,7598248,7240585,7601033,1966,2508,187,-346,-1849,1115,-655,4178,39,17,868
635469,7236244,7598380,7240782,7601230,2355,2312,156,-377,-1814,1458,-48,3357,60,30,868
636470,7236532,7598464,7240979,7601427,1916,2663,70,-474,-1788,1338,-242,2672,60,30,868
637471,7236836,7598568,7241176,7601624,1770,2579,17,-483,-1721,713,-393,3868,62,29,867
638472,7237100,7598660,7241373,7601821,1991,2701,-3,-499,-1677,881,-18,2765,62,29,867
639473,7237388,7598780,7241570,7602018,1802,2560,-36,-622,-1708,1340,203,2345,55,21,868
640474,7237696,7598908,7241767,7602215,1629,2541,-12,-613,-1704,797,-329,3554,55,21,868
641475,7237976,7599032,7241964,7602412,1768,2599,49,-627,-1629,-20,-13,2721,69,18,867
642476,7238268,7599156,7242161,7602609,1652,2632,61,-826,-1547,-129,52,1703,69,18,867
643477,7238584,7599280,7242358,7602806,1451,2664,76,-996,-1498,291,-482,2881,57,29,869
644478,7238876,7599400,7242555,7603003,1559,2724,103,-1059,-1453,442,-585,2998,57,29,869
645479,7239168,7599500,7242752,7603200,1519,2892,96,-1209,-1455,763,-851,2213,65,23,869
646480,7239452,7599628,7242949,7603397,1531,2748,91,-1307,-1521,1267,-203,3521,65,23,869
647481,7239736,7599740,7243146,7603594,1493,2886,100,-1454,-1504,161,-316,2584,69,17,868
648482,7240028,7599836,7243343,7603791,1402,3032,87,-1673,-1477,536,-58,2463,69,17,868
649483,7240316,7599956,7243540,7603988,1388,2916,57,-1733,-1434,1015,-434,3045,65,23,868
650484,7240608,7600068,7243737,7604185,1322,3004,34,-1721,-1365,625,-130,2629,65,23,868
651485,7240888,7600204,7243934,7604382,1361,2882,1,-1792,-1294,340,284,2081,67,26,867
652486,7241156,7600328,7244131,7604579,1406,2990,-4,-1885,-1189,-441,33,2687,67,26,867
653487,7241452,7600444,7244328,7604776,1187,3076,-29,-1991,-1121,-102,-348,2170,60,24,867
654488,7241708,7600580,7244525,7604973,1412,2979,-53,-2101,-1128,323,-39,2450,60,24,867
655489,7241988,7600712,7244722,7605170,1226,3033,-41,-2201,-1196,377,-326,2849,64,30,865
656490,7242264,7600836,7244919,7605367,1217,3116,-10,-2330,-1306,614,-446,3077,64,30,865
657491,7242528,7600976,7245116,7605564,1263,3042,65,-2496,-1402,231,332,2686,52,23,867
658492,7242764,7601112,7245313,7605761,1422,3095,63,-2767,-1445,226,381,2709,52,23,867
659492,7243024,7601268,7245510,7605958,1244,2989,45,-2887,-1386,163,-100,2862,52,28,867
660494,7243272,7601376,7245707,7606155,1298,3329,-6,-2935,-1264,-2,76,3322,52,28,867
661494,7243480,7601540,7245904,7606352,1543,2994,-30,-2931,-1165,-5,346,2792,46,25,867
662496,7243724,7601704,7246101,7606549,1298,3010,-39,-3015,-1134,337,399,2806,46,25,867
663496,7243948,7601904,7246298,7606746,1411,2784,14,-3040,-1103,319,278,3673,48,46,865
664498,7244188,7602096,7246495,7606943,1292,2837,100,-3210,-1071,339,-171,2622,48,46,865
665499,7244440,7602252,7246692,7607140,1194,3081,190,-3470,-1094,526,1084,2969,55,31,869
666500,7244688,7602416,7246889,7607337,1197,3046,231,-3698,-1071,-141,298,2577,55,31,869
667501,7244908,7602612,7247086,7607534,1363,2847,246,-3778,-994,-55,264,3865,44,44,868
668502,7245120,7602816,7247283,7607731,1406,2795,208,-3725,-970,988,537,3547,44,44,868
669503,7245392,7602996,7247480,7607928,999,2954,98,-3799,-977,791,940,2645,58,46,869
670504,7245624,7603208,7247677,7608125,1234,2748,53,-3764,-923,308,615,4640,58,46,869
671505,7245860,7603384,7247874,7608322,1192,2984,39,-3904,-843,190,264,3164,48,46,869
672506,7246116,7603580,7248071,7608519,1042,2860,46,-3984,-738,290,400,4207,48,46,869
673507,7246352,7603764,7248268,7608716,1149,2942,7,-3795,-742,1872,48,5158,40,38,869
674515,7246580,7603936,7248498,7608946,1200,3043,-155,-3583,-742,1242,286,3421,40,38,869
675509,7246824,7604144,7248695,7609143,1081,2814,-331,-3263,-616,627,561,4952,56,50,869
676510,7247056,7604372,7248892,7609340,1140,2677,-437,-2900,-493,1201,67,5092,56,50,869
677511,7247272,7604568,7249089,7609537,1233,2878,-544,-2732,-356,1004,600,3894,32,37,870
678512,7247512,7604756,7249286,7609734,1064,2933,-611,-2837,-194,1207,831,3889,32,37,870
679513,7247720,7604940,7249483,7609931,1259,2965,-557,-2930,-70,1777,-110,5066,51,29,870
680514,7247936,7605140,7249680,7610128,1202,2864,-425,-3141,-38,2113,115,4612,51,29,870
681515,7248148,7605360,7249877,7610325,1220,2729,-349,-3424,-26,2178,-308,3981,35,43,868
682516,7248348,7605584,7250074,7610522,1294,2694,-295,-3473,73,1408,-477,5491,35,43,868
683517,7248520,7605792,7250271,7610719,1481,2790,-269,-3216,146,2004,-404,5704,41,39,871
684518,7248680,7606004,7250468,7610916,1572,2759,-337,-2939,165,2247,-446,4521,41,39,871
685519,7248888,7606212,7250665,7611113,1267,2780,-407,-2614,298,846,94,5656,26,37,868
686520,7249044,7606416,7250862,7611310,1611,2803,-449,-2268,462,1181,-366,5520,26,37,868
687521,7249240,7606624,7251059,7611507,1362,2774,-459,-2044,570,1555,-986,5121,26,43,869
688522,7249416,7606836,7251256,7611704,1496,2744,-458,-2086,686,1041,-826,4667,26,43,869
689523,7249588,7607072,7251453,7611901,1533,2578,-399,-2175,786,718,-676,5152,45,40,869
690524,7249760,7607264,7251650,7612098,1544,2856,-300,-2369,865,543,-767,4892,45,40,869
691525,7249952,7607480,7251847,7612295,1421,2698,-224,-2532,921,767,-931,5001,25,52,868
692526,7250108,7607700,7252044,7612492,1665,2664,-168,-2551,929,1110,-1162,5535,25,52,868
693527,7250268,7607912,7252241,7612689,1657,2709,-174,-2386,902,1270,-1389,5652,43,35,869
694528,7250456,7608100,7252438,7612886,1485,2864,-229,-2170,930,893,-1176,5482,43,35,869
695528,7250620,7608284,7252635,7613083,1651,2894,-296,-2012,1035,904,-1562,5567,25,43,868
696530,7250784,7608464,7252832,7613280,1666,2928,-363,-2020,1116,1166,-1750,4673,25,43,868
697531,7250940,7608652,7253029,7613477,1735,2883,-340,-2043,1192,689,-1398,5707,44,45,865
698532,7251100,7608860,7253226,7613674,1726,2754,-290,-2203,1259,663,-2033,4606,44,45,865
699533,7251280,7609032,7253423,7613871,1608,2991,-207,-2416,1304,584,-1180,4873,25,47,866
700534,7251460,7609200,7253620,7614068,1617,3030,-109,-2461,1288,1100,-1202,5205,25,47,866
701535,7251616,7609392,7253817,7614265,1785,2883,-56,-2470,1280,499,-949,4733,31,42,866
702536,7251772,7609572,7254014,7614462,1804,2966,-38,-2432,1300,443,-919,4780,31,42,866
703536,7251968,7609776,7254211,7614659,1554,2814,-69,-2378,1314,450,-857,4408,45,47,866
704538,7252156,7609960,7254408,7614856,1608,2946,-105,-2209,1343,51,-995,4867,45,47,866
705539,7252332,7610140,7254605,7615053,1693,2980,-76,-1970,1394,5,-1296,5381,29,34,867
706540,7252504,7610288,7254802,7615250,1729,3202,-56,-1859,1405,490,-1822,4484,29,34,867
707541,7252708,7610444,7254999,7615447,1527,3171,-24,-1850,1376,841,-1233,4300,48,33,865
708542,7252868,7610616,7255196,7615644,1819,3083,72,-1897,1319,1341,-1072,5082,48,33,865
709543,7253052,7610816,7255393,7615841,1675,2907,184,-2092,1318,373,-1763,3823,47,38,865
710544,7253236,7610996,7255590,7616038,1681,3040,329,-2223,1379,118,-939,4875,47,38,865
711544,7253428,7611172,7255787,7616235,1634,3075,393,-2346,1343,1401,-1485,3752,33,32,865
712546,7253616,7611324,7255984,7616432,1663,3246,403,-2186,1330,842,-1047,4981,33,32,865
713547,7253820,7611512,7256181,7616629,1560,3026,358,-1852,1372,491,-1395,4839,40,42,865
714548,7254000,7611664,7256378,7616826,1719,3272,318,-1522,1402,542,-811,4293,40,42,865
715549,7254196,7611828,7256575,7617023,1619,3212,285,-1425,1423,463,-1298,3988,41,26,864
716550,7254408,7611976,7256772,7617220,1513,3335,314,-1429,1446,574,-1065,4148,41,26,864
717551,7254592,7612128,7256969,7617417,1694,3331,389,-1471,1451,568,-943,4215,50,36,864
718552,7254788,7612260,7257166,7617614,1621,3485,459,-1555,1467,-278,-912,3630,50,36,864
719553,7254992,7612424,7257363,7617811,1567,3301,522,-1584,1503,-486,-1195,3957,34,30,862
720554,7255180,7612600,7257560,7618008,1672,3236,580,-1544,1525,-304,-689,4241,34,30,862
721555,7255336,7612748,7257757,7618205,1890,3434,588,-1432,1568,-560,-179,4022,29,38,862
722556,7255540,7612904,7257954,7618402,1587,3403,528,-1322,1606,-260,24,3635,29,38,862
723557,7255720,7613048,7258151,7618599,1746,3502,431,-1301,1427,2280,343,3182,40,31,861
724558,7255896,7613212,7258348,7618796,1780,3392,385,-1101,1155,2836,-154,5167,40,31,861
725558,7256060,7613388,7258545,7618993,1871,3329,337,-855,1166,-198,-644,4505,30,38,862
726560,7256252,7613584,7258742,7619190,1698,3205,267,-693,1298,-722,-18,3474,30,38,862
727560,7256420,7613768,7258939,7619387,1861,3287,323,-627,1310,-40,121,5407,42,37,862
728562,7256564,7613924,7259136,7619584,2035,3481,469,-690,1209,736,-87,4408,42,37,862
729563,7256744,7614104,7259333,7619781,1818,3339,496,-956,1103,919,338,2933,40,36,864
730564,7256884,7614276,7259530,7619978,2093,3401,434,-1088,1078,627,99,3864,40,36,864
731565,7257036,7614448,7259727,7620175,2039,3413,304,-1072,1092,122,87,2895,39,41,859
732566,7257176,7614592,7259924,7620372,2139,3613,186,-871,1170,-706,646,4020,39,41,859
733567,7257324,7614744,7260121,7620569,2112,3583,94,-552,1257,-586,518,3932,44,24,860
734568,7257488,7614900,7260318,7620766,2026,3577,45,-315,1291,-174,-57,4449,44,24,860
735569,7257640,7615048,7260515,7620963,2122,3650,88,-193,1259,176,-91,4560,34,35,857
736570,7257808,7615196,7260712,7621160,2035,3673,114,-385,1205,173,-270,3035,34,35,857
737571,7257948,7615348,7260909,7621357,2236,3669,120,-706,1133,744,-461,3114,23,17,858
738585,7258112,7615472,7261106,7621554,2101,3800,136,-803,1144,56,-374,4362,23,17,858
739573,7258264,7615620,7261303,7621751,2196,3750,105,-819,1216,-501,71,3203,25,34,858
740587,7258424,7615744,7261500,7621948,2163,3800,40,-785,1240,-34,543,3709,25,34,858
741587,7258584,7615884,7261697,7622145,2180,3800,-12,-643,1253,35,112,4643,24,34,855
742588,7258732,7616032,7261894,7622342,2277,3800,-88,-596,1275,153,-783,3104,24,34,855
743589,7258876,7616180,7262091,7622539,2325,3800,-116,-609,1299,-282,752,4049,41,17,856
744590,7259000,7616324,7262288,7622736,2483,3800,-150,-654,1352,-422,105,3172,41,17,856
745592,7259156,7616472,7262485,7622933,2302,3800,-181,-765,1332,395,135,3267,21,36,855
746580,7259284,7616640,7262682,7623130,2508,3791,-183,-915,1336,80,-607,3341,21,36,855
747593,7259420,7616776,7262879,7623327,2486,3800,-164,-1136,1364,30,-417,3123,42,37,854
748582,7259548,7616956,7263076,7623524,2567,3753,-93,-1181,1448,-373,-474,4361,42,37,854
749595,7259660,7617112,7263273,7623721,2704,3800,-31,-1159,1444,548,-427,3768,36,33,854
750596,7259808,7617256,7263470,7623918,2502,3800,-3,-1125,1400,396,382,3939,36,33,854
751597,7259956,7617420,7263667,7624115,2524,3800,-81,-1221,1397,98,370,2563,40,37,853
752598,7260108,7617596,7263864,7624312,2519,3800,-221,-1304,1429,-203,-217,2931,40,37,853
753586,7260240,7617820,7264061,7624509,2674,3537,-317,-1149,1467,-532,-472,4452,44,45,855
754588,7260392,7618048,7264258,7624706,2569,3499,-341,-879,1476,-488,417,4565,44,45,855
755588,7260516,7618244,7264455,7624903,2778,3702,-398,-808,1492,-149,95,2999,29,38,855
756590,7260636,7618456,7264652,7625100,2836,3596,-482,-942,1456,1137,-112,2770,29,38,855
757597,7260804,7618668,7264882,7625330,2565,3605,-537,-1070,1428,987,-782,3454,24,43,857
758592,7260936,7618956,7265079,7625527,2819,3092,-557,-1190,1484,249,-857,2675,24,43,857
759592,7261096,7619260,7265276,7625724,2661,2946,-496,-1126,1579,-48,84,4233,38,49,855
760594,7261276,7619524,7265473,7625921,2544,3168,-426,-1043,1688,-31,392,3479,38,49,855
761594,7261456,7619788,7265670,7626118,2552,3139,-472,-1144,1753,710,-246,2290,35,49,859
762596,7261620,7620092,7265867,7626315,2668,2843,-516,-1159,1794,785,-1624,3559,35,49,859
763597,7261780,7620416,7266064,7626512,2710,2664,-469,-1043,1786,990,-2366,4323,46,60,860
764598,7261940,7620768,7266261,7626709,2727,2422,-365,-859,1777,442,-786,4185,46,60,860
765599,7262124,7621072,7266458,7626906,2584,2676,-377,-844,1771,465,1304,2465,38,68,862
766600,7262288,7621364,7266655,7627103,2724,2711,-458,-938,1781,804,384,2313,38,68,862
767601,7262500,7621688,7266852,7627300,2418,2456,-418,-935,1769,1341,-823,3715,51,60,865
768602,7262712,7622056,7267049,7627497,2412,2107,-301,-885,1787,250,-1138,3537,51,60,865
769603,7262876,7622408,7267246,7627694,2728,2139,-152,-695,1920,-1236,-1053,3998,46,63,864
770604,7263080,7622712,7267443,7627891,2476,2393,-39,-507,1950,409,-204,4262,46,63,864
771605,7263248,7623080,7267640,7628088,2714,1919,-55,-534,1725,2530,-437,1797,30,61,868
772606,7263420,7623452,7267837,7628285,2701,1818,-109,-629,1500,1625,-569,2331,30,61,868
773607,7263628,7623804,7268034,7628482,2472,1876,-47,-503,1462,53,202,4073,46,56,865
774608,7263832,7624104,7268231,7628679,2495,2157,35,-482,1558,-545,191,1912,46,56,865
775608,7264032,7624508,7268428,7628876,2519,1417,71,-574,1585,785,-536,2191,46,72,867
776610,7264240,7624888,7268625,7629073,2466,1488,120,-306,1570,578,-1211,4621,46,72,867
777611,7264452,7625220,7268822,7629270,2435,1729,204,33,1533,412,-1072,3420,36,60,868
778612,7264664,7625508,7269019,7629467,2428,1964,253,102,1405,1556,-929,2186,36,60,868
779613,7264872,7625892,7269216,7629664,2449,1283,222,36,1235,1815,-220,2137,40,63,871
780614,7265108,7626232,7269413,7629861,2258,1496,213,119,1177,1122,-144,2761,40,63,871
781615,7265340,7626600,7269610,7630058,2269,1246,311,329,1217,436,60,3488,42,72,870
782616,7265572,7626912,7269807,7630255,2255,1547,401,367,1257,593,-544,1875,42,72,870
783617,7265820,7627228,7270004,7630452,2132,1470,463,424,1172,1849,-224,3059,59,63,873
784618,7266040,7627620,7270201,7630649,2298,910,556,726,1030,1949,181,4162,59,63,873
785619,7266260,7627976,7270398,7630846,2289,1066,593,852,921,1098,423,2139,59,72,871
786620,7266548,7628284,7270595,7631043,1825,1317,524,748,936,729,176,1328,59,72,871
787621,7266820,7628676,7270792,7631240,1893,707,425,1052,1070,1324,-253,4284,42,75,875
788622,7267060,7629052,7270989,7631437,2074,730,298,1700,1132,2029,-1320,4170,42,75,875
789623,7267300,7629420,7271186,7631634,2056,704,262,2092,1000,2088,-1555,2871,42,66,876
790624,7267524,7629748,7271383,7631831,2145,897,383,2092,745,1180,787,2830,42,66,876
791624,7267748,7630076,7271580,7632028,2134,840,442,1988,515,1872,-730,1673,56,62,877
792625,7268016,7630468,7271777,7632225,1828,355,393,2182,438,1649,-645,3134,56,62,877
793627,7268260,7630860,7271974,7632422,1959,269,288,2536,465,1272,260,2744,63,67,876
794627,7268508,7631148,7272171,7632619,1912,880,252,2861,519,955,-952,3161,63,67,876
795629,7268756,7631384,7272368,7632816,1890,1188,360,3077,442,2718,-928,3460,60,59,878
796630,7268980,7631748,7272565,7633013,2029,314,471,3035,342,2164,-8,2365,60,59,878
797631,7269184,7632092,7272762,7633210,2152,376,587,2870,401,523,-6,2266,55,58,876
798632,7269500,7632404,7272959,7633407,1400,525,638,2706,516,1275,-879,2074,55,58,876
799633,7269760,7632624,7273156,7633604,1723,1090,563,2793,558,1755,-1925,2359,57,51,879
800634,7270016,7632876,7273353,7633801,1723,866,470,2968,580,1249,-1461,3314,57,51,879
801635,7270276,7633124,7273550,7633998,1670,869,488,3157,621,267,-274,4633,63,53,881
802636,7270548,7633364,7273747,7634195,1563,900,508,2739,575,885,-625,785,63,53,881
803637,7270836,7633580,7273944,7634392,1424,1042,525,2216,582,295,-1000,3897,65,39,879
804638,7271120,7633752,7274141,7634589,1411,1328,669,1871,587,99,-712,4676,65,39,879
805639,7271428,7633924,7274338,7634786,1213,1339,781,1318,616,-391,-1130,3424,45,44,879
806640,7271684,7634144,7274535,7634983,1512,1029,890,708,701,-796,-1089,4428,45,44,879
807641,7271976,7634368,7274732,7635180,1247,992,926,218,705,-72,-1206,3880,48,48,877
808642,7272276,7634552,7274929,7635377,1151,1248,760,248,759,-710,-1765,5387,48,48,877
809643,7272540,7634756,7275126,7635574,1348,1121,493,468,744,40,178,4572,66,35,879
810644,7272784,7634936,7275323,7635771,1452,1278,229,590,717,-599,106,4993,66,35,879
811645,7273056,7635116,7275520,7635968,1245,1286,84,214,608,145,-289,4175,41,42,880
812646,7273316,7635252,7275717,7636165,1293,1588,101,-458,423,769,-905,4985,41,42,880
813647,7273568,7635420,7275914,7636362,1319,1400,120,-1261,231,449,-1142,4773,63,44,879
814647,7273820,7635660,7276111,7636559,1295,932,96,-1679,95,220,-679,4894,63,44,879
815649,7274052,7635868,7276308,7636756,1406,1128,-56,-1707,-27,345,686,4787,48,31,877
816650,7274288,7636116,7276505,7636953,1364,855,-223,-1700,-212,797,1095,4038,48,31,877
817651,7274504,7636308,7276702,7637150,1481,1208,-247,-2030,-401,684,-82,3569,53,32,879
818652,7274744,7636520,7276899,7637347,1313,1076,-170,-2516,-520,913,-535,4578,53,32,879
819653,7274956,7636704,7277096,7637544,1481,1257,-44,-2818,-575,1413,-533,5063,53,47,879
820654,7275140,7636936,7277293,7637741,1663,941,-69,-3225,-672,1914,459,3202,53,47,879
821655,7275336,7637164,7277490,7637938,1588,954,-149,-3434,-756,1632,-79,4408,43,40,880
822656,7275496,7637364,7277687,7638135,1830,1127,-280,-3496,-787,1408,-228,3714,43,40,880
823657,7275672,7637576,7277884,7638332,1740,1046,-442,-3306,-840,2260,812,4378,28,42,879
824658,7275820,7637752,7278081,7638529,1936,1280,-700,-3152,-932,2717,929,3054,28,42,879
825659,7275976,7637924,7278278,7638726,1905,1316,-970,-2868,-997,2967,878,4627,39,24,877
826659,7276128,7638088,7278475,7638923,1950,1380,-1110,-2304,-1038,3786,625,6161,39,24,877
827661,7276300,7638224,7278672,7639120,1837,1582,-1195,-1848,-1076,3907,609,5123,41,36,876
828662,7276452,7638412,7278869,7639317,1982,1262,-1282,-1750,-957,2339,578,4088,41,36,876
829663,7276624,7638608,7279066,7639514,1869,1213,-1320,-1879,-794,2614,285,4127,44,36,873
830664,7276816,7638764,7279263,7639711,1746,1481,-1221,-1990,-674,2956,255,5075,44,36,873
831665,7277008,7638976,7279460,7639908,1749,1124,-1094,-2090,-572,3354,324,4336,39,40,875
832666,7277156,7639132,7279657,7640105,2046,1492,-1059,-2187,-423,3603,1408,3903,39,40,875
833667,7277352,7639260,7279854,7640302,1747,1697,-1123,-2123,-233,4056,602,4196,42,36,875
834668,7277536,7639408,7280051,7640499,1828,1595,-1189,-1863,-134,4426,726,4628,42,36,875
835669,7277720,7639504,7280248,7640696,1834,1964,-1231,-1595,-79,3785,296,4619,38,35,874
836670,7277888,7639652,7280445,7640893,1947,1661,-1222,-1388,-4,3665,304,4967,38,35,874
837670,7278096,7639808,7280642,7641090,1692,1629,-1140,-1249,101,3787,-126,4755,25,23,874
838672,7278296,7639936,7280839,7641287,1742,1835,-1043,-1140,220,3256,616,4550,25,23,874
839672,7278508,7640048,7281036,7641484,1660,1973,-1002,-972,373,2391,588,4379,30,16,872
840681,7278696,7640168,7281266,7641714,1830,1971,-1070,-697,455,2921,-238,4481,30,16,872
841675,7278916,7640276,7281463,7641911,1620,2085,-1107,-271,491,2545,-390,5267,52,30,872
842675,7279152,7640416,7281660,7642108,1504,1911,-1059,212,507,2630,-777,5996,52,30,872
843676,7279332,7640516,7281857,7642305,1861,2204,-962,570,489,3137,-1077,5364,48,21,872
844678,7279536,7640632,7282054,7642502,1709,2139,-947,572,406,3734,-1282,3338,48,21,872
845679,7279720,7640744,7282251,7642699,1840,2203,-889,424,334,3270,-1077,4536,35,32,874
846680,7279964,7640864,7282448,7642896,1445,2186,-680,316,353,2294,-1924,5449,35,32,874
847680,7280148,7640964,7282645,7643093,1826,2354,-499,55,454,1448,-1568,3962,29,25,870
848682,7280364,7641092,7282842,7643290,1618,2210,-382,-92,578,1397,-1918,4770,29,25,870
849683,7280584,7641228,7283039,7643487,1583,2187,-345,3,636,1915,-2824,5533,44,17,872
850684,7280776,7641364,7283236,7643684,1762,2215,-340,128,627,1825,-1607,4539,44,17,872
851684,7281012,7641500,7283433,7643881,1469,2242,-323,188,665,1491,-2446,5259,38,15,870
852686,7281252,7641612,7283630,7644078,1427,2430,-308,106,719,1496,-2028,4292,38,15,870
853686,7281484,7641752,7283827,7644275,1461,2280,-322,-100,792,727,-2148,4167,34,16,871
854688,7281736,7641888,7284024,7644472,1313,2333,-318,-138,917,197,-2424,5508,34,16,871
855688,7281972,7641996,7284221,7644669,1396,2547,-331,-102,987,595,-2343,4950,31,23,871
856690,7282204,7642140,7284418,7644866,1405,2346,-340,17,1006,623,-2658,5579,31,23,871
857691,7282432,7642268,7284615,7645063,1418,2477,-290,47,956,900,-1819,5736,52,28,872
858692,7282652,7642384,7284812,7645260,1458,2588,-178,-33,819,1270,-2266,5590,52,28,872
859692,7282860,7642532,7285009,7645457,1529,2410,5,-205,725,-217,-1959,5936,42,19,872
860694,7283068,7642672,7285206,7645654,1524,2486,145,-493,680,-592,-1123,4523,42,19,872
861695,7283296,7642788,7285403,7645851,1385,2672,219,-713,633,-273,-965,5178,46,34,868
862696,7283576,7642908,7285600,7646048,1025,2681,279,-719,662,-536,-1192,5392,46,34,868
863697,7283780,7643044,7285797,7646245,1497,2608,307,-725,696,-48,-1199,4517,40,27,869
864698,7284008,7643192,7285994,7646442,1334,2556,338,-761,715,-383,-634,4587,40,27,869
865699,7284224,7643352,7286191,7646639,1401,2498,352,-739,726,-444,-15,4327,46,23,871
866700,7284428,7643504,7286388,7646836,1473,2568,323,-836,763,-340,-308,3274,46,23,871
867700,7284640,7643624,7286585,7647033,1417,2803,433,-740,862,-525,-1472,5791,44,26,871
868702,7284860,7643760,7286782,7647230,1357,2730,637,-845,925,-387,-1210,3670,44,26,871
869703,7285064,7643916,7286979,7647427,1454,2623,815,-1105,868,552,-501,3420,46,42,870
870704,7285232,7644124,7287176,7647624,1693,2295,838,-1429,719,1617,423,2422,46,42,870
871704,7285444,7644332,7287373,7647821,1411,2291,651,-1430,563,2349,128,2219,32,36,870
872706,7285624,7644556,7287570,7648018,1620,2179,485,-879,443,2355,564,4439,32,36,870
873707,7285828,7644804,7287767,7648215,1467,2007,295,-303,353,2436,1754,2751,34,39,870
874708,7286060,7645068,7287964,7648412,1276,1879,-40,-231,305,2308,2525,-448,34,39,870
875709,7286256,7645360,7288161,7648609,1503,1662,-314,-111,391,1837,308,2088,28,48,872
876710,7286452,7645668,7288358,7648806,1503,1515,-301,445,672,704,-2220,4648,28,48,872
877711,7286636,7645952,7288555,7649003,1584,1626,-142,862,961,407,356,3595,41,55,876
878712,7286836,7646208,7288752,7649200,1483,1776,-78,650,1176,34,769,232,41,55,876
879713,7287024,7646476,7288949,7649397,1562,1671,78,292,1333,257,-709,3319,41,44,877
880714,7287196,7646744,7289146,7649594,1673,1640,377,-136,1221,1838,437,4214,41,44,877
881714,7287384,7647048,7289343,7649791,1578,1369,519,-791,973,937,354,2095,48,56,875
882715,7287576,7647320,7289540,7649988,1556,1536,553,-1294,711,516,102,4170,48,56,875
883716,7287776,7647572,7289737,7650185,1505,1638,573,-1416,573,-170,629,5326,48,57,874
884717,7287980,7647844,7289934,7650382,1477,1480,501,-1506,509,-185,335,3723,48,57,874
885718,7288148,7648104,7290131,7650579,1715,1528,497,-1314,370,333,232,5995,30,50,875
886719,7288312,7648324,7290328,7650776,1755,1768,491,-967,182,-190,589,4983,30,50,875
887720,7288492,7648572,7290525,7650973,1663,1572,388,-954,-114,695,1345,2208,35,51,877
888721,7288632,7648760,7290722,7651170,1938,1951,272,-910,-303,390,1262,4195,35,51,877
889723,7288772,7648944,7290919,7651367,1964,1982,202,-723,-349,1499,456,4231,29,46,874
890723,7288944,7649116,7291116,7651564,1775,2068,98,-474,-280,1953,684,3787,29,46,874
891724,7289092,7649304,7291313,7651761,1948,1972,-42,-277,-81,1491,-539,3471,34,43,871
892725,7289276,7649484,7291510,7651958,1728,2031,-136,-259,188,1402,-1848,2988,34,43,871
893727,7289440,7649640,7291707,7652155,1869,2199,-154,-224,451,1716,552,3727,41,22,872
894728,7289596,7649808,7291904,7652352,1937,2137,-160,-150,755,1852,-931,3455,41,22,872
895729,7289736,7650004,7292101,7652549,2062,1963,-218,-6,1066,2504,-1428,3110,39,22,871
896730,7289884,7650136,7292298,7652746,2034,2392,-311,278,1331,3089,-193,3308,39,22,871
897731,7290016,7650288,7292495,7652943,2163,2287,-422,515,1519,2578,-1054,2570,26,22,870
898732,7290148,7650464,7292692,7653140,2192,2147,-522,764,1709,2097,-724,3187,26,22,870
899733,7290264,7650612,7292889,7653337,2328,2344,-595,1073,1897,2094,-1470,3604,31,29,868
900734,7290408,7650804,7293086,7653534,2177,2072,-599,1521,2027,1817,-261,5141,31,29,868
901735,7290520,7651004,7293283,7653731,2415,2021,-574,2036,2078,1297,-1516,5037,43,46,869
902736,7290676,7651208,7293480,7653928,2159,1994,-552,2439,2070,553,-525,5099,43,46,869
903736,7290868,7651432,7293677,7654125,1936,1857,-573,2815,2018,-239,-34,4614,41,39,869
904738,7291052,7651640,7293874,7654322,1993,1953,-732,2807,1832,-204,613,2486,41,39,869
905739,7291216,7651836,7294071,7654519,2132,2029,-910,2518,1577,-66,743,1919,31,47,869
906740,7291380,7652080,7294268,7654716,2148,1709,-838,2413,1368,-125,235,5214,31,47,869
907741,7291552,7652332,7294465,7654913,2110,1636,-675,2271,1258,-423,-10,3654,50,53,870
908742,7291716,7652616,7294662,7655110,2174,1397,-602,2002,1177,-165,428,2710,50,53,870
909743,7291864,7652936,7294859,7655307,2297,1118,-569,1841,1130,-62,564,4137,26,49,872
910744,7292024,7653232,7295056,7655504,2238,1226,-610,1708,1168,-915,-331,3029,26,49,872
911745,7292180,7653444,7295253,7655701,2282,1744,-667,1575,1197,-768,-84,3681,46,46,873
912746,7292344,7653628,7295450,7655898,2246,1926,-673,1613,1134,351,230,4898,46,46,873
913747,7292508,7653788,7295647,7656095,2262,2092,-724,1671,1092,25,-814,3903,31,42,874
914748,7292632,7653988,7295844,7656292,2545,1842,-739,1842,1040,558,1483,4687,31,42,874
915749,7292780,7654204,7296041,7656489,2417,1734,-825,1827,1012,-268,1108,2928,24,34,870
916750,7292912,7654436,7296238,7656686,2546,1619,-931,1633,991,-1108,844,3334,24,34,870
917751,7293056,7654700,7296435,7656883,2494,1390,-916,1683,945,-1394,-321,6280,26,36,867
918752,7293212,7654864,7296632,7657080,2438,2029,-858,1707,799,-842,-126,4806,26,36,867
919753,7293388,7655148,7296829,7657277,2324,1242,-835,1726,590,-464,1243,4332,38,47,870
920754,7293536,7655476,7297026,7657474,2520,910,-777,1622,532,-884,-266,4149,38,47,870
921755,7293696,7655780,7297223,7657671,2462,1014,-624,1423,562,-221,-543,4884,38,70,869
922756,7293856,7656060,7297420,7657868,2480,1127,-516,1018,683,-546,-1565,3103,38,70,869
923766,7294012,7656356,7297650,7658098,2537,998,-439,605,832,-253,-1542,3839,31,51,873
924758,7294184,7656656,7297847,7658295,2449,929,-362,549,986,-252,-2492,4877,31,51,873
925759,7294352,7656884,7298044,7658492,2488,1365,-316,638,1130,-652,-2379,4293,37,46,873
926760,7294528,7657112,7298241,7658689,2447,1352,-274,790,1226,-1013,-3363,5454,37,46,873
927761,7294700,7657324,7298438,7658886,2484,1446,-228,819,1125,-85,-2436,5130,47,51,872
928762,7294880,7657564,7298635,7659083,2443,1252,-239,664,831,240,-899,5121,47,51,872
929763,7295044,7657788,7298832,7659280,2558,1340,-249,361,407,-473,-1230,5944,29,50,871
930764,7295208,7658016,7299029,7659477,2573,1302,-272,66,-105,-468,-1002,6032,29,50,871
931764,7295392,7658256,7299226,7659674,2454,1209,-378,-138,-569,-1510,-317,5848,47,52,872
932766,7295548,7658448,7299423,7659871,2648,1511,-568,-289,-938,-1925,138,5378,47,52,872
933766,7295700,7658680,7299620,7660068,2694,1245,-751,-160,-1183,-1094,-577,6713,27,35,871
934768,7295860,7658896,7299817,7660265,2660,1337,-764,156,-1251,-789,-1478,7919,27,35,871
935769,7296016,7659164,7300014,7660462,2704,982,-710,173,-1230,-125,-1595,5490,42,51,869
936770,7296160,7659428,7300211,7660659,2804,977,-622,-84,-1170,724,-2087,5234,42,51,869
937771,7296332,7659660,7300408,7660856,2641,1162,-365,-310,-1072,983,-3238,6375,25,50,870
938772,7296480,7659884,7300605,7661053,2812,1200,-87,-648,-1009,1090,-2615,4171,25,50,870
939773,7296624,7660076,7300802,7661250,2862,1403,120,-829,-950,928,-3105,4731,30,50,869
940774,7296768,7660264,7300999,7661447,2886,1432,261,-680,-921,853,-2594,5222,30,50,869
941775,7296944,7660480,7301196,7661644,2696,1249,309,-471,-958,182,-2515,4134,39,48,870
942776,7297116,7660688,7301393,7661841,2733,1294,367,-267,-1011,-340,-2582,5264,39,48,870
943777,7297304,7660872,7301590,7662038,2637,1451,452,-153,-1082,-515,-1322,4628,50,34,869
944778,7297496,7661052,7301787,7662235,2615,1483,499,-306,-1126,-1111,-1428,3796,50,34,869
945779,7297668,7661196,7301984,7662432,2752,1732,571,-537,-1203,-571,-1641,5194,29,25,870
946780,7297824,7661344,7302181,7662629,2871,1728,616,-791,-1343,-380,-977,4335,29,25,870
947781,7298004,7661512,7302378,7662826,2730,1616,593,-1004,-1548,448,-405,4669,38,26,870
948782,7298168,7661712,7302575,7663023,2844,1416,508,-1068,-1724,1098,-303,4960,38,26,870
949782,7298328,7661888,7302772,7663220,2886,1575,349,-1080,-1865,1530,-505,3907,33,28,865
950784,7298524,7662092,7302969,7663417,2663,1397,213,-871,-1947,1792,-205,5207,33,28,865
951784,7298700,7662256,7303166,7663614,2798,1661,76,-611,-1920,1401,-554,3630,31,42,867
952786,7298884,7662416,7303363,7663811,2755,1704,-27,-355,-1839,1667,-69,4300,31,42,867
953787,7299088,7662564,7303560,7664008,2628,1800,-84,-154,-1779,1933,-396,3914,29,22,870
954788,7299292,7662680,7303757,7664205,2626,2036,-115,-88,-1681,1067,-261,3544,29,22,870
955789,7299516,7662836,7303954,7664402,2489,1805,-78,-81,-1631,1706,-323,4145,54,34,868
956790,7299716,7662944,7304151,7664599,2638,2144,-36,-125,-1607,1553,-589,3677,54,34,868
957791,7299936,7663044,7304348,7664796,2504,2236,-5,-248,-1623,1571,217,3371,32,30,867
958792,7300148,7663152,7304545,7664993,2549,2226,16,-307,-1649,1365,56,3879,32,30,867
959793,7300356,7663288,7304742,7665190,2570,2078,3,-307,-1656,823,100,3364,54,31,867
960794,7300604,7663400,7304939,7665387,2299,2266,-49,-224,-1707,1488,287,3311,54,31,867
961795,7300848,7663520,7305136,7665584,2303,2251,-102,-61,-1721,941,373,3967,54,19,865
962796,7301072,7663652,7305333,7665781,2417,2204,-130,25,-1702,558,594,3336,54,19,865
963797,7301328,7663756,7305530,7665978,2192,2420,-138,-3,-1710,1125,-528,2987,58,28,867
964798,7301572,7663852,7305727,7666175,2247,2515,-46,-17,-1674,609,-260,3851,58,28,867
965799,7301808,7663940,7305924,7666372,2281,2613,71,-241,-1592,405,-287,2421,56,13,867
966800,7302096,7664028,7306121,7666569,1916,2662,192,-540,-1594,1463,45,2774,56,13,867
967801,7302348,7664128,7306318,7666766,2118,2630,303,-669,-1549,1069,-413,3352,41,13,866
968802,7302620,7664224,7306515,7666963,1961,2700,353,-696,-1438,742,20,2604,41,13,866
969803,7302916,7664340,7306712,7667160,1769,2611,329,-708,-1338,647,450,2494,62,15,867
970803,7303196,7664476,7306909,7667357,1832,2514,229,-597,-1298,755,-188,2947,62,15,867
971805,7303472,7664592,7307106,7667554,1823,2674,144,-342,-1298,714,-366,3644,68,15,865
972805,7303760,7664704,7307303,7667751,1709,2738,97,-248,-1332,575,10,2953,68,15,865
973806,7304080,7664796,7307500,7667948,1455,2909,67,-498,-1384,374,-873,2284,48,27,867
974807,7304356,7664928,7307697,7668145,1697,2688,149,-746,-1418,499,-670,3941,48,27,867
975809,7304648,7665044,7307894,7668342,1556,2825,207,-1079,-1401,114,-750,2591,61,32,867
976810,7304956,7665172,7308091,7668539,1407,2780,207,-1418,-1392,330,-55,2815,61,32,867
977811,7305228,7665288,7308288,7668736,1600,2892,154,-1563,-1345,217,-338,3238,53,24,867
978812,7305504,7665384,7308485,7668933,1542,3062,63,-1595,-1262,-366,-341,3151,53,24,867
979813,7305832,7665512,7308682,7669130,1159,2892,-26,-1616,-1231,-129,-455,3155,59,23,869
980814,7306092,7665620,7308879,7669327,1557,3058,-77,-1661,-1249,233,-540,3158,59,23,869
981814,7306392,7665760,7309076,7669524,1262,2884,-103,-1802,-1256,44,-555,3028,55,16,866
982815,7306688,7665880,7309273,7669721,1244,3042,-97,-2038,-1269,-184,-282,3056,55,16,866
983816,7306932,7665984,7309470,7669918,1549,3184,-75,-2311,-1304,-38,-222,3026,69,23,865
984818,7307220,7666116,7309667,7670115,1235,3039,-83,-2561,-1373,473,223,2662,69,23,865
985819,7307508,7666248,7309864,7670312,1195,3068,-120,-2714,-1380,-45,39,2817,66,16,867
986820,7307772,7666344,7310061,7670509,1316,3338,-184,-2772,-1343,16,-18,2820,66,16,867
987821,7308056,7666492,7310258,7670706,1153,3035,-226,-2753,-1311,205,-214,2667,51,24,867
988822,7308328,7666644,7310455,7670903,1195,3031,-230,-2705,-1294,67,-342,3208,51,24,867
989823,7308560,7666760,7310652,7671100,1431,3293,-161,-2698,-1288,292,-552,2997,58,37,864
990823,7308808,7666884,7310849,7671297,1308,3276,-63,-2851,-1239,82,-228,2623,58,37,864
991825,7309044,7667056,7311046,7671494,1367,2987,35,-3083,-1184,26,43,2790,55,30,867
992826,7309280,7667240,7311243,7671691,1350,2919,121,-3320,-1150,79,69,2228,55,30,867
993827,7309512,7667412,7311440,7671888,1360,3005,147,-3407,-1111,140,294,3237,54,38,864
994828,7309776,7667568,7311637,7672085,1131,3125,180,-3329,-1055,69,639,3119,54,38,864
995829,7310036,7667736,7311834,7672282,1129,3063,114,-3389,-1040,535,817,2783,47,29,867
996830,7310252,7667928,7312031,7672479,1395,2916,90,-3319,-1030,438,789,3799,47,29,867
997831,7310496,7668128,7312228,7672676,1201,2866,79,-3416,-942,-119,42,3024,57,34,867
998831,7310728,7668336,7312425,7672873,1260,2811,125,-3519,-891,848,335,3820,57,34,867
999833,7310988,7668552,7312622,7673070,1058,2754,149,-3742,-885,853,343,3037,38,34,868
1000834,7311232,7668724,7312819,7673267,1138,3041,157,-3929,-844,290,767,3556,38,34,868
1001835,7311472,7668924,7313016,7673464,1144,2866,141,-4034,-805,615,567,3767,57,48,869
1002836,7311716,7669128,7313213,7673661,1098,2839,80,-4095,-728,400,251,3405,57,48,869
1003837,7311956,7669344,7313410,7673858,1105,2756,15,-3827,-650,815,583,5252,55,36,869
1004838,7312192,7669564,7313607,7674055,1113,2722,-129,-3599,-625,1118,141,3539,55,36,869
1005839,7312416,7669784,7313804,7674252,1176,2712,-268,-3351,-510,130,639,4127,56,52,869
1006846,7312640,7669980,7314034,7674482,1179,2878,-334,-3145,-379,775,356,4981,56,52,869
1007841,7312888,7670188,7314231,7674679,1008,2799,-340,-2998,-313,1301,252,4482,32,50,871
1008842,7313092,7670408,7314428,7674876,1280,2715,-365,-3058,-268,1559,432,3772,32,50,871
1009843,7313300,7670612,7314625,7675073,1250,2813,-372,-3080,-208,1649,3,4682,44,49,869
1010844,7313512,7670820,7314822,7675270,1218,2784,-384,-3092,-139,1234,349,4397,44,49,869
1011845,7313712,7671044,7315019,7675467,1293,2673,-441,-3120,-81,1282,810,3875,51,43,870
1012846,7313884,7671252,7315216,7675664,1479,2768,-488,-3036,-13,1450,347,4926,51,43,870
1013847,7314072,7671460,7315413,7675861,1383,2765,-463,-2857,15,2115,-202,5641,27,47,869
1014847,7314260,7671680,7315610,7676058,1387,2680,-419,-2826,26,2128,-822,4517,27,47,869
1015848,7314432,7671892,7315807,7676255,1499,2725,-348,-2698,66,2115,-463,6321,40,50,867
1016850,7314608,7672064,7316004,7676452,1483,2987,-304,-2600,165,1547,-684,5050,40,50,867
1017850,7314820,7672280,7316201,7676649,1251,2704,-351,-2585,321,1103,-407,4718,40,37,868
1018851,7314976,7672496,7316398,7676846,1620,2696,-406,-2446,487,1310,-1107,5412,40,37,868
1019852,7315144,7672708,7316595,7677043,1558,2716,-437,-2291,588,1310,-651,5458,42,51,867
1020853,7315324,7672920,7316792,7677240,1491,2710,-447,-2259,694,805,-557,4949,42,51,867
1021854,7315484,7673120,7316989,7677437,1632,2785,-424,-2383,793,939,-668,5148,28,50,869
1022855,7315640,7673332,7317186,7677634,1676,2704,-407,-2482,882,601,-1145,5076,28,50,869
1023856,7315832,7673524,7317383,7677831,1453,2832,-393,-2582,935,666,-975,4652,25,32,869
1024858,7316004,7673720,7317580,7678028,1589,2808,-388,-2561,947,1010,-1241,5664,25,32,869
1025859,7316148,7673888,7317777,7678225,1788,2996,-401,-2417,989,916,-1317,5440,26,27,868
1026860,7316312,7674076,7317974,7678422,1678,2876,-467,-2303,1067,943,-1673,4948,26,27,868
1027861,7316452,7674264,7318171,7678619,1853,2881,-496,-2106,1137,1005,-1337,5989,42,31,866
1028862,7316608,7674428,7318368,7678816,1771,3047,-490,-2063,1247,622,-2293,4678,42,31,866
1029863,7316788,7674600,7318565,7679013,1629,3009,-473,-2144,1337,788,-1368,4701,28,44,866
1030864,7316980,7674764,7318762,7679210,1557,3073,-409,-2341,1408,486,-1658,4112,28,44,866
1031864,7317124,7674972,7318959,7679407,1880,2794,-302,-2379,1417,1123,-1273,5422,44,30,864
1032866,7317284,7675144,7319156,7679604,1797,3031,-192,-2381,1430,965,-1224,4546,44,30,864
1033867,7317492,7675320,7319353,7679801,1492,3017,-149,-2331,1463,1051,-914,4693,38,29,864
1034868,7317676,7675472,7319550,7679998,1649,3187,-127,-2214,1508,595,-1601,4531,38,29,864
1035869,7317856,7675644,7319747,7680195,1682,3074,-62,-2011,1582,-188,-1133,5088,34,25,865
1036870,7318036,7675796,7319944,7680392,1689,3219,-54,-1939,1652,251,-1580,3808,34,25,865
1037870,7318212,7675968,7320141,7680589,1724,3106,-2,-1852,1696,586,-1374,4815,37,24,864
1038871,7318368,7676112,7320338,7680786,1867,3306,108,-1729,1613,1386,-1387,4886,37,24,864
1039872,7318556,7676296,7320535,7680983,1671,3062,235,-1878,1515,607,-980,3779,25,27,862
1040874,7318748,7676456,7320732,7681180,1649,3229,360,-2034,1414,1219,-1267,4351,25,27,862
1041875,7318924,7676616,7320929,7681377,1759,3247,457,-2058,1384,614,-1324,4749,47,23,862
1042876,7319124,7676760,7321126,7681574,1607,3371,499,-2018,1328,1382,-1478,3720,47,23,862
1043877,7319320,7676952,7321323,7681771,1634,3074,494,-1907,1363,175,-1494,4657,49,40,864
1044878,7319504,7677088,7321520,7681968,1714,3452,495,-1631,1419,175,-1434,4715,49,40,864
1045879,7319712,7677248,7321717,7682165,1561,3319,501,-1428,1410,700,-1097,4458,49,31,864
1046880,7319892,7677412,7321914,7682362,1743,3310,486,-1382,1377,526,-1620,3867,49,31,864
1047880,7320088,7677548,7322111,7682559,1644,3512,467,-1502,1356,124,-1006,3493,44,31,862
1048882,7320308,7677728,7322308,7682756,1484,3245,512,-1502,1323,212,-632,5019,44,31,862
1049883,7320492,7677884,7322505,7682953,1715,3414,545,-1408,1272,-50,-642,4215,51,25,861
1050884,7320672,7678052,7322702,7683150,1749,3353,519,-1346,1244,-221,-591,4322,51,25,861
1051885,7320844,7678220,7322899,7683347,1810,3367,457,-1216,1247,-468,-752,4634,34,28,863
1052886,7321036,7678388,7323096,7683544,1687,3380,428,-1119,1269,-754,-696,4650,34,28,863
1053887,7321204,7678532,7323293,7683741,1851,3555,415,-1087,1332,-934,-906,4304,25,30,862
1054888,7321368,7678688,7323490,7683938,1890,3499,362,-1220,1422,-1111,-371,3056,25,30,862
1055888,7321572,7678836,7323687,7684135,1638,3571,290,-1154,1450,75,754,4272,25,23,862
1056890,7321744,7679036,7323884,7684332,1849,3246,164,-1053,990,5049,1659,2957,25,23,862
1057891,7321896,7679224,7324081,7684529,1994,3326,137,-748,707,1295,-940,5520,50,29,861
1058892,7322084,7679404,7324278,7684726,1774,3384,244,-517,810,-1290,32,4535,50,29,861
1059892,7322236,7679592,7324475,7684923,2018,3339,278,-716,904,165,449,2367,32,39,862
1060894,7322388,7679764,7324672,7685120,2039,3451,293,-1066,849,1117,181,3058,32,39,862
1061894,7322560,7679928,7324869,7685317,1925,3517,321,-1135,808,785,-610,4877,34,42,861
1062895,7322696,7680092,7325066,7685514,2177,3532,350,-1058,809,338,-261,3864,34,42,861
1063896,7322828,7680252,7325263,7685711,2232,3574,336,-961,852,-54,-227,4249,43,32,860
1064898,7323008,7680408,7325460,7685908,1939,3618,257,-895,824,820,-33,3590,43,32,860
1065899,7323176,7680572,7325657,7686105,2028,3585,161,-677,797,798,56,4766,45,22,858
1066900,7323344,7680740,7325854,7686302,2041,3574,30,-389,820,582,302,4112,45,22,858
1067901,7323492,7680884,7326051,7686499,2188,3748,-99,-273,901,-42,184,3089,27,20,859
1068914,7323644,7681012,7326248,7686696,2183,3800,-162,-251,1027,-901,103,3657,27,20,859
1069915,7323804,7681156,7326445,7686893,2150,3800,-143,-286,1074,-316,296,3610,28,34,859
1070916,7323968,7681296,7326642,7687090,2140,3800,-155,-464,929,864,32,2894,28,34,859
1071917,7324116,7681440,7326839,7687287,2262,3800,-154,-453,841,-72,663,4927,25,22,854
1072918,7324272,7681588,7327036,7687484,2230,3800,-183,-448,895,-408,-506,3517,25,22,854
1073919,7324412,7681712,7327233,7687681,2356,3800,-186,-533,899,766,-222,3741,41,17,856
1074920,7324556,7681860,7327430,7687878,2354,3800,-122,-598,921,118,-289,4624,41,17,856
1075921,7324696,7681992,7327627,7688075,2406,3800,-139,-777,884,937,-105,2632,43,34,855
1076910,7324816,7682172,7327824,7688272,2564,3746,-210,-883,854,443,264,3754,43,34,855
1077923,7324964,7682316,7328021,7688469,2412,3800,-263,-893,927,-385,-799,3653,41,20,854
1078924,7325084,7682472,7328218,7688666,2622,3800,-285,-907,961,684,-874,3779,41,20,854
1079925,7325216,7682616,7328415,7688863,2575,3800,-293,-971,967,849,-108,3339,36,22,854
1080926,7325364,7682764,7328612,7689060,2498,3800,-316,-1009,1021,570,97,3629,36,22,854
1081927,7325484,7682920,7328809,7689257,2707,3800,-335,-964,1098,640,534,3827,30,40,851
1082928,7325636,7683108,7329006,7689454,2527,3800,-380,-1037,1208,105,-181,2611,30,40,851
1083916,7325788,7683328,7329203,7689651,2548,3602,-383,-1081,1333,-202,-1527,3573,23,49,854
1084917,7325924,7683564,7329400,7689848,2675,3486,-292,-994,1383,191,-455,4640,23,49,854
1085919,7326072,7683784,7329597,7690045,2623,3577,-220,-973,1384,120,392,3192,38,40,855
1086919,7326212,7683996,7329794,7690242,2699,3622,-238,-1073,1411,361,-177,2785,38,40,855
1087920,7326344,7684268,7329991,7690439,2777,3215,-262,-1130,1418,1245,-368,3347,29,52,856
1088922,7326488,7684556,7330188,7690636,2726,3076,-280,-1175,1502,96,-583,2819,29,52,856
1089930,7326656,7684844,7330418,7690866,2605,3052,-256,-1189,1617,-250,263,3303,24,44,856
1090924,7326844,7685140,7330615,7691063,2485,2959,-225,-1250,1677,453,671,3059,24,44,856
1091925,7327028,7685412,7330812,7691260,2515,3077,-216,-1293,1755,313,-167,2915,44,63,860
1092926,7327216,7685748,7331009,7691457,2495,2617,-213,-1170,1804,453,-589,4151,44,63,860
1093927,7327380,7686124,7331206,7691654,2661,2291,-208,-1029,1837,310,-1853,3592,39,62,861
1094928,7327556,7686456,7331403,7691851,2595,2507,-202,-944,1797,740,-1445,3565,39,62,861
1095928,7327716,7686764,7331600,7692048,2712,2610,-159,-816,1838,-470,903,4096,36,71,864
1096930,7327920,7687036,7331797,7692245,2435,2803,-204,-1043,1833,1184,944,1285,36,71,864
1097931,7328108,7687408,7331994,7692442,2540,2102,-255,-1237,1730,2294,-230,2757,50,76,865
1098932,7328312,7687812,7332191,7692639,2437,1812,-164,-1115,1712,565,-923,4869,50,76,865
1099933,7328508,7688140,7332388,7692836,2489,2230,-16,-881,1860,-1081,-908,3898,53,79,864
1100934,7328672,7688448,7332585,7693033,2704,2306,34,-775,1956,456,-482,3224,53,79,864
1101935,7328848,7688800,7332782,7693230,2639,1964,27,-714,1821,2393,-468,3483,49,59,870
1102936,7329044,7689176,7332979,7693427,2515,1737,-9,-692,1646,1650,-593,2991,49,59,870
1103936,7329248,7689480,7333176,7693624,2463,2141,24,-709,1597,519,-190,2940,32,61,864
1104937,7329456,7689844,7333373,7693821,2434,1693,68,-730,1643,39,322,2611,32,61,864
1105938,7329672,7690212,7333570,7694018,2376,1593,96,-763,1659,898,-364,2448,43,76,867
1106940,7329872,7690572,7333767,7694215,2475,1572,120,-505,1633,914,-955,4315,43,76,867
1107940,7330040,7690896,7333964,7694412,2689,1743,166,-188,1598,272,-1047,3653,37,56,870
1108942,7330248,7691232,7334161,7694609,2435,1608,210,-28,1455,1519,-686,2956,37,56,870
1109942,7330476,7691624,7334358,7694806,2297,1172,156,-19,1286,1709,-642,2211,34,58,870
1110944,7330708,7691956,7334555,7695003,2257,1489,70,-29,1211,1246,-691,2071,34,58,870
1111944,7330928,7692280,7334752,7695200,2323,1483,118,189,1254,194,-476,3678,37,70,871
1112946,7331168,7692572,7334949,7695397,2180,1642,198,330,1315,90,-647,2367,37,70,871
1113947,7331408,7692928,7335146,7695594,2161,1172,224,413,1207,1931,-293,2438,46,69,872
1114948,7331636,7693300,7335343,7695791,2224,996,264,642,1012,2346,-17,3625,46,69,872
1115948,7331888,7693688,7335540,7695988,2050,812,252,996,1058,1112,-1097,3368,44,68,871
1116949,7332136,7693980,7335737,7696185,2054,1371,85,1086,1226,1450,-907,953,44,68,871
1117950,7332404,7694364,7335934,7696382,1898,714,-20,1300,1270,1416,291,3294,63,61,875
1118951,7332668,7694748,7336131,7696579,1894,633,107,1719,1131,1408,351,4162,63,61,875
1119952,7332900,7695088,7336328,7696776,2080,845,297,1824,903,1035,306,1703,61,58,874
1120954,7333124,7695408,7336525,7696973,2118,916,387,1802,701,1485,312,1744,61,58,874
1121954,7333360,7695804,7336722,7697170,2027,355,368,2107,552,2489,584,3513,53,56,877
1122956,7333636,7696168,7336919,7697367,1743,481,273,2509,534,1415,-1147,2498,53,56,877
1123957,7333856,7696500,7337116,7697564,2083,622,249,2651,579,409,-911,1816,49,68,876
1124958,7334128,7696764,7337313,7697761,1726,1018,366,2762,553,1143,-503,3071,49,68,876
1125958,7334344,7697096,7337510,7697958,2068,534,567,2969,479,1508,-1157,3462,59,62,879
1126959,7334564,7697476,7337707,7698155,2034,154,674,3181,451,1641,-521,2971,59,62,879
1127960,7334828,7697760,7337904,7698352,1730,716,658,3368,521,1433,171,2375,44,55,876
1128962,7335112,7698016,7338101,7698549,1567,865,566,3328,636,1200,-1112,1196,44,55,876
1129962,7335396,7698260,7338298,7698746,1530,919,472,3327,695,1743,-1784,2265,48,45,879
1130964,7335672,7698488,7338495,7698943,1545,1005,512,3474,773,747,-1878,4014,48,45,879
1131965,7335940,7698704,7338692,7699140,1565,1072,626,3549,797,431,-310,3958,61,44,879
1132966,7336184,7698964,7338889,7699337,1694,769,596,3036,788,31,-624,707,61,44,879
1133966,7336508,7699148,7339086,7699534,1139,1250,601,2653,829,-296,-1444,4610,55,37,878
1134967,7336816,7699324,7339283,7699731,1191,1309,762,2436,840,-206,-935,4770,55,37,878
1135968,7337100,7699500,7339480,7699928,1303,1320,867,1900,880,-1157,-906,2972,45,45,879
1136970,7337352,7699704,7339677,7700125,1479,1142,965,1420,966,-1150,-1127,4502,45,45,879
1137970,7337676,7699948,7339874,7700322,974,871,1019,1034,973,-640,-774,4309,47,43,877
1138972,7337948,7700152,7340071,7700519,1266,1118,934,847,960,-825,-1161,4326,47,43,877
1139972,7338204,7700340,7340268,7700716,1342,1222,822,866,955,-525,-1334,5155,52,45,878
1140974,7338492,7700520,7340465,7700913,1102,1279,654,888,863,60,414,4639,52,45,878
1141974,7338720,7700680,7340662,7701110,1463,1420,484,519,768,-226,-463,3719,58,34,879
1142976,7338996,7700820,7340859,7701307,1129,1571,456,36,585,556,-1091,5866,58,34,879
1143976,7339260,7701020,7341056,7701504,1175,1194,388,-330,341,629,-913,5007,55,43,879
1144978,7339504,7701264,7341253,7701701,1279,899,216,-423,193,-273,1132,4746,55,43,879
1145979,7339728,7701468,7341450,7701898,1393,1145,126,-579,101,-77,1519,4943,58,45,878
1146980,7339964,7701692,7341647,7702095,1301,1009,160,-1382,-15,617,27,4059,58,45,878
1147981,7340200,7701888,7341844,7702292,1284,1184,355,-2554,-160,1260,-711,4185,46,30,879
1148981,7340428,7702104,7342041,7702489,1321,1052,433,-3660,-285,1174,-333,5030,46,30,879
1149982,7340616,7702276,7342238,7702686,1575,1338,347,-4148,-373,559,-517,5217,49,29,878
1150983,7340844,7702480,7342435,7702883,1312,1135,74,-4242,-480,689,63,5000,49,29,878
1151984,7341028,7702708,7342632,7703080,1593,971,-265,-3976,-622,1431,18,5232,50,44,879
1152985,7341224,7702892,7342829,7703277,1519,1252,-612,-3701,-742,1299,167,4291,50,44,879
1153986,7341396,7703100,7343026,7703474,1680,1097,-927,-3417,-772,881,-472,4823,43,32,879
1154987,7341564,7703288,7343223,7703671,1718,1226,-1078,-3180,-775,1250,551,5391,43,32,879
1155989,7341732,7703460,7343420,7703868,1731,1337,-1202,-3180,-832,2394,744,3467,24,37,877
1156990,7341904,7703596,7343617,7704065,1717,1589,-1353,-3244,-966,3372,-29,3653,24,37,877
1157991,7342060,7703740,7343814,7704262,1835,1562,-1422,-3089,-1071,3383,1124,5264,25,26,876
1158992,7342232,7703860,7344011,7704459,1747,1746,-1485,-2905,-1098,3238,1207,4204,25,26,876
1159993,7342404,7704064,7344208,7704656,1758,1218,-1543,-2834,-1043,2984,1043,3966,44,38,874
1160994,7342596,7704264,7344405,7704853,1635,1242,-1523,-2867,-927,2962,-644,4074,44,38,874
1161995,7342764,7704448,7344602,7705050,1799,1348,-1437,-2883,-862,3269,896,4472,45,29,874
1162996,7342964,7704604,7344799,7705247,1598,1541,-1400,-2812,-791,2663,927,4040,45,29,874
1163997,7343144,7704744,7344996,7705444,1730,1666,-1425,-2548,-660,2499,798,4464,24,35,877
1164998,7343312,7704876,7345193,7705641,1819,1745,-1456,-2231,-580,3861,1153,4435,24,35,877
1165999,7343492,7705020,7345390,7705838,1752,1693,-1444,-2084,-570,4465,608,3524,24,35,875
1167000,7343684,7705168,7345587,7706035,1680,1690,-1414,-2103,-517,3882,427,3496,24,35,875
1168001,7343860,7705300,7345784,7706232,1789,1818,-1351,-2059,-405,3877,55,3841,27,34,873
1169002,7344060,7705440,7345981,7706429,1638,1794,-1297,-1958,-200,2806,-401,3840,27,34,873
1170003,7344260,7705592,7346178,7706626,1637,1739,-1259,-1759,-24,2968,-97,3907,26,34,873
1171004,7344464,7705712,7346375,7706823,1609,1973,-1248,-1451,86,3097,-855,4416,26,34,873
1172005,7344660,7705864,7346572,7707020,1660,1793,-1203,-1005,179,2783,-797,5498,49,18,873
1173013,7344856,7705996,7346802,7707250,1676,1961,-1018,-433,195,3787,-1472,6863,49,18,873
1174007,7345036,7706100,7346999,7707447,1783,2177,-718,243,161,4380,-820,7831,34,15,873
1175008,7345224,7706196,7347196,7707644,1737,2272,-530,744,154,4191,-593,5678,34,15,873
1176009,7345448,7706312,7347393,7707841,1501,2182,-541,943,291,2247,-572,4048,45,15,872
1177010,7345656,7706440,7347590,7708038,1596,2139,-569,1002,566,997,-665,4151,45,15,872
1178011,7345860,7706560,7347787,7708235,1619,2223,-457,1096,814,1597,-1563,4761,27,16,870
1179012,7346064,7706676,7347984,7708432,1616,2283,-218,1339,948,2393,-1837,5929,27,16,870
1180013,7346252,7706780,7348181,7708629,1720,2399,60,1625,962,2941,-2315,6254,35,23,872
1181014,7346468,7706884,7348378,7708826,1538,2441,255,1731,882,3028,-1252,4914,35,23,872
1182015,7346712,7707000,7348575,7709023,1342,2402,299,1618,898,1698,-1770,3768,43,27,869
1183016,7346932,7707136,7348772,7709220,1482,2304,191,973,1072,419,-2221,811,43,27,869
1184017,7347136,7707248,7348969,7709417,1580,2492,202,413,1287,572,-2473,4363,40,13,870
1185018,7347376,7707352,7349166,7709614,1336,2583,328,34,1446,646,-3127,4475,40,13,870
1186019,7347600,7707472,7349363,7709811,1424,2517,353,-321,1508,557,-2395,3716,35,26,871
1187020,7347776,7707588,7349560,7710008,1734,2578,331,-493,1516,956,-2589,5600,35,26,871
1188021,7347992,7707728,7349757,7710205,1476,2454,358,-405,1470,1003,-1978,6662,27,21,869
1189022,7348196,7707840,7349954,7710402,1548,2666,319,-463,1228,1118,-1273,4596,27,21,869
1190023,7348404,7707996,7350151,7710599,1519,2410,205,-623,958,116,-585,4948,34,35,868
1191024,7348628,7708144,7350348,7710796,1407,2482,86,-519,793,-230,-827,5934,34,35,868
1192025,7348904,7708316,7350545,7710993,1048,2344,-65,-320,745,-657,-1411,4590,33,34,867
1193026,7349152,7708492,7350742,7711190,1201,2328,-252,-185,633,177,-44,4029,33,34,867
1194027,7349344,7708664,7350939,7711387,1553,2365,-364,17,471,479,-68,5263,50,39,869
1195028,7349572,7708856,7351136,7711584,1315,2242,-416,-37,299,796,618,3563,50,39,869
1196028,7349760,7709044,7351333,7711781,1570,2272,-499,-52,235,783,670,3670,42,29,873
1197030,7349960,7709216,7351530,7711978,1493,2383,-546,-92,260,1067,164,3621,42,29,873
1198031,7350176,7709432,7351727,7712175,1385,2101,-581,-258,257,1704,681,2680,26,35,873
1199031,7350380,7709708,7351924,7712372,1458,1691,-654,-596,153,2452,1196,1566,26,35,873
1200032,7350584,7709960,7352121,7712569,1455,1818,-711,-660,80,2119,537,3014,34,49,871
1201034,7350784,7710188,7352318,7712766,1479,1954,-740,-458,136,1646,-1244,3022,34,49,871
1202035,7350984,7710440,7352515,7712963,1477,1781,-699,-151,203,2006,296,3537,33,53,875
1203036,7351172,7710704,7352712,7713160,1557,1677,-578,154,416,-165,-434,3814,33,53,875
1204036,7351376,7710964,7352909,7713357,1454,1675,-402,114,589,671,-533,3071,37,44,873
1205038,7351576,7711256,7353106,7713554,1478,1433,-250,-154,536,2020,-70,2766,37,44,873
1206039,7351760,7711500,7353303,7713751,1585,1714,-172,-537,419,1261,777,2327,28,45,875
1207040,7351956,7711752,7353500,7713948,1510,1640,-91,-797,390,427,719,3608,28,45,875
1208040,7352136,7711984,7353697,7714145,1617,1750,-15,-945,356,303,965,3186,25,43,877
1209042,7352308,7712224,7353894,7714342,1678,1681,-17,-949,225,801,883,3478,25,43,877
1210043,7352460,7712452,7354091,7714539,1824,1743,-24,-683,57,867,1031,4737,34,40,875
1211044,7352652,7712708,7354288,7714736,1576,1543,-70,-544,12,-308,193,3235,34,40,875
1212045,7352796,7712956,7354485,7714933,1900,1570,-58,-447,-26,189,69,4020,36,55,875
1213046,7352956,7713164,7354682,7715130,1817,1815,66,-259,-144,231,893,5215,36,55,875
1214047,7353144,7713392,7354879,7715327,1646,1678,139,-220,-281,386,-256,2924,41,44,874
1215048,7353332,7713608,7355076,7715524,1650,1744,91,-368,-333,263,-151,2646,41,44,874
1216048,7353492,7713848,7355273,7715721,1842,1577,3,-575,-209,220,-544,3107,40,36,872
1217050,7353672,7714060,7355470,7715918,1725,1745,-30,-703,56,501,-1292,3459,40,36,872
1218050,7353840,7714248,7355667,7716115,1812,1899,79,-616,328,1110,-592,4748,32,46,874
1219052,7353996,7714424,7355864,7716312,1906,1984,230,-360,533,2066,-531,5200,32,46,874
1220052,7354160,7714576,7356061,7716509,1871,2154,259,-73,699,2528,-1073,4368,23,40,874
1221054,7354308,7714748,7356258,7716706,1992,2040,159,264,938,2100,-1432,4410,23,40,874
1222055,7354484,7714924,7356455,7716903,1828,2025,61,697,1174,2186,-1233,4849,31,25,871
1223056,7354656,7715080,7356652,7717100,1864,2168,21,1033,1366,1882,-1509,4862,31,25,871
1224057,7354832,7715248,7356849,7717297,1849,2107,56,1239,1523,1531,-1231,4760,28,31,870
1225058,7355008,7715396,7357046,7717494,1858,2253,81,1288,1761,558,-1260,4167,28,31,870
1226059,7355188,7715572,7357243,7717691,1841,2088,-28,1053,1885,1455,-590,1803,28,20,869
1227060,7355328,7715724,7357440,7717888,2117,2258,-105,942,1945,990,-662,4159,28,20,869
1228061,7355476,7715876,7357637,7718085,2088,2278,-122,1015,2013,528,-1184,4701,36,21,870
1229062,7355612,7716012,7357834,7718282,2191,2406,-234,1029,2043,270,-510,3308,36,21,870
1230063,7355772,7716168,7358031,7718479,2057,2299,-393,1119,2051,-56,-619,4245,28,37,868
1231064,7355908,7716340,7358228,7718676,2234,2210,-482,1298,2027,-261,48,5095,28,37,868
1232065,7356012,7716544,7358425,7718873,2476,2008,-587,1450,2001,-474,-566,3786,31,40,867
1233066,7356172,7716744,7358622,7719070,2142,2032,-659,1480,1979,-269,-713,4099,31,40,867
1234067,7356360,7716952,7358819,7719267,1972,1978,-636,1493,2016,-544,-453,4318,47,32,868
1235068,7356532,7717156,7359016,7719464,2083,2000,-553,1356,2090,-506,-574,3359,47,32,868
1236069,7356716,7717360,7359213,7719661,2015,1998,-408,1239,2103,446,-299,4630,46,47,868
1237070,7356880,7717588,7359410,7719858,2154,1834,-312,1188,2063,124,35,3853,46,47,868
1238070,7357048,7717872,7359607,7720055,2143,1446,-290,1084,2062,-348,78,3566,31,55,869
1239072,7357224,7718112,7359804,7720252,2102,1703,-254,1140,2082,-240,-1238,4314,31,55,869
1240072,7357372,7718376,7360001,7720449,2300,1523,-198,1272,2034,114,301,4317,27,47,871
1241074,7357508,7718716,7360198,7720646,2402,987,-231,1285,2028,-459,263,3086,27,47,871
1242075,7357708,7718936,7360395,7720843,2001,1727,-276,1268,2111,-851,-752,3933,33,55,872
1243076,7357852,7719092,7360592,7721040,2375,2145,-224,1245,2179,-811,-1016,4409,33,55,872
1244076,7357988,7719292,7360789,7721237,2452,1869,-187,1102,2159,-744,-1411,3945,45,40,873
1245077,7358136,7719492,7360986,7721434,2399,1868,-67,964,2027,-276,-283,4843,45,40,873
1246079,7358260,7719704,7361183,7721631,2582,1787,23,925,1839,-85,1067,4877,25,45,867
1247080,7358388,7719956,7361380,7721828,2587,1513,-90,678,1661,-989,1211,2117,25,45,867
1248081,7358524,7720216,7361577,7722025,2565,1435,-200,567,1499,-1232,590,5178,18,39,867
1249082,7358672,7720416,7361774,7722222,2512,1810,-176,741,1394,-1407,-394,6162,18,39,867
1250083,7358824,7720724,7361971,7722419,2507,1086,-161,712,1358,-1209,153,3771,36,60,870
1251084,7358976,7721032,7362168,7722616,2528,1038,-205,589,1416,-449,-1263,4079,36,60,870
1252084,7359120,7721336,7362365,7722813,2602,1017,-151,506,1445,678,-2520,5262,40,61,869
1253086,7359280,7721612,7362562,7723010,2519,1157,24,463,1522,-53,-3057,5385,40,61,869
1254087,7359420,7721912,7362759,7723207,2670,962,183,169,1653,-324,-1890,3343,43,52,872
1255088,7359588,7722228,7362956,7723404,2508,809,253,-94,1789,-557,-1376,4278,43,52,872
1256098,7359732,7722492,7363186,7723634,2696,1120,271,-157,1894,-756,-2889,4643,44,60,871
1257090,7359896,7722704,7363383,7723831,2586,1439,288,-181,1806,-22,-2203,4959,44,60,871
1258091,7360056,7722928,7363580,7724028,2628,1352,236,-331,1481,-110,-1430,4198,39,50,872
1259092,7360212,7723176,7363777,7724225,2672,1179,190,-410,1043,52,-18,5859,39,50,872
1260093,7360376,7723400,7363974,7724422,2637,1318,159,-385,520,253,-260,6164,25,40,869
1261093,7360552,7723648,7364171,7724619,2572,1146,72,-267,-71,-470,-72,6297,25,40,869
1262095,7360724,7723872,7364368,7724816,2609,1284,-108,31,-519,-1498,293,6319,35,36,871
1263095,7360888,7724080,7364565,7725013,2674,1380,-364,299,-824,-718,401,5371,35,36,871
1264097,7361072,7724312,7364762,7725210,2555,1214,-490,488,-982,-809,-475,5797,27,50,871
1265098,7361228,7724568,7364959,7725407,2749,1038,-401,522,-1011,-273,-703,6014,27,50,871
1266099,7361388,7724840,7365156,7725604,2741,905,-228,350,-954,624,-991,4940,37,41,869
1267100,7361560,7725076,7365353,7725801,2677,1114,-36,79,-742,164,-1719,4699,37,41,869
1268100,7361740,7725304,7365550,7725998,2636,1150,198,-176,-519,814,-1829,4639,34,55,871
1269102,7361904,7725484,7365747,7726195,2751,1458,429,-364,-428,1853,-2453,4222,34,55,871
1270103,7362060,7725676,7365944,7726392,2820,1385,645,-466,-449,2155,-2380,4614,25,34,868
1271104,7362232,7725880,7366141,7726589,2731,1307,805,-351,-503,1600,-2215,4723,25,34,868
1272104,7362400,7726120,7366338,7726786,2770,1063,814,-249,-490,-86,-1991,3404,31,50,869
1273106,7362576,7726316,7366535,7726983,2730,1339,724,-64,-532,137,-2055,4337,31,50,869
1274107,7362784,7726500,7366732,7727180,2526,1420,625,267,-736,612,-965,5184,35,43,870
1275108,7362948,7726692,7366929,7727377,2816,1373,485,403,-948,-876,43,3768,35,43,870
1276109,7363140,7726872,7367126,7727574,2644,1455,332,302,-1174,-799,367,4231,35,46,870
1277109,7363336,7727044,7367323,7727771,2621,1516,242,172,-1422,-489,55,5247,35,46,870
1278111,7363520,7727236,7367520,7727968,2702,1393,150,4,-1609,-187,-350,4387,28,30,869
1279112,7363700,7727436,7367717,7728165,2735,1342,90,-129,-1752,1368,-653,5019,28,30,869
1280113,7363880,7727620,7367914,7728362,2743,1448,35,-274,-1870,1961,-221,4464,48,38,868
1281114,7364068,7727784,7368111,7728559,2698,1587,-78,-402,-1865,804,238,3387,48,38,868
1282114,7364264,7727952,7368308,7728756,2650,1576,-188,-364,-1748,803,324,4255,41,36,868
1283115,7364496,7728088,7368505,7728953,2409,1803,-277,-187,-1631,1625,-433,3830,41,36,868
1284116,7364700,7728224,7368702,7729150,2582,1829,-302,-36,-1575,2154,-650,3808,34,33,869
1285117,7364904,7728352,7368899,7729347,2580,1910,-251,-48,-1518,1340,1,3795,34,33,869
1286118,7365144,7728460,7369096,7729544,2337,2074,-142,-72,-1430,875,-835,4178,49,31,870
1287120,7365360,7728580,7369293,7729741,2479,2034,5,-145,-1440,1575,92,3194,49,31,870
1288120,7365568,7728704,7369490,7729938,2525,2041,12,-125,-1450,533,-654,3865,40,16,867
1289122,7365792,7728824,7369687,7730135,2414,2100,40,-41,-1446,356,-169,4210,40,16,867
1290123,7366040,7728944,7369884,7730332,2243,2133,26,-5,-1476,333,570,3181,55,17,868
1291124,7366252,7729088,7370081,7730529,2461,2007,-42,-29,-1503,134,460,3107,55,17,868
1292125,7366472,7729196,7370278,7730726,2402,2272,-84,-44,-1529,144,-5,3744,43,29,866
1293126,7366732,7729292,7370475,7730923,2125,2391,-81,-206,-1527,-115,-222,3086,43,29,866
1294126,7366948,7729408,7370672,7731120,2393,2302,-34,-472,-1493,-284,-886,3196,39,29,868
1295128,7367200,7729500,7370869,7731317,2144,2499,67,-681,-1566,1305,-694,3774,39,29,868
1296129,7367480,7729588,7371066,7731514,1933,2572,152,-865,-1607,977,-676,3437,36,28,867
1297130,7367720,7729688,7371263,7731711,2165,2540,170,-965,-1551,657,-529,3198,36,28,867
1298131,7367976,7729792,7371460,7731908,2040,2556,104,-913,-1527,1460,-148,3570,57,20,867
1299132,7368272,7729888,7371657,7732105,1747,2651,-1,-803,-1457,394,-69,2837,57,20,867
1300133,7368540,7730036,7371854,7732302,1892,2348,-114,-696,-1398,699,-190,3116,43,30,866
1301134,7368808,7730136,7372051,7732499,1861,2691,-137,-550,-1393,879,-511,3522,43,30,866
1302134,7369112,7730252,7372248,7732696,1590,2627,-99,-645,-1382,125,-388,2659,62,29,867
1303136,7369368,7730360,7372445,7732893,1864,2717,-9,-956,-1342,-226,-400,2435,62,29,867
1304137,7369644,7730456,7372642,7733090,1705,2836,116,-1341,-1327,418,-789,2774,61,28,866
1305138,7369948,7730584,7372839,7733287,1484,2667,168,-1629,-1325,646,-652,2950,61,28,866
1306139,7370236,7730684,7373036,7733484,1544,2885,150,-1761,-1261,71,-219,2636,43,28,865
1307140,7370488,7730784,7373233,7733681,1746,2929,56,-1757,-1248,483,-140,3093,43,28,865
1308141,7370756,7730900,7373430,7733878,1615,2865,-60,-1660,-1246,-203,-385,3374,47,30,868
1309142,7371024,7731000,7373627,7734075,1584,3008,-108,-1602,-1257,337,-476,3024,47,30,868
1310143,7371328,7731104,7373824,7734272,1312,3025,-145,-1606,-1290,648,-528,3314,47,19,866
1311144,7371604,7731260,7374021,7734469,1454,2718,-80,-1703,-1331,721,-93,3061,47,19,866
1312145,7371892,7731400,7374218,7734666,1339,2844,-39,-1982,-1298,-151,-387,2654,45,17,866
1313146,7372136,7731520,7374415,7734863,1594,3004,16,-2328,-1224,-310,-152,2414,45,17,866
1314147,7372404,7731636,7374612,7735060,1413,3064,83,-2555,-1193,311,-159,2709,43,24,867
1315148,7372692,7731756,7374809,7735257,1248,3074,61,-2677,-1166,398,2,2418,43,24,867
1316148,7372952,7731900,7375006,7735454,1396,2947,12,-2686,-1131,523,-111,2707,55,17,865
1317150,7373212,7732020,7375203,7735651,1368,3132,-10,-2586,-1162,859,-307,3272,55,17,865
1318150,7373480,7732140,7375400,7735848,1288,3167,-20,-2427,-1141,197,-373,3245,49,17,867
1319152,7373732,7732272,7375597,7736045,1364,3122,4,-2438,-1126,770,-110,2550,49,17,867
1320153,7373980,7732408,7375794,7736242,1367,3123,18,-2569,-1100,437,213,3109,58,30,866
1321154,7374240,7732556,7375991,7736439,1265,3071,82,-2767,-1035,151,-61,2512,58,30,866
1322155,7374468,7732740,7376188,7736636,1451,2853,120,-2945,-989,581,-19,2910,58,35,866
1323156,7374676,7732896,7376385,7736833,1572,3046,165,-3039,-944,193,518,3106,58,35,866
1324157,7374932,7733084,7376582,7737030,1247,2851,166,-3181,-881,69,146,2706,45,32,866
1325158,7375160,7733244,7376779,7737227,1408,3043,158,-3186,-852,522,122,3632,45,32,866
1326159,7375424,7733408,7376976,7737424,1154,3033,136,-3182,-825,434,451,3418,42,31,865
1327159,7375640,7733588,7377173,7737621,1446,2941,69,-3261,-824,754,664,3043,42,31,865
1328160,7375904,7733772,7377370,7737818,1117,2923,15,-3308,-782,564,-83,3961,39,37,866
1329162,7376132,7733980,7377567,7738015,1328,2769,-4,-3361,-739,833,270,3894,39,37,866
1330162,7376356,7734168,7377764,7738212,1341,2899,-33,-3513,-725,932,389,3387,38,41,867
1331164,7376624,7734356,7377961,7738409,1036,2904,-82,-3637,-686,503,281,3670,38,41,867
1332164,7376876,7734536,7378158,7738606,1112,2961,-139,-3672,-632,449,273,3924,47,36,869
1333165,7377096,7734752,7378355,7738803,1302,2729,-201,-3542,-542,102,306,4139,47,36,869
1334166,7377352,7734940,7378552,7739000,1051,2909,-272,-3136,-479,952,551,5051,42,46,869
1335167,7377604,7735120,7378749,7739197,1053,2967,-434,-2896,-435,977,175,2997,42,46,869
1336169,7377828,7735344,7378946,7739394,1216,2680,-522,-2645,-345,563,372,4377,36,48,869
1337170,7378048,7735544,7379143,7739591,1231,2830,-485,-2506,-249,465,136,4479,36,48,869
1338171,7378284,7735764,7379340,7739788,1114,2696,-379,-2550,-162,823,131,3503,41,44,869
1339178,7378500,7735972,7379570,7740018,1246,2782,-304,-2756,-86,1552,410,3767,41,44,869
1340173,7378744,7736160,7379767,7740215,1050,2910,-228,-2835,-38,1742,-22,4588,52,31,869
1341173,7378972,7736360,7379964,7740412,1136,2835,-186,-2894,0,1583,-256,4325,52,31,869
1342175,7379172,7736560,7380161,7740609,1310,2835,-189,-2885,26,1794,-183,4500,48,42,869
1343175,7379392,7736784,7380358,7740806,1175,2674,-230,-2791,107,1252,-571,4814,48,42,869
1344176,7379600,7736996,7380555,7741003,1245,2743,-238,-2637,196,1484,-375,5542,38,51,870
1345178,7379760,7737184,7380752,7741200,1562,2897,-208,-2606,210,2355,-874,4964,38,51,870
1346179,7379944,7737368,7380949,7741397,1418,2929,-175,-2634,262,1770,-778,5377,32,30,869
1347180,7380136,7737540,7381146,7741594,1370,3016,-132,-2637,413,1241,-523,5661,32,30,869
1348181,7380328,7737744,7381343,7741791,1373,2814,-166,-2632,569,1527,-641,5101,28,36,866
1349182,7380508,7737940,7381540,7741988,1455,2864,-249,-2543,737,1071,-1243,5223,28,36,866
1350182,7380696,7738152,7381737,7742185,1410,2759,-280,-2330,900,730,-364,6382,48,34,867
1351183,7380860,7738348,7381934,7742382,1574,2860,-294,-2287,981,1048,-310,4984,48,34,867
1352185,7381032,7738560,7382131,7742579,1535,2755,-288,-2368,1014,918,-687,5366,29,36,867
1353186,7381220,7738768,7382328,7742776,1439,2775,-236,-2426,1031,841,-802,5826,29,36,867
1354187,7381404,7738960,7382525,7742973,1470,2878,-216,-2504,990,1390,-1076,4991,46,36,867
1355188,7381560,7739192,7382722,7743170,1664,2614,-230,-2503,950,1092,-669,5353,46,36,867
1356189,7381748,7739376,7382919,7743367,1468,2920,-300,-2420,1036,-115,-948,5087,45,43,869
1357190,7381896,7739532,7383116,7743564,1740,3114,-392,-2306,1062,1023,-886,4838,45,43,869
1358191,7382048,7739708,7383313,7743761,1734,2999,-471,-2235,1103,268,-872,4827,34,38,867
1359192,7382220,7739880,7383510,7743958,1621,3036,-495,-2197,1148,567,-1277,4560,34,38,867
1360193,7382388,7740040,7383707,7744155,1659,3128,-462,-2183,1133,1249,-1028,5075,22,36,864
1361194,7382524,7740212,7383904,7744352,1886,3065,-410,-2198,1122,1034,-1218,4224,22,36,864
1362195,7382696,7740380,7384101,7744549,1672,3103,-340,-2249,1167,544,-1388,4810,41,35,865
1363196,7382852,7740560,7384298,7744746,1791,3036,-248,-2223,1218,643,-1364,4989,41,35,865
1364197,7383032,7740728,7384495,7744943,1648,3125,-189,-2205,1264,489,-1072,4303,36,25,864
1365198,7383232,7740892,7384692,7745140,1522,3165,-156,-2203,1287,670,-1738,4423,36,25,864
1366198,7383388,7741048,7384889,7745337,1815,3234,-92,-2093,1311,319,-1209,5084,25,40,865
1367200,7383564,7741248,7385086,7745534,1700,2958,-62,-2131,1366,-234,-1672,3647,25,40,865
