"Data file recorded 2014/9/22  15:58:24"
"%  Right Stride Frequency         = 3.0"
"%  Left Stride Frequency         = 3.0"
"%  Phase (Fractional)         = 32768.0"
"%  Experiment.py "
"%  Motor Gains    = [1800, 200, 100, 0, 0, 1800, 200, 100, 0, 0]
"% Columns: "
"% time | Right Leg Pos | Left Leg Pos | Commanded Right Leg Pos | Commanded Left Leg Pos | DCR | DCL | GyroX | GryoY | GryoZ | AX | AY | AZ | RBEMF | LBEMF | VBatt "
10504,2343716,2506644,2326884,2556260,-3800,3800,-36,193,-234,505,-46,4070,3,7,843
11490,2343732,2506640,2327081,2556457,-3800,3800,-36,193,-234,518,-50,4052,4,4,843
12491,2343672,2506652,2327278,2556654,-3800,3800,-37,189,-231,532,-56,4047,4,4,843
13492,2343512,2506716,2327475,2556851,-3800,3800,-32,171,-232,531,-31,4090,-11,2,805
14493,2343380,2506784,2327672,2557048,-3800,3800,-18,174,-226,524,51,4066,-11,2,805
15494,2343156,2506852,2327869,2557245,-3800,3800,-19,202,-199,609,11,4029,-31,-1,804
16482,2342864,2506896,2328066,2557442,-3467,3800,-38,183,-154,701,-40,3997,-31,-1,804
17483,2342524,2506976,2328263,2557639,-2934,3800,-54,230,-108,668,98,4225,-64,7,806
18484,2342152,2507088,2328460,2557836,-2486,3800,-28,254,-80,577,155,4170,-64,7,806
19485,2341772,2507176,2328657,2558033,-2185,3800,28,295,-59,613,434,4274,-85,5,808
20486,2341332,2507292,2328854,2558230,-1533,3800,90,328,-52,816,784,4209,-85,5,808
21487,2340912,2507408,2329051,2558427,-1389,3800,130,414,-3,1224,321,4279,-91,16,812
22488,2340428,2507544,2329248,2558624,-692,3800,164,491,76,1373,615,4236,-91,16,812
23489,2340012,2507668,2329445,2558821,-849,3800,212,541,165,1599,555,4107,-92,19,818
24490,2339596,2507824,2329642,2559018,-582,3800,276,601,234,1779,612,4146,-92,19,818
25491,2339164,2507976,2329839,2559215,-207,3800,346,634,235,1958,1012,3915,-63,23,819
26492,2338760,2508164,2330036,2559412,-120,3800,413,668,152,2181,1142,3867,-63,23,819
27493,2338408,2508368,2330233,2559609,-206,3800,476,684,22,2268,1221,3722,-69,33,821
28494,2338092,2508604,2330430,2559806,-207,3800,552,611,-127,2359,1293,3480,-69,33,821
29495,2337816,2508868,2330627,2560003,-251,3800,601,581,-279,2462,1243,3608,-55,48,822
30496,2337592,2509112,2330824,2560200,-392,3800,625,697,-374,2469,1057,3887,-55,48,822
31497,2337348,2509352,2331021,2560397,-74,3800,606,900,-442,2204,1187,4216,-48,42,822
32498,2337188,2509584,2331218,2560594,-444,3800,572,1277,-502,1808,1167,4688,-48,42,822
33499,2337056,2509836,2331415,2560791,-475,3800,532,1673,-545,1552,992,4677,-35,41,823
34500,2336944,2510112,2331612,2560988,-466,3800,481,2155,-574,1338,976,4881,-35,41,823
35501,2336876,2510416,2331809,2561185,-625,3800,431,2627,-556,995,1103,4734,-25,38,821
36502,2336816,2510680,2332006,2561382,-563,3800,413,3043,-490,722,1472,4527,-25,38,821
37503,2336808,2510928,2332203,2561579,-799,3800,427,3361,-381,498,1682,4374,-12,45,821
38504,2336808,2511260,2332400,2561776,-764,3800,448,3647,-264,299,1896,4147,-12,45,821
39505,2336816,2511596,2332597,2561973,-732,3800,469,3899,-196,7,1974,3893,12,60,822
40506,2336796,2511980,2332794,2562170,-461,3800,488,4049,-186,-464,1913,3552,12,60,822
41507,2336796,2512320,2332991,2562367,-501,3800,506,4141,-183,-640,1616,3436,5,73,822
42508,2336792,2512752,2333188,2562564,-388,3800,511,4191,-119,-614,1013,3241,5,73,822
43509,2336796,2513188,2333385,2562761,-354,3800,504,4268,-13,-729,826,3261,2,74,823
44510,2336800,2513604,2333582,2562958,-270,3800,492,4318,128,-811,460,3114,2,74,823
45511,2336796,2514096,2333779,2563155,-132,3800,491,4298,345,-771,-202,3105,17,79,824
46512,2336796,2514648,2333976,2563352,-71,3800,468,4330,613,-662,-534,3069,17,79,824
47513,2336796,2515104,2334173,2563549,15,3800,426,4345,855,-618,-512,2969,14,81,823
48514,2336788,2515676,2334370,2563746,155,3800,423,4316,1078,-691,-506,2851,14,81,823
49515,2336800,2516208,2334567,2563943,110,3800,479,4178,1293,-629,-697,2512,-2,104,825
50516,2336796,2516744,2334764,2564140,299,3800,536,3976,1438,-524,-841,2361,-2,104,825
51517,2336800,2517428,2334961,2564337,332,3800,584,3750,1496,-588,-870,2153,20,100,826
52518,2336800,2518024,2335158,2564534,444,3800,621,3440,1499,-604,-981,1940,20,100,826
53518,2336808,2518680,2335355,2564731,477,3800,647,3132,1451,-615,-1097,1962,9,113,826
54520,2336808,2519324,2335552,2564928,613,3800,659,2915,1373,-533,-1224,2160,9,113,826
55521,2336808,2519964,2335749,2565125,699,3800,670,2776,1312,-458,-1478,2239,19,110,826
56522,2336840,2520624,2335946,2565322,572,3800,675,2684,1296,-419,-1793,2477,19,110,826
57523,2336860,2521344,2336143,2565519,724,3800,670,2654,1292,-367,-1947,2630,27,111,824
58524,2336896,2522000,2336340,2565716,695,3800,616,2679,1237,-294,-1997,2671,27,111,824
59525,2336964,2522684,2336537,2565913,552,3800,521,2744,1101,-327,-2018,2628,19,118,825
60526,2337016,2523384,2336734,2566110,715,3800,431,2725,942,-331,-2168,2438,19,118,825
61527,2337080,2523956,2336931,2566307,698,3800,369,2674,782,-255,-2257,2356,20,111,825
62528,2337152,2524672,2337128,2566504,703,3800,336,2549,598,-240,-2218,2095,20,111,825
63529,2337216,2525212,2337325,2566701,811,3800,280,2404,339,-287,-2125,1967,30,107,825
64530,2337300,2525836,2337522,2566898,736,3800,213,2188,17,-405,-2023,1816,30,107,825
65530,2337388,2526428,2337719,2567095,759,3800,113,2088,-305,-419,-2048,2288,29,99,825
66531,2337484,2526924,2337916,2567292,753,3800,-6,2071,-595,-317,-2005,2320,29,99,825
67532,2337564,2527520,2338113,2567489,906,3800,-150,2071,-829,-217,-2081,2365,17,103,825
68533,2337680,2528108,2338310,2567686,716,3800,-303,2047,-1004,-195,-2062,2337,17,103,825
69535,2337788,2528644,2338507,2567883,805,3800,-456,1928,-1148,-262,-2143,2175,26,92,823
70535,2337888,2529180,2338704,2568080,898,3800,-570,1705,-1271,-284,-2359,1901,26,92,823
71537,2337996,2529668,2338901,2568277,887,3800,-660,1340,-1413,-267,-2095,1430,37,94,824
72538,2338128,2530184,2339098,2568474,766,3800,-745,904,-1560,-218,-2030,1347,37,94,824
73539,2338240,2530696,2339295,2568671,928,3800,-816,395,-1674,-170,-1885,1170,19,94,822
74540,2338360,2531160,2339492,2568868,913,3800,-877,-88,-1724,-163,-1696,1478,19,94,822
75541,2338512,2531660,2339689,2569065,733,3800,-955,-445,-1671,-72,-1812,1942,33,93,824
76542,2338664,2532088,2339886,2569262,753,3800,-1037,-798,-1534,-67,-1501,1899,33,93,824
77543,2338784,2532576,2340083,2569459,986,3800,-1135,-1081,-1328,30,-1132,2414,43,94,823
78544,2338896,2533052,2340280,2569656,1075,3800,-1221,-1380,-1028,184,-840,2169,43,94,823
79545,2338972,2533588,2340477,2569853,1353,3800,-1254,-1787,-679,356,-465,2064,35,92,822
80546,2339044,2534036,2340674,2570050,1433,3800,-1261,-2228,-293,686,-227,2209,35,92,822
81547,2339172,2534536,2340871,2570247,1113,3800,-1252,-2687,103,974,-80,2193,43,99,821
82548,2339356,2534936,2341068,2570444,770,3800,-1290,-3190,452,1098,461,2207,43,99,821
83549,2339504,2535388,2341265,2570641,1016,3800,-1433,-3571,668,1176,920,2852,45,94,821
84550,2339664,2535908,2341462,2570838,958,3800,-1654,-3821,697,1028,1489,3056,45,94,821
85551,2339836,2536344,2341659,2571035,895,3800,-1944,-4016,567,854,1385,3606,33,94,823
86552,2340012,2536820,2341856,2571232,879,3800,-2262,-4025,337,933,1002,4194,33,94,823
87553,2340176,2537304,2342053,2571429,968,3800,-2586,-4076,147,1213,706,4179,50,86,822
88554,2340344,2537756,2342250,2571626,957,3800,-2967,-4019,136,1602,448,4856,50,86,822
89555,2340520,2538264,2342447,2571823,916,3800,-3372,-3882,340,1815,-282,5180,50,97,823
90556,2340680,2538760,2342644,2572020,1033,3800,-3738,-3659,655,1858,-314,5730,50,97,823
91557,2340844,2539256,2342841,2572217,1023,3800,-4056,-3385,927,1938,194,6028,31,93,821
92565,2340984,2539792,2343268,2572644,1299,3800,-4315,-3129,1055,1910,387,6121,31,93,821
93559,2341096,2540292,2343465,2572841,1513,3800,-4437,-2972,1120,1981,206,6007,30,103,823
94560,2341244,2540868,2343662,2573038,1309,3800,-4414,-2923,1243,2239,199,6123,30,103,823
95561,2341404,2541536,2343859,2573235,1251,3800,-4306,-2771,1440,2444,316,6658,26,114,822
96562,2341536,2542000,2344056,2573432,1455,3800,-4216,-2512,1672,2591,57,7050,26,114,822
97563,2341680,2542520,2344253,2573629,1404,3800,-4122,-2271,1916,2707,-455,7151,24,88,822
98564,2341836,2543124,2344450,2573826,1347,3800,-3593,-1577,2087,3451,-390,11843,24,88,822
99565,2341952,2543756,2344647,2574023,1634,3800,-285,5015,1959,9562,1569,32767,39,130,822
100566,2342128,2544312,2344844,2574220,1268,3800,4185,13773,1987,7249,278,32767,39,130,822
101567,2342276,2545100,2345041,2574417,1466,3800,5942,16194,2354,4066,382,6890,28,136,822
102568,2342412,2545808,2345238,2574614,1567,3800,5552,13593,2691,3883,1248,1206,28,136,822
103569,2342604,2546648,2345435,2574811,1221,3800,4908,10205,2707,3738,1618,390,51,159,823
104570,2342736,2547524,2345632,2575008,1624,3800,4735,7779,2489,2900,2140,301,51,159,823
105571,2342868,2548376,2345829,2575205,1654,3800,4874,5920,2228,2500,1481,405,34,155,824
106572,2343024,2549392,2346026,2575402,1522,3800,4936,4591,2015,2034,898,1886,34,155,824
107573,2343200,2550280,2346223,2575599,1407,3800,4806,3437,1895,987,578,2959,52,182,824
108574,2343344,2551156,2346420,2575796,1630,3800,4467,2832,1727,192,284,4796,52,182,824
109575,2343480,2552104,2346617,2575993,1708,3800,3991,2496,1467,-580,38,5491,50,196,825
110576,2343600,2553028,2346814,2576190,1843,3800,3469,2704,1234,-1192,-422,7411,50,196,825
111577,2343712,2553856,2347011,2576387,1930,3800,2936,3220,1049,-1325,-858,7654,33,178,824
112578,2343832,2554788,2347208,2576584,1915,3800,2486,3697,886,-1942,-642,7664,33,178,824
113579,2343952,2555596,2347405,2576781,1949,3800,2115,4202,649,-2546,95,7735,45,181,822
114580,2344072,2556364,2347602,2576978,1984,3800,1805,4505,280,-3014,811,6814,45,181,822
115581,2344212,2557144,2347799,2577175,1885,3800,1490,4756,-109,-3867,1276,6649,31,148,822
116582,2344352,2557824,2347996,2577372,1910,3800,1212,4837,-446,-4404,1365,5908,31,148,822
117583,2344508,2558604,2348193,2577569,1829,3800,1005,4905,-704,-4665,1528,5955,30,151,821
118584,2344652,2559308,2348390,2577766,1928,3800,886,4991,-803,-4921,1449,5652,30,151,821
119585,2344788,2560004,2348587,2577963,2006,3800,806,4945,-740,-4775,918,5078,31,135,822
120586,2344932,2560640,2348784,2578160,1979,3800,703,4720,-532,-4587,608,4340,31,135,822
121587,2345068,2561268,2348981,2578357,2057,3800,580,4281,-140,-4394,156,3629,40,129,821
122588,2345236,2561896,2349178,2578554,1871,3800,496,3646,420,-3915,-428,2717,40,129,821
123589,2345364,2562520,2349375,2578751,2152,3800,479,2697,1107,-3475,-605,1627,50,111,819
124590,2345520,2563036,2349572,2578948,1995,3800,447,1602,1797,-3201,-350,1051,50,111,819
125591,2345672,2563604,2349769,2579145,2041,3800,398,369,2456,-3181,-49,542,45,107,819
126592,2345836,2564108,2349966,2579342,1981,3800,355,-753,3055,-3629,321,875,45,107,819
127593,2346008,2564576,2350163,2579539,1943,3800,342,-1687,3509,-4176,1117,1217,49,88,818
128594,2346176,2565068,2350360,2579736,1981,3800,336,-2329,3744,-4661,1685,1989,49,88,818
129595,2346328,2565468,2350557,2579933,2102,3800,346,-2681,3803,-5050,1693,2683,34,93,818
130596,2346480,2565896,2350754,2580130,2123,3800,390,-2820,3789,-5150,1532,3430,34,93,818
131596,2346624,2566296,2350951,2580327,2197,3800,423,-2800,3747,-5200,1478,3825,25,73,817
132598,2346756,2566668,2351148,2580524,2302,3800,422,-2777,3724,-4872,1061,3763,25,73,817
133599,2346892,2566988,2351345,2580721,2304,3800,447,-2789,3753,-4426,770,3555,46,60,816
134600,2347036,2567344,2351542,2580918,2278,3800,552,-3123,3801,-4368,1140,2474,46,60,816
135601,2347208,2567672,2351739,2581115,2115,3800,738,-3725,3800,-4102,1903,1752,28,64,813
136602,2347352,2567964,2351936,2581312,2314,3800,999,-4591,3712,-3836,2347,1077,28,64,813
137603,2347500,2568264,2352133,2581509,2311,3800,1341,-5536,3570,-3514,2079,847,43,64,814
138604,2347656,2568556,2352330,2581706,2281,3800,1685,-6482,3550,-2864,891,947,43,64,814
139605,2347804,2568904,2352527,2581903,2353,3800,1911,-7275,3760,-2107,-243,1516,44,60,814
140606,2347928,2569260,2352724,2582100,2536,3800,1966,-7968,4123,-1367,-533,1676,44,60,814
141607,2348080,2569548,2352921,2582297,2382,3800,1919,-8629,4513,-757,-394,1698,26,64,815
142608,2348248,2569912,2353118,2582494,2295,3800,1824,-9314,4892,-336,-174,1686,26,64,815
143609,2348396,2570280,2353315,2582691,2442,3800,1752,-10086,5239,-177,-94,1270,26,73,813
144610,2348624,2570684,2353512,2582888,1930,3800,1761,-10954,5518,97,46,916,26,73,813
145611,2348812,2571020,2353709,2583085,2185,3800,1832,-11691,5709,179,-118,1342,37,66,814
146612,2348984,2571372,2353906,2583282,2296,3800,1887,-12190,5844,43,-390,1929,37,66,814
147613,2349192,2571800,2354103,2583479,2068,3800,1878,-12313,5959,-154,-735,2869,34,85,816
148614,2349380,2572196,2354300,2583676,2198,3800,1775,-11974,6064,-197,-1188,4293,34,85,816
149615,2349564,2572608,2354497,2583873,2229,3800,1605,-11217,6125,-119,-1398,5142,33,90,815
150603,2349796,2573140,2354694,2584070,1915,3626,1399,-10333,6109,-202,-1405,5322,33,90,815
151617,2349984,2573560,2354891,2584267,2195,3800,1183,-9391,5979,-501,-1253,5654,55,82,816
152605,2350180,2574044,2355088,2584464,2146,3706,990,-8402,5704,-819,-1001,5693,55,82,816
153606,2350396,2574580,2355285,2584661,2014,3234,855,-7475,5329,-896,-554,5409,37,87,819
154607,2350608,2575064,2355482,2584858,2033,3435,775,-6624,4932,-591,-420,5173,37,87,819
155608,2350816,2575652,2355679,2585055,2055,2614,715,-5814,4574,-41,-540,4990,45,113,818
156609,2351028,2576192,2355876,2585252,2024,2765,663,-5107,4312,481,-660,4615,45,113,818
157610,2351272,2576724,2356073,2585449,1803,2670,598,-4517,4118,904,-562,4431,50,101,819
158611,2351532,2577336,2356270,2585646,1677,1989,516,-3963,3976,1220,-419,4289,50,101,819
159612,2351764,2577872,2356467,2585843,1837,2316,427,-3501,3868,1488,-75,3938,43,109,824
160613,2352012,2578528,2356664,2586040,1716,1367,329,-3152,3753,1908,436,3555,43,109,824
161614,2352228,2579184,2356861,2586237,1908,1166,227,-2900,3616,2286,780,3162,43,124,829
162615,2352432,2579820,2357058,2586434,1981,1099,163,-2773,3474,2538,1155,2784,43,124,829
163616,2352660,2580424,2357255,2586631,1819,1122,179,-2687,3377,2723,834,2736,60,108,832
164617,2352896,2581012,2357452,2586828,1753,1051,316,-2519,3401,2912,168,2863,60,108,832
165618,2353088,2581608,2357649,2587025,2031,827,492,-2357,3495,3081,98,2692,60,106,832
166619,2353308,2582144,2357846,2587222,1846,1054,642,-2137,3596,3248,131,2708,60,106,832
167620,2353500,2582724,2358043,2587419,2024,612,762,-1857,3659,3104,248,2721,37,109,831
168621,2353720,2583220,2358240,2587616,1840,1006,905,-1618,3623,2836,369,2567,37,109,831
169622,2353940,2583664,2358437,2587813,1831,1224,1089,-1441,3456,2462,633,2466,57,108,831
170623,2354200,2584164,2358634,2588010,1554,742,1301,-1208,3193,2190,542,2522,57,108,831
171624,2354464,2584628,2358831,2588207,1501,849,1499,-885,2870,1946,453,2671,49,80,832
172625,2354748,2585044,2359028,2588404,1338,1054,1702,-369,2569,1783,332,3265,49,80,832
173626,2355016,2585500,2359225,2588601,1407,691,1862,445,2347,1870,115,4035,61,90,834
174627,2355252,2585916,2359422,2588798,1591,845,1963,1444,2228,1929,-258,4302,61,90,834
175635,2355524,2586272,2359652,2589028,1349,1166,2067,2507,2186,1957,-563,4519,65,81,835
176629,2355820,2586652,2359849,2589225,1156,935,2186,3606,2139,1891,-671,4408,65,81,835
177630,2356084,2587032,2360046,2589422,1328,856,2319,4613,2046,1713,-614,3950,57,82,834
178631,2356364,2587400,2360243,2589619,1191,856,2441,5477,1916,1701,-790,3476,57,82,834
179632,2356656,2587720,2360440,2589816,1075,1103,2536,6188,1766,1797,-798,2877,61,68,834
180633,2356928,2588084,2360637,2590013,1168,754,2633,6676,1613,1930,-678,2113,61,68,834
181634,2357208,2588412,2360834,2590210,1082,922,2734,6982,1452,1974,-597,1586,70,66,836
182635,2357444,2588708,2361031,2590407,1341,1079,2829,7157,1287,1937,-317,1166,70,66,836
183636,2357704,2588968,2361228,2590604,1164,1276,2888,7212,1098,1898,563,689,67,45,837
184637,2358012,2589152,2361425,2590801,815,1757,2902,7182,919,1910,814,438,67,45,837
185638,2358256,2589308,2361622,2590998,1196,1951,2882,7141,760,1937,829,213,62,50,834
186639,2358520,2589528,2361819,2591195,1042,1541,2827,6993,573,1901,949,-211,62,50,834
187640,2358820,2589748,2362016,2591392,772,1531,2689,6802,373,2032,894,-221,62,50,833
188641,2359084,2589968,2362213,2591589,969,1522,2458,6652,184,2170,906,-2,62,50,833
189642,2359312,2590160,2362410,2591786,1181,1699,2166,6609,-133,1720,1444,254,62,33,832
190643,2359556,2590304,2362607,2591983,1060,2022,1881,6526,-623,1101,1682,-249,62,33,832
191644,2359784,2590472,2362804,2592180,1148,1886,1581,6353,-1149,938,1454,-509,53,24,833
192645,2359940,2590604,2363001,2592377,1616,2140,1215,6020,-1606,673,778,-936,53,24,833
193646,2360108,2590752,2363198,2592574,1554,2061,848,5598,-2042,303,749,-1410,33,24,831
194647,2360248,2590932,2363395,2592771,1755,1870,495,5141,-2496,231,690,-1577,33,24,831
195648,2360392,2591068,2363592,2592968,1754,2171,121,4693,-2880,272,-330,-1324,33,23,828
196649,2360516,2591220,2363789,2593165,1912,2091,-290,4329,-3131,368,-883,-1261,33,23,828
197650,2360628,2591344,2363986,2593362,2024,2299,-753,3969,-3255,319,-1139,-1374,36,18,827
198651,2360756,2591488,2364183,2593559,1956,2198,-1212,3532,-3275,295,-1219,-1410,36,18,827
199652,2360856,2591632,2364380,2593756,2174,2221,-1569,2884,-3243,315,-784,-1972,32,32,826
200653,2360952,2591752,2364577,2593953,2244,2406,-1814,2031,-3176,358,-701,-2383,32,32,826
201654,2361060,2591868,2364774,2594150,2209,2466,-2005,1153,-3036,266,-773,-2153,14,21,824
202655,2361168,2591988,2364971,2594347,2249,2476,-2212,406,-2815,109,-724,-1744,14,21,824
203656,2361228,2592104,2365168,2594544,2609,2537,-2420,-237,-2494,-17,-612,-1498,10,34,822
204657,2361332,2592256,2365365,2594741,2376,2333,-2659,-767,-2096,93,-357,-1031,10,34,822
205658,2361452,2592428,2365562,2594938,2311,2219,-2971,-1181,-1660,337,-333,-479,11,27,822
206659,2361536,2592584,2365759,2595135,2586,2338,-3345,-1612,-1217,492,-421,-660,11,27,822
207660,2361648,2592744,2365956,2595332,2450,2329,-3756,-2218,-800,742,-651,-1021,32,37,822
208661,2361756,2592904,2366153,2595529,2514,2346,-4207,-2843,-423,936,-829,-679,32,37,822
209662,2361864,2593076,2366350,2595726,2554,2282,-4698,-3419,-97,1086,-1002,-408,28,36,820
210663,2361964,2593236,2366547,2595923,2648,2374,-5208,-3925,189,1242,-1133,-213,28,36,820
211664,2362084,2593364,2366744,2596120,2557,2605,-5744,-4280,480,1470,-1457,716,34,33,820
212665,2362192,2593520,2366941,2596317,2672,2449,-6313,-4404,763,1672,-1626,1469,34,33,820
213666,2362312,2593684,2367138,2596514,2632,2413,-7010,-4187,997,1952,-1832,2947,29,24,819
214667,2362440,2593868,2367335,2596711,2614,2295,-7995,-3434,1188,2225,-2404,4890,29,24,819
215668,2362580,2594052,2367532,2596908,2565,2301,-8632,-3296,1213,2333,-2116,1720,35,40,819
216669,2362708,2594216,2367729,2597105,2670,2441,-8958,-3850,1085,2635,-2161,1327,35,40,819
217670,2362860,2594356,2367926,2597302,2541,2616,-9285,-4352,886,2950,-2300,2607,28,28,821
218671,2363032,2594508,2368123,2597499,2428,2562,-9870,-4320,735,3095,-3565,4217,28,28,821
219672,2363192,2594656,2368320,2597696,2520,2608,-10382,-4226,673,3338,-4280,3637,42,32,819
220673,2363368,2594812,2368517,2597893,2430,2577,-10762,-4188,614,3877,-4325,4373,42,32,819
221674,2363544,2594976,2368714,2598090,2440,2543,-11045,-4149,486,4132,-4303,4768,39,28,821
222675,2363756,2595144,2368911,2598287,2210,2531,-11229,-4043,267,4322,-4092,5103,39,28,821
223676,2363956,2595280,2369108,2598484,2285,2759,-11216,-4079,-26,4343,-4488,4705,29,40,819
224677,2364160,2595424,2369305,2598681,2257,2732,-11032,-4090,-313,4529,-4900,5523,29,40,819
225678,2364396,2595596,2369502,2598878,2041,2569,-10754,-3879,-551,4764,-5183,6360,39,26,822
226679,2364584,2595780,2369699,2599075,2346,2500,-10434,-3574,-782,4876,-5294,6731,39,26,822
227680,2364792,2596008,2369896,2599272,2217,2212,-10063,-3109,-1025,4967,-4856,7500,51,49,820
228681,2365004,2596180,2370093,2599469,2187,2574,-9617,-2622,-1274,4979,-4415,7768,51,49,820
229682,2365216,2596376,2370290,2599666,2181,2424,-9083,-2213,-1479,4980,-4150,7757,52,42,821
230683,2365440,2596600,2370487,2599863,2095,2238,-7444,-706,-1599,5262,-3728,16420,52,42,821
231684,2365680,2596788,2370684,2600060,1978,2468,-1259,10888,-1201,5342,-4685,32767,58,49,822
232685,2365952,2597036,2370881,2600257,1746,2071,5320,21968,-810,6230,-2622,32767,58,49,822
233686,2366216,2597212,2371078,2600454,1767,2531,7455,23114,-933,7521,1830,1455,39,46,823
234687,2366448,2597408,2371275,2600651,1953,2408,6942,18488,-1390,7467,3482,-2175,39,46,823
235688,2366720,2597572,2371472,2600848,1671,2622,6229,13759,-1718,7360,2734,-2246,49,44,825
236689,2366972,2597748,2371669,2601045,1773,2557,5855,11389,-1504,6120,1156,848,49,44,825
237690,2367180,2597948,2371866,2601242,2044,2406,5714,9740,-1291,5384,1883,-645,36,52,825
238691,2367448,2598180,2372063,2601439,1639,2192,5714,7960,-1539,5050,2380,-414,36,52,825
239692,2367660,2598412,2372260,2601636,1982,2177,5679,6121,-1653,3911,-350,624,43,49,824
240693,2367880,2598612,2372457,2601833,1923,2376,5339,4715,-1477,3383,-2521,2094,43,49,824
241694,2368120,2598824,2372654,2602030,1780,2295,4849,3883,-1409,2627,-803,2904,39,37,827
242695,2368292,2599032,2372851,2602227,2217,2317,4406,3178,-1625,1339,697,3003,39,37,827
243696,2368500,2599252,2373048,2602424,1988,2231,3969,2680,-2143,417,813,3712,48,47,825
244697,2368688,2599448,2373245,2602621,2118,2383,3367,2466,-2710,-1357,986,4913,48,47,825
245698,2368872,2599644,2373442,2602818,2150,2383,2789,2717,-3129,-2876,717,5738,43,37,822
246699,2369024,2599828,2373639,2603015,2370,2465,2321,3131,-3334,-3416,-351,5983,43,37,822
247700,2369200,2600016,2373836,2603212,2230,2445,2054,3773,-3315,-4364,-462,6831,43,35,823
248701,2369340,2600204,2374033,2603409,2481,2449,1905,4708,-3219,-5060,-58,7218,43,35,823
249702,2369480,2600408,2374230,2603606,2507,2347,1824,5591,-3123,-5556,216,6784,32,39,821
250703,2369668,2600608,2374427,2603803,2212,2371,1844,6391,-2893,-5990,-16,6551,32,39,821
251704,2369800,2600800,2374624,2604000,2591,2424,1984,7032,-2450,-5768,-851,5733,40,49,821
252705,2369940,2601008,2374821,2604197,2567,2320,2231,7384,-1772,-5694,-1333,4699,40,49,821
253706,2370092,2601228,2375018,2604394,2513,2235,2500,7422,-918,-5710,-1196,3902,24,45,823
254707,2370260,2601404,2375215,2604591,2427,2520,2714,7163,-9,-5351,-891,2783,24,45,823
255708,2370376,2601640,2375412,2604788,2789,2128,2873,6622,915,-5092,-459,1838,23,37,820
256709,2370524,2601832,2375609,2604985,2611,2406,3035,5779,1827,-4706,-407,831,23,37,820
257710,2370720,2602040,2375806,2605182,2313,2302,3195,4692,2677,-4375,-572,248,42,49,819
258720,2370864,2602248,2376036,2605412,2676,2312,3353,3534,3433,-4127,-664,-85,42,49,819
259712,2371000,2602480,2376233,2605609,2754,2148,3480,2322,4058,-3646,-724,-407,42,38,820
260713,2371164,2602692,2376430,2605806,2595,2266,3541,1202,4520,-3353,-350,74,42,38,820
261714,2371296,2602920,2376627,2606003,2824,2153,3540,311,4846,-2946,-45,848,37,43,820
262715,2371436,2603136,2376824,2606200,2800,2221,3501,-386,5040,-2598,-201,1202,37,43,820
263716,2371616,2603364,2377021,2606397,2559,2132,3436,-889,5132,-2334,-562,1667,27,48,821
264717,2371780,2603568,2377218,2606594,2674,2280,3351,-1345,5100,-1965,-651,1845,27,48,821
265718,2371944,2603824,2377415,2606791,2690,1929,3265,-1776,4910,-1906,-384,1754,31,51,819
266719,2372100,2604040,2377612,2606988,2759,2172,3205,-2291,4592,-2020,-128,1497,31,51,819
267720,2372292,2604236,2377809,2607185,2537,2297,3146,-2831,4198,-1865,-77,1454,46,55,819
268721,2372460,2604476,2378006,2607382,2701,2005,3049,-3344,3794,-1699,-38,1609,46,55,819
269722,2372660,2604704,2378203,2607579,2500,2067,2883,-3735,3442,-1455,-48,1975,39,49,821
270723,2372848,2604960,2378400,2607776,2580,1866,2658,-4028,3186,-1168,-71,2230,39,49,821
271724,2373008,2605228,2378597,2607973,2773,1761,2408,-4184,3057,-886,-213,2580,26,38,822
272725,2373164,2605452,2378794,2608170,2817,2024,2166,-4325,3035,-528,-621,2511,26,38,822
273726,2373364,2605692,2378991,2608367,2541,1906,1976,-4527,3073,-343,-546,2353,34,47,824
274727,2373536,2605948,2379188,2608564,2728,1780,1852,-4800,3106,-394,-16,2128,34,47,824
275728,2373692,2606224,2379385,2608761,2847,1621,1798,-5095,3095,-338,129,2026,45,58,821
276729,2373884,2606528,2379582,2608958,2626,1399,1786,-5381,3056,-458,791,2068,45,58,821
277730,2374076,2606860,2379779,2609155,2629,1166,1773,-5534,3026,-397,990,2437,28,53,821
278731,2374248,2607048,2379976,2609352,2767,2070,1720,-5555,3010,-404,1231,2770,28,53,821
279732,2374420,2607212,2380173,2609549,2779,2235,1601,-5337,3019,-543,1586,3454,43,42,824
280733,2374564,2607368,2380370,2609746,2978,2304,1432,-4997,3024,-583,1532,3643,43,42,824
281734,2374700,2607540,2380567,2609943,3056,2215,1261,-4591,3059,-556,611,3911,31,31,821
282735,2374860,2607752,2380764,2610140,2923,1959,1087,-4062,3117,-608,808,4149,31,31,821
283736,2375000,2607960,2380961,2610337,3074,1979,916,-3526,3109,-777,1448,4074,30,40,818
284737,2375124,2608220,2381158,2610534,3207,1627,769,-2907,2993,-906,1371,4366,30,40,818
285738,2375260,2608532,2381355,2610731,3160,1252,670,-2332,2800,-901,1335,4315,43,43,821
286739,2375408,2608772,2381552,2610928,3108,1684,541,-1718,2560,-731,1582,4394,43,43,821
287740,2375612,2609084,2381749,2611125,2756,1183,381,-1142,2315,-644,1812,4265,49,66,820
288741,2375804,2609384,2381946,2611322,2835,1213,223,-579,2100,-481,1672,4320,49,66,820
289742,2375984,2609664,2382143,2611519,2918,1303,57,-134,1908,-340,1871,4114,45,61,820
290743,2376136,2609940,2382340,2611716,3114,1293,-122,266,1776,-9,1351,4001,45,61,820
291744,2376332,2610272,2382537,2611913,2840,884,-296,607,1750,350,516,3857,30,64,825
292745,2376484,2610552,2382734,2612110,3137,1173,-389,854,1774,494,285,3531,30,64,825
293746,2376636,2610864,2382931,2612307,3158,923,-436,1011,1775,470,717,3297,44,71,823
294747,2376800,2611140,2383128,2612504,3098,1113,-456,1052,1714,516,1004,3000,44,71,823
295748,2376956,2611436,2383325,2612701,3167,945,-482,1004,1552,581,1359,2808,46,65,823
296749,2377096,2611748,2383522,2612898,3293,795,-549,863,1298,525,1830,2596,46,65,823
297750,2377272,2612044,2383719,2613095,3080,851,-653,666,982,443,2046,2530,26,51,823
298751,2377396,2612336,2383916,2613292,3438,835,-759,471,628,467,2434,2557,26,51,823
299752,2377532,2612612,2384113,2613489,3391,900,-890,421,298,600,2684,2976,42,53,822
300753,2377660,2612908,2384310,2613686,3472,732,-1056,506,6,751,2601,3310,42,53,822
301754,2377828,2613188,2384507,2613883,3237,796,-1273,703,-287,734,2606,3777,27,62,820
302755,2377984,2613424,2384704,2614080,3331,1054,-1567,971,-626,646,2877,4079,27,62,820
303756,2378160,2613600,2384901,2614277,3216,1438,-1932,1323,-1020,611,3158,4455,41,50,822
304757,2378336,2613792,2385098,2614474,3226,1340,-2292,1809,-1393,592,3111,4835,41,50,822
305758,2378492,2614012,2385295,2614671,3371,1155,-2586,2388,-1677,513,2970,5120,38,48,822
306759,2378668,2614212,2385492,2614868,3256,1279,-2800,2973,-1839,577,2761,5276,38,48,822
307760,2378880,2614396,2385689,2615065,3026,1385,-2966,3526,-1933,598,2589,5058,29,42,822
308761,2379048,2614576,2385886,2615262,3315,1418,-3108,3921,-2041,534,2719,4779,29,42,822
309762,2379228,2614780,2386083,2615459,3249,1265,-3251,4163,-2204,556,2910,4338,44,35,821
310763,2379444,2614952,2386280,2615656,3017,1476,-3384,4262,-2358,634,2673,4006,44,35,821
311764,2379648,2615108,2386477,2615853,3090,1594,-3493,4277,-2501,694,2574,3619,43,46,819
312765,2379840,2615276,2386674,2616050,3169,1532,-3560,4194,-2640,773,2352,3497,43,46,819
313766,2380060,2615424,2386871,2616247,2985,1678,-3588,4068,-2763,734,2000,3345,45,43,823
314767,2380264,2615596,2387068,2616444,3083,1539,-3600,3878,-2889,748,1617,3261,45,43,823
315768,2380496,2615780,2387265,2616641,2894,1471,-3596,3695,-3022,718,1216,3299,49,40,821
316769,2380712,2615944,2387462,2616838,2987,1610,-3606,3620,-3114,621,842,3841,49,40,821
317770,2380924,2616080,2387659,2617035,3006,1812,-3647,3733,-3184,473,476,4460,55,37,822
318771,2381144,2616264,2387856,2617232,2948,1518,-3709,3927,-3296,138,335,4693,55,37,822
319772,2381344,2616400,2388053,2617429,3073,1845,-3745,4151,-3464,-184,183,4894,43,25,822
320773,2381556,2616548,2388250,2617626,2992,1792,-3783,4444,-3676,-579,62,5272,43,25,822
321774,2381776,2616692,2388447,2617823,2933,1841,-3783,4707,-3945,-1129,72,5184,56,24,822
322775,2381988,2616840,2388644,2618020,2979,1837,-3730,4938,-4268,-1525,-106,5200,56,24,822
323776,2382228,2617020,2388841,2618217,2786,1645,-3645,5173,-4597,-1691,-471,5431,60,24,821
324777,2382436,2617172,2389038,2618414,2982,1839,-3560,5505,-4865,-1860,-892,5617,60,24,821
325778,2382656,2617340,2389235,2618611,2898,1753,-3456,5693,-5088,-1900,-1227,5242,47,23,821
326779,2382860,2617492,2389432,2618808,2997,1873,-3361,5782,-5260,-1908,-1620,5250,47,23,821
327780,2383044,2617644,2389629,2619005,3128,1893,-3303,5793,-5335,-1932,-1978,5093,39,37,821
328781,2383236,2617776,2389826,2619202,3081,2046,-3256,5686,-5319,-2090,-2240,4794,39,37,821
329782,2383436,2617940,2390023,2619399,3031,1862,-3193,5480,-5263,-2380,-2328,4593,29,23,820
330783,2383616,2618080,2390220,2619596,3166,2037,-3095,5117,-5221,-2600,-2355,4247,29,23,820
331784,2383828,2618204,2390417,2619793,2960,2169,-2978,4768,-5201,-2798,-2499,4437,48,24,819
332784,2384020,2618356,2390614,2619990,3088,2015,-2831,4366,-5146,-3045,-2821,4210,48,24,819
333786,2384240,2618512,2390811,2620187,2904,2008,-2670,3971,-5004,-3154,-3342,4514,40,29,817
334787,2384444,2618724,2391008,2620384,3003,1651,-2501,3609,-4767,-3148,-3700,4707,40,29,817
335788,2384640,2618884,2391205,2620581,3055,1992,-2338,3276,-4461,-3130,-3804,4939,32,38,819
336789,2384860,2619028,2391402,2620778,2895,2117,-2076,2457,-3897,-3302,-2955,4793,32,38,819
337790,2385084,2619152,2391599,2620975,2860,2274,-1959,1964,-3707,-3376,-2502,4949,34,37,821
338791,2385316,2619304,2391796,2621172,2796,2118,-620,1808,-3484,-3788,-2598,17067,34,37,821
339792,2385544,2619476,2391993,2621369,2809,2005,2645,2819,-3286,-2774,-2505,32767,52,32,819
340793,2385780,2619632,2392190,2621566,2742,2123,4437,3265,-3139,-2683,-2532,9289,52,32,819
341802,2386036,2619804,2392420,2621796,2607,2050,4277,2960,-2962,-2894,-2231,5745,56,40,821
342795,2386264,2619960,2392617,2621993,2770,2168,3508,2463,-2762,-2538,-2164,5617,56,40,821
343796,2386524,2620100,2392814,2622190,2544,2293,3006,2035,-2587,-2348,-1669,5407,60,30,820
344797,2386796,2620232,2393011,2622387,2437,2373,2775,1612,-2442,-2107,-1384,5014,60,30,820
345798,2387084,2620392,2393208,2622584,2298,2214,2611,1082,-2367,-1761,-1023,4368,47,40,820
346799,2387352,2620528,2393405,2622781,2393,2392,2384,462,-2366,-1599,-607,4091,47,40,820
347800,2387656,2620680,2393602,2622978,2122,2311,2127,-290,-2408,-1402,-164,3687,56,36,821
348801,2387964,2620824,2393799,2623175,2050,2385,1862,-1049,-2477,-1146,55,3685,56,36,821
349802,2388264,2620984,2393996,2623372,2055,2302,1669,-1784,-2520,-900,21,3749,57,41,822
350804,2388568,2621128,2394193,2623569,1984,2425,1561,-2372,-2503,-592,-195,3971,57,41,822
351804,2388872,2621312,2394390,2623766,1938,2182,1479,-2929,-2442,-455,-258,3899,70,37,824
352805,2389200,2621468,2394587,2623963,1732,2375,1400,-3471,-2349,-331,-273,3872,70,37,824
353806,2389544,2621628,2394784,2624160,1568,2367,1355,-3997,-2273,-226,-224,3751,54,35,824
354807,2389864,2621772,2394981,2624357,1665,2490,1340,-4480,-2260,-395,53,3831,54,35,824
355808,2390184,2621928,2395178,2624554,1612,2435,1333,-4884,-2294,-573,169,4057,74,26,824
356809,2390480,2622084,2395375,2624751,1720,2453,1324,-5191,-2347,-636,-11,4116,74,26,824
357810,2390836,2622240,2395572,2624948,1276,2472,1335,-5401,-2370,-788,-377,4391,66,43,825
358811,2391156,2622408,2395769,2625145,1448,2409,1372,-5463,-2320,-910,-780,4505,66,43,825
359812,2391464,2622580,2395966,2625342,1475,2396,1427,-5462,-2197,-1082,-1083,4585,56,29,825
360813,2391812,2622748,2396163,2625539,1160,2434,1518,-5371,-2015,-1265,-1328,4740,56,29,825
361814,2392144,2622896,2396360,2625736,1200,2582,1666,-5212,-1817,-1372,-1445,4723,59,29,826
362815,2392444,2623040,2396557,2625933,1356,2630,1856,-5010,-1637,-1604,-1375,4627,59,29,826
363816,2392788,2623176,2396754,2626130,1017,2708,2103,-4778,-1440,-1797,-1493,4524,67,44,827
364817,2393084,2623348,2396951,2626327,1275,2494,2407,-4539,-1229,-1854,-1607,4361,67,44,827
365818,2393396,2623524,2397148,2626524,1124,2479,2731,-4268,-1022,-1979,-1570,4161,69,39,824
366819,2393740,2623684,2397345,2626721,861,2596,3080,-3953,-819,-2016,-1661,4064,69,39,824
367820,2393992,2623848,2397542,2626918,1413,2586,3433,-3652,-607,-1963,-1837,3972,51,41,826
368821,2394236,2624028,2397739,2627115,1442,2494,3782,-3296,-369,-1929,-1945,4033,51,41,826
369822,2394500,2624208,2397936,2627312,1288,2502,4109,-2882,-121,-1788,-1984,3923,47,35,827
370823,2394784,2624396,2398133,2627509,1126,2457,4418,-2456,120,-1702,-1917,3765,47,35,827
371824,2395040,2624592,2398330,2627706,1275,2407,4731,-2069,341,-1569,-1540,3401,63,37,826
372825,2395328,2624760,2398527,2627903,1036,2596,5047,-1785,486,-1416,-911,3002,63,37,826
373827,2395596,2624944,2398724,2628100,1131,2502,5353,-1579,573,-1224,-859,2495,50,47,827
374827,2395888,2625148,2398921,2628297,939,2374,5627,-1479,665,-925,-1421,2115,50,47,827
375829,2396184,2625352,2399118,2628494,872,2372,5829,-1466,754,-732,-1277,1797,64,32,827
376829,2396480,2625536,2399315,2628691,828,2503,5947,-1542,821,-575,-977,1316,64,32,827
377830,2396760,2625696,2399512,2628888,893,2670,5957,-1667,872,-296,-877,1000,54,46,827
378831,2397028,2625876,2399709,2629085,937,2554,5883,-1896,912,-65,-666,584,54,46,827
379832,2397380,2626100,2399906,2629282,345,2267,5774,-2171,928,111,-458,327,52,37,828
380833,2397644,2626344,2400103,2629479,865,2122,5648,-2506,888,182,-184,11,52,37,828
381834,2397928,2626568,2400300,2629676,703,2236,5481,-2819,807,289,-111,-23,60,51,828
382835,2398252,2626796,2400497,2629873,397,2198,5290,-3141,734,411,-188,-210,60,51,828
383836,2398536,2627032,2400694,2630070,610,2132,5091,-3517,720,528,-328,-252,59,43,830
384837,2398820,2627288,2400891,2630267,572,1981,4877,-3760,754,536,-333,-58,59,43,830
385838,2399108,2627520,2401088,2630464,508,2116,4634,-3962,813,487,-368,-95,56,44,831
386839,2399356,2627808,2401285,2630661,735,1726,4379,-4071,895,546,-526,-33,56,44,831
387840,2399604,2628048,2401482,2630858,713,2008,4111,-4241,1023,536,-525,-215,39,40,831
388841,2399844,2628256,2401679,2631055,745,2204,3814,-4433,1173,625,-388,-290,39,40,831
389842,2400100,2628496,2401876,2631252,619,1986,3500,-4630,1323,634,-150,-383,39,54,832
390843,2400320,2628756,2402073,2631449,834,1834,3176,-4794,1480,557,-29,-345,39,54,832
391844,2400580,2629032,2402270,2631646,557,1699,2850,-4938,1654,680,-68,-365,40,52,831
392845,2400788,2629248,2402467,2631843,877,2067,2550,-5082,1882,886,10,-458,40,52,831
393846,2400992,2629468,2402664,2632040,899,2032,2253,-5172,2174,1055,169,-298,51,39,832
394847,2401180,2629672,2402861,2632237,1004,2130,1944,-5308,2485,1186,330,-443,51,39,832
395848,2401372,2629868,2403058,2632434,981,2180,1621,-5470,2808,1286,517,-296,33,38,831
396849,2401560,2630076,2403255,2632631,1010,2100,1299,-5597,3142,1486,734,-222,33,38,831
397850,2401764,2630296,2403452,2632828,908,2016,980,-5676,3459,1725,1015,-154,50,34,830
398852,2401936,2630464,2403649,2633025,1119,2354,648,-5670,3759,1850,1290,191,50,34,830
399852,2402116,2630628,2403846,2633222,1077,2394,308,-5609,4043,1961,1595,322,43,28,829
400853,2402276,2630788,2404043,2633419,1219,2436,-55,-5528,4300,2229,1630,533,43,28,829
401854,2402460,2630912,2404240,2633616,1075,2694,-454,-5444,4487,2428,1822,650,29,28,828
402855,2402616,2631064,2404437,2633813,1268,2539,-869,-5354,4583,2678,1864,711,29,28,828
403856,2402780,2631188,2404634,2634010,1233,2747,-1302,-5229,4593,2835,2027,1014,43,32,826
404857,2402952,2631308,2404831,2634207,1194,2806,-1755,-5067,4533,2957,2075,1415,43,32,826
405858,2403112,2631440,2405028,2634404,1285,2760,-2205,-4833,4422,3252,2025,1773,27,32,826
406859,2403252,2631536,2405225,2634601,1437,3030,-2628,-4542,4306,3595,1831,2110,27,32,826
407860,2403424,2631640,2405422,2634798,1248,3021,-3030,-4186,4191,3909,1582,2450,25,28,824
408861,2403592,2631760,2405619,2634995,1285,2956,-3426,-3851,4030,4178,1522,2595,25,28,824
409862,2403744,2631856,2405816,2635192,1406,3151,-3863,-3551,3795,4443,1556,2787,23,28,820
410863,2403932,2631948,2406013,2635389,1185,3223,-4435,-3097,3526,4837,1183,4030,23,28,820
411864,2404100,2632076,2406210,2635586,1324,3029,-5025,-2570,3252,5215,1186,3888,32,15,819
412865,2404260,2632208,2406407,2635783,1390,3033,-5548,-2165,2954,5420,1168,3694,32,15,819
413866,2404444,2632316,2406604,2635980,1246,3223,-6012,-1750,2614,5687,1284,4228,36,31,821
414868,2404628,2632428,2406801,2636177,1252,3236,-6419,-1389,2177,5854,1726,4162,36,31,821
415868,2404788,2632548,2406998,2636374,1419,3220,-6728,-1145,1664,5842,1688,3900,44,27,822
416869,2404964,2632668,2407195,2636571,1329,3255,-6923,-973,1125,5851,1582,3875,44,27,822
417870,2405148,2632824,2407392,2636768,1285,3049,-7031,-811,592,5777,1423,4027,46,32,821
418871,2405332,2632952,2407589,2636965,1291,3255,-7057,-607,95,5595,895,4244,46,32,821
419872,2405520,2633116,2407786,2637162,1270,3045,-7036,-331,-353,5347,654,4618,32,20,820
420873,2405692,2633248,2407983,2637359,1381,3274,-6990,128,-731,5024,470,5276,32,20,820
421874,2405872,2633388,2408180,2637556,1340,3250,-6929,658,-1012,4592,236,5707,33,22,820
422875,2406064,2633540,2408377,2637753,1267,3196,-6826,1256,-1231,4178,119,5939,33,22,820
423876,2406256,2633700,2408574,2637950,1270,3163,-6656,1816,-1458,3803,415,5928,39,34,820
424884,2406424,2633880,2408804,2638180,1447,3060,-6400,2287,-1760,3500,977,5744,39,34,820
425878,2406604,2634056,2409001,2638377,1381,3095,-6032,2643,-2104,3264,1069,5580,35,27,821
426879,2406776,2634264,2409198,2638574,1442,2892,-5590,2924,-2414,2979,794,5362,35,27,821
427880,2406968,2634468,2409395,2638771,1320,2914,-5147,3098,-2663,2663,774,5295,34,35,822
428881,2407140,2634696,2409592,2638968,1456,2752,-4697,3283,-2835,2254,507,5325,34,35,822
429882,2407308,2634924,2409789,2639165,1494,2739,-4247,3514,-2934,1579,268,5632,43,52,823
430883,2407472,2635172,2409986,2639362,1534,2592,-3845,3838,-2988,628,215,5932,43,52,823
431884,2407608,2635412,2410183,2639559,1736,2624,-3466,4179,-2989,-285,-313,5986,27,40,823
432885,2407800,2635656,2410380,2639756,1389,2579,-3067,4513,-2933,-1061,-711,6160,27,40,823
433886,2407964,2635904,2410577,2639953,1579,2533,-2627,4853,-2822,-1756,-827,6216,31,44,823
434887,2408100,2636164,2410774,2640150,1782,2430,-2220,5306,-2658,-2476,-1039,6689,31,44,823
435888,2408260,2636428,2410971,2640347,1648,2377,-1867,5788,-2437,-3253,-1209,6883,46,46,825
436889,2408404,2636652,2411168,2640544,1772,2616,-1514,6252,-2155,-3816,-1569,6834,46,46,825
437890,2408556,2636884,2411365,2640741,1742,2551,-1121,6658,-1808,-4150,-1869,6853,25,60,825
438891,2408700,2637168,2411562,2640938,1816,2188,-703,6972,-1416,-4470,-1979,6588,25,60,825
439892,2408880,2637456,2411759,2641135,1600,2124,-289,7120,-1010,-4687,-2073,6201,43,59,824
440893,2409016,2637704,2411956,2641332,1901,2353,104,7117,-594,-4613,-2151,5849,43,59,824
441894,2409144,2637968,2412153,2641529,1983,2224,468,7010,-138,-4406,-2348,5670,22,45,826
442895,2409260,2638248,2412350,2641726,2093,2088,800,6822,371,-4262,-2594,5382,22,45,826
443896,2409360,2638540,2412547,2641923,2237,1972,1065,6587,897,-4125,-2853,5372,26,54,823
444897,2409492,2638804,2412744,2642120,2066,2119,1293,6214,1385,-3795,-2832,4959,26,54,823
445898,2409608,2639044,2412941,2642317,2202,2250,1489,5751,1797,-3388,-2746,4725,22,51,825
446899,2409744,2639316,2413138,2642514,2105,2018,1633,5172,2122,-3024,-2453,4381,22,51,825
447900,2409872,2639584,2413335,2642711,2185,2012,1718,4472,2353,-2656,-1976,4018,26,56,825
448901,2410012,2639844,2413532,2642908,2136,2035,1756,3695,2507,-2258,-1677,3849,26,56,825
449902,2410156,2640092,2413729,2643105,2136,2089,1746,2908,2602,-1760,-1253,3716,26,56,825
450903,2410300,2640332,2413926,2643302,2159,2120,1703,2057,2635,-1284,-804,3619,26,56,825
451904,2410444,2640556,2414123,2643499,2183,2209,1643,1187,2610,-823,-373,3634,39,58,824
452905,2410576,2640804,2414320,2643696,2288,2036,1576,329,2540,-375,-24,3622,39,58,824
453906,2410716,2641096,2414517,2643893,2263,1721,1500,-491,2429,-63,253,3687,31,59,824
454907,2410880,2641384,2414714,2644090,2128,1706,1419,-1267,2297,161,336,3850,31,59,824
455908,2411040,2641660,2414911,2644287,2171,1747,1368,-2004,2170,341,294,3934,40,58,823
456909,2411192,2641900,2415108,2644484,2241,1953,1383,-2665,2066,503,242,4102,40,58,823
457910,2411368,2642192,2415305,2644681,2101,1587,1454,-3238,1985,552,168,4285,26,58,826
458911,2411548,2642496,2415502,2644878,2084,1465,1535,-3746,1898,418,235,4518,26,58,826
459912,2411740,2642800,2415699,2645075,2012,1419,1626,-4166,1805,249,274,4669,30,67,824
460913,2411944,2643076,2415896,2645272,1935,1560,1727,-4440,1740,180,310,5062,30,67,824
461914,2412104,2643312,2416093,2645469,2226,1793,1832,-4582,1720,78,398,5294,51,58,828
462915,2412296,2643592,2416290,2645666,2030,1482,1938,-4584,1722,-142,539,5544,51,58,828
463917,2412492,2643916,2416487,2645863,2006,1151,2054,-4505,1725,-405,620,5800,39,59,828
464918,2412684,2644208,2416684,2646060,2034,1310,2176,-4378,1710,-618,764,5897,39,59,828
465918,2412876,2644484,2416881,2646257,2037,1376,2317,-4146,1699,-852,809,6058,36,45,827
466919,2413104,2644716,2417078,2646454,1799,1635,2472,-3819,1687,-1129,954,6065,36,45,827
467920,2413300,2645012,2417275,2646651,2000,1193,2633,-3426,1675,-1389,932,6279,34,59,829
468921,2413508,2645344,2417472,2646848,1921,908,2801,-2970,1659,-1503,757,6179,34,59,829
469922,2413708,2645612,2417669,2647045,1970,1277,2947,-2519,1658,-1518,489,6016,37,53,829
470923,2413912,2645864,2417866,2647242,1943,1354,3075,-2089,1699,-1439,7,5821,37,53,829
471924,2414124,2646100,2418063,2647439,1888,1437,3203,-1701,1788,-1429,-343,5608,37,53,831
472925,2414360,2646316,2418260,2647636,1721,1554,3335,-1261,1909,-1435,-546,5657,37,53,831
473926,2414556,2646592,2418457,2647833,1972,1144,3479,-813,2033,-1351,-566,5436,56,56,829
474927,2414752,2646876,2418654,2648030,1973,1057,3625,-382,2131,-1130,-333,5197,56,56,829
475928,2414944,2647132,2418851,2648227,2001,1206,3758,-18,2182,-870,-67,4829,35,48,829
476929,2415160,2647368,2419048,2648424,1844,1314,3857,305,2215,-652,21,4544,35,48,829
477930,2415360,2647564,2419245,2648621,1943,1564,3916,548,2235,-493,327,4154,53,38,829
478931,2415548,2647760,2419442,2648818,2023,1565,3936,683,2255,-274,469,3854,53,38,829
479932,2415752,2648020,2419639,2649015,1921,1138,3928,765,2287,106,185,3470,31,38,830
480933,2415936,2648252,2419836,2649212,2052,1297,3883,781,2322,507,222,3104,31,38,830
481934,2416124,2648456,2420033,2649409,2031,1469,3795,715,2327,884,588,2858,47,49,827
482935,2416308,2648664,2420230,2649606,2063,1439,3680,561,2303,1282,638,2502,47,49,827
483936,2416504,2648876,2420427,2649803,1989,1408,3553,398,2270,1595,854,2320,38,47,829
484937,2416680,2649068,2420624,2650000,2125,1536,3416,171,2240,1861,814,2159,38,47,829
485938,2416912,2649268,2420821,2650197,1759,1485,3252,-14,2186,2013,902,2176,53,46,828
486939,2417120,2649492,2421018,2650394,1905,1323,3040,-190,2063,2121,1304,2087,53,46,828
487940,2417292,2649712,2421215,2650591,2142,1338,2787,-348,1882,2259,1146,2025,31,32,827
488941,2417496,2649912,2421412,2650788,1940,1461,2518,-514,1676,2265,1083,1983,31,32,827
489942,2417640,2650088,2421609,2650985,2339,1621,2232,-639,1411,2211,1377,2020,30,29,829
490943,2417804,2650288,2421806,2651182,2229,1470,1927,-737,1096,2095,1309,2146,30,29,829
491944,2417948,2650464,2422003,2651379,2378,1630,1597,-759,771,2030,904,2274,19,27,828
492945,2418076,2650632,2422200,2651576,2510,1692,1226,-705,486,2024,462,2399,19,27,828
493946,2418224,2650872,2422397,2651773,2406,1223,848,-575,255,1936,901,2445,21,33,827
494947,2418408,2651104,2422594,2651970,2188,1258,461,-478,69,1879,1221,2443,21,33,827
495948,2418548,2651312,2422791,2652167,2489,1404,90,-415,-71,1780,1336,2369,28,37,824
496949,2418672,2651528,2422988,2652364,2622,1346,-268,-371,-197,1633,1537,2409,28,37,824
497950,2418844,2651724,2423185,2652561,2334,1471,-620,-271,-324,1562,1232,2395,32,38,827
498951,2419012,2651880,2423382,2652758,2372,1739,-973,-186,-420,1548,921,2326,32,38,827
499952,2419184,2652092,2423579,2652955,2359,1383,-1298,-125,-471,1640,421,2323,44,48,824
500953,2419376,2652316,2423776,2653152,2237,1296,-1577,-72,-492,1706,45,2342,44,48,824
501954,2419552,2652544,2423973,2653349,2347,1257,-1835,-8,-537,1599,146,2391,30,48,825
502955,2419772,2652768,2424170,2653546,2063,1271,-2078,46,-590,1600,263,2419,30,48,825
503956,2419976,2652956,2424367,2653743,2161,1500,-2298,76,-631,1726,533,2389,44,31,827
504957,2420184,2653112,2424564,2653940,2131,1718,-2524,158,-623,1971,434,2478,44,31,827
505958,2420368,2653316,2424761,2654137,2288,1415,-2753,163,-581,2163,308,2323,50,31,828
506959,2420568,2653508,2424958,2654334,2188,1492,-2998,151,-534,2167,265,2332,50,31,828
507967,2420772,2653736,2425188,2654564,2175,1268,-3271,98,-515,2098,375,2332,29,35,827
508961,2420940,2653912,2425385,2654761,2414,1604,-3542,15,-516,2154,239,2376,29,35,827
509962,2421180,2654060,2425582,2654958,1946,1800,-3774,-93,-529,2213,194,2478,35,23,827
510963,2421428,2654216,2425779,2655155,1874,1768,-3977,-136,-557,2165,43,2604,35,23,827
511964,2421636,2654360,2425976,2655352,2120,1866,-4167,-134,-594,2255,-169,2841,35,35,825
512965,2421860,2654496,2426173,2655549,2009,1943,-4335,-119,-641,2270,-346,2990,35,35,825
513966,2422084,2654616,2426370,2655746,1998,2077,-4485,-49,-698,2322,-537,3244,34,18,827
514967,2422328,2654720,2426567,2655943,1853,2219,-4626,6,-778,2387,-719,3250,34,18,827
515968,2422596,2654832,2426764,2656140,1673,2206,-4758,33,-871,2396,-906,3401,37,21,826
516969,2422876,2655004,2426961,2656337,1562,1842,-4861,50,-984,2405,-1025,3435,37,21,826
517970,2423068,2655180,2427158,2656534,2115,1827,-4922,48,-1128,2393,-1113,3362,41,31,825
518971,2423316,2655376,2427355,2656731,1743,1703,-4961,35,-1297,2389,-1178,3408,41,31,825
519972,2423572,2655544,2427552,2656928,1669,1891,-4973,-1,-1469,2371,-1308,3515,54,27,828
520973,2423796,2655704,2427749,2657125,1857,1957,-4969,-15,-1625,2354,-1316,3665,54,27,828
521974,2424024,2655824,2427946,2657322,1819,2241,-4967,-3,-1743,2293,-1329,3862,51,27,827
522975,2424268,2655984,2428143,2657519,1699,2008,-4956,29,-1822,2305,-1442,3990,51,27,827
523976,2424468,2656132,2428340,2657716,1974,2105,-4939,43,-1856,2339,-1549,3974,39,23,826
524977,2424668,2656312,2428537,2657913,1973,1912,-4905,70,-1851,2309,-1449,4176,39,23,826
525978,2424916,2656472,2428734,2658110,1651,2054,-4854,116,-1831,2239,-1176,4250,39,23,827
526979,2425140,2656632,2428931,2658307,1790,2071,-4772,140,-1792,2058,-1137,4310,39,23,827
527980,2425324,2656780,2429128,2658504,2047,2167,-4666,210,-1742,1860,-1109,4532,51,35,826
528981,2425576,2656960,2429325,2658701,1598,1976,-4520,297,-1686,1733,-1215,4649,51,35,826
529982,2425852,2657108,2429522,2658898,1414,2197,-4346,469,-1617,1563,-1532,4968,47,37,826
530983,2426096,2657272,2429719,2659095,1595,2112,-4130,713,-1550,1272,-1496,5168,47,37,826
531984,2426336,2657420,2429916,2659292,1601,2234,-3883,1045,-1508,994,-1644,5393,35,39,826
532985,2426592,2657568,2430113,2659489,1476,2256,-3611,1397,-1469,709,-1880,5578,35,39,826
533986,2426808,2657696,2430310,2659686,1718,2411,-3322,1755,-1427,501,-1970,5644,53,26,826
534987,2427012,2657896,2430507,2659883,1790,1961,-3020,2113,-1381,310,-1995,5764,53,26,826
535988,2427240,2658092,2430704,2660080,1628,1986,-2751,2500,-1336,163,-1582,5826,49,42,827
536989,2427444,2658288,2430901,2660277,1776,1987,-2537,2894,-1311,91,-990,5949,49,42,827
537990,2427616,2658452,2431098,2660474,1987,2202,-2359,3256,-1286,119,-816,5873,40,35,827
538991,2427848,2658592,2431295,2660671,1597,2377,-2174,3574,-1243,132,-1131,5793,40,35,827
539992,2428044,2658736,2431492,2660868,1824,2376,-1964,3845,-1160,200,-1849,5770,43,27,826
540993,2428276,2658920,2431689,2661065,1583,2132,-1712,4049,-1022,257,-2644,5569,43,27,826
541994,2428508,2659100,2431886,2661262,1569,2165,-1411,4120,-871,263,-2926,5121,41,27,824
542995,2428708,2659272,2432083,2661459,1769,2227,-1095,3995,-730,259,-2986,4612,41,27,824
543996,2428896,2659444,2432280,2661656,1848,2238,-770,3716,-590,235,-2878,4176,30,29,826
544997,2429152,2659596,2432477,2661853,1398,2383,-454,3342,-471,218,-2248,3962,30,29,826
545998,2429352,2659820,2432674,2662050,1747,1921,-173,2917,-417,91,-951,3918,53,26,825
546999,2429556,2659972,2432871,2662247,1719,2392,58,2506,-406,157,-190,3936,53,26,825
548000,2429752,2660168,2433068,2662444,1771,2118,254,2131,-364,349,-308,4081,44,45,826
549001,2429944,2660296,2433265,2662641,1799,2573,402,1864,-282,376,-820,4475,44,45,826
550002,2430104,2660484,2433462,2662838,2015,2203,515,1710,-186,509,-1120,4652,25,28,825
551003,2430308,2660664,2433659,2663035,1738,2260,603,1525,-101,640,-1250,4530,25,28,825
552004,2430492,2660840,2433856,2663232,1869,2296,679,1299,-16,750,-1513,4512,28,37,823
553005,2430676,2661008,2434053,2663429,1876,2358,774,1074,104,850,-2142,4420,28,37,823
554006,2430828,2661188,2434250,2663626,2096,2292,872,809,252,669,-2305,4373,45,43,823
555007,2431000,2661364,2434447,2663823,1982,2326,941,634,439,526,-2604,4637,45,43,823
556008,2431156,2661564,2434644,2664020,2101,2176,999,484,621,442,-2244,4701,43,47,824
557009,2431280,2661760,2434841,2664217,2334,2201,1031,431,779,551,-1903,4839,43,47,824
558010,2431480,2661980,2435038,2664414,1858,2042,1057,347,900,569,-1353,4637,28,53,823
559011,2431632,2662176,2435235,2664611,2179,2193,1091,213,997,601,-1090,4528,28,53,823
560012,2431784,2662408,2435432,2664808,2200,1952,1142,17,1067,587,-809,4388,43,35,823
561013,2431984,2662616,2435629,2665005,1898,2098,1194,-157,1126,656,-718,4432,43,35,823
562014,2432136,2662824,2435826,2665202,2219,2094,1239,-275,1181,674,-679,4391,40,35,823
563015,2432264,2662980,2436023,2665399,2400,2438,1275,-361,1229,577,-883,4546,40,35,823
564016,2432476,2663168,2436220,2665596,1870,2241,1302,-341,1263,503,-1155,4814,40,35,824
565017,2432620,2663324,2436417,2665793,2318,2461,1344,-283,1239,391,-967,4927,40,35,824
566018,2432752,2663524,2436614,2665990,2423,2184,1410,-120,1185,491,-1292,5166,26,38,819
567019,2432924,2663716,2436811,2666187,2185,2237,1504,-2,1157,654,-1794,4986,26,38,819
568020,2433072,2663916,2437008,2666384,2356,2186,1600,118,1140,828,-1716,4932,19,48,821
569021,2433224,2664116,2437205,2666581,2352,2186,1681,114,1116,971,-1558,4467,19,48,821
570022,2433408,2664292,2437402,2666778,2159,2345,1711,76,1051,1041,-1189,4318,23,45,823
571023,2433588,2664460,2437599,2666975,2192,2409,1726,16,985,992,-1183,4245,23,45,823
572024,2433736,2664620,2437796,2667172,2414,2475,1761,-21,947,836,-1278,4246,33,46,822
573025,2433936,2664800,2437993,2667369,2088,2358,1808,-131,918,838,-933,4020,33,46,822
574026,2434060,2664976,2438190,2667566,2596,2393,1853,-184,881,817,-184,4180,30,40,822
575027,2434184,2665188,2438387,2667763,2630,2161,1874,-150,860,759,-158,4297,30,40,822
576028,2434356,2665352,2438584,2667960,2342,2477,1849,-66,872,637,-258,4406,20,46,821
577029,2434508,2665544,2438781,2668157,2486,2304,1829,27,892,431,23,4473,20,46,821
578030,2434632,2665708,2438978,2668354,2694,2494,1844,115,855,342,15,4355,39,46,821
579031,2434768,2665876,2439175,2668551,2647,2482,1866,258,770,216,-165,4456,39,46,821
580032,2434944,2666056,2439372,2668748,2407,2416,1896,385,672,-16,-357,4312,27,49,821
581033,2435092,2666268,2439569,2668945,2605,2210,1917,467,576,-174,-511,4314,27,49,821
582034,2435236,2666452,2439766,2669142,2654,2391,1917,620,513,-231,-613,4428,39,29,819
583035,2435408,2666640,2439963,2669339,2490,2371,1902,763,506,-251,-893,4227,39,29,819
584036,2435548,2666824,2440160,2669536,2716,2401,1846,872,593,-224,-1495,4185,42,34,820
585037,2435692,2667000,2440357,2669733,2716,2462,1776,867,739,-330,-1121,3802,42,34,820
586038,2435856,2667192,2440554,2669930,2606,2364,1698,781,910,-283,-956,3585,24,33,819
587039,2436020,2667388,2440751,2670127,2622,2340,1644,644,1064,-372,-230,3288,24,33,819
588040,2436156,2667616,2440948,2670324,2824,2127,1620,416,1178,-461,166,3116,32,35,817
589041,2436316,2667816,2441145,2670521,2692,2301,1626,216,1275,-401,326,3183,32,35,817
590042,2436508,2668032,2441342,2670718,2495,2193,1647,34,1400,-382,420,3238,27,50,819
591052,2436644,2668248,2441572,2670948,2887,2200,1661,17,1570,-375,126,3626,27,50,819
592044,2436788,2668472,2441769,2671145,2861,2138,1678,-4,1760,-589,29,3612,20,35,819
593045,2436944,2668692,2441966,2671342,2805,2154,1688,102,1909,-740,63,3980,20,35,819
594046,2437104,2668916,2442163,2671539,2797,2117,1696,176,1958,-851,212,3794,34,51,818
595048,2437260,2669148,2442360,2671736,2841,2053,1693,254,1912,-987,149,3837,34,51,818
596048,2437428,2669400,2442557,2671933,2779,1904,1680,321,1839,-1131,25,3849,32,42,819
597049,2437604,2669628,2442754,2672130,2740,2041,1665,334,1802,-1155,-1,3806,32,42,819
598051,2437768,2669820,2442951,2672327,2830,2268,1637,406,1801,-1064,121,3884,47,39,818
599051,2437940,2670060,2443148,2672524,2792,1950,1598,386,1822,-958,304,3657,47,39,818
600052,2438120,2670300,2443345,2672721,2751,1931,1542,403,1889,-718,226,3810,47,54,821
601053,2438300,2670584,2443542,2672918,2759,1619,1498,312,1994,-466,82,3419,47,54,821
602054,2438464,2670808,2443739,2673115,2875,1982,1486,219,2126,-244,-88,3527,44,53,821
603055,2438648,2671044,2443936,2673312,2756,1890,1528,23,2234,-171,485,3197,44,53,821
604056,2438820,2671260,2444133,2673509,2843,2008,1598,-226,2275,-68,869,3182,31,48,822
605057,2438984,2671508,2444330,2673706,2909,1785,1667,-471,2259,88,825,3105,41,43,821
606058,2439176,2671800,2444527,2673903,2737,1470,1729,-683,2222,256,1114,3290,41,43,821
607059,2439336,2672064,2444724,2674100,2954,1615,1760,-815,2207,373,1168,3604,37,57,820
608060,2439548,2672392,2444921,2674297,2624,1158,1745,-857,2243,431,1041,3892,37,57,820
609061,2439716,2672564,2445118,2674494,2912,2145,1706,-799,2309,437,899,4224,25,40,820
610062,2439880,2672708,2445315,2674691,2953,2343,1665,-682,2333,394,951,4352,25,40,820
611063,2440028,2672860,2445512,2674888,3076,2314,1641,-558,2295,321,1057,4408,23,42,819
612064,2440168,2673008,2445709,2675085,3153,2360,1623,-400,2198,207,1036,4444,23,42,819
613065,2440324,2673168,2445906,2675282,3072,2302,1617,-258,2039,134,1439,4481,30,25,817
614066,2440456,2673352,2446103,2675479,3251,2158,1599,-66,1794,-70,2168,4610,30,25,817
615067,2440588,2673564,2446300,2675676,3281,1977,1561,153,1448,-199,2326,4768,22,33,817
616068,2440736,2673796,2446497,2675873,3203,1837,1532,417,1052,-287,2202,4903,22,33,817
617069,2440852,2674132,2446694,2676070,3440,1126,1489,773,693,-213,2096,5295,29,52,817
618070,2441032,2674328,2446891,2676267,3048,2002,1412,1107,433,-110,2154,5151,29,52,817
619071,2441240,2674640,2447088,2676464,2869,1227,1312,1414,302,3,2148,5109,53,59,819
620072,2441416,2674928,2447285,2676661,3080,1337,1232,1595,262,105,2092,4642,53,59,819
621073,2441576,2675188,2447482,2676858,3197,1484,1145,1649,260,263,2343,4435,43,58,824
622074,2441740,2675440,2447679,2677055,3188,1511,1048,1630,244,304,2445,4214,43,58,824
623075,2441912,2675764,2447876,2677252,3150,1005,962,1612,211,276,2220,4199,45,67,820
624076,2442064,2676052,2448073,2677449,3296,1190,892,1639,171,140,2134,4370,45,67,820
625077,2442204,2676332,2448270,2677646,3397,1205,807,1684,105,1,2190,4329,43,56,822
626078,2442352,2676588,2448467,2677843,3370,1329,693,1739,19,43,2104,4252,43,56,822
627079,2442484,2676908,2448664,2678040,3499,875,573,1750,-42,-1,1750,4019,22,70,820
628080,2442628,2677252,2448861,2678237,3449,660,444,1761,-25,25,1316,4109,22,70,820
629081,2442780,2677584,2449058,2678434,3420,676,308,1741,65,73,1150,4027,24,55,818
630082,2442924,2677868,2449255,2678631,3495,939,166,1772,112,-43,1480,4191,24,55,818
631083,2443052,2678168,2449452,2678828,3626,794,-4,1749,33,-118,1982,4031,40,56,820
632084,2443180,2678496,2449649,2679025,3657,561,-198,1705,-180,-188,2323,3965,40,56,820
633085,2443352,2678768,2449846,2679222,3394,878,-410,1763,-467,-284,2303,4262,46,61,820
634086,2443496,2679032,2450043,2679419,3595,899,-632,1896,-748,-210,1957,4475,46,61,820
635087,2443672,2679244,2450240,2679616,3405,1217,-894,2201,-972,-98,1627,4962,28,53,821
636088,2443852,2679456,2450437,2679813,3388,1210,-1186,2534,-1144,34,1706,4963,28,53,821
637089,2444036,2679692,2450634,2680010,3370,1043,-1516,2886,-1311,216,1961,5116,38,44,820
638090,2444200,2679900,2450831,2680207,3512,1213,-1842,3194,-1446,364,2157,5001,38,44,820
639091,2444404,2680116,2451028,2680404,3259,1155,-2122,3523,-1500,553,2052,5068,30,42,820
640092,2444596,2680320,2451225,2680601,3338,1227,-2313,3801,-1483,695,1854,4855,30,42,820
641093,2444788,2680516,2451422,2680798,3342,1277,-2440,4015,-1466,797,1828,4807,36,33,820
642094,2445028,2680664,2451619,2680995,3024,1600,-2496,4273,-1435,1051,1704,4936,36,33,820
643095,2445220,2680828,2451816,2681192,3327,1514,-2494,4439,-1452,1130,2056,4450,50,42,820
644096,2445432,2681028,2452013,2681389,3197,1288,-2470,4465,-1569,1139,2360,4082,50,42,820
645097,2445688,2681244,2452210,2681586,2898,1180,-2424,4393,-1766,1233,2386,3831,59,46,820
646098,2445912,2681416,2452407,2681783,3087,1466,-2357,4329,-1979,1258,2230,3870,59,46,820
647099,2446132,2681556,2452604,2681980,3103,1691,-2271,4298,-2163,1261,2095,3954,45,32,823
648100,2446400,2681700,2452801,2682177,2772,1689,-2219,4366,-2317,1410,2017,4220,45,32,823
649101,2446640,2681868,2452998,2682374,2930,1552,-2250,4529,-2429,1452,1688,4587,49,28,820
650102,2446860,2682032,2453195,2682571,3046,1591,-2352,4776,-2537,1297,1341,4760,49,28,820
651103,2447108,2682192,2453392,2682768,2850,1633,-2471,5111,-2670,1012,858,4950,37,38,821
652104,2447356,2682336,2453589,2682965,2829,1756,-2574,5407,-2823,580,444,4949,37,38,821
653105,2447600,2682464,2453786,2683162,2834,1886,-2614,5679,-3072,138,309,4922,43,39,821
654106,2447844,2682632,2453983,2683359,2814,1650,-2624,5968,-3459,-519,99,4943,43,39,821
655107,2448104,2682804,2454180,2683556,2689,1636,-2636,6282,-3933,-1094,44,5167,39,22,821
656108,2448336,2682976,2454377,2683753,2849,1647,-2676,6568,-4441,-1482,62,5151,39,22,821
657109,2448560,2683100,2454574,2683950,2888,1979,-2706,6973,-4918,-1799,-633,5479,59,37,823
658110,2448788,2683216,2454771,2684147,2851,2065,-2672,7376,-5342,-2101,-1286,5392,59,37,823
659111,2449020,2683340,2454968,2684344,2811,2047,-2640,7688,-5706,-2315,-1835,5347,54,29,821
660112,2449248,2683508,2455165,2684541,2824,1785,-2603,7900,-5948,-2496,-2319,4986,54,29,821
661113,2449456,2683716,2455362,2684738,2945,1531,-2550,8037,-6057,-2650,-2780,4751,33,43,820
662114,2449668,2683852,2455559,2684935,2915,2007,-2446,7950,-6062,-2881,-3165,4196,33,43,820
663115,2449884,2683988,2455756,2685132,2883,2034,-2301,7707,-5947,-3117,-3675,3790,52,28,821
664116,2450096,2684152,2455953,2685329,2902,1874,-2132,7314,-5734,-3351,-4066,3309,52,28,821
665117,2450304,2684312,2456150,2685526,2924,1916,-1940,6765,-5450,-3589,-4302,2944,47,29,820
666118,2450508,2684532,2456347,2685723,2946,1531,-1721,6067,-5107,-3802,-4503,2764,47,29,820
667119,2450756,2684668,2456544,2685920,2650,2083,-1508,5287,-4722,-3937,-4548,2572,48,28,820
668120,2450956,2684840,2456741,2686117,2950,1869,-1316,4516,-4307,-4055,-4483,2795,48,28,820
669121,2451176,2684988,2456938,2686314,2816,2041,-1128,3748,-3886,-4206,-4329,2894,36,39,821
670122,2451408,2685124,2457135,2686511,2726,2143,-955,2963,-3473,-4305,-4154,3019,36,39,821
671123,2451620,2685304,2457332,2686708,2847,1875,-824,2218,-3057,-4347,-3890,3157,35,33,819
672124,2451840,2685536,2457529,2686905,2788,1535,-738,1439,-2639,-4314,-3539,3152,35,33,819
673125,2452112,2685656,2457726,2687102,2431,2270,-658,318,-2230,-4661,-3116,2584,45,28,819
674133,2452360,2685780,2457956,2687332,2574,2292,-576,-1042,-1815,-4401,-2765,2697,45,28,819
675127,2452632,2685920,2458153,2687529,2392,2217,-589,-1791,-1443,-3814,-2733,4162,43,41,820
676128,2452940,2686064,2458350,2687726,2119,2215,-617,-2390,-1114,-3706,-2492,3849,43,41,820
677129,2453204,2686208,2458547,2687923,2365,2239,-640,-2774,-799,-3415,-2318,4782,64,27,822
678130,2453488,2686380,2458744,2688120,2203,2075,-650,-3259,-528,-2963,-2067,4460,64,27,822
679131,2453812,2686544,2458941,2688317,1898,2140,-652,-3694,-298,-2628,-1764,4987,72,41,821
680132,2454104,2686700,2459138,2688514,2058,2209,-636,-4081,-138,-2315,-1355,4991,72,41,821
681133,2454400,2686852,2459335,2688711,1990,2253,-600,-4508,-77,-1896,-857,5024,51,41,825
682134,2454732,2687008,2459532,2688908,1707,2246,-541,-4834,-82,-1525,-313,5297,51,41,825
683135,2455088,2687180,2459729,2689105,1488,2158,-451,-5175,-108,-873,32,5243,58,29,824
684136,2455404,2687332,2459926,2689302,1687,2303,-321,-5398,-130,-308,283,5576,58,29,824
685137,2455704,2687504,2460123,2689499,1742,2190,-152,-5656,-138,120,614,5414,63,36,826
686138,2456048,2687636,2460320,2689696,1403,2469,26,-5903,-153,802,861,5480,63,36,826
687139,2456368,2687800,2460517,2689893,1500,2283,199,-6196,-170,1290,1208,5203,73,44,825
688140,2456684,2687948,2460714,2690090,1473,2406,380,-6451,-180,1667,1527,5183,73,44,825
689141,2457032,2688112,2460911,2690287,1208,2320,548,-6735,-228,1942,1754,4979,69,44,826
690142,2457348,2688268,2461108,2690484,1356,2389,706,-6997,-299,2063,1813,5122,69,44,826
691143,2457648,2688412,2461305,2690681,1412,2488,862,-7142,-385,2163,1802,5443,74,33,827
692144,2457984,2688560,2461502,2690878,1126,2484,1033,-7132,-513,2120,1623,5604,74,33,827
693145,2458296,2688704,2461699,2691075,1227,2533,1213,-6981,-661,1933,1056,6058,50,36,825
694146,2458600,2688852,2461896,2691272,1230,2530,1407,-6697,-819,1807,341,6222,50,36,825
695147,2458900,2689024,2462093,2691469,1211,2392,1616,-6307,-997,1692,-18,6346,56,27,825
696148,2459184,2689184,2462290,2691666,1272,2483,1861,-5791,-1163,1379,-391,6508,56,27,825
697149,2459468,2689348,2462487,2691863,1235,2474,2143,-5213,-1317,1057,-703,6549,66,39,825
698150,2459740,2689508,2462684,2692060,1278,2515,2449,-4585,-1455,741,-954,6467,66,39,825
699151,2459992,2689668,2462881,2692257,1379,2532,2758,-3985,-1570,397,-1212,6229,64,38,826
700152,2460288,2689836,2463078,2692454,1062,2495,3069,-3409,-1669,73,-1445,5859,64,38,826
701153,2460548,2690020,2463275,2692651,1259,2402,3408,-2869,-1766,-395,-1646,5627,43,47,825
702154,2460804,2690200,2463472,2692848,1259,2434,3771,-2355,-1855,-745,-1830,5303,43,47,825
703155,2461064,2690388,2463669,2693045,1206,2389,4144,-1854,-1904,-971,-2093,5068,55,45,826
704156,2461380,2690576,2463866,2693242,805,2393,4513,-1356,-1860,-1113,-2404,4835,55,45,826
705157,2461628,2690748,2464063,2693439,1208,2505,4864,-865,-1725,-1180,-2775,4666,63,31,826
706158,2461872,2690924,2464260,2693636,1213,2489,5187,-403,-1509,-1228,-2978,4358,63,31,826
707159,2462156,2691084,2464457,2693833,925,2607,5456,74,-1219,-1250,-3011,4202,60,31,825
708160,2462460,2691256,2464654,2694030,754,2543,5645,477,-893,-1295,-2503,3757,60,31,825
709161,2462764,2691448,2464851,2694227,707,2421,5768,756,-567,-1343,-2102,3281,45,42,826
710162,2463020,2691636,2465048,2694424,981,2450,5879,927,-255,-1419,-1953,2780,45,42,826
711163,2463316,2691880,2465245,2694621,688,2080,5967,949,18,-1376,-1743,2251,45,41,828
712164,2463612,2692080,2465442,2694818,645,2354,6036,896,243,-1339,-1502,1694,45,41,828
713165,2463912,2692300,2465639,2695015,575,2220,6065,717,440,-1282,-1235,1182,70,49,830
714166,2464204,2692540,2465836,2695212,584,2076,6091,385,606,-1203,-1036,733,70,49,830
715167,2464456,2692752,2466033,2695409,810,2245,6091,-10,755,-1100,-1009,401,41,56,830
716168,2464700,2693028,2466230,2695606,839,1810,6070,-455,909,-1005,-1011,136,41,56,830
717169,2464976,2693256,2466427,2695803,605,2098,5998,-910,1076,-852,-889,-88,53,45,828
718170,2465228,2693496,2466624,2696000,731,2004,5885,-1392,1267,-621,-769,-201,53,45,828
719171,2465408,2693700,2466821,2696197,1188,2227,5707,-1890,1472,-392,-689,-233,35,53,830
720172,2465676,2693936,2467018,2696394,608,2010,5495,-2345,1670,-237,-664,-300,35,53,830
721173,2465896,2694196,2467215,2696591,898,1833,5250,-2764,1874,-120,-646,-273,53,44,828
722174,2466116,2694464,2467412,2696788,888,1752,5009,-3181,2073,87,-630,-354,53,44,828
723175,2466340,2694700,2467609,2696985,851,1936,4773,-3667,2279,344,-556,-606,44,55,831
724176,2466568,2694916,2467806,2697182,814,2052,4520,-4099,2505,559,-402,-445,44,55,831
725177,2466744,2695108,2468003,2697379,1148,2204,4181,-4518,2777,692,-219,-409,31,41,830
726179,2466948,2695304,2468200,2697576,970,2181,3815,-4899,3102,867,-60,-301,31,41,830
727179,2467124,2695516,2468397,2697773,1154,2074,3481,-5151,3448,1098,226,-81,32,40,828
728180,2467316,2695696,2468594,2697970,1056,2283,3141,-5316,3784,1320,515,139,32,40,828
729181,2467496,2695868,2468791,2698167,1140,2344,2778,-5410,4099,1430,908,414,26,31,827
730182,2467684,2696024,2468988,2698364,1094,2463,2351,-5389,4330,1511,1512,663,26,31,827
731183,2467832,2696160,2469185,2698561,1365,2615,1850,-5316,4486,1742,1763,871,25,20,827
732184,2468004,2696300,2469382,2698758,1226,2616,1316,-5169,4587,1962,2099,1101,25,20,827
733185,2468156,2696408,2469579,2698955,1372,2855,770,-4983,4600,2159,2606,1282,22,33,824
734186,2468324,2696516,2469776,2699152,1285,2895,204,-4749,4523,2295,2924,1494,22,33,824
735187,2468492,2696636,2469973,2699349,1297,2854,-383,-4458,4385,2525,3100,1811,28,16,821
736188,2468660,2696732,2470170,2699546,1311,3049,-981,-4119,4193,2718,3358,2008,28,16,821
737189,2468820,2696840,2470367,2699743,1377,3013,-1594,-3731,3952,2896,3496,2418,33,26,822
738190,2468996,2696952,2470564,2699940,1287,3027,-2190,-3286,3697,3056,3463,2760,33,26,822
739191,2469156,2697024,2470761,2700137,1403,3332,-2728,-2758,3462,3300,3047,3042,33,12,820
740192,2469320,2697112,2470958,2700334,1393,3280,-3234,-2245,3207,3470,2962,3068,33,12,820
741193,2469496,2697212,2471155,2700531,1328,3248,-3811,-1766,2865,3656,3208,3457,31,17,817
742194,2469684,2697348,2471352,2700728,1257,3051,-4477,-1141,2535,4078,2518,4339,31,17,817
743195,2469852,2697444,2471549,2700925,1395,3346,-5091,-713,2235,4366,2045,3282,46,25,819
744196,2470036,2697560,2471746,2701122,1301,3257,-5555,-651,1963,4427,1956,2349,46,25,819
745197,2470236,2697672,2471943,2701319,1200,3320,-5915,-700,1699,4639,1626,2707,35,27,819
746198,2470432,2697796,2472140,2701516,1226,3278,-6237,-780,1343,4581,1819,2685,35,27,819
747199,2470608,2697900,2472337,2701713,1360,3444,-6469,-885,895,4331,1852,2351,39,27,820
748200,2470832,2698032,2472534,2701910,1048,3299,-6598,-1036,455,4147,1471,2450,39,27,820
749201,2471020,2698200,2472731,2702107,1278,3087,-6675,-1113,77,3930,1082,2923,44,22,819
750202,2471196,2698364,2472928,2702304,1363,3128,-6729,-1058,-219,3634,724,3557,44,22,819
751203,2471388,2698520,2473125,2702501,1265,3196,-6772,-765,-424,3338,265,4393,39,23,819
752204,2471560,2698676,2473322,2702698,1402,3215,-6793,-329,-556,2946,-213,4877,39,23,819
753205,2471752,2698824,2473519,2702895,1279,3288,-6763,148,-665,2551,-252,4913,39,23,820
754206,2471952,2698984,2473716,2703092,1228,3230,-6655,519,-833,2206,93,4841,39,23,820
755207,2472144,2699176,2473913,2703289,1281,3032,-6472,822,-1093,1934,362,4741,34,30,820
756208,2472312,2699344,2474110,2703486,1444,3196,-6210,1060,-1389,1651,304,4737,34,30,820
757216,2472504,2699516,2474340,2703716,1310,3197,-5890,1330,-1641,1197,40,4959,31,29,821
758210,2472704,2699744,2474537,2703913,1260,2835,-5548,1629,-1797,639,-325,5291,31,29,821
759211,2472860,2699960,2474734,2704110,1553,2902,-5201,2007,-1838,74,-579,5586,43,51,821
760212,2473044,2700224,2474931,2704307,1384,2573,-4841,2441,-1773,-427,-700,5835,43,51,821
761213,2473192,2700456,2475128,2704504,1631,2758,-4478,2883,-1630,-979,-740,5976,31,44,822
762214,2473368,2700680,2475325,2704701,1466,2798,-4133,3272,-1430,-1495,-709,5959,31,44,822
763215,2473512,2700944,2475522,2704898,1689,2519,-3785,3547,-1202,-1942,-701,5820,38,51,821
764216,2473680,2701196,2475719,2705095,1553,2570,-3431,3817,-939,-2367,-846,5984,38,51,821
765217,2473824,2701464,2475916,2705292,1726,2440,-3057,4090,-624,-2772,-1009,6037,34,46,823
766218,2473980,2701744,2476113,2705489,1670,2329,-2662,4286,-279,-3086,-1091,5885,34,46,823
767219,2474128,2701992,2476310,2705686,1741,2508,-2262,4433,92,-3237,-1209,5966,32,43,824
768220,2474280,2702220,2476507,2705883,1736,2619,-1874,4507,463,-3297,-1310,5924,32,43,824
769221,2474440,2702476,2476704,2706080,1703,2419,-1492,4507,803,-3378,-1314,5707,22,60,824
770222,2474576,2702784,2476901,2706277,1880,2047,-1120,4391,1088,-3436,-1336,5482,22,60,824
771223,2474696,2703104,2477098,2706474,2015,1917,-784,4209,1325,-3350,-1493,5466,18,60,823
772224,2474804,2703332,2477295,2706671,2129,2480,-497,3954,1543,-3096,-1681,5333,18,60,823
773225,2474912,2703616,2477492,2706868,2169,2093,-241,3677,1783,-2838,-1899,5426,17,49,823
774226,2475028,2703904,2477689,2707065,2155,2028,-10,3387,2046,-2542,-2175,5407,17,49,823
775227,2475124,2704208,2477886,2707262,2325,1882,206,3065,2295,-2220,-2356,5380,22,65,823
776228,2475256,2704476,2478083,2707459,2129,2075,392,2699,2461,-1927,-2192,5202,22,65,823
777229,2475376,2704736,2478280,2707656,2239,2099,533,2258,2526,-1622,-1905,5066,33,52,824
778230,2475496,2705008,2478477,2707853,2273,1992,642,1739,2506,-1253,-1745,4807,33,52,824
779231,2475668,2705292,2478674,2708050,1959,1879,746,1117,2446,-770,-1690,4536,21,57,823
780232,2475800,2705560,2478871,2708247,2238,1948,839,417,2378,-242,-1608,4335,21,57,823
781233,2475928,2705824,2479068,2708444,2294,1944,914,-306,2327,234,-1762,4297,23,43,825
782234,2476052,2706084,2479265,2708641,2352,1942,970,-1018,2285,492,-1799,4336,23,43,825
783235,2476196,2706320,2479462,2708838,2251,2075,1009,-1692,2214,677,-1429,4339,41,49,822
784236,2476356,2706616,2479659,2709035,2168,1658,1061,-2315,2094,884,-673,4402,41,49,822
785237,2476496,2706928,2479856,2709232,2318,1507,1161,-2951,1938,1060,169,4293,42,63,822
786238,2476700,2707192,2480053,2709429,1916,1779,1325,-3540,1779,1272,290,4464,42,63,822
787239,2476856,2707436,2480250,2709626,2235,1883,1519,-3998,1665,1341,194,4886,36,46,825
788240,2477028,2707716,2480447,2709823,2146,1621,1681,-4264,1620,1314,204,5386,36,46,825
789241,2477240,2708020,2480644,2710020,1890,1425,1805,-4314,1627,1170,235,5847,49,66,825
790242,2477424,2708324,2480841,2710217,2072,1378,1933,-4264,1648,980,277,6041,49,66,825
791243,2477620,2708624,2481038,2710414,1998,1359,2080,-4094,1654,703,434,6377,34,63,827
792244,2477808,2708860,2481235,2710611,2053,1742,2245,-3833,1637,397,616,6525,34,63,827
793245,2478016,2709188,2481432,2710808,1924,1109,2440,-3500,1603,57,719,6477,35,49,828
794246,2478228,2709504,2481629,2711005,1892,1133,2646,-3162,1556,-202,727,6454,35,49,828
795247,2478452,2709824,2481826,2711202,1806,1054,2844,-2808,1509,-452,635,6384,37,56,827
796248,2478672,2710120,2482023,2711399,1822,1161,3023,-2380,1498,-670,321,6408,37,56,827
797249,2478892,2710368,2482220,2711596,1812,1438,3185,-1904,1533,-867,-100,6313,37,65,830
798250,2479120,2710692,2482417,2711793,1749,908,3341,-1371,1601,-1042,-384,6282,37,65,830
799251,2479336,2711036,2482614,2711990,1816,719,3492,-834,1679,-1135,-383,6130,37,64,829
800252,2479560,2711308,2482811,2712187,1755,1136,3630,-307,1758,-1188,-192,5847,37,64,829
801253,2479796,2711572,2483008,2712384,1664,1156,3764,208,1852,-1199,-270,5648,50,54,831
802254,2480008,2711792,2483205,2712581,1807,1421,3917,709,1975,-1125,-504,5481,50,54,831
803255,2480208,2712040,2483402,2712778,1882,1224,4090,1209,2113,-1000,-638,5184,40,53,830
804256,2480420,2712336,2483599,2712975,1802,881,4267,1600,2253,-824,-618,4703,40,53,830
805257,2480620,2712588,2483796,2713172,1875,1132,4431,1893,2367,-628,-443,4347,32,59,828
806258,2480800,2712812,2483993,2713369,2009,1295,4580,2121,2443,-397,-64,3924,32,59,828
807259,2480996,2713016,2484190,2713566,1909,1417,4705,2236,2487,-172,361,3604,29,47,829
808260,2481204,2713204,2484387,2713763,1830,1521,4789,2304,2517,35,556,3342,29,47,829
809261,2481380,2713412,2484584,2713960,2041,1391,4806,2337,2550,304,533,2997,48,35,828
810262,2481568,2713684,2484781,2714157,1969,958,4745,2316,2581,676,501,2662,48,35,828
811263,2481752,2713912,2484978,2714354,2001,1220,4619,2203,2605,1053,539,2413,27,45,827
812264,2481952,2714120,2485175,2714551,1900,1340,4453,2070,2601,1326,581,2240,27,45,827
813265,2482112,2714312,2485372,2714748,2167,1442,4259,1879,2560,1548,518,2015,31,36,829
814266,2482336,2714500,2485569,2714945,1756,1471,4030,1673,2463,1653,596,1811,31,36,829
815267,2482552,2714668,2485766,2715142,1798,1610,3776,1447,2295,1770,752,1601,31,47,827
816268,2482732,2714884,2485963,2715339,2031,1301,3494,1209,2047,1822,985,1405,31,47,827
817269,2482944,2715100,2486160,2715536,1825,1293,3169,958,1704,1704,1226,1325,45,29,827
818270,2483100,2715296,2486357,2715733,2194,1419,2811,699,1287,1534,1353,1225,45,29,827
819271,2483272,2715472,2486554,2715930,2106,1553,2439,430,813,1448,1563,1209,27,43,828
820272,2483432,2715656,2486751,2716127,2197,1508,2039,197,312,1308,1641,1227,27,43,828
821273,2483588,2715840,2486948,2716324,2241,1514,1607,56,-176,1196,1240,1338,24,27,826
822274,2483764,2716008,2487145,2716521,2126,1627,1148,15,-585,1043,249,1588,24,27,826
823275,2483988,2716216,2487342,2716718,1814,1372,676,57,-884,891,-229,1907,46,38,826
824276,2484160,2716420,2487539,2716915,2151,1394,226,146,-1094,843,-397,1959,46,38,826
825277,2484324,2716624,2487736,2717112,2217,1391,-189,214,-1247,769,-562,1948,47,29,828
826278,2484524,2716828,2487933,2717309,1991,1389,-569,218,-1379,706,-378,1864,47,29,828
827279,2484696,2717016,2488130,2717506,2178,1493,-929,217,-1508,638,-332,1794,42,45,826
828280,2484864,2717204,2488327,2717703,2215,1497,-1259,226,-1565,525,-307,1792,42,45,826
829281,2485064,2717360,2488524,2717900,2015,1715,-1571,215,-1572,513,26,1604,33,36,826
830282,2485268,2717552,2488721,2718097,1988,1492,-1846,161,-1533,509,261,1680,33,36,826
831283,2485432,2717748,2488918,2718294,2252,1467,-2086,51,-1433,576,46,1498,26,31,826
832284,2485616,2717984,2489115,2718491,2134,1200,-2333,-166,-1290,772,-192,1415,26,31,826
833285,2485792,2718184,2489312,2718688,2194,1424,-2585,-457,-1139,917,96,1207,37,36,826
834286,2485960,2718368,2489509,2718885,2257,1530,-2818,-842,-986,1109,312,1101,37,36,826
835287,2486116,2718560,2489706,2719082,2351,1482,-3038,-1194,-837,1222,479,1229,45,38,826
836288,2486316,2718716,2489903,2719279,2076,1726,-3260,-1557,-674,1257,570,1498,45,38,826
837289,2486484,2718920,2490100,2719476,2290,1423,-3498,-1829,-521,1319,786,1899,52,42,825
838290,2486700,2719088,2490297,2719673,1981,1661,-3750,-2010,-419,1371,1013,2248,52,42,825
839291,2486952,2719292,2490494,2719870,1733,1433,-3985,-2054,-360,1491,697,2693,55,39,825
840299,2487168,2719460,2490724,2720100,1965,1685,-4188,-2001,-316,1633,246,3109,55,39,825
841293,2487408,2719616,2490921,2720297,1796,1778,-4386,-1861,-289,1679,-129,3428,41,37,827
842294,2487664,2719764,2491118,2720494,1671,1849,-4584,-1658,-313,1786,-468,3716,41,37,827
843295,2487916,2719924,2491315,2720691,1673,1791,-4776,-1411,-388,1880,-641,4047,41,20,826
844296,2488152,2720060,2491512,2720888,1756,1967,-4968,-1124,-479,2032,-797,4391,41,20,826
845297,2488392,2720200,2491709,2721085,1713,1968,-5181,-812,-598,2292,-888,4589,36,30,827
846298,2488588,2720328,2491906,2721282,1989,2074,-5359,-650,-730,2553,-914,4127,36,30,827
847299,2488784,2720468,2492103,2721479,1990,2024,-5497,-613,-862,2914,-1022,3983,37,35,826
848300,2488996,2720644,2492300,2721676,1884,1808,-5607,-595,-974,3148,-1053,4100,37,35,826
849301,2489228,2720816,2492497,2721873,1744,1844,-5676,-665,-1078,3239,-861,3857,33,32,824
850302,2489448,2720968,2492694,2722070,1810,1990,-5720,-780,-1178,3357,-872,3849,33,32,824
851303,2489716,2721120,2492891,2722267,1480,2010,-5771,-874,-1259,3434,-997,4237,52,37,825
852304,2489924,2721248,2493088,2722464,1850,2190,-5825,-858,-1317,3474,-1129,4599,52,37,825
853305,2490176,2721352,2493285,2722661,1552,2381,-5874,-742,-1357,3526,-1414,4858,60,35,825
854306,2490500,2721488,2493482,2722858,1046,2208,-5878,-552,-1386,3443,-1511,5144,60,35,825
855307,2490780,2721632,2493679,2723055,1285,2182,-5820,-380,-1416,3259,-1626,5208,53,20,824
856308,2490972,2721740,2493876,2723252,1839,2446,-5716,-163,-1490,2930,-1698,5466,53,20,824
857309,2491228,2721896,2494073,2723449,1413,2164,-5559,129,-1604,2600,-1783,5825,39,24,827
858310,2491552,2722036,2494270,2723646,933,2290,-5325,538,-1720,2359,-1735,6085,39,24,827
859311,2491788,2722184,2494467,2723843,1466,2262,-4999,1030,-1822,1935,-1582,6345,39,33,822
860312,2492020,2722332,2494664,2724040,1476,2283,-4615,1566,-1912,1486,-1610,6616,39,33,822
861313,2492224,2722500,2494861,2724237,1648,2172,-4153,2105,-1957,1260,-2001,6544,41,33,826
862314,2492376,2722632,2495058,2724434,1994,2425,-3633,2561,-1965,966,-2031,6348,41,33,826
863316,2492548,2722788,2495255,2724631,1880,2293,-3101,2986,-1945,730,-1902,6438,46,32,824
864316,2492752,2722904,2495452,2724828,1678,2580,-2581,3379,-1924,532,-1321,6257,46,32,824
865318,2492964,2723040,2495649,2725025,1621,2482,-2071,3715,-1927,321,-948,6069,47,23,822
866318,2493140,2723188,2495846,2725222,1857,2428,-1574,3983,-1911,223,-1315,6063,47,23,822
867319,2493376,2723372,2496043,2725419,1465,2210,-1126,4314,-1822,119,-1924,6291,47,38,823
868320,2493564,2723548,2496240,2725616,1769,2269,-749,4726,-1683,-258,-2278,6358,47,38,823
869321,2493756,2723740,2496437,2725813,1747,2171,-414,5002,-1558,-484,-2291,6059,49,25,822
870322,2493960,2723904,2496634,2726010,1670,2362,-90,5201,-1453,-439,-2137,5927,49,25,822
871323,2494184,2724052,2496831,2726207,1533,2484,247,5290,-1337,-336,-1864,5346,49,39,823
872324,2494356,2724220,2497028,2726404,1870,2372,576,5172,-1202,-385,-1607,4840,49,39,823
873325,2494528,2724372,2497225,2726601,1881,2492,879,4827,-1053,-350,-1295,4188,31,32,823
874326,2494732,2724576,2497422,2726798,1679,2165,1168,4378,-905,-182,-996,3899,31,32,823
875327,2494912,2724752,2497619,2726995,1836,2349,1391,3913,-773,-93,-874,3860,26,41,823
876328,2495072,2724952,2497816,2727192,1978,2198,1571,3414,-634,-4,-979,3793,26,41,823
877329,2495260,2725116,2498013,2727389,1807,2438,1742,2951,-454,141,-1489,3905,22,39,825
878330,2495420,2725316,2498210,2727586,2000,2212,1883,2544,-207,405,-2081,4082,22,39,825
879331,2495584,2725520,2498407,2727783,1989,2185,1968,2208,69,517,-2059,4117,40,46,824
880332,2495744,2725680,2498604,2727980,2031,2476,2033,1803,330,587,-1904,3854,40,46,824
881333,2495904,2725844,2498801,2728177,2048,2467,2059,1356,572,613,-1847,3863,42,44,823
882334,2496064,2726076,2498998,2728374,2065,2026,2044,910,795,655,-1817,3923,42,44,823
883335,2496244,2726264,2499195,2728571,1948,2305,2018,528,1006,801,-1722,3968,43,48,821
884336,2496388,2726464,2499392,2728768,2197,2230,1974,198,1199,950,-1462,4012,43,48,821
885337,2496540,2726652,2499589,2728965,2167,2309,1900,-85,1352,1130,-1196,4071,33,41,823
886338,2496708,2726828,2499786,2729162,2080,2394,1789,-374,1449,1424,-1075,3955,33,41,823
887339,2496912,2727032,2499983,2729359,1853,2216,1678,-619,1479,1491,-1027,4074,42,48,822
888340,2497076,2727216,2500180,2729556,2118,2348,1579,-785,1470,1219,-1449,4329,42,48,822
889341,2497252,2727384,2500377,2729753,2053,2461,1482,-863,1433,830,-1590,4629,38,41,822
890342,2497408,2727572,2500574,2729950,2197,2341,1393,-801,1342,652,-971,4892,38,41,822
891343,2497568,2727752,2500771,2730147,2188,2398,1313,-596,1198,726,-693,5182,22,41,822
892344,2497748,2727960,2500968,2730344,2072,2218,1269,-322,1037,734,-819,5246,22,41,822
893345,2497900,2728152,2501165,2730541,2266,2321,1251,-75,884,653,-1011,5323,21,42,821
894346,2498052,2728332,2501362,2730738,2287,2404,1255,197,755,674,-1234,5300,21,42,821
895347,2498228,2728496,2501559,2730935,2147,2519,1290,417,660,807,-1522,5085,21,39,821
896348,2498400,2728644,2501756,2731132,2183,2641,1368,578,584,1051,-1611,4666,21,39,821
897349,2498580,2728788,2501953,2731329,2142,2690,1478,510,504,1157,-1385,4044,43,42,820
898350,2498748,2728996,2502150,2731526,2231,2285,1591,399,424,1054,-1102,3936,43,42,820
899351,2498908,2729176,2502347,2731723,2297,2469,1695,284,364,805,-803,3820,45,39,820
900352,2499072,2729364,2502544,2731920,2287,2423,1765,161,339,566,-571,3768,45,39,820
901353,2499228,2729580,2502741,2732117,2356,2240,1774,54,374,536,-444,3860,28,37,822
902354,2499380,2729744,2502938,2732314,2401,2580,1736,98,470,552,-366,4141,28,37,822
903355,2499540,2729932,2503135,2732511,2368,2435,1675,246,611,320,-416,4335,40,32,820
904356,2499680,2730100,2503332,2732708,2519,2573,1610,400,762,79,-620,4336,40,32,820
905357,2499832,2730280,2503529,2732905,2464,2506,1564,543,897,-178,-613,4390,18,40,818
906358,2499976,2730448,2503726,2733102,2538,2594,1530,718,998,-311,-594,4378,18,40,818
907359,2500100,2730652,2503923,2733299,2697,2367,1490,938,1075,-457,-699,4441,30,42,817
908360,2500252,2730856,2504120,2733496,2541,2364,1457,1097,1157,-740,-748,4273,30,42,817
909361,2500416,2731060,2504317,2733693,2482,2362,1427,1266,1236,-820,-761,4337,19,40,818
910362,2500560,2731220,2504514,2733890,2631,2653,1408,1406,1308,-792,-706,4054,19,40,818
911363,2500696,2731400,2504711,2734087,2709,2536,1389,1496,1348,-835,-707,3921,30,33,820
912364,2500856,2731592,2504908,2734284,2575,2464,1379,1511,1327,-947,-697,3716,30,33,820
913365,2501008,2731772,2505105,2734481,2646,2547,1366,1425,1240,-975,-578,3396,26,31,818
914366,2501160,2731984,2505302,2734678,2667,2340,1325,1324,1103,-948,-324,3366,26,31,818
915367,2501328,2732188,2505499,2734875,2580,2388,1255,1144,968,-840,-158,3101,35,40,818
916368,2501484,2732368,2505696,2735072,2674,2546,1158,951,907,-753,-122,3146,35,40,818
917369,2501624,2732524,2505893,2735269,2800,2715,1052,715,959,-598,-169,2956,41,35,817
918370,2501784,2732740,2506090,2735466,2692,2331,927,434,1120,-392,-256,2994,41,35,817
919371,2501948,2732956,2506287,2735663,2682,2324,805,171,1326,-332,-226,3000,40,45,818
920372,2502088,2733180,2506484,2735860,2858,2262,719,-154,1489,-458,-212,2836,40,45,818
921373,2502208,2733412,2506681,2736057,3018,2198,685,-504,1561,-513,-77,2814,26,47,818
922374,2502376,2733616,2506878,2736254,2732,2370,718,-898,1552,-602,155,2784,26,47,818
923384,2502520,2733832,2507108,2736484,2920,2302,806,-1162,1510,-713,277,3109,22,36,818
924376,2502680,2734072,2507305,2736681,2837,2133,946,-1391,1484,-920,230,3236,22,36,818
925377,2502836,2734336,2507502,2736878,2881,1955,1101,-1529,1464,-996,174,3756,38,39,818
926378,2503032,2734568,2507699,2737075,2632,2139,1251,-1508,1421,-1040,33,4079,38,39,818
927379,2503164,2734816,2507896,2737272,3062,2018,1382,-1391,1360,-1142,-166,4382,44,44,818
928380,2503312,2735060,2508093,2737469,2985,2022,1497,-1193,1305,-1204,-382,4567,44,44,818
929381,2503508,2735264,2508290,2737666,2686,2270,1602,-1012,1274,-1230,-479,4724,41,47,820
930382,2503704,2735496,2508487,2737863,2687,2080,1697,-780,1271,-1126,-309,4904,41,47,820
931383,2503848,2735776,2508684,2738060,3037,1744,1767,-618,1266,-1081,236,4703,39,59,819
932384,2504024,2736028,2508881,2738257,2846,1895,1822,-482,1257,-1113,567,4690,39,59,819
933385,2504188,2736280,2509078,2738454,2936,1871,1869,-498,1247,-1049,858,4312,33,39,820
934386,2504344,2736516,2509275,2738651,3005,1955,1913,-559,1259,-812,775,4188,33,39,820
935387,2504496,2736752,2509472,2738848,3051,1938,1970,-716,1334,-518,698,3867,23,45,820
936388,2504692,2737028,2509669,2739045,2778,1654,2037,-927,1446,-245,505,3851,23,45,820
937389,2504856,2737300,2509866,2739242,2993,1646,2113,-1126,1587,-50,66,3925,43,58,818
938390,2505036,2737556,2510063,2739439,2902,1720,2186,-1336,1738,74,381,3927,43,58,818
939391,2505236,2737876,2510260,2739636,2776,1267,2223,-1483,1847,189,1016,4111,27,53,821
940392,2505384,2738056,2510457,2739833,3124,2149,2251,-1676,1919,229,1256,4061,27,53,821
941393,2505528,2738196,2510654,2740030,3173,2424,2275,-1746,1915,243,1451,4494,23,40,820
942394,2505684,2738304,2510851,2740227,3117,2665,2297,-1793,1806,140,1621,4446,23,40,820
943395,2505832,2738408,2511048,2740424,3190,2730,2297,-1720,1611,99,1671,4812,39,18,817
944396,2505976,2738536,2511245,2740621,3239,2612,2232,-1639,1377,17,2312,4836,39,18,817
945397,2506124,2738656,2511442,2740818,3237,2696,2123,-1474,1146,-60,2741,5211,44,23,813
946398,2506244,2738808,2511639,2741015,3446,2515,1979,-1201,929,-122,2943,5502,44,23,813
947399,2506352,2739004,2511836,2741212,3561,2242,1810,-890,687,-215,2822,5602,34,27,813
948400,2506552,2739264,2512033,2741409,2986,1814,1600,-559,448,-140,1767,5671,34,27,813
949401,2506728,2739560,2512230,2741606,3146,1547,1400,-234,284,7,882,5680,29,51,812
950402,2506896,2739764,2512427,2741803,3210,2119,1227,62,169,70,1503,5462,29,51,812
951403,2507092,2740084,2512624,2742000,3037,1339,1031,235,73,169,2422,5178,43,66,819
952404,2507236,2740376,2512821,2742197,3386,1474,823,392,11,384,2787,5252,43,66,819
953405,2507396,2740680,2513018,2742394,3303,1352,625,490,19,498,2817,4875,29,60,817
954406,2507556,2740932,2513215,2742591,3320,1653,432,556,37,509,2424,4821,29,60,817
955407,2507704,2741232,2513412,2742788,3418,1308,246,626,48,579,1479,4688,29,70,818
956408,2507840,2741568,2513609,2742985,3522,1022,102,711,59,620,810,4761,29,70,818
957409,2507992,2741872,2513806,2743182,3442,1175,-11,828,51,587,822,4717,41,58,818
958410,2508140,2742176,2514003,2743379,3490,1129,-108,918,-16,454,1287,4666,41,58,818
959411,2508292,2742516,2514200,2743576,3486,841,-239,1082,-116,406,1238,4889,37,63,819
960412,2508420,2742836,2514397,2743773,3667,912,-340,1285,-213,341,1403,4959,37,63,819
961413,2508572,2743152,2514594,2743970,3538,885,-386,1624,-246,383,1129,5347,22,56,817
962414,2508704,2743452,2514791,2744167,3692,940,-390,2057,-194,471,994,5493,22,56,817
963415,2508868,2743744,2514988,2744364,3508,948,-362,2578,-140,547,1217,5738,47,74,818
964416,2509056,2744096,2515185,2744561,3364,506,-288,3040,-167,655,1409,5531,47,74,818
965417,2509224,2744408,2515382,2744758,3503,705,-196,3437,-290,718,1402,5414,45,61,817
966418,2509400,2744652,2515579,2744955,3463,1110,-153,3791,-508,697,1866,5273,45,61,817
967419,2509612,2744868,2515776,2745152,3232,1276,-147,4153,-749,789,1984,5193,52,44,822
968420,2509796,2745096,2515973,2745349,3414,1188,-202,4523,-968,1005,2176,5196,52,44,822
969421,2509992,2745360,2516170,2745546,3340,933,-313,4880,-1130,1281,2353,4991,36,40,820
970422,2510204,2745572,2516367,2745743,3236,1252,-475,5198,-1247,1456,2418,4801,36,40,820
971423,2510404,2745800,2516564,2745940,3311,1138,-625,5341,-1356,1466,2512,4273,37,40,819
972424,2510620,2745996,2516761,2746137,3203,1338,-753,5396,-1501,1487,2690,3987,37,40,819
973425,2510852,2746164,2516958,2746334,3089,1526,-860,5418,-1649,1606,2704,3841,58,50,819
974426,2511076,2746332,2517155,2746531,3128,1539,-978,5444,-1801,1645,2804,3745,58,50,819
975427,2511308,2746556,2517352,2746728,3064,1177,-1121,5364,-2018,1545,3240,3313,42,33,820
976428,2511552,2746776,2517549,2746925,2970,1192,-1271,5234,-2313,1422,3511,3121,42,33,820
977429,2511816,2746948,2517746,2747122,2816,1503,-1393,5102,-2625,1339,3345,3228,61,35,820
978430,2512036,2747128,2517943,2747319,3082,1460,-1490,5060,-2919,1189,3247,3330,61,35,820
979431,2512272,2747300,2518140,2747516,2966,1521,-1552,5085,-3175,1045,2988,3618,62,31,823
980432,2512516,2747472,2518337,2747713,2897,1532,-1597,5173,-3398,933,2802,3723,62,31,823
981433,2512772,2747612,2518534,2747910,2797,1757,-1615,5382,-3582,826,2401,3906,60,31,821
982434,2513008,2747776,2518731,2748107,2905,1622,-1634,5646,-3712,648,1991,3998,60,31,821
983435,2513284,2747896,2518928,2748304,2622,1931,-1636,5831,-3801,489,1404,3904,58,41,821
984436,2513520,2748040,2519125,2748501,2857,1804,-1629,6074,-3904,167,1082,4085,58,41,821
985437,2513764,2748188,2519322,2748698,2787,1801,-1610,6348,-4037,-99,633,3857,58,39,821
986438,2514008,2748400,2519519,2748895,2767,1395,-1592,6518,-4231,-401,308,3633,58,39,821
987439,2514224,2748520,2519716,2749092,2935,2004,-1596,6697,-4495,-869,24,3704,57,36,820
988440,2514444,2748664,2519913,2749289,2901,1877,-1614,6846,-4847,-1507,65,3593,57,36,820
989441,2514680,2748796,2520110,2749486,2785,1981,-1613,7036,-5302,-2060,-228,3729,34,21,823
990442,2514904,2748908,2520307,2749683,2849,2143,-1593,7165,-5805,-2481,-509,3628,34,21,823
991443,2515100,2749052,2520504,2749880,3025,1966,-1579,7395,-6268,-2718,-1034,3786,54,33,820
992444,2515336,2749224,2520701,2750077,2759,1802,-1569,7554,-6602,-2867,-1802,3592,54,33,820
993445,2515552,2749408,2520898,2750274,2877,1734,-1583,7713,-6771,-2900,-2549,3689,51,42,817
994446,2515744,2749524,2521095,2750471,3030,2195,-1615,7808,-6748,-2977,-3306,3527,51,42,817
995447,2515948,2749684,2521292,2750668,2953,1936,-1658,7848,-6560,-3097,-4032,3430,50,27,819
996448,2516156,2749848,2521489,2750865,2924,1925,-1699,7746,-6273,-3345,-4489,3014,50,27,819
997449,2516344,2750040,2521686,2751062,3054,1753,-1678,7419,-5947,-3566,-4593,2526,33,34,817
998450,2516576,2750192,2521883,2751259,2765,2022,-1586,6912,-5625,-3697,-4543,2163,33,34,817
999451,2516776,2750380,2522080,2751456,2964,1802,-1467,6174,-5335,-3881,-4367,1468,30,36,819
1000452,2516960,2750524,2522277,2751653,3071,2101,-1343,5237,-5061,-3958,-4280,1133,30,36,819
1001453,2517188,2750688,2522474,2751850,2783,1990,-1210,4168,-4736,-3989,-4314,1038,48,26,820
1002454,2517416,2750840,2522671,2752047,2771,2085,-1120,3099,-4340,-4013,-4147,1117,48,26,820
1003455,2517600,2751052,2522868,2752244,3053,1703,-1080,2052,-3882,-4081,-3632,1269,52,43,818
1004456,2517856,2751216,2523065,2752441,2578,2019,-1061,983,-3387,-3975,-3179,1325,52,43,818
1005457,2518148,2751384,2523262,2752638,2312,2007,-1049,-107,-2908,-3804,-2865,1357,45,36,818
1006465,2518368,2751508,2523492,2752868,2767,2328,-1050,-1187,-2445,-3615,-2592,1484,45,36,818
1007459,2518636,2751644,2523689,2753065,2437,2280,-1052,-2192,-1980,-3358,-2383,1914,62,28,821
1008460,2518940,2751816,2523886,2753262,2166,2067,-1107,-3857,-1026,-3014,-1834,2992,62,28,821
1009461,2519216,2751996,2524083,2753459,2307,2024,-1240,-4388,-579,-2798,-1401,3660,63,35,819
1010462,2519520,2752156,2524280,2753656,2086,2166,-1391,-4685,-183,-2741,-991,4558,63,35,819
1011463,2519832,2752320,2524477,2753853,1987,2156,-1558,-4781,161,-2561,-705,5158,58,30,823
1012464,2520124,2752464,2524674,2754050,2071,2304,-1705,-4822,460,-2189,-330,5416,58,30,823
1013465,2520420,2752628,2524871,2754247,2003,2194,-1850,-4841,689,-1806,138,5512,54,41,823
1014466,2520780,2752764,2525068,2754444,1532,2396,-1972,-4867,815,-1473,583,5637,54,41,823
1015467,2521100,2752924,2525265,2754641,1729,2263,-2032,-4832,872,-1165,617,5871,69,27,821
1016468,2521388,2753088,2525462,2754838,1890,2253,-2017,-4767,886,-721,879,5955,69,27,821
1017469,2521744,2753232,2525659,2755035,1396,2401,-1985,-4662,828,-241,1389,6035,58,40,823
1018470,2522064,2753392,2525856,2755232,1567,2318,-1945,-4604,691,263,1626,5907,58,40,823
1019471,2522388,2753548,2526053,2755429,1487,2361,-1859,-4596,490,682,1755,5700,57,43,824
1020472,2522712,2753700,2526250,2755626,1432,2406,-1718,-4676,241,1103,1687,5573,57,43,824
1021473,2523020,2753856,2526447,2755823,1485,2400,-1546,-4778,-7,1531,1410,5338,73,43,825
1022474,2523344,2753980,2526644,2756020,1329,2632,-1360,-4969,-238,1825,835,5106,73,43,825
1023475,2523680,2754128,2526841,2756217,1194,2505,-1157,-5217,-464,1955,418,4850,66,35,825
1024476,2524000,2754272,2527038,2756414,1240,2553,-936,-5508,-704,2011,262,4726,66,35,825
1025477,2524284,2754404,2527235,2756611,1427,2656,-686,-5820,-956,2075,29,4557,63,27,824
1026478,2524588,2754564,2527432,2756808,1256,2499,-395,-6086,-1200,1944,-379,4586,63,27,824
1027479,2524860,2754720,2527629,2757005,1423,2542,-67,-6259,-1433,1643,-773,4676,58,35,822
1028480,2525112,2754884,2527826,2757202,1525,2507,260,-6359,-1661,1371,-1083,4899,58,35,822
1029481,2525404,2755028,2528023,2757399,1233,2655,586,-6289,-1862,1087,-1447,5264,45,24,825
1030482,2525696,2755192,2528220,2757596,1193,2546,936,-6081,-1987,766,-1956,5497,45,24,825
1031483,2525944,2755368,2528417,2757793,1445,2480,1318,-5759,-2035,404,-2435,5744,44,27,824
1032484,2526204,2755516,2528614,2757990,1344,2677,1688,-5365,-2008,2,-2743,5859,44,27,824
1033485,2526504,2755680,2528811,2758187,1048,2592,2052,-4870,-1922,-272,-3000,5993,43,35,825
1034486,2526752,2755872,2529008,2758384,1351,2419,2434,-4345,-1797,-549,-3047,5833,43,35,825
1035487,2527048,2756068,2529205,2758581,1008,2396,2825,-3812,-1633,-870,-3022,5809,65,31,823
1036488,2527356,2756240,2529402,2758778,885,2557,3244,-3308,-1437,-1186,-2693,5538,65,31,823
1037489,2527680,2756404,2529599,2758975,730,2622,3677,-2817,-1251,-1395,-2015,5342,52,31,824
1038490,2527940,2756572,2529796,2759172,1102,2610,4076,-2318,-1078,-1581,-1511,5123,52,31,824
1039491,2528248,2756732,2529993,2759369,753,2677,4432,-1828,-911,-1791,-1373,4951,69,48,824
1040492,2528524,2756912,2530190,2759566,920,2560,4730,-1383,-739,-1927,-1326,4723,69,48,824
1041493,2528836,2757128,2530387,2759763,644,2327,4988,-1033,-527,-1896,-1524,4316,48,42,825
1042494,2529148,2757356,2530584,2759960,594,2239,5171,-712,-280,-1767,-1679,4125,48,42,825
1043495,2529440,2757568,2530781,2760157,678,2333,5313,-550,-18,-1672,-1685,3460,65,54,826
1044496,2529716,2757788,2530978,2760354,743,2273,5434,-424,240,-1515,-1651,3203,65,54,826
1045497,2530012,2758004,2531175,2760551,575,2291,5525,-415,482,-1338,-1420,2842,54,55,829
1046498,2530252,2758280,2531372,2760748,906,1881,5566,-455,690,-1131,-1222,2597,54,55,829
1047499,2530516,2758512,2531569,2760945,727,2142,5553,-578,853,-903,-1065,2222,39,42,828
1048500,2530780,2758760,2531766,2761142,698,2019,5507,-793,983,-634,-928,1931,39,42,828
1049501,2531012,2758976,2531963,2761339,882,2212,5435,-1067,1089,-314,-784,1487,39,55,829
1050502,2531260,2759216,2532160,2761536,760,2043,5323,-1491,1175,-54,-555,1004,39,55,829
1051503,2531492,2759448,2532357,2761733,845,2079,5169,-2045,1244,188,-361,557,39,61,830
1052504,2531708,2759724,2532554,2761930,936,1769,4996,-2815,1322,552,-183,-85,39,61,830
1053505,2531956,2759972,2532751,2762127,715,1922,4832,-3598,1458,1022,-286,-146,39,43,830
1054506,2532156,2760192,2532948,2762324,1014,2087,4649,-4328,1681,1320,-273,-66,39,43,830
1055507,2532352,2760408,2533145,2762521,1039,2104,4415,-5000,1962,1505,-269,48,32,54,830
1056508,2532544,2760604,2533342,2762718,1066,2231,4137,-5510,2297,1755,-137,447,32,54,830
1057509,2532728,2760820,2533539,2762915,1122,2097,3837,-5838,2664,2000,149,860,49,35,828
1058510,2532928,2761008,2533736,2763112,1021,2276,3518,-6017,3027,2048,265,1295,49,35,828
1059511,2533112,2761184,2533933,2763309,1127,2361,3170,-6076,3362,1973,353,1596,43,46,826
1060512,2533276,2761336,2534130,2763506,1267,2531,2803,-6040,3668,2098,477,1916,43,46,826
1061513,2533452,2761504,2534327,2763703,1201,2445,2426,-5871,3930,2287,680,2208,43,32,826
1062514,2533620,2761624,2534524,2763900,1264,2779,1996,-5597,4125,2336,964,2475,43,32,826
1063515,2533768,2761768,2534721,2764097,1410,2653,1490,-5256,4217,2320,1514,2681,42,21,825
1064516,2533928,2761872,2534918,2764294,1352,2944,935,-4873,4183,2309,2045,2947,42,21,825
1065517,2534092,2761964,2535115,2764491,1342,3065,390,-4375,4044,2452,2111,3271,29,30,823
1066518,2534252,2762052,2535312,2764688,1383,3139,-111,-3798,3880,2660,1966,3434,29,30,823
1067519,2534416,2762140,2535509,2764885,1373,3187,-596,-3179,3741,2776,1857,3679,41,11,821
1068520,2534592,2762240,2535706,2765082,1307,3155,-1052,-2525,3577,2903,1747,3803,41,11,821
1069521,2534768,2762336,2535903,2765279,1316,3225,-1522,-1972,3333,3105,2120,3631,44,13,819
1070522,2534952,2762428,2536100,2765476,1273,3297,-2044,-1383,3007,3353,2575,4008,44,13,819
1071523,2535116,2762508,2536297,2765673,1412,3424,-2594,-784,2628,3651,2918,4279,37,25,818
1072524,2535288,2762584,2536494,2765870,1373,3503,-3150,-266,2246,3800,2673,3926,37,25,818
1073525,2535476,2762664,2536691,2766067,1277,3530,-3623,45,1878,3899,2288,3527,36,14,818
1074526,2535648,2762772,2536888,2766264,1388,3394,-4037,266,1484,4199,2111,3552,36,14,818
1075527,2535804,2762880,2537085,2766461,1507,3434,-4339,345,1085,4351,1820,2949,30,30,817
1076528,2535996,2762992,2537282,2766658,1285,3448,-4532,233,759,4373,1060,2522,30,30,817
1077529,2536196,2763124,2537479,2766855,1233,3352,-4651,48,503,4376,640,2583,42,25,815
1078530,2536368,2763252,2537676,2767052,1419,3407,-4756,-70,293,4275,343,2974,42,25,815
1079531,2536564,2763384,2537873,2767249,1271,3412,-4863,-46,117,4059,96,3522,47,35,818
1080532,2536748,2763516,2538070,2767446,1351,3442,-4977,184,-20,3747,-116,4112,47,35,818
1081533,2536924,2763676,2538267,2767643,1411,3283,-5063,493,-157,3245,228,4354,36,24,817
1082534,2537120,2763856,2538464,2767840,1286,3166,-5118,889,-358,2657,579,4780,36,24,817
1083535,2537328,2764016,2538661,2768037,1207,3309,-5122,1272,-633,2128,712,4867,49,39,817
1084536,2537496,2764192,2538858,2768234,1470,3219,-5064,1618,-938,1776,856,4807,49,39,817
1085537,2537676,2764372,2539055,2768431,1403,3202,-4937,1850,-1243,1372,996,4618,51,25,820
1086538,2537848,2764564,2539252,2768628,1463,3129,-4742,2004,-1491,999,835,4541,51,25,820
1087539,2538048,2764744,2539449,2768825,1288,3213,-4506,2148,-1643,585,397,4684,33,42,819
1088540,2538220,2764920,2539646,2769022,1474,3248,-4227,2298,-1700,155,-114,4706,33,42,819
1089548,2538416,2765124,2539876,2769252,1339,3086,-3922,2467,-1686,-282,-442,4841,30,46,820
1090542,2538572,2765392,2540073,2769449,1608,2654,-3628,2550,-1622,-786,-506,4822,30,46,820
1091543,2538696,2765612,2540270,2769646,1840,2945,-3350,2628,-1506,-1229,-671,4999,40,52,819
1092544,2538908,2765844,2540467,2769843,1284,2856,-3073,2690,-1317,-1569,-997,5083,40,52,819
1093545,2539044,2766068,2540664,2770040,1785,2895,-2786,2755,-1063,-1804,-1032,5104,44,38,821
1094546,2539188,2766348,2540861,2770237,1760,2509,-2496,2824,-771,-2066,-1000,5239,44,38,821
1095547,2539360,2766604,2541058,2770434,1596,2634,-2212,2895,-473,-2390,-1027,5356,42,46,822
1096548,2539516,2766880,2541255,2770631,1714,2475,-1917,2879,-194,-2667,-1093,5224,42,46,822
1097549,2539672,2767140,2541452,2770828,1733,2548,-1601,2754,72,-2777,-1097,5099,46,42,823
1098550,2539828,2767400,2541649,2771025,1751,2521,-1290,2596,325,-2840,-994,5048,46,42,823
1099551,2539976,2767644,2541846,2771222,1822,2601,-986,2422,568,-2936,-1053,5010,44,58,823
1100552,2540084,2767856,2542043,2771419,2112,2795,-682,2195,799,-3038,-1323,5048,44,58,823
1101553,2540232,2768156,2542240,2771616,1884,2200,-390,1966,1028,-2993,-1512,5100,17,56,823
1102554,2540348,2768464,2542437,2771813,2121,2102,-131,1732,1241,-2840,-1514,5199,17,56,823
1103555,2540448,2768708,2542634,2772010,2263,2483,91,1547,1443,-2675,-1541,5428,39,48,818
1104556,2540564,2768956,2542831,2772207,2199,2435,288,1369,1635,-2456,-1487,5424,39,48,818
1105557,2540684,2769200,2543028,2772404,2209,2441,462,1171,1815,-2062,-1472,5344,17,57,822
1106558,2540816,2769468,2543225,2772601,2162,2260,607,944,1971,-1558,-1352,5225,17,57,822
1107559,2540932,2769760,2543422,2772798,2299,2069,747,621,2069,-1170,-1081,4931,41,59,821
1108560,2541084,2770004,2543619,2772995,2094,2349,890,207,2119,-889,-862,4772,41,59,821
1109561,2541228,2770220,2543816,2773192,2168,2516,1030,-244,2136,-546,-498,4687,41,39,822
1110562,2541372,2770468,2544013,2773389,2191,2294,1147,-635,2128,-276,-323,4725,41,39,822
1111563,2541528,2770732,2544210,2773586,2135,2165,1259,-1046,2119,38,-341,4575,40,54,821
1112564,2541676,2771004,2544407,2773783,2207,2083,1369,-1480,2096,388,-188,4500,40,54,821
1113565,2541844,2771244,2544604,2773980,2095,2264,1507,-1849,2049,563,58,4656,25,49,822
1114566,2542012,2771468,2544801,2774177,2108,2353,1667,-2079,1952,491,501,4984,25,49,822
1115567,2542192,2771676,2544998,2774374,2042,2449,1841,-2174,1851,425,525,5432,36,53,821
1116568,2542348,2771900,2545195,2774571,2210,2337,2023,-2164,1801,481,476,5571,36,53,821
1117569,2542564,2772184,2545392,2774768,1827,1925,2189,-2051,1798,460,452,5819,47,52,822
1118570,2542748,2772496,2545589,2774965,2033,1700,2328,-1829,1794,270,422,5986,47,52,822
1119572,2542964,2772756,2545786,2775162,1826,1997,2452,-1571,1773,-24,295,6072,54,56,822
1120572,2543168,2772976,2545983,2775359,1898,2238,2581,-1284,1767,-230,334,5984,54,56,822
1121573,2543344,2773224,2546180,2775556,2083,2040,2709,-1044,1753,-359,322,5750,37,44,825
1122574,2543548,2773528,2546377,2775753,1905,1644,2833,-808,1748,-479,59,5545,37,44,825
1123575,2543768,2773868,2546574,2775950,1796,1356,2957,-650,1751,-613,1,5186,37,51,824
1124576,2543980,2774152,2546771,2776147,1840,1669,3083,-495,1771,-775,170,5066,37,51,824
1125577,2544176,2774416,2546968,2776344,1940,1765,3203,-355,1789,-852,214,4813,37,51,826
1126578,2544400,2774708,2547165,2776541,1755,1548,3320,-241,1806,-994,167,4584,37,51,826
1127579,2544604,2775020,2547362,2776738,1877,1373,3414,-190,1833,-1092,91,4295,35,67,826
1128580,2544804,2775332,2547559,2776935,1901,1323,3470,-197,1861,-1047,141,4013,35,67,826
1129581,2544988,2775636,2547756,2777132,2007,1326,3484,-167,1912,-809,-112,3981,51,61,828
1130582,2545224,2775912,2547953,2777329,1666,1467,3489,-114,2005,-680,-251,3823,51,61,828
1131583,2545424,2776248,2548150,2777526,1889,1031,3497,54,2130,-586,-318,3949,54,57,828
1132584,2545608,2776552,2548347,2777723,1996,1184,3517,183,2282,-485,-575,3756,54,57,828
1133585,2545820,2776856,2548544,2777920,1815,1137,3532,328,2413,-337,-406,3733,53,47,829
1134586,2546008,2777132,2548741,2778117,1970,1278,3537,461,2489,-244,-281,3506,53,47,829
1135587,2546204,2777380,2548938,2778314,1920,1431,3535,532,2505,-243,63,3149,52,53,828
1136588,2546424,2777668,2549135,2778511,1761,1141,3523,507,2464,-158,513,2830,52,53,828
1137589,2546604,2777936,2549332,2778708,2018,1235,3502,428,2428,38,431,2609,51,56,827
1138590,2546788,2778212,2549529,2778905,2000,1150,3462,357,2437,278,53,2496,51,56,827
1139591,2546984,2778452,2549726,2779102,1925,1356,3413,229,2486,490,-155,2213,27,59,829
1140592,2547168,2778684,2549923,2779299,2007,1392,3341,83,2521,647,144,2233,27,59,829
1141593,2547332,2778920,2550120,2779496,2147,1350,3243,-17,2508,850,339,2194,42,52,828
1142594,2547524,2779208,2550317,2779693,1975,985,3127,-71,2464,1030,281,2189,42,52,828
1143595,2547692,2779428,2550514,2779890,2138,1400,3002,-87,2373,1051,797,2213,43,40,827
1144596,2547880,2779680,2550711,2780087,2018,1175,2860,-70,2235,1093,918,2216,43,40,827
1145597,2548104,2779952,2550908,2780284,1782,1017,2703,-4,2069,1204,848,2321,36,53,829
1146598,2548272,2780160,2551105,2780481,2144,1413,2517,113,1886,1284,612,2322,36,53,829
1147599,2548456,2780400,2551302,2780678,2051,1194,2309,216,1740,1458,-155,2292,36,44,827
1148600,2548648,2780652,2551499,2780875,2003,1094,2063,305,1594,1529,-103,2111,36,44,827
1149601,2548828,2780904,2551696,2781072,2087,1070,1782,351,1341,1495,888,1897,27,38,825
1150602,2548988,2781120,2551893,2781269,2228,1287,1496,382,1031,1536,781,1858,27,38,825
1151603,2549156,2781348,2552090,2781466,2192,1198,1224,405,749,1477,667,1941,47,51,828
1152604,2549368,2781536,2552287,2781663,1910,1452,964,497,516,1358,519,1997,47,51,828
1153605,2549588,2781740,2552484,2781860,1851,1349,692,616,312,1390,146,2017,51,32,826
1154606,2549768,2781988,2552681,2782057,2109,1052,404,734,107,1388,250,1957,51,32,826
1155607,2549964,2782192,2552878,2782254,2010,1324,96,772,-137,1350,696,1843,34,36,828
1156608,2550156,2782420,2553075,2782451,2038,1160,-232,851,-378,1348,246,1838,34,36,828
1157609,2550340,2782640,2553272,2782648,2094,1200,-578,967,-613,1251,341,1889,29,44,828
1158610,2550552,2782816,2553469,2782845,1913,1484,-919,1083,-847,1150,783,1860,29,44,828
1159611,2550772,2782996,2553666,2783042,1853,1467,-1253,1181,-1044,1154,585,1961,34,31,827
1160612,2551000,2783224,2553863,2783239,1791,1153,-1589,1293,-1161,1217,-15,2016,34,31,827
1161613,2551256,2783420,2554060,2783436,1590,1354,-1926,1375,-1257,1185,99,1840,35,47,827
1162614,2551456,2783640,2554257,2783633,1939,1193,-2228,1359,-1363,1199,-153,1603,35,47,827
1163615,2551668,2783804,2554454,2783830,1858,1558,-2495,1268,-1489,1211,-275,1528,50,40,829
1164616,2551888,2783996,2554651,2784027,1799,1385,-2732,1132,-1630,1112,-217,1494,50,40,829
1165617,2552108,2784136,2554848,2784224,1789,1735,-2934,955,-1760,996,-225,1547,40,40,829
1166618,2552352,2784316,2555045,2784421,1619,1493,-3118,745,-1856,1020,-245,1580,40,40,829
1167619,2552592,2784520,2555242,2784618,1625,1340,-3289,538,-1907,1128,-234,1608,58,39,828
1168620,2552816,2784716,2555439,2784815,1714,1390,-3460,356,-1905,1285,-290,1689,58,39,828
1169621,2553032,2784892,2555636,2785012,1757,1524,-3640,110,-1868,1325,-376,1629,55,30,828
1170622,2553256,2785068,2555833,2785209,1695,1533,-3826,-92,-1790,1310,-473,1995,55,30,828
1171623,2553468,2785248,2556030,2785406,1763,1517,-4003,-241,-1664,1308,-546,2232,31,32,827
1172631,2553672,2785392,2556260,2785636,1826,1780,-4183,-338,-1503,1290,-505,2615,31,32,827
1173625,2553860,2785540,2556457,2785833,1930,1776,-4363,-407,-1346,1224,-278,2844,45,35,828
1174626,2554044,2785648,2556654,2786030,1961,2065,-4553,-386,-1223,1357,-12,3335,45,35,828
1175627,2554224,2785776,2556851,2786227,1994,1971,-4720,-337,-1141,1443,165,3315,29,33,826
1176628,2554392,2785928,2557048,2786424,2083,1840,-4836,-354,-1078,1493,204,3308,29,33,826
1177629,2554616,2786092,2557245,2786621,1721,1780,-4958,-366,-1023,1633,55,3651,44,35,824
1178630,2554820,2786264,2557442,2786818,1844,1741,-5079,-422,-966,1725,-60,3581,44,35,824
1179631,2555028,2786428,2557639,2787015,1814,1805,-5183,-539,-904,1791,-173,3422,33,26,825
1180632,2555280,2786576,2557836,2787212,1516,1927,-5283,-678,-843,2036,-340,3532,33,26,825
1181633,2555464,2786740,2558033,2787409,1946,1841,-5396,-753,-783,2228,-541,3879,52,38,825
1182634,2555668,2786868,2558230,2787606,1819,2097,-5489,-779,-738,2325,-906,4071,52,38,825
1183635,2555884,2787024,2558427,2787803,1736,1941,-5565,-741,-719,2305,-1043,4381,41,35,827
1184636,2556124,2787152,2558624,2788000,1568,2146,-5631,-671,-731,2207,-1128,4701,41,35,827
1185637,2556368,2787272,2558821,2788197,1522,2230,-5679,-557,-771,2182,-1200,4982,56,28,825
1186638,2556548,2787412,2559018,2788394,1931,2130,-5691,-402,-837,2117,-1217,5156,56,28,825
1187639,2556776,2787580,2559215,2788591,1617,1968,-5661,-176,-909,2087,-1515,5425,52,29,825
1188640,2556992,2787728,2559412,2788788,1685,2114,-5599,106,-982,2032,-1967,5729,52,29,825
1189641,2557208,2787872,2559609,2788985,1677,2164,-5497,441,-1069,1922,-2148,6021,48,18,823
1190642,2557428,2788036,2559806,2789182,1643,2053,-5335,853,-1174,1818,-2274,6322,48,18,823
1191643,2557632,2788180,2560003,2789379,1739,2201,-5110,1277,-1295,1663,-2365,6447,29,29,824
1192644,2557856,2788300,2560200,2789576,1604,2385,-4829,1689,-1413,1572,-2555,6525,29,29,824
1193645,2558024,2788464,2560397,2789773,1966,2126,-4517,2037,-1508,1520,-2745,6415,46,31,824
1194646,2558220,2788584,2560594,2789970,1793,2435,-4188,2323,-1554,1504,-2950,6249,46,31,824
1195647,2558412,2788752,2560791,2790167,1820,2147,-3803,2491,-1560,1419,-2845,5992,46,31,824
1196648,2558592,2788908,2560988,2790364,1902,2240,-3378,2538,-1548,1355,-2503,5702,46,31,824
1197649,2558788,2789092,2561185,2790561,1804,2072,-2934,2489,-1514,1271,-1862,5577,47,29,823
1198650,2558984,2789276,2561382,2790758,1804,2078,-2507,2405,-1481,1100,-668,5515,47,29,823
1199651,2559180,2789452,2561579,2790955,1806,2137,-2136,2404,-1464,910,-378,5932,25,31,823
1200652,2559368,2789612,2561776,2791152,1860,2253,-1820,2502,-1432,667,-884,6211,25,31,823
1201653,2559572,2789796,2561973,2791349,1758,2110,-1546,2651,-1351,506,-1583,6449,46,39,824
1202654,2559752,2789932,2562170,2791546,1915,2437,-1269,2798,-1231,301,-1917,6485,46,39,824
1203655,2559964,2790104,2562367,2791743,1710,2223,-957,2851,-1088,21,-2231,6173,45,41,822
1204656,2560180,2790272,2562564,2791940,1676,2262,-631,2833,-934,-170,-2272,5989,45,41,822
1205657,2560396,2790460,2562761,2792137,1669,2140,-290,2699,-782,-197,-2038,5645,33,37,822
1206658,2560604,2790680,2562958,2792334,1714,1930,30,2529,-657,-170,-1402,5588,33,37,822
1207659,2560768,2790856,2563155,2792531,2003,2216,297,2303,-586,-130,-886,5467,39,43,825
1208660,2560968,2791008,2563352,2792728,1778,2385,489,2069,-566,-20,-532,5386,39,43,825
1209661,2561132,2791160,2563549,2792925,2018,2405,640,1787,-548,304,-659,5201,25,39,826
1210662,2561332,2791324,2563746,2793122,1792,2346,793,1470,-470,670,-1317,5080,25,39,826
1211663,2561516,2791540,2563943,2793319,1898,2012,964,1194,-315,697,-2038,5082,30,29,823
1212664,2561660,2791724,2564140,2793516,2172,2218,1106,1006,-106,436,-2356,5386,30,29,823
1213665,2561840,2791916,2564337,2793713,1955,2171,1190,890,90,188,-2188,5679,41,45,822
1214666,2561968,2792108,2564534,2793910,2311,2173,1244,827,263,264,-2062,5784,41,45,822
1215667,2562124,2792284,2564731,2794107,2154,2283,1297,750,438,562,-1875,5552,23,38,821
1216668,2562292,2792496,2564928,2794304,2093,2052,1355,601,645,813,-1901,5461,23,38,821
1217669,2562460,2792696,2565125,2794501,2106,2126,1401,437,887,851,-1841,5404,32,47,821
1218670,2562632,2792872,2565322,2794698,2093,2285,1428,279,1122,782,-1611,5348,32,47,821
1219671,2562808,2793040,2565519,2794895,2077,2349,1424,251,1332,655,-1392,5673,22,49,824
1220672,2562996,2793244,2565716,2795092,2007,2121,1401,317,1471,528,-849,5789,22,49,824
1221673,2563184,2793436,2565913,2795289,2011,2198,1378,395,1518,467,-334,5642,43,38,821
1222674,2563364,2793628,2566110,2795486,2069,2201,1381,460,1492,372,69,5647,43,38,821
1223675,2563568,2793832,2566307,2795683,1916,2123,1437,536,1408,205,174,5552,27,41,823
1224676,2563768,2793984,2566504,2795880,1941,2468,1537,610,1289,39,-31,5553,27,41,823
1225677,2563952,2794136,2566701,2796077,2047,2488,1625,735,1175,138,-350,5654,44,44,821
1226678,2564164,2794292,2566898,2796274,1866,2481,1697,827,1076,404,-644,5491,44,44,821
1227679,2564364,2794452,2567095,2796471,1940,2474,1778,924,999,616,-1118,5466,32,31,822
1228680,2564528,2794668,2567292,2796668,2180,2115,1871,974,930,633,-1518,5260,32,31,822
1229681,2564732,2794852,2567489,2796865,1927,2321,1964,1087,867,501,-1694,5355,47,45,822
1230682,2564924,2795032,2567686,2797062,2005,2355,2067,1137,821,438,-1574,4964,47,45,822
1231683,2565096,2795224,2567883,2797259,2141,2282,2187,1010,767,568,-1125,4388,30,33,823
1232684,2565248,2795380,2568080,2797456,2287,2525,2292,799,685,540,-536,4103,30,33,823
1233685,2565396,2795560,2568277,2797653,2334,2383,2390,507,607,370,-240,3845,20,31,822
1234686,2565536,2795752,2568474,2797850,2410,2310,2476,226,554,227,-260,3855,20,31,822
1235687,2565676,2795932,2568671,2798047,2436,2394,2545,-26,548,144,-195,3923,36,45,818
1236688,2565812,2796112,2568868,2798244,2487,2401,2579,-125,585,155,-277,4190,36,45,818
1237689,2565944,2796300,2569065,2798441,2542,2355,2573,-172,664,58,-447,4147,39,40,818
1238690,2566092,2796524,2569262,2798638,2464,2120,2534,-230,753,-164,-480,4113,39,40,818
1239691,2566248,2796716,2569459,2798835,2433,2322,2491,-301,794,-386,-314,4111,19,34,819
1240692,2566360,2796884,2569656,2799032,2746,2485,2452,-350,799,-553,-204,4076,19,34,819
1241693,2566520,2797056,2569853,2799229,2462,2471,2414,-349,794,-753,-273,4178,31,48,821
1242694,2566684,2797260,2570050,2799426,2453,2268,2379,-317,789,-948,-220,4087,31,48,821
1243695,2566816,2797468,2570247,2799623,2681,2240,2347,-294,801,-1000,-131,4118,41,45,817
1244696,2566944,2797640,2570444,2799820,2738,2476,2309,-192,847,-960,-297,4234,41,45,817
1245696,2567140,2797872,2570641,2800017,2314,2086,2268,-97,956,-1040,-493,4168,41,32,820
1246698,2567248,2798036,2570838,2800214,2903,2526,2221,33,1146,-1059,-934,4221,41,32,820
1247699,2567388,2798240,2571035,2800411,2729,2274,2175,108,1385,-987,-996,3968,36,42,816
1248700,2567552,2798428,2571232,2800608,2595,2378,2119,99,1593,-1062,-79,3737,36,42,816
1249701,2567696,2798624,2571429,2800805,2744,2328,2057,37,1720,-1098,204,3517,37,37,815
1250702,2567832,2798872,2571626,2801002,2821,1982,2010,-96,1792,-1149,274,3336,37,37,815
1251703,2567960,2799076,2571823,2801199,2902,2253,1991,-167,1840,-1120,207,3605,39,43,818
1252704,2568124,2799296,2572020,2801396,2693,2144,2000,-166,1919,-1011,26,3730,39,43,818
1253705,2568276,2799540,2572217,2801593,2787,1974,2038,-94,2052,-886,-283,3817,22,39,819
1254706,2568408,2799768,2572414,2801790,2942,2060,2074,-75,2214,-778,-585,3704,22,39,819
1255716,2568620,2799992,2572644,2802020,2451,2089,2085,-74,2341,-717,-572,3594,45,44,819
1256708,2568752,2800248,2572841,2802217,2980,1863,2062,-111,2384,-701,-182,3473,45,44,819
1257709,2568920,2800484,2573038,2802414,2768,1972,2028,-237,2344,-724,98,3193,27,46,817
1258710,2569144,2800704,2573235,2802611,2407,2062,2001,-400,2263,-642,63,3244,27,46,817
1259711,2569308,2800908,2573432,2802808,2798,2158,2001,-589,2208,-471,-4,3115,43,40,818
1260712,2569464,2801164,2573629,2803005,2867,1809,2004,-759,2186,-285,227,3234,43,40,818
1261713,2569644,2801436,2573826,2803202,2725,1676,1983,-850,2175,-246,334,3456,25,41,822
1262714,2569828,2801684,2574023,2803399,2706,1803,1931,-918,2178,-163,341,3528,25,41,822
1263715,2569964,2801916,2574220,2803596,3034,1889,1882,-1003,2185,-38,546,3408,40,40,820
1264716,2570148,2802144,2574417,2803793,2741,1900,1872,-1086,2163,-8,730,3476,40,40,820
1265717,2570324,2802392,2574614,2803990,2801,1753,1886,-1171,2081,6,674,3571,39,51,821
1266718,2570476,2802668,2574811,2804187,2972,1544,1937,-1289,1986,108,378,3615,39,51,821
1267719,2570652,2802948,2575008,2804384,2831,1483,2018,-1354,1899,268,489,3716,46,54,819
1268720,2570844,2803196,2575205,2804581,2734,1660,2079,-1337,1843,322,667,3897,46,54,819
1269721,2570984,2803504,2575402,2804778,3085,1236,2112,-1219,1822,338,476,4151,40,46,818
1270722,2571132,2803680,2575599,2804975,3058,2072,2128,-1090,1812,227,744,4195,40,46,818
1271723,2571284,2803800,2575796,2805172,3053,2455,2125,-906,1789,146,667,4401,23,30,821
1272724,2571404,2803956,2575993,2805369,3288,2248,2107,-748,1718,52,584,4301,23,30,821
1273725,2571532,2804088,2576190,2805566,3269,2427,2087,-539,1581,-90,1042,4555,41,32,817
1274726,2571716,2804212,2576387,2805763,2925,2510,2058,-301,1420,-238,1592,4550,41,32,817
1275727,2571816,2804384,2576584,2805960,3494,2221,2004,-29,1223,-434,1989,4699,42,28,814
1276728,2571944,2804564,2576781,2806157,3350,2179,1933,291,975,-557,1878,4695,42,28,814
1277729,2572156,2804836,2576978,2806354,2820,1572,1857,588,735,-539,923,4723,43,36,816
1278730,2572336,2805168,2577175,2806551,3028,1137,1733,1012,572,-462,520,5003,43,36,816
1279731,2572512,2805380,2577372,2806748,3063,1881,1599,1225,471,-461,1277,4354,39,57,814
1280732,2572696,2805680,2577569,2806945,3020,1285,1472,1429,425,-277,1489,4427,39,57,814
1281733,2572868,2805948,2577766,2807142,3107,1455,1370,1511,448,-190,1510,3912,49,51,820
1282734,2573020,2806220,2577963,2807339,3253,1397,1262,1579,507,-87,1662,3931,49,51,820
1283735,2573192,2806488,2578160,2807536,3140,1391,1155,1586,511,-168,1829,3628,48,57,821
1284736,2573336,2806776,2578357,2807733,3339,1226,1060,1584,465,-195,1651,3631,48,57,821
1285737,2573496,2807076,2578554,2807930,3256,1106,950,1631,431,-147,1347,3792,35,57,819
1286738,2573652,2807340,2578751,2808127,3300,1302,831,1682,430,-245,1336,3625,35,57,819
1287739,2573820,2807580,2578948,2808324,3239,1433,692,1804,444,-274,1015,3898,45,63,819
1288740,2573952,2807868,2579145,2808521,3494,1093,572,1882,487,-211,405,3706,45,63,819
1289741,2574112,2808236,2579342,2808718,3336,518,491,2005,540,-185,355,3771,41,70,819
1290742,2574236,2808564,2579539,2808915,3594,711,396,2030,549,-220,790,3333,41,70,819
1291743,2574380,2808844,2579736,2809112,3493,974,266,2011,462,-198,1468,3380,22,55,817
1292744,2574572,2809116,2579933,2809309,3196,991,92,2023,285,-87,2036,3600,22,55,817
1293745,2574736,2809420,2580130,2809506,3387,744,-133,2139,86,110,2073,3903,27,55,819
1294746,2574904,2809756,2580327,2809703,3376,483,-393,2402,-125,280,2006,4240,27,55,819
1295747,2575092,2809996,2580524,2809900,3256,1064,-636,2739,-343,425,2018,4382,45,61,821
1296748,2575268,2810232,2580721,2810097,3341,1072,-829,3120,-553,705,2012,4400,45,61,821
1297749,2575456,2810440,2580918,2810294,3271,1242,-999,3448,-722,957,2076,4308,50,50,822
1298750,2575648,2810684,2581115,2810491,3249,997,-1163,3674,-862,1051,2275,4159,50,50,822
1299751,2575852,2810928,2581312,2810688,3172,976,-1369,3857,-1055,1098,2696,4028,53,49,820
1300752,2576060,2811132,2581509,2810885,3143,1223,-1561,4047,-1256,1274,2602,4074,53,49,820
1301753,2576252,2811348,2581706,2811082,3246,1140,-1726,4232,-1473,1353,2887,3909,47,50,820
1302754,2576484,2811532,2581903,2811279,2982,1345,-1864,4289,-1736,1374,3212,3474,47,50,820
1303755,2576704,2811704,2582100,2811476,3048,1431,-1958,4266,-2003,1440,3298,3279,40,46,820
1304756,2576936,2811856,2582297,2811673,2958,1576,-1993,4143,-2237,1476,3265,3106,40,46,820
1305757,2577180,2812048,2582494,2811870,2864,1328,-2002,4004,-2439,1457,3243,3077,41,46,822
1306758,2577404,2812236,2582691,2812067,2978,1357,-2024,3891,-2629,1445,3224,3179,41,46,822
1307759,2577628,2812412,2582888,2812264,2967,1441,-2077,3858,-2828,1395,3302,3309,47,30,821
1308760,2577880,2812584,2583085,2812461,2769,1477,-2156,3875,-3018,1322,3243,3407,47,30,821
1309761,2578100,2812724,2583282,2812658,2960,1702,-2262,3975,-3184,1223,3124,3751,40,30,821
1310762,2578324,2812856,2583479,2812855,2924,1781,-2380,4151,-3322,1060,2887,3978,40,30,821
1311763,2578572,2813008,2583676,2813052,2752,1676,-2496,4357,-3421,964,2060,4085,47,26,822
1312764,2578804,2813164,2583873,2813249,2838,1669,-2615,4623,-3520,726,1512,4153,47,26,822
1313765,2579040,2813336,2584070,2813446,2797,1580,-2731,4892,-3672,334,1173,4173,41,36,819
1314766,2579280,2813496,2584267,2813643,2754,1671,-2830,5173,-3872,-68,464,4200,41,36,819
1315767,2579484,2813664,2584464,2813840,2977,1634,-2894,5509,-4124,-533,126,4361,44,25,821
1316768,2579692,2813848,2584661,2814037,2948,1540,-2914,5853,-4453,-1084,40,4426,44,25,821
1317769,2579896,2813976,2584858,2814234,2971,1920,-2922,6248,-4880,-1691,-145,4607,40,36,821
1318770,2580096,2814120,2585055,2814431,2996,1843,-2938,6633,-5343,-2129,-470,4591,40,36,821
1319771,2580324,2814272,2585252,2814628,2808,1813,-2963,7028,-5757,-2424,-1041,4654,34,21,821
1320772,2580500,2814404,2585449,2814825,3143,1967,-2996,7444,-6079,-2601,-1716,4629,34,21,821
1321773,2580736,2814476,2585646,2815022,2751,2396,-3014,7790,-6290,-2716,-2454,4551,32,36,818
1322774,2580944,2814596,2585843,2815219,2922,2130,-3012,8030,-6343,-2810,-3150,4391,32,36,818
1323775,2581128,2814748,2586040,2815416,3079,1950,-2981,8129,-6226,-2866,-3783,4030,38,28,817
1324776,2581364,2814928,2586237,2815613,2738,1783,-2926,8071,-5981,-2961,-4434,3649,38,28,817
1325777,2581568,2815076,2586434,2815810,2936,2005,-2834,7804,-5645,-3068,-4743,3195,39,32,817
1326778,2581768,2815216,2586631,2816007,2961,2080,-2703,7297,-5265,-3172,-4871,2584,39,32,817
1327779,2582012,2815348,2586828,2816204,2666,2159,-2531,6586,-4888,-3311,-4801,2057,38,36,821
1328780,2582212,2815500,2587025,2816401,2941,2053,-2325,5619,-4513,-3456,-4685,1529,38,36,821
1329781,2582420,2815628,2587222,2816598,2887,2234,-2107,4492,-4140,-3574,-4553,1291,33,39,817
1330782,2582640,2815776,2587419,2816795,2803,2130,-1891,3385,-3739,-3658,-4483,1618,33,39,817
1331783,2582852,2815932,2587616,2816992,2847,2099,-1731,2430,-3283,-3659,-4348,2159,36,23,818
1332784,2583096,2816056,2587813,2817189,2627,2331,-1617,1563,-2811,-3635,-3995,2472,36,23,818
1333785,2583348,2816204,2588010,2817386,2554,2203,-1536,747,-2377,-3627,-3323,2738,54,23,819
1334786,2583616,2816352,2588207,2817583,2423,2224,-1457,-87,-1998,-3490,-2752,2910,54,23,819
1335787,2583860,2816496,2588404,2817780,2553,2273,-1378,-956,-1638,-3381,-2366,2774,57,24,817
1336788,2584148,2816628,2588601,2817977,2239,2377,-1331,-1799,-1274,-3315,-2226,3077,57,24,817
1337789,2584440,2816764,2588798,2818174,2174,2379,-1305,-2581,-937,-3173,-2078,3417,44,30,820
1338797,2584736,2816896,2589028,2818404,2121,2447,-1303,-3179,-631,-2990,-2109,4171,44,30,820
1339791,2585056,2817016,2589225,2818601,1918,2556,-1308,-3537,-350,-2732,-2060,4893,56,23,820
1340792,2585352,2817136,2589422,2818798,2024,2591,-1330,-3762,-94,-2422,-1858,5486,56,23,820
1341793,2585652,2817296,2589619,2818995,1955,2357,-1357,-3833,117,-2092,-1383,5929,50,36,821
1342794,2585976,2817476,2589816,2819192,1750,2240,-1376,-3888,257,-1679,-910,6038,50,36,821
1343795,2586320,2817624,2590013,2819389,1561,2462,-1331,-3952,342,-1264,-556,6081,56,30,821
1344796,2586644,2817804,2590210,2819586,1631,2270,-1200,-4058,404,-840,-265,5972,56,30,821
1345797,2586948,2817940,2590407,2819783,1710,2571,-1027,-4182,428,-373,213,5951,58,27,823
1346798,2587300,2818052,2590604,2819980,1342,2760,-834,-4353,418,139,664,5860,58,27,823
1347799,2587616,2818204,2590801,2820177,1515,2530,-631,-4520,359,578,1039,5813,70,27,823
1348800,2587940,2818336,2590998,2820374,1410,2684,-416,-4687,267,1025,1266,5875,70,27,823
