"Data file recorded 2014/9/24  18:11:24"
"%  Right Stride Frequency         = 3.0"
"%  Left Stride Frequency         = 3.0"
"%  Phase (Fractional)         = 32768.0"
"%  Experiment.py "
"%  Motor Gains    = [1800, 200, 100, 0, 0, 1800, 200, 100, 0, 0]
"% Columns: "
"% time | Right Leg Pos | Left Leg Pos | Commanded Right Leg Pos | Commanded Left Leg Pos | DCR | DCL | GyroX | GryoY | GryoZ | AX | AY | AZ | RBEMF | LBEMF | VBatt "
11020,8890372,9311564,8871590,9363110,-3800,3800,-136,-706,308,821,-459,3970,-7,-5,885
12014,8890368,9311572,8871787,9363307,-3800,3800,-139,-703,308,821,-444,3975,-9,-9,885
13015,8890364,9311616,8871984,9363504,-3800,3800,-138,-692,311,790,-529,3978,-9,-9,885
14016,8890188,9311648,8872181,9363701,-3800,3800,-133,-688,309,674,-155,4142,-35,4,842
15017,8889920,9311720,8872378,9363898,-3800,3800,-77,-713,325,534,-268,4584,-35,4,842
16018,8889628,9311800,8872575,9364095,-3800,3800,12,-577,276,1953,-303,5636,-48,10,842
17019,8889276,9311936,8872772,9364292,-3800,3800,48,-544,279,1389,-501,4470,-48,10,842
18007,8888864,9312028,8872969,9364489,-3204,3800,-33,-564,352,1277,-392,4101,-80,14,844
19008,8888392,9312184,8873166,9364686,-2538,3800,-46,-374,341,2511,-689,5488,-80,14,844
20009,8887928,9312336,8873363,9364883,-2300,3800,-58,-192,319,2154,-325,5160,-79,6,845
21010,8887432,9312520,8873560,9365080,-1799,3800,-86,-83,428,1379,-660,4423,-79,6,845
22011,8886912,9312712,8873757,9365277,-1337,3800,-130,-49,632,1335,-1174,4750,-94,29,853
23012,8886504,9312924,8873954,9365474,-1773,3800,-164,-31,778,1947,-973,4745,-94,29,853
24013,8886108,9313156,8874151,9365671,-1590,3800,-154,-174,853,2057,-243,4130,-80,29,857
25014,8885720,9313388,8874348,9365868,-1385,3800,-131,-283,921,2131,-21,5049,-80,29,857
26015,8885400,9313596,8874545,9366065,-1585,3800,-75,-277,1008,1870,-772,5439,-71,38,856
27016,8885128,9313824,8874742,9366262,-1681,3800,-36,-252,1137,1713,-796,5475,-71,38,856
28017,8884856,9314036,8874939,9366459,-1477,3800,-22,-156,1124,3468,-149,5719,-59,44,858
29018,8884656,9314216,8875136,9366656,-1754,3800,-19,-21,1108,2768,-226,5698,-59,44,858
30019,8884488,9314412,8875333,9366853,-1796,3800,-28,91,1194,2302,-476,5375,-33,41,857
31020,8884348,9314584,8875530,9367050,-1825,3800,-24,151,1324,2530,-66,5310,-33,41,857
32021,8884232,9314764,8875727,9367247,-1838,3800,15,199,1449,2171,-628,5288,-22,34,854
33023,8884144,9314896,8875924,9367444,-1890,3800,82,176,1663,540,-242,5363,-22,34,854
34023,8884056,9315040,8876121,9367641,-1766,3800,186,31,1850,1026,-966,4669,-6,13,854
35024,8883968,9315172,8876318,9367838,-1642,3800,323,-64,1965,1152,-653,5484,-6,13,854
36026,8883900,9315296,8876515,9368035,-1652,3800,439,-112,2104,466,-1350,4889,-21,24,849
37026,8883820,9315400,8876712,9368232,-1457,3800,512,-6,2275,125,-765,5433,-21,24,849
38028,8883748,9315504,8876909,9368429,-1390,3800,533,92,2490,-647,-1152,4557,-5,19,853
39028,8883688,9315612,8877106,9368626,-1353,3800,539,187,2652,-476,-1124,4663,-5,19,853
40029,8883624,9315708,8877303,9368823,-1215,3800,613,285,2780,-442,-1093,5334,-16,8,856
41030,8883588,9315812,8877500,9369020,-1289,3800,733,201,2843,-379,-859,4357,-16,8,856
42031,8883560,9315908,8877697,9369217,-1241,3800,856,-70,2716,487,299,4168,-16,15,856
43032,8883556,9316024,8877894,9369414,-1304,3800,970,-505,2567,-568,367,3907,-16,15,856
44033,8883544,9316132,8878091,9369611,-1163,3800,1030,-1003,2419,-807,631,3169,-10,4,854
45034,8883532,9316232,8878288,9369808,-1072,3800,1046,-1387,2205,-409,539,4188,-10,4,854
46035,8883540,9316356,8878485,9370005,-1115,3800,1017,-1515,1973,-945,380,4796,-2,7,856
47036,8883528,9316488,8878682,9370202,-899,3800,920,-1600,1782,-1266,578,4507,-2,7,856
48037,8883520,9316616,8878879,9370399,-835,3800,768,-1695,1617,-132,816,4319,11,26,855
49038,8883528,9316776,8879076,9370596,-853,3800,600,-1853,1494,98,411,4329,11,26,855
50039,8883516,9316944,8879273,9370793,-637,3800,499,-2005,1452,-788,-95,4775,11,20,858
51040,8883528,9317104,8879470,9370990,-707,3800,433,-2142,1451,-845,-26,4353,11,20,858
52041,8883520,9317288,8879667,9371187,-493,3800,322,-2361,1404,-304,398,3187,6,25,859
53042,8883512,9317512,8879864,9371384,-403,3800,208,-2450,1382,-462,240,4190,6,25,859
54043,8883520,9317704,8880061,9371581,-421,3800,124,-2318,1326,-88,1081,4373,12,43,860
55044,8883516,9317960,8880258,9371778,-258,3800,10,-2250,1268,102,823,3084,12,43,860
56045,8883520,9318208,8880455,9371975,-223,3800,-83,-2140,1214,297,1036,3746,3,49,861
57046,8883544,9318444,8880652,9372172,-273,3800,-144,-2082,1207,138,539,3217,3,49,861
58047,8883540,9318720,8880849,9372369,-10,3800,-187,-2220,1220,-275,698,2376,6,46,860
59048,8883544,9319048,8881046,9372566,24,3800,-171,-2466,1255,-715,383,2779,6,46,860
60049,8883580,9319372,8881243,9372763,-106,3800,-78,-2721,1293,-1176,1347,3433,-5,53,859
61050,8883588,9319684,8881440,9372960,152,3800,-26,-3029,1291,-616,935,2257,-5,53,859
62051,8883632,9320028,8881637,9373157,-6,3800,-29,-3287,1212,-174,-29,2644,1,58,864
63052,8883668,9320424,8881834,9373354,114,3800,-14,-3223,1143,-791,409,3964,1,58,864
64053,8883700,9320788,8882031,9373551,211,3800,-48,-3125,1170,-1272,1085,2742,19,60,863
65054,8883752,9321140,8882228,9373748,150,3800,-131,-3093,1210,90,467,2106,19,60,863
66055,8883784,9321456,8882425,9373945,346,3800,-174,-2942,1235,691,454,3546,14,60,864
67056,8883840,9321904,8882622,9374142,258,3800,-214,-2732,1266,582,-99,2584,14,60,864
68057,8883904,9322328,8882819,9374339,267,3800,-241,-2639,1338,444,170,2109,16,92,864
69058,8883984,9322800,8883016,9374536,218,3800,-221,-2603,1507,-199,444,2488,16,92,864
70059,8884080,9323324,8883213,9374733,161,3800,-226,-2751,1609,1069,-1403,333,29,92,863
71060,8884152,9323824,8883410,9374930,366,3800,-77,-2530,1648,957,1110,4342,29,92,863
72061,8884256,9324420,8883607,9375127,207,3800,41,-2285,1798,-196,-1516,1946,27,96,864
73062,8884360,9325040,8883804,9375324,248,3800,-53,-2431,1835,1381,-1185,-1086,27,96,864
74063,8884480,9325664,8884001,9375521,182,3800,-172,-2347,1842,891,-719,1911,19,103,865
75064,8884592,9326336,8884198,9375718,269,3800,-262,-2057,1879,966,-3422,1424,19,103,865
76065,8884732,9326972,8884395,9375915,119,3800,-311,-1757,1826,1772,-2838,1295,37,125,867
77066,8884856,9327720,8884592,9376112,251,3800,-488,-1717,1778,1118,-1961,-499,37,125,867
78067,8884968,9328476,8884789,9376309,364,3800,-774,-1793,1765,1526,-3692,-515,34,132,867
79068,8885080,9329280,8884986,9376506,401,3800,-922,-1440,1777,1656,-3608,3053,34,132,867
80069,8885192,9330212,8885183,9376703,439,3800,-1029,-867,1756,1600,-4155,1707,33,144,866
81070,8885300,9331040,8885380,9376900,503,3800,-1182,-431,1697,1424,-2246,641,33,144,866
82071,8885420,9331988,8885577,9377097,461,3800,-1267,-135,1729,885,-896,1356,31,160,866
83072,8885536,9332880,8885774,9377294,522,3800,-1259,-247,1800,1132,-1838,-143,31,160,866
84073,8885668,9333856,8885971,9377491,451,3800,-1151,-469,1827,1686,-2305,538,39,166,868
85074,8885804,9334896,8886168,9377688,452,3800,-941,-542,1789,2289,-2931,1468,39,166,868
86075,8885904,9335952,8886365,9377885,720,3800,-782,-478,1670,3002,-3701,475,25,195,869
87076,8886032,9336956,8886562,9378082,575,3800,-776,-422,1482,3164,-2362,-833,25,195,869
88077,8886148,9338024,8886759,9378279,686,3800,-752,-316,1314,2280,-185,377,27,195,870
89078,8886260,9339140,8886956,9378476,748,3800,-603,-79,1183,1501,-222,1096,27,195,870
90079,8886384,9340136,8887153,9378673,705,3800,-656,29,1074,1128,-2520,-1024,47,199,869
91080,8886496,9341264,8887350,9378870,818,3800,-754,261,961,1248,-3430,-129,47,199,869
92081,8886632,9342344,8887547,9379067,696,3800,-728,742,832,971,-65,2924,46,210,867
93089,8886756,9343404,8887974,9379494,904,3800,-705,1128,729,801,-219,8,46,210,867
94083,8886884,9344428,8888171,9379691,909,3800,-956,956,508,3683,-3737,-2889,28,211,869
95084,8887024,9345416,8888368,9379888,859,3800,-1091,1071,-226,8596,-4774,822,28,211,869
96085,8887164,9346412,8888565,9380085,884,3800,-880,1723,-683,2527,-3383,3836,28,198,868
97086,8887300,9347492,8888762,9380282,937,3800,-645,1978,-582,-1425,0,-1174,28,198,868
98086,8887440,9348448,8888959,9380479,937,3800,-442,1810,-288,-1300,297,9,47,199,869
99088,8887624,9349512,8889156,9380676,668,3800,-5,1719,-180,-150,-1454,2402,47,199,869
100089,8887748,9350496,8889353,9380873,1076,3800,541,1555,-240,-1014,-1012,1780,34,215,868
101090,8887896,9351532,8889550,9381070,947,3800,911,1221,-393,-2428,2017,670,34,215,868
102091,8888036,9352672,8889747,9381267,1022,3800,885,1132,-679,-4885,1558,3716,34,211,868
103092,8888180,9353700,8889944,9381464,1022,3800,725,1431,-1125,-5563,-899,7270,34,211,868
104093,8888376,9354648,8890141,9381661,697,3800,693,1651,-1671,-5199,-1603,8666,42,190,867
105094,8888516,9355640,8890338,9381858,1072,3800,821,1371,-2143,-3064,-2233,7073,42,190,867
106095,8888688,9356596,8890535,9382055,884,3800,1160,956,-2406,-23,-570,8363,32,189,867
107096,8888864,9357564,8890732,9382252,868,3800,1483,509,-2518,2577,861,6877,32,189,867
108097,8889040,9358556,8890929,9382449,878,3800,1683,-106,-2507,4089,1625,3312,33,183,867
109098,8889232,9359604,8891126,9382646,781,3800,1977,-730,-2527,5966,-728,5851,33,183,867
110099,8889396,9360640,8891323,9382843,970,3800,2378,-123,-2322,5295,-48,11841,44,184,867
111100,8889544,9361736,8891520,9383040,1092,3800,2582,1315,-1683,4411,-1538,10206,44,184,867
112101,8889708,9362848,8891717,9383237,1007,3800,2233,1755,-1774,11333,1369,1497,33,218,868
113102,8889844,9363900,8891914,9383434,1209,3800,1700,2027,-2096,7704,3291,4806,33,218,868
114090,8890004,9365088,8892111,9383631,1075,2858,1586,2954,-1838,3344,1866,8808,51,224,867
115091,8890168,9366312,8892308,9383828,1066,2186,2193,4159,-925,2480,-2476,13375,51,224,867
116092,8890352,9367480,8892505,9384025,947,2112,2532,4077,-94,4086,-1136,3108,47,235,869
117093,8890540,9368604,8892702,9384222,927,1983,2404,2957,582,3838,-583,2191,47,235,869
118094,8890696,9369700,8892899,9384419,1145,1766,2606,3048,1215,4037,-250,13111,33,240,876
119095,8890840,9370820,8893096,9384616,1244,1213,2628,3064,1626,3454,2630,3396,33,240,876
120096,8891000,9371772,8893293,9384813,1160,1934,2091,2933,1836,2736,3859,1789,48,208,876
121097,8891136,9372648,8893490,9385010,1337,2113,1524,3719,2176,3226,2232,8948,48,208,876
122098,8891276,9373368,8893687,9385207,1338,2861,989,4753,2493,3179,3502,6145,44,174,877
123099,8891432,9374084,8893884,9385404,1256,2660,10,4518,2453,2463,4451,-2289,44,174,877
124100,8891584,9374720,8894081,9385601,1302,2969,-851,4329,2210,2811,-1741,6865,31,130,872
125101,8891724,9375312,8894278,9385798,1402,3073,-1167,4802,2085,380,-3140,12405,31,130,872
126102,8891868,9375792,8894475,9385995,1401,3650,-1476,3382,2155,-4726,200,126,25,107,868
127116,8892008,9376168,8894672,9386192,1451,3800,-1307,1121,2284,-7173,-2402,10175,25,107,868
128117,8892172,9376536,8894869,9386389,1317,3800,-725,-639,2049,-3851,-1017,13876,42,84,865
129117,8892296,9376860,8895066,9386586,1599,3800,-676,-2352,1430,-4460,1701,7978,42,84,865
130118,8892456,9377156,8895263,9386783,1391,3800,-945,-3654,873,-3695,-412,10808,34,73,858
131119,8892580,9377428,8895460,9386980,1648,3800,-1241,-4174,285,-2441,3956,11293,34,73,858
132121,8892696,9377652,8895657,9387177,1735,3800,-1564,-4397,-284,-4231,5749,8494,42,56,857
133122,8892872,9377860,8895854,9387374,1369,3800,-1719,-4640,-578,-4424,3125,9039,42,56,857
134123,8893020,9378020,8896051,9387571,1566,3800,-1720,-5113,-774,-1361,1688,6412,28,42,856
135124,8893172,9378172,8896248,9387768,1562,3800,-1637,-5655,-807,-468,438,6656,28,42,856
136125,8893304,9378320,8896445,9387965,1716,3800,-1440,-6035,-733,201,-455,8521,31,22,855
137126,8893456,9378452,8896642,9388162,1612,3800,-1233,-6228,-635,1627,-550,7312,31,22,855
138127,8893580,9378540,8896839,9388359,1819,3800,-1124,-6138,-492,2765,-303,8147,37,20,855
139128,8893700,9378644,8897036,9388556,1879,3800,-1126,-5827,-381,3526,553,7766,37,20,855
140129,8893816,9378764,8897233,9388753,1940,3800,-1096,-5596,-325,2536,1810,7141,22,15,854
141130,8893924,9378904,8897430,9388950,2029,3800,-1008,-5292,-250,1425,1826,7290,22,15,854
142131,8894068,9379024,8897627,9389147,1829,3800,-1005,-5030,-135,2071,421,6329,26,24,853
143132,8894216,9379172,8897824,9389344,1826,3800,-1140,-4967,54,2687,-80,4311,26,24,853
144133,8894376,9379340,8898021,9389541,1767,3800,-1193,-4915,249,3054,1115,5219,29,23,852
145134,8894528,9379524,8898218,9389738,1838,3800,-986,-4809,460,2543,-746,6049,29,23,852
146135,8894680,9379688,8898415,9389935,1859,3800,-666,-4595,701,2103,-750,5241,46,44,853
147136,8894816,9379944,8898612,9390132,1986,3800,-418,-4607,967,1913,447,3798,46,44,853
148137,8894944,9380204,8898809,9390329,2067,3800,-274,-4829,1162,2092,323,2983,31,40,853
149138,8895076,9380484,8899006,9390526,2072,3800,-230,-5127,1258,1974,-102,2247,31,40,853
150139,8895216,9380776,8899203,9390723,2048,3800,-210,-5388,1370,1834,1248,2775,29,60,852
151140,8895344,9381092,8899400,9390920,2153,3800,-223,-5556,1567,1811,23,2831,29,60,852
152141,8895484,9381436,8899597,9391117,2104,3800,-172,-5600,1806,1655,1502,3350,29,56,854
153142,8895632,9381828,8899794,9391314,2077,3800,-40,-5590,2026,1656,588,3982,29,56,854
154143,8895780,9382176,8899991,9391511,2099,3800,157,-5373,2289,772,534,5358,28,59,854
155144,8895972,9382528,8900188,9391708,1827,3800,373,-4947,2670,51,-129,6537,28,59,854
156145,8896128,9382876,8900385,9391905,2070,3800,571,-4325,3051,-101,-978,6655,40,63,855
157133,8896292,9383280,8900582,9392102,2036,3576,765,-3758,3359,-465,-1334,6646,40,63,855
158134,8896468,9383700,8900779,9392299,1971,3380,955,-3066,3663,-1573,101,7490,43,67,856
159135,8896636,9384048,8900976,9392496,2035,3765,998,-2285,3882,-1561,-904,6931,43,67,856
160136,8896820,9384432,8901173,9392693,1941,3460,525,-1715,3669,2403,-6269,2054,29,69,857
161137,8897000,9384820,8901370,9392890,1974,3353,-615,-2404,2824,7360,-3175,-6910,29,69,857
162138,8897168,9385168,8901567,9393087,2063,3538,-1653,-2723,2334,969,-6106,1952,49,70,856
163139,8897308,9385532,8901764,9393284,2264,3366,-2000,-1633,2581,-4102,-7778,8887,49,70,856
164141,8897452,9385920,8901961,9393481,2263,3133,-2180,-836,2647,-1017,-4523,1444,38,60,859
165141,8897628,9386256,8902158,9393678,2073,3399,-2456,-979,2437,-430,-2084,376,38,60,859
166143,8897772,9386572,8902355,9393875,2298,3473,-2517,-1046,2400,-1569,-1894,4883,31,61,857
167143,8897920,9386848,8902552,9394072,2295,3689,-2401,-1171,2495,-639,-2196,2285,31,61,857
168144,8898048,9387184,8902749,9394269,2450,3255,-2284,-1583,2602,-555,-1606,580,30,57,856
169145,8898192,9387584,8902946,9394466,2375,2767,-2124,-1830,2717,-860,-1122,2920,30,57,856
170146,8898324,9387900,8903143,9394663,2479,3241,-1841,-1728,2905,-1734,872,4290,39,79,853
171147,8898484,9388244,8903340,9394860,2321,3003,-1634,-1757,3126,-1846,103,1920,39,79,853
172149,8898616,9388640,8903537,9395057,2526,2591,-1559,-1981,3152,103,-1029,1993,29,78,860
173149,8898756,9389044,8903734,9395254,2502,2452,-1430,-1966,3043,-50,-747,4513,29,78,860
174150,8898900,9389404,8903931,9395451,2501,2656,-1243,-1802,2966,-1260,-893,4180,26,72,859
175151,8899032,9389884,8904128,9395648,2606,1783,-1220,-2074,2814,245,-976,153,26,72,859
176159,8899176,9390316,8904358,9395878,2570,1996,-1283,-2509,2663,576,-520,284,26,80,862
177153,8899332,9390712,8904555,9396075,2514,2134,-1162,-2384,2613,-278,628,4470,26,80,862
178154,8899480,9391076,8904752,9396272,2586,2262,-927,-2102,2477,1258,510,2649,41,83,864
179155,8899664,9391544,8904949,9396469,2368,1494,-780,-2266,2340,-37,2,74,41,83,864
180156,8899860,9391976,8905146,9396666,2294,1617,-640,-2453,2384,-1950,74,2102,31,85,862
181157,8900084,9392384,8905343,9396863,2109,1674,-501,-2380,2443,-783,-44,2129,31,85,862
182158,8900264,9392828,8905540,9397060,2392,1341,-425,-2392,2369,739,-1358,560,39,80,867
183159,8900452,9393268,8905737,9397257,2347,1260,-367,-2295,2254,1313,-4566,1366,39,80,867
184160,8900664,9393640,8905934,9397454,2191,1610,-179,-1834,2094,2253,-798,4032,44,81,869
185161,8900900,9394084,8906131,9397651,2025,1052,-12,-1847,1885,2660,715,-438,44,81,869
186162,8901124,9394536,8906328,9397848,2089,890,81,-2328,1852,450,624,-990,58,81,869
187163,8901372,9394892,8906525,9398045,1918,1421,351,-2353,2064,-1175,493,3379,58,81,869
188164,8901596,9395300,8906722,9398242,2057,1004,687,-1978,2218,420,-396,2528,50,72,871
189165,8901820,9395688,8906919,9398439,2046,1045,860,-2031,2113,2446,-1248,-970,50,72,871
190166,8902052,9396056,8907116,9398636,1982,1096,983,-1939,1975,1785,-997,2148,37,77,869
191167,8902284,9396380,8907313,9398833,1968,1315,1157,-1437,1918,1318,-387,2992,37,77,869
192168,8902520,9396788,8907510,9399030,1926,699,1197,-1192,1930,823,-347,-512,60,67,870
193169,8902752,9397172,8907707,9399227,1937,767,1163,-1047,1992,142,-359,541,60,67,870
194170,8902972,9397548,8907904,9399424,2003,738,1230,-536,1968,1494,-7,3554,61,65,871
195171,8903208,9397868,8908101,9399621,1887,1035,1382,221,1881,1404,-44,2914,61,65,871
196172,8903464,9398232,8908298,9399818,1736,686,1413,534,1818,204,297,-2,36,79,873
197173,8903668,9398684,8908495,9400015,2059,24,1335,788,1721,224,1111,1124,36,79,873
198174,8903912,9399016,8908692,9400212,1789,716,1233,1306,1671,871,1154,2331,59,70,872
199175,8904168,9399308,8908889,9400409,1689,924,1196,1848,1733,1274,641,1572,59,70,872
200176,8904428,9399664,8909086,9400606,1637,454,1023,2334,1882,1663,-458,857,62,63,874
201177,8904660,9400024,8909283,9400803,1798,358,740,3075,2005,1502,-611,2479,62,63,874
202178,8904916,9400364,8909480,9401000,1623,420,670,3728,2058,1553,-1634,1975,53,67,873
203179,8905212,9400672,8909677,9401197,1331,571,968,3898,1954,183,-2615,965,53,67,873
204180,8905476,9400964,8909874,9401394,1502,630,1374,3672,1727,-610,-432,-525,63,53,875
205182,8905728,9401304,8910071,9401591,1553,268,1559,3468,1558,-311,-75,-904,63,53,875
206182,8905976,9401588,8910268,9401788,1557,579,1584,3865,1499,576,606,3064,44,62,877
207183,8906196,9401832,8910465,9401985,1723,809,1514,4239,1390,569,-176,268,44,62,877
208184,8906448,9402020,8910662,9402182,1499,1163,1466,4187,1284,-1845,-814,700,38,44,877
209185,8906728,9402252,8910859,9402379,1289,872,1748,4192,1287,-2860,337,4505,38,44,877
210186,8906960,9402460,8911056,9402576,1575,1017,2065,3969,1214,-694,73,2695,42,35,875
211187,8907188,9402640,8911253,9402773,1586,1200,2223,3460,1065,-67,178,2008,42,35,875
212188,8907428,9402820,8911450,9402970,1493,1207,2284,2981,936,-80,-543,2958,35,25,875
213189,8907636,9402968,8911647,9403167,1689,1429,2353,2755,821,-185,-178,3963,35,25,875
214190,8907916,9403116,8911844,9403364,1204,1450,2390,2449,694,-1314,85,2676,38,38,872
215191,8908180,9403260,8912041,9403561,1274,1499,2226,2411,427,-1101,-863,4222,38,38,872
216192,8908420,9403384,8912238,9403758,1406,1656,1867,2869,332,-833,-1308,5630,45,19,871
217193,8908632,9403536,8912435,9403955,1576,1501,1423,3514,192,-859,367,5539,45,19,871
218194,8908856,9403708,8912632,9404152,1490,1387,1009,4144,-73,-724,359,6275,58,22,873
219195,8909076,9403880,8912829,9404349,1505,1398,605,4506,-405,-415,283,6203,58,22,873
220196,8909332,9404064,8913026,9404546,1255,1328,249,4528,-651,35,-1703,5887,51,37,872
221197,8909588,9404212,8913223,9404743,1230,1575,-17,4245,-803,416,-599,4879,51,37,872
222198,8909812,9404360,8913420,9404940,1418,1597,48,3749,-867,-929,-757,6861,36,23,873
223199,8910024,9404484,8913617,9405137,1487,1779,68,2933,-975,-736,368,4255,36,23,873
224200,8910248,9404612,8913814,9405334,1402,1785,54,2054,-1151,-738,1496,6137,35,31,872
225201,8910500,9404748,8914011,9405531,1202,1762,233,765,-1320,-827,1102,6279,35,31,872
226202,8910716,9404860,8914208,9405728,1420,1949,460,-1408,-1443,-360,296,3456,55,32,870
227203,8910948,9405012,8914405,9405925,1306,1719,624,-3672,-1511,123,-619,5104,55,32,870
228204,8911164,9405204,8914602,9406122,1397,1471,574,-5154,-1569,297,-1108,6345,35,37,872
229205,8911364,9405412,8914799,9406319,1497,1367,182,-5587,-1743,249,-980,5809,35,37,872
230206,8911572,9405600,8914996,9406516,1443,1496,-424,-5141,-1896,-204,-678,6485,34,29,872
231207,8911840,9405812,8915193,9406713,1037,1339,-1099,-4259,-1925,191,-891,6306,34,29,872
232208,8912060,9405976,8915390,9406910,1328,1654,-1675,-3451,-1883,601,-995,5911,56,28,873
233209,8912300,9406156,8915587,9407107,1185,1561,-1977,-3025,-1914,1594,-1200,5836,56,28,873
234210,8912480,9406316,8915784,9407304,1567,1703,-2075,-3052,-1941,1183,-1135,4499,34,34,874
235211,8912664,9406516,8915981,9407501,1549,1452,-2084,-3436,-1916,1045,-806,3319,34,34,874
236212,8912820,9406752,8916178,9407698,1743,1210,-2090,-3772,-1908,1616,259,4214,38,43,872
237213,8912988,9406948,8916375,9407895,1681,1461,-2175,-4132,-1969,2438,730,1745,38,43,872
238214,8913156,9407128,8916572,9408092,1695,1568,-2300,-4174,-2050,2801,1050,3319,26,40,872
239215,8913312,9407300,8916769,9408289,1788,1629,-2341,-3819,-2029,2003,1152,5426,26,40,872
240216,8913452,9407456,8916966,9408486,1914,1748,-2297,-3278,-1931,2435,1208,5700,35,40,871
241217,8913636,9407620,8917163,9408683,1645,1713,-2310,-3067,-1793,2492,-398,3764,35,40,871
242218,8913784,9407768,8917360,9408880,1892,1834,-2286,-2956,-1708,2529,-1046,4849,37,39,870
243219,8913940,9407924,8917557,9409077,1861,1802,-2153,-2863,-1654,2030,705,5052,37,39,870
244220,8914096,9408116,8917754,9409274,1880,1579,-1995,-2782,-1497,1345,107,4551,25,32,870
245221,8914236,9408288,8917951,9409471,2006,1716,-1767,-2630,-1259,2043,1019,5267,25,32,870
246222,8914396,9408460,8918148,9409668,1897,1727,-1466,-2580,-1140,5175,1957,5002,25,39,867
247223,8914540,9408604,8918345,9409865,2022,1926,-1189,-2658,-1008,5227,-1876,4380,25,39,867
248224,8914684,9408756,8918542,9410062,2046,1895,-834,-2519,-847,5451,-2690,6084,38,26,868
249225,8914816,9408896,8918739,9410259,2149,1996,-293,-2274,-783,6017,1575,6830,38,26,868
250226,8914956,9409012,8918936,9410456,2126,2182,139,-2530,-633,4303,689,3186,25,32,867
251227,8915124,9409148,8919133,9410653,1964,2084,307,-2901,-243,2469,-1476,3638,25,32,867
252228,8915264,9409276,8919330,9410850,2165,2164,233,-2608,322,1989,-3262,5466,20,30,866
253229,8915436,9409440,8919527,9411047,1976,1955,99,-1835,756,3148,536,6642,20,30,866
254230,8915604,9409552,8919724,9411244,2015,2317,-35,-1126,1019,3398,-2531,5049,21,16,866
255231,8915760,9409664,8919921,9411441,2109,2354,-43,-432,1154,2734,-1777,6857,21,16,866
256232,8915924,9409780,8920118,9411638,2075,2366,58,217,1249,2601,-1245,6186,30,15,864
257233,8916112,9409904,8920315,9411835,1930,2348,159,551,1359,2940,-2006,4325,30,15,864
258234,8916260,9410000,8920512,9412032,2201,2567,300,801,1485,3307,-2366,5750,38,13,862
259244,8916456,9410128,8920742,9412262,1917,2413,429,1004,1547,3565,-2760,5139,38,13,862
260236,8916664,9410252,8920939,9412459,1838,2470,528,1061,1640,1983,-2331,4816,36,32,864
261237,8916892,9410356,8921136,9412656,1701,2637,563,924,1837,882,-2511,4331,36,32,864
262238,8917060,9410468,8921333,9412853,2089,2625,533,693,2033,1025,-2277,4123,50,17,864
263239,8917336,9410608,8921530,9413050,1380,2475,547,488,2101,1631,-3289,4805,50,17,864
264240,8917580,9410752,8921727,9413247,1560,2474,642,338,2028,1881,-3766,5606,50,34,864
265241,8917788,9410884,8921924,9413444,1781,2578,713,39,1920,1395,-2697,3898,50,34,864
266242,8918024,9410992,8922121,9413641,1590,2768,639,-234,1927,260,-1778,4057,33,31,866
267243,8918264,9411128,8922318,9413838,1547,2619,479,-456,1924,732,-1576,4008,33,31,866
268244,8918512,9411248,8922515,9414035,1475,2754,406,-538,1917,186,-2410,4950,47,32,862
269245,8918760,9411368,8922712,9414232,1453,2788,487,-486,1932,-91,-2749,5890,47,32,862
270246,8918992,9411508,8922909,9414429,1539,2689,549,-460,1818,1023,-1642,4690,54,17,864
271247,8919212,9411656,8923106,9414626,1605,2662,487,-522,1646,891,-1292,3990,54,17,864
272248,8919456,9411796,8923303,9414823,1434,2737,373,-485,1462,1064,-666,4452,38,23,864
273249,8919708,9411944,8923500,9415020,1361,2709,300,-364,1336,666,-979,4444,38,23,864
274250,8919948,9412092,8923697,9415217,1418,2731,282,-377,1229,606,189,3682,40,33,864
275251,8920216,9412268,8923894,9415414,1213,2566,149,-749,1014,1243,1065,1139,40,33,864
276252,8920476,9412456,8924091,9415611,1235,2495,-95,-1118,736,1739,1305,1610,47,33,865
277253,8920708,9412716,8924288,9415808,1396,2018,-309,-1003,538,2369,549,3587,47,33,865
278254,8920952,9412916,8924485,9416005,1301,2393,-486,-687,440,2522,1496,2916,34,35,865
279255,8921188,9413104,8924682,9416202,1334,2472,-619,-499,483,1278,1102,2294,34,35,865
280256,8921416,9413316,8924879,9416399,1371,2316,-633,-449,680,-660,231,3160,52,37,868
281257,8921652,9413568,8925076,9416596,1305,2042,-524,-384,885,-263,-1133,3632,52,37,868
282258,8921896,9413828,8925273,9416793,1235,1965,-331,-511,981,641,-513,3488,38,57,867
283259,8922124,9414060,8925470,9416990,1322,2126,-185,-924,860,2479,-504,2177,38,57,867
284260,8922324,9414312,8925667,9417187,1497,1977,-40,-1529,605,2322,709,2809,35,39,870
285261,8922532,9414564,8925864,9417384,1442,1954,122,-1969,362,1195,388,3797,35,39,870
286262,8922724,9414840,8926061,9417581,1545,1769,169,-2214,172,1518,-37,3016,51,45,870
287263,8922908,9415116,8926258,9417778,1601,1735,104,-2261,136,960,86,3110,51,45,870
288264,8923104,9415396,8926455,9417975,1527,1674,7,-1989,221,225,415,3748,27,46,870
289265,8923316,9415652,8926652,9418172,1422,1799,-116,-1567,283,554,1097,3695,27,46,870
290266,8923488,9415856,8926849,9418369,1683,2121,-272,-1214,285,947,652,3016,26,46,869
291267,8923636,9416128,8927046,9418566,1855,1664,-380,-891,205,1848,610,3536,26,46,869
292268,8923824,9416376,8927243,9418763,1610,1791,-320,-573,79,2037,449,4704,27,51,871
293269,8923980,9416616,8927440,9418960,1828,1824,-152,-412,-95,1425,714,4194,27,51,871
294270,8924144,9416864,8927637,9419157,1794,1751,3,-557,-378,1884,1901,2568,46,54,870
295271,8924308,9417080,8927834,9419354,1809,1943,186,-633,-572,887,847,4468,46,54,870
296272,8924480,9417332,8928031,9419551,1770,1695,301,-527,-500,600,-137,4676,34,52,869
297273,8924632,9417576,8928228,9419748,1916,1724,314,-337,-234,1064,395,3718,34,52,869
298274,8924780,9417836,8928425,9419945,1963,1597,301,-178,232,23,-1595,3625,23,49,868
299275,8924932,9418068,8928622,9420142,1958,1757,279,-149,683,234,-809,2663,23,49,868
300276,8925076,9418272,8928819,9420339,2032,1930,174,-128,908,1991,385,2702,26,45,867
301277,8925256,9418472,8929016,9420536,1816,1954,100,11,944,3097,-718,3919,26,45,867
302278,8925408,9418660,8929213,9420733,2011,2032,199,418,1014,2814,-977,6203,42,30,866
303279,8925564,9418888,8929410,9420930,2005,1770,383,813,1187,2145,-1346,5784,42,30,866
304280,8925732,9419060,8929607,9421127,1943,2131,454,780,1341,2120,-1078,2563,45,38,868
305281,8925888,9419224,8929804,9421324,2037,2195,455,475,1522,1671,-536,2144,45,38,868
306282,8926044,9419412,8930001,9421521,2055,2050,538,186,1769,1509,-1728,3479,38,24,867
307283,8926236,9419572,8930198,9421718,1834,2242,669,171,1940,1798,-994,4142,38,24,867
308284,8926408,9419736,8930395,9421915,1971,2232,632,359,2018,1530,-1201,3486,30,24,865
309285,8926576,9419912,8930592,9422112,2009,2166,424,649,2046,1168,-569,3321,30,24,865
310286,8926748,9420056,8930789,9422309,1995,2391,198,988,2129,344,-1120,4119,35,25,866
311287,8926916,9420252,8930986,9422506,2034,2066,84,1371,2197,510,-1184,4823,35,25,866
312288,8927068,9420456,8931183,9422703,2155,2013,60,1786,2234,191,-664,5412,35,46,864
313289,8927244,9420656,8931380,9422900,2015,2038,-10,2142,2186,777,-534,4234,35,46,864
314290,8927416,9420864,8931577,9423097,2052,1983,-149,2362,2181,53,-668,3687,24,35,866
315291,8927616,9421100,8931774,9423294,1876,1792,-273,2581,2241,300,-554,3783,24,35,866
316292,8927792,9421296,8931971,9423491,2036,2042,-318,2733,2258,686,-212,3713,30,41,866
317293,8927988,9421524,8932168,9423688,1912,1829,-296,2911,2236,667,468,4285,30,41,866
318294,8928144,9421784,8932365,9423885,2181,1602,-253,2980,2286,-89,-1299,3709,46,49,868
319295,8928312,9422036,8932562,9424082,2120,1628,-199,2874,2363,41,-822,3359,46,49,868
320296,8928488,9422340,8932759,9424279,2079,1257,-184,2603,2421,501,337,2417,31,52,867
321297,8928640,9422668,8932956,9424476,2250,1049,-162,2189,2531,-175,-496,2439,31,52,867
322298,8928780,9422868,8933153,9424673,2351,1848,-20,1911,2688,-725,-1395,4236,46,44,867
323299,8928904,9423016,8933350,9424870,2484,2195,120,1733,2737,-87,50,3669,46,44,867
324300,8929112,9423188,8933547,9425067,1955,2056,148,1589,2731,-241,-607,3215,36,45,868
325301,8929320,9423400,8933744,9425264,1952,1800,212,1607,2667,367,771,4923,36,45,868
326302,8929524,9423624,8933941,9425461,1974,1714,239,1729,2539,846,2273,4159,44,30,862
327303,8929708,9423896,8934138,9425658,2105,1381,167,1667,2441,-440,653,3172,44,30,862
328305,8929896,9424164,8934335,9425855,2085,1376,254,1866,2506,-854,-810,6386,45,47,868
329305,8930064,9424348,8934532,9426052,2224,1906,410,1891,2684,-1135,-886,4273,45,47,868
330306,8930244,9424644,8934729,9426249,2157,1163,506,1500,2866,-1461,-465,2914,30,50,869
331307,8930412,9424988,8934926,9426446,2246,798,635,1035,2995,-1257,-1152,4290,30,50,869
332308,8930568,9425284,8935123,9426643,2339,1056,772,742,2991,-841,-1019,4350,49,75,866
333309,8930740,9425592,8935320,9426840,2251,932,780,410,2883,-642,-664,2857,49,75,866
334310,8930884,9425912,8935517,9427037,2450,803,742,162,2795,-1078,-755,3756,32,71,869
335311,8931020,9426244,8935714,9427234,2528,669,717,282,2665,-395,-747,5108,32,71,869
336312,8931172,9426532,8935911,9427431,2449,905,592,546,2409,476,20,3910,38,66,870
337313,8931312,9426812,8936108,9427628,2550,918,336,857,2131,528,-476,3530,38,66,870
338314,8931456,9427120,8936305,9427825,2549,694,127,1282,1985,514,-946,4918,42,63,869
339315,8931624,9427404,8936502,9428022,2413,806,49,1556,1993,-234,-1221,4623,42,63,869
340316,8931780,9427696,8936699,9428219,2507,714,98,1590,1966,-660,-813,4702,36,57,869
341317,8931924,9427952,8936896,9428416,2606,913,240,1423,1830,-549,-1091,5475,36,57,869
342325,8932080,9428216,8937126,9428646,2565,848,348,1076,1667,-412,-911,4477,34,44,869
343319,8932240,9428480,8937323,9428843,2556,819,375,505,1537,-178,-664,3554,34,44,869
344320,8932400,9428708,8937520,9429040,2574,1031,399,98,1432,-161,-477,4451,45,40,867
345321,8932552,9428928,8937717,9429237,2644,1071,365,-111,1287,-564,-512,4707,45,40,867
346322,8932728,9429108,8937914,9429434,2505,1329,258,-174,1013,-638,-847,5128,40,32,867
347323,8932880,9429268,8938111,9429631,2675,1470,103,-65,626,-385,-923,6500,40,32,867
348324,8933064,9429420,8938308,9429828,2482,1540,-52,126,282,-721,-281,6723,46,38,866
349325,8933212,9429548,8938505,9430025,2730,1720,-245,93,-19,-768,-19,5591,46,38,866
350326,8933388,9429692,8938702,9430222,2565,1643,-344,0,-318,-983,-628,7749,34,22,864
351327,8933524,9429852,8938899,9430419,2843,1560,-358,-254,-615,-1338,-1104,7290,34,22,864
352328,8933712,9430016,8939096,9430616,2523,1549,-366,-723,-969,-763,-708,6438,43,25,863
353329,8933856,9430180,8939293,9430813,2822,1564,-395,-1137,-1317,-430,-471,6989,43,25,863
354330,8934020,9430364,8939490,9431010,2712,1444,-491,-1172,-1607,-5,-260,6912,23,23,863
355331,8934152,9430512,8939687,9431207,2943,1692,-670,-680,-1851,809,1125,6848,19,43,862
356332,8934304,9430712,8939884,9431404,2839,1366,-832,-39,-1979,1047,1739,5808,19,43,862
357333,8934432,9430880,8940081,9431601,3020,1578,-807,270,-1986,1490,-765,4841,22,46,862
358334,8934568,9431052,8940278,9431798,2998,1564,-532,87,-1971,2513,-2450,5067,22,46,862
359335,8934732,9431296,8940475,9431995,2838,1094,-179,-398,-1969,2172,-1786,4084,30,51,862
360336,8934872,9431540,8940672,9432192,3014,1073,93,-899,-1957,1550,-1083,3627,30,51,862
361337,8935016,9431752,8940869,9432389,3014,1266,267,-1109,-1942,1231,-1796,3988,28,53,865
362338,8935184,9431984,8941066,9432586,2877,1126,315,-946,-2014,1272,-1275,4302,28,53,865
363339,8935344,9432200,8941263,9432783,2945,1219,230,-513,-2149,1226,-732,4825,30,52,864
364340,8935532,9432416,8941460,9432980,2775,1210,58,176,-2308,1292,-151,5192,30,52,864
365341,8935736,9432636,8941657,9433177,2673,1175,-174,733,-2447,913,528,4335,44,45,864
366342,8935920,9432848,8941854,9433374,2805,1219,-373,1156,-2534,652,125,4787,44,45,864
367343,8936108,9433036,8942051,9433571,2785,1373,-460,1269,-2598,743,-642,4727,27,42,864
368344,8936316,9433208,8942248,9433768,2656,1484,-482,1111,-2625,604,-836,4069,27,42,864
369345,8936488,9433368,8942445,9433965,2893,1575,-485,917,-2619,656,-952,4302,49,30,865
370346,8936676,9433496,8942642,9434162,2798,1805,-466,807,-2590,856,-599,4716,49,30,865
371347,8936880,9433624,8942839,9434359,2696,1835,-432,685,-2481,281,-1010,4120,31,20,863
372348,8937084,9433740,8943036,9434556,2694,1947,-363,512,-2442,1005,-1138,4341,31,20,863
373349,8937292,9433876,8943233,9434753,2666,1849,-306,433,-2462,1537,-560,4415,53,25,863
374350,8937512,9434028,8943430,9434950,2582,1769,-317,337,-2395,432,-786,3419,53,25,863
375351,8937752,9434144,8943627,9435147,2439,2029,-327,389,-2352,584,-927,4564,39,34,863
376352,8937988,9434276,8943824,9435344,2448,1958,-318,514,-2308,245,-973,4314,39,34,863
377353,8938220,9434408,8944021,9435541,2459,1986,-341,447,-2236,-140,-721,3150,40,16,862
378354,8938468,9434508,8944218,9435738,2337,2230,-352,384,-2183,-8,-248,4181,40,16,862
379355,8938720,9434628,8944415,9435935,2289,2139,-325,222,-2113,-552,-839,3554,52,18,864
380356,8938968,9434732,8944612,9436132,2293,2280,-290,32,-2088,416,-323,3763,52,18,864
381357,8939260,9434848,8944809,9436329,1977,2240,-256,-54,-2133,1205,-215,3932,62,30,864
382358,8939512,9434952,8945006,9436526,2204,2357,-256,-122,-2135,434,-78,3837,62,30,864
383359,8939764,9435088,8945203,9436723,2182,2184,-315,-188,-2057,-6,-570,3264,46,25,865
384360,8940044,9435176,8945400,9436920,1971,2532,-379,-300,-1921,-180,-1017,3158,46,25,865
385361,8940324,9435296,8945597,9437117,1936,2367,-408,-267,-1831,355,-786,4017,46,17,864
386362,8940616,9435428,8945794,9437314,1820,2320,-395,-360,-1808,669,-551,2833,46,17,864
387363,8940912,9435536,8945991,9437511,1752,2509,-369,-560,-1777,293,-487,3363,57,18,864
388364,8941192,9435664,8946188,9437708,1817,2416,-270,-775,-1727,-114,19,3072,57,18,864
389365,8941500,9435788,8946385,9437905,1593,2473,-267,-1108,-1658,-169,226,2059,71,30,863
390366,8941808,9435916,8946582,9438102,1545,2478,-279,-1352,-1613,446,-324,2295,71,30,863
391367,8942104,9436032,8946779,9438299,1578,2590,-271,-1446,-1557,176,-462,3001,68,23,865
392368,8942392,9436148,8946976,9438496,1589,2625,-255,-1528,-1444,-393,-684,2229,68,23,865
393370,8942708,9436292,8947173,9438693,1363,2475,-248,-1562,-1387,621,-1060,2309,60,28,865
394371,8943040,9436424,8947370,9438890,1204,2578,-229,-1560,-1326,282,-895,2709,60,28,865
395371,8943336,9436552,8947567,9439087,1387,2635,-228,-1695,-1223,-240,-695,1625,67,24,866
396372,8943632,9436700,8947764,9439284,1344,2531,-211,-1846,-1145,84,-702,2251,67,24,866
397373,8943940,9436860,8947961,9439481,1221,2473,-176,-1952,-1076,-252,-554,2422,62,25,864
398374,8944240,9437028,8948158,9439678,1226,2436,-153,-2130,-996,-361,-282,1659,62,25,864
399375,8944540,9437188,8948355,9439875,1182,2503,-141,-2342,-992,331,-321,2086,70,27,866
400376,8944856,9437344,8948552,9440072,1031,2546,-89,-2477,-986,-376,-603,2535,70,27,866
401377,8945148,9437500,8948749,9440269,1139,2565,-50,-2684,-951,-582,-993,1595,65,42,867
402378,8945432,9437676,8948946,9440466,1152,2450,20,-2794,-977,318,-568,2606,65,42,867
403379,8945708,9437848,8949143,9440663,1168,2487,60,-2868,-1037,285,-357,2042,66,39,867
404381,8945976,9438040,8949340,9440860,1187,2364,46,-2906,-1052,150,57,1834,66,39,867
405381,8946236,9438228,8949537,9441057,1210,2394,34,-2833,-1013,323,132,2601,44,38,867
406383,8946532,9438408,8949734,9441254,943,2451,16,-2754,-959,499,-48,2067,44,38,867
407383,8946784,9438592,8949931,9441451,1193,2433,55,-2708,-885,558,-128,2812,42,48,868
408384,8947012,9438768,8950128,9441648,1331,2492,83,-2774,-801,538,-344,2239,42,48,868
409385,8947284,9438960,8950325,9441845,1023,2395,170,-2943,-730,777,-474,2030,46,37,867
410386,8947516,9439156,8950522,9442042,1258,2372,239,-3200,-692,1153,-385,2613,46,37,867
411387,8947724,9439348,8950719,9442239,1405,2399,335,-3378,-667,989,-305,2141,40,49,867
412388,8947948,9439548,8950916,9442436,1293,2349,380,-3464,-609,649,444,2906,40,49,867
413389,8948252,9439716,8951113,9442633,747,2561,368,-3452,-520,469,413,2153,53,35,867
414390,8948456,9439880,8951310,9442830,1369,2602,308,-3387,-447,759,672,2635,53,35,867
415391,8948692,9440060,8951507,9443027,1153,2509,242,-3224,-404,937,94,3074,54,40,868
416392,8948960,9440240,8951704,9443224,921,2518,208,-3135,-341,504,-325,2774,54,40,868
417393,8949180,9440444,8951901,9443421,1212,2365,198,-3190,-293,838,-208,2983,56,44,866
418394,8949424,9440632,8952098,9443618,1042,2470,204,-3311,-293,1228,246,2908,56,44,866
419395,8949696,9440820,8952295,9443815,835,2475,220,-3489,-245,653,196,3320,41,31,868
420396,8949940,9441012,8952492,9444012,989,2452,238,-3638,-192,901,181,3531,41,31,868
421397,8950172,9441184,8952689,9444209,1050,2589,182,-3774,-172,896,553,3094,57,30,867
422398,8950436,9441368,8952886,9444406,820,2520,72,-3801,-124,389,301,3596,57,30,867
423399,8950692,9441528,8953083,9444603,845,2687,-63,-3754,-47,448,68,3849,53,41,867
424400,8950900,9441736,8953280,9444800,1140,2382,-172,-3664,26,822,66,3983,53,41,867
425408,8951156,9441928,8953510,9445030,830,2500,-242,-3411,28,1913,-395,5082,36,50,866
426403,8951376,9442144,8953707,9445227,1045,2342,-337,-3184,23,1532,-413,4220,36,50,866
427403,8951592,9442344,8953904,9445424,1063,2441,-403,-3038,165,472,458,4325,46,45,868
428405,8951844,9442536,8954101,9445621,813,2494,-389,-2903,311,1379,-427,5221,46,45,868
429406,8952032,9442732,8954298,9445818,1217,2470,-315,-2785,350,1999,211,5038,31,32,868
430406,8952228,9442920,8954495,9446015,1169,2525,-331,-2820,397,1878,-78,3545,31,32,868
431407,8952416,9443096,8954692,9446212,1223,2610,-356,-2812,489,1692,-128,4866,31,34,866
432408,8952608,9443288,8954889,9446409,1201,2512,-340,-2780,563,1631,-426,4747,31,34,866
433409,8952772,9443448,8955086,9446606,1390,2729,-350,-2830,602,1670,-474,3805,27,34,865
434410,8952948,9443596,8955283,9446803,1326,2826,-316,-2664,630,2040,-655,6059,27,34,865
435411,8953156,9443756,8955480,9447000,1121,2768,-263,-2379,605,2568,-898,5452,33,27,864
436413,8953332,9443916,8955677,9447197,1330,2785,-252,-2199,610,2115,-705,4923,33,27,864
437413,8953492,9444060,8955874,9447394,1447,2909,-224,-2033,696,1676,-881,5650,45,21,865
438415,8953672,9444204,8956071,9447591,1330,2933,-164,-1894,768,1783,-1196,5425,45,21,865
439415,8953840,9444364,8956268,9447788,1418,2849,-96,-1798,819,1728,-822,5441,40,23,863
440416,8954008,9444500,8956465,9447985,1431,3027,-57,-1761,859,1492,-970,5103,40,23,863
441417,8954168,9444644,8956662,9448182,1498,3001,-41,-1669,934,911,-701,5903,30,30,862
442418,8954332,9444752,8956859,9448379,1488,3265,-63,-1565,929,1587,-1377,5029,30,30,862
443419,8954464,9444900,8957056,9448576,1718,3038,-111,-1428,928,919,-683,5740,21,17,860
444420,8954636,9445032,8957253,9448773,1479,3167,-156,-1301,934,1037,-1360,5353,21,17,860
445421,8954764,9445148,8957450,9448970,1785,3304,-148,-1186,906,1392,-1620,6080,22,31,860
446422,8954908,9445260,8957647,9449167,1708,3366,-75,-1101,892,936,-1199,6083,22,31,860
447423,8955084,9445388,8957844,9449364,1518,3298,-24,-1145,928,455,-1653,5267,29,19,857
448424,8955244,9445508,8958041,9449561,1635,3383,33,-1189,974,528,-1013,5790,29,19,857
449425,8955392,9445620,8958238,9449758,1732,3471,89,-1212,1014,380,-1349,5486,34,28,858
450426,8955540,9445748,8958435,9449955,1754,3401,128,-1186,1003,724,-1180,5367,34,28,858
451427,8955720,9445868,8958632,9450152,1562,3486,186,-1143,1025,-28,-934,5860,21,13,856
452428,8955900,9445964,8958829,9450349,1570,3682,195,-1109,1004,633,-1317,4916,21,13,856
453429,8956064,9446088,8959026,9450546,1685,3540,201,-1044,952,560,-580,5621,46,27,856
454430,8956244,9446204,8959223,9450743,1594,3626,171,-1007,1005,-828,-1305,4606,46,27,856
455431,8956412,9446320,8959420,9450940,1681,3663,153,-1134,1066,-560,-1003,4525,39,17,854
456432,8956580,9446440,8959617,9451137,1695,3672,242,-1227,1061,-86,-1647,5624,39,17,854
457433,8956764,9446560,8959814,9451334,1601,3706,367,-1244,968,680,-971,5472,27,14,855
458447,8956944,9446668,8960011,9451531,1634,3800,438,-1398,894,464,-1364,4289,27,14,855
459448,8957124,9446784,8960208,9451728,1642,3800,475,-1471,924,-2,-1272,5174,27,32,855
460437,8957332,9446916,8960405,9451925,1463,3738,512,-1418,993,-189,-1292,5429,27,32,855
461450,8957520,9447040,8960602,9452122,1593,3800,508,-1303,1054,-402,-1225,4927,45,28,854
462451,8957728,9447164,8960799,9452319,1463,3800,485,-1205,1068,67,-685,5199,45,28,854
463452,8957904,9447248,8960996,9452516,1673,3800,486,-1151,1107,-303,-1078,4982,34,27,853
464453,8958112,9447376,8961193,9452713,1468,3800,443,-1244,1075,648,-823,3935,34,27,853
465454,8958292,9447488,8961390,9452910,1652,3800,453,-1342,1064,-22,-386,4631,38,13,849
466455,8958492,9447588,8961587,9453107,1527,3800,429,-1431,1126,-443,-433,4139,38,13,849
467456,8958712,9447720,8961784,9453304,1392,3800,394,-1499,1174,322,-47,4137,43,31,853
468457,8958900,9447836,8961981,9453501,1596,3800,369,-1401,1226,-106,-649,4789,43,31,853
469458,8959084,9447944,8962178,9453698,1627,3800,381,-1289,1285,-500,-570,4410,50,21,853
470459,8959264,9448088,8962375,9453895,1661,3800,417,-1245,1362,-629,-623,4255,50,21,853
471460,8959436,9448232,8962572,9454092,1722,3800,420,-1339,1370,34,-236,3418,50,37,854
472461,8959628,9448388,8962769,9454289,1600,3800,419,-1409,1367,-289,379,3983,50,37,854
473462,8959824,9448556,8962966,9454486,1576,3800,381,-1477,1398,-709,45,3310,28,25,854
474463,8960000,9448728,8963163,9454683,1710,3800,327,-1463,1450,-786,526,4153,28,25,854
475464,8960172,9448908,8963360,9454880,1747,3800,275,-1363,1444,44,389,4036,42,26,854
476465,8960332,9449100,8963557,9455077,1839,3800,206,-1287,1412,373,-285,4103,42,26,854
477453,8960512,9449296,8963754,9455274,1722,3782,269,-1182,1422,149,231,5307,41,43,852
478467,8960668,9449464,8963951,9455471,1891,3800,286,-1348,1417,439,-47,3257,41,43,852
479455,8960828,9449664,8964148,9455668,1882,3770,240,-1587,1438,29,594,3488,24,48,854
480456,8960976,9449888,8964345,9455865,1980,3610,154,-1802,1534,-790,-8,3254,24,48,854
481457,8961100,9450112,8964542,9456062,2163,3599,61,-1772,1752,-2366,-432,4231,42,50,851
482458,8961256,9450360,8964739,9456259,1981,3428,71,-1422,2091,-3157,364,5642,42,50,851
483459,8961428,9450568,8964936,9456456,1893,3674,-119,-1363,2102,908,1839,1743,28,38,853
484461,8961584,9450760,8965133,9456653,2012,3777,-302,-1436,1604,5004,703,3644,28,38,853
485461,8961736,9450968,8965330,9456850,2057,3673,-226,-1307,1339,1018,-1298,7132,42,34,854
486462,8961892,9451180,8965527,9457047,2051,3643,-158,-1592,1377,-438,137,1951,42,34,854
487463,8962044,9451396,8965724,9457244,2097,3611,-182,-2080,1481,-355,811,2726,34,36,852
488477,8962192,9451568,8965921,9457441,2143,3800,-178,-2176,1465,991,523,5149,34,36,852
489478,8962368,9451756,8966118,9457638,1978,3800,-190,-1964,1450,410,149,4192,27,25,850
490479,8962516,9451932,8966315,9457835,2176,3800,-280,-1852,1447,722,664,3074,27,25,850
491479,8962668,9452112,8966512,9458032,2171,3800,-367,-1750,1505,-39,-561,3624,23,44,852
492481,8962820,9452292,8966709,9458229,2192,3800,-412,-1666,1608,-241,-1570,3552,23,44,852
493469,8962944,9452488,8966906,9458426,2400,3782,-425,-1538,1687,231,-308,3715,42,48,851
494470,8963080,9452744,8967103,9458623,2352,3382,-455,-1579,1712,517,-374,2413,42,48,851
495471,8963212,9453016,8967300,9458820,2406,3250,-499,-1582,1703,857,-428,3112,43,51,849
496472,8963360,9453252,8967497,9459017,2329,3460,-469,-1503,1810,-376,138,3721,43,51,849
497473,8963476,9453484,8967694,9459214,2565,3471,-423,-1591,1953,-63,-399,2654,25,43,853
498474,8963636,9453756,8967891,9459411,2307,3189,-400,-1680,1940,1511,-947,2816,25,43,853
499475,8963760,9454128,8968088,9459608,2565,2488,-366,-1531,1865,1159,-437,3941,27,60,851
500477,8963908,9454460,8968285,9459805,2437,2679,-335,-1443,1865,97,30,2937,27,60,851
501477,8964052,9454764,8968482,9460002,2486,2808,-303,-1537,1942,131,161,2505,44,57,858
502478,8964204,9455088,8968679,9460199,2457,2629,-242,-1580,2005,718,-11,3473,44,57,858
503479,8964344,9455452,8968876,9460396,2558,2306,-215,-1631,2001,1255,-475,2760,32,61,859
504480,8964484,9455848,8969073,9460593,2584,2020,-170,-1567,2020,554,1,3955,32,61,859
505481,8964640,9456172,8969270,9460790,2503,2415,-141,-1566,2141,-438,189,3004,23,67,860
506482,8964776,9456456,8969467,9460987,2656,2628,-196,-1755,2218,783,216,1815,23,67,860
507483,8964904,9456828,8969664,9461184,2737,2001,-227,-1826,2198,1457,180,3240,24,78,861
508491,8965100,9457208,8969894,9461414,2327,1886,-158,-1683,2127,1298,-442,3973,24,78,861
509485,8965288,9457536,8970091,9461611,2382,2154,-56,-1501,2149,48,-954,3566,34,69,860
510486,8965476,9457868,8970288,9461808,2387,2071,1,-1379,2302,-362,-374,3244,34,69,860
511487,8965664,9458276,8970485,9462005,2392,1504,-49,-1367,2357,846,-117,2343,31,74,863
512488,8965816,9458644,8970682,9462202,2638,1679,-68,-1255,2285,1367,-92,3667,31,74,863
513489,8965996,9458972,8970879,9462399,2471,1873,-5,-989,2212,778,-411,4170,45,72,865
514490,8966180,9459304,8971076,9462596,2453,1789,31,-892,2191,585,-491,2025,45,72,865
515491,8966380,9459716,8971273,9462793,2353,1195,17,-1043,2139,1580,-33,1497,55,64,864
516492,8966588,9460060,8971470,9462990,2299,1556,28,-1046,2053,1402,-71,2997,55,64,864
517493,8966784,9460364,8971667,9463187,2375,1759,128,-843,2079,-249,-148,3709,54,64,867
518494,8966996,9460700,8971864,9463384,2270,1499,210,-686,2129,251,-41,2064,54,64,867
519495,8967172,9461044,8972061,9463581,2505,1385,237,-671,2050,1396,-74,1996,37,56,864
520496,8967364,9461376,8972258,9463778,2408,1401,303,-450,1921,1220,-343,3893,37,56,864
521497,8967576,9461720,8972455,9463975,2277,1261,358,-218,1795,1424,-1299,2242,29,56,865
522498,8967788,9461988,8972652,9464172,2271,1706,316,-281,1693,1334,-1959,581,29,56,865
523499,8967992,9462308,8972849,9464369,2319,1327,334,-171,1652,928,-655,2936,40,55,867
524501,8968216,9462652,8973046,9464566,2183,1114,436,67,1657,639,-234,3035,40,55,867
525502,8968420,9462976,8973243,9464763,2306,1183,513,320,1591,1521,-203,1998,58,67,867
526503,8968640,9463308,8973440,9464960,2197,1073,579,494,1494,1463,-157,2345,58,67,867
527503,8968852,9463600,8973637,9465157,2241,1283,651,730,1396,1666,195,2741,54,70,868
528505,8969080,9463944,8973834,9465354,2129,893,708,887,1279,1939,275,1887,54,70,868
529505,8969312,9464272,8974031,9465551,2089,936,738,999,1207,1585,-954,1722,57,66,868
530506,8969532,9464588,8974228,9465748,2155,958,728,1312,1330,1735,-3013,2631,57,66,868
531507,8969768,9464864,8974425,9465945,2039,1175,661,1938,1462,2243,-589,3730,57,69,869
532508,8969984,9465220,8974622,9466142,2156,605,557,2454,1488,1586,-513,2100,57,69,869
533509,8970200,9465556,8974819,9466339,2148,669,524,2751,1437,1500,-694,2172,57,64,870
534510,8970456,9465868,8975016,9466536,1873,768,608,2973,1346,649,-212,2681,57,64,870
535511,8970708,9466136,8975213,9466733,1875,1012,706,3130,1214,1160,1,1921,44,50,871
536512,8970940,9466408,8975410,9466930,1986,954,706,3236,1083,1852,-910,1505,44,50,871
537513,8971200,9466724,8975607,9467127,1784,628,691,3451,1003,1225,-407,2688,49,50,872
538514,8971424,9467036,8975804,9467324,1998,602,748,3798,979,846,-13,3975,49,50,872
539515,8971608,9467268,8976001,9467521,2255,1087,693,3948,854,2698,-373,2438,33,48,872
540516,8971844,9467456,8976198,9467718,1913,1366,603,4023,840,1533,-379,3737,33,48,872
541517,8972088,9467652,8976395,9467915,1843,1316,640,3873,975,-61,159,3616,56,53,868
542518,8972296,9467872,8976592,9468112,2064,1156,855,3084,1097,-364,-778,1789,56,53,868
543519,8972532,9468084,8976789,9468309,1873,1199,1204,2247,1249,-584,-1727,4963,41,32,869
544520,8972736,9468304,8976986,9468506,2071,1139,1349,1831,1257,2193,-874,4495,41,32,869
545521,8972940,9468492,8977183,9468703,2068,1343,1186,1738,1284,1429,-1328,3521,53,42,870
546522,8973168,9468656,8977380,9468900,1905,1508,940,1952,1460,-916,-851,4863,53,42,870
547523,8973428,9468792,8977577,9469097,1679,1710,729,2089,1348,229,711,3728,52,25,869
548524,8973656,9468964,8977774,9469294,1866,1496,611,1953,1075,-398,-877,3970,52,25,869
549525,8973916,9469160,8977971,9469491,1639,1346,591,1643,834,-1168,-1792,4656,48,39,869
550526,8974148,9469372,8978168,9469688,1799,1239,590,1322,492,-24,660,5298,48,39,869
551527,8974360,9469564,8978365,9469885,1919,1367,511,863,141,-77,285,4512,46,27,871
552528,8974604,9469736,8978562,9470082,1699,1503,384,424,-26,137,-2420,5846,46,27,871
553529,8974880,9469908,8978759,9470279,1465,1514,232,158,-136,781,-1592,5393,39,42,869
554530,8975112,9470080,8978956,9470476,1725,1525,50,-55,-265,403,1102,4403,39,42,869
555531,8975352,9470248,8979153,9470673,1657,1563,-35,-604,-355,174,-115,4287,38,26,871
556532,8975600,9470412,8979350,9470870,1585,1603,43,-1617,-458,1281,-984,4816,38,26,871
557534,8975828,9470584,8979547,9471067,1698,1564,155,-2784,-603,2312,-1756,4913,58,45,870
558534,8976060,9470808,8979744,9471264,1657,1227,119,-3555,-721,1399,-1887,5918,58,45,870
559535,8976288,9471028,8979941,9471461,1670,1242,-74,-3830,-898,1447,434,5977,57,45,870
560536,8976500,9471260,8980138,9471658,1764,1151,-434,-3855,-1108,1312,322,5064,57,45,870
561537,8976668,9471448,8980335,9471855,2052,1430,-763,-3648,-1285,1714,69,6667,34,42,871
562538,8976856,9471616,8980532,9472052,1932,1568,-1100,-3502,-1452,3374,423,5082,34,42,871
563539,8977000,9471788,8980729,9472249,2231,1554,-1479,-3158,-1596,4393,911,6120,46,30,868
564540,8977168,9472004,8980926,9472446,2094,1271,-1822,-2427,-1638,4368,538,7940,46,30,868
565541,8977352,9472264,8981123,9472643,2001,968,-2126,-1958,-1557,5091,348,4776,44,33,866
566542,8977516,9472480,8981320,9472840,2141,1235,-2252,-2030,-1492,4828,870,4439,44,33,866
567543,8977656,9472688,8981517,9473037,2317,1281,-2077,-2340,-1488,3660,867,5043,26,38,870
568544,8977816,9472852,8981714,9473234,2208,1570,-1803,-2790,-1446,2494,200,4284,26,38,870
569545,8977976,9473032,8981911,9473431,2226,1478,-1605,-3126,-1306,2742,120,4139,18,35,867
570546,8978112,9473176,8982108,9473628,2404,1726,-1544,-3207,-1140,3328,882,4103,18,35,867
571547,8978268,9473344,8982305,9473825,2298,1589,-1628,-3058,-1050,4090,1667,4069,38,29,866
572548,8978404,9473512,8982502,9474022,2449,1602,-1862,-2867,-989,4820,-446,3459,38,29,866
573550,8978576,9473688,8982699,9474219,2236,1561,-2099,-2539,-942,4202,105,4265,42,36,865
574550,8978724,9473884,8982896,9474416,2409,1436,-2286,-2292,-910,3432,402,3615,42,36,865
575551,8978916,9474028,8983093,9474613,2137,1785,-2383,-2084,-919,3662,-532,4154,38,40,865
576552,8979092,9474184,8983290,9474810,2247,1728,-2311,-1750,-898,3821,10,6182,38,40,865
577553,8979272,9474340,8983487,9475007,2230,1746,-2107,-1345,-789,3630,-248,6147,46,20,865
578554,8979520,9474464,8983684,9475204,1783,1979,-1922,-1101,-606,2929,-454,4402,46,20,865
579555,8979724,9474588,8983881,9475401,2056,2011,-1842,-1107,-392,2668,-712,3474,34,26,865
580556,8979932,9474736,8984078,9475598,2027,1882,-1788,-1131,-264,3335,-912,3394,34,26,865
581557,8980164,9474852,8984275,9475795,1863,2118,-1666,-1024,-171,3069,-1612,3939,39,30,864
582558,8980368,9474988,8984472,9475992,2035,2020,-1519,-770,-122,3171,-1704,4124,39,30,864
583559,8980580,9475112,8984669,9476189,1979,2127,-1307,-314,-128,3260,-1364,5865,33,23,865
584560,8980832,9475204,8984866,9476386,1706,2374,-1194,-30,-97,2483,-1308,3234,33,23,865
585561,8981064,9475308,8985063,9476583,1817,2340,-1189,-38,-18,1791,-1352,2339,40,24,864
586562,8981276,9475440,8985260,9476780,1935,2193,-1100,-67,100,1544,-1871,3832,40,24,864
587563,8981524,9475532,8985457,9476977,1689,2490,-891,147,172,2247,-2106,4862,37,29,862
588564,8981744,9475648,8985654,9477174,1855,2376,-681,499,184,2260,-1845,4849,37,29,862
589565,8982000,9475748,8985851,9477371,1605,2519,-536,933,263,1233,-2299,4858,38,30,864
590566,8982252,9475872,8986048,9477568,1606,2401,-446,1277,375,961,-1745,4246,38,30,864
591576,8982540,9475972,8986278,9477798,1356,2609,-434,1315,425,1282,-2126,2293,41,22,864
592568,8982772,9476108,8986475,9477995,1692,2411,-514,899,471,853,-1880,733,41,22,864
593569,8983052,9476252,8986672,9478192,1356,2384,-449,564,526,1071,-2249,3752,54,20,865
594570,8983312,9476384,8986869,9478389,1454,2489,-185,558,453,2043,-2895,5601,54,20,865
595571,8983552,9476508,8987066,9478586,1561,2571,95,452,427,280,-1529,3636,46,19,865
596572,8983804,9476624,8987263,9478783,1463,2656,233,188,533,-273,-827,3755,46,19,865
597573,8984092,9476760,8987460,9478980,1198,2559,314,82,558,1115,-1329,4589,38,17,863
598574,8984352,9476884,8987657,9479177,1346,2666,309,-22,567,-39,-1127,4018,38,17,863
599575,8984612,9477028,8987854,9479374,1318,2565,235,-124,681,-1427,-721,3422,49,19,864
600576,8984848,9477160,8988051,9479571,1452,2669,155,-100,785,-555,-865,5147,49,19,864
601577,8985096,9477280,8988248,9479768,1356,2779,232,77,825,141,-1709,5784,42,27,864
602578,8985344,9477428,8988445,9479965,1333,2625,325,-23,767,818,-1812,4866,42,27,864
603579,8985612,9477576,8988642,9480162,1178,2647,346,-409,689,677,-772,3489,57,27,863
604580,8985848,9477724,8988839,9480359,1361,2669,285,-750,610,1664,-711,4103,57,27,863
605581,8986096,9477912,8989036,9480556,1264,2423,242,-856,576,1496,-1027,4017,38,25,864
606582,8986320,9478084,8989233,9480753,1404,2535,283,-797,676,299,-597,4474,38,25,864
607583,8986580,9478280,8989430,9480950,1151,2386,278,-898,852,493,450,2466,39,44,864
608584,8986824,9478484,8989627,9481147,1231,2334,123,-986,903,2121,988,2170,39,44,864
609585,8987060,9478668,8989824,9481344,1264,2464,-179,-936,858,2448,1200,1407,47,32,864
610586,8987344,9478884,8990021,9481541,927,2257,-480,-609,825,2077,731,2523,47,32,864
611587,8987584,9479096,8990218,9481738,1183,2277,-616,-148,913,449,-779,3406,52,47,865
612588,8987796,9479352,8990415,9481935,1352,1976,-557,317,1102,-363,-1017,4115,52,47,865
613589,8988016,9479596,8990612,9482132,1292,2031,-386,224,1285,-76,-2304,2426,32,40,868
614590,8988224,9479856,8990809,9482329,1363,1903,-68,-289,1373,934,-1677,3380,32,40,868
615591,8988400,9480092,8991006,9482526,1573,2036,348,-1096,1375,1289,-463,2925,34,54,869
616592,8988624,9480372,8991203,9482723,1262,1726,702,-2003,1207,2255,285,1764,34,54,869
617593,8988804,9480628,8991400,9482920,1544,1850,873,-2543,927,1671,-315,2998,27,40,869
618594,8988984,9480884,8991597,9483117,1553,1825,805,-2498,738,289,-863,3302,27,40,869
619595,8989172,9481100,8991794,9483314,1507,2066,560,-1898,662,303,136,3889,33,56,870
620596,8989340,9481344,8991991,9483511,1645,1872,331,-1043,718,-608,-392,4187,33,56,870
621597,8989484,9481588,8992188,9483708,1819,1851,184,-428,710,240,219,3609,35,51,868
622598,8989676,9481812,8992385,9483905,1522,1964,166,-78,577,1366,-629,3712,35,51,868
623599,8989812,9482056,8992582,9484102,1899,1820,208,-102,459,1006,-844,2721,33,41,868
624600,8989984,9482308,8992779,9484299,1686,1745,272,-313,370,697,-782,3139,33,41,868
625601,8990144,9482540,8992976,9484496,1777,1856,454,-361,245,258,200,4817,34,50,868
626602,8990296,9482748,8993173,9484693,1848,2001,560,-697,193,-504,-1130,2131,34,50,868
627603,8990472,9483008,8993370,9484890,1707,1649,572,-1098,198,409,623,2836,21,38,868
628604,8990604,9483248,8993567,9485087,2012,1756,584,-1170,405,24,-856,4439,21,38,868
629605,8990772,9483484,8993764,9485284,1800,1764,623,-954,690,476,-270,4495,42,35,866
630606,8990936,9483712,8993961,9485481,1840,1800,615,-720,923,1373,-171,3958,42,35,866
631607,8991084,9483896,8994158,9485678,1962,2082,559,-415,1080,2117,-802,4612,25,42,866
632608,8991260,9484124,8994355,9485875,1797,1793,530,22,1146,2667,-455,5518,25,42,866
633609,8991400,9484332,8994552,9486072,2048,1913,480,462,1152,2768,37,5548,33,32,867
634610,8991596,9484512,8994749,9486269,1698,2097,423,667,1281,1579,-970,4604,33,32,867
635611,8991796,9484692,8994946,9486466,1673,2104,495,637,1524,1545,-1523,4795,39,41,867
636612,8991952,9484868,8995143,9486663,1967,2138,660,481,1710,1675,-408,4432,39,41,867
637613,8992112,9485068,8995340,9486860,1958,1988,786,357,1903,516,-1686,4182,44,24,866
638614,8992288,9485244,8995537,9487057,1868,2147,836,353,2052,704,-368,4690,44,24,866
639615,8992456,9485392,8995734,9487254,1931,2344,770,374,2133,669,-793,3616,23,23,865
640616,8992592,9485556,8995931,9487451,2159,2259,691,577,2137,789,-947,5151,23,23,865
641617,8992748,9485736,8996128,9487648,2053,2167,668,878,2125,334,-1026,5245,38,29,864
642618,8992912,9485924,8996325,9487845,2017,2122,587,1027,2116,-147,-41,3519,38,29,864
643619,8993072,9486108,8996522,9488042,2060,2152,500,1093,2131,74,-202,4348,41,36,862
644620,8993264,9486344,8996719,9488239,1863,1810,455,1299,2145,437,-1301,5250,41,36,862
645621,8993424,9486532,8996916,9488436,2079,2115,408,1429,2130,231,-164,4320,22,45,865
646622,8993596,9486760,8997113,9488633,2016,1852,347,1500,2098,-33,2,4134,22,45,865
647623,8993744,9486972,8997310,9488830,2189,1945,321,1532,2036,-38,229,4933,39,46,867
648624,8993900,9487184,8997507,9489027,2157,1939,320,1659,2010,-5,-147,5144,39,46,867
649625,8994032,9487468,8997704,9489224,2336,1451,267,1603,2049,-517,-1286,3313,23,53,866
650626,8994192,9487736,8997901,9489421,2178,1520,260,1556,2029,124,237,4710,23,53,866
651627,8994324,9488048,8998098,9489618,2382,1195,282,1632,1956,745,1320,4738,24,59,865
652628,8994440,9488296,8998295,9489815,2519,1573,233,1618,1963,-186,-8,3382,24,59,865
653629,8994612,9488468,8998492,9490012,2181,2059,241,1498,2074,-967,-1020,4359,28,50,866
654630,8994812,9488628,8998689,9490209,2005,2151,314,1324,2147,-957,-276,4243,28,50,866
655632,8994984,9488808,8998886,9490406,2191,2034,387,1155,2180,-1227,-393,4349,50,26,864
656633,8995164,9488980,8999083,9490603,2150,2095,473,1080,2133,-452,889,4862,50,26,864
657634,8995324,9489160,8999280,9490800,2292,2052,424,948,2066,-399,895,3432,27,37,865
658634,8995508,9489364,8999477,9490997,2149,1900,305,794,1978,-979,1360,4200,27,37,865
659635,8995672,9489596,8999674,9491194,2288,1710,229,754,1874,-1602,595,5012,26,39,864
660637,8995808,9489828,8999871,9491391,2491,1694,217,761,1814,-2030,-429,5260,26,39,864
661638,8995972,9490076,9000068,9491588,2332,1573,250,762,1797,-1770,134,5144,28,50,866
662639,8996116,9490396,9000265,9491785,2481,1069,262,720,1808,-1616,378,4664,28,50,866
663639,8996252,9490688,9000462,9491982,2558,1202,295,421,1829,-1548,-379,3761,24,54,864
664640,8996408,9490964,9000659,9492179,2452,1267,432,158,1802,-814,-874,4983,24,54,864
665641,8996532,9491256,9000856,9492376,2685,1127,532,-161,1794,-865,-565,3993,40,64,866
666642,8996656,9491580,9001053,9492573,2718,871,478,-424,1789,-459,408,3457,40,64,866
667643,8996788,9491848,9001250,9492770,2697,1190,295,-365,1764,342,-304,3789,38,54,866
668644,8996932,9492100,9001447,9492967,2647,1266,76,-40,1688,190,-891,4551,38,54,866
669645,8997076,9492316,9001644,9493164,2670,1482,-166,387,1537,-81,-1467,4577,26,49,867
670646,8997232,9492588,9001841,9493361,2614,1100,-343,830,1320,185,-843,5626,26,49,867
671647,8997384,9492884,9002038,9493558,2660,907,-444,1199,1031,51,532,6302,28,49,865
672648,8997524,9493156,9002235,9493755,2761,1024,-567,1193,747,-615,404,4417,28,49,865
673649,8997688,9493404,9002432,9493952,2626,1151,-603,1168,501,-182,597,6433,25,58,866
674657,8997852,9493648,9002662,9494182,2656,1170,-581,1050,316,165,491,5001,25,58,866
675651,8998028,9493908,9002859,9494379,2591,1042,-641,944,213,777,903,4542,34,42,864
676652,8998180,9494184,9003056,9494576,2762,908,-770,1130,260,575,916,4901,34,42,864
677653,8998372,9494468,9003253,9494773,2515,820,-831,1495,445,-5,47,5341,27,58,866
678654,8998548,9494676,9003450,9494970,2626,1290,-702,1648,652,-179,-1947,4572,27,58,866
679655,8998704,9494872,9003647,9495167,2770,1365,-415,1360,694,1176,-2365,4040,48,45,866
680656,8998896,9495044,9003844,9495364,2547,1527,-50,1158,699,902,-2462,5693,48,45,866
681657,8999052,9495256,9004041,9495561,2791,1271,160,1074,717,666,-1159,3969,47,37,865
682658,8999228,9495496,9004238,9495758,2676,1077,162,961,668,706,-516,2838,47,37,865
683659,8999396,9495724,9004435,9495955,2740,1138,160,902,437,129,-823,4914,44,43,865
684660,8999576,9495944,9004632,9496152,2673,1178,182,773,51,-278,-599,4226,44,43,865
685661,8999724,9496144,9004829,9496349,2896,1302,105,507,-366,-790,354,3862,44,36,864
686662,8999892,9496336,9005026,9496546,2785,1354,-237,307,-1034,-1854,-188,5144,44,36,864
687663,9000044,9496512,9005223,9496743,2905,1463,-443,234,-1358,-586,-550,5589,30,34,864
688664,9000232,9496728,9005420,9496940,2685,1205,-553,156,-1596,161,-492,6306,30,34,864
689665,9000392,9496964,9005617,9497137,2878,1063,-590,12,-1739,493,-539,5398,40,35,864
690666,9000552,9497188,9005814,9497334,2895,1126,-535,-161,-1750,-52,-1116,6032,40,35,864
691667,9000700,9497404,9006011,9497531,2992,1167,-434,-291,-1728,283,-1087,5918,28,41,865
692669,9000876,9497600,9006208,9497728,2828,1293,-428,-425,-1718,442,-974,4450,28,41,865
693669,9001088,9497796,9006405,9497925,2597,1293,-500,-505,-1807,1752,-817,4760,38,35,864
694670,9001272,9498004,9006602,9498122,2779,1213,-513,-377,-1901,1626,-986,5554,38,35,864
695671,9001476,9498180,9006799,9498319,2652,1423,-425,-325,-1954,789,-981,5146,39,37,864
696672,9001668,9498332,9006996,9498516,2730,1592,-359,-441,-1985,433,-879,3831,39,37,864
697673,9001860,9498476,9007193,9498713,2733,1666,-361,-571,-1912,-235,-1229,4049,44,23,864
698674,9002028,9498620,9007390,9498910,2897,1689,-376,-618,-1857,226,-1150,4406,44,23,864
699675,9002228,9498768,9007587,9499107,2697,1685,-440,-760,-1829,-368,-1373,2787,44,22,863
700676,9002404,9498880,9007784,9499304,2857,1948,-456,-843,-1843,-262,-1221,4470,44,22,863
701677,9002592,9498972,9007981,9499501,2787,2119,-408,-812,-1975,800,-1496,4695,48,23,861
702678,9002820,9499064,9008178,9499698,2524,2166,-452,-831,-2176,1193,-973,3525,48,23,861
703679,9003020,9499176,9008375,9499895,2699,2078,-536,-718,-2339,1316,-1576,4786,53,22,860
704680,9003236,9499296,9008572,9500092,2591,2062,-569,-409,-2397,1341,-830,5340,53,22,860
705681,9003476,9499428,9008769,9500289,2424,2016,-657,-307,-2392,1018,-798,2941,56,21,861
706682,9003688,9499580,9008966,9500486,2593,1911,-723,-257,-2393,1709,-472,4291,56,21,861
707683,9003896,9499712,9009163,9500683,2614,2064,-725,-169,-2312,959,-908,4401,55,34,860
708684,9004120,9499836,9009360,9500880,2503,2146,-686,-338,-2176,147,-222,2813,55,34,860
709685,9004364,9499968,9009557,9501077,2359,2126,-601,-528,-2115,847,-151,3587,53,20,861
710686,9004584,9500092,9009754,9501274,2499,2208,-518,-573,-2146,1213,159,3549,53,20,861
711687,9004824,9500220,9009951,9501471,2357,2213,-499,-549,-2163,896,59,3170,40,21,862
712688,9005088,9500352,9010148,9501668,2178,2217,-492,-468,-2130,651,-178,3378,40,21,862
713689,9005320,9500464,9010345,9501865,2364,2380,-454,-423,-2074,570,-312,3058,42,35,861
714690,9005560,9500572,9010542,9502062,2296,2444,-393,-419,-2054,1385,-160,3093,42,35,861
715691,9005860,9500692,9010739,9502259,1877,2403,-343,-490,-2028,1467,-263,2121,62,34,864
716692,9006132,9500812,9010936,9502456,2020,2437,-276,-511,-1928,709,-498,2917,62,34,864
717693,9006388,9500940,9011133,9502653,2095,2418,-201,-416,-1818,626,-789,3033,46,19,860
718694,9006700,9501060,9011330,9502850,1695,2502,-158,-331,-1789,1312,9,2432,46,19,860
719695,9006988,9501176,9011527,9503047,1806,2563,-172,-342,-1754,855,-39,2190,53,27,861
720696,9007280,9501292,9011724,9503244,1740,2599,-116,-385,-1675,346,-255,2874,53,27,861
721697,9007600,9501416,9011921,9503441,1512,2581,-37,-535,-1614,475,-262,2323,72,21,864
722698,9007896,9501540,9012118,9503638,1619,2613,27,-775,-1555,278,-27,1950,72,21,864
723699,9008168,9501652,9012315,9503835,1737,2727,38,-1003,-1488,486,-740,2298,53,30,863
724700,9008488,9501776,9012512,9504032,1384,2684,29,-1137,-1447,542,-798,2469,53,30,863
725701,9008800,9501900,9012709,9504229,1384,2717,-12,-1177,-1386,-183,-462,2487,60,21,864
726702,9009068,9502024,9012906,9504426,1629,2749,-66,-1211,-1360,222,-688,2553,60,21,864
727703,9009328,9502196,9013103,9504623,1651,2461,-70,-1215,-1343,66,-1136,3283,50,38,864
728704,9009660,9502336,9013300,9504820,1143,2686,-69,-1304,-1350,402,-575,2833,50,38,864
729705,9009940,9502504,9013497,9505017,1433,2525,-80,-1520,-1352,554,-541,2365,50,37,862
730706,9010232,9502640,9013694,9505214,1316,2752,-82,-1791,-1310,-100,-473,2695,50,37,862
731707,9010528,9502792,9013891,9505411,1248,2672,-81,-2088,-1224,-752,-746,2078,47,34,864
732708,9010780,9502952,9014088,9505608,1500,2639,-75,-2326,-1176,-70,-820,2570,47,34,864
733709,9011056,9503116,9014285,9505805,1315,2629,-89,-2443,-1203,449,-225,2678,69,40,864
734710,9011352,9503284,9014482,9506002,1148,2617,-148,-2467,-1257,518,-171,2284,69,40,864
735711,9011620,9503468,9014679,9506199,1292,2524,-198,-2418,-1300,565,-367,3026,65,28,864
736712,9011876,9503624,9014876,9506396,1342,2717,-197,-2355,-1318,572,-993,3099,65,28,864
737713,9012172,9503796,9015073,9506593,1049,2629,-122,-2419,-1265,265,-647,2634,44,29,866
738714,9012408,9503984,9015270,9506790,1407,2533,-99,-2681,-1173,258,-418,1979,44,29,866
739715,9012652,9504152,9015467,9506987,1338,2671,-13,-2971,-1081,490,-419,2119,37,36,864
740716,9012904,9504320,9015664,9507184,1263,2684,75,-3178,-973,561,-640,3148,37,36,864
741717,9013140,9504488,9015861,9507381,1347,2698,166,-3273,-896,958,-199,2138,40,47,864
742718,9013364,9504680,9016058,9507578,1410,2550,162,-3354,-804,676,-237,2083,40,47,864
743719,9013588,9504864,9016255,9507775,1400,2607,174,-3243,-713,666,-224,3113,48,45,865
744720,9013868,9505060,9016452,9507972,1013,2532,187,-3120,-612,504,20,3056,48,45,865
745721,9014124,9505236,9016649,9508169,1138,2667,184,-3151,-550,954,149,2183,42,37,865
746722,9014336,9505392,9016846,9508366,1407,2811,237,-3253,-476,427,-241,3146,42,37,865
747723,9014604,9505536,9017043,9508563,1026,2910,345,-3464,-416,332,19,3091,51,28,866
748724,9014836,9505680,9017240,9508760,1236,2934,392,-3785,-387,784,-37,2423,51,28,866
749725,9015092,9505904,9017437,9508957,1061,2422,422,-3947,-337,614,85,3636,39,37,864
750726,9015352,9506100,9017634,9509154,1008,2599,411,-4062,-272,258,548,3265,39,37,864
751727,9015596,9506276,9017831,9509351,1089,2733,342,-4145,-210,90,572,2947,40,47,862
752728,9015840,9506456,9018028,9509548,1068,2716,234,-4162,-160,365,-69,3715,40,47,862
753729,9016092,9506644,9018225,9509745,994,2671,158,-4079,-70,109,-80,3965,38,32,866
754730,9016316,9506828,9018422,9509942,1158,2702,106,-3880,-55,1398,-35,4700,38,32,866
755731,9016548,9507024,9018619,9510139,1093,2628,23,-3661,-116,1854,-1011,4319,43,46,865
756732,9016796,9507212,9018816,9510336,971,2682,-114,-3442,-13,292,426,4194,43,46,865
757740,9017028,9507396,9019046,9510566,1070,2729,-222,-3215,128,1140,347,4694,48,41,865
758734,9017232,9507600,9019243,9510763,1242,2601,-235,-2941,219,1534,-141,5781,48,41,865
759735,9017460,9507800,9019440,9510960,1080,2625,-269,-2931,283,1886,323,3800,33,46,866
760736,9017656,9508004,9019637,9511157,1280,2598,-326,-2959,353,2300,310,4783,33,46,866
761737,9017836,9508184,9019834,9511354,1388,2756,-332,-2925,418,2111,-355,5288,30,48,866
762738,9018028,9508376,9020031,9511551,1316,2684,-328,-3030,529,1473,-337,4152,30,48,866
763739,9018224,9508552,9020228,9511748,1291,2794,-336,-2969,631,2214,-292,5457,36,44,864
764740,9018408,9508724,9020425,9511945,1373,2830,-337,-2742,718,2225,-818,5678,36,44,864
765741,9018584,9508900,9020622,9512142,1432,2815,-345,-2455,777,2416,-452,5652,31,26,864
766742,9018780,9509072,9020819,9512339,1308,2851,-356,-2217,796,2747,-750,5639,31,26,864
767743,9018948,9509228,9021016,9512536,1496,2970,-342,-2027,863,1861,-799,5651,25,23,863
768744,9019132,9509360,9021213,9512733,1402,3150,-328,-1920,946,1604,-826,5160,25,23,863
769745,9019320,9509524,9021410,9512930,1382,2964,-277,-1857,1000,1604,-490,5512,25,24,862
770746,9019508,9509676,9021607,9513127,1386,3060,-227,-1746,1067,1288,-1314,5433,25,24,862
771747,9019680,9509840,9021804,9513324,1497,3001,-181,-1687,1142,1021,-681,5433,35,26,860
772748,9019872,9510012,9022001,9513521,1375,2962,-172,-1574,1174,1063,-983,5037,35,26,860
773749,9020016,9510168,9022198,9513718,1698,3081,-177,-1470,1203,764,-851,5520,28,39,860
774750,9020172,9510304,9022395,9513915,1642,3233,-162,-1262,1161,1567,-1950,5842,28,39,860
775751,9020332,9510452,9022592,9514112,1634,3180,-116,-1042,1107,1291,-1303,6085,24,36,860
776752,9020500,9510584,9022789,9514309,1596,3309,-58,-957,1137,542,-1950,5551,24,36,860
777753,9020672,9510732,9022986,9514506,1583,3232,16,-972,1176,556,-1240,5661,23,19,858
778754,9020848,9510872,9023183,9514703,1568,3307,106,-1055,1237,251,-1265,5385,23,19,858
779755,9021020,9510988,9023380,9514900,1605,3494,190,-1196,1289,298,-1358,5330,29,18,858
780756,9021176,9511108,9023577,9515097,1723,3503,254,-1364,1362,-30,-1499,5027,29,18,858
781757,9021352,9511256,9023774,9515294,1608,3351,293,-1442,1339,770,-1612,5027,23,24,858
782758,9021540,9511380,9023971,9515491,1537,3533,346,-1380,1300,17,-911,5996,23,24,858
783759,9021708,9511508,9024168,9515688,1676,3539,366,-1328,1284,-246,-1861,4890,46,22,855
784760,9021904,9511632,9024365,9515885,1501,3597,371,-1253,1257,-342,-787,5499,46,22,855
785761,9022084,9511748,9024562,9516082,1609,3684,354,-1256,1234,-609,-1337,4911,29,31,855
786762,9022256,9511912,9024759,9516279,1670,3400,368,-1293,1174,-154,-844,5094,29,31,855
787763,9022432,9512032,9024956,9516476,1655,3708,411,-1351,1098,165,-1022,5377,29,25,856
788765,9022632,9512160,9025153,9516673,1504,3690,484,-1343,1073,103,-1096,5577,29,25,856
789765,9022824,9512292,9025350,9516870,1557,3694,481,-1439,1069,90,-1134,4633,49,36,857
790767,9023004,9512420,9025547,9517067,1640,3751,484,-1394,1097,-582,-971,5589,49,36,857
791767,9023228,9512572,9025744,9517264,1353,3621,469,-1378,1145,-944,-1254,4750,30,32,855
792768,9023404,9512720,9025941,9517461,1663,3669,464,-1386,1207,-1131,-486,5009,30,32,855
793769,9023584,9512864,9026138,9517658,1646,3718,459,-1467,1243,-817,-527,4498,36,35,853
794770,9023764,9513028,9026335,9517855,1654,3609,387,-1640,1183,-307,-243,3823,36,35,853
795784,9023968,9513156,9026532,9518052,1501,3800,307,-1691,1147,-786,57,4634,34,32,852
796772,9024144,9513312,9026729,9518249,1686,3708,213,-1606,1163,-699,-206,4609,34,32,852
797786,9024352,9513452,9026926,9518446,1482,3800,127,-1505,1221,-845,-475,4419,50,19,853
798774,9024548,9513608,9027123,9518643,1558,3753,109,-1468,1321,-934,-550,4896,50,19,853
799775,9024720,9513784,9027320,9518840,1719,3638,122,-1574,1396,-615,-163,3992,29,38,854
800776,9024892,9513972,9027517,9519037,1731,3568,137,-1810,1425,-64,56,3488,29,38,854
801777,9025100,9514188,9027714,9519234,1501,3386,209,-2011,1451,45,25,4392,29,44,855
802778,9025272,9514396,9027911,9519431,1738,3432,262,-2139,1400,878,887,4061,29,44,855
803779,9025460,9514572,9028108,9519628,1642,3642,208,-2184,1319,878,918,3630,36,29,856
804780,9025648,9514768,9028305,9519825,1647,3519,113,-2143,1289,282,59,4053,36,29,856
805781,9025800,9514980,9028502,9520022,1892,3413,38,-2037,1348,-320,-529,4193,47,43,856
806782,9025968,9515184,9028699,9520219,1806,3461,-19,-1894,1386,98,-46,4050,47,43,856
807783,9026140,9515412,9028896,9520416,1792,3299,-70,-1810,1334,867,-331,4243,46,36,854
808784,9026300,9515648,9029093,9520613,1884,3232,-128,-1905,1239,808,217,3703,46,36,854
809785,9026448,9515888,9029290,9520810,1980,3189,-99,-1955,1242,12,860,4793,34,44,856
810786,9026592,9516116,9029487,9521007,2030,3252,-140,-2070,1280,183,614,3631,34,44,856
811787,9026728,9516336,9029684,9521204,2107,3293,-242,-2220,1396,-838,-116,3057,32,37,857
812788,9026888,9516572,9029881,9521401,1974,3177,-293,-2142,1713,-2745,-1104,4986,32,37,857
813789,9027044,9516808,9030078,9521598,2018,3160,-323,-2002,1996,-2001,-167,3805,45,37,857
814790,9027212,9516996,9030275,9521795,1956,3465,-536,-2304,1613,4494,2132,612,45,37,857
815791,9027344,9517208,9030472,9521992,2210,3309,-577,-2105,1038,4699,324,7340,45,45,857
816792,9027504,9517400,9030669,9522189,2051,3437,-473,-1746,929,604,-591,5332,45,45,857
817793,9027680,9517584,9030866,9522386,1962,3494,-540,-1924,1089,294,616,636,29,43,854
818794,9027820,9517772,9031063,9522583,2213,3474,-585,-2152,1198,962,789,3422,29,43,854
819795,9027980,9517936,9031260,9522780,2104,3639,-529,-2069,1194,1701,-975,4625,28,32,853
820796,9028140,9518140,9031457,9522977,2121,3387,-474,-1937,1166,1364,-1906,3085,28,32,853
821797,9028304,9518400,9031654,9523174,2111,3010,-438,-1804,1180,620,-1130,3407,22,52,854
822798,9028412,9518676,9031851,9523371,2501,2877,-350,-1619,1297,-333,158,4630,22,52,854
823799,9028568,9518904,9032048,9523568,2220,3164,-318,-1682,1407,708,197,2124,26,49,855
824800,9028696,9519124,9032245,9523765,2425,3205,-405,-1892,1405,1942,-661,2004,26,49,855
825801,9028836,9519412,9032442,9523962,2376,2741,-432,-1965,1385,1189,-1483,3023,42,56,857
826802,9028968,9519700,9032639,9524159,2456,2701,-347,-1870,1414,745,-1708,3346,42,56,857
827803,9029084,9520020,9032836,9524356,2591,2448,-207,-1712,1439,980,-863,3512,21,65,854
828804,9029224,9520308,9033033,9524553,2467,2609,-62,-1589,1448,1150,-305,3597,21,65,854
829805,9029352,9520600,9033230,9524750,2574,2543,38,-1627,1437,1410,339,2941,26,66,857
830806,9029504,9520924,9033427,9524947,2444,2288,65,-1785,1416,1460,17,2191,26,66,857
831807,9029644,9521252,9033624,9525144,2545,2206,42,-1909,1488,-5,-226,2396,35,49,860
832808,9029760,9521560,9033821,9525341,2731,2283,6,-2012,1669,-822,-189,2351,35,49,860
833809,9029920,9521860,9034018,9525538,2473,2289,-19,-2024,1714,1048,-39,2132,23,64,861
834810,9030052,9522148,9034215,9525735,2678,2325,-27,-1877,1646,1292,-273,3243,23,64,861
835811,9030192,9522512,9034412,9525932,2653,1776,-39,-1711,1613,728,-568,2672,37,65,859
836812,9030340,9522844,9034609,9526129,2626,1918,-67,-1577,1696,-269,-659,2482,37,65,859
837813,9030512,9523156,9034806,9526326,2488,1994,-66,-1407,1826,-444,-223,3069,43,70,859
838814,9030672,9523476,9035003,9526523,2580,1890,-78,-1244,1880,23,203,2228,43,70,859
839815,9030880,9523876,9035200,9526720,2276,1301,-114,-1130,1827,690,135,2143,45,74,860
840823,9031072,9524212,9035430,9526950,2394,1655,-121,-806,1781,423,-262,3607,45,74,860
841817,9031244,9524504,9035627,9527147,2530,1889,-84,-482,1785,251,-107,2942,44,60,862
842818,9031424,9524816,9035824,9527344,2488,1713,-22,-320,1743,1298,321,2516,44,60,862
843819,9031624,9525168,9036021,9527541,2363,1396,81,-140,1646,2016,433,3117,36,55,865
844820,9031820,9525540,9036218,9527738,2389,1194,229,48,1612,1221,339,2912,36,55,865
845821,9032036,9525840,9036415,9527935,2257,1600,381,118,1744,-115,149,1886,52,64,864
846822,9032260,9526108,9036612,9528132,2196,1769,513,110,1957,164,-53,1722,52,64,864
847823,9032480,9526440,9036809,9528329,2211,1310,623,261,2067,1415,-287,2977,50,55,867
848824,9032676,9526744,9037006,9528526,2362,1439,731,553,2063,1513,-554,2697,50,55,867
849825,9032892,9527032,9037203,9528723,2230,1499,831,752,2035,1223,-484,2158,34,50,866
850826,9033092,9527332,9037400,9528920,2330,1378,874,944,2033,1242,-130,2029,34,50,866
851827,9033332,9527580,9037597,9529117,2062,1682,856,1126,2064,977,-52,1691,56,46,865
852828,9033564,9527884,9037794,9529314,2097,1285,822,1389,2110,391,-403,2048,56,46,865
853829,9033772,9528184,9037991,9529511,2243,1265,790,1629,2181,-64,-1127,1740,54,53,867
854830,9033980,9528472,9038188,9529708,2239,1301,782,1925,2185,836,-1182,2551,54,53,867
855831,9034212,9528788,9038385,9529905,2074,1073,825,2390,2124,1084,-891,3363,37,50,869
856832,9034440,9529032,9038582,9530102,2087,1503,817,2686,2027,959,-411,1940,37,50,869
857833,9034680,9529380,9038779,9530299,1994,786,729,2836,2018,906,-1077,1496,47,66,867
858834,9034920,9529696,9038976,9530496,1975,934,675,2973,2028,789,-578,2885,47,66,867
859835,9035156,9529968,9039173,9530693,1984,1177,689,3214,1981,745,-8,3330,51,55,867
860836,9035380,9530244,9039370,9530890,2048,1117,721,3160,1919,804,-143,1971,51,55,867
861837,9035636,9530540,9039567,9531087,1823,949,766,2884,1818,567,-102,1710,39,48,869
862838,9035840,9530868,9039764,9531284,2145,691,826,2710,1714,173,196,2910,39,48,869
863839,9036096,9531212,9039961,9531481,1795,527,841,2758,1583,761,386,2859,63,68,869
864840,9036348,9531492,9040158,9531678,1797,890,714,2739,1432,808,255,1423,63,68,869
865841,9036604,9531712,9040355,9531875,1747,1255,563,2895,1353,237,-527,3927,46,61,870
866842,9036820,9532008,9040552,9532072,1989,737,361,3471,1369,1841,-7,6241,46,61,870
867843,9037032,9532312,9040749,9532269,2008,640,60,3756,1410,2700,640,3577,43,55,872
868844,9037232,9532580,9040946,9532466,2083,833,-107,3591,1507,1850,-412,4864,43,55,872
869845,9037464,9532836,9041143,9532663,1867,882,6,3091,1613,869,-1205,4799,45,54,871
870846,9037680,9532984,9041340,9532860,1960,1579,240,2424,1628,305,-1390,3900,45,54,871
871847,9037904,9533204,9041537,9533057,1899,1119,442,1936,1703,-777,-1273,4500,42,34,871
872848,9038108,9533448,9041734,9533254,2021,948,451,1800,1735,-70,1248,3861,42,34,871
873849,9038316,9533648,9041931,9533451,1992,1222,316,1874,1559,1226,1308,4056,49,46,866
874850,9038524,9533828,9042128,9533648,1988,1354,199,1705,1389,-928,-986,3609,49,46,866
875851,9038748,9534020,9042325,9533845,1877,1282,145,1216,1260,-1839,-1874,3564,53,34,870
876852,9038988,9534192,9042522,9534042,1759,1418,105,916,995,-381,53,4793,53,34,870
877853,9039232,9534328,9042719,9534239,1714,1669,50,706,627,-16,917,4941,39,36,869
878854,9039464,9534488,9042916,9534436,1774,1536,64,-4,359,-553,-977,3843,39,36,869
879855,9039668,9534684,9043113,9534633,1946,1311,203,-980,183,129,-1599,5312,33,24,870
880856,9039876,9534860,9043310,9534830,1918,1445,284,-1881,-11,676,-1828,5128,33,24,870
881857,9040096,9535056,9043507,9535027,1833,1321,162,-2278,-154,-399,-2159,5470,54,29,868
882858,9040332,9535224,9043704,9535224,1716,1509,-230,-1976,-283,-834,-5,5223,54,29,868
883859,9040564,9535408,9043901,9535421,1727,1414,-760,-1267,-454,159,581,5756,50,38,867
884861,9040816,9535564,9044098,9535618,1578,1607,-1124,-898,-616,980,-2257,5779,50,38,867
885861,9041036,9535720,9044295,9535815,1769,1625,-1218,-1201,-835,1693,-1874,5399,41,40,869
886862,9041244,9535856,9044492,9536012,1840,1777,-1167,-2066,-1025,1332,-1295,4500,41,40,869
887863,9041508,9536064,9044689,9536209,1460,1322,-1029,-2990,-1172,2032,-1147,5394,53,32,870
888864,9041752,9536280,9044886,9536406,1566,1264,-961,-3653,-1372,2965,-875,5309,53,32,870
889865,9041996,9536532,9045083,9536603,1545,1015,-1017,-3983,-1551,2001,-388,4557,41,37,868
890866,9042216,9536752,9045280,9536800,1686,1205,-1193,-3996,-1657,1935,223,5210,41,37,868
891867,9042420,9536960,9045477,9536997,1784,1275,-1391,-3741,-1718,2245,-512,4837,34,34,872
892868,9042592,9537160,9045674,9537194,1995,1323,-1537,-3523,-1750,2249,331,5191,34,34,872
893869,9042796,9537316,9045871,9537391,1793,1616,-1582,-3369,-1798,3862,589,5011,32,45,871
894870,9042988,9537536,9046068,9537588,1870,1206,-1665,-3254,-1908,4923,-248,4410,32,45,871
895871,9043152,9537768,9046265,9537785,2061,1116,-1738,-2958,-1991,4703,-288,5394,46,30,867
896872,9043308,9537984,9046462,9537982,2130,1208,-1748,-2800,-2025,4147,573,4312,46,30,867
897873,9043452,9538184,9046659,9538179,2228,1306,-1674,-2929,-2015,3462,520,3184,27,43,870
898874,9043624,9538356,9046856,9538376,2065,1492,-1569,-3096,-1883,2406,-114,3362,27,43,870
899875,9043808,9538504,9047053,9538573,1996,1664,-1508,-3005,-1662,2629,589,4050,24,23,868
900876,9044016,9538668,9047250,9538770,1842,1578,-1471,-2608,-1492,3945,158,4909,24,23,868
901877,9044188,9538800,9047447,9538967,2079,1807,-1470,-2121,-1393,4107,-52,4715,49,22,867
902878,9044368,9538928,9047644,9539164,2036,1862,-1485,-1875,-1319,3625,-403,3366,49,22,867
903879,9044532,9539104,9047841,9539361,2152,1571,-1457,-1762,-1230,3687,-87,4081,30,27,868
904880,9044668,9539292,9048038,9539558,2354,1500,-1387,-1544,-1135,4624,-594,4871,30,27,868
905881,9044800,9539464,9048235,9539755,2408,1611,-1344,-1184,-1121,5865,-1057,4625,19,27,864
906882,9044984,9539612,9048432,9539952,2090,1783,-1250,-794,-1059,4831,-551,5378,19,27,864
907883,9045128,9539756,9048629,9540149,2363,1831,-1109,-601,-795,2979,-1952,4263,19,34,864
908884,9045296,9539908,9048826,9540346,2227,1801,-978,-390,-449,3012,-1423,4869,19,34,864
909885,9045496,9540012,9049023,9540543,2026,2142,-872,-73,-127,3152,-1359,4986,24,35,866
910886,9045692,9540124,9049220,9540740,2052,2130,-801,299,162,2601,-1650,4323,24,35,866
911887,9045892,9540312,9049417,9540937,2027,1659,-667,736,379,2891,-2434,5572,51,31,865
912888,9046116,9540420,9049614,9541134,1866,2198,-462,1232,459,3582,-2578,5812,51,31,865
913889,9046340,9540544,9049811,9541331,1854,2130,-386,1372,419,3726,-1640,3024,36,31,864
914890,9046564,9540652,9050008,9541528,1843,2269,-383,1176,548,1579,-2307,2568,36,31,864
915891,9046800,9540760,9050205,9541725,1752,2309,-167,1137,747,1996,-2791,5539,54,27,864
916892,9047064,9540868,9050402,9541922,1547,2348,194,1316,891,1973,-2944,6119,54,27,864
917894,9047304,9541000,9050599,9542119,1679,2227,462,1596,1041,751,-2711,5340,58,13,863
918895,9047564,9541092,9050796,9542316,1528,2523,553,1882,1186,514,-2118,5105,58,13,863
919895,9047836,9541180,9050993,9542513,1420,2596,504,2010,1251,877,-1771,3889,50,22,865
920896,9048096,9541292,9051190,9542710,1468,2484,312,1608,1325,104,-2258,130,50,22,865
921897,9048372,9541408,9051387,9542907,1334,2495,187,1154,1418,184,-1884,3081,54,21,864
922898,9048668,9541520,9051584,9543104,1166,2558,350,1098,1423,689,-2058,5858,54,21,864
923908,9048916,9541632,9051814,9543334,1459,2609,516,743,1395,-450,-2225,2729,44,26,864
924900,9049172,9541752,9052011,9543531,1383,2593,632,348,1429,-1218,-1332,3812,44,26,864
925902,9049452,9541880,9052208,9543728,1198,2575,597,41,1479,-848,-1181,3891,58,21,866
926902,9049716,9542008,9052405,9543925,1268,2605,562,-86,1459,-653,-1031,4017,58,21,866
927904,9049964,9542124,9052602,9544122,1347,2717,585,-348,1304,-343,-824,4867,38,24,862
928904,9050228,9542240,9052799,9544319,1217,2752,709,-709,995,-227,-590,4505,38,24,862
929906,9050484,9542360,9052996,9544516,1242,2761,858,-1083,764,-955,-729,5514,38,24,864
930906,9050708,9542456,9053193,9544713,1431,2956,955,-1435,637,-239,-398,4397,38,24,864
931907,9050964,9542572,9053390,9544910,1206,2867,901,-1802,612,125,366,2862,57,16,864
932908,9051236,9542712,9053587,9545107,1073,2743,741,-1815,619,735,323,3872,57,16,864
933909,9051464,9542876,9053784,9545304,1335,2607,595,-1455,573,1324,76,3941,35,36,861
934910,9051716,9543020,9053981,9545501,1161,2756,460,-1124,540,1131,546,3054,35,36,861
935911,9051988,9543200,9054178,9545698,1004,2539,310,-913,617,742,456,2452,41,33,865
936912,9052224,9543440,9054375,9545895,1212,2145,184,-722,661,2222,654,2865,41,33,865
937913,9052452,9543620,9054572,9546092,1248,2529,7,-837,647,1957,2259,316,58,49,865
938914,9052720,9543872,9054769,9546289,968,2055,-252,-1175,716,735,964,-230,58,49,865
939915,9052936,9544104,9054966,9546486,1285,2165,-306,-1083,829,890,-622,3920,56,51,868
940916,9053128,9544292,9055163,9546683,1438,2444,-169,-906,960,416,-1102,3307,56,51,868
941917,9053332,9544488,9055360,9546880,1360,2396,4,-1197,1047,334,-288,1858,46,44,870
942918,9053516,9544752,9055557,9547077,1490,1941,282,-1584,1022,1632,-846,4693,46,44,870
943919,9053668,9544972,9055754,9547274,1711,2207,570,-2023,893,2261,-1149,3633,46,41,866
944920,9053860,9545252,9055951,9547471,1463,1796,714,-2480,711,2537,-87,2766,46,41,866
945921,9054028,9545516,9056148,9547668,1626,1866,695,-2714,675,1130,-694,2992,40,52,868
946922,9054204,9545792,9056345,9547865,1586,1757,543,-2666,670,876,-213,2758,40,52,868
947923,9054400,9546040,9056542,9548062,1462,1910,438,-2089,585,1481,-324,5282,42,54,869
948924,9054564,9546284,9056739,9548259,1677,1915,343,-1425,525,1086,-796,4125,42,54,869
949925,9054704,9546536,9056936,9548456,1852,1841,248,-940,574,1246,-234,3534,33,41,868
950927,9054856,9546788,9057133,9548653,1798,1817,275,-731,728,1407,-643,3698,33,41,868
951927,9054996,9547028,9057330,9548850,1898,1874,441,-747,811,2012,282,3696,39,55,867
952928,9055132,9547240,9057527,9549047,1950,2043,580,-915,766,2154,-65,2723,39,55,867
953929,9055272,9547476,9057724,9549244,1951,1875,611,-1037,641,1976,-288,2883,18,45,867
954930,9055428,9547704,9057921,9549441,1869,1913,623,-949,467,1742,1400,4070,18,45,867
955931,9055564,9547964,9058118,9549638,2022,1685,664,-772,316,707,1586,4253,32,45,865
956932,9055720,9548184,9058315,9549835,1915,1925,660,-831,309,-362,-351,2968,32,45,865
957933,9055880,9548388,9058512,9550032,1907,2023,608,-994,422,-208,171,3019,19,38,866
958934,9056028,9548596,9058709,9550229,2004,1993,558,-908,694,-294,-900,4478,19,38,866
959935,9056176,9548816,9058906,9550426,2026,1908,511,-572,1034,65,-415,4406,22,48,866
960936,9056348,9549040,9059103,9550623,1887,1872,431,-165,1240,1683,503,4767,22,48,866
961937,9056492,9549252,9059300,9550820,2086,1941,319,283,1240,3403,-11,5024,41,47,864
962938,9056640,9549460,9059497,9551017,2083,1961,206,607,1253,3245,-695,4579,41,47,864
963939,9056816,9549632,9059694,9551214,1918,2198,147,781,1414,2583,-1345,4519,25,48,867
964940,9056984,9549848,9059891,9551411,1981,1914,252,944,1644,2274,-1411,5669,25,48,867
965941,9057148,9550028,9060088,9551608,2021,2147,420,935,1902,1302,-1384,4552,38,30,865
966942,9057348,9550224,9060285,9551805,1796,2047,546,826,2096,1393,-315,3994,38,30,865
967943,9057524,9550420,9060482,9552002,1955,2049,589,779,2297,1053,-1002,3873,43,33,865
968944,9057692,9550596,9060679,9552199,2019,2183,621,830,2452,855,-412,4395,43,33,865
969945,9057840,9550748,9060876,9552396,2166,2353,644,940,2502,741,-132,5067,26,26,866
970946,9058024,9550928,9061073,9552593,1947,2186,616,1068,2452,312,-414,4544,26,26,866
971947,9058176,9551072,9061270,9552790,2167,2434,547,1105,2383,-236,-168,4312,23,42,863
972948,9058336,9551272,9061467,9552987,2134,2083,442,1025,2298,-388,89,3846,23,42,863
973949,9058504,9551468,9061664,9553184,2098,2110,348,1076,2202,-710,15,4964,22,38,863
974950,9058700,9551680,9061861,9553381,1924,2003,238,1325,2113,-545,-199,5088,22,38,863
975951,9058856,9551892,9062058,9553578,2193,1996,77,1525,2019,-31,306,3942,38,32,864
976952,9059040,9552084,9062255,9553775,2023,2125,-58,1749,1941,381,169,4921,38,32,864
977953,9059200,9552312,9062452,9553972,2191,1886,-120,1816,1913,265,-2,4308,30,50,866
978954,9059344,9552528,9062649,9554169,2315,1953,-138,1844,1970,497,513,4352,30,50,866
979955,9059524,9552764,9062846,9554366,2097,1812,-126,1649,2164,227,-565,3220,22,42,864
980956,9059660,9553000,9063043,9554563,2400,1794,-95,1461,2296,181,-353,4352,22,42,864
981957,9059804,9553256,9063240,9554760,2374,1643,-112,1329,2233,226,1106,4617,25,50,863
982958,9059952,9553504,9063437,9554957,2371,1671,-252,1192,1978,-255,1606,3829,25,50,863
983959,9060104,9553752,9063634,9555154,2367,1650,-389,1121,1787,-1160,241,4798,49,47,863
984960,9060300,9553904,9063831,9555351,2093,2269,-429,975,1790,-1970,-954,4695,49,47,863
985961,9060472,9554028,9064028,9555548,2254,2476,-409,963,1750,-988,908,6068,51,42,864
986962,9060676,9554144,9064225,9555745,2052,2563,-455,1016,1611,-744,1364,5318,51,42,864
987963,9060848,9554288,9064422,9555942,2264,2411,-602,1160,1502,-798,980,5903,30,37,863
988964,9061024,9554460,9064619,9556139,2248,2247,-696,1122,1476,-1508,259,5404,30,37,863
989965,9061200,9554656,9064816,9556336,2259,2098,-643,705,1438,-1607,617,4662,32,26,861
990966,9061344,9554900,9065013,9556533,2483,1778,-528,251,1453,-1344,472,5133,32,26,861
991967,9061496,9555136,9065210,9556730,2453,1811,-337,-34,1548,-718,17,6382,26,40,862
992968,9061668,9555364,9065407,9556927,2340,1847,-168,-205,1630,62,93,5018,26,40,862
993969,9061820,9555636,9065604,9557124,2485,1540,-75,-431,1661,-127,450,3495,31,63,863
994970,9061960,9555984,9065801,9557321,2585,999,12,-500,1656,243,-460,4524,31,63,863
995971,9062096,9556300,9065998,9557518,2638,1147,71,-400,1602,826,-1710,4155,32,68,863
996972,9062224,9556592,9066195,9557715,2720,1255,69,-153,1610,-2,-2888,4155,32,68,863
997973,9062348,9556928,9066392,9557912,2778,920,-23,239,1677,-200,-893,4164,19,72,866
998974,9062512,9557240,9066589,9558109,2542,1019,-244,628,1754,270,-1124,3180,19,72,866
999975,9062660,9557528,9066786,9558306,2665,1129,-481,1129,1746,1076,-1683,4524,30,65,865
1000976,9062820,9557792,9066983,9558503,2607,1250,-628,1591,1621,592,-2104,4748,30,65,865
1001977,9062972,9558084,9067180,9558700,2678,1033,-737,1775,1449,-329,-1390,4270,35,52,867
1002978,9063132,9558376,9067377,9558897,2645,991,-792,1851,1215,-95,-35,5124,35,52,867
1003979,9063292,9558720,9067574,9559094,2661,603,-781,1701,918,-371,186,4527,28,53,865
1004980,9063436,9559000,9067771,9559291,2786,966,-699,1493,643,-346,383,5206,28,53,865
1005981,9063608,9559276,9067968,9559488,2623,957,-591,1265,548,-572,-177,4717,26,65,865
1006989,9063788,9559628,9068198,9559718,2595,428,-530,1128,560,-38,343,4512,26,65,865
1007983,9063968,9559948,9068395,9559915,2604,574,-538,1095,588,454,506,3985,50,65,865
1008984,9064180,9560220,9068592,9560112,2398,841,-613,1178,594,551,-715,3712,50,65,865
1009985,9064372,9560460,9068789,9560309,2526,1022,-666,1384,551,864,-1885,4119,30,43,868
1010986,9064560,9560652,9068986,9560506,2556,1324,-579,1710,520,325,-1538,5460,30,43,868
1011987,9064780,9560888,9069183,9560703,2346,1032,-493,1706,548,-246,-1098,3124,35,40,869
1012988,9064976,9561128,9069380,9560900,2498,988,-337,1476,656,-679,-2276,4437,35,40,869
1013989,9065180,9561320,9069577,9561097,2446,1291,-10,1188,745,-768,-2419,6149,35,49,866
1014990,9065380,9561536,9069774,9561294,2470,1132,294,647,625,12,-1246,3759,35,49,866
1015991,9065552,9561736,9069971,9561491,2656,1230,392,-21,301,-405,-185,3791,51,48,866
1016992,9065740,9561900,9070168,9561688,2561,1469,343,-288,-143,-876,186,5990,51,48,866
1017993,9065928,9562104,9070365,9561885,2566,1216,138,-255,-689,-888,430,5196,44,48,865
1018994,9066108,9562304,9070562,9562082,2625,1240,-172,-108,-1197,-942,470,5426,44,48,865
1019995,9066276,9562536,9070759,9562279,2714,1025,-512,74,-1500,-1340,-410,5135,26,49,865
1020996,9066460,9562752,9070956,9562476,2620,1116,-764,186,-1604,-1188,-1439,5186,26,49,865
1021997,9066684,9562952,9071153,9562673,2359,1215,-845,424,-1653,45,-1414,6191,48,34,865
1022998,9066868,9563160,9071350,9562870,2615,1160,-905,696,-1710,384,-299,4267,48,34,865
1023999,9067072,9563356,9071547,9563067,2488,1235,-894,1194,-1719,832,-207,5760,46,42,866
1025000,9067272,9563540,9071744,9563264,2513,1316,-764,1426,-1682,1416,-2352,4887,46,42,866
1026001,9067468,9563712,9071941,9563461,2539,1402,-566,991,-1635,1411,-3637,2862,31,44,865
1027002,9067664,9563868,9072138,9563658,2541,1520,-277,332,-1637,1666,-1223,4048,31,44,865
1028003,9067852,9564016,9072335,9563855,2596,1592,-28,-440,-1612,1294,-1335,2171,29,40,865
1029004,9068060,9564164,9072532,9564052,2466,1613,157,-1036,-1528,818,-1713,3348,29,40,865
1030005,9068236,9564284,9072729,9564249,2676,1822,270,-1311,-1434,510,-1836,3856,46,20,864
1031006,9068460,9564388,9072926,9564446,2365,1963,211,-1284,-1334,-194,-870,3339,46,20,864
1032007,9068648,9564488,9073123,9564643,2595,2031,40,-1063,-1261,-564,-1359,4250,51,30,864
1033008,9068856,9564572,9073320,9564840,2466,2180,-107,-704,-1359,173,-1002,5221,51,30,864
1034009,9069084,9564704,9073517,9565037,2329,1909,-248,-446,-1585,-98,-175,4623,34,20,863
1035010,9069272,9564808,9073714,9565234,2584,2125,-377,-412,-1858,630,-421,4342,34,20,863
1036011,9069472,9564920,9073911,9565431,2507,2112,-419,-441,-2076,1415,-454,5136,32,34,861
1037012,9069708,9565068,9074108,9565628,2266,1909,-389,-666,-2121,1092,-884,4096,32,34,861
1038013,9069904,9565192,9074305,9565825,2518,2091,-339,-947,-2058,1274,-459,3767,48,22,860
1039014,9070128,9565280,9074502,9566022,2332,2364,-342,-1172,-1962,1278,141,3240,48,22,860
1040015,9070356,9565416,9074699,9566219,2294,2090,-372,-1255,-1799,464,-14,2971,31,23,862
1041016,9070576,9565528,9074896,9566416,2335,2279,-391,-1199,-1626,269,-216,3187,31,23,862
1042017,9070812,9565632,9075093,9566613,2218,2370,-409,-1060,-1545,752,-855,2655,51,17,861
1043018,9071032,9565756,9075290,9566810,2309,2277,-405,-813,-1553,1522,-1160,3565,51,17,861
1044019,9071276,9565856,9075487,9567007,2139,2469,-385,-480,-1623,2215,-827,4054,55,25,862
1045020,9071540,9565952,9075684,9567204,1986,2539,-371,-305,-1690,1826,111,3178,55,25,862
1046021,9071784,9566080,9075881,9567401,2091,2370,-372,-388,-1661,646,193,2367,39,19,862
1047022,9072056,9566192,9076078,9567598,1883,2507,-310,-559,-1536,266,-129,2469,39,19,862
1048023,9072288,9566312,9076275,9567795,2119,2491,-223,-781,-1441,748,104,1877,47,17,862
1049025,9072552,9566420,9076472,9567992,1890,2605,-168,-892,-1375,883,135,2041,47,17,862
1050025,9072836,9566548,9076669,9568189,1728,2512,-98,-810,-1341,990,-809,2687,65,25,861
1051026,9073112,9566684,9076866,9568386,1743,2488,13,-616,-1373,820,-773,3350,65,25,861
1052027,9073364,9566804,9077063,9568583,1870,2622,110,-557,-1387,96,-255,2063,53,28,862
1053028,9073652,9566908,9077260,9568780,1606,2764,106,-769,-1343,-65,-81,1364,53,28,862
1054029,9073928,9567028,9077457,9568977,1647,2698,123,-846,-1303,537,-653,2491,48,32,863
1055030,9074220,9567144,9077654,9569174,1506,2759,155,-838,-1285,623,-766,2752,48,32,863
1056031,9074484,9567252,9077851,9569371,1652,2849,136,-907,-1243,259,4,2150,43,17,862
1057032,9074768,9567376,9078048,9569568,1490,2781,112,-1072,-1192,142,-172,2181,43,17,862
1058033,9075024,9567484,9078245,9569765,1639,2921,78,-1144,-1131,-30,-850,3416,46,29,862
1059034,9075320,9567628,9078442,9569962,1346,2719,108,-1111,-1081,329,-818,3125,46,29,862
1060035,9075600,9567756,9078639,9570159,1410,2851,82,-1252,-1107,1167,-320,2827,57,27,861
1061037,9075880,9567916,9078836,9570356,1375,2667,110,-1333,-1094,193,-347,3575,57,27,861
1062037,9076168,9568076,9079033,9570553,1285,2683,157,-1579,-996,-695,-1044,2731,48,37,863
1063038,9076432,9568208,9079230,9570750,1406,2888,183,-1887,-921,-139,-716,2882,48,37,863
1064039,9076708,9568352,9079427,9570947,1297,2836,217,-2209,-898,321,-506,2526,48,39,864
1065040,9076972,9568492,9079624,9571144,1343,2887,209,-2433,-878,374,-915,3016,48,39,864
1066041,9077240,9568640,9079821,9571341,1288,2858,215,-2467,-844,343,-773,3658,63,26,862
1067042,9077504,9568772,9080018,9571538,1283,2988,214,-2544,-800,244,-610,2632,63,26,862
1068043,9077764,9568956,9080215,9571735,1282,2669,159,-2585,-746,365,-341,2899,41,26,862
1069044,9078024,9569084,9080412,9571932,1254,3050,145,-2613,-680,458,-427,3182,41,26,862
1070045,9078280,9569232,9080609,9572129,1253,2948,156,-2707,-596,231,-602,2509,57,22,862
1071046,9078488,9569372,9080806,9572326,1549,3023,165,-2902,-532,654,-447,2607,57,22,862
1072047,9078748,9569520,9081003,9572523,1196,2995,212,-3061,-462,551,-589,2693,48,28,860
1073048,9078976,9569696,9081200,9572720,1384,2829,210,-3255,-389,571,-399,2461,48,28,860
1074049,9079224,9569852,9081397,9572917,1236,2973,222,-3314,-340,686,-261,3017,44,34,860
1075050,9079472,9569984,9081594,9573114,1215,3152,188,-3286,-305,850,-143,3080,44,34,860
1076051,9079740,9570140,9081791,9573311,1059,3021,128,-3224,-263,664,322,3025,57,27,863
1077052,9079968,9570312,9081988,9573508,1295,2933,56,-3282,-184,279,-254,2601,57,27,863
1078053,9080204,9570496,9082185,9573705,1229,2864,56,-3366,-139,544,427,3787,44,42,861
1079054,9080492,9570652,9082382,9573902,864,3058,101,-3515,-112,511,-31,3344,44,42,861
1080055,9080744,9570812,9082579,9574099,1066,3049,102,-3699,-69,494,148,3486,44,28,862
1081056,9080980,9570956,9082776,9574296,1149,3173,73,-3781,-75,924,585,3716,44,28,862
1082057,9081248,9571104,9082973,9574493,918,3171,-6,-3830,-82,443,463,3716,52,23,861
1083058,9081504,9571260,9083170,9574690,968,3139,-94,-3809,-20,-2,-199,3854,52,23,861
1084059,9081728,9571468,9083367,9574887,1156,2810,-137,-3639,40,523,467,5286,49,30,860
1085060,9081976,9571672,9083564,9575084,983,2833,-185,-3451,-21,1562,203,4234,49,30,860
1086061,9082220,9571876,9083761,9575281,988,2830,-265,-3421,19,-32,306,4303,55,32,862
1087062,9082432,9572044,9083958,9575478,1182,3069,-282,-3355,165,-182,799,4762,55,32,862
1088063,9082692,9572244,9084155,9575675,854,2868,-288,-3353,196,1264,605,4588,50,43,865
1089064,9082908,9572420,9084352,9575872,1121,3027,-315,-3396,150,1453,143,4117,50,43,865
1090072,9083084,9572612,9084582,9576102,1396,2945,-364,-3356,106,1841,338,4970,52,31,862
1091066,9083276,9572800,9084779,9576299,1298,2975,-421,-3169,39,2346,-245,5012,52,31,862
1092067,9083468,9573016,9084976,9576496,1300,2792,-484,-3025,97,706,-31,4707,32,31,863
1093068,9083660,9573212,9085173,9576693,1302,2918,-535,-2866,226,771,8,5209,32,31,863
1094069,9083832,9573400,9085370,9576890,1439,2973,-559,-2743,300,1673,-797,5077,27,34,861
1095070,9084036,9573556,9085567,9577087,1236,3191,-519,-2566,334,1815,-846,5876,27,34,861
1096071,9084216,9573772,9085764,9577284,1394,2809,-450,-2466,282,2720,-1042,5351,26,34,863
1097072,9084380,9573980,9085961,9577481,1509,2855,-407,-2456,326,1643,-1340,5307,26,34,863
1098073,9084572,9574160,9086158,9577678,1336,3037,-391,-2425,459,1249,-796,5249,45,29,861
1099074,9084740,9574312,9086355,9577875,1499,3233,-388,-2320,605,1237,-1166,5709,45,29,861
1100075,9084896,9574484,9086552,9578072,1593,3120,-370,-2070,670,1681,-966,5774,24,24,861
1101076,9085096,9574640,9086749,9578269,1317,3238,-381,-1882,670,1500,-761,5227,24,24,861
1102077,9085248,9574804,9086946,9578466,1637,3204,-355,-1734,741,420,-1058,5609,28,25,859
1103078,9085428,9574956,9087143,9578663,1469,3300,-295,-1669,788,1090,-1195,5297,28,25,859
1104079,9085596,9575104,9087340,9578860,1558,3346,-237,-1639,816,940,-1014,5025,41,40,858
1105080,9085736,9575240,9087537,9579057,1758,3449,-158,-1654,889,359,-1951,5334,41,40,858
1106081,9085892,9575408,9087734,9579254,1676,3263,-47,-1583,943,640,-1653,5728,20,34,857
1107082,9086068,9575556,9087931,9579451,1561,3409,52,-1564,984,291,-1755,5015,20,34,857
1108083,9086220,9575700,9088128,9579648,1731,3458,161,-1499,1043,194,-1527,5850,41,21,855
1109084,9086392,9575848,9088325,9579845,1618,3456,246,-1542,1056,849,-1831,4994,41,21,855
1110085,9086544,9575980,9088522,9580042,1763,3586,306,-1515,1044,737,-1219,5479,21,34,857
1111086,9086728,9576140,9088719,9580239,1568,3427,344,-1618,1114,-195,-1180,4721,21,34,857
1112087,9086892,9576292,9088916,9580436,1709,3498,368,-1630,1147,771,-1363,5366,43,37,854
1113088,9087072,9576448,9089113,9580633,1616,3492,409,-1598,1145,613,-956,5334,43,37,854
1114089,9087248,9576580,9089310,9580830,1651,3671,392,-1579,1194,-166,-1671,4673,46,32,857
1115090,9087424,9576728,9089507,9581027,1661,3594,423,-1527,1262,-153,-1064,5778,46,32,857
1116091,9087572,9576880,9089704,9581224,1857,3588,441,-1488,1264,260,-1669,5053,26,23,855
1117092,9087776,9577020,9089901,9581421,1505,3690,458,-1482,1304,-694,-327,5063,26,23,855
1118093,9087940,9577188,9090098,9581618,1770,3528,484,-1529,1286,342,-372,5317,44,38,854
1119094,9088120,9577336,9090295,9581815,1677,3676,514,-1585,1236,191,-407,4782,44,38,854
1120095,9088316,9577496,9090492,9582012,1579,3618,510,-1666,1230,71,-942,4805,43,25,854
1121096,9088496,9577640,9090689,9582209,1686,3742,478,-1609,1232,298,-885,5325,43,25,854
1122097,9088692,9577788,9090886,9582406,1588,3740,404,-1493,1313,-427,-780,4894,47,38,853
1123098,9088892,9577960,9091083,9582603,1561,3601,320,-1475,1406,-482,-1081,4461,47,38,853
1124099,9089084,9578148,9091280,9582800,1615,3506,375,-1366,1423,114,-1063,6128,47,39,854
1125100,9089272,9578320,9091477,9582997,1643,3618,474,-1458,1428,-626,-1074,4588,47,39,854
1126101,9089488,9578472,9091674,9583194,1460,3764,457,-1853,1396,-368,735,2668,36,31,854
1127102,9089668,9578636,9091871,9583391,1694,3704,357,-2152,1381,-319,76,3923,36,31,854
1128103,9089856,9578800,9092068,9583588,1648,3720,318,-1935,1342,-292,88,6284,38,29,853
1129104,9090044,9578980,9092265,9583785,1653,3628,200,-1664,1314,-599,-1,3868,38,29,853
1130105,9090252,9579164,9092462,9583982,1523,3610,25,-1480,1380,-949,-101,4660,42,42,854
1131106,9090440,9579332,9092659,9584179,1652,3724,-76,-1310,1502,-974,-366,5459,42,42,854
1132107,9090588,9579544,9092856,9584376,1924,3443,-106,-1383,1560,-350,-170,3818,48,48,855
1133108,9090800,9579764,9093053,9584573,1518,3384,-33,-1515,1601,-401,-182,5125,48,48,855
1134109,9090972,9579984,9093250,9584770,1780,3374,39,-1718,1539,270,833,4072,36,33,854
1135110,9091152,9580212,9093447,9584967,1737,3311,14,-1883,1401,789,961,3751,36,33,854
1136111,9091320,9580396,9093644,9585164,1826,3593,-4,-1943,1326,104,-29,4318,38,31,858
1137112,9091484,9580600,9093841,9585361,1865,3466,27,-1928,1354,-533,-741,4512,38,31,858
1138113,9091632,9580780,9094038,9585558,1988,3624,86,-1911,1385,-654,255,4210,43,31,856
1139114,9091796,9581000,9094235,9585755,1902,3365,-23,-2089,1375,-201,947,2499,43,31,856
1140115,9091948,9581240,9094432,9585952,1997,3222,-153,-2129,1473,-1004,95,3941,42,36,855
1141116,9092072,9581428,9094629,9586149,2205,3552,-62,-1767,1789,-2703,-457,7151,42,36,855
1142117,9092220,9581620,9094826,9586346,2077,3530,60,-1563,2056,-1726,727,3960,21,27,856
1143118,9092364,9581792,9095023,9586543,2126,3667,-132,-2144,1601,5377,2452,-999,21,27,856
1144119,9092516,9582020,9095220,9586740,2096,3304,-219,-2166,1120,3557,-1453,6563,45,41,853
1145120,9092676,9582212,9095417,9586937,2063,3532,-95,-1691,1175,-611,-1912,6407,45,41,853
1146121,9092856,9582440,9095614,9587134,1946,3294,-115,-1678,1379,-390,140,1016,25,36,852
1147122,9092984,9582640,9095811,9587331,2302,3469,-189,-1779,1452,116,675,3744,25,36,852
1148123,9093132,9582840,9096008,9587528,2198,3469,-216,-1588,1517,-56,-487,4976,37,38,852
1149124,9093292,9583024,9096205,9587725,2141,3575,-269,-1441,1532,448,-804,2979,37,38,852
1150125,9093468,9583220,9096402,9587922,2051,3502,-332,-1407,1478,422,-575,3074,43,43,851
1151126,9093596,9583400,9096599,9588119,2381,3610,-352,-1383,1370,839,-81,3525,43,43,851
1152127,9093764,9583636,9096796,9588316,2145,3244,-378,-1306,1326,763,-24,3423,26,42,853
1153128,9093900,9583888,9096993,9588513,2372,3121,-443,-1202,1376,413,-589,2978,26,42,853
1154129,9094032,9584180,9097190,9588710,2426,2829,-467,-1069,1435,360,-517,3930,34,57,852
1155130,9094176,9584424,9097387,9588907,2375,3110,-405,-919,1505,-81,247,4334,34,57,852
1156131,9094304,9584656,9097584,9589104,2506,3170,-395,-956,1570,228,90,2516,26,49,855
1157132,9094428,9584992,9097781,9589301,2564,2460,-459,-1142,1559,1396,-318,2097,26,49,855
1158133,9094552,9585280,9097978,9589498,2596,2721,-419,-1238,1561,898,-1121,3641,27,48,855
1159134,9094660,9585596,9098175,9589695,2736,2495,-286,-1222,1607,278,-579,3684,27,48,855
1160135,9094816,9585880,9098372,9589892,2455,2657,-175,-1275,1638,812,552,2671,21,53,857
1161136,9094952,9586196,9098569,9590089,2607,2405,-131,-1378,1635,1554,410,2754,21,53,857
1162137,9095092,9586540,9098766,9590286,2608,2167,-122,-1417,1614,1466,90,3227,29,60,857
1163138,9095224,9586900,9098963,9590483,2688,1996,-129,-1462,1705,-211,-460,2657,29,60,857
1164139,9095348,9587212,9099160,9590680,2770,2246,-133,-1556,1841,-391,-312,2855,37,64,859
1165140,9095516,9587480,9099357,9590877,2508,2490,-154,-1668,1867,812,-38,1965,37,64,859
1166141,9095644,9587824,9099554,9591074,2790,1952,-223,-1793,1822,976,-49,1937,24,61,860
1167142,9095792,9588164,9099751,9591271,2687,1914,-245,-1745,1809,789,-222,3164,24,61,860
1168143,9095952,9588516,9099948,9591468,2629,1772,-226,-1612,1841,388,-270,2796,21,75,859
1169144,9096108,9588792,9100145,9591665,2673,2212,-188,-1440,1909,-207,361,3005,21,75,859
1170145,9096292,9589116,9100342,9591862,2504,1857,-181,-1300,1956,-54,504,2454,25,68,860
1171146,9096508,9589448,9100539,9592059,2297,1748,-213,-1198,1970,499,20,2525,25,68,860
1172147,9096700,9589764,9100736,9592256,2449,1797,-229,-991,1963,648,-281,3210,43,64,859
1173155,9096876,9590044,9100966,9592486,2574,2000,-189,-714,1993,37,-272,3175,43,64,859
1174149,9097080,9590372,9101163,9592683,2397,1643,-137,-629,1930,1547,294,1984,43,67,864
1175150,9097264,9590724,9101360,9592880,2529,1425,-72,-498,1788,2251,423,2984,43,67,864
1176151,9097476,9591056,9101557,9593077,2348,1492,41,-267,1694,1658,394,3271,36,69,862
1177152,9097720,9591344,9101754,9593274,2127,1727,163,-132,1758,113,289,2265,36,69,862
1178153,9097932,9591612,9101951,9593471,2322,1820,246,-170,1921,-307,313,1666,56,55,865
1179154,9098148,9591960,9102148,9593668,2289,1255,290,-99,2024,455,119,2670,56,55,865
1180155,9098364,9592260,9102345,9593865,2282,1510,334,183,1990,1303,-163,2689,42,52,866
1181156,9098564,9592560,9102542,9594062,2381,1465,382,398,1873,1564,-354,2278,42,52,866
1182157,9098780,9592832,9102739,9594259,2273,1608,415,621,1779,1408,-500,2435,50,50,865
1183158,9099012,9593076,9102936,9594456,2159,1762,436,801,1771,977,-495,2264,50,50,865
1184159,9099240,9593392,9103133,9594653,2171,1260,479,1049,1796,573,-554,2492,60,52,866
1185160,9099472,9593732,9103330,9594850,2131,1048,502,1188,1815,330,-1365,1863,60,52,866
1186161,9099688,9594032,9103527,9595047,2224,1253,526,1348,1800,923,-2319,2124,53,51,865
1187162,9099932,9594320,9103724,9595244,2029,1288,599,1637,1793,708,-1702,3049,53,51,865
1188163,9100184,9594592,9103921,9595441,1956,1355,617,1770,1771,590,-451,1422,56,51,869
1189164,9100416,9594956,9104118,9595638,2065,706,511,1798,1776,1272,-782,720,56,51,869
1190165,9100688,9595272,9104315,9595835,1783,954,399,2155,1867,1388,-993,3588,53,59,869
1191166,9100908,9595612,9104512,9596032,2099,741,300,2845,1931,1275,-171,4255,53,59,869
1192167,9101140,9595876,9104709,9596229,2009,1188,213,3062,1934,1329,-250,1647,39,65,869
1193168,9101404,9596180,9104906,9596426,1780,891,282,2686,1803,666,-66,1693,39,65,869
1194169,9101652,9596504,9105103,9596623,1859,710,601,2250,1605,441,-265,3097,54,69,868
1195170,9101900,9596836,9105300,9596820,1837,600,840,1899,1420,812,-135,2146,54,69,868
1196171,9102140,9597144,9105497,9597017,1869,702,828,1577,1289,601,176,1068,42,58,872
1197173,9102368,9597380,9105694,9597214,1931,1135,724,1648,1118,1209,137,3547,42,58,872
1198173,9102572,9597724,9105891,9597411,2078,395,624,2078,955,1693,-647,4400,55,57,873
1199174,9102788,9598020,9106088,9597608,1996,651,532,2433,856,1264,350,3868,55,57,873
1200175,9103012,9598280,9106285,9597805,1935,849,340,2421,831,1312,508,2880,54,48,870
1201176,9103228,9598508,9106482,9598002,1976,1034,195,2318,925,1337,-1629,3767,54,48,870
1202177,9103432,9598740,9106679,9598199,2049,994,305,2153,991,1244,-2351,4946,54,39,871
1203178,9103656,9598964,9106876,9598396,1913,1032,544,1974,1057,333,-1110,5187,54,39,871
1204179,9103852,9599192,9107073,9598593,2089,993,488,2032,1052,1852,769,3993,34,52,869
1205180,9104072,9599424,9107270,9598790,1930,953,148,2122,981,1460,1186,3292,34,52,869
1206181,9104268,9599592,9107467,9598987,2080,1366,-55,2102,973,-735,-831,4487,48,41,870
1207182,9104524,9599788,9107664,9599184,1680,1191,-18,1611,899,-733,-2162,3521,48,41,870
1208183,9104760,9599940,9107861,9599381,1788,1486,134,1175,730,-513,-2282,5297,56,36,871
1209184,9105020,9600132,9108058,9599578,1612,1238,96,938,455,172,-1477,4397,56,36,871
1210185,9105260,9600320,9108255,9599775,1719,1266,-153,939,190,155,205,5026,46,34,870
1211186,9105472,9600536,9108452,9599972,1887,1083,-356,687,-8,-6,137,4619,46,34,870
1212187,9105712,9600732,9108649,9600169,1694,1208,-347,59,-195,116,-1520,5399,49,40,871
1213188,9105996,9600904,9108846,9600366,1381,1369,-234,-914,-375,171,-1936,4782,49,40,871
1214189,9106260,9601056,9109043,9600563,1477,1514,-218,-1807,-531,353,-2269,4495,60,32,869
1215190,9106544,9601228,9109240,9600760,1314,1400,-335,-2137,-616,12,-1568,5823,60,32,869
1216191,9106744,9601360,9109437,9600957,1839,1678,-600,-2127,-702,492,-550,5377,41,36,870
1217192,9106988,9601524,9109634,9601154,1543,1493,-862,-1923,-844,1215,-589,5922,41,36,870
1218193,9107248,9601752,9109831,9601351,1417,1079,-1099,-1881,-980,1203,-1197,5067,56,32,872
1219194,9107500,9602004,9110028,9601548,1442,905,-1205,-2019,-1094,1503,-700,5056,56,32,872
1220195,9107724,9602216,9110225,9601745,1607,1148,-1218,-2492,-1173,2150,-1209,4384,58,46,870
1221196,9107936,9602420,9110422,9601942,1675,1194,-1111,-3033,-1186,2071,-1605,4429,58,46,870
1222197,9108152,9602620,9110619,9602139,1643,1218,-967,-3671,-1193,2103,-1093,3610,52,44,873
1223198,9108376,9602776,9110816,9602336,1581,1511,-841,-4123,-1266,2310,-1272,4035,52,44,873
1224199,9108608,9602996,9111013,9602533,1516,1101,-785,-4224,-1396,2538,-1621,4830,50,35,871
1225200,9108848,9603216,9111210,9602730,1447,1091,-821,-4045,-1514,2439,-729,4253,50,35,871
1226201,9109004,9603420,9111407,9602927,1992,1188,-920,-3735,-1648,3198,-56,4167,45,46,869
1227202,9109200,9603644,9111604,9603124,1742,1051,-1018,-3475,-1784,3316,-545,3844,45,46,869
1228203,9109372,9603828,9111801,9603321,1904,1307,-1077,-3180,-1892,3022,205,4237,40,25,872
1229204,9109516,9604012,9111998,9603518,2102,1312,-1126,-2909,-1966,2772,1251,3792,40,25,872
1230205,9109676,9604188,9112195,9603715,2019,1372,-1201,-2748,-2030,3350,-141,3406,40,25,871
1231206,9109828,9604336,9112392,9603912,2089,1567,-1228,-2513,-2164,4415,-28,4754,40,25,871
1232207,9109972,9604476,9112589,9604109,2164,1642,-1242,-2188,-2291,4378,443,4498,33,39,867
1233208,9110088,9604676,9112786,9604306,2374,1266,-1258,-1929,-2321,3863,901,3820,33,39,867
1234209,9110244,9604856,9112983,9604503,2143,1398,-1271,-1879,-2174,2712,-45,3695,34,29,866
1235210,9110376,9605040,9113180,9604700,2322,1379,-1301,-1931,-1971,3310,-609,3233,34,29,866
1236211,9110532,9605196,9113377,9604897,2191,1572,-1253,-1708,-1832,4604,-824,5709,19,36,865
1237212,9110692,9605320,9113574,9605094,2182,1804,-1096,-1121,-1730,4747,-1233,7074,19,36,865
1238213,9110852,9605460,9113771,9605291,2199,1729,-952,-687,-1676,5371,-1027,4942,18,32,865
1239214,9111016,9605564,9113968,9605488,2189,1995,-842,-469,-1625,4940,-267,5048,18,32,865
1240215,9111204,9605692,9114165,9605685,2044,1875,-717,-227,-1477,3930,413,5563,29,18,865
1241216,9111396,9605860,9114362,9605882,2021,1638,-589,43,-1240,3482,-89,5310,29,18,865
1242217,9111564,9605988,9114559,9606079,2185,1918,-437,277,-918,3034,-857,5195,27,34,864
1243218,9111744,9606112,9114756,9606276,2117,1976,-328,316,-664,4489,-1860,4079,27,34,864
1244219,9111968,9606224,9114953,9606473,1831,2088,-187,417,-518,4174,-1751,4832,48,13,866
1245220,9112180,9606336,9115150,9606670,1901,2125,13,665,-394,3415,-1897,5266,48,13,866
1246221,9112384,9606452,9115347,9606867,1948,2136,155,998,-261,2886,-1562,4950,31,13,864
1247222,9112648,9606552,9115544,9607064,1544,2279,234,1335,-70,2244,-2141,5009,31,13,864
1248223,9112852,9606640,9115741,9607261,1916,2401,273,1810,112,1834,-2441,6113,38,25,863
1249224,9113092,9606756,9115938,9607458,1673,2262,301,2126,302,596,-2559,4970,38,25,863
1250225,9113384,9606876,9116135,9607655,1306,2272,361,2268,504,373,-2413,5123,55,21,864
1251226,9113644,9606976,9116332,9607852,1480,2439,430,2285,655,1059,-2766,5066,55,21,864
1252227,9113892,9607096,9116529,9608049,1532,2348,305,1896,700,1209,-2342,1299,58,30,865
1253228,9114168,9607220,9116726,9608246,1324,2355,27,1151,709,468,-2249,559,58,30,865
1254229,9114424,9607368,9116923,9608443,1423,2227,-23,1099,633,1321,-1888,6890,44,21,865
1255230,9114680,9607508,9117120,9608640,1398,2302,-49,1046,448,1471,-536,2527,44,21,865
1256240,9114956,9607636,9117350,9608870,1253,2423,-273,917,364,323,889,2520,53,34,866
1257232,9115220,9607792,9117547,9609067,1299,2266,-497,1055,424,-116,436,4920,53,34,866
1258233,9115484,9607972,9117744,9609264,1270,2123,-728,883,353,1114,1039,1719,55,37,864
1259234,9115740,9608116,9117941,9609461,1295,2372,-896,673,203,1132,1153,3121,55,37,864
1260235,9116004,9608268,9118138,9609658,1215,2342,-947,528,99,748,11,3797,41,24,865
1261236,9116232,9608432,9118335,9609855,1428,2282,-841,386,97,520,-1394,4182,41,24,865
1262237,9116468,9608604,9118532,9610052,1361,2243,-569,-35,90,828,-1037,4017,41,41,866
1263238,9116776,9608768,9118729,9610249,862,2307,-362,-678,83,578,-615,2906,41,41,866
1264239,9117000,9608964,9118926,9610446,1376,2109,-200,-1082,105,689,-457,4037,48,41,866
1265240,9117224,9609144,9119123,9610643,1364,2216,-133,-1125,30,1653,172,4316,48,41,866
1266241,9117516,9609348,9119320,9610840,897,2063,-186,-1097,-48,807,473,3114,34,29,868
1267242,9117728,9609520,9119517,9611037,1392,2275,-270,-1039,-109,1235,879,3737,34,29,868
1268243,9117976,9609716,9119714,9611234,1144,2126,-307,-895,-154,827,864,4106,58,30,867
1269244,9118236,9609912,9119911,9611431,1042,2126,-390,-995,-128,-825,1253,2218,58,30,867
1270245,9118464,9610108,9120108,9611628,1229,2126,-482,-992,-38,-1234,174,3677,55,32,865
1271246,9118692,9610308,9120305,9611825,1215,2101,-454,-811,22,-794,-598,4690,55,32,865
1272247,9118884,9610516,9120502,9612022,1443,2046,-392,-1052,6,-201,-746,2133,33,31,869
1273248,9119088,9610720,9120699,9612219,1365,2068,-205,-1503,-161,1404,327,3154,33,31,869
1274249,9119272,9610964,9120896,9612416,1496,1799,77,-1870,-331,1556,170,4159,28,32,868
1275250,9119440,9611184,9121093,9612613,1609,1938,239,-2104,-381,1279,-502,2913,28,32,868
1276251,9119656,9611404,9121290,9612810,1302,1928,229,-1992,-340,1594,-239,3614,45,51,868
1277252,9119828,9611632,9121487,9613007,1588,1865,11,-1650,-229,837,-840,2457,45,51,868
1278253,9120012,9611844,9121684,9613204,1518,1959,-259,-1125,65,-484,-1083,3071,22,37,867
1279254,9120184,9612092,9121881,9613401,1605,1712,-412,-530,404,-190,330,4316,22,37,867
1280255,9120360,9612324,9122078,9613598,1589,1796,-512,-130,559,901,-475,2929,23,38,866
1281256,9120516,9612520,9122275,9613795,1732,2022,-554,92,520,1512,248,4407,23,38,866
1282257,9120700,9612756,9122472,9613992,1564,1756,-459,229,608,6,-1293,4865,33,37,867
1283258,9120848,9612984,9122669,9614189,1811,1792,-315,131,664,608,-460,4278,33,37,867
1284259,9121012,9613208,9122866,9614386,1725,1805,-176,-171,625,463,-21,3536,29,39,866
1285260,9121208,9613448,9123063,9614583,1527,1686,-90,-571,610,220,-544,3987,29,39,866
1286261,9121380,9613668,9123260,9614780,1688,1801,13,-724,728,25,-884,5801,32,42,867
1287262,9121544,9613880,9123457,9614977,1752,1846,92,-840,952,248,-1473,4607,32,42,867
1288263,9121716,9614096,9123654,9615174,1714,1812,151,-853,1151,733,-1200,5194,42,36,869
1289264,9121904,9614340,9123851,9615371,1618,1617,236,-702,1277,860,-1647,5679,42,36,869
1290265,9122064,9614540,9124048,9615568,1809,1890,295,-528,1309,938,-1016,4812,41,44,867
1291266,9122228,9614776,9124245,9615765,1800,1649,317,-241,1347,459,-887,5583,41,44,867
1292267,9122408,9614956,9124442,9615962,1707,2007,313,33,1408,398,-637,5290,43,45,867
1293268,9122568,9615112,9124639,9616159,1850,2175,286,95,1439,521,-954,3963,43,45,867
1294269,9122748,9615316,9124836,9616356,1732,1872,314,27,1471,-224,-1292,4410,25,31,868
1295270,9122948,9615492,9125033,9616553,1606,2056,450,87,1521,-172,-1161,5293,25,31,868
1296271,9123100,9615672,9125230,9616750,1927,2038,503,133,1581,400,-1275,3613,23,26,865
1297272,9123264,9615844,9125427,9616947,1866,2100,483,250,1629,791,-301,3977,23,26,865
1298273,9123424,9616032,9125624,9617144,1908,2004,453,380,1793,-402,-2327,4553,21,24,866
1299274,9123596,9616180,9125821,9617341,1844,2276,455,444,1987,-1009,-1962,4072,21,24,866
1300275,9123748,9616340,9126018,9617538,1989,2217,418,541,2040,204,-371,4485,26,34,864
1301276,9123920,9616484,9126215,9617735,1876,2341,356,796,2062,173,-1299,4664,26,34,864
1302277,9124096,9616644,9126412,9617932,1860,2258,343,1107,2184,-87,-727,4761,23,30,862
1303278,9124276,9616820,9126609,9618129,1844,2167,318,1196,2305,-87,-673,3139,23,30,862
1304279,9124448,9617024,9126806,9618326,1905,1989,333,1279,2387,-166,-829,4688,32,31,862
1305280,9124608,9617228,9127003,9618523,1997,1987,418,1546,2388,500,-583,5414,32,31,862
1306281,9124768,9617412,9127200,9618720,2013,2117,401,1469,2372,34,37,2247,42,37,865
1307282,9124932,9617604,9127397,9618917,2003,2070,416,1296,2455,-563,-660,4101,42,37,865
1308283,9125088,9617816,9127594,9619114,2072,1938,599,1284,2599,-738,-1544,5377,44,46,865
1309284,9125228,9618016,9127791,9619311,2197,2013,793,1088,2684,-355,-456,3378,44,46,865
1310285,9125368,9618236,9127988,9619508,2223,1877,935,875,2731,-397,-98,4412,32,34,864
1311286,9125500,9618472,9128185,9619705,2301,1760,1051,737,2765,-635,-618,4695,32,34,864
1312287,9125640,9618736,9128382,9619902,2277,1556,1084,639,2741,-683,-243,3729,38,49,864
1313288,9125840,9619052,9128579,9620099,1901,1179,1014,445,2592,-399,1045,2946,38,49,864
1314289,9126028,9619320,9128776,9620296,1981,1448,923,454,2453,-569,385,4539,46,45,864
1315290,9126220,9619496,9128973,9620493,1958,2033,877,719,2422,-769,-593,5262,46,45,864
1316291,9126372,9619660,9129170,9620690,2229,2122,809,929,2390,-1142,-555,4369,53,53,870
1317292,9126576,9619812,9129367,9620887,1902,2217,724,933,2413,-1752,-1588,4382,53,53,870
1318293,9126728,9619980,9129564,9621084,2247,2130,727,821,2389,-870,1,5059,49,25,865
1319294,9126880,9620180,9129761,9621281,2268,1929,758,637,2358,-1009,354,4598,49,25,865
1320295,9127044,9620396,9129958,9621478,2207,1821,708,189,2331,-1704,317,2937,43,30,864
1321296,9127188,9620628,9130155,9621675,2356,1706,626,-91,2272,-1545,304,4908,43,30,864
1322297,9127332,9620904,9130352,9621872,2380,1396,603,-135,2140,-1334,-147,5544,41,53,863
1323298,9127472,9621112,9130549,9622069,2431,1816,641,-128,1919,-568,344,5248,41,53,863
1324299,9127616,9621420,9130746,9622266,2429,1143,647,-87,1784,-348,250,4822,41,64,863
1325300,9127736,9621756,9130943,9622463,2614,907,604,-146,1802,-10,-457,3878,41,64,863
1326301,9127868,9622044,9131140,9622660,2568,1167,590,-201,1866,553,-1862,4338,31,59,862
1327302,9128016,9622360,9131337,9622857,2490,940,652,-295,1923,520,-1637,4503,31,59,862
1328303,9128160,9622672,9131534,9623054,2539,914,665,-452,1973,82,-895,3352,23,58,866
1329304,9128316,9622944,9131731,9623251,2483,1131,575,-400,1991,1039,-848,3577,23,58,866
1330305,9128472,9623216,9131928,9623448,2501,1098,415,-35,1884,1530,-766,4583,25,48,867
1331306,9128624,9623452,9132125,9623645,2547,1306,165,368,1724,294,-770,3848,25,48,867
1332307,9128776,9623728,9132322,9623842,2568,1022,-34,742,1508,551,261,5141,33,50,866
1333308,9128932,9623972,9132519,9624039,2561,1201,-110,972,1193,803,703,5450,33,50,866
1334309,9129100,9624248,9132716,9624236,2500,966,-103,931,847,492,841,5064,29,44,864
1335310,9129256,9624496,9132913,9624433,2594,1119,-79,819,534,289,1240,5432,29,44,864
1336311,9129428,9624776,9133110,9624630,2505,882,-84,708,340,-373,978,4758,37,52,864
1337312,9129604,9625068,9133307,9624827,2490,766,-134,580,240,283,916,4509,37,52,864
1338313,9129788,9625352,9133504,9625024,2447,777,-155,644,148,1126,1391,5261,29,48,866
1339321,9129984,9625616,9133734,9625254,2386,887,-199,731,82,1235,1050,4266,29,48,866
1340315,9130156,9625868,9133931,9625451,2548,938,-237,859,7,1489,216,4197,36,61,868
1341316,9130320,9626088,9134128,9625648,2614,1128,-270,911,-87,1558,127,3198,36,61,868
1342317,9130516,9626296,9134325,9625845,2415,1198,-311,883,-184,1652,440,2862,50,52,868
1343318,9130720,9626512,9134522,9626042,2362,1140,-417,914,-305,1523,667,2722,50,52,868
1344319,9130876,9626724,9134719,9626239,2681,1158,-616,1059,-436,1135,338,2458,45,44,865
1345320,9131040,9626932,9134916,9626436,2647,1179,-744,1290,-502,-12,-1255,3782,45,44,865
1346321,9131228,9627112,9135113,9626633,2501,1361,-718,1433,-539,-504,-1465,4510,36,37,866
1347322,9131384,9627320,9135310,9626830,2720,1181,-625,1336,-612,-664,-722,4170,36,37,866
1348323,9131548,9627512,9135507,9627027,2685,1282,-509,1034,-790,-116,-240,4643,46,34,864
1349324,9131720,9627704,9135704,9627224,2647,1285,-401,786,-1111,449,217,5480,46,34,864
1350325,9131904,9627936,9135901,9627421,2578,1019,-402,356,-1460,13,63,3821,38,35,864
1351326,9132076,9628168,9136098,9627618,2665,1004,-498,88,-1701,-315,-517,4882,38,35,864
1352327,9132268,9628408,9136295,9627815,2543,935,-723,307,-1889,472,-336,5000,29,47,864
1353328,9132452,9628624,9136492,9628012,2600,1077,-1091,1074,-2043,558,1856,4923,29,47,864
1354329,9132620,9628812,9136689,9628209,2714,1256,-1456,1987,-2138,449,2194,4618,39,46,865
1355331,9132812,9629008,9136886,9628406,2566,1206,-1582,2442,-2108,150,-1608,4326,32,45,865
1356331,9132984,9629192,9137083,9628603,2703,1287,-1397,2182,-2026,304,-2674,3839,32,45,865
1357332,9133168,9629372,9137280,9628800,2635,1318,-992,1269,-1904,-262,-1561,3474,30,43,864
1358333,9133336,9629560,9137477,9628997,2748,1272,-559,69,-1845,620,-2041,3248,30,43,864
1359334,9133536,9629720,9137674,9629194,2547,1463,-182,-855,-1801,806,-3654,4561,30,34,864
1360335,9133736,9629844,9137871,9629391,2547,1720,76,-1274,-1823,1054,-3375,5148,30,34,864
1361336,9133940,9629960,9138068,9629588,2520,1806,50,-1369,-1827,-237,-1757,3660,35,32,864
1362337,9134140,9630064,9138265,9629785,2544,1922,-173,-979,-1782,-907,-2145,5176,35,32,864
1363338,9134376,9630152,9138462,9629982,2303,2070,-443,-237,-1821,-49,-2652,6670,43,16,862
1364339,9134592,9630268,9138659,9630179,2420,1930,-641,278,-1880,-271,-1860,5472,43,16,862
