"Data file recorded 2014/9/24  14:25:38"
"%  Right Stride Frequency         = 13.0"
"%  Left Stride Frequency         = 13.0"
"%  Phase (Fractional)         = 32768.0"
"%  Experiment.py "
"%  Motor Gains    = [1800, 200, 100, 0, 0, 1800, 200, 100, 0, 0]
"% Columns: "
"% time | Right Leg Pos | Left Leg Pos | Commanded Right Leg Pos | Commanded Left Leg Pos | DCR | DCL | GyroX | GryoY | GryoZ | AX | AY | AZ | RBEMF | LBEMF | VBatt "
11725,55757596,51178204,55746136,51191384,-3800,3800,501,751,-1137,30,-255,4131,6,5,841
12726,55757620,51178152,55746998,51192246,-3800,3800,500,750,-1138,14,-225,4140,7,-4,841
13714,55757564,51178200,55747860,51193108,-3020,3800,500,767,-1136,41,-210,4135,7,-4,841
14715,55757476,51178224,55748722,51193970,-2404,3800,501,770,-1135,16,-235,4106,-13,-2,841
15716,55757300,51178432,55749584,51194832,-1399,3800,505,757,-1141,48,-26,4137,-13,-2,841
16717,55757088,51178724,55750446,51195694,-704,3800,498,767,-1157,159,64,4201,-30,16,800
17718,55756860,51179084,55751308,51196556,-126,3800,486,784,-1176,363,-47,4118,-30,16,800
18719,55756668,51179512,55752170,51197418,111,3800,452,784,-1214,609,6,3960,-35,41,805
19720,55756524,51179972,55753032,51198280,252,3800,394,757,-1278,826,-149,3994,-35,41,805
20721,55756384,51180396,55753894,51199142,666,3800,296,731,-1353,912,-325,4055,-48,80,817
21722,55756292,51180852,55754756,51200004,786,3800,159,858,-1412,665,-788,4561,-48,80,817
22723,55756216,51181264,55755618,51200866,1098,3800,7,1008,-1488,384,-574,4509,-27,81,822
23724,55756136,51181680,55756480,51201728,1537,3800,-143,1225,-1552,449,-1272,4910,-27,81,822
24725,55756160,51182124,55757342,51202590,1255,3800,-270,1495,-1557,347,-1581,4908,-8,97,821
25726,55756164,51182448,55758204,51203452,1757,3800,-364,1723,-1544,13,-1437,4724,-8,97,821
26727,55756232,51182716,55759066,51204314,1706,3800,-428,1853,-1532,-282,-1449,4445,12,74,820
27728,55756308,51182988,55759928,51205176,2002,3800,-447,1807,-1472,-504,-1487,4083,12,74,820
28729,55756376,51183276,55760790,51206038,2401,3800,-425,1686,-1392,-821,-1490,3921,14,64,814
29749,55756488,51183508,55761658,51206906,3800,3800,-369,1498,-1304,-1159,-1508,3703,14,64,814
30743,55756572,51183652,55762520,51207768,3800,3800,-301,1297,-1210,-1406,-1412,3695,24,56,814
31744,55756748,51183848,55763382,51208630,3800,3800,-217,1092,-1121,-1526,-1360,3648,24,56,814
32745,55757004,51184056,55764244,51209492,3800,3800,-121,845,-1031,-1669,-1294,3626,19,47,811
33747,55757248,51184224,55765106,51210354,3800,3800,-33,586,-952,-1871,-1210,3650,19,47,811
34747,55757524,51184360,55765968,51211216,3800,3800,35,228,-896,-1970,-986,3544,47,40,801
35748,55757936,51184468,55766830,51212078,3800,3800,93,-138,-853,-1920,-969,3638,47,40,801
36749,55758300,51184668,55767692,51212940,3800,3800,150,-512,-790,-1982,-1478,3665,69,35,801
37751,55758692,51184868,55768554,51213802,3800,3800,211,-857,-695,-2175,-2114,3837,69,35,801
38752,55759148,51185072,55769416,51214664,3800,3800,309,-1233,-590,-2325,-2205,3768,82,37,801
39752,55759612,51185256,55770278,51215526,3800,3800,450,-1756,-491,-2127,-1891,3451,82,37,801
40754,55760072,51185424,55771140,51216388,3800,3800,579,-2302,-372,-1782,-1691,3718,99,42,802
41755,55760604,51185612,55772002,51217250,3800,3800,704,-2807,-235,-1317,-1134,3731,99,42,802
42755,55761088,51185808,55772864,51218112,3800,3800,813,-3483,-130,-706,-524,3486,93,50,803
43757,55761584,51186056,55773726,51218974,3800,3800,952,-4190,-36,-368,-443,3234,93,50,803
44757,55762100,51186320,55774588,51219836,3800,3800,1115,-5012,47,104,-69,2775,120,56,804
45759,55762704,51186548,55775450,51220698,3800,3800,1296,-5926,106,776,148,2693,120,56,804
46760,55763148,51186784,55776312,51221560,3800,3800,1452,-6761,190,1386,431,3049,112,51,804
47760,55763700,51186996,55777174,51222422,3800,3800,1622,-7592,263,2472,817,2976,112,51,804
48768,55764212,51187232,55778042,51223290,3800,3800,1825,-8339,269,3342,1063,3719,120,57,803
49762,55764708,51187448,55778904,51224152,3800,3800,2010,-8813,193,3925,1192,4684,120,57,803
50763,55765168,51187680,55779766,51225014,3800,3800,2135,-9028,-26,4543,1504,5748,110,49,803
51764,55765656,51187908,55780628,51225876,3800,3800,2146,-8714,-365,4641,1297,7752,110,49,803
52765,55766132,51188076,55781490,51226738,3800,3800,2097,-8128,-765,4527,1656,7819,111,58,803
53766,55766584,51188244,55782352,51227600,3800,3800,2005,-7433,-1243,4539,2150,8322,111,58,803
54767,55767108,51188448,55783214,51228462,3800,3800,1828,-6460,-1781,4046,2381,8984,105,58,803
55768,55767612,51188664,55784076,51229324,3800,3800,1636,-5431,-2293,3796,2400,8788,105,58,803
56769,55768216,51188888,55784938,51230186,3800,3800,1346,-4180,-2849,4196,3405,9418,110,58,804
57770,55768692,51189116,55785800,51231048,3800,3800,1069,-3026,-3373,4765,3972,8988,110,58,804
58771,55769316,51189328,55786662,51231910,3800,3800,845,-1868,-3855,5319,4199,8902,113,58,804
59772,55769872,51189504,55787524,51232772,3800,3800,667,-947,-4317,5359,4307,7953,113,58,804
60773,55770552,51189720,55788386,51233634,3800,3800,588,-464,-4793,5107,3856,6615,131,59,803
61774,55771256,51189940,55789248,51234496,3800,3800,523,-93,-5245,5010,3000,6538,131,59,803
62775,55771840,51190152,55790110,51235358,3800,3800,507,311,-5604,4946,3007,6321,124,42,803
63776,55772436,51190384,55790972,51236220,3800,3800,515,670,-5821,4943,2877,6105,124,42,803
64777,55773148,51190584,55791834,51237082,3800,3800,618,830,-5981,4524,2895,5245,120,48,806
65778,55773832,51190776,55792696,51237944,3800,3800,774,748,-6185,4068,2922,4584,120,48,806
66779,55774476,51190956,55793558,51238806,3800,3800,937,588,-6477,3499,2609,4378,133,47,805
67787,55775272,51191168,55794426,51239674,3800,3800,1051,503,-6721,2819,1554,4729,133,47,805
68781,55776052,51191340,55795288,51240536,3800,3800,1118,715,-6744,2380,481,5090,138,41,806
69782,55776808,51191552,55796150,51241398,3800,3800,1218,873,-6646,2233,387,4304,138,41,806
70783,55777708,51191712,55797012,51242260,3800,3800,1415,871,-6548,2318,599,3594,152,39,805
71784,55778616,51191844,55797874,51243122,3800,3800,1637,742,-6489,2304,612,3140,152,39,805
72785,55779496,51191988,55798736,51243984,3800,3800,1847,650,-6466,2175,350,3169,157,41,805
73787,55780476,51192144,55799598,51244846,3800,3800,1958,1066,-6445,1872,-71,4522,157,41,805
74788,55781480,51192312,55800460,51245708,3800,3800,1911,2038,-6333,1335,-722,5823,167,36,807
75788,55782396,51192488,55801322,51246570,3800,3800,1713,3614,-6127,715,-1153,7216,167,36,807
76789,55783320,51192632,55802184,51247432,3800,3800,1475,5261,-5856,160,-1290,6867,167,36,808
77790,55784368,51192744,55803046,51248294,3800,3800,1340,6581,-5582,-385,-1030,5655,167,36,808
78791,55785236,51192868,55803908,51249156,3800,3800,1328,7762,-5317,-1425,-817,5153,189,39,807
79792,55786168,51192964,55804770,51250018,3800,3800,1356,8786,-5027,-2556,-1008,4969,189,39,807
80794,55787028,51193080,55805632,51250880,3800,3800,1322,9914,-4661,-2662,-1332,5380,176,42,808
81794,55787804,51193200,55806494,51251742,3800,3800,1196,11207,-4159,-2497,-1476,5378,176,42,808
82796,55788588,51193300,55807356,51252604,3800,3800,1149,12319,-3551,-2605,-1387,4101,181,37,806
83796,55789412,51193364,55808218,51253466,3800,3800,1221,12737,-2926,-3003,-1118,2095,181,37,806
84797,55790180,51193428,55809080,51254328,3800,3800,1361,12455,-2311,-3072,-967,714,178,28,805
85798,55790876,51193504,55809942,51255190,3800,3800,1471,12109,-1752,-2922,-872,524,178,28,805
86809,55791588,51193640,55810810,51256058,3800,3800,1544,11599,-1196,-3221,-1066,-278,152,18,806
87800,55792344,51193768,55811672,51256920,3800,3800,1615,11012,-554,-3301,-1572,-273,152,18,806
88802,55792972,51193888,55812534,51257782,3800,3800,1664,10397,7,-3416,-1328,-564,152,29,805
89803,55793516,51194012,55813396,51258644,3800,3800,1652,9751,311,-3172,-831,-808,152,29,805
90804,55794116,51194176,55814258,51259506,3800,3800,1566,9016,356,-3017,-503,-1154,153,31,805
91805,55794584,51194372,55815120,51260368,3800,3800,1381,8043,346,-2897,-1081,-1244,153,31,805
92805,55795012,51194600,55815982,51261230,3800,3800,1174,7081,310,-2447,-1263,-1246,135,45,804
93806,55795464,51194760,55816844,51262092,3800,3800,984,6337,260,-2170,-2082,-550,135,45,804
94807,55795784,51194936,55817706,51262954,3800,3800,785,5732,258,-1899,-2550,-37,98,38,803
95808,55796076,51195084,55818568,51263816,3800,3800,681,5172,230,-1480,-2348,276,98,38,803
96809,55796344,51195228,55819430,51264678,3800,3800,621,4631,150,-790,-2269,592,82,48,803
97810,55796548,51195400,55820292,51265540,3800,3800,593,4167,36,-139,-2566,768,82,48,803
98811,55796720,51195576,55821154,51266402,3800,3800,650,3501,-110,103,-2032,410,68,35,801
99812,55796892,51195708,55822016,51267264,3800,3800,803,2618,-323,751,-1044,67,68,35,801
100813,55797084,51195816,55822878,51268126,3800,3800,936,1565,-672,1494,-175,-384,41,37,799
101814,55797188,51195876,55823740,51268988,3800,3800,982,559,-1156,1542,87,45,41,37,799
102815,55797328,51195944,55824602,51269850,3800,3800,923,-303,-1727,1277,301,606,40,27,799
103816,55797508,51196040,55825464,51270712,3800,3800,820,-1178,-2317,1305,787,727,40,27,799
104817,55797616,51196176,55826326,51271574,3800,3800,705,-1972,-2873,1704,1222,1063,34,38,797
105825,55797740,51196312,55827194,51272442,3800,3800,583,-2639,-3397,1789,1452,1480,34,38,797
106819,55797948,51196412,55828056,51273304,3800,3800,445,-3197,-3883,1525,1184,2033,28,32,797
107820,55798080,51196480,55828918,51274166,3800,3800,261,-3645,-4294,1513,1273,2395,28,32,797
108821,55798216,51196536,55829780,51275028,3800,3800,-15,-3963,-4607,1819,1570,2869,24,33,798
109822,55798396,51196636,55830642,51275890,3800,3800,-327,-4110,-4816,1885,1668,3314,24,33,798
110823,55798644,51196772,55831504,51276752,3800,3800,-559,-4294,-4884,1594,1659,3392,27,36,799
111824,55798836,51196896,55832366,51277614,3800,3800,-708,-4483,-4840,1396,2211,3756,27,36,799
112825,55799032,51197028,55833228,51278476,3800,3800,-843,-4541,-4722,1421,2800,4172,38,37,798
113827,55799348,51197120,55834090,51279338,3800,3800,-951,-4522,-4526,1134,2918,4185,38,37,798
114827,55799608,51197216,55834952,51280200,3800,3800,-1024,-4537,-4267,641,3079,4255,49,24,799
115828,55799852,51197328,55835814,51281062,3800,3800,-1068,-4603,-3979,197,3550,4345,49,24,799
116829,55800200,51197472,55836676,51281924,3800,3800,-1130,-4640,-3717,35,4147,4546,53,27,798
117830,55800496,51197616,55837538,51282786,3800,3800,-1205,-4562,-3456,-77,4585,4989,53,27,798
118831,55800772,51197784,55838400,51283648,3800,3800,-1274,-4292,-3119,-412,5255,6101,70,25,798
119832,55801068,51197904,55839262,51284510,3800,3800,-1181,-3733,-2745,-821,5905,8143,70,25,798
120833,55801452,51198036,55840124,51285372,3800,3800,159,-2146,-2330,-1733,6758,23963,72,26,800
121834,55801724,51198164,55840986,51286234,3800,3800,2777,490,-1974,-1831,7278,32767,72,26,800
122835,55802028,51198328,55841848,51287096,3800,3800,4076,2090,-1673,-662,5820,14842,54,32,799
123836,55802448,51198480,55842710,51287958,3800,3800,3600,2650,-1269,-477,5559,7376,54,32,799
124844,55802772,51198660,55843578,51288826,3800,3800,2610,2703,-948,-436,5731,5478,69,30,801
125838,55803080,51198816,55844440,51289688,3800,3800,1795,2330,-872,-493,4614,3706,69,30,801
126839,55803476,51198976,55845302,51290550,3800,3800,1256,1725,-892,-1231,3834,3218,84,39,800
127840,55803840,51199180,55846164,51291412,3800,3800,886,1056,-898,-1051,3250,2603,84,39,800
128841,55804132,51199392,55847026,51292274,3800,3800,584,221,-950,-505,2876,1462,66,44,800
129842,55804500,51199588,55847888,51293136,3800,3800,363,-964,-1026,-775,2708,644,66,44,800
130843,55804904,51199756,55848750,51293998,3800,3800,252,-2372,-1096,-360,1963,82,83,38,801
131844,55805228,51199920,55849612,51294860,3800,3800,166,-3827,-1182,199,1365,-100,83,38,801
132845,55805552,51200132,55850474,51295722,3800,3800,142,-4996,-1237,255,1070,400,61,42,801
133846,55805980,51200348,55851336,51296584,3800,3800,213,-6093,-1308,416,446,353,61,42,801
134847,55806348,51200560,55852198,51297446,3800,3800,320,-7132,-1408,691,33,802,66,47,801
135849,55806696,51200764,55853060,51298308,3800,3800,454,-7889,-1485,986,151,1512,66,47,801
136850,55807116,51200952,55853922,51299170,3800,3800,664,-8533,-1621,1368,340,1214,81,46,800
137851,55807548,51201152,55854784,51300032,3800,3800,939,-9073,-1813,1313,325,1770,81,46,800
138852,55807980,51201348,55855646,51300894,3800,3800,1276,-9353,-1964,1366,478,2578,69,57,800
139853,55808480,51201568,55856508,51301756,3800,3800,1641,-9322,-2112,1913,774,3153,69,57,800
140854,55809012,51201792,55857370,51302618,3800,3800,2013,-8939,-2249,2103,1219,4068,88,40,802
141855,55809512,51201984,55858232,51303480,3800,3800,2274,-8153,-2336,2071,1211,5654,88,40,802
142856,55810048,51202200,55859094,51304342,3800,3800,2315,-6841,-2357,2350,1067,7218,90,58,803
143864,55810656,51202404,55859962,51305210,3800,3800,2311,-5315,-2419,2318,1933,7221,90,58,803
144858,55811260,51202616,55860824,51306072,3800,3800,2469,-3790,-2529,2042,2114,6752,104,42,803
145859,55811828,51202820,55861686,51306934,3800,3800,2718,-2546,-2689,1689,1985,6242,104,42,803
146860,55812480,51203064,55862548,51307796,3800,3800,3035,-1325,-2805,1614,1848,6403,113,59,802
147861,55813140,51203332,55863410,51308658,3800,3800,3318,-162,-2864,1785,1688,5833,113,59,802
148862,55813776,51203604,55864272,51309520,3800,3800,3618,883,-2883,1898,1546,5181,122,52,802
149863,55814500,51203852,55865134,51310382,3800,3800,3865,1767,-2826,2090,1483,4838,122,52,802
150864,55815196,51204120,55865996,51311244,3800,3800,4112,2511,-2708,2198,1404,4216,118,65,803
151865,55815888,51204372,55866858,51312106,3800,3800,4331,3138,-2559,1827,937,3583,118,65,803
152866,55816692,51204696,55867720,51312968,3800,3800,4580,3515,-2405,1041,447,2612,139,66,805
153867,55817412,51205008,55868582,51313830,3800,3800,4870,3565,-2220,703,63,1812,139,66,805
154868,55818192,51205292,55869444,51314692,3800,3800,5104,3523,-1938,547,-244,1657,120,65,805
155869,55819016,51205588,55870306,51315554,3800,3800,5249,3541,-1555,90,-771,1598,120,65,805
156870,55819772,51206008,55871168,51316416,3800,3800,5340,3584,-1123,-588,-1282,1426,145,76,807
157871,55820520,51206388,55872030,51317278,3800,3800,5372,3627,-655,-1549,-1701,1367,145,76,807
158872,55821272,51206760,55872892,51318140,3800,3800,5356,3655,-170,-2200,-1720,1345,154,82,808
159873,55822108,51207164,55873754,51319002,3800,3800,5261,3688,380,-2488,-2082,1452,154,82,808
160874,55822812,51207640,55874616,51319864,3800,3800,5092,3748,1000,-2944,-2113,1589,175,72,807
161875,55823536,51208096,55875478,51320726,3800,3800,4875,3787,1628,-3444,-1929,1414,175,72,807
162885,55824332,51208540,55876346,51321594,3800,3800,4628,3811,2232,-3477,-1879,1373,167,87,809
163877,55825032,51209080,55877208,51322456,3800,3800,4386,3681,2819,-3194,-1419,808,167,87,809
164878,55825740,51209584,55878070,51323318,3800,3800,4104,3498,3412,-2734,-1260,829,162,81,809
165879,55826484,51210048,55878932,51324180,3800,3800,3724,3294,4004,-2271,-1057,827,162,81,809
166880,55827208,51210628,55879794,51325042,3800,3800,3288,3059,4615,-1609,-750,755,149,96,809
167881,55827876,51211228,55880656,51325904,3800,3800,2780,2824,5158,-827,243,850,149,96,809
168882,55828600,51211832,55881518,51326766,3800,3800,1805,3204,5652,178,776,3256,161,104,809
169883,55829308,51212420,55882380,51327628,3800,3800,599,3799,6084,253,851,2803,161,104,809
170884,55829976,51213024,55883242,51328490,3800,3800,-211,3656,6351,89,1299,-154,144,117,807
171885,55830704,51213680,55884104,51329352,3800,3800,-655,2789,6481,499,1768,-725,144,117,807
172886,55831380,51214292,55884966,51330214,3800,3800,-1073,2177,6554,1026,1884,441,144,109,808
173887,55831996,51215068,55885828,51331076,3800,3800,-1684,1974,6479,890,2565,1755,144,109,808
174888,55832720,51215764,55886690,51331938,3800,3800,-2445,2496,5994,772,4335,3600,128,138,810
175889,55833468,51216552,55887552,51332800,3800,3800,-3593,3875,5230,877,4552,6788,128,138,810
176890,55834192,51217208,55888414,51333662,3800,3800,-4532,5133,4491,1074,3616,4551,138,125,810
177891,55834988,51217980,55889276,51334524,3800,3800,-5178,5536,3754,1465,3715,3050,138,125,810
178892,55835820,51218728,55890138,51335386,3800,3800,-5676,5609,2938,2126,3927,2690,140,132,811
179893,55836628,51219452,55891000,51336248,3800,3800,-6244,5649,2143,2644,2807,2726,140,132,811
180894,55837496,51220048,55891862,51337110,3800,3800,-6797,5839,1341,2539,2424,2829,152,150,812
181901,55838440,51220728,55892730,51337978,3800,3800,-7355,6177,565,2128,1576,3194,152,150,812
182896,55839308,51221228,55893592,51338840,3800,3800,-8020,6912,-111,2022,-424,4409,159,135,810
183896,55840244,51221780,55894454,51339702,3800,3800,-8545,7417,-825,1658,-1178,2716,159,135,810
184897,55841260,51222260,55895316,51340564,3800,3800,-8789,7580,-1556,1543,-2276,2126,152,125,812
185899,55842248,51222616,55896178,51341426,3800,3800,-8764,7420,-2203,1707,-3140,1169,152,125,812
186900,55843280,51222976,55897040,51342288,3800,3800,-8554,6947,-2823,1801,-3152,210,173,94,811
187901,55844352,51223256,55897902,51343150,3800,3800,-8208,6577,-3493,1646,-2633,305,173,94,811
188902,55845352,51223540,55898764,51344012,3800,3800,-7770,6090,-4293,1510,-1708,-455,166,90,810
189903,55846424,51223796,55899626,51344874,3800,3800,-7289,5901,-5161,1175,-1713,780,166,90,810
190904,55847376,51224008,55900488,51345736,3800,3800,-6775,6270,-5965,93,-2203,2259,195,60,809
191905,55848432,51224228,55901350,51346598,3800,3800,-6313,6933,-6680,-981,-3665,3633,195,60,809
192905,55849380,51224432,55902212,51347460,3800,3800,-5948,7932,-7327,-1487,-4471,4851,178,58,809
193907,55850336,51224704,55903074,51348322,3800,3800,-5715,8994,-7902,-1751,-4205,4971,178,58,809
194908,55851292,51225012,55903936,51349184,3800,3800,-5549,10009,-8355,-2051,-4810,5015,178,60,808
195909,55852240,51225488,55904798,51350046,3800,3800,-5424,10885,-8642,-3176,-4721,4972,178,60,808
196910,55853028,51226020,55905660,51350908,3800,3800,-5267,11318,-8849,-4256,-3243,4074,168,72,809
197911,55853944,51226524,55906522,51351770,3800,3800,-5123,11434,-8992,-4311,-2470,3539,168,72,809
198912,55854816,51227068,55907384,51352632,3800,3800,-4952,11232,-9020,-4908,-1786,2795,183,105,811
199913,55855684,51227540,55908246,51353494,3800,3800,-4699,10674,-8949,-5777,-1942,2189,183,105,811
200920,55856588,51228076,55909114,51354362,3800,3800,-4382,9696,-8807,-6722,-2238,1354,200,118,811
201915,55857432,51228584,55909976,51355224,3800,3800,-1753,5878,-7989,-14739,-6620,13182,200,118,811
202916,55858292,51229136,55910838,51356086,3800,3800,4073,567,-6198,-18748,-9995,32767,174,110,811
203917,55859100,51229776,55911700,51356948,3800,3800,6456,-425,-5036,-6886,-3961,8011,174,110,811
204918,55859836,51230404,55912562,51357810,3800,3800,5843,429,-4480,-5760,-3722,4698,202,112,810
205919,55860476,51231072,55913424,51358672,3800,3800,4622,1013,-4234,-4513,-3473,3730,202,112,810
206920,55861056,51231812,55914286,51359534,3800,3800,4007,258,-3984,-3596,-1410,2078,172,127,811
207921,55861596,51232432,55915148,51360396,3800,3800,3881,-1200,-3764,-2748,-742,928,172,127,811
208922,55862040,51233048,55916010,51361258,3800,3800,3656,-2654,-3492,-1851,-1964,950,149,121,810
209923,55862404,51233664,55916872,51362120,3800,3800,3339,-4027,-2952,-1462,-3158,1084,149,121,810
210924,55862768,51234376,55917734,51362982,3800,3800,2773,-5038,-2346,-353,-3412,2237,100,123,808
211925,55863044,51235100,55918596,51363844,3800,3800,1538,-4843,-1814,1356,-3044,6849,100,123,808
212926,55863272,51235888,55919458,51364706,3800,3800,-846,-2945,-1104,3404,-3793,11194,81,133,806
213927,55863520,51236792,55920320,51365568,3800,3800,-3569,-730,-624,4241,-2058,10202,81,133,806
214928,55863724,51237616,55921182,51366430,3800,3800,-2969,-1431,-1239,8490,238,18744,74,139,806
215929,55863884,51238440,55922044,51367292,3800,3800,451,-3143,-2612,14056,1952,32767,74,139,806
216930,55864088,51239296,55922906,51368154,3800,3800,1216,-3518,-3106,7516,1588,8306,59,146,805
217931,55864284,51240228,55923768,51369016,3800,3800,170,-4328,-2915,6203,1377,1271,59,146,805
218932,55864484,51241080,55924630,51369878,3800,3800,-751,-5691,-2431,6631,-645,328,54,186,806
219940,55864704,51242048,55925498,51370746,3800,3800,-902,-7043,-1798,7019,-1868,1214,54,186,806
220934,55864916,51243008,55926360,51371608,3800,3800,-702,-7974,-1312,7047,-1311,1854,46,176,806
221935,55865212,51244088,55927222,51372470,3800,3800,-421,-8524,-1168,6467,-193,3360,46,176,806
222936,55865548,51245108,55928084,51373332,3800,3800,685,-7257,-1314,7335,438,18575,62,209,808
223937,55865976,51246252,55928946,51374194,3800,3800,2011,-5253,-1622,5943,702,14301,62,209,808
224938,55866468,51247276,55929808,51375056,3800,3800,2585,-4337,-1965,3712,1469,5060,56,206,810
225939,55866928,51248256,55930670,51375918,3800,3800,2679,-4047,-2313,2963,1311,5550,56,206,810
226940,55867532,51249272,55931532,51376780,3800,3800,2746,-3621,-2671,2427,285,6211,89,214,809
227941,55868060,51250260,55932394,51377642,3800,3800,2856,-2365,-3012,1103,-55,7904,89,214,809
228942,55868648,51251276,55933256,51378504,3800,3800,2960,-527,-3337,-345,-342,8652,110,220,811
229942,55869404,51252208,55934118,51379366,3800,3800,3030,1353,-3699,-1243,-482,8467,110,220,811
230944,55870084,51253136,55934980,51380228,3800,3800,3225,2976,-4106,-2045,-1290,7510,111,212,813
231944,55870836,51253940,55935842,51381090,3800,3800,3667,4202,-4553,-2936,-2805,6027,111,212,813
232946,55871644,51254760,55936704,51381952,3800,3800,4211,5068,-5048,-3769,-2880,4779,137,202,813
233947,55872472,51255484,55937566,51382814,3800,3800,4765,5774,-5488,-4365,-2897,4089,137,202,813
234948,55873300,51256200,55938428,51383676,3800,3800,5242,6616,-5751,-4463,-2757,4436,162,173,813
235949,55874260,51256820,55939290,51384538,3800,3800,5527,7655,-5693,-4642,-4574,4565,162,173,813
236950,55875148,51257376,55940152,51385400,3800,3800,5769,8463,-5514,-5427,-4410,3695,155,140,811
237951,55876104,51257896,55941014,51386262,3800,3800,6041,8764,-5640,-6253,-2983,2196,155,140,811
238961,55877072,51258400,55941882,51387130,3800,3800,6286,8519,-6190,-6511,-2534,641,166,134,811
239953,55878088,51258848,55942744,51387992,3800,3800,6567,7869,-6823,-6136,-3006,-619,166,134,811
240954,55879124,51259256,55943606,51388854,3800,3800,6873,6785,-7326,-5752,-2505,-1816,169,111,811
241955,55880148,51259588,55944468,51389716,3800,3800,7177,5478,-7618,-5523,-2009,-2354,169,111,811
242956,55881188,51259900,55945330,51390578,3800,3800,7372,4120,-7602,-4982,-2391,-1928,209,95,811
243957,55882224,51260172,55946192,51391440,3800,3800,7487,3078,-7296,-4575,-3002,-1032,209,95,811
244958,55883268,51260476,55947054,51392302,3800,3800,7482,2231,-6640,-4770,-4295,54,205,73,810
245959,55884352,51260768,55947916,51393164,3800,3800,7467,1650,-5647,-4916,-5817,824,205,73,810
246960,55885296,51261016,55948778,51394026,3800,3800,7355,799,-4643,-5545,-5064,25,214,78,809
247960,55886204,51261260,55949640,51394888,3800,3800,7352,-398,-3852,-5942,-3519,-1089,214,78,809
248961,55887200,51261440,55950502,51395750,3800,3800,7372,-1989,-3095,-5791,-3205,-1541,199,59,808
249963,55888048,51261636,55951364,51396612,3800,3800,7449,-4064,-2307,-5479,-2660,-2855,199,59,808
250964,55888832,51261876,55952226,51397474,3800,3800,7419,-6323,-1567,-5240,-1127,-2903,214,51,809
251965,55889664,51262052,55953088,51398336,3800,3800,7247,-8349,-863,-5151,257,-2113,214,51,809
252966,55890392,51262200,55953950,51399198,3800,3800,6948,-10102,-112,-4714,358,-1406,193,59,807
253967,55891096,51262320,55954812,51400060,3800,3800,6615,-11473,708,-4125,740,-453,193,59,807
254968,55891764,51262432,55955674,51400922,3800,3800,5852,-12011,1605,-1921,2171,2841,169,45,807
255969,55892520,51262548,55956536,51401784,3800,3800,3717,-10697,2704,313,1142,9008,169,45,807
256970,55893140,51262636,55957398,51402646,3800,3800,1891,-10310,3593,147,1744,1946,146,27,805
257978,55893800,51262704,55958266,51403514,3800,3800,556,-10983,4363,1547,2014,2351,146,27,805
258972,55894464,51262776,55959128,51404376,3800,3800,-412,-11790,5041,2428,2710,2215,134,23,803
259973,55895084,51262836,55959990,51405238,3800,3800,-1010,-12989,5431,3588,5074,256,134,23,803
260974,55895612,51262880,55960852,51406100,3800,3800,-1311,-14172,5754,5383,5285,1006,141,22,802
261975,55896260,51262936,55961714,51406962,3800,3800,-1564,-15008,6283,6899,4139,2439,141,22,802
262976,55896740,51262972,55962576,51407824,3800,3800,-2528,-14200,6895,8183,4906,8937,123,17,803
263977,55897232,51262988,55963438,51408686,3800,3800,-3724,-12456,7235,7860,5954,8862,123,17,803
264978,55897820,51263020,55964300,51409548,3800,3800,-4667,-11029,7111,7653,7244,8681,119,16,802
265979,55898276,51263080,55965162,51410410,3800,3800,-5224,-9508,6654,7440,7926,9289,119,16,802
266980,55898752,51263172,55966024,51411272,3800,3800,-5641,-8661,6149,7443,7358,6953,112,15,801
267981,55899264,51263264,55966886,51412134,3800,3800,-5805,-8117,5742,7099,6142,5714,112,15,801
268982,55899856,51263364,55967748,51412996,3800,3800,-5626,-8182,5472,5836,3989,3354,97,24,801
269983,55900356,51263444,55968610,51413858,3800,3800,-5019,-8640,5155,5188,2639,1606,97,24,801
270983,55900792,51263564,55969472,51414720,3800,3800,-4457,-8972,4802,5058,1677,2590,97,22,800
271985,55901396,51263712,55970334,51415582,3800,3800,-4066,-8450,4433,4527,983,4452,97,22,800
272986,55901896,51263872,55971196,51416444,3800,3800,-3676,-7455,4035,3963,-90,4888,115,36,802
273987,55902400,51264032,55972058,51417306,3800,3800,-3049,-6266,3539,2929,-314,5022,115,36,802
274988,55902972,51264244,55972920,51418168,3800,3800,-2234,-5001,2959,2128,-967,5416,108,38,801
275989,55903484,51264384,55973782,51419030,3800,3800,-1339,-3405,2318,1740,-2120,6173,108,38,801
276997,55903984,51264560,55974650,51419898,3800,3800,-365,-1816,1472,859,-1435,5264,102,42,802
277991,55904552,51264784,55975512,51420760,3800,3800,547,-216,-50,-366,1165,5602,102,42,802
278992,55905124,51264988,55976374,51421622,3800,3800,1254,1660,-2041,-912,992,6365,111,53,802
279993,55905616,51265184,55977236,51422484,3800,3800,1795,3599,-3801,-600,-870,6164,111,53,802
280994,55906204,51265356,55978098,51423346,3800,3800,2348,5208,-5110,148,-1566,4823,113,52,800
281995,55906868,51265516,55978960,51424208,3800,3800,2916,6280,-5976,645,-3275,3484,113,52,800
282996,55907456,51265696,55979822,51425070,3800,3800,3564,6525,-6931,238,-1740,539,112,53,802
283997,55908000,51265888,55980684,51425932,3800,3800,4345,5921,-8038,382,-1401,-1993,112,53,802
284998,55908644,51266060,55981546,51426794,3800,3800,5033,5100,-8896,1290,-2532,-1711,115,55,803
285999,55909276,51266272,55982408,51427656,3800,3800,5423,4926,-9105,2877,-3327,629,115,55,803
287000,55909880,51266460,55983270,51428518,3800,3800,5451,5668,-8659,4245,-4213,3311,115,36,803
288001,55910552,51266660,55984132,51429380,3800,3800,5336,6749,-7950,4604,-4461,3700,115,36,803
289002,55911236,51266836,55984994,51430242,3800,3800,5308,7270,-7441,3902,-3804,1754,125,49,803
290003,55911872,51267048,55985856,51431104,3800,3800,5402,6727,-7387,3740,-1198,-745,125,49,803
291004,55912524,51267296,55986718,51431966,3800,3800,5497,5534,-7691,3872,169,-1907,126,55,803
292005,55913256,51267556,55987580,51432828,3800,3800,5579,4096,-7877,4036,-64,-2343,126,55,803
293006,55913936,51267796,55988442,51433690,3800,3800,5662,2694,-7758,4293,-242,-2289,123,53,802
294007,55914588,51268016,55989304,51434552,3800,3800,5539,1478,-7442,4532,345,-1442,123,53,802
295008,55915284,51268244,55990166,51435414,3800,3800,5187,563,-6947,4538,-367,-557,139,50,803
296015,55915988,51268452,55991034,51436282,3800,3800,4482,194,-6005,5026,-2028,1229,139,50,803
297010,55916644,51268716,55991896,51437144,3800,3800,3208,774,-4653,5824,-907,4369,127,55,804
298011,55917440,51269004,55992758,51438006,3800,3800,1934,1518,-3456,4598,927,3463,127,55,804
299011,55918064,51269260,55993620,51438868,3800,3800,1037,1619,-2734,3334,2559,1543,135,60,805
300013,55918660,51269488,55994482,51439730,3800,3800,406,1229,-2326,2819,3714,1008,135,60,805
301014,55919340,51269688,55995344,51440592,3800,3800,-217,961,-2058,2655,5328,1625,142,50,805
302015,55919980,51269912,55996206,51441454,3800,3800,-897,1159,-1784,2621,6455,2564,142,50,805
303016,55920620,51270192,55997068,51442316,3800,3800,-1480,1484,-1387,2191,6296,2459,147,59,803
304017,55921280,51270420,55997930,51443178,3800,3800,-1863,1815,-937,1755,6151,2365,147,59,803
305018,55921912,51270636,55998792,51444040,3800,3800,-2155,2201,-503,1645,6635,2685,143,54,803
306019,55922540,51270864,55999654,51444902,3800,3800,-2398,2594,-97,1424,6327,2881,143,54,803
307020,55923172,51271068,56000516,51445764,3800,3800,-2654,3442,481,1347,4923,4809,132,57,805
308021,55923880,51271264,56001378,51446626,3800,3800,-2954,4580,1170,1069,4526,5102,132,57,805
309022,55924500,51271524,56002240,51447488,3800,3800,-3183,5499,1703,781,4975,3921,144,43,804
310023,55925116,51271724,56003102,51448350,3800,3800,-3224,6019,1986,449,5496,2893,144,43,804
311024,55925820,51271932,56003964,51449212,3800,3800,-3173,6374,2130,477,5622,2853,139,49,804
312025,55926432,51272148,56004826,51450074,3800,3800,-3103,6850,2308,313,4759,3221,139,49,804
313026,55926996,51272384,56005688,51450936,3800,3800,-3025,7596,2612,60,3785,4025,132,43,802
314027,55927592,51272604,56006550,51451798,3800,3800,-2912,8466,2976,40,3346,3608,132,43,802
315037,55928132,51272916,56007418,51452666,3800,3800,-2716,9121,3304,-14,2805,2589,136,44,802
316028,55928612,51273204,56008280,51453528,3800,3800,-2434,9505,3553,-91,2251,1854,136,44,802
317030,55929108,51273512,56009142,51454390,3800,3800,-2139,9639,3699,10,1848,982,122,53,803
318031,55929516,51273836,56010004,51455252,3800,3800,-1867,9556,3734,-113,1281,433,122,53,803
319032,55929876,51274184,56010866,51456114,3800,3800,-1643,9603,3756,-142,16,1146,111,54,801
320033,55930200,51274612,56011728,51456976,3800,3800,-1494,9826,3744,-138,-1214,1381,111,54,801
321034,55930592,51275064,56012590,51457838,3800,3800,-1378,10033,3459,-451,-1383,1051,89,71,803
322035,55930884,51275444,56013452,51458700,3800,3800,-1199,9880,2795,-605,-1193,-186,89,71,803
323036,55931144,51275928,56014314,51459562,3800,3800,-858,9345,1866,-456,-1469,-1175,68,82,802
324036,55931464,51276428,56015176,51460424,3800,3800,-502,8753,884,-388,-2106,-666,68,82,802
325038,55931732,51276936,56016038,51461286,3800,3800,-292,8469,-66,-178,-2721,375,67,87,799
326039,55931984,51277556,56016900,51462148,3800,3800,-298,8337,-1097,-83,-2660,607,67,87,799
327039,55932300,51278096,56017762,51463010,3800,3800,-418,8122,-2277,-13,-2452,372,64,96,801
328040,55932600,51278612,56018624,51463872,3800,3800,-503,7558,-3594,291,-2154,-753,64,96,801
329042,55932872,51279192,56019486,51464734,3800,3800,-462,6544,-4942,541,-2422,-1809,66,105,803
330043,55933232,51279692,56020348,51465596,3800,3800,-422,5466,-6144,738,-2624,-1021,66,105,803
331044,55933596,51280328,56021210,51466458,3800,3800,-515,4711,-7068,1042,-2511,172,72,107,801
332044,55933976,51281020,56022072,51467320,3800,3800,-617,3939,-7833,1094,-1511,-451,72,107,801
333046,55934340,51281704,56022934,51468182,3800,3800,-646,2989,-8463,1085,-1569,-559,67,103,804
334054,55934768,51282356,56023802,51469050,3800,3800,-682,2071,-8958,1189,-1883,233,67,103,804
335048,55935184,51283000,56024664,51469912,3800,3800,-798,1444,-9271,1159,-2214,1344,86,122,804
336049,55935608,51283664,56025526,51470774,3800,3800,-905,1116,-9338,1242,-2272,1968,86,122,804
337050,55936112,51284364,56026388,51471636,3800,3800,-973,813,-9216,1236,-2447,2083,97,120,805
338051,55936572,51285116,56027250,51472498,3800,3800,-995,545,-8983,1069,-2247,2771,97,120,805
339052,55937028,51285728,56028112,51473360,3800,3800,-984,423,-8589,1111,-2289,3427,100,137,807
340053,55937548,51286380,56028974,51474222,3800,3800,-1013,502,-8047,1004,-2117,4205,100,137,807
341054,55938092,51286972,56029836,51475084,3800,3800,-1078,747,-7461,460,-1287,4771,99,117,807
342055,55938592,51287524,56030698,51475946,3800,3800,-1150,1011,-6911,-267,-129,4750,99,117,807
343056,55939196,51288116,56031560,51476808,3800,3800,-1293,1327,-6441,-1233,642,5416,109,121,807
344056,55939796,51288692,56032422,51477670,3800,3800,-1428,1642,-6049,-2304,1343,5604,109,121,807
345058,55940392,51289236,56033284,51478532,3800,3800,-1611,2029,-5809,-3052,2152,6302,97,122,805
346059,55941032,51289764,56034146,51479394,3800,3800,-653,3638,-5569,-3889,2668,20658,97,122,805
347060,55941696,51290372,56035008,51480256,3800,3800,3025,8346,-5142,-5673,3810,32767,120,120,806
348061,55942368,51290856,56035870,51481118,3800,3800,6269,11262,-4750,-8287,5304,30008,120,120,806
349062,55943040,51291472,56036732,51481980,3800,3800,6029,9361,-4612,-10146,6165,9171,121,116,806
350063,55943812,51292040,56037594,51482842,3800,3800,3683,4931,-4722,-9868,5947,5031,121,116,806
351064,55944516,51292596,56038456,51483704,3800,3800,1611,-89,-4983,-8880,4590,1050,112,123,807
352065,55945240,51293184,56039318,51484566,3800,3800,740,-4168,-5102,-7042,3138,113,112,123,807
353073,55946076,51293724,56040186,51485434,3800,3800,579,-6868,-5049,-4651,2910,793,133,113,809
354067,55946812,51294392,56041048,51486296,3800,3800,401,-8116,-4973,-2405,2948,2740,133,113,809
355068,55947612,51294932,56041910,51487158,3800,3800,108,-8040,-5006,-1242,2629,4621,141,112,808
356069,55948460,51295556,56042772,51488020,3800,3800,-285,-7503,-5279,-1100,2533,4605,141,112,808
357070,55949264,51296132,56043634,51488882,3800,3800,-480,-7976,-5710,-1531,2371,2576,151,116,810
358071,55950080,51296728,56044496,51489744,3800,3800,-441,-8736,-6062,-2054,1809,3528,151,116,810
359072,55950904,51297332,56045358,51490606,3800,3800,-544,-9156,-5855,-2908,-1330,4293,146,119,809
360072,55951684,51297992,56046220,51491468,3800,3800,-1041,-9152,-5037,-3524,-3466,5990,146,119,809
361073,55952436,51298668,56047082,51492330,3800,3800,-1759,-8597,-4182,-3536,-2041,7759,162,119,810
362075,55953160,51299356,56047944,51493192,3800,3800,-2295,-8271,-3602,-2727,-574,7300,162,119,810
363075,55953876,51300148,56048806,51494054,3800,3800,-2566,-8408,-3082,-1173,-690,7670,164,129,811
364076,55954468,51300760,56049668,51494916,3800,3800,-2808,-8854,-2161,227,-2829,7718,164,129,811
365077,55955028,51301456,56050530,51495778,3800,3800,-3074,-9408,-946,1568,-3539,7867,147,151,811
366079,55955552,51302204,56051392,51496640,3800,3800,-3462,-9751,47,2763,-2590,8399,147,151,811
367080,55955948,51303024,56052254,51497502,3800,3800,-3820,-10198,857,3804,-2900,7221,138,147,810
368081,55956300,51303824,56053116,51498364,3800,3800,-4088,-10857,1727,5166,-2893,5497,138,147,810
369082,55956584,51304592,56053978,51499226,3800,3800,-4372,-11606,2489,6388,-1993,5757,109,140,808
370083,55956848,51305440,56054840,51500088,3800,3800,-4686,-12058,3013,6559,-1607,5353,109,140,808
371084,55957052,51306228,56055702,51500950,3800,3800,-4802,-12735,3285,6499,-958,3125,88,172,806
372091,55957220,51307152,56056570,51501818,3800,3800,-4676,-13650,3359,7343,-293,2344,88,172,806
373086,55957352,51308136,56057432,51502680,3800,3800,-4429,-14348,3434,7515,-673,3202,56,180,807
374087,55957400,51309052,56058294,51503542,3800,3800,-4225,-14614,3492,7411,-1442,4089,56,180,807
375088,55957396,51310004,56059156,51504404,3800,3800,-4023,-14443,3435,6855,-2667,4996,45,190,807
376088,55957392,51311012,56060018,51505266,3800,3800,-3733,-13966,3315,6289,-3443,6181,45,190,807
377089,55957384,51311976,56060880,51506128,3800,3800,-3385,-13071,3311,6757,-4849,7324,19,182,807
378091,55957380,51312792,56061742,51506990,3800,3800,-2994,-11735,3350,6943,-5301,8453,19,182,807
379092,55957376,51313676,56062604,51507852,3800,3800,-2726,-9425,3464,5916,-7389,11857,8,191,806
380093,55957400,51314504,56063466,51508714,3800,3800,-2484,-6551,3492,5053,-7150,12445,8,191,806
381094,55957388,51315352,56064328,51509576,3800,3800,-2096,-3796,3430,4601,-7478,11581,17,167,803
382095,55957388,51316272,56065190,51510438,3800,3800,-1594,-1249,3269,4512,-6865,11315,17,167,803
383095,55957408,51317076,56066052,51511300,3800,3800,-1743,2535,1911,11435,-13834,11442,21,164,805
384097,55957428,51317880,56066914,51512162,3800,3800,-2450,6659,85,11420,-15620,7867,21,164,805
385097,55957488,51318648,56067776,51513024,3800,3800,-2346,9298,-606,5248,-5945,9278,2,180,803
386099,55957616,51319348,56068638,51513886,3800,3800,-1610,10839,-571,4949,-3531,7111,2,180,803
387100,55957864,51320028,56069500,51514748,3800,3800,-674,11532,-446,4826,-3653,6152,21,168,804
388100,55958216,51320728,56070362,51515610,3800,3800,206,12427,-551,4279,-4315,4561,21,168,804
389101,55958584,51321268,56071224,51516472,3800,3800,1059,12769,-618,2724,-4541,2915,23,154,804
390103,55958916,51321736,56072086,51517334,3800,3800,1996,13209,-609,2066,-4284,3231,23,154,804
391113,55959384,51322184,56072954,51518202,3800,3800,2940,13196,-629,2193,-4217,1439,56,131,803
392105,55959900,51322576,56073816,51519064,3800,3800,4019,12739,-668,2532,-3978,271,56,131,803
393105,55960456,51322920,56074678,51519926,3800,3800,4863,12340,-616,2753,-4008,1267,90,104,804
394107,55960908,51323284,56075540,51520788,3800,3800,5587,12132,-438,1496,-5155,1567,90,104,804
395107,55961452,51323564,56076402,51521650,3800,3800,6126,12044,-185,212,-5477,1810,112,80,805
396109,55961900,51323796,56077264,51522512,3800,3800,6832,11547,-78,-685,-4404,-94,112,80,805
397109,55962320,51323968,56078126,51523374,3800,3800,7493,10830,-260,-1200,-3388,-72,100,76,803
398111,55962844,51324128,56078988,51524236,3800,3800,7938,10465,-591,-1725,-2884,778,100,76,803
399112,55963400,51324332,56079850,51525098,3800,3800,8016,10508,-909,-2169,-2888,2158,95,47,803
400113,55963980,51324480,56080712,51525960,3800,3800,7850,11250,-1187,-2794,-2754,3628,95,47,803
401114,55964568,51324612,56081574,51526822,3800,3800,7588,11911,-1549,-3349,-2174,2733,98,51,801
402115,55965260,51324716,56082436,51527684,3800,3800,7394,12207,-1969,-3489,-2205,2149,98,51,801
403116,55965960,51324788,56083298,51528546,3800,3800,7163,12379,-2349,-3686,-1702,2474,126,41,801
404117,55966644,51324896,56084160,51529408,3800,3800,6764,12393,-2785,-3064,-474,1803,126,41,801
405118,55967336,51325044,56085022,51530270,3800,3800,6318,12265,-3243,-2500,-235,1433,133,25,802
406119,55968052,51325196,56085884,51531132,3800,3800,5955,11814,-3650,-2062,-333,681,133,25,802
407120,55968700,51325316,56086746,51531994,3800,3800,5667,11081,-4009,-1648,-109,120,142,25,803
408121,55969416,51325460,56087608,51532856,3800,3800,5422,10012,-4420,-1565,1033,-746,142,25,803
409122,55970152,51325576,56088470,51533718,3800,3800,5178,8679,-4880,-1214,1611,-1201,136,44,803
410130,55970828,51325716,56089338,51534586,3800,3800,4909,7192,-5308,-715,1562,-1246,136,44,803
411124,55971676,51325900,56090200,51535448,3800,3800,4621,5764,-5625,-406,1672,-867,130,45,803
412125,55972652,51326096,56091062,51536310,3800,3800,4393,4325,-5925,-206,2189,-1214,130,45,803
413126,55973468,51326280,56091924,51537172,3800,3800,4301,2637,-6233,-235,1944,-1972,149,36,803
414127,55974404,51326448,56092786,51538034,3800,3800,4282,796,-6492,-187,1517,-2002,149,36,803
415128,55975344,51326596,56093648,51538896,3800,3800,4256,-1016,-6716,124,986,-1889,148,37,804
416129,55976364,51326788,56094510,51539758,3800,3800,4261,-2710,-6881,400,-187,-1747,148,37,804
417130,55977452,51326936,56095372,51540620,3800,3800,4296,-4255,-6995,785,-1289,-1635,165,35,805
418131,55978436,51327088,56096234,51541482,3800,3800,4354,-5796,-7126,1485,-1241,-1833,165,35,805
419132,55979388,51327256,56097096,51542344,3800,3800,4362,-7320,-7281,2238,-374,-1663,184,36,805
420133,55980444,51327440,56097958,51543206,3800,3800,4269,-8585,-7433,2575,799,-896,184,36,805
421134,55981396,51327600,56098820,51544068,3800,3800,4068,-9425,-7521,2156,595,190,183,50,806
422135,55982372,51327752,56099682,51544930,3800,3800,3730,-9792,-7487,1629,74,1419,183,50,806
423136,55983348,51327876,56100544,51545792,3800,3800,3310,-9653,-7342,1392,-149,2471,172,42,807
424137,55984232,51328004,56101406,51546654,3800,3800,2883,-9063,-7095,686,170,3490,172,42,807
425138,55985120,51328108,56102268,51547516,3800,3800,2488,-7928,-6802,-798,269,4775,168,37,805
426139,55985944,51328204,56103130,51548378,3800,3800,2153,-6658,-6468,-2198,617,5090,168,37,805
427140,55986844,51328268,56103992,51549240,3800,3800,1874,-5265,-6077,-2391,1344,5615,177,37,807
428141,55987696,51328328,56104854,51550102,3800,3800,1626,-3637,-5675,-2437,2508,5789,177,37,807
429148,55988508,51328392,56105722,51550970,3800,3800,1416,-1875,-5297,-2997,3560,6119,176,22,806
430143,55989388,51328420,56106584,51551832,3800,3800,1238,-50,-4944,-3434,4590,6725,176,22,806
431144,55990204,51328452,56107446,51552694,3800,3800,1153,1776,-4449,-2691,4887,6537,175,33,806
432145,55991004,51328460,56108308,51553556,3800,3800,982,3449,-4040,-2316,6797,5471,175,33,806
433146,55991840,51328420,56109170,51554418,3800,3800,676,4688,-3785,-2569,8076,4369,168,11,805
434147,55992620,51328428,56110032,51555280,3800,3800,401,5290,-3701,-2916,8449,2775,168,11,805
435148,55993324,51328444,56110894,51556142,3800,3800,-164,6145,-3535,-1980,8004,4934,181,17,803
436149,55994012,51328448,56111756,51557004,3800,3800,-745,7302,-3269,-1400,7786,4039,181,17,803
437150,55994780,51328464,56112618,51557866,3800,3800,-1682,8453,-2826,-386,8069,5145,148,11,802
438151,55995448,51328460,56113480,51558728,3800,3800,-2650,8934,-2475,-233,8162,2337,148,11,802
439152,55996092,51328456,56114342,51559590,3800,3800,-3132,7720,-2510,-377,8914,-3359,142,18,802
440153,55996844,51328472,56115204,51560452,3800,3800,-3134,5407,-2803,18,8140,-5181,142,18,802
441154,55997512,51328508,56116066,51561314,3800,3800,-3242,3033,-3071,312,6559,-3818,132,22,802
442155,55998180,51328552,56116928,51562176,3800,3800,-3829,1767,-2906,949,3758,-233,132,22,802
443156,55998888,51328592,56117790,51563038,3800,3800,-4588,1223,-2511,1467,3234,196,145,12,802
444157,55999596,51328640,56118652,51563900,3800,3800,-5099,407,-2346,1325,3085,-888,145,12,802
445158,56000212,51328696,56119514,51564762,3800,3800,-5373,-787,-2395,699,2383,-1043,129,10,802
446159,56000912,51328756,56120376,51565624,3800,3800,-5569,-2081,-2450,157,1392,-430,129,10,802
447160,56001568,51328832,56121238,51566486,3800,3800,-5686,-3305,-2432,68,503,-840,139,15,801
448168,56002192,51328940,56122106,51567354,3800,3800,-5670,-4623,-2339,-498,184,-1614,139,15,801
449161,56002728,51329060,56122968,51568216,3800,3800,-5529,-5861,-2233,-1272,-874,-702,144,33,802
450163,56003416,51329168,56123830,51569078,3800,3800,-5495,-6513,-2074,-1735,-2895,1945,144,33,802
451164,56004004,51329292,56124692,51569940,3800,3800,-5592,-6448,-1737,-1792,-4542,3995,133,34,802
452165,56004576,51329444,56125554,51570802,3800,3800,-5622,-6091,-1257,-1642,-5409,4524,133,34,802
453166,56005264,51329600,56126416,51571664,3800,3800,-5498,-5785,-816,-2011,-5661,4849,123,26,802
454166,56005904,51329784,56127278,51572526,3800,3800,-5251,-5480,-579,-2398,-5275,5585,123,26,802
455167,56006520,51329956,56128140,51573388,3800,3800,-4923,-5063,-500,-1965,-4752,5710,131,38,802
456169,56007140,51330240,56129002,51574250,3800,3800,-3604,-3599,-478,-147,-4541,15438,131,38,802
457170,56007812,51330500,56129864,51575112,3800,3800,263,2766,-772,5505,-4465,32767,116,53,801
458171,56008464,51330720,56130726,51575974,3800,3800,3677,7562,-1070,1755,-3240,21367,116,53,801
459172,56009112,51330940,56131588,51576836,3800,3800,4686,8019,-1087,53,-2208,3839,131,58,801
460173,56009740,51331216,56132450,51577698,3800,3800,4559,6151,-999,1103,-1571,1679,131,58,801
461173,56010408,51331512,56133312,51578560,3800,3800,4459,4232,-1009,1937,-986,1154,121,56,803
462175,56011072,51331824,56134174,51579422,3800,3800,4776,2785,-1108,2139,-18,386,121,56,803
463175,56011792,51332092,56135036,51580284,3800,3800,5177,1247,-1297,2671,596,-555,123,53,804
464177,56012512,51332336,56135898,51581146,3800,3800,5495,-322,-1506,2983,742,-429,123,53,804
465178,56013196,51332608,56136760,51582008,3800,3800,5709,-1983,-1631,2777,1054,-124,143,64,804
466179,56013976,51332904,56137622,51582870,3800,3800,5838,-3409,-1739,3017,1298,485,143,64,804
467189,56014736,51333216,56138490,51583738,3800,3800,5898,-4641,-1805,2968,1532,1001,125,55,804
468181,56015480,51333456,56139352,51584600,3800,3800,5909,-5500,-1805,2671,1880,1928,125,55,804
469182,56016244,51333696,56140214,51585462,3800,3800,5839,-6196,-1814,2479,2295,2333,146,69,804
470183,56016968,51333900,56141076,51586324,3800,3800,5729,-6676,-1793,1724,2699,3191,146,69,804
471184,56017744,51334168,56141938,51587186,3800,3800,5557,-6745,-1678,890,2776,4495,168,66,805
472185,56018536,51334412,56142800,51588048,3800,3800,5330,-6600,-1521,287,2822,4968,168,66,805
473186,56019248,51334660,56143662,51588910,3800,3800,5092,-6157,-1300,-467,3011,5967,149,65,806
474187,56019984,51334892,56144524,51589772,3800,3800,4809,-5479,-1004,-989,3357,6652,149,65,806
475188,56020740,51335064,56145386,51590634,3800,3800,4544,-4734,-661,-1175,3348,6699,144,63,805
476189,56021440,51335228,56146248,51591496,3800,3800,4266,-3920,-305,-1190,4373,6950,144,63,805
477190,56022128,51335448,56147110,51592358,3800,3800,4031,-3258,38,-942,5122,6205,141,42,806
478191,56022780,51335672,56147972,51593220,3800,3800,3754,-2677,406,-320,5339,6207,141,42,806
479191,56023456,51335888,56148834,51594082,3800,3800,3308,-1872,704,385,6103,7084,152,57,803
480193,56024080,51336116,56149696,51594944,3800,3800,2666,-1168,871,1378,5951,5895,152,57,803
481194,56024676,51336320,56150558,51595806,3800,3800,2058,-816,921,2409,6131,4562,147,39,803
482195,56025324,51336504,56151420,51596668,3800,3800,1507,-915,914,3076,6395,3151,147,39,803
483196,56025976,51336716,56152282,51597530,3800,3800,889,-1160,933,3787,6407,2715,132,51,803
484197,56026592,51337016,56153144,51598392,3800,3800,358,-1828,953,3570,5800,706,132,51,803
485198,56027296,51337308,56154006,51599254,3800,3800,-14,-2793,1023,2897,4294,-60,130,51,804
486206,56027964,51337600,56154874,51600122,3800,3800,-323,-3602,1104,2186,3272,176,130,51,804
487200,56028624,51337888,56155736,51600984,3800,3800,-558,-4027,1403,1983,1093,1321,129,58,803
488201,56029324,51338228,56156598,51601846,3800,3800,-789,-3746,1756,1178,802,3138,129,58,803
489202,56030012,51338620,56157460,51602708,3800,3800,-1150,-2752,1887,-143,559,5298,140,58,805
490203,56030640,51339024,56158322,51603570,3800,3800,-1581,-1383,1945,-356,-542,6038,140,58,805
491204,56031336,51339404,56159184,51604432,3800,3800,-1747,-37,1835,-506,419,5263,130,78,804
492205,56032028,51339844,56160046,51605294,3800,3800,-1738,1042,1355,-1261,879,4951,130,78,804
493206,56032764,51340336,56160908,51606156,3800,3800,-1696,2281,675,-1093,161,5269,140,77,805
494206,56033432,51340792,56161770,51607018,3800,3800,-1671,3604,26,-1177,-191,5011,140,77,805
495207,56034208,51341336,56162632,51607880,3800,3800,-1677,5093,-586,-1107,-833,5266,124,87,806
496208,56034928,51341892,56163494,51608742,3800,3800,-1645,6509,-1047,-398,-1690,4667,124,87,806
497210,56035648,51342428,56164356,51609604,3800,3800,-1532,7669,-1432,149,-1480,3825,158,103,807
498211,56036420,51343160,56165218,51610466,3800,3800,-1303,8523,-1863,488,-1993,2790,158,103,807
499212,56037176,51343752,56166080,51611328,3800,3800,-737,9320,-2806,1512,-2579,1094,145,107,807
500212,56038032,51344492,56166942,51612190,3800,3800,-394,9369,-3305,1986,-2536,537,145,107,807
501214,56038904,51345244,56167804,51613052,3800,3800,-10,9243,-3813,2152,-2836,111,149,114,808
502215,56039736,51346060,56168666,51613914,3800,3800,262,9122,-4315,2377,-3546,508,149,114,808
503216,56040712,51346860,56169528,51614776,3800,3800,436,9035,-4772,2755,-3795,348,159,156,809
504216,56041660,51347756,56170390,51615638,3800,3800,498,8774,-5223,3167,-3174,-75,159,156,809
505224,56042560,51348552,56171258,51616506,3800,3800,517,8293,-5720,3020,-2218,-796,164,148,810
506219,56043500,51349356,56172120,51617368,3800,3800,567,7507,-6240,2495,-2146,-1544,164,148,810
507220,56044472,51350240,56172982,51618230,3800,3800,612,6707,-6736,2131,-2698,-1117,156,153,812
508221,56045460,51350976,56173844,51619092,3800,3800,558,6305,-7123,1870,-3268,2,156,153,812
509222,56046360,51351732,56174706,51619954,3800,3800,431,5987,-7460,2364,-2805,-206,168,157,813
510223,56047300,51352392,56175568,51620816,3800,3800,336,5451,-7909,2787,-1591,-801,168,157,813
511223,56048356,51353072,56176430,51621678,3800,3800,299,4832,-8350,2519,-1851,-939,186,160,812
512224,56049188,51353716,56177292,51622540,3800,3800,289,4146,-8632,2097,-2366,-864,186,160,812
513226,56050012,51354340,56178154,51623402,3800,3800,258,3506,-8749,1787,-2218,-387,175,136,812
514227,56050916,51354952,56179016,51624264,3800,3800,215,3023,-8723,1623,-1725,60,175,136,812
515228,56051724,51355608,56179878,51625126,3800,3800,130,2631,-8595,1530,-1449,245,181,126,812
516228,56052576,51356292,56180740,51625988,3800,3800,11,2378,-8419,1029,-1087,652,181,126,812
517230,56053452,51356948,56181602,51626850,3800,3800,-159,2252,-8133,371,-809,1251,191,137,811
518230,56054304,51357608,56182464,51627712,3800,3800,-382,2422,-7637,542,-953,2309,191,137,811
519231,56055152,51358276,56183326,51628574,3800,3800,-564,2843,-6895,715,-1319,2760,168,129,811
520232,56056028,51358916,56184188,51629436,3800,3800,-728,3384,-6099,389,-870,3263,168,129,811
521234,56056868,51359540,56185050,51630298,3800,3800,-974,3949,-5399,-249,67,3411,179,136,812
522235,56057672,51360192,56185912,51631160,3800,3800,-1420,4448,-4987,-1235,2173,3222,179,136,812
523236,56058536,51360896,56186774,51632022,3800,3800,-2155,4915,-5044,-2282,4661,3278,166,140,809
524243,56059280,51361524,56187642,51632890,3800,3800,-3031,5398,-5558,-3520,5871,3116,166,140,809
525238,56059968,51362164,56188504,51633752,3800,3800,-3893,5734,-6294,-4073,6525,2612,170,132,810
526239,56060552,51362800,56189366,51634614,3800,3800,-4807,6027,-7133,-3547,7107,2889,170,132,810
527239,56061120,51363404,56190228,51635476,3800,3800,-6175,7042,-7629,-1936,5204,5887,159,128,811
528240,56061588,51364064,56191090,51636338,3800,3800,-7672,7780,-7866,-619,5673,3848,159,128,811
529242,56062016,51364780,56191952,51637200,3800,3800,-8760,7478,-8313,1,6162,1133,132,119,809
530243,56062448,51365540,56192814,51638062,3800,3800,-9454,6330,-8739,254,4483,-215,132,119,809
531244,56062836,51366268,56193676,51638924,3800,3800,-9961,4789,-8901,382,3048,-966,97,126,807
532245,56063216,51366964,56194538,51639786,3800,3800,-10475,2968,-8790,745,1980,-1613,97,126,807
533246,56063620,51367840,56195400,51640648,3800,3800,-10986,1290,-8432,1627,904,-512,87,160,806
534247,56063996,51368560,56196262,51641510,3800,3800,-11540,-261,-7848,2991,-1493,1080,87,160,806
535248,56064408,51369332,56197124,51642372,3800,3800,-5543,-5783,-7569,12645,-12296,32767,74,131,805
536249,56064864,51370384,56197986,51643234,3800,3800,2989,-8061,-7486,21002,-14994,32767,74,131,805
537250,56065324,51371216,56198848,51644096,3800,3800,3014,-4634,-6729,6826,-1229,21508,93,167,806
538251,56065820,51372084,56199710,51644958,3800,3800,47,-1709,-6325,1824,2070,4870,93,167,806
539252,56066308,51373040,56200572,51645820,3800,3800,-1612,-3119,-6305,-70,1291,-1311,102,161,808
540253,56066868,51374164,56201434,51646682,3800,3800,-1489,-5350,-6351,-1621,2092,656,102,161,808
541253,56067396,51375136,56202296,51647544,3800,3800,-1026,-6858,-6412,-1138,1868,1674,102,184,809
542255,56067968,51376204,56203158,51648406,3800,3800,-717,-7262,-6363,-2298,294,2124,102,184,809
543264,56068556,51377224,56204026,51649274,3800,3800,-601,-7145,-6120,-3832,-1063,4882,118,195,811
544256,56069124,51378256,56204888,51650136,3800,3800,-402,-6289,-5886,-3612,-1532,6280,118,195,811
545257,56069740,51379240,56205750,51650998,3800,3800,-70,-5080,-5657,-4260,-1397,7062,119,204,809
546259,56070420,51380324,56206612,51651860,3800,3800,460,-4037,-5451,-5249,-1830,6662,119,204,809
547260,56071068,51381332,56207474,51652722,3800,3800,1056,-3209,-5383,-5475,-2040,5862,128,204,811
548261,56071724,51382268,56208336,51653584,3800,3800,1608,-2427,-5408,-5590,-1614,6079,128,204,811
549262,56072532,51383244,56209198,51654446,3800,3800,2132,-1349,-5450,-5171,-1510,6076,127,200,812
550263,56073264,51384280,56210060,51655308,3800,3800,2638,-657,-5457,-4839,-2319,5120,127,200,812
551264,56074040,51385312,56210922,51656170,3800,3800,3146,-93,-5296,-4667,-3295,5247,126,196,813
552264,56074916,51386332,56211784,51657032,3800,3800,3622,390,-4918,-3548,-4243,4647,126,196,813
553266,56075692,51387260,56212646,51657894,3800,3800,4159,672,-4446,-3089,-4689,3627,143,199,813
554267,56076540,51388208,56213508,51658756,3800,3800,4758,684,-3986,-3423,-4645,2984,143,199,813
555268,56077340,51389116,56214370,51659618,3800,3800,5463,301,-3646,-2788,-4273,1701,152,197,814
556269,56078356,51389980,56215232,51660480,3800,3800,6164,-157,-3367,-2040,-3289,1520,152,197,814
557270,56079208,51390864,56216094,51661342,3800,3800,6862,-620,-3141,-1926,-2627,1016,151,194,813
558271,56080104,51391584,56216956,51662204,3800,3800,7482,-1333,-2954,-1752,-2827,714,151,194,813
559272,56081028,51392268,56217818,51663066,3800,3800,8046,-2078,-2736,-1579,-3330,978,170,179,814
560272,56081904,51392812,56218680,51663928,3800,3800,8397,-2616,-2459,-1504,-3887,1833,170,179,814
561273,56082724,51393368,56219542,51664790,3800,3800,8563,-2692,-2065,-1700,-4780,3128,164,149,813
562282,56083608,51393864,56220410,51665658,3800,3800,8621,-2742,-1469,-2755,-4576,3083,164,149,813
563276,56084356,51394324,56221272,51666520,3800,3800,8698,-2882,-925,-3719,-3183,2861,172,110,812
564277,56085016,51394688,56222134,51667382,3800,3800,8753,-3135,-469,-3952,-2081,2816,172,110,812
565278,56085652,51394984,56222996,51668244,3800,3800,8813,-3440,-45,-3606,-1367,2569,168,96,811
566279,56086232,51395212,56223858,51669106,3800,3800,8667,-3766,359,-1942,-753,2516,168,96,811
567280,56086748,51395412,56224720,51669968,3800,3800,8333,-4182,850,285,-874,2150,160,85,804
568281,56087192,51395620,56225582,51670830,3800,3800,7873,-4722,1406,1627,-718,1339,160,85,804
569282,56087616,51395772,56226444,51671692,3800,3800,7250,-5472,1986,1848,-696,1742,135,70,804
570283,56088036,51395896,56227306,51672554,3800,3800,5172,-4109,3141,3069,-3558,10853,135,70,804
571284,56088456,51395980,56228168,51673416,3800,3800,2206,-1948,4976,3514,-6762,8566,95,40,803
572285,56088956,51396068,56229030,51674278,3800,3800,-86,-882,6522,3874,-2445,3841,95,40,803
573286,56089540,51396152,56229892,51675140,3800,3800,-983,-2100,7041,3637,2176,-1484,70,23,800
574287,56090008,51396264,56230754,51676002,3800,3800,-800,-5017,6880,3199,2505,-5282,70,23,800
575288,56090628,51396368,56231616,51676864,3800,3800,-631,-7865,6597,3984,3016,-3448,90,17,799
576289,56091236,51396484,56232478,51677726,3800,3800,-745,-9851,6472,4920,2851,-2698,90,17,799
577289,56091848,51396624,56233340,51678588,3800,3800,-961,-11380,6509,5171,1706,-1974,111,33,800
578291,56092456,51396836,56234202,51679450,3800,3800,-1192,-12448,6525,4821,1253,-350,111,33,800
579292,56093032,51397048,56235064,51680312,3800,3800,-1565,-12775,6565,5071,97,2418,130,34,801
580293,56093544,51397300,56235926,51681174,3800,3800,-1970,-12220,6561,4210,-1460,4892,130,34,801
581301,56094216,51397556,56236794,51682042,3800,3800,-2326,-11073,6103,2374,-771,5591,126,37,801
582295,56094796,51397784,56237656,51682904,3800,3800,-2699,-9482,5052,632,459,7836,126,37,801
583295,56095444,51398036,56238518,51683766,3800,3800,-3074,-7441,3932,-47,387,8687,117,51,802
584296,56096084,51398348,56239380,51684628,3800,3800,-3642,-4948,2924,-713,850,10468,132,61,803
585297,56096924,51398664,56240242,51685490,3800,3800,-4240,-2139,2063,-279,954,10917,132,61,803
586298,56097704,51398968,56241104,51686352,3800,3800,-4719,608,1337,1030,1591,10477,123,73,803
587300,56098488,51399244,56241966,51687214,3800,3800,-4974,2998,428,1579,3226,9184,123,73,803
588300,56099324,51399492,56242828,51688076,3800,3800,-4830,4679,-737,1666,3378,6478,138,58,804
589301,56100148,51399824,56243690,51688938,3800,3800,-4284,5420,-1904,1971,2449,3899,138,58,804
590302,56100980,51400136,56244552,51689800,3800,3800,-3561,5787,-2831,2729,1740,3535,146,77,803
591303,56101900,51400428,56245414,51690662,3800,3800,-2895,6616,-3306,4054,579,4911,146,77,803
592304,56102804,51400664,56246276,51691524,3800,3800,-2364,7991,-3358,5092,-468,5824,150,70,805
593306,56103820,51400900,56247138,51692386,3800,3800,-1888,9310,-3381,5033,218,4938,150,70,805
594306,56104792,51401224,56248000,51693248,3800,3800,-1363,9924,-3781,4260,1531,2654,159,70,806
595308,56105804,51401496,56248862,51694110,3800,3800,-825,9734,-4578,3797,1970,973,159,70,806
596309,56106772,51401788,56249724,51694972,3800,3800,-201,9358,-5255,4450,1297,788,184,70,806
597310,56107852,51402040,56250586,51695834,3800,3800,418,9115,-5630,4939,802,1146,184,70,806
598311,56108876,51402272,56251448,51696696,3800,3800,1076,8998,-5804,5194,389,992,172,60,808
599312,56109856,51402592,56252310,51697558,3800,3800,1838,8485,-5927,5122,141,-416,172,60,808
600319,56110828,51402908,56253178,51698426,3800,3800,2754,7621,-6015,4824,-561,-1249,172,60,807
601314,56111844,51403192,56254040,51699288,3800,3800,3517,6689,-6050,4397,-941,-787,172,60,807
602315,56112804,51403524,56254902,51700150,3800,3800,3893,6080,-6016,4249,-1366,676,173,72,808
603316,56113768,51403880,56255764,51701012,3800,3800,3979,5936,-5998,4030,-1242,1773,173,72,808
604317,56114704,51404308,56256626,51701874,3800,3800,4068,5738,-6099,3144,-718,782,165,63,806
605317,56115568,51404760,56257488,51702736,3800,3800,4320,5194,-6242,2220,-969,143,165,63,806
606318,56116440,51405220,56258350,51703598,3800,3800,4643,4737,-6246,1692,-1624,1152,186,89,809
607319,56117420,51405788,56259212,51704460,3800,3800,4893,4732,-6041,1435,-2128,2476,186,89,809
608320,56118296,51406428,56260074,51705322,3800,3800,5093,5076,-5745,1155,-2249,2830,208,95,810
609322,56119180,51407036,56260936,51706184,3800,3800,5288,5638,-5369,713,-2289,3592,208,95,810
610322,56120192,51407708,56261798,51707046,3800,3800,5506,6471,-4905,466,-1927,4209,206,115,810
611324,56121092,51408376,56262660,51707908,3800,3800,5755,7355,-4338,526,-1669,4106,206,115,810
612325,56121992,51409096,56263522,51708770,3800,3800,5964,8366,-3828,650,-774,4630,209,125,810
613326,56122936,51409876,56264384,51709632,3800,3800,6091,9467,-3425,595,259,4325,209,125,810
614327,56123772,51410620,56265246,51710494,3800,3800,6126,10228,-3117,247,740,3068,192,147,812
615328,56124540,51411376,56266108,51711356,3800,3800,6103,10792,-2914,-117,1081,2841,192,147,812
616328,56125244,51412156,56266970,51712218,3800,3800,5961,11353,-2772,-243,1191,2918,176,161,811
617330,56125956,51413060,56267832,51713080,3800,3800,5766,11972,-2589,478,425,2692,176,161,811
618331,56126584,51413840,56268694,51713942,3800,3800,5542,12456,-2392,1035,690,2100,153,152,811
619341,56127136,51414820,56269562,51714810,3800,3800,5279,12783,-2343,1042,2385,1447,153,152,811
620333,56127684,51415704,56270424,51715672,3800,3800,4950,12742,-2575,869,3855,43,134,159,810
621334,56128164,51416524,56271286,51716534,3800,3800,4667,12247,-2957,792,3848,-1192,134,159,810
622335,56128604,51417376,56272148,51717396,3800,3800,4431,11566,-3400,853,3390,-1597,108,172,809
623336,56129060,51418148,56273010,51718258,3800,3800,4152,10776,-3792,1404,2046,-2009,108,172,809
624337,56129420,51419024,56273872,51719120,3800,3800,3653,9949,-4005,2292,1298,-1759,90,165,809
625338,56129780,51419808,56274734,51719982,3800,3800,3049,9072,-4187,2481,1567,-2248,90,165,809
626339,56130172,51420560,56275596,51720844,3800,3800,2559,7858,-4526,2317,2129,-3386,96,175,807
627340,56130516,51421276,56276458,51721706,3800,3800,2193,6246,-5041,2124,2463,-4396,96,175,807
628340,56130860,51421972,56277320,51722568,3800,3800,1841,4356,-5623,1746,2634,-4911,72,145,807
629342,56131204,51422692,56278182,51723430,3800,3800,1538,2467,-6199,1146,2822,-4945,72,145,807
630342,56131600,51423496,56279044,51724292,3800,3800,1195,759,-6700,713,2620,-4453,66,143,806
631343,56131964,51424180,56279906,51725154,3800,3800,765,-748,-7136,382,3001,-4125,66,143,806
632344,56132328,51424820,56280768,51726016,3800,3800,162,-2046,-7620,181,3932,-3415,77,141,805
633345,56132780,51425548,56281630,51726878,3800,3800,-493,-3235,-8260,17,4591,-3101,77,141,805
634347,56133184,51426168,56282492,51727740,3800,3800,-1052,-4357,-9043,-240,5173,-2775,74,142,804
635347,56133552,51426908,56283354,51728602,3800,3800,-1535,-5290,-9812,-515,5552,-2086,74,142,804
636349,56134088,51427584,56284216,51729464,3800,3800,-2042,-6091,-10335,-347,5350,-1816,81,133,805
637350,56134552,51428248,56285078,51730326,3800,3800,-2606,-6812,-10441,57,5029,-1429,81,133,805
638357,56135028,51428908,56285946,51731194,3800,3800,-3141,-7331,-10022,456,3933,-595,98,140,806
639351,56135632,51429628,56286808,51732056,3800,3800,-3624,-7659,-9153,599,3465,12,98,140,806
640352,56136224,51430304,56287670,51732918,3800,3800,-4021,-7970,-8126,393,3868,38,92,134,806
641353,56136812,51431204,56288532,51733780,3800,3800,-4352,-8404,-7124,131,3854,-195,92,134,806
642354,56137508,51431860,56289394,51734642,3800,3800,-4653,-8849,-6125,-20,3095,76,107,148,807
643355,56138204,51432528,56290256,51735504,3800,3800,-5029,-9133,-5062,-255,1979,794,107,148,807
644357,56138924,51433360,56291118,51736366,3800,3800,-5639,-9003,-3863,-450,811,2374,129,140,807
645358,56139704,51434208,56291980,51737228,3800,3800,-6598,-8235,-2656,-554,-193,4477,129,140,807
646359,56140476,51435148,56292842,51738090,3800,3800,-7819,-7263,-1490,-492,-1117,4600,125,150,808
647359,56141212,51435988,56293704,51738952,3800,3800,-8660,-7285,-565,-310,222,1565,125,150,808
648361,56141960,51436872,56294566,51739814,3800,3800,-8852,-8029,38,-385,850,573,155,180,810
649361,56142816,51437628,56295428,51740676,3800,3800,-8734,-9207,460,-523,854,70,155,180,810
650362,56143600,51438584,56296290,51741538,3800,3800,-8664,-10364,828,502,672,562,161,189,812
651363,56144436,51439568,56297152,51742400,3800,3800,-8778,-10867,1259,1514,314,3129,161,189,812
652365,56145348,51440688,56298014,51743262,3800,3800,-9049,-10313,1836,1097,-697,6384,162,195,813
653365,56146236,51441768,56298876,51744124,3800,3800,-9336,-9362,2480,9,-2248,7602,162,195,813
654367,56147032,51442720,56299738,51744986,3800,3800,-9462,-8479,2973,-837,-2735,8074,172,202,814
655367,56147940,51443632,56300600,51745848,3800,3800,-8533,-6577,3247,219,-3386,16862,172,202,814
656368,56148796,51444584,56301462,51746710,3800,3800,-2704,4897,2889,11748,-6770,32767,188,212,814
657376,56149580,51445448,56302330,51747578,3800,3800,3801,16125,2249,6776,-4175,32767,188,212,814
658370,56150424,51446440,56303192,51748440,3800,3800,5783,17747,1937,243,-2026,7858,187,185,814
659371,56151136,51447296,56304054,51749302,3800,3800,5165,14428,1790,1175,-2505,7237,187,185,814
660373,56151868,51448156,56304916,51750164,3800,3800,4270,10987,1865,1571,-3972,6593,169,187,813
661374,56152576,51449084,56305778,51751026,3800,3800,3804,9185,2309,726,-5411,4263,169,187,813
662375,56153192,51450028,56306640,51751888,3800,3800,3346,7075,2788,-62,-4962,300,158,195,813
663376,56153712,51451012,56307502,51752750,3800,3800,2397,5066,3434,1255,-7111,488,158,195,813
664377,56154228,51451960,56308364,51753612,3800,3800,1332,2468,4510,1853,-8879,-2668,145,181,812
665378,56154724,51452900,56309226,51754474,3800,3800,310,-328,5263,4339,-8177,-3424,145,181,812
666379,56155068,51453832,56310088,51755336,3800,3800,-436,-3509,5374,4585,-5566,-4661,120,186,810
667380,56155384,51454740,56310950,51756198,3800,3800,-975,-6735,5324,4595,-5576,-3864,120,186,810
668381,56155640,51455588,56311812,51757060,3800,3800,-1742,-8933,5420,6152,-7046,-1123,80,198,809
669382,56155848,51456464,56312674,51757922,3800,3800,-2493,-10656,5793,6001,-7320,-444,80,198,809
670383,56155960,51457056,56313536,51758784,3800,3800,-2965,-11836,6134,6218,-6663,1454,65,180,809
671384,56156080,51457604,56314398,51759646,3800,3800,-3033,-12943,6168,5848,-6215,959,65,180,809
672384,56156184,51458032,56315260,51760508,3800,3800,-2959,-13495,6087,3790,-5709,4363,26,149,804
673386,56156208,51458396,56316122,51761370,3800,3800,-3043,-12532,5888,1728,-4483,8592,26,149,804
674387,56156244,51458708,56316984,51762232,3800,3800,-3169,-10989,5516,-403,-3086,8837,26,101,801
675388,56156276,51458952,56317846,51763094,3800,3800,-3162,-9433,5079,-2459,-2606,9086,26,101,801
676395,56156276,51459064,56318714,51763962,3800,3800,-3195,-7364,4503,-3461,-2011,11114,21,64,798
677390,56156252,51459140,56319576,51764824,3800,3800,-3327,-4770,3763,-4811,-1456,12517,21,64,798
678391,56156280,51459224,56320438,51765686,3800,3800,-3392,-2083,3000,-6653,-1443,12828,6,29,795
679392,56156292,51459332,56321300,51766548,3800,3800,-3353,611,2286,-7659,-1698,12691,6,29,795
680393,56156264,51459440,56322162,51767410,3800,3800,-3142,2981,1688,-8317,-1376,11415,16,26,795
681394,56156268,51459540,56323024,51768272,3800,3800,-2777,4950,1308,-8380,-2160,10631,16,26,795
682395,56156288,51459548,56323886,51769134,3800,3800,-2419,6629,1097,-7884,-2571,9820,18,18,794
683396,56156280,51459536,56324748,51769996,3800,3800,-2072,7968,996,-7625,-2849,8970,18,18,794
684397,56156252,51459524,56325610,51770858,3800,3800,-1848,9079,940,-7270,-4248,8752,-3,17,794
685398,56156280,51459580,56326472,51771720,3800,3800,-1689,9771,1044,-6020,-4666,7236,-3,17,794
686399,56156292,51459632,56327334,51772582,3800,3800,-1546,9740,1165,-5185,-3009,4805,-2,19,793
687400,56156268,51459740,56328196,51773444,3800,3800,-1497,9217,1226,-4217,-2178,3912,-2,19,793
688401,56156272,51459836,56329058,51774306,3800,3800,-1549,8431,1347,-3244,-1707,2953,8,9,792
689402,56156292,51459884,56329920,51775168,3800,3800,-1666,7479,1606,-2196,-1593,2201,8,9,792
690403,56156288,51459952,56330782,51776030,3800,3800,-1851,6355,2039,-1076,-1876,2190,1,16,793
691404,56156268,51460060,56331644,51776892,3800,3800,-2110,5374,2693,595,-2214,4564,1,16,793
692405,56156272,51460188,56332506,51777754,3800,3800,-2347,4712,3501,2299,-2075,5915,11,19,794
693406,56156308,51460368,56333368,51778616,3800,3800,-2415,3841,4102,2861,-435,5990,11,19,794
694407,56156268,51460536,56334230,51779478,3800,3800,-2337,2899,4257,2610,1182,6786,2,29,794
695417,56156276,51460724,56335098,51780346,3800,3800,-2234,1963,3997,1604,2111,6636,2,29,794
696409,56156316,51460956,56335960,51781208,3800,3800,-2079,832,3577,8,274,4661,15,28,792
697410,56156300,51461228,56336822,51782070,3800,3800,-1765,-473,3319,-1281,-1971,3532,15,28,792
698411,56156300,51461632,56337684,51782932,3800,3800,-1451,-1513,3163,-1564,-2943,3258,19,61,794
699412,56156316,51462072,56338546,51783794,3800,3800,-1164,-2495,2976,-1238,-3498,2662,19,61,794
700413,56156328,51462484,56339408,51784656,3800,3800,-866,-3043,2884,-541,-3850,4180,20,71,795
701414,56156320,51463040,56340270,51785518,3800,3800,-540,-3106,2817,-210,-1958,4812,20,71,795
702415,56156316,51463504,56341132,51786380,3800,3800,-288,-2967,2594,-1102,-174,5558,12,98,798
703416,56156348,51464092,56341994,51787242,3800,3800,-180,-2678,2215,-2492,-562,6609,12,98,798
704417,56156328,51464636,56342856,51788104,3800,3800,-166,-2222,1838,-2749,-1907,7313,18,100,799
705418,56156332,51465256,56343718,51788966,3800,3800,-121,-1470,1499,-2287,-2543,7531,18,100,799
706419,56156360,51465924,56344580,51789828,3800,3800,63,-905,1169,-1399,-3729,6394,20,109,799
707420,56156364,51466540,56345442,51790690,3800,3800,301,-579,840,-477,-4326,5934,20,109,799
708421,56156348,51467276,56346304,51791552,3800,3800,500,-180,552,203,-4457,6037,18,132,800
709422,56156368,51467988,56347166,51792414,3800,3800,775,71,307,430,-4608,4531,18,132,800
710423,56156380,51468756,56348028,51793276,3800,3800,1160,-222,81,276,-4432,3014,14,142,799
711424,56156368,51469608,56348890,51794138,3800,3800,1539,-827,-114,413,-4335,2750,14,142,799
712425,56156380,51470408,56349752,51795000,3800,3800,1797,-1211,-255,958,-5265,3258,18,144,801
713426,56156388,51471280,56350614,51795862,3800,3800,1979,-1510,-346,1212,-5366,2516,18,144,801
714434,56156400,51472108,56351482,51796730,3800,3800,2270,-2255,-477,1168,-4472,659,14,155,802
715428,56156428,51473076,56352344,51797592,3800,3800,2649,-3281,-626,1217,-4789,436,14,155,802
716429,56156492,51474084,56353206,51798454,3800,3800,2980,-4156,-598,1651,-5525,756,9,168,802
717429,56156552,51474980,56354068,51799316,3800,3800,3295,-4937,-392,1937,-5587,259,9,168,802
718431,56156648,51475952,56354930,51800178,3800,3800,3657,-5824,-47,1730,-6053,-290,7,185,803
719431,56156740,51476848,56355792,51801040,3800,3800,4083,-6762,343,1364,-6154,-570,7,185,803
720432,56156892,51477820,56356654,51801902,3800,3800,4462,-7399,721,1121,-6128,186,29,190,802
721434,56157032,51478880,56357516,51802764,3800,3800,4706,-7508,1097,499,-6859,1460,29,190,802
722435,56157204,51479888,56358378,51803626,3800,3800,4872,-7196,1533,-453,-8117,2125,22,191,803
723436,56157356,51480760,56359240,51804488,3800,3800,5065,-6686,2038,-1251,-8790,2356,22,191,803
724436,56157552,51481660,56360102,51805350,3800,3800,5324,-6069,2557,-1488,-8509,2290,44,187,804
725437,56157764,51482564,56360964,51806212,3800,3800,5609,-5299,3078,-1594,-7876,2501,44,187,804
726439,56158028,51483384,56361826,51807074,3800,3800,5819,-4231,3596,-1836,-7459,3304,52,170,805
727440,56158296,51484332,56362688,51807936,3800,3800,5915,-2825,4109,-2224,-7578,3957,52,170,805
728441,56158512,51485132,56363550,51808798,3800,3800,5992,-1343,4638,-2438,-7791,3518,64,175,806
729442,56158752,51485904,56364412,51809660,3800,3800,6123,-24,5199,-2332,-7984,2652,64,175,806
730443,56159044,51486752,56365274,51810522,3800,3800,6274,1059,5769,-2073,-7783,1902,67,159,805
731444,56159332,51487492,56366136,51811384,3800,3800,6406,1942,6326,-1548,-7307,1221,67,159,805
732445,56159640,51488348,56366998,51812246,3800,3800,6523,2689,6849,-1171,-6945,400,57,180,804
733452,56159984,51489308,56367866,51813114,3800,3800,6656,3260,7321,-1066,-6255,-472,57,180,804
734447,56160220,51490080,56368728,51813976,3800,3800,6736,3795,7791,-734,-5551,-515,73,177,805
735448,56160500,51490864,56369590,51814838,3800,3800,6709,4359,8272,-222,-4957,-537,73,177,805
736449,56160856,51491600,56370452,51815700,3800,3800,6563,5020,8769,421,-4523,-507,70,164,806
737450,56161200,51492392,56371314,51816562,3800,3800,6374,5566,9245,896,-4233,-1060,70,164,806
738451,56161492,51493100,56372176,51817424,3800,3800,6123,6102,9676,1004,-4111,-858,68,144,806
739452,56161856,51493860,56373038,51818286,3800,3800,5801,6784,10073,774,-4064,-815,68,144,806
740453,56162252,51494492,56373900,51819148,3800,3800,5442,7312,10372,1033,-3892,-1595,57,138,805
741454,56162596,51495164,56374762,51820010,3800,3800,5049,7549,10533,1465,-3744,-2240,57,138,805
742455,56162916,51495820,56375624,51820872,3800,3800,4607,7720,10621,1791,-4245,-2151,77,146,803
743456,56163372,51496544,56376486,51821734,3800,3800,4102,8014,10697,1870,-5076,-1853,77,146,803
744457,56163756,51497280,56377348,51822596,3800,3800,3599,8288,10750,1884,-5475,-2002,67,141,802
745458,56164144,51497948,56378210,51823458,3800,3800,3165,8397,10672,2326,-5231,-2541,67,141,802
746459,56164668,51498740,56379072,51824320,3800,3800,2734,8300,10416,3479,-5537,-2813,88,138,805
747460,56165176,51499552,56379934,51825182,3800,3800,2471,7652,8900,11685,-10251,-2108,88,138,805
748461,56165820,51500380,56380796,51826044,3800,3800,2325,6881,7260,8302,-11335,354,103,144,805
749462,56166404,51501088,56381658,51826906,3800,3800,1878,6937,6703,3981,-4289,-712,103,144,805
750463,56167076,51501948,56382520,51827768,3800,3800,1318,7003,6589,3363,-2402,-2125,93,169,806
751464,56167752,51502828,56383382,51828630,3800,3800,951,6988,6364,3137,-1497,-2208,93,169,806
752472,56168532,51503704,56384250,51829498,3800,3800,640,6617,5953,3602,-888,-2656,137,173,809
753466,56169328,51504628,56385112,51830360,3800,3800,411,6174,5409,4500,-1002,-2683,137,173,809
754467,56170128,51505464,56385974,51831222,3800,3800,52,5686,4851,4955,509,-2549,142,182,810
755468,56170896,51506388,56386836,51832084,3800,3800,-404,5290,4371,5301,1275,-2337,142,182,810
756469,56171872,51507188,56387698,51832946,3800,3800,-827,5068,3982,5352,1668,-1837,158,170,811
757470,56172776,51507916,56388560,51833808,3800,3800,-1220,5124,3638,5466,1965,-995,158,170,811
758471,56173656,51508632,56389422,51834670,3800,3800,-1574,5554,3307,5650,1982,-191,154,168,811
759472,56174588,51509284,56390284,51835532,3800,3800,-1956,6134,2981,5451,2422,554,154,168,811
760473,56175440,51509960,56391146,51836394,3800,3800,-2393,7048,2561,4964,4127,1594,162,151,810
761473,56176344,51510604,56392008,51837256,3800,3800,-2878,8183,2147,4424,5005,2237,162,151,810
762475,56177304,51511244,56392870,51838118,3800,3800,-3306,9156,1797,3470,5742,1366,164,129,810
763476,56178132,51511832,56393732,51838980,3800,3800,-3750,9537,1349,2844,7298,307,164,129,810
764477,56178960,51512420,56394594,51839842,3800,3800,-4079,9753,761,2190,7815,145,168,137,809
765478,56179848,51512928,56395456,51840704,3800,3800,-4279,9755,79,1305,8120,-374,168,137,809
766478,56180668,51513464,56396318,51841566,3800,3800,-4360,9492,-656,299,8689,-899,161,144,807
767480,56181484,51514012,56397180,51842428,3800,3800,-4441,9128,-1353,221,9156,-797,161,144,807
768481,56182268,51514512,56398042,51843290,3800,3800,-4484,8754,-1982,825,8152,-793,169,132,810
769482,56183160,51514964,56398904,51844152,3800,3800,-4581,8490,-2535,621,6045,242,169,132,810
770483,56183964,51515344,56399766,51845014,3800,3800,-4605,8310,-3136,-489,5452,211,165,110,808
771493,56184744,51515684,56400634,51845882,3800,3800,-4413,7895,-3904,-1589,6242,-651,165,110,808
772484,56185652,51516056,56401496,51846744,3800,3800,-4112,7275,-4855,-2448,5806,-723,179,92,809
773485,56186432,51516332,56402358,51847606,3800,3800,-3825,6707,-5946,-3705,5114,-275,179,92,809
774486,56187220,51516608,56403220,51848468,3800,3800,-3553,6345,-7078,-4939,4257,423,168,86,807
775488,56188068,51516872,56404082,51849330,3800,3800,-3277,6333,-8219,-5483,3346,1690,168,86,807
776489,56188844,51517124,56404944,51850192,3800,3800,-2807,6476,-9248,-5860,2097,2091,154,67,805
777490,56189644,51517392,56405806,51851054,3800,3800,-2054,6254,-10161,-6452,839,1339,154,67,805
778491,56190488,51517724,56406668,51851916,3800,3800,-1285,5914,-10898,-7315,-489,2214,155,58,804
779492,56191264,51517996,56407530,51852778,3800,3800,-618,5560,-11328,-8226,-1952,2427,155,58,804
780493,56192008,51518252,56408392,51853640,3800,3800,-15,4787,-11199,-10934,-3773,1830,141,66,804
781494,56192720,51518556,56409254,51854502,3800,3800,1510,566,-9682,-22454,-5458,-2297,141,66,804
782495,56193532,51518876,56410116,51855364,3800,3800,12680,-8826,-5169,-32768,-25478,32767,145,78,805
783495,56194200,51519204,56410978,51856226,3800,3800,23697,-14441,-862,-26191,-18120,32767,145,78,805
784496,56194888,51519504,56411840,51857088,3800,3800,26139,-14067,770,-10337,-3442,7479,142,75,805
785498,56195564,51519740,56412702,51857950,3800,3800,23905,-12350,676,-8111,-1549,3527,142,75,805
786498,56196148,51519968,56413564,51858812,3800,3800,21711,-11801,236,-6555,-1239,3950,138,79,804
787500,56196764,51520172,56414426,51859674,3800,3800,20485,-11352,3,-6051,-491,6735,138,79,804
788500,56197424,51520352,56415288,51860536,3800,3800,15447,-3551,1011,-774,-2817,32186,127,55,803
789501,56198024,51520552,56416150,51861398,3800,3800,6723,11105,2699,7296,11810,32767,127,55,803
790509,56198688,51520676,56417018,51862266,3800,3800,-444,20264,1859,2420,25043,21806,134,43,802
791504,56199360,51520776,56417880,51863128,3800,3800,-1926,16332,224,-8295,12906,-10478,134,43,802
792505,56200068,51520844,56418742,51863990,3800,3800,-462,5423,-357,-6087,10128,-17259,119,34,801
793506,56200828,51520888,56419604,51864852,3800,3800,532,-4328,-614,873,11109,-16491,119,34,801
794507,56201668,51520960,56420466,51865714,3800,3800,-427,-8621,-514,6679,10594,-4621,138,28,801
795508,56202428,51521048,56421328,51866576,3800,3800,-2934,-8697,217,8892,9103,2704,138,28,801
796509,56203248,51521092,56422190,51867438,3800,3800,-4830,-9858,926,8237,8254,-4449,133,18,801
797510,56204156,51521112,56423052,51868300,3800,3800,-5219,-13608,905,8108,11225,-8324,133,18,801
798511,56205112,51521120,56423914,51869162,3800,3800,-5149,-17745,487,8833,12373,-4984,150,20,801
799512,56206020,51521120,56424776,51870024,3800,3800,-5208,-20389,268,8949,11291,-1457,150,20,801
800513,56206932,51521152,56425638,51870886,3800,3800,-5586,-21685,8,8709,12754,850,167,26,799
801514,56208004,51521196,56426500,51871748,3800,3800,-5901,-22183,-632,7148,13938,2976,167,26,799
802515,56208928,51521228,56427362,51872610,3800,3800,-6369,-21467,-1382,5051,11786,8653,184,19,803
803516,56209900,51521276,56428224,51873472,3800,3800,-6906,-19665,-2076,2572,10079,11708,184,19,803
804517,56211012,51521320,56429086,51874334,3800,3800,-7183,-17946,-2714,252,9778,11202,186,20,803
805518,56211948,51521372,56429948,51875196,3800,3800,-7047,-16517,-3275,-1474,8333,11537,186,20,803
806518,56212860,51521488,56430810,51876058,3800,3800,-5212,-12942,-3399,-3313,3010,31554,192,21,804
807519,56213832,51521604,56431672,51876920,3800,3800,-1272,-5337,-2777,-5902,-1934,32767,192,21,804
808521,56214728,51521704,56432534,51877782,3800,3800,1462,-2195,-2334,-6296,4677,10290,207,24,804
809529,56215568,51521852,56433402,51878650,3800,3800,2355,-3071,-2142,-6659,4308,4658,207,24,804
810523,56216368,51521980,56434264,51879512,3800,3800,2449,-4276,-1885,-5795,2728,6067,182,30,803
811523,56217272,51522132,56435126,51880374,3800,3800,2681,-4331,-1344,-4911,1239,6542,182,30,803
812525,56218052,51522292,56435988,51881236,3800,3800,3064,-3692,-608,-5058,-129,7467,183,48,804
813526,56218876,51522464,56436850,51882098,3800,3800,3540,-3070,130,-4976,-459,6574,183,48,804
814527,56219728,51522664,56437712,51882960,3800,3800,4021,-2836,805,-4386,-489,5523,172,47,804
815527,56220548,51522836,56438574,51883822,3800,3800,4580,-2762,1300,-4252,-383,4855,172,47,804
816529,56221336,51522988,56439436,51884684,3800,3800,5188,-3102,1567,-3761,-325,3500,155,37,803
817530,56222172,51523156,56440298,51885546,3800,3800,5856,-3522,1701,-2801,-756,3108,155,37,803
818531,56222952,51523340,56441160,51886408,3800,3800,6523,-3873,1890,-1784,-1591,3002,149,40,803
819532,56223700,51523480,56442022,51887270,3800,3800,7184,-4056,2197,-795,-2560,3114,149,40,803
820533,56224484,51523640,56442884,51888132,3800,3800,7739,-4290,2506,-141,-2469,2680,150,39,803
821534,56225268,51523804,56443746,51888994,3800,3800,8286,-4628,2742,569,-1965,2015,150,39,803
822534,56225976,51523976,56444608,51889856,3800,3800,8772,-4910,2826,1107,-1618,1912,150,45,803
823535,56226808,51524184,56445470,51890718,3800,3800,9181,-5031,2821,1274,-1543,1977,150,45,803
824537,56227600,51524396,56446332,51891580,3800,3800,9508,-5091,2844,1929,-1400,2195,152,51,802
825538,56228444,51524584,56447194,51892442,3800,3800,9718,-5044,2837,3172,-538,2020,152,51,802
826539,56229332,51524792,56448056,51893304,3800,3800,9865,-5001,2818,3977,-133,1737,143,55,803
827540,56230252,51525000,56448918,51894166,3800,3800,10021,-4923,2721,4007,271,1678,143,55,803
828548,56231152,51525264,56449786,51895034,3800,3800,10123,-4653,2565,3393,511,2298,162,46,804
829542,56232076,51525536,56450648,51895896,3800,3800,10156,-3962,2409,3012,1041,3125,162,46,804
830543,56233088,51525812,56451510,51896758,3800,3800,9972,-2710,2161,3534,2311,4906,159,64,805
831543,56234032,51526108,56452372,51897620,3800,3800,9542,-1007,2017,4442,2126,5683,159,64,805
832545,56235096,51526388,56453234,51898482,3800,3800,9055,733,1875,4351,2938,5012,192,68,804
833546,56236140,51526672,56454096,51899344,3800,3800,8596,2292,1650,4127,3431,4406,192,68,804
834547,56237196,51527092,56454958,51900206,3800,3800,8109,3676,1348,4396,3839,3840,172,68,805
835548,56238264,51527468,56455820,51901068,3800,3800,7564,4849,1047,4999,3977,2914,172,68,805
836549,56239408,51527832,56456682,51901930,3800,3800,6970,5884,738,5345,4210,2143,203,85,807
837550,56240412,51528256,56457544,51902792,3800,3800,6386,6627,384,5609,4714,943,203,85,807
838551,56241404,51528684,56458406,51903654,3800,3800,5823,7020,18,6111,5008,-72,211,87,808
839551,56242528,51529088,56459268,51904516,3800,3800,5327,7089,-299,6326,4818,-1220,211,87,808
840553,56243480,51529592,56460130,51905378,3800,3800,4951,6976,-478,6025,4223,-1911,214,87,808
841554,56244400,51530048,56460992,51906240,3800,3800,4728,6559,-499,5433,3493,-2829,214,87,808
842555,56245384,51530492,56461854,51907102,3800,3800,4669,5824,-433,5076,2969,-3853,205,97,807
843556,56246248,51530944,56462716,51907964,3800,3800,4705,4914,-343,4589,2916,-4681,205,97,807
844557,56247144,51531456,56463578,51908826,3800,3800,4784,3923,-330,3583,3424,-5435,181,94,807
845558,56247988,51531924,56464440,51909688,3800,3800,4769,2886,-363,2398,3885,-5172,181,94,807
846559,56248880,51532416,56465302,51910550,3800,3800,4528,2580,-349,1843,3751,-2722,173,92,809
847569,56249700,51532908,56466170,51911418,3800,3800,4015,3623,94,2375,2200,931,173,92,809
848561,56250528,51533344,56467032,51912280,3800,3800,3274,5696,874,2148,2123,3154,177,91,808
849562,56251468,51533832,56467894,51913142,3800,3800,2672,7482,1361,303,4478,1077,177,91,808
850562,56252284,51534336,56468756,51914004,3800,3800,2224,8571,1451,-651,5998,-247,166,97,808
851563,56253084,51534820,56469618,51914866,3800,3800,1769,9427,1301,-786,7305,-698,166,97,808
852564,56253992,51535372,56470480,51915728,3800,3800,1297,10236,1179,-1095,8330,-1272,164,101,809
853565,56254752,51535912,56471342,51916590,3800,3800,889,10929,1224,-1309,8494,-1725,164,101,809
854566,56255492,51536388,56472204,51917452,3800,3800,539,11600,1458,-966,8121,-1713,158,97,807
855567,56256308,51536980,56473066,51918314,3800,3800,234,12087,1751,-465,7776,-2315,158,97,807
856568,56256992,51537540,56473928,51919176,3800,3800,13,12149,1905,338,8826,-3568,140,111,808
857570,56257688,51538184,56474790,51920038,3800,3800,-109,11665,1931,956,9192,-4970,140,111,808
858571,56258348,51538800,56475652,51920900,3800,3800,-214,10707,1871,1699,9034,-5792,131,110,807
859572,56259060,51539476,56476514,51921762,3800,3800,-347,9403,1747,2539,8913,-6485,131,110,807
860573,56259672,51540256,56477376,51922624,3800,3800,-542,7955,1626,2951,7904,-6447,123,116,807
861574,56260304,51540988,56478238,51923486,3800,3800,-775,6653,1557,2851,6725,-5845,123,116,807
862575,56260892,51541840,56479100,51924348,3800,3800,-1021,5549,1426,2757,5989,-5092,143,143,809
863575,56261424,51542688,56479962,51925210,3800,3800,-1321,4700,1154,2778,5118,-4048,143,143,809
864576,56261952,51543496,56480824,51926072,3800,3800,-1789,4210,703,2695,3757,-2437,141,169,806
865578,56262476,51544400,56481686,51926934,3800,3800,-2645,4623,160,2425,1623,653,141,169,806
866586,56262948,51545204,56482554,51927802,3800,3800,-3656,5300,-406,1905,279,220,113,162,808
867580,56263432,51546044,56483416,51928664,3800,3800,-4564,5556,-1094,1959,-506,-1215,113,162,808
868581,56264024,51547032,56484278,51929526,3800,3800,-5457,5639,-1912,2263,-1878,-940,101,168,809
869582,56264528,51547808,56485140,51930388,3800,3800,-6358,5604,-2823,2022,-3006,-1538,101,168,809
870583,56265076,51548720,56486002,51931250,3800,3800,-7260,5751,-3718,1365,-5386,-553,88,177,808
871584,56265744,51549504,56486864,51932112,3800,3800,-8088,5946,-4531,1525,-7355,-653,88,177,808
872584,56266404,51550260,56487726,51932974,3800,3800,-8703,5681,-5396,2431,-8035,-2460,110,172,809
873586,56267104,51551032,56488588,51933836,3800,3800,-8825,4423,-6630,3004,-13833,-4729,110,172,809
874587,56267836,51551684,56489450,51934698,3800,3800,-7081,759,-9241,1812,-32768,-3051,127,156,809
875588,56268668,51552376,56490312,51935560,3800,3800,-5683,-1776,-11037,1413,-28372,3201,127,156,809
876589,56269496,51553016,56491174,51936422,3800,3800,-5681,-1532,-11526,3985,-5622,-313,150,147,809
877590,56270364,51553716,56492036,51937284,3800,3800,-6337,-926,-11711,2583,-3303,408,150,147,809
878591,56271344,51554388,56492898,51938146,3800,3800,-6527,3,-12084,611,-3353,-253,175,138,809
879591,56272264,51555152,56493760,51939008,3800,3800,-6670,-43,-12598,530,-4495,164,175,138,809
880592,56273200,51555776,56494622,51939870,3800,3800,-6587,423,-12937,252,-4718,1320,163,142,810
881594,56274236,51556480,56495484,51940732,3800,3800,-6608,662,-12989,909,-4518,511,163,142,810
882595,56275160,51557076,56496346,51941594,3800,3800,-6385,646,-12916,1333,-3996,-545,171,148,809
883596,56276160,51557752,56497208,51942456,3800,3800,-6396,735,-12676,500,-3035,1621,171,148,809
884596,56277240,51558488,56498070,51943318,3800,3800,-6213,1110,-12401,-22,-2648,1006,179,130,811
885605,56278164,51559164,56498938,51944186,3800,3800,-6168,1004,-12183,-159,-2202,283,179,130,811
886598,56279092,51559808,56499800,51945048,3800,3800,-6036,979,-11937,-761,-2187,1048,195,137,810
887600,56280128,51560568,56500662,51945910,3800,3800,-6043,995,-11571,-1736,-2570,1269,195,137,810
888600,56281016,51561256,56501524,51946772,3800,3800,-6073,1028,-11059,-2899,-3716,1546,201,140,810
889602,56281820,51562068,56502386,51947634,3800,3800,-6201,1048,-10246,-3440,-4685,2101,201,140,810
890603,56282636,51562868,56503248,51948496,3800,3800,-6263,908,-9266,-3640,-4708,1354,194,147,811
891604,56283412,51563568,56504110,51949358,3800,3800,-6319,634,-8222,-4594,-5320,1786,194,147,811
892605,56284052,51564456,56504972,51950220,3800,3800,-6327,275,-7142,-6089,-5970,2325,170,168,813
893606,56284620,51565224,56505834,51951082,3800,3800,-6329,45,-6137,-6512,-5892,3062,170,168,813
894607,56285160,51566064,56506696,51951944,3800,3800,-6430,-59,-5260,-5785,-5811,3416,165,157,810
895607,56285572,51567104,56507558,51952806,3800,3800,-6442,-768,-4387,-4136,-6231,1379,165,157,810
896608,56285884,51567804,56508420,51953668,3800,3800,-6457,-2411,-3562,-2335,-5810,64,132,157,808
897609,56286188,51568720,56509282,51954530,3800,3800,-7235,-3398,-2720,399,-4413,4485,132,157,808
898611,56286352,51569660,56510144,51955392,3800,3800,-8786,-3215,-1831,1373,-6047,6771,76,181,807
899612,56286492,51570588,56511006,51956254,3800,3800,-10581,-2824,-668,1384,-10158,6421,76,181,807
900612,56286528,51571572,56511868,51957116,3800,3800,-11215,-2237,762,3445,-13460,12109,51,179,807
901613,56286524,51572652,56512730,51957978,3800,3800,-1852,12864,929,28312,-13790,32767,51,179,807
902614,56286548,51573576,56513592,51958840,3800,3800,12602,30576,25,32167,-16468,32767,27,200,806
903615,56286620,51574508,56514454,51959702,3800,3800,16854,-32008,825,9792,-15239,8368,27,200,806
904623,56286760,51575420,56515322,51960570,3800,3800,13368,28563,2404,7345,-10783,-2478,5,188,805
905617,56287104,51576276,56516184,51961432,3800,3800,9518,21262,3192,6115,-5336,-8880,5,188,805
906619,56287496,51577204,56517046,51962294,3800,3800,8151,15464,3219,3633,-3419,-9071,16,183,805
907619,56287840,51578160,56517908,51963156,3800,3800,8238,11229,3248,2444,-2113,-7050,16,183,805
908621,56288220,51578992,56518770,51964018,3800,3800,7795,8451,3618,3251,194,-2160,50,178,805
909621,56288744,51579832,56519632,51964880,3800,3800,6617,6278,4376,4377,-1656,-1419,50,178,805
910623,56289380,51580688,56520494,51965742,3800,3800,5578,3186,5082,4989,-2644,-5149,107,194,807
911623,56289836,51581368,56521356,51966604,3800,3800,4865,-1000,5215,3592,8,-7380,107,194,807
912624,56290348,51582076,56522218,51967466,3800,3800,4352,-5213,4712,962,1611,-6637,122,178,809
913625,56290832,51582684,56523080,51968328,3800,3800,4202,-9029,3863,-2201,1268,-6366,122,178,809
914627,56291260,51583236,56523942,51969190,3800,3800,4235,-11942,3050,-5182,1353,-3127,102,142,808
915628,56291796,51583676,56524804,51970052,3800,3800,4048,-13210,2336,-6521,1701,1467,102,142,808
916628,56292296,51584076,56525666,51970914,3800,3800,3425,-12404,1582,-6105,2026,6385,105,115,806
917629,56293020,51584440,56526528,51971776,3800,3800,2609,-10408,618,-6928,3557,8716,105,115,806
918630,56293624,51584792,56527390,51972638,3800,3800,1972,-8184,-492,-8318,2742,10192,102,101,804
919631,56294384,51585084,56528252,51973500,3800,3800,1715,-5644,-1705,-10234,2065,12054,102,101,804
920632,56295064,51585356,56529114,51974362,3800,3800,1751,-2663,-2972,-11759,2336,12984,119,84,802
921633,56295868,51585624,56529976,51975224,3800,3800,1879,-107,-4390,-11341,3589,10601,119,84,802
922635,56296644,51585860,56530838,51976086,3800,3800,1985,1519,-5820,-10549,3956,8107,141,55,804
923645,56297400,51586112,56531706,51976954,3800,3800,2055,2418,-6994,-9800,2219,6302,141,55,804
924637,56298180,51586336,56532568,51977816,3800,3800,2052,2509,-7707,-8029,-441,3987,149,68,805
925638,56298996,51586568,56533430,51978678,3800,3800,2066,2182,-7849,-5866,-1842,2614,149,68,805
926639,56299864,51586832,56534292,51979540,3800,3800,2119,1392,-7548,-3832,-3131,778,149,51,805
927640,56300744,51587048,56535154,51980402,3800,3800,2157,39,-6974,-1867,-3431,-756,149,51,805
928641,56301680,51587272,56536016,51981264,3800,3800,2060,-1773,-6159,-171,-3494,-2000,148,59,803
929642,56302692,51587512,56536878,51982126,3800,3800,1888,-4057,-5198,1181,-3021,-4002,148,59,803
930643,56303740,51587744,56537740,51982988,3800,3800,1778,-6900,-4275,2296,-2097,-5857,153,59,803
931644,56304748,51587956,56538602,51983850,3800,3800,1704,-10207,-3506,3073,-1121,-6626,153,59,803
932645,56305820,51588208,56539464,51984712,3800,3800,1623,-13621,-2970,3670,-116,-6614,164,51,804
933646,56306716,51588492,56540326,51985574,3800,3800,1353,-16372,-2481,4120,691,-4504,164,51,804
934647,56307720,51588736,56541188,51986436,3800,3800,777,-17987,-1960,3961,1080,-1924,169,53,807
935648,56308776,51589000,56542050,51987298,3800,3800,336,-19369,-1483,3543,1524,-2503,169,53,807
936649,56309684,51589200,56542912,51988160,3800,3800,86,-20403,-1002,3392,1629,-851,195,67,806
937650,56310644,51589436,56543774,51989022,3800,3800,-62,-20934,-432,2700,1907,218,195,67,806
938651,56311416,51589712,56544636,51989884,3800,3800,-138,-20976,205,1531,2310,1499,180,65,806
939652,56312304,51589940,56545498,51990746,3800,3800,-188,-20621,824,500,2476,2568,180,65,806
940653,56313108,51590168,56546360,51991608,3800,3800,-166,-19837,1401,70,2360,3557,174,63,806
941654,56313888,51590352,56547222,51992470,3800,3800,-28,-18642,1932,-664,2470,4246,174,63,806
942661,56314716,51590528,56548090,51993338,3800,3800,109,-17168,2262,-1975,3594,5405,187,62,804
943656,56315416,51590708,56548952,51994200,3800,3800,-1,-14541,2364,-2439,4689,10029,187,62,804
944656,56316124,51590864,56549814,51995062,3800,3800,-86,-10884,2612,-2475,3652,11561,183,58,805
945658,56316872,51590988,56550676,51995924,3800,3800,34,-7129,3020,-2578,2582,10901,183,58,805
946659,56317468,51591104,56551538,51996786,3800,3800,270,-3641,3458,-2379,2481,10920,147,34,804
947660,56318016,51591208,56552400,51997648,3800,3800,433,-540,3668,-1933,4158,9852,147,34,804
948661,56318556,51591304,56553262,51998510,3800,3800,513,2070,3775,-734,3699,8421,146,29,802
949662,56319020,51591408,56554124,51999372,3800,3800,607,4103,3793,387,3599,6551,146,29,802
950662,56319428,51591520,56554986,52000234,3800,3800,716,5614,3645,1242,4246,5099,135,23,801
951664,56319756,51591612,56555848,52001096,3800,3800,871,6550,3413,1781,4411,3175,135,23,801
952664,56320036,51591676,56556710,52001958,3800,3800,1075,6971,3156,2470,4443,1843,82,39,796
953665,56320296,51591756,56557572,52002820,3800,3800,1366,6992,2951,3421,3817,355,82,39,796
954667,56320472,51591848,56558434,52003682,3800,3800,1664,6595,2756,4168,2888,-807,79,33,797
955668,56320568,51591944,56559296,52004544,3800,3800,1960,5797,2496,4135,2563,-1653,79,33,797
956669,56320680,51592056,56560158,52005406,3800,3800,2205,4879,2228,4380,1638,-1591,54,25,796
957670,56320768,51592176,56561020,52006268,3800,3800,2378,3885,1963,4917,636,-1669,54,25,796
958671,56320772,51592308,56561882,52007130,3800,3800,2447,2846,1552,5227,662,-1671,19,35,796
959672,56320816,51592436,56562744,52007992,3800,3800,2379,2050,891,5309,484,-523,19,35,796
960673,56320916,51592596,56563606,52008854,3800,3800,2133,1701,112,5338,-239,864,9,32,795
961680,56320960,51592732,56564474,52009722,3800,3800,1839,1390,-695,5403,-426,654,9,32,795
962674,56321000,51592888,56565336,52010584,3800,3800,1565,835,-1579,5509,-33,-8,21,28,794
963676,56321108,51593048,56566198,52011446,3800,3800,1393,-102,-2472,5873,297,-1012,21,28,794
964677,56321232,51593216,56567060,52012308,3800,3800,1309,-1217,-3185,6190,522,-1224,29,36,793
965678,56321336,51593392,56567922,52013170,3800,3800,1198,-2078,-3744,6337,477,-130,29,36,793
966678,56321496,51593576,56568784,52014032,3800,3800,977,-2429,-4216,6564,955,1159,13,49,794
967680,56321704,51593764,56569646,52014894,3800,3800,732,-2423,-4628,6663,1359,1747,13,49,794
968680,56321892,51593976,56570508,52015756,3800,3800,581,-2359,-4982,6578,1852,1847,22,37,796
969682,56322120,51594176,56571370,52016618,3800,3800,521,-2325,-5215,6298,2038,2162,22,37,796
970683,56322380,51594400,56572232,52017480,3800,3800,474,-2140,-5309,6124,2448,2776,32,41,797
971684,56322644,51594600,56573094,52018342,3800,3800,335,-1586,-5239,6003,2615,3924,32,41,797
972685,56322940,51594800,56573956,52019204,3800,3800,87,-559,-5035,5461,2626,5330,49,45,797
973686,56323260,51595044,56574818,52020066,3800,3800,-152,742,-4740,4787,2652,5799,49,45,797
974687,56323592,51595264,56575680,52020928,3800,3800,-357,2171,-4435,3966,2810,6372,65,44,797
975688,56323916,51595492,56576542,52021790,3800,3800,-574,3820,-4089,3375,2553,7171,65,44,797
976689,56324256,51595760,56577404,52022652,3800,3800,-798,5402,-3715,2928,3194,6649,70,42,797
977690,56324628,51595988,56578266,52023514,3800,3800,-939,6734,-3332,2378,3466,5757,70,42,797
978691,56324992,51596188,56579128,52024376,3800,3800,-944,7694,-2912,2142,3620,4677,78,45,799
979692,56325296,51596484,56579990,52025238,3800,3800,-834,8344,-2467,2095,3710,3755,78,45,799
980700,56325656,51596752,56580858,52026106,3800,3800,-706,8810,-2018,2049,3644,3264,61,49,799
981694,56326004,51597032,56581720,52026968,3800,3800,-575,9149,-1627,1866,3672,2750,61,49,799
982695,56326312,51597296,56582582,52027830,3800,3800,-431,9314,-1319,1545,3474,2212,72,66,799
983695,56326664,51597556,56583444,52028692,3800,3800,-286,9407,-1074,1087,2849,2046,72,66,799
984696,56327060,51597904,56584306,52029554,3800,3800,-153,9443,-884,673,2360,1796,66,49,799
985697,56327376,51598212,56585168,52030416,3800,3800,13,9368,-821,110,2596,1215,66,49,799
986698,56327696,51598512,56586030,52031278,3800,3800,204,9215,-885,-594,2252,1178,71,75,798
987699,56328080,51598804,56586892,52032140,3800,3800,390,9133,-1031,-1123,1642,1446,71,75,798
988701,56328440,51599196,56587754,52033002,3800,3800,532,9116,-1292,-1651,1292,1639,65,78,798
989702,56328764,51599596,56588616,52033864,3800,3800,574,9254,-1639,-1833,614,2202,65,78,798
990703,56329124,51599984,56589478,52034726,3800,3800,597,9427,-1996,-1707,285,2028,73,83,800
991703,56329536,51600300,56590340,52035588,3800,3800,636,9501,-2357,-1680,271,1776,73,83,800
992705,56329848,51600760,56591202,52036450,3800,3800,711,9376,-2729,-1676,367,1125,61,83,800
993706,56330220,51601216,56592064,52037312,3800,3800,851,8932,-3130,-1618,693,186,61,83,800
994707,56330716,51601624,56592926,52038174,3800,3800,970,8299,-3472,-1319,655,-46,68,78,801
995707,56331116,51602116,56593788,52039036,3800,3800,1054,7609,-3664,-902,307,-112,68,78,801
996709,56331532,51602624,56594650,52039898,3800,3800,1081,6938,-3697,-488,117,121,80,88,800
997710,56332080,51603068,56595512,52040760,3800,3800,1116,6261,-3679,-155,292,44,80,88,800
998711,56332680,51603596,56596374,52041622,3800,3800,1211,5429,-3699,-122,513,-479,83,101,801
999721,56333232,51604156,56597242,52042490,3800,3800,1370,4445,-3755,-324,556,-671,83,101,801
1000712,56333824,51604676,56598104,52043352,3800,3800,1510,3598,-3774,-494,282,70,116,97,803
1001714,56334524,51605276,56598966,52044214,3800,3800,1584,2940,-3687,-580,172,627,116,97,803
1002715,56335180,51605852,56599828,52045076,3800,3800,1656,2423,-3478,-386,271,909,113,106,804
1003715,56335852,51606472,56600690,52045938,3800,3800,1719,1920,-3175,-444,427,1100,113,106,804
1004717,56336624,51607136,56601552,52046800,3800,3800,1748,1603,-2840,-885,254,1746,115,119,805
1005718,56337380,51607776,56602414,52047662,3800,3800,1711,1433,-2462,-1183,84,2248,115,119,805
1006719,56338096,51608460,56603276,52048524,3800,3800,1664,1477,-2067,-1394,52,2881,130,120,806
1007719,56338968,51609180,56604138,52049386,3800,3800,1630,1677,-1695,-1780,157,3348,130,120,806
1008721,56339756,51609932,56605000,52050248,3800,3800,1561,2091,-1376,-2288,-15,4278,147,124,806
1009722,56340572,51610672,56605862,52051110,3800,3800,1484,2684,-1116,-2913,-234,4736,147,124,806
1010723,56341508,51611496,56606724,52051972,3800,3800,1390,3414,-904,-3256,-323,5066,157,135,809
1011724,56342380,51612348,56607586,52052834,3800,3800,1288,4055,-804,-3447,85,4646,157,135,809
1012725,56343236,51613120,56608448,52053696,3800,3800,1188,4528,-846,-3729,754,4296,169,151,809
1013726,56344100,51613916,56609310,52054558,3800,3800,1067,4851,-960,-3861,928,3962,169,151,809
1014727,56345056,51614700,56610172,52055420,3800,3800,880,4979,-1127,-3744,1052,3500,169,165,810
1015728,56345884,51615564,56611034,52056282,3800,3800,664,4978,-1364,-3887,890,3092,169,165,810
1016728,56346756,51616288,56611896,52057144,3800,3800,449,4924,-1638,-4343,129,3023,164,170,812
1017729,56347628,51616952,56612758,52058006,3800,3800,168,4767,-1936,-5182,-364,3018,164,170,812
1018737,56348492,51617544,56613626,52058874,3800,3800,-105,4564,-2231,-6347,-385,2985,172,158,810
1019731,56349312,51618252,56614488,52059736,3800,3800,-477,4365,-2423,-6895,-932,3334,172,158,810
1020733,56350264,51618804,56615350,52060598,3800,3800,-847,4127,-2459,-6924,-1761,3150,165,155,809
1021734,56351020,51619540,56616212,52061460,3800,3800,-1136,3602,-2285,-6536,-2292,2319,165,155,809
1022735,56351848,51620180,56617074,52062322,3800,3800,-1381,2652,-2012,-5247,-2423,1153,161,127,810
1023736,56352764,51620876,56617936,52063184,3800,3800,-1602,1081,-1796,-3388,-1817,-771,161,127,810
1024737,56353548,51621472,56618798,52064046,3800,3800,-1841,-1064,-1622,-1356,-1194,-2313,161,147,810
1025738,56354340,51622112,56619660,52064908,3800,3800,-2114,-3526,-1362,-20,-1846,-2814,161,147,810
1026739,56355156,51622728,56620522,52065770,3800,3800,-2464,-6035,-989,838,-2181,-2784,159,143,809
1027740,56355856,51623376,56621384,52066632,3800,3800,-3230,-7977,-455,1871,-3234,-579,159,143,809
1028740,56356676,51623888,56622246,52067494,3800,3800,-3823,-9931,-77,2235,-2768,-2168,142,122,809
1029741,56357312,51624496,56623108,52068356,3800,3800,-4702,-11421,32,3006,-2552,1008,142,122,809
1030742,56358192,51625080,56623970,52069218,3800,3800,-5706,-12439,14,3605,-2443,1686,151,119,807
1031743,56358804,51625668,56624832,52070080,3800,3800,-6567,-13490,-143,3775,-1974,1596,151,119,807
1032744,56359608,51626372,56625694,52070942,3800,3800,-7146,-14400,-386,3784,-1549,2800,143,112,807
1033745,56360256,51627040,56626556,52071804,3800,3800,-7716,-14954,-613,4074,-1552,4497,143,112,807
1034746,56361084,51627804,56627418,52072666,3800,3800,-8688,-14542,-692,5080,-2121,7696,144,123,808
1035747,56361716,51628448,56628280,52073528,3800,3800,-10060,-13286,-873,5339,-1816,9770,144,123,808
1036748,56362584,51629060,56629142,52074390,3800,3800,-10979,-12296,-1280,5947,127,7662,141,137,808
1037756,56363348,51629692,56630010,52075258,3800,3800,-11600,-11666,-1800,6692,364,9257,141,137,808
1038751,56364100,51630488,56630872,52076120,3800,3800,-12069,-10786,-2151,7590,-233,10424,143,125,808
1039751,56364980,51631200,56631734,52076982,3800,3800,-12457,-9882,-2456,8184,970,10464,143,125,808
1040752,56365876,51631976,56632596,52077844,3800,3800,-12553,-9699,-2920,8880,1497,7901,154,135,808
1041754,56366612,51632816,56633458,52078706,3800,3800,-9289,-4847,-3160,11394,-3852,32767,154,135,808
1042754,56367508,51633596,56634320,52079568,3800,3800,-3045,5508,-3178,10429,-6096,32767,162,164,809
1043756,56368336,51634584,56635182,52080430,3800,3800,313,7331,-3471,6400,30,-2181,162,164,809
1044756,56369232,51635480,56636044,52081292,3800,3800,587,3766,-3801,5924,-183,-1427,144,174,810
1045758,56370104,51636328,56636906,52082154,3800,3800,-78,-15,-3876,7375,-536,-1716,144,174,810
1046758,56370932,51637260,56637768,52083016,3800,3800,-210,-3027,-3879,7546,-758,-4229,153,172,812
1047759,56371860,51638220,56638630,52083878,3800,3800,137,-4752,-3872,6984,-681,-1336,153,172,812
1048760,56372732,51639220,56639492,52084740,3800,3800,-52,-4819,-3597,6492,-3549,4366,152,189,812
1049762,56373624,51640176,56640354,52085602,3800,3800,-282,-4812,-3282,5360,-3611,1766,152,189,812
1050762,56374500,51641148,56641216,52086464,3800,3800,-2,-5181,-3185,3958,-2408,1336,158,198,812
1051763,56375256,51642116,56642078,52087326,3800,3800,292,-5444,-3241,2844,-2466,2748,158,198,812
1052764,56376208,51643044,56642940,52088188,3800,3800,571,-5422,-3322,1683,-2445,3291,167,194,811
1053766,56376888,51643996,56643802,52089050,3800,3800,687,-4706,-3218,798,-2781,5513,167,194,811
1054767,56377588,51644972,56644664,52089912,3800,3800,826,-3308,-2989,502,-2969,6095,155,192,814
1055768,56378356,51645884,56645526,52090774,3800,3800,1103,-1930,-2725,109,-3450,6005,155,192,814
1056775,56379040,51646708,56646394,52091642,3800,3800,1454,-423,-2461,-745,-4376,7090,171,194,814
1057770,56379660,51647452,56647256,52092504,3800,3800,1839,1711,-1960,-652,-6224,9377,171,194,814
1058771,56380308,51648152,56648118,52093366,3800,3800,2048,4572,-1369,-976,-7198,10952,151,194,813
1059772,56380856,51648804,56648980,52094228,3800,3800,2077,7568,-929,-1496,-6755,10742,151,194,813
1060773,56381360,51649340,56649842,52095090,3800,3800,2063,10252,-745,-1805,-6649,9960,137,169,810
1061774,56381892,51649768,56650704,52095952,3800,3800,2067,12510,-707,-2064,-6928,8999,137,169,810
1062775,56382368,51650148,56651566,52096814,3800,3800,2115,14358,-729,-1884,-7310,7930,112,122,806
1063776,56382796,51650480,56652428,52097676,3800,3800,2177,15940,-783,-1409,-7533,7144,112,122,806
1064776,56383196,51650736,56653290,52098538,3800,3800,2263,17237,-834,-1152,-7269,6430,117,97,804
1065778,56383592,51650944,56654152,52099400,3800,3800,2409,18218,-873,-915,-7041,5406,117,97,804
1066779,56383984,51651068,56655014,52100262,3800,3800,2668,18707,-880,-593,-6956,3839,92,73,800
1067780,56384368,51651220,56655876,52101124,3800,3800,3006,18628,-935,-567,-6561,2341,92,73,800
1068781,56384752,51651372,56656738,52101986,3800,3800,3226,18215,-1116,-738,-5972,1988,75,40,800
1069782,56385120,51651556,56657600,52102848,3800,3800,3315,17577,-1420,-1012,-5441,1581,75,40,800
1070783,56385504,51651728,56658462,52103710,3800,3800,3328,16740,-1887,-1565,-4221,1241,71,31,799
1071784,56385932,51651904,56659324,52104572,3800,3800,5462,15263,-2198,-5586,-4726,16349,71,31,799
1072785,56386280,51652048,56660186,52105434,3800,3800,13087,12596,-1305,-12917,-9014,32767,86,32,799
1073785,56386680,51652196,56661048,52106296,3800,3800,18008,11133,-627,-3128,-6959,15711,86,32,799
1074787,56387068,51652424,56661910,52107158,3800,3800,17768,10351,-737,-1252,-5029,1774,73,37,798
1075797,56387448,51652636,56662778,52108026,3800,3800,15726,10039,-1355,-1071,-4371,2312,73,37,798
1076788,56387820,51652876,56663640,52108888,3800,3800,14076,9279,-2013,-1347,-2903,1247,89,39,799
1077789,56388192,51653120,56664502,52109750,3800,3800,12758,8521,-2372,-1787,-2143,2694,89,39,799
1078790,56388600,51653296,56665364,52110612,3800,3800,10988,7391,-1942,-7020,-1488,3484,68,42,799
1079791,56388980,51653464,56666226,52111474,3800,3800,9271,4475,-1399,-7259,1088,-995,68,42,799
1080792,56389404,51653712,56667088,52112336,3800,3800,8223,1529,-1789,-2120,2047,-2887,70,49,799
1081793,56389800,51653964,56667950,52113198,3800,3800,7350,-324,-2544,5,2583,-585,70,49,799
1082795,56390180,51654260,56668812,52114060,3800,3800,5613,25,-2649,2237,3446,6759,73,49,799
1083795,56390580,51654484,56669674,52114922,3800,3800,3455,1265,-2305,3358,3480,5793,73,49,799
1084796,56391032,51654688,56670536,52115784,3800,3800,1993,819,-2142,1753,3994,600,91,57,798
1085797,56391392,51654888,56671398,52116646,3800,3800,1364,-521,-2274,1430,3695,81,91,57,798
1086799,56391764,51655156,56672260,52117508,3800,3800,966,-2414,-2479,1736,3800,-903,82,46,798
1087800,56392196,51655428,56673122,52118370,3800,3800,515,-3713,-2461,1819,4232,843,82,46,798
1088801,56392584,51655732,56673984,52119232,3800,3800,-9,-4381,-2251,2064,4536,1567,88,54,799
1089801,56392948,51655980,56674846,52120094,3800,3800,-526,-4955,-2008,2059,5260,1787,88,54,799
1090803,56393388,51656200,56675708,52120956,3800,3800,-875,-5261,-1784,1171,6664,2781,91,67,799
1091804,56393788,51656428,56676570,52121818,3800,3800,-932,-5742,-1721,468,7478,1902,91,67,799
1092805,56394120,51656648,56677432,52122680,3800,3800,-799,-6134,-1875,73,7432,2421,74,50,798
1093806,56394528,51656876,56678294,52123542,3800,3800,-534,-6213,-2107,-853,7758,3390,74,50,798
1094813,56394968,51657136,56679162,52124410,3800,3800,-184,-6004,-2379,-1311,7647,4071,72,51,799
1095807,56395312,51657336,56680024,52125272,3800,3800,262,-5554,-2737,-1944,7696,4504,72,51,799
1096808,56395652,51657524,56680886,52126134,3800,3800,750,-5034,-3138,-2785,7466,4563,72,49,798
1097809,56396052,51657712,56681748,52126996,3800,3800,1148,-4545,-3521,-3113,6064,4256,72,49,798
1098811,56396456,51657940,56682610,52127858,3800,3800,1531,-4187,-3786,-3557,5101,3946,72,45,797
1099811,56396808,51658184,56683472,52128720,3800,3800,1935,-3859,-3954,-3778,4380,3531,72,45,797
1100812,56397240,51658420,56684334,52129582,3800,3800,2355,-3648,-4078,-3737,3544,2723,88,63,799
1101813,56397688,51658608,56685196,52130444,3800,3800,2781,-3664,-4094,-3766,3242,2001,88,63,799
1102815,56398096,51658828,56686058,52131306,3800,3800,3176,-3872,-3970,-3443,2712,1387,67,44,799
1103815,56398564,51659048,56686920,52132168,3800,3800,3554,-4178,-3692,-3139,1843,808,67,44,799
1104817,56399104,51659252,56687782,52133030,3800,3800,3934,-4564,-3283,-3195,1377,341,77,45,799
1105818,56399556,51659452,56688644,52133892,3800,3800,4345,-5014,-2807,-3299,738,-223,77,45,799
1106819,56400016,51659608,56689506,52134754,3800,3800,4764,-5617,-2289,-3165,333,-916,88,58,798
1107820,56400624,51659764,56690368,52135616,3800,3800,5150,-6161,-1718,-3055,-199,-808,88,58,798
1108820,56401144,51659924,56691230,52136478,3800,3800,5487,-6528,-1124,-3068,-867,-494,94,38,798
1109821,56401660,51660060,56692092,52137340,3800,3800,5835,-6734,-529,-3097,-991,-451,94,38,798
1110823,56402204,51660188,56692954,52138202,3800,3800,6254,-6768,72,-3149,-1056,-373,97,32,798
1111824,56402848,51660356,56693816,52139064,3800,3800,6652,-6585,662,-3255,-1466,41,97,32,798
1112824,56403384,51660492,56694678,52139926,3800,3800,7019,-6002,1220,-3550,-1786,790,97,34,799
1113832,56403972,51660612,56695546,52140794,3800,3800,7316,-5078,1749,-3734,-1913,1636,97,34,799
1114827,56404696,51660740,56696408,52141656,3800,3800,7580,-3748,2223,-3985,-2096,2477,114,28,800
1115828,56405292,51660872,56697270,52142518,3800,3800,7777,-2240,2616,-4303,-2078,2574,114,28,800
1116829,56405956,51660984,56698132,52143380,3800,3800,7995,-656,2907,-4274,-2114,2379,108,35,800
1117829,56406716,51661120,56698994,52144242,3800,3800,8155,790,3118,-4047,-1939,1956,108,35,800
1118830,56407368,51661244,56699856,52145104,3800,3800,8287,2306,3310,-3620,-2163,1963,128,41,799
1119831,56408084,51661368,56700718,52145966,3800,3800,8318,3782,3510,-3246,-2381,1510,128,41,799
1120832,56408888,51661508,56701580,52146828,3800,3800,8297,5075,3713,-2954,-2386,710,149,29,802
1121834,56409604,51661684,56702442,52147690,3800,3800,8232,5975,3887,-2547,-2277,-458,149,29,802
1122834,56410364,51661908,56703304,52148552,3800,3800,8097,6412,3973,-1928,-1998,-1751,151,39,802
1123836,56411088,51662116,56704166,52149414,3800,3800,7921,6501,3987,-1401,-1857,-2724,151,39,802
1124836,56411972,51662284,56705028,52150276,3800,3800,7674,6251,3993,-1066,-1987,-3561,154,45,803
1125838,56412692,51662456,56705890,52151138,3800,3800,7335,5911,4033,-733,-2076,-3634,154,45,803
1126838,56413464,51662644,56706752,52152000,3800,3800,6860,5501,4125,-293,-2272,-3634,150,41,803
1127840,56414312,51662816,56707614,52152862,3800,3800,6262,4974,4197,162,-1846,-4052,150,41,803
1128840,56415104,51663032,56708476,52153724,3800,3800,5556,4228,4177,248,-1194,-4500,164,40,803
1129841,56415908,51663272,56709338,52154586,3800,3800,4819,3209,4066,406,-828,-5109,164,40,803
1130843,56416760,51663488,56710200,52155448,3800,3800,4055,1900,3878,894,-391,-5875,175,56,802
1131843,56417496,51663692,56711062,52156310,3800,3800,3201,549,3713,1419,101,-5459,175,56,802
1132851,56418268,51663900,56711930,52157178,3800,3800,2186,-510,3624,1723,23,-4224,169,59,804
1133845,56419016,51664096,56712792,52158040,3800,3800,1098,-1461,3549,1935,404,-4227,169,59,804
1134846,56419684,51664292,56713654,52158902,3800,3800,1,-2516,3367,2181,1466,-4462,145,43,803
1135848,56420352,51664528,56714516,52159764,3800,3800,-1134,-3520,3133,2663,2018,-3942,145,43,803
1136849,56421080,51664748,56715378,52160626,3800,3800,-2338,-4274,2942,2985,2211,-3019,136,57,803
1137850,56421672,51664956,56716240,52161488,3800,3800,-3563,-4832,2836,3229,2265,-2760,136,57,803
1138851,56422352,51665164,56717102,52162350,3800,3800,-4739,-5325,2783,3128,2244,-2462,133,49,802
1139852,56423004,51665432,56717964,52163212,3800,3800,-5823,-5660,2753,3409,2373,-1906,133,49,802
1140852,56423704,51665640,56718826,52164074,3800,3800,-6874,-5871,2689,3606,3050,-1402,130,49,801
1141853,56424380,51665884,56719688,52164936,3800,3800,-7924,-6063,2550,3849,3451,-1423,130,49,801
1142854,56425068,51666148,56720550,52165798,3800,3800,-8936,-6280,2312,3832,3418,-1193,139,60,803
1143856,56425788,51666424,56721412,52166660,3800,3800,-9951,-6134,1987,4022,3520,356,139,60,803
1144856,56426492,51666672,56722274,52167522,3800,3800,-11022,-5554,1548,3727,3000,1820,146,48,803
1145857,56427204,51666980,56723136,52168384,3800,3800,-12070,-4740,1009,3494,2159,2355,146,48,803
1146858,56428060,51667216,56723998,52169246,3800,3800,-12987,-4085,396,3717,1900,2079,144,52,803
1147859,56428800,51667516,56724860,52170108,3800,3800,-13742,-3624,-271,3930,1200,2095,144,52,803
1148860,56429552,51667832,56725722,52170970,3800,3800,-14397,-3244,-888,3822,-76,2168,135,62,803
1149861,56430456,51668124,56726584,52171832,3800,3800,-14926,-2935,-1398,3722,-1371,1969,135,62,803
1150862,56431320,51668404,56727446,52172694,3800,3800,-15190,-3090,-1785,4148,-1785,274,144,67,803
1151873,56432148,51668760,56728314,52173562,3800,3800,-15129,-3895,-2093,4881,-2253,-1360,144,67,803
1152865,56432984,51669140,56729176,52174424,3800,3800,-14812,-5306,-2355,5793,-2770,-2835,141,60,803
1153866,56433912,51669492,56730038,52175286,3800,3800,-14369,-7015,-2547,6601,-3918,-2833,141,60,803
1154867,56434756,51669840,56730900,52176148,3800,3800,-13903,-8214,-2669,6796,-5001,-1132,165,82,804
1155868,56435628,51670168,56731762,52177010,3800,3800,-13384,-8819,-2803,6692,-5547,292,165,82,804
1156868,56436616,51670652,56732624,52177872,3800,3800,-12800,-8937,-3044,6572,-6217,1895,158,72,805
1157870,56437480,51671072,56733486,52178734,3800,3800,-12176,-8435,-3355,6352,-6965,4200,158,72,805
1158870,56438388,51671424,56734348,52179596,3800,3800,-11470,-7434,-3688,5925,-7360,5608,170,75,806
1159872,56439320,51671880,56735210,52180458,3800,3800,-10658,-6238,-4074,5437,-7064,6500,170,75,806
1160873,56440196,51672328,56736072,52181320,3800,3800,-9736,-4939,-4502,5231,-6443,7047,171,81,806
1161873,56441008,51672720,56736934,52182182,3800,3800,-8368,-3295,-4919,5582,-7117,9043,171,81,806
1162874,56441976,51673204,56737796,52183044,3800,3800,-461,11225,-3678,1385,-21357,32767,167,98,805
1163875,56442640,51673700,56738658,52183906,3800,3800,8694,25465,-2298,4791,-13418,21619,167,98,805
1164876,56443420,51674124,56739520,52184768,3800,3800,12375,27443,-2222,9610,-3299,-3886,161,98,807
1165877,56444268,51674680,56740382,52185630,3800,3800,12105,22040,-2659,10522,-2379,-5017,161,98,807
1166878,56444980,51675224,56741244,52186492,3800,3800,11313,16504,-3093,11102,-1125,-6825,173,85,807
1167879,56445704,51675660,56742106,52187354,3800,3800,11273,12652,-2909,10973,-2317,-5908,173,85,807
1168880,56446400,51676260,56742968,52188216,3800,3800,11648,9993,-2210,10334,-3201,-5799,155,108,807
1169881,56447108,51676816,56743830,52189078,3800,3800,11809,7759,-1538,10143,-2716,-4060,155,108,807
1170889,56447764,51677352,56744698,52189946,3800,3800,10951,6964,-693,8989,-3934,1925,161,106,807
1171883,56448332,51677996,56745560,52190808,3800,3800,9219,7236,55,7527,-3285,3290,161,106,807
1172884,56448888,51678576,56746422,52191670,3800,3800,7281,8015,690,6259,-4227,4669,167,120,806
1173885,56449348,51679312,56747284,52192532,3800,3800,5634,8711,1357,4942,-3649,4194,167,120,806
1174886,56449748,51679912,56748146,52193394,3800,3800,4822,7887,1808,3269,1219,-696,113,123,805
1175887,56450120,51680640,56749008,52194256,3800,3800,4870,7234,1685,2170,2648,1448,113,123,805
1176888,56450348,51681304,56749870,52195118,3800,3800,4462,7461,1329,2249,2966,3397,104,128,806
1177889,56450540,51681876,56750732,52195980,3800,3800,3859,8386,921,2095,2145,4057,104,128,806
1178890,56450700,51682464,56751594,52196842,3800,3800,3150,9466,344,1525,3545,5019,77,123,804
1179891,56450748,51682952,56752456,52197704,3800,3800,2362,10826,-596,988,4815,6087,77,123,804
1180892,56450796,51683564,56753318,52198566,3800,3800,1425,12100,-1952,16,6004,5538,42,116,801
1181893,56450820,51684108,56754180,52199428,3800,3800,737,13163,-3595,-433,7304,4569,42,116,801
1182894,56450832,51684668,56755042,52200290,3800,3800,274,14144,-5221,-569,7035,4531,14,111,801
1183895,56450820,51685232,56755904,52201152,3800,3800,-277,15205,-6754,-496,7830,4959,14,111,801
1184897,56450844,51685684,56756766,52202014,3800,3800,-795,16054,-8186,-706,7145,3699,21,108,798
1185898,56450888,51686212,56757628,52202876,3800,3800,-1153,16305,-9606,-713,7008,1758,21,108,798
1186899,56450924,51686612,56758490,52203738,3800,3800,-1507,16061,-10922,-832,6608,854,21,103,799
1187900,56450988,51686984,56759352,52204600,3800,3800,-1905,15639,-11930,-749,5283,733,21,103,799
1188901,56451160,51687372,56760214,52205462,3800,3800,-2199,14995,-12543,-742,4147,-404,21,84,798
1189909,56451300,51687720,56761082,52206330,3800,3800,-2485,13874,-12847,-1115,3803,-1569,21,84,798
1190903,56451460,51687964,56761944,52207192,3800,3800,-2657,11661,-12572,-4946,2854,-3317,33,76,799
1191904,56451664,51688268,56762806,52208054,3800,3800,-2600,6957,-11558,-8975,987,-6168,33,76,799
1192905,56451888,51688616,56763668,52208916,3800,3800,-2585,1146,-10031,-11487,-981,-5369,40,63,798
1193906,56452072,51688976,56764530,52209778,3800,3800,-2641,-4385,-8244,-12971,-1479,-4588,40,63,798
1194907,56452316,51689264,56765392,52210640,3800,3800,-2702,-8712,-6556,-12692,-571,-2487,40,77,797
1195908,56452572,51689544,56766254,52211502,3800,3800,-2881,-11136,-5161,-12221,-607,1095,40,77,797
1196909,56452800,51689812,56767116,52212364,3800,3800,-3141,-11896,-3868,-12197,-695,4510,52,69,797
1197910,56453008,51690140,56767978,52213226,3800,3800,-3443,-11594,-2557,-11639,-648,6702,52,69,797
1198911,56453300,51690432,56768840,52214088,3800,3800,-3867,-10356,-1310,-10518,-1350,9200,40,55,798
1199912,56453508,51690764,56769702,52214950,3800,3800,-4213,-8703,-249,-9843,-948,9082,40,55,798
1200913,56453700,51691180,56770564,52215812,3800,3800,-4425,-6464,584,-8544,-345,10250,63,55,798
1201914,56453948,51691656,56771426,52216674,3800,3800,-4690,-3443,1267,-7944,-227,11692,63,55,798
1202915,56454200,51692052,56772288,52217536,3800,3800,-4860,-1130,1836,-7875,-349,9064,61,78,799
1203916,56454388,51692612,56773150,52218398,3800,3800,-4863,327,2238,-7172,-390,7820,61,78,799
1204917,56454616,51693140,56774012,52219260,3800,3800,-4689,1409,2452,-6188,70,7259,58,84,799
1205918,56454892,51693692,56774874,52220122,3800,3800,-4457,2223,2442,-4858,567,6323,58,84,799
1206918,56455108,51694176,56775736,52220984,3800,3800,-4170,2688,2369,-3431,238,4965,46,113,798
1207920,56455316,51694740,56776598,52221846,3800,3800,-3794,2632,2332,-1970,426,3836,46,113,798
1208927,56455580,51695292,56777466,52222714,3800,3800,-3433,2447,2338,-69,239,3589,63,114,801
1209922,56455784,51696124,56778328,52223576,3800,3800,-3102,1855,2410,1037,-339,2240,63,114,801
1210923,56455972,51696592,56779190,52224438,3800,3800,-2717,784,2475,1840,-775,1081,45,121,801
1211924,56456216,51697384,56780052,52225300,3800,3800,-2307,-545,2439,2766,-509,719,45,121,801
1212925,56456416,51698088,56780914,52226162,3800,3800,-1881,-1967,2303,3208,-745,450,60,118,801
1213926,56456620,51698836,56781776,52227024,3800,3800,-1441,-3391,2089,3674,-1146,557,60,118,801
1214927,56456828,51699796,56782638,52227886,3800,3800,-342,-4120,1836,5048,-2011,8995,58,142,802
1215928,56457040,51700668,56783500,52228748,3800,3800,2756,-1653,1356,8570,-3351,32767,58,142,802
1216929,56457264,51701516,56784362,52229610,3800,3800,5734,690,828,5960,-3184,21031,44,160,802
1217930,56457472,51702412,56785224,52230472,3800,3800,6544,482,457,3517,-2071,3069,44,160,802
1218931,56457756,51703248,56786086,52231334,3800,3800,6090,-858,106,3234,-1647,2564,57,179,803
1219932,56458012,51704196,56786948,52232196,3800,3800,5500,-1961,-368,2916,-840,3064,57,179,803
1220933,56458252,51705188,56787810,52233058,3800,3800,5083,-2406,-960,2231,-52,3750,66,186,805
1221934,56458516,51706120,56788672,52233920,3800,3800,4699,-2522,-1587,1701,256,4301,66,186,805
1222935,56458780,51706996,56789534,52234782,3800,3800,4292,-2463,-2167,1176,140,4845,67,193,806
1223936,56459000,51707912,56790396,52235644,3800,3800,3824,-2340,-2631,607,0,5167,67,193,806
1224937,56459296,51708708,56791258,52236506,3800,3800,3276,-2114,-2963,100,-371,5759,67,174,806
1225938,56459544,51709536,56792120,52237368,3800,3800,2723,-1636,-3192,-572,-444,6383,67,174,806
1226939,56459780,51710252,56792982,52238230,3800,3800,2212,-1188,-3349,-1359,-579,5962,63,184,806
1227949,56460092,51710968,56793850,52239098,3800,3800,1750,-971,-3418,-1936,-775,5471,63,184,806
1228941,56460380,51711660,56794712,52239960,3800,3800,1352,-825,-3389,-2745,-789,5518,65,166,803
1229942,56460632,51712256,56795574,52240822,3800,3800,995,-752,-3298,-3480,-647,5162,65,166,803
1230943,56460896,51712812,56796436,52241684,3800,3800,648,-870,-3134,-3815,-752,4714,54,151,803
1231943,56461236,51713368,56797298,52242546,3800,3800,1074,-1142,-2721,-5715,-914,10660,54,151,803
1232944,56461532,51713936,56798160,52243408,3800,3800,3756,-1266,-1819,-10024,-920,32354,71,114,803
1233946,56461828,51714504,56799022,52244270,3800,3800,5784,-1370,-1121,-6976,1352,13273,71,114,803
1234947,56462216,51715044,56799884,52245132,3800,3800,5604,-1703,-763,-5278,2496,4430,67,109,803
1235948,56462536,51715600,56800746,52245994,3800,3800,4418,-1650,-494,-5232,2807,5535,67,109,803
1236949,56462892,51716148,56801608,52246856,3800,3800,3270,-2085,-14,-7891,4751,5301,64,114,802
1237950,56463316,51716760,56802470,52247718,3800,3800,2506,-2922,734,-10392,6287,5910,64,114,802
1238951,56463788,51717348,56803332,52248580,3800,3800,2167,-5018,1850,-18760,5352,3489,76,105,801
1239952,56464232,51717968,56804194,52249442,3800,3800,2056,-7419,2967,-16129,3944,3533,76,105,801
1240952,56464716,51718588,56805056,52250304,3800,3800,1742,-8592,3625,-7126,2470,4055,90,114,802
1241954,56465240,51719212,56805918,52251166,3800,3800,1330,-8989,3959,-2578,2511,2935,90,114,802
1242955,56465724,51719900,56806780,52252028,3800,3800,930,-9134,4215,-2415,2454,3527,100,115,804
1243956,56466252,51720496,56807642,52252890,3800,3800,668,-9734,4438,-2424,2850,2404,100,115,804
1244957,56466824,51721148,56808504,52253752,3800,3800,582,-10688,4565,-1311,3276,2150,98,132,805
1245958,56467356,51721764,56809366,52254614,3800,3800,631,-11263,4616,-427,3191,2570,98,132,805
1246966,56467928,51722404,56810234,52255482,3800,3800,851,-12091,4691,-460,2632,1632,92,124,805
1247960,56468512,51723000,56811096,52256344,3800,3800,1091,-12725,4798,-30,2040,3050,92,124,805
1248961,56469124,51723660,56811958,52257206,3800,3800,1260,-13029,4967,778,2042,3648,113,117,805
1249962,56469744,51724260,56812820,52258068,3800,3800,1405,-12766,5120,1411,1975,4940,113,117,805
1250963,56470380,51724956,56813682,52258930,3800,3800,1592,-12410,5191,963,1767,4672,106,127,803
1251964,56471016,51725600,56814544,52259792,3800,3800,1819,-12102,5203,751,1755,5460,106,127,803
1252965,56471692,51726304,56815406,52260654,3800,3800,2042,-11148,5199,1101,1757,7139,117,125,806
1253966,56472436,51727012,56816268,52261516,3800,3800,2280,-9983,5237,803,1569,6905,117,125,806
1254967,56473148,51727692,56817130,52262378,3800,3800,2621,-8741,5213,-345,1321,6967,136,126,807
1255968,56473868,51728344,56817992,52263240,3800,3800,3062,-7809,5080,-1100,1323,6116,136,126,807
1256968,56474700,51728996,56818854,52264102,3800,3800,3598,-6667,4958,-1178,807,6700,144,127,808
1257970,56475388,51729640,56819716,52264964,3800,3800,4164,-5381,4868,-1736,123,6324,144,127,808
