"Data file recorded 2014/9/24  13:48:22"
"%  Right Stride Frequency         = 3.0"
"%  Left Stride Frequency         = 3.0"
"%  Phase (Fractional)         = 32768.0"
"%  Experiment.py "
"%  Motor Gains    = [1800, 200, 100, 0, 0, 1800, 200, 100, 0, 0]
"% Columns: "
"% time | Right Leg Pos | Left Leg Pos | Commanded Right Leg Pos | Commanded Left Leg Pos | DCR | DCL | GyroX | GryoY | GryoZ | AX | AY | AZ | RBEMF | LBEMF | VBatt "
11424,630196,1187684,614030,1236622,-3800,3800,514,749,-1139,229,-201,4067,7,8,924
12418,630184,1187704,614227,1236819,-3800,3800,513,747,-1135,199,-207,4062,1,3,925
13419,630196,1187740,614424,1237016,-3800,3800,516,752,-1135,187,-214,4078,1,3,925
14420,630032,1187780,614621,1237213,-3800,3800,513,745,-1138,199,-182,4095,-24,5,880
15408,629736,1187852,614818,1237410,-3488,3800,514,778,-1141,161,-140,4117,-24,5,880
16409,629428,1187920,615015,1237607,-3193,3800,494,793,-1123,361,-176,4142,-55,7,881
17410,629048,1187996,615212,1237804,-2493,3800,457,690,-1088,1003,191,3814,-55,7,881
18411,628620,1188060,615409,1238001,-1921,3800,375,677,-1024,1702,285,4154,-69,13,881
19412,628172,1188176,615606,1238198,-1515,3800,267,753,-988,1967,580,4250,-69,13,881
20413,627768,1188268,615803,1238395,-1529,3800,149,839,-1014,2169,660,4335,-79,2,890
21414,627336,1188396,616000,1238592,-1079,3800,22,1003,-1051,2393,532,4599,-79,2,890
22415,626952,1188532,616197,1238789,-1126,3800,-108,1219,-1084,2373,420,4792,-88,10,895
23416,626624,1188696,616394,1238986,-1247,3800,-244,1511,-1130,2197,64,4992,-88,10,895
24417,626304,1188876,616591,1239183,-1072,3800,-356,1708,-1189,2021,-128,4657,-76,32,897
25418,626076,1189040,616788,1239380,-1462,3800,-451,1850,-1266,1916,-233,4635,-76,32,897
26419,625868,1189232,616985,1239577,-1411,3800,-518,2005,-1337,1444,-519,4447,-58,38,895
27420,625692,1189412,617182,1239774,-1449,3800,-562,2053,-1377,849,-1102,4273,-58,38,895
28422,625532,1189608,617379,1239971,-1393,3800,-605,2064,-1367,402,-1760,4360,-33,23,895
29422,625412,1189788,617576,1240168,-1506,3800,-665,2103,-1284,157,-2279,4582,-33,23,895
30423,625320,1189972,617773,1240365,-1555,3800,-726,2218,-1166,-49,-2298,4651,-33,33,895
31424,625256,1190148,617970,1240562,-1617,3800,-759,2252,-1046,-306,-2285,4385,-33,33,895
32425,625204,1190368,618167,1240759,-1584,3800,-766,2244,-927,-614,-2023,4502,-11,24,895
33426,625176,1190548,618364,1240956,-1636,3800,-739,2234,-810,-622,-1484,4987,-11,24,895
34427,625176,1190772,618561,1241153,-1726,3800,-678,2326,-683,-658,-1149,5925,4,33,892
35428,625168,1190996,618758,1241350,-1587,3800,-151,2914,-430,-1606,-1678,11954,4,33,892
36429,625168,1191232,618955,1241547,-1552,3800,1416,4444,36,-3240,-2827,23649,-9,34,893
37430,625168,1191488,619152,1241744,-1466,3800,3023,5585,437,-2787,-1730,15358,-9,34,893
38431,625156,1191716,619349,1241941,-1300,3800,3574,5507,586,-1722,-482,5459,-9,34,893
39432,625160,1191936,619546,1242138,-1318,3800,3406,4735,562,-1438,-455,3841,-9,34,893
40433,625156,1192160,619743,1242335,-1180,3800,3130,3990,507,-1539,-155,3659,2,46,893
41434,625152,1192412,619940,1242532,-1093,3800,2985,3334,489,-1636,-717,3332,2,46,893
42435,625132,1192668,620137,1242729,-899,3800,2900,2679,493,-1721,-814,3012,-11,55,896
43436,625132,1192936,620334,1242926,-938,3800,2784,2033,474,-1766,-460,2768,-11,55,896
44437,625112,1193192,620531,1243123,-719,3800,2616,1243,421,-1773,-432,2218,0,48,897
45438,625100,1193456,620728,1243320,-677,3800,2401,504,367,-2071,-361,2204,0,48,897
46439,625092,1193752,620925,1243517,-613,3800,2163,-136,313,-2223,-101,2486,10,40,898
47440,625084,1194072,621122,1243714,-524,3800,1932,-747,237,-2019,281,2725,10,40,898
48441,625088,1194420,621319,1243911,-515,3800,1736,-1220,167,-1816,467,3070,-4,49,899
49442,625064,1194740,621516,1244108,-244,3800,1586,-1678,141,-1900,813,2884,-4,49,899
50443,625072,1195084,621713,1244305,-361,3800,1468,-2179,109,-1714,1356,2728,10,67,901
51444,625076,1195564,621910,1244502,-252,3800,1373,-2664,61,-1456,1762,2699,10,67,901
52445,625068,1195996,622107,1244699,-87,3800,1297,-3091,46,-1277,2073,3020,14,76,902
53446,625068,1196500,622304,1244896,-51,3800,1222,-3363,43,-1000,2227,3095,14,76,902
54447,625068,1197104,622501,1245093,34,3800,1162,-3729,68,-949,2209,2969,12,94,903
55448,625072,1197708,622698,1245290,94,3800,1130,-3989,154,-912,2097,3244,12,94,903
56449,625060,1198340,622895,1245487,285,3800,1149,-4241,264,-739,1951,2905,13,105,905
57450,625060,1198980,623092,1245684,297,3800,1215,-4500,388,-814,1793,2953,13,105,905
58451,625056,1199740,623289,1245881,410,3800,1310,-4589,576,-756,1542,3485,8,137,904
59452,625052,1200556,623486,1246078,497,3800,1393,-4540,798,-481,1330,3628,8,137,904
60453,625048,1201364,623683,1246275,586,3800,1492,-4372,1015,-366,1311,3927,8,145,904
61454,625048,1202216,623880,1246472,647,3800,1649,-4226,1203,-220,1304,3526,8,145,904
62455,625056,1203116,624077,1246669,680,3800,1846,-4180,1363,29,842,3244,16,168,906
63456,625076,1204176,624274,1246866,682,3800,2056,-4024,1537,255,378,3563,16,168,906
64457,625116,1205124,624471,1247063,626,3800,2271,-3732,1730,459,14,3701,24,162,907
65458,625148,1206196,624668,1247260,749,3800,2520,-3360,1903,733,-194,3590,24,162,907
66459,625180,1207268,624865,1247457,821,3800,2802,-2972,2044,870,-403,3566,26,186,908
67460,625236,1208380,625062,1247654,733,3800,3110,-2574,2136,1140,-601,3377,26,186,908
68461,625272,1209472,625259,1247851,929,3800,3444,-2228,2129,1332,-802,2902,24,195,908
69462,625312,1210484,625456,1248048,973,3800,3807,-1933,2040,1435,-1080,2723,24,195,908
70463,625364,1211704,625653,1248245,962,3800,4138,-1453,1979,1758,-2039,3215,10,198,907
71464,625408,1212832,625850,1248442,1079,3800,4325,-667,1955,1755,-3110,3919,10,198,907
72465,625484,1213920,626047,1248639,932,3800,4481,173,1891,1569,-3644,3364,32,182,907
73466,625552,1214952,626244,1248836,1039,3800,4720,757,1724,1468,-3898,2480,32,182,907
74466,625604,1215972,626441,1249033,1202,3800,5014,1185,1517,1639,-4283,2177,17,190,906
75468,625716,1217144,626638,1249230,865,3800,5257,1766,1347,1916,-4763,2607,17,190,906
76469,625808,1218256,626835,1249427,1037,3800,5414,2497,1204,2144,-4943,2581,22,198,907
77470,625904,1219276,627032,1249624,1056,3800,5555,3168,1045,2242,-4748,2023,22,198,907
78471,626032,1220248,627229,1249821,887,3800,5738,3640,873,2367,-4544,1243,29,194,908
79472,626168,1221284,627426,1250018,863,3800,5936,3848,673,2762,-4094,469,29,194,908
80473,626316,1222248,627623,1250215,811,3800,6099,3814,400,2804,-2832,-198,35,188,906
81474,626452,1223284,627820,1250412,913,3800,6163,3757,14,2706,-1541,-327,35,188,906
82475,626564,1224184,628017,1250609,1100,3800,6158,3643,-404,3021,-1330,-719,24,186,906
83476,626712,1225180,628214,1250806,897,3800,6028,3591,-809,3165,-921,-477,24,186,906
84477,626868,1226192,628411,1251003,866,3800,5774,3632,-1299,2935,-129,-324,24,193,908
85478,627016,1227168,628608,1251200,937,3800,5436,3632,-1948,2901,1041,-573,24,193,908
86479,627168,1228116,628805,1251397,932,3800,4991,3541,-2741,2980,2154,-661,24,187,907
87480,627332,1229036,629002,1251594,871,3800,4455,3227,-3659,2890,3077,-1624,24,187,907
88481,627488,1229860,629199,1251791,940,3800,3821,2563,-4662,2726,3883,-2442,34,174,906
89482,627656,1230776,629396,1251988,878,3800,3208,1678,-5549,2867,4056,-2780,34,174,906
90483,627800,1231424,629593,1252185,1051,3800,2577,870,-6119,3379,3727,-2175,25,156,906
91484,627996,1232236,629790,1252382,728,3800,1905,295,-6329,3610,3197,-1646,25,156,906
92485,628148,1233260,629987,1252579,1023,3800,1283,-157,-6252,3603,2968,-1376,30,145,903
93493,628284,1234160,630414,1253006,1251,3800,786,-492,-5949,3671,2848,-977,30,145,903
94487,628492,1235092,630611,1253203,797,3800,470,-826,-5430,3825,2715,-818,41,160,905
95475,628648,1236048,630808,1253400,1140,3550,330,-1268,-4760,4117,2899,-835,41,160,905
96476,628784,1237016,631005,1253597,1293,3139,186,-1357,-4059,4145,3314,624,46,190,905
97477,628936,1238000,631202,1253794,1212,2696,-649,-147,-3226,4236,3079,5989,46,190,905
98478,629080,1239068,631399,1253991,1287,1791,-2352,2773,-2143,4075,1127,10281,43,203,908
99479,629208,1240152,631596,1254188,1417,1305,-3860,4665,-1320,3719,4463,3916,43,203,908
100480,629348,1241168,631793,1254385,1367,1373,-4263,4194,-937,2747,6184,-2265,28,205,911
101481,629460,1242056,631990,1254582,1580,1871,-4180,2195,-681,1965,5239,-3816,28,205,911
102482,629580,1242856,632187,1254779,1564,2158,-4067,424,-313,1465,4142,-2648,40,185,913
103483,629752,1243628,632384,1254976,1251,2083,-4253,-314,230,1341,3203,-25,40,185,913
104484,629892,1244264,632581,1255173,1476,2742,-4735,-25,936,1881,1502,2586,23,140,910
105485,630032,1244856,632778,1255370,1502,2846,-5367,1032,1733,1805,324,5188,23,140,910
106486,630180,1245408,632975,1255567,1474,2942,-5814,2176,2407,950,813,4875,31,111,911
107487,630292,1245888,633172,1255764,1737,3270,-6151,3204,2682,352,1954,5345,31,111,911
108488,630424,1246428,633369,1255961,1642,2746,-6612,4547,2595,-289,1840,7224,31,98,905
109489,630552,1246880,633566,1256158,1697,3186,-7193,6135,2403,-1037,1497,7403,31,98,905
110490,630680,1247316,633763,1256355,1728,3182,-7723,7622,2091,-1697,1378,7186,39,105,900
111491,630824,1247768,633960,1256552,1652,2972,-8273,9192,1614,-2507,1061,8453,39,105,900
112492,630964,1248200,634157,1256749,1703,2995,-8883,10896,1090,-2953,-66,9071,19,89,901
113493,631136,1248608,634354,1256946,1514,3054,-9435,12442,595,-2836,-1550,8267,19,89,901
114494,631288,1249032,634551,1257143,1659,2856,-9806,13427,119,-3041,-2175,6700,43,92,903
115495,631480,1249352,634748,1257340,1413,3454,-9984,13688,-480,-3376,-1636,4876,43,92,903
116509,631668,1249608,634945,1257537,1442,3800,-9991,13220,-1272,-3452,-1521,2890,44,64,902
117510,631836,1249828,635142,1257734,1580,3800,-7400,10785,-1697,-9173,-5233,11438,44,64,902
118498,631996,1250084,635339,1257931,1648,3796,2819,4254,-155,-25227,-16832,32767,27,61,899
119512,632204,1250328,635536,1258128,1343,3800,9349,1318,777,-7725,-5670,18179,27,61,899
120513,632368,1250528,635733,1258325,1633,3800,8810,2801,729,-3934,-1741,8686,26,53,895
121514,632544,1250740,635930,1258522,1567,3800,6059,4335,-3,-3710,-168,5534,26,53,895
122515,632748,1250936,636127,1258719,1390,3800,4300,4426,-882,-3714,381,2668,37,45,896
123516,632940,1251136,636324,1258916,1469,3800,3792,3088,-1500,-4098,596,996,37,45,896
124517,633104,1251340,636521,1259113,1658,3800,3645,1535,-1947,-4311,-255,745,37,46,893
125518,633292,1251548,636718,1259310,1513,3800,3203,368,-2117,-4244,-1369,2107,37,46,893
126519,633444,1251768,636915,1259507,1759,3800,2623,76,-1971,-3505,-1630,3356,25,46,894
127520,633612,1251976,637112,1259704,1672,3800,2020,-274,-1660,-2797,-1596,2705,25,46,894
128521,633768,1252212,637309,1259901,1766,3800,1574,-812,-1274,-2282,-1192,3162,42,48,895
129509,633936,1252504,637506,1260098,1704,3476,1185,-1431,-846,-1387,-518,2960,42,48,895
130510,634096,1252852,637703,1260295,1771,3061,896,-2211,-415,-713,-21,2212,39,62,894
131511,634272,1253156,637900,1260492,1681,3290,568,-3035,52,-934,-76,2378,39,62,894
132512,634452,1253464,638097,1260689,1664,3219,313,-3937,541,-957,-56,2100,22,53,897
133513,634624,1253808,638294,1260886,1725,2930,6,-4651,1062,-372,-505,3216,22,53,897
134514,634792,1254132,638491,1261083,1764,3000,-350,-4885,1644,-301,-1146,4223,35,60,899
135515,634992,1254488,638688,1261280,1564,2732,-719,-5131,2200,-400,-1727,4056,35,60,899
136516,635144,1254808,638885,1261477,1884,2904,-1025,-5500,2633,-530,-1915,3850,34,74,901
137517,635316,1255104,639082,1261674,1770,3012,-1296,-5790,2938,-834,-1856,4392,34,74,901
138518,635496,1255392,639279,1261871,1729,3024,-1591,-5882,3142,-1027,-2182,4797,24,54,904
139519,635668,1255648,639476,1262068,1791,3199,-1885,-6066,3271,-1354,-1945,4393,24,54,904
140520,635828,1255916,639673,1262265,1882,3094,-2129,-6202,3261,-1498,-513,4786,41,62,900
141521,635996,1256128,639870,1262462,1846,3438,-2323,-6244,3082,-1288,634,4863,41,62,900
142522,636172,1256308,640067,1262659,1806,3646,-2485,-6276,2850,-1487,796,5054,38,56,898
143523,636328,1256544,640264,1262856,1950,3281,-2624,-6211,2657,-1857,840,5440,38,56,898
144524,636468,1256740,640461,1263053,2075,3533,-2742,-6163,2484,-1776,968,5277,24,37,896
145525,636632,1256916,640658,1263250,1941,3668,-2837,-6126,2274,-1669,1349,5273,24,37,896
146526,636792,1257116,640855,1263447,1983,3518,-2829,-6307,2009,-1535,1922,4519,27,27,895
147527,636980,1257300,641052,1263644,1813,3624,-2720,-6770,1706,-1243,2034,3680,27,27,895
148528,637128,1257480,641249,1263841,2084,3659,-2527,-7402,1480,-1204,1661,3857,24,38,892
149529,637252,1257680,641446,1264038,2268,3534,-2298,-7969,1348,-1028,1331,4285,24,38,892
150530,637396,1257920,641643,1264235,2167,3266,-1992,-8560,1255,-881,1074,3852,22,36,895
151531,637540,1258180,641840,1264432,2191,3114,-1624,-9054,1264,-734,336,4041,22,36,895
152532,637672,1258448,642037,1264629,2296,3034,-1268,-9442,1424,-266,-441,4071,26,43,893
153533,637800,1258668,642234,1264826,2352,3326,-965,-9650,1641,410,-501,4287,26,43,893
154534,637940,1258924,642431,1265023,2302,3076,-668,-9779,1794,786,41,4371,37,40,897
155535,638084,1259164,642628,1265220,2301,3158,-311,-9893,1808,868,323,4196,37,40,897
156536,638248,1259416,642825,1265417,2192,3060,89,-9815,1766,583,-315,4768,32,47,894
157537,638436,1259680,643022,1265614,2047,2956,481,-9401,1745,389,-696,5813,32,47,894
158538,638588,1259920,643219,1265811,2293,3088,799,-8543,1766,799,-1066,6948,42,46,894
159539,638732,1260160,643416,1266008,2367,3070,1070,-7359,1833,982,-1294,7701,42,46,894
160540,638884,1260412,643613,1266205,2338,2973,1373,-5968,1837,818,-766,7809,41,58,899
161541,639056,1260668,643810,1266402,2224,2923,1725,-4670,1711,832,-435,7551,41,58,899
162542,639208,1261016,644007,1266599,2369,2283,2096,-3411,1537,1029,-128,7493,44,66,897
163543,639444,1261352,644204,1266796,1828,2298,2459,-2097,1377,1249,133,7385,44,66,897
164544,639620,1261620,644401,1266993,2214,2693,2829,-846,1233,1366,261,6572,46,67,898
165545,639772,1261968,644598,1267190,2384,2127,3237,138,1106,1344,377,5821,46,67,898
166546,639916,1262312,644795,1267387,2459,2089,3677,975,998,1502,532,5313,23,72,905
167547,640048,1262640,644992,1267584,2563,2132,4112,1706,917,1681,284,4788,23,72,905
168548,640192,1262960,645189,1267781,2512,2129,4539,2316,842,1810,471,4109,19,68,902
169549,640340,1263328,645386,1267978,2510,1755,4984,2727,778,2107,356,3281,19,68,902
170550,640484,1263668,645583,1268175,2559,1868,5414,3036,723,2270,85,2821,19,72,900
171551,640644,1264000,645780,1268372,2477,1859,5812,3342,672,1807,-696,2757,19,72,900
172552,640828,1264316,645977,1268569,2333,1907,6151,3673,663,1104,-1625,2722,29,65,903
173553,640976,1264624,646174,1268766,2581,1910,6411,4002,683,585,-2123,2593,29,65,903
174554,641108,1265008,646371,1268963,2710,1354,6590,4393,694,345,-2190,2577,41,65,904
175555,641252,1265360,646568,1269160,2660,1486,6693,4724,602,377,-1772,2182,41,65,904
176563,641388,1265660,646798,1269390,2752,1781,6733,4957,441,728,-1545,1802,21,66,903
177557,641520,1265972,646995,1269587,2807,1656,6716,5190,279,1136,-1039,1712,21,66,903
178558,641684,1266316,647192,1269784,2622,1393,6634,5401,117,1276,-600,1428,40,59,904
179559,641860,1266684,647389,1269981,2557,1167,6515,5561,-73,1208,-419,1098,40,59,904
180560,642040,1266968,647586,1270178,2541,1655,6374,5674,-278,863,-469,892,37,60,900
181561,642248,1267272,647783,1270375,2362,1484,6152,5796,-494,612,-426,1045,37,60,900
182562,642452,1267624,647980,1270572,2385,1116,5868,5974,-741,537,-216,987,41,56,906
183563,642636,1267952,648177,1270769,2517,1209,5568,6088,-1027,593,12,488,41,56,906
184564,642784,1268276,648374,1270966,2764,1179,5278,6016,-1342,879,169,-42,47,61,906
185565,643004,1268576,648571,1271163,2305,1284,4989,5848,-1624,1396,-78,-307,47,61,906
186566,643200,1268924,648768,1271360,2456,918,4687,5570,-1868,1507,-117,-564,46,73,907
187567,643400,1269248,648965,1271557,2431,1013,4371,5228,-2118,1255,-10,-904,46,73,907
188568,643644,1269576,649162,1271754,2136,931,4034,4910,-2341,1029,120,-855,55,70,908
189569,643860,1269872,649359,1271951,2304,1088,3647,4747,-2498,849,-49,-345,55,70,908
190570,644040,1270204,649556,1272148,2538,804,3217,4698,-2625,977,145,-218,48,70,907
191571,644268,1270568,649753,1272345,2226,530,2821,4598,-2779,1205,524,-679,48,70,907
192572,644472,1270880,649950,1272542,2374,806,2503,4331,-2929,1399,582,-1080,30,70,907
193573,644712,1271180,650147,1272739,2131,836,2215,4020,-3014,1499,273,-1005,30,70,907
194574,644932,1271452,650344,1272936,2247,978,1913,3808,-2991,1216,-340,-693,46,69,911
195575,645144,1271812,650541,1273133,2291,357,1601,3793,-2913,722,-488,-288,46,69,911
196576,645348,1272156,650738,1273330,2339,392,1284,3872,-2887,589,215,6,38,62,910
197577,645584,1272432,650935,1273527,2123,783,960,3974,-2954,796,878,209,38,62,910
198578,645788,1272784,651132,1273724,2321,240,643,4048,-3080,978,1074,6,33,71,911
199579,646028,1273128,651329,1273921,2078,226,380,3898,-3179,982,877,-688,33,71,911
200580,646240,1273508,651526,1274118,2247,-79,179,3716,-3213,833,736,-547,39,64,911
201581,646464,1273880,651723,1274315,2162,-106,-10,3646,-3217,509,459,-76,39,64,911
202582,646688,1274068,651920,1274512,2151,1048,-204,3684,-3214,421,123,85,32,53,910
203583,646900,1274276,652117,1274709,2220,918,-394,3639,-3255,512,-46,-144,32,53,910
204584,647112,1274516,652314,1274906,2215,699,-590,3465,-3311,826,-416,-413,41,53,912
205585,647320,1274684,652511,1275103,2236,1162,-816,3213,-3354,949,-832,-255,41,53,912
206586,647556,1274760,652708,1275300,2045,1790,-1077,3117,-3359,617,-1275,375,51,42,910
207587,647784,1274972,652905,1275497,2082,933,-1325,3045,-3377,455,-902,193,51,42,910
208588,647964,1275176,653102,1275694,2390,980,-1545,2829,-3488,545,-175,-300,34,44,909
209589,648132,1275356,653299,1275891,2479,1139,-1767,2456,-3641,828,359,-265,34,44,909
210590,648328,1275512,653496,1276088,2306,1307,-2003,2095,-3790,1094,581,-61,41,45,910
211591,648496,1275688,653693,1276285,2494,1191,-2266,1827,-3865,1069,323,333,41,45,910
212592,648660,1275908,653890,1276482,2535,906,-2576,1844,-3888,670,62,1467,22,42,905
213593,648904,1276116,654087,1276679,2015,976,-2890,1927,-3975,189,345,1416,22,42,905
214594,649104,1276312,654284,1276876,2290,1051,-3200,1986,-4137,-51,400,1476,38,31,905
215595,649292,1276488,654481,1277073,2370,1186,-3525,2001,-4316,-143,218,1705,38,31,905
216596,649472,1276652,654678,1277270,2428,1275,-3880,1951,-4457,-51,-251,1951,44,29,910
217597,649640,1276800,654875,1277467,2517,1397,-4241,1937,-4570,33,-597,2153,44,29,910
218598,649808,1276972,655072,1277664,2531,1259,-4572,1822,-4670,-138,-640,1931,20,28,907
219599,650000,1277140,655269,1277861,2384,1296,-4881,1649,-4764,-145,-1008,2318,20,28,907
220600,650204,1277336,655466,1278058,2307,1122,-5205,1583,-4787,-54,-1236,2905,46,38,905
221601,650416,1277532,655663,1278255,2251,1122,-5512,1439,-4739,-143,-1212,2514,46,38,905
222602,650624,1277704,655860,1278452,2272,1283,-5731,1082,-4706,-25,-622,2323,29,42,906
223603,650804,1277912,656057,1278649,2456,1053,-5905,612,-4660,171,-585,2567,29,42,906
224604,650992,1278088,656254,1278846,2411,1263,-6098,204,-4514,496,-1127,3246,32,26,906
225605,651168,1278252,656451,1279043,2496,1352,-6261,-203,-4326,554,-1158,3071,32,26,906
226606,651384,1278384,656648,1279240,2239,1582,-6344,-701,-4196,555,-949,3273,31,39,907
227607,651584,1278500,656845,1279437,2338,1717,-6360,-1142,-4064,653,-775,4768,31,39,907
228608,651848,1278712,657042,1279634,1910,1111,-6361,-1274,-3962,1496,239,7272,41,41,906
229609,652140,1278884,657239,1279831,1694,1372,-5646,-516,-3899,3081,994,12511,41,41,906
230610,652388,1279036,657436,1280028,1948,1516,-869,8811,-3604,7745,-5457,32767,41,27,905
231611,652644,1279228,657633,1280225,1873,1270,4495,16626,-3433,5822,-1330,28901,41,27,905
232612,652988,1279404,657830,1280422,1259,1379,6032,16579,-3546,4312,2120,3499,46,40,910
233613,653284,1279580,658027,1280619,1516,1388,5600,12439,-3780,4183,1247,363,46,40,910
234614,653580,1279752,658224,1280816,1473,1424,4893,8574,-3898,3309,-829,990,64,44,909
235615,653904,1279920,658421,1281013,1244,1462,4504,6764,-3674,2674,-1893,2107,64,44,909
236616,654196,1280100,658618,1281210,1403,1395,4152,5552,-3248,2820,-3353,1928,59,26,911
237617,654480,1280272,658815,1281407,1416,1456,3727,4437,-2845,2594,-2938,1653,59,26,911
238618,654788,1280436,659012,1281604,1218,1521,3304,2700,-2662,2533,-1575,193,65,25,912
239619,655036,1280624,659209,1281801,1571,1375,2984,736,-2718,2128,-719,-372,65,25,912
240620,655288,1280792,659406,1281998,1522,1512,2766,-1264,-2927,998,-572,-724,59,30,912
241621,655576,1280944,659603,1282195,1258,1633,2611,-3021,-3174,285,-796,397,59,30,912
242622,655816,1281088,659800,1282392,1540,1707,2130,-3596,-3400,343,-618,4644,58,26,911
243623,656024,1281228,659997,1282589,1736,1757,1490,-3190,-3516,-15,-1031,6513,58,26,911
244624,656268,1281372,660194,1282786,1491,1755,1031,-2792,-3655,-505,-651,5406,54,38,911
245625,656504,1281576,660391,1282983,1525,1378,863,-2692,-3896,-729,190,5318,54,38,911
246626,656704,1281764,660588,1283180,1749,1482,773,-2526,-4160,-777,641,6136,33,28,907
247627,656928,1281908,660785,1283377,1588,1780,680,-2121,-4358,-921,438,6089,33,28,907
248628,657156,1282068,660982,1283574,1550,1696,620,-1937,-4458,-1129,411,5415,39,30,911
249629,657344,1282200,661179,1283771,1805,1901,617,-1799,-4552,-997,1218,5474,39,30,911
250630,657556,1282348,661376,1283968,1649,1822,632,-1705,-4694,-765,1884,5141,40,20,909
251631,657764,1282472,661573,1284165,1670,2004,639,-1527,-4833,-549,1598,5204,40,20,909
252632,657972,1282624,661770,1284362,1666,1850,646,-1390,-4886,-423,1165,4793,35,35,907
253633,658180,1282764,661967,1284559,1662,1950,690,-1444,-4879,-106,1278,4271,35,35,907
254634,658416,1282892,662164,1284756,1471,2056,756,-1604,-4820,122,1048,3956,32,20,907
255635,658640,1283052,662361,1284953,1534,1873,858,-1981,-4720,219,1171,3265,32,20,907
256636,658824,1283180,662558,1285150,1790,2103,945,-2422,-4586,586,1288,3090,45,36,906
257637,659068,1283336,662755,1285347,1396,1946,972,-2938,-4407,995,1594,2820,45,36,906
258638,659280,1283468,662952,1285544,1590,2126,887,-3256,-4214,1343,1865,3396,34,33,907
259648,659492,1283604,663182,1285774,1598,2142,730,-3475,-4049,1280,1677,3204,48,28,909
260640,659768,1283740,663379,1285971,1164,2170,604,-3884,-3884,1155,1246,2754,48,28,909
261641,659984,1283900,663576,1286168,1532,2036,468,-4195,-3664,1228,749,3367,34,23,906
262642,660236,1284044,663773,1286365,1283,2159,298,-4392,-3429,1332,571,3457,34,23,906
263643,660504,1284188,663970,1286562,1153,2184,87,-4472,-3233,1473,537,3741,33,22,907
264644,660680,1284348,664167,1286759,1738,2100,-119,-4533,-3086,1586,464,3787,33,22,907
265645,660904,1284504,664364,1286956,1426,2144,-306,-4452,-2984,1679,317,4040,36,23,908
266646,661156,1284672,664561,1287153,1228,2082,-456,-4395,-2909,1822,27,3913,36,23,908
267647,661376,1284848,664758,1287350,1419,2042,-568,-4281,-2837,1931,-111,4134,27,41,906
268648,661572,1285016,664955,1287547,1569,2105,-657,-4115,-2775,2003,-222,4165,27,41,906
269649,661780,1285204,665152,1287744,1490,1985,-707,-3961,-2739,2026,-301,3873,34,48,908
270650,662012,1285364,665349,1287941,1326,2176,-716,-3817,-2762,2096,-165,3991,34,48,908
271651,662256,1285544,665546,1288138,1230,2059,-704,-3571,-2845,2279,12,4030,47,33,908
272652,662512,1285776,665743,1288335,1130,1719,-687,-3201,-2946,2481,-201,4356,47,33,908
273653,662792,1285976,665940,1288532,944,1919,-677,-2699,-3030,2312,-666,4661,33,36,909
274654,663072,1286184,666137,1288729,908,1864,-649,-2200,-3134,1949,-912,4753,33,36,909
275655,663292,1286372,666334,1288926,1274,1994,-629,-1595,-3284,1519,-956,5115,47,42,911
276656,663612,1286568,666531,1289123,595,1944,-622,-818,-3461,1198,-615,5255,47,42,911
277657,663836,1286776,666728,1289320,1184,1865,-605,-143,-3628,1223,259,4851,44,48,907
278658,664024,1286968,666925,1289517,1413,1968,-551,327,-3750,1499,807,4101,44,48,907
279659,664288,1287208,667122,1289714,910,1650,-448,575,-3805,1615,1148,3342,50,47,909
280660,664548,1287396,667319,1289911,907,1979,-330,627,-3835,1675,1369,2863,50,47,909
281661,664768,1287616,667516,1290108,1148,1770,-219,561,-3864,1676,1441,2621,47,45,913
282662,665040,1287800,667713,1290305,790,2000,-116,508,-3880,1679,1390,2459,47,45,913
283663,665252,1288012,667910,1290502,1160,1819,-30,468,-3865,1657,1316,2317,33,36,911
284664,665460,1288240,668107,1290699,1180,1706,43,452,-3826,1493,1198,2325,33,36,911
285665,665700,1288436,668304,1290896,962,1907,93,519,-3763,1118,887,2634,42,48,910
286666,665924,1288648,668501,1291093,1050,1801,106,714,-3692,587,590,2955,42,48,910
287667,666108,1288840,668698,1291290,1307,1928,81,1029,-3598,71,348,3324,26,36,911
288668,666344,1289036,668895,1291487,965,1905,10,1496,-3449,-349,-46,3719,26,36,911
289669,666512,1289224,669092,1291684,1403,1959,-75,2060,-3250,-664,-46,3849,28,43,908
290670,666716,1289392,669289,1291881,1175,2097,-147,2590,-3026,-821,137,3707,28,43,908
291671,666948,1289604,669486,1292078,986,1816,-208,3061,-2807,-925,159,3528,38,36,909
292672,667180,1289784,669683,1292275,970,2024,-284,3454,-2597,-934,24,3301,38,36,909
293673,667368,1289968,669880,1292472,1250,2005,-366,3746,-2397,-818,23,3053,40,34,911
294674,667560,1290140,670077,1292669,1228,2092,-459,3926,-2218,-728,63,2566,40,34,911
295675,667760,1290280,670274,1292866,1177,2317,-578,4015,-2056,-662,-73,2236,25,33,908
296676,667964,1290404,670471,1293063,1149,2450,-703,4009,-1900,-761,-169,1972,25,33,908
297677,668164,1290516,670668,1293260,1174,2562,-840,3955,-1758,-962,1,1933,36,19,907
298678,668384,1290624,670865,1293457,1039,2627,-999,3975,-1603,-1051,-100,2115,36,19,907
299679,668604,1290696,671062,1293654,1030,2907,-1168,4060,-1429,-1042,-127,2299,41,28,904
300680,668812,1290784,671259,1293851,1100,2856,-1345,4196,-1255,-1184,-147,2447,41,28,904
301681,669048,1290880,671456,1294048,909,2851,-1505,4313,-1097,-1390,-57,2334,49,29,902
302682,669252,1290968,671653,1294245,1106,2950,-1624,4351,-976,-1456,232,2156,49,29,902
303683,669432,1291060,671850,1294442,1264,2972,-1720,4370,-886,-1428,129,2060,42,24,902
304684,669640,1291168,672047,1294639,1084,2911,-1801,4292,-776,-1302,-699,1855,42,24,902
305685,669868,1291288,672244,1294836,946,2871,-1846,4177,-616,-1069,-1732,1694,29,13,902
306686,670084,1291384,672441,1295033,1013,3066,-1853,4006,-451,-829,-2074,1706,29,13,902
307687,670292,1291484,672638,1295230,1058,3084,-1840,3896,-306,-613,-2253,1892,42,30,903
308688,670496,1291620,672835,1295427,1081,2886,-1839,3848,-189,-790,-2285,2220,42,30,903
309689,670632,1291724,673032,1295624,1533,3128,-1847,3788,-80,-1099,-2103,2227,42,26,902
310690,670808,1291832,673229,1295821,1293,3142,-1875,3784,28,-1098,-1828,2504,42,26,902
311691,670936,1291952,673426,1296018,1624,3102,-1917,3871,143,-1129,-1048,2691,39,32,898
312692,671072,1292060,673623,1296215,1602,3217,-1959,3966,291,-1336,-650,2853,39,32,898
313693,671212,1292180,673820,1296412,1602,3177,-1990,4017,446,-1544,-819,2799,36,18,899
314694,671324,1292304,674017,1296609,1815,3185,-2010,3959,564,-1668,-1137,2783,36,18,899
315695,671444,1292456,674214,1296806,1799,3030,-2003,4000,661,-1632,-1874,3048,19,24,898
316697,671596,1292596,674411,1297003,1620,3131,-1954,4017,712,-1875,-2312,2996,19,24,898
317697,671772,1292740,674608,1297200,1479,3130,-1899,3992,686,-2219,-2382,3117,37,23,897
318698,671912,1292904,674805,1297397,1730,3021,-1857,3908,571,-2433,-1801,3185,37,23,897
319699,672052,1293064,675002,1297594,1755,3063,-1832,3793,370,-2572,-904,3125,40,33,899
320700,672196,1293228,675199,1297791,1754,3054,-1822,3661,152,-2765,-969,3295,40,33,899
321701,672328,1293396,675396,1297988,1858,3041,-1812,3536,-12,-2820,-1208,3401,24,29,897
322702,672448,1293552,675593,1298185,1968,3135,-1798,3488,-100,-2695,-1344,3777,24,29,897
323703,672568,1293752,675790,1298382,2002,2860,-1753,3455,-122,-2701,-1245,3880,22,47,897
324704,672684,1293948,675987,1298579,2063,2887,-1650,3364,-108,-2775,-1354,3853,22,47,897
325705,672812,1294156,676184,1298776,2019,2808,-350,2960,36,-4370,-2239,12303,30,45,899
326706,672936,1294404,676381,1298973,2077,2536,5015,2245,488,-6317,-4603,32767,30,45,899
327707,673036,1294604,676578,1299170,2270,2836,9400,2223,652,-2260,-3678,23159,19,36,899
328708,673164,1294804,676775,1299367,2126,2836,9885,2268,652,-2792,-1560,4545,19,36,899
329709,673292,1295004,676972,1299564,2158,2834,8519,2707,540,-2658,-1272,5587,26,46,898
330710,673392,1295232,677169,1299761,2375,2647,7282,3021,349,-2970,-197,5141,26,46,898
331711,673488,1295476,677366,1299958,2446,2527,6582,3296,27,-2924,513,5250,33,45,898
332712,673612,1295752,677563,1300155,2304,2293,6136,3308,-341,-2743,336,3453,33,45,898
333713,673720,1296040,677760,1300352,2443,2179,5630,2789,-350,-2513,-1433,2599,13,41,898
334714,673836,1296204,677957,1300549,2429,2970,4684,2813,21,-1667,-2073,4815,13,41,898
335715,673976,1296304,678154,1300746,2306,3414,3408,3055,311,-1163,252,4640,36,22,901
336716,674096,1296400,678351,1300943,2465,3483,2385,2945,199,-1217,1554,2609,36,22,901
337717,674240,1296508,678548,1301140,2340,3448,1948,1792,-76,-835,2000,-250,31,33,893
338718,674372,1296632,678745,1301337,2443,3381,1806,156,-305,-189,2635,-472,31,33,893
339719,674516,1296740,678942,1301534,2393,3521,1633,-1051,-388,471,2803,546,32,28,891
340720,674644,1296868,679139,1301731,2524,3428,1383,-2087,-306,866,2331,674,32,28,891
341721,674784,1297024,679336,1301928,2475,3272,1089,-2701,-113,1248,1809,2156,20,27,891
342729,674944,1297204,679566,1302158,2382,3145,835,-3127,115,1140,1793,2221,20,27,891
343723,675088,1297452,679763,1302355,2506,2698,637,-3486,260,1107,1776,2776,22,36,891
344724,675256,1297756,679960,1302552,2370,2302,463,-3641,312,988,1563,3289,22,36,891
345725,675428,1298024,680157,1302749,2356,2497,311,-3774,309,784,1649,3603,45,69,896
346726,675592,1298376,680354,1302946,2421,1904,143,-3583,260,640,1709,4498,45,69,896
347727,675792,1298676,680551,1303143,2196,2185,6,-3327,228,456,1889,4511,31,64,900
348728,675984,1299016,680748,1303340,2249,1873,-130,-2892,211,452,2047,5295,31,64,900
349729,676184,1299284,680945,1303537,2199,2292,-274,-2267,172,291,1731,5738,36,62,903
350730,676368,1299580,681142,1303734,2305,2075,-386,-1660,119,154,1444,5619,36,62,903
351731,676588,1299872,681339,1303931,2071,2059,-429,-971,72,114,1489,5737,29,59,902
352732,676776,1300132,681536,1304128,2276,2232,-420,-352,36,8,1697,5743,29,59,902
353733,676968,1300416,681733,1304325,2254,2044,-398,354,-23,38,2081,5857,44,59,904
354734,677184,1300764,681930,1304522,2097,1579,-347,875,-94,90,2505,5162,44,59,904
355735,677368,1301096,682127,1304719,2304,1621,-288,1289,-131,262,2628,4862,29,61,902
356736,677552,1301388,682324,1304916,2310,1829,-223,1602,-93,385,2689,4529,29,61,902
357737,677768,1301652,682521,1305113,2102,1975,-145,1791,46,590,2417,4107,52,59,906
358738,677944,1301924,682718,1305310,2362,1893,-49,2002,272,852,1963,4202,52,59,906
359739,678156,1302256,682915,1305507,2132,1459,56,2230,546,761,1806,4157,41,51,905
360740,678344,1302556,683112,1305704,2287,1615,139,2558,757,445,1765,4581,41,51,905
361741,678544,1302828,683309,1305901,2211,1757,170,2908,837,0,1952,4565,28,55,906
362742,678704,1303076,683506,1306098,2479,1886,151,3334,849,-13,1924,4791,28,55,906
363743,678860,1303396,683703,1306295,2523,1382,118,3844,871,-86,1218,4814,35,61,905
364744,679032,1303784,683900,1306492,2435,874,112,4209,904,-540,519,4432,35,61,905
365745,679148,1304132,684097,1306689,2821,1058,93,4517,819,-1053,928,4224,35,76,904
366746,679280,1304464,684294,1306886,2751,1099,40,4686,585,-1290,1146,3778,35,76,904
367747,679448,1304820,684491,1307083,2540,880,-43,4864,244,-1248,1182,3850,27,72,903
368748,679628,1305216,684688,1307280,2473,543,-148,4966,-168,-1390,1333,3449,27,72,903
369749,679816,1305576,684885,1307477,2427,696,-261,4882,-670,-1476,1858,3115,26,83,906
370750,680032,1306008,685082,1307674,2245,144,-403,4670,-1248,-1160,1777,2567,26,83,906
371751,680276,1306356,685279,1307871,2050,602,-573,4287,-1796,-705,1226,1997,60,71,909
372752,680516,1306724,685476,1308068,2057,402,-751,3776,-2238,-370,690,1955,60,71,909
373753,680768,1307040,685673,1308265,1959,676,-950,3223,-2565,-261,604,1821,54,66,911
374754,680976,1307288,685870,1308462,2230,1078,-1152,2701,-2795,61,820,1671,54,66,911
375755,681204,1307548,686067,1308659,2093,976,-1360,2118,-2934,616,776,1500,52,65,911
376756,681420,1307760,686264,1308856,2160,1269,-1518,1387,-2997,1122,138,1069,52,65,911
377757,681624,1307944,686461,1309053,2233,1451,-1612,733,-2974,1511,-622,1530,50,44,908
378758,681816,1308084,686658,1309250,2311,1751,-1651,268,-2892,1351,-1132,1965,50,44,908
379759,682012,1308200,686855,1309447,2288,1936,-1681,-45,-2835,1204,-1686,2479,33,36,906
380760,682168,1308304,687052,1309644,2557,2052,-1681,-112,-2840,1051,-1794,3129,33,36,906
381761,682304,1308420,687249,1309841,2710,2014,-1711,-43,-2890,721,-2037,3918,24,18,903
382762,682468,1308524,687446,1310038,2550,2130,-1779,288,-3023,395,-1777,4729,24,18,903
383763,682628,1308644,687643,1310235,2592,2064,-1851,824,-3202,-183,-1754,5311,26,17,900
384764,682812,1308756,687840,1310432,2449,2151,-1905,1456,-3385,-568,-2487,5623,26,17,900
385765,682964,1308860,688037,1310629,2670,2243,-1890,2110,-3583,-838,-3290,5599,21,33,900
386766,683148,1308988,688234,1310826,2476,2123,-1784,2559,-3811,-1212,-3723,5131,21,33,900
387767,683296,1309108,688431,1311023,2723,2207,-1615,2835,-4064,-1261,-4150,4882,18,27,897
388768,683456,1309188,688628,1311220,2665,2509,-1426,2963,-4285,-1137,-4478,4496,18,27,897
389769,683636,1309296,688825,1311417,2549,2374,-1189,3078,-4430,-1036,-4427,4456,21,12,897
390770,683808,1309396,689022,1311614,2611,2467,-906,3078,-4573,-1060,-3146,4005,21,12,897
391771,683992,1309516,689219,1311811,2543,2376,-605,2841,-4764,-938,-1876,3291,43,18,898
392772,684188,1309680,689416,1312008,2469,2116,-305,2457,-4914,-705,-1733,3078,43,18,898
393773,684368,1309788,689613,1312205,2577,2506,55,1891,-4997,-437,-2064,2664,25,26,898
394774,684540,1309928,689810,1312402,2639,2331,470,1254,-4991,-138,-2601,2463,25,26,898
395775,684712,1310052,690007,1312599,2651,2464,915,527,-4899,32,-2408,2387,44,28,898
396776,684892,1310212,690204,1312796,2610,2255,1655,-354,-4740,513,-1978,5353,44,28,898
397777,685064,1310364,690401,1312993,2672,2326,2621,-1097,-4541,1132,-1652,7074,27,37,897
398778,685240,1310480,690598,1313190,2657,2586,3203,-1779,-4304,1080,-1093,3028,27,37,897
399779,685408,1310596,690795,1313387,2721,2623,3414,-2358,-4025,1222,-811,2782,38,29,897
400780,685612,1310680,690992,1313584,2494,2873,3500,-2744,-3739,1477,-539,3377,38,29,897
401781,685800,1310792,691189,1313781,2600,2736,3553,-2817,-3447,1299,-368,4098,23,22,894
402782,685968,1310908,691386,1313978,2738,2747,3575,-2605,-3138,1148,-416,4827,23,22,894
403783,686148,1311040,691583,1314175,2672,2676,3555,-2272,-2840,1018,-319,5313,27,29,895
404784,686352,1311168,691780,1314372,2520,2733,3422,-1759,-2594,942,-105,5911,27,29,895
405785,686556,1311272,691977,1314569,2518,2923,3197,-1068,-2388,869,106,6212,48,24,895
406786,686760,1311356,692174,1314766,2516,3099,2929,-356,-2202,807,396,6249,48,24,895
407787,686936,1311472,692371,1314963,2701,2935,2630,399,-2039,801,693,6517,27,32,895
408788,687124,1311592,692568,1315160,2631,2944,2350,1166,-1900,785,1140,6433,27,32,895
409789,687296,1311696,692765,1315357,2743,3086,2105,1791,-1821,740,1510,5787,40,18,891
410790,687476,1311824,692962,1315554,2701,2968,1864,2206,-1794,688,1766,5271,40,18,891
411791,687628,1311932,693159,1315751,2897,3132,1623,2376,-1777,672,1945,4580,40,34,891
412792,687812,1312064,693356,1315948,2704,3011,1371,2334,-1779,813,2082,3602,40,34,891
413793,687992,1312192,693553,1316145,2737,3068,1112,2003,-1768,895,1800,2762,30,37,891
414794,688216,1312328,693750,1316342,2451,3044,906,1430,-1708,857,1325,2101,30,37,891
415795,688432,1312452,693947,1316539,2494,3153,735,704,-1660,839,1267,1661,43,23,892
416796,688648,1312580,694144,1316736,2487,3159,555,7,-1659,697,1484,1761,43,23,892
417797,688916,1312748,694341,1316933,2132,2923,346,-634,-1640,668,1129,1873,54,31,894
418798,689156,1312884,694538,1317130,2289,3150,124,-1300,-1542,658,-220,1793,54,31,894
419799,689408,1313068,694735,1317327,2190,2856,-74,-1853,-1405,293,-1007,2251,46,34,896
420800,689692,1313224,694932,1317524,1953,3050,-235,-2279,-1263,-154,-1478,2309,46,34,896
421801,689928,1313400,695129,1317721,2237,2935,-404,-2779,-1134,-409,-2071,2357,56,30,895
422802,690160,1313536,695326,1317918,2248,3213,-580,-3119,-982,-657,-2261,2888,56,30,895
423803,690436,1313704,695523,1318115,1939,3027,-743,-3350,-803,-885,-2277,3198,40,31,897
424804,690752,1313920,695720,1318312,1638,2719,-904,-3434,-626,-861,-2426,3851,40,31,897
425812,691032,1314108,695950,1318542,1842,2913,-1028,-3329,-447,-996,-2105,4368,53,30,897
426806,691328,1314308,696147,1318739,1699,2838,-1117,-3148,-329,-1002,-1301,4550,53,30,897
427807,691628,1314472,696344,1318936,1630,3078,-1165,-2946,-294,-836,-907,4641,45,30,900
428808,691940,1314680,696541,1319133,1505,2799,-1165,-2888,-268,-673,-915,4533,45,30,900
429809,692236,1314844,696738,1319330,1563,3090,-1118,-2783,-217,-403,-884,4602,57,38,899
430810,692556,1315036,696935,1319527,1360,2918,-1067,-2698,-158,-208,-690,4582,57,38,899
431811,692884,1315236,697132,1319724,1252,2867,-991,-2633,-97,3,-743,4733,68,45,900
432812,693196,1315444,697329,1319921,1303,2813,-893,-2516,-38,298,-831,4989,68,45,900
433813,693524,1315668,697526,1320118,1146,2702,-724,-2443,-4,472,-896,4992,55,43,901
434814,693812,1315900,697723,1320315,1357,2638,-444,-2315,-3,789,-1076,6208,55,43,901
435815,694100,1316140,697920,1320512,1318,2570,47,-2012,-42,1497,-1304,8188,52,59,904
436816,694388,1316408,698117,1320709,1278,2365,585,-1749,-92,1704,-1370,7614,52,59,904
437817,694640,1316664,698314,1320906,1480,2414,899,-1640,-114,1198,-1284,5375,63,61,904
438818,694900,1316920,698511,1321103,1403,2389,996,-1729,-130,889,-991,4387,63,61,904
439819,695140,1317156,698708,1321300,1509,2498,1018,-1880,-187,1048,-679,4167,35,48,905
440820,695368,1317392,698905,1321497,1572,2481,1056,-2076,-270,1277,-567,3920,35,48,905
441821,695608,1317624,699102,1321694,1479,2492,1093,-2137,-367,1421,-867,4115,51,49,905
442822,695836,1317860,699299,1321891,1540,2450,1129,-2181,-434,1334,-1730,4188,51,49,905
443823,696056,1318116,699496,1322088,1581,2300,1172,-2241,-473,1228,-2042,4230,38,58,903
444824,696256,1318332,699693,1322285,1706,2543,1205,-2201,-553,1212,-1780,4447,38,58,903
445825,696464,1318572,699890,1322482,1651,2375,1199,-2088,-656,1096,-1678,4588,44,39,905
446826,696684,1318784,700087,1322679,1567,2543,1167,-1940,-746,1055,-1481,4840,44,39,905
447827,696892,1319004,700284,1322876,1638,2484,1104,-1753,-816,1058,-1239,4812,49,37,904
448828,697096,1319196,700481,1323073,1660,2662,1047,-1546,-877,1059,-1013,4818,49,37,904
449829,697264,1319396,700678,1323270,1899,2612,1013,-1383,-966,945,-516,4482,27,35,903
450830,697448,1319584,700875,1323467,1806,2691,1002,-1396,-1074,721,-358,4264,27,35,903
451831,697604,1319752,701072,1323664,1999,2830,968,-1352,-1172,623,-318,4514,22,44,901
452832,697804,1319944,701269,1323861,1723,2683,940,-1277,-1263,550,-123,4382,22,44,901
453833,697972,1320096,701466,1324058,1937,2954,924,-1242,-1356,439,144,4204,31,28,898
454834,698132,1320236,701663,1324255,2003,3054,938,-1263,-1463,273,431,4040,31,28,898
455835,698364,1320388,701860,1324452,1539,2999,938,-1276,-1556,211,578,4272,24,26,897
456836,698556,1320528,702057,1324649,1792,3100,902,-1163,-1598,87,637,4578,24,26,897
457837,698728,1320684,702254,1324846,1928,3020,848,-1020,-1592,-225,673,4548,36,22,899
458838,698924,1320816,702451,1325043,1779,3199,778,-798,-1559,-403,742,4871,36,22,899
459839,699100,1320928,702648,1325240,1915,3361,697,-604,-1509,-482,822,4823,23,19,897
460840,699268,1321084,702845,1325437,1977,3105,633,-389,-1428,-624,780,4777,23,19,897
461841,699476,1321216,703042,1325634,1724,3285,601,-233,-1353,-792,1012,4616,45,36,894
462842,699660,1321364,703239,1325831,1880,3208,583,-129,-1268,-909,886,4646,45,36,894
463843,699860,1321484,703436,1326028,1779,3417,574,-29,-1162,-989,796,4589,29,33,896
464844,700084,1321588,703633,1326225,1618,3559,580,102,-1038,-1186,650,4636,29,33,896
465845,700268,1321696,703830,1326422,1875,3573,579,247,-887,-1365,255,4729,29,26,894
466846,700472,1321832,704027,1326619,1747,3426,550,402,-688,-1514,-350,4742,29,26,894
467847,700684,1321944,704224,1326816,1691,3615,493,573,-475,-1666,-357,4825,31,33,893
468848,700904,1322084,704421,1327013,1632,3466,417,779,-260,-1895,-570,5008,31,33,893
469849,701116,1322200,704618,1327210,1675,3652,333,981,-28,-2232,-772,5118,41,30,893
470850,701320,1322300,704815,1327407,1723,3796,256,1185,252,-2469,-943,5495,41,30,893
471864,701528,1322400,705012,1327604,1695,3800,209,1364,547,-2352,-368,5847,38,27,891
472865,701704,1322504,705209,1327801,1904,3800,220,1545,805,-2113,411,6321,38,27,891
473866,701888,1322600,705406,1327998,1860,3800,290,1644,1033,-1839,648,6537,31,18,891
474866,702080,1322708,705603,1328195,1814,3800,424,1605,1221,-1775,651,6336,31,18,891
475867,702280,1322808,705800,1328392,1762,3800,598,1476,1390,-1744,423,6109,28,26,890
476869,702452,1322888,705997,1328589,1949,3800,801,1176,1558,-1695,-21,5559,28,26,890
477869,702648,1322980,706194,1328786,1801,3800,993,846,1749,-1586,-616,5157,38,16,889
478871,702800,1323072,706391,1328983,2096,3800,1149,501,1948,-1529,-980,4862,38,16,889
479872,702996,1323164,706588,1329180,1822,3800,1255,209,2140,-1664,-1364,4695,25,14,890
480873,703164,1323276,706785,1329377,2011,3800,1349,-107,2319,-1764,-1564,4223,25,14,890
481874,703316,1323380,706982,1329574,2131,3800,1446,-447,2454,-1773,-1558,3907,38,13,889
482875,703452,1323472,707179,1329771,2258,3800,1547,-813,2543,-1675,-1472,3728,38,13,889
483876,703604,1323552,707376,1329968,2179,3800,1624,-1172,2597,-1355,-1405,3674,21,19,887
484877,703756,1323652,707573,1330165,2200,3800,1696,-1457,2615,-860,-1304,3790,21,19,887
485878,703932,1323748,707770,1330362,2059,3800,1772,-1649,2609,-442,-1099,3912,41,27,888
486879,704096,1323812,707967,1330559,2150,3800,1845,-1808,2562,-148,-877,4040,41,27,888
487880,704244,1323884,708164,1330756,2272,3800,1920,-1906,2487,112,-701,4204,39,13,887
488881,704368,1323960,708361,1330953,2454,3800,1995,-1988,2403,589,-323,4269,39,13,887
489882,704516,1324024,708558,1331150,2327,3800,2068,-2029,2293,1201,75,4311,35,10,887
490883,704636,1324104,708755,1331347,2537,3800,2132,-2031,2149,1684,442,4289,35,10,887
491884,704764,1324176,708952,1331544,2518,3800,2175,-1994,1975,2076,546,4398,26,12,886
492885,704948,1324280,709149,1331741,2175,3800,2200,-1911,1773,2343,744,4381,26,12,886
493886,705072,1324432,709346,1331938,2582,3800,2208,-1767,1540,2336,1163,4515,40,19,886
494887,705216,1324648,709543,1332135,2481,3800,2188,-1525,1297,2088,1531,4799,40,19,886
495875,705324,1324916,709740,1332332,2746,3790,2148,-1248,1067,1886,1180,4862,33,48,888
496889,705432,1325176,709937,1332529,2786,3800,2122,-893,862,1637,443,4947,33,48,888
497877,705524,1325496,710134,1332726,2933,3387,2120,-593,678,1603,-200,4555,31,54,885
498878,705612,1325796,710331,1332923,3007,3467,2141,-454,472,2132,-726,3812,31,54,885
499879,705720,1326096,710528,1333120,2922,3424,2193,-509,232,2778,-573,3132,11,80,887
500880,705836,1326516,710725,1333317,2908,2577,2216,-551,2,2554,-1116,3096,11,80,887
501881,705944,1326936,710922,1333514,2998,2480,2232,-550,-198,1793,-1309,3002,29,85,888
502882,706096,1327288,711119,1333711,2744,2839,2281,-516,-350,1280,-814,3050,29,85,888
503883,706272,1327688,711316,1333908,2604,2451,2324,-353,-409,1175,-1255,3378,27,73,894
504884,706448,1328080,711513,1334105,2614,2416,2413,-132,-389,1122,-1400,3075,27,73,894
505885,706632,1328424,711710,1334302,2571,2653,2523,13,-319,662,-1549,2910,44,65,895
506886,706780,1328844,711907,1334499,2819,2081,2621,79,-233,197,-1354,2667,44,65,895
507887,706940,1329252,712104,1334696,2761,2064,2763,205,-159,-164,-1019,2581,39,62,898
508895,707116,1329620,712334,1334926,2686,2254,2942,400,-113,-490,-972,2573,39,62,898
509889,707284,1329964,712531,1335123,2749,2341,3112,585,-81,-579,-1276,2536,32,80,897
510890,707480,1330320,712728,1335320,2576,2197,3237,867,-71,-500,-1114,2627,32,80,897
511891,707692,1330724,712925,1335517,2470,1807,3273,1390,-94,-789,-967,3266,38,83,898
512892,707904,1331120,713122,1335714,2465,1770,3213,2050,-133,-1624,-860,3612,38,83,898
513893,708116,1331452,713319,1335911,2459,2112,3122,2596,-187,-2420,-723,3111,35,70,899
514894,708304,1331848,713516,1336108,2614,1626,3027,3091,-212,-2617,-870,2994,35,70,899
515895,708476,1332228,713713,1336305,2726,1646,2950,3465,-197,-2116,-778,2511,30,74,902
516896,708668,1332560,713910,1336502,2604,1888,2913,3695,-188,-1631,-623,1836,30,74,902
517897,708884,1332944,714107,1336699,2447,1481,2890,3668,-186,-1395,-738,1204,37,71,902
518898,709096,1333340,714304,1336896,2466,1319,2845,3519,-146,-1046,-1187,1029,37,71,902
519899,709280,1333728,714501,1337093,2648,1286,2723,3483,-65,-1251,-1603,1413,51,61,901
520900,709464,1334048,714698,1337290,2655,1657,2554,3520,28,-1615,-1448,1449,51,61,901
521901,709628,1334476,714895,1337487,2795,882,2418,3327,64,-1119,-624,643,31,83,903
522902,709792,1334876,715092,1337684,2811,968,2312,2820,5,-13,542,-241,31,83,903
523903,709976,1335328,715289,1337881,2692,531,2177,2303,-97,994,1091,-314,35,72,901
524904,710212,1335652,715486,1338078,2351,1277,2022,1709,-157,1488,858,-316,35,72,901
525905,710420,1336084,715683,1338275,2522,498,1840,1267,-100,1579,26,598,56,87,903
526906,710596,1336476,715880,1338472,2733,663,1586,1292,32,1388,-656,1973,56,87,903
527907,710804,1336832,716077,1338669,2529,819,1360,1435,95,1478,-368,1819,30,83,906
528908,710980,1337220,716274,1338866,2739,535,1244,1309,-17,1933,837,1099,30,83,906
529909,711168,1337608,716471,1339063,2669,452,1187,1047,-282,2539,1400,997,34,80,905
530910,711404,1337976,716668,1339260,2353,502,1104,839,-574,3261,1346,1212,34,80,905
531911,711624,1338332,716865,1339457,2444,507,923,904,-843,3351,970,2174,53,70,904
532912,711840,1338640,717062,1339654,2461,758,698,1247,-1058,2871,576,2947,53,70,904
533913,712100,1339048,717259,1339851,2160,40,514,1771,-1280,2461,648,3289,45,66,907
534914,712296,1339388,717456,1340048,2561,404,377,2237,-1560,2548,834,3147,45,66,907
535915,712512,1339648,717653,1340245,2429,876,252,2667,-1903,3042,941,2993,54,48,907
536916,712740,1339868,717850,1340442,2341,1116,164,2999,-2238,3438,579,2779,54,48,907
537917,713000,1340156,718047,1340639,2114,651,109,3229,-2542,3558,516,2541,47,48,908
538918,713208,1340408,718244,1340836,2436,852,81,3489,-2798,3263,312,2599,47,48,908
539919,713432,1340656,718441,1341033,2325,854,55,3797,-3021,2794,-114,2811,33,47,906
540920,713636,1340880,718638,1341230,2448,992,26,4069,-3242,2529,-287,2684,33,47,906
541921,713848,1341040,718835,1341427,2392,1409,46,4214,-3521,2501,115,2122,34,49,907
542922,714036,1341192,719032,1341624,2547,1478,114,4171,-3847,2687,161,1481,34,49,907
543923,714280,1341384,719229,1341821,2177,1231,125,4065,-4139,2507,-245,1654,34,38,905
544924,714516,1341604,719426,1342018,2211,1045,16,4108,-4366,1721,-610,2380,34,38,905
545925,714728,1341784,719623,1342215,2356,1304,-129,4236,-4586,794,-797,2300,53,38,903
546926,714972,1341984,719820,1342412,2136,1178,-258,4351,-4850,-22,-766,2060,53,38,903
547927,715148,1342144,720017,1342609,2570,1444,-392,4265,-5118,-228,-716,1866,32,30,907
548928,715328,1342312,720214,1342806,2554,1407,-591,4253,-5353,-81,-752,2075,32,30,907
549929,715536,1342452,720411,1343003,2375,1607,-837,4269,-5513,-399,-1044,2153,43,35,908
550930,715744,1342672,720608,1343200,2371,1097,-1055,4230,-5596,-903,-1140,2073,43,35,908
551931,715956,1342860,720805,1343397,2340,1300,-1255,4174,-5631,-1528,-1159,2186,32,28,904
552932,716188,1343028,721002,1343594,2201,1438,-1442,4016,-5630,-2037,-833,1958,32,28,904
553933,716372,1343204,721199,1343791,2508,1397,-1602,3631,-5658,-1927,-130,1480,40,32,905
554934,716560,1343388,721396,1343988,2488,1353,-1738,3095,-5697,-1576,93,1084,40,32,905
555935,716764,1343568,721593,1344185,2386,1387,-1886,2561,-5627,-1143,-484,1564,46,36,905
556936,716948,1343748,721790,1344382,2517,1394,-2111,2265,-5427,-808,-495,2724,46,36,905
557937,717160,1343904,721987,1344579,2337,1562,-2375,2113,-5129,-1131,-879,3155,52,38,905
558938,717400,1344040,722184,1344776,2144,1714,-2580,1891,-4790,-1411,-882,2862,52,38,905
559939,717608,1344228,722381,1344973,2340,1393,-2674,1390,-4526,-1371,5,2455,45,28,904
560940,717796,1344412,722578,1345170,2469,1424,-2741,748,-4325,-725,533,2446,45,28,904
561941,718004,1344612,722775,1345367,2340,1322,-2821,152,-4143,37,805,2776,32,33,905
562942,718176,1344788,722972,1345564,2577,1482,-2965,-381,-4022,447,688,3288,32,33,905
563943,718396,1344956,723169,1345761,2268,1545,-3158,-774,-3852,443,-365,4272,48,30,904
564944,718600,1345156,723366,1345958,2366,1344,-3251,-1196,-3634,1003,-548,6181,48,30,904
565945,718804,1345316,723563,1346155,2364,1610,-3175,-1405,-3511,2787,649,8300,38,46,903
566946,718992,1345548,723760,1346352,2469,1145,-2866,-1646,-3545,4693,1768,10797,38,46,903
567947,719176,1345780,723957,1346549,2501,1129,-2427,-1709,-3750,6076,2374,12870,29,36,906
568948,719396,1345948,724154,1346746,2266,1542,-2028,-1591,-4051,5140,3248,12099,29,36,906
569949,719612,1346156,724351,1346943,2284,1288,-884,-120,-4255,4275,1602,23212,36,45,906
570950,719812,1346312,724548,1347140,2384,1631,2969,5277,-4591,1686,1590,8847,36,45,906
571951,720072,1346468,724745,1347337,1981,1649,3158,4493,-4641,1517,-166,5676,46,38,905
572952,720308,1346628,724942,1347534,2115,1641,2937,2948,-4614,2487,-1630,4594,46,38,905
573953,720492,1346780,725139,1347731,2447,1710,2766,1927,-4410,2503,-2440,4133,42,31,904
574954,720784,1346972,725336,1347928,1731,1463,2582,1137,-4232,2529,-3742,3172,42,31,904
575955,721044,1347196,725533,1348125,1904,1252,2260,463,-4143,2336,-3354,3384,34,48,905
576956,721280,1347380,725730,1348322,2038,1507,2133,-419,-4120,2524,-1636,1729,34,48,905
577957,721548,1347592,725927,1348519,1808,1326,2051,-1677,-4140,2732,-1509,1652,43,43,907
578958,721808,1347748,726124,1348716,1831,1694,1920,-2656,-4134,2485,-1501,2450,43,43,907
579959,722056,1347892,726321,1348913,1884,1792,1711,-3335,-4041,2542,-1152,3037,60,26,907
580960,722316,1348040,726518,1349110,1782,1789,1477,-3803,-3961,3015,-748,3464,60,26,907
581961,722568,1348244,726715,1349307,1809,1437,1313,-4129,-3939,2876,244,3940,49,44,907
582962,722828,1348404,726912,1349504,1732,1728,1228,-4282,-3997,2796,1392,4739,49,44,907
583963,723072,1348560,727109,1349701,1813,1771,1151,-4130,-4145,2885,1975,5786,49,24,906
584964,723292,1348720,727306,1349898,1952,1762,1078,-3568,-4327,2419,2423,6906,49,24,906
585965,723536,1348864,727503,1350095,1783,1885,1062,-2898,-4487,2122,2447,6512,33,32,907
586966,723788,1349008,727700,1350292,1710,1910,1098,-2539,-4622,1878,2381,5682,33,32,907
587967,724052,1349152,727897,1350489,1606,1933,1126,-2254,-4714,1543,2429,5938,37,24,905
588968,724292,1349308,728094,1350686,1737,1876,1132,-1812,-4787,1442,2420,5994,37,24,905
589969,724560,1349448,728291,1350883,1532,2001,1108,-1346,-4851,1291,2064,5997,37,34,906
590970,724812,1349620,728488,1351080,1609,1813,1097,-781,-4841,1067,1597,6081,37,34,906
591980,725044,1349776,728718,1351310,1733,1946,1145,-311,-4791,1065,1380,5436,58,25,906
592972,725296,1349960,728915,1351507,1585,1776,1233,37,-4747,1052,1246,5128,58,25,906
593973,725588,1350128,729112,1351704,1294,1890,1318,317,-4677,804,1302,4875,38,33,908
594974,725824,1350284,729309,1351901,1627,1983,1383,474,-4595,735,1335,4384,38,33,908
595975,726048,1350448,729506,1352098,1691,1948,1418,550,-4521,695,1306,3979,53,32,907
596976,726308,1350640,729703,1352295,1439,1776,1432,544,-4438,502,1067,3638,53,32,907
597977,726520,1350824,729900,1352492,1733,1832,1406,487,-4353,422,583,3267,40,44,905
598978,726768,1350992,730097,1352689,1486,1944,1328,421,-4265,447,-47,3125,40,44,905
599979,727000,1351200,730294,1352886,1572,1689,1216,378,-4198,520,-167,3105,51,49,907
600980,727236,1351400,730491,1353083,1530,1739,1096,295,-4185,679,89,2820,51,49,907
601981,727456,1351592,730688,1353280,1621,1791,972,216,-4220,669,493,2879,48,33,907
602982,727676,1351780,730885,1353477,1612,1820,841,249,-4250,587,352,3237,48,33,907
603983,727928,1351976,731082,1353674,1388,1772,743,339,-4286,579,216,3045,51,47,908
604984,728172,1352148,731279,1353871,1418,1933,706,364,-4340,573,222,2726,51,47,908
605985,728396,1352324,731476,1354068,1531,1917,699,341,-4402,700,-44,2659,32,36,907
606986,728636,1352524,731673,1354265,1413,1767,678,281,-4479,925,-77,2608,32,36,907
607987,728868,1352764,731870,1354462,1449,1498,673,187,-4563,1162,282,2452,42,42,908
608988,729064,1352960,732067,1354659,1674,1773,653,187,-4641,1326,304,2699,42,42,908
609989,729300,1353156,732264,1354856,1408,1775,604,256,-4710,1315,-45,2660,39,50,907
610990,729508,1353368,732461,1355053,1578,1668,538,367,-4773,967,26,2773,39,50,907
611991,729724,1353552,732658,1355250,1521,1849,440,516,-4855,690,345,3006,50,34,908
612992,729988,1353784,732855,1355447,1191,1534,307,733,-4952,536,611,3142,50,34,908
613993,730200,1353988,733052,1355644,1511,1706,177,964,-5014,394,808,3145,34,34,909
614994,730420,1354180,733249,1355841,1451,1783,76,1254,-5034,353,883,3220,34,34,909
615995,730664,1354416,733446,1356038,1281,1492,-3,1569,-5042,353,1047,3296,45,33,911
616996,730892,1354584,733643,1356235,1368,1930,-93,1909,-5059,337,1382,3173,45,33,911
617997,731144,1354752,733840,1356432,1194,1943,-191,2205,-5084,342,1424,3003,50,34,908
618998,731388,1354924,734037,1356629,1225,1930,-309,2486,-5078,159,1141,2969,50,34,908
619999,731616,1355076,734234,1356826,1311,2075,-446,2725,-4998,-81,511,2910,53,28,907
621000,731856,1355224,734431,1357023,1218,2121,-611,2866,-4853,-186,247,2677,53,28,907
622001,732084,1355388,734628,1357220,1279,2037,-889,3186,-4627,-169,162,3226,35,21,908
623002,732376,1355508,734825,1357417,839,2345,-1134,3424,-4377,-270,411,2460,35,21,908
624003,732596,1355600,735022,1357614,1279,2567,-1289,3551,-4128,-433,463,2240,36,17,907
625004,732852,1355700,735219,1357811,1028,2560,-1406,3527,-3827,-514,320,2175,36,17,907
626005,733068,1355776,735416,1358008,1270,2763,-1512,3549,-3473,-414,256,2148,33,17,907
627006,733316,1355872,735613,1358205,1048,2684,-1608,3584,-3087,-485,180,1985,33,17,907
628007,733584,1355952,735810,1358402,893,2835,-1690,3571,-2719,-756,60,1929,36,13,905
629008,733804,1356028,736007,1358599,1183,2913,-1778,3532,-2384,-988,-291,2019,36,13,905
630009,734040,1356112,736204,1358796,1066,2914,-1879,3572,-2054,-1198,-837,2231,55,18,904
631010,734308,1356188,736401,1358993,835,3017,-2009,3746,-1736,-1318,-1072,2457,55,18,904
632011,734544,1356276,736598,1359190,1018,2991,-2152,3902,-1467,-1535,-647,2315,55,23,900
633012,734772,1356356,736795,1359387,1056,3093,-2305,4029,-1273,-1769,69,2497,55,23,900
634013,734976,1356448,736992,1359584,1202,3065,-2458,4224,-1122,-1992,235,2757,53,10,902
635014,735224,1356528,737189,1359781,906,3192,-2590,4472,-1017,-2278,553,2776,53,10,902
636015,735460,1356612,737386,1359978,964,3217,-2703,4654,-971,-2541,921,2449,48,22,900
637016,735700,1356708,737583,1360175,920,3187,-2792,4709,-962,-2691,846,2245,48,22,900
638017,735900,1356816,737780,1360372,1170,3152,-2885,4731,-948,-2884,439,2231,33,19,901
639018,736100,1356928,737977,1360569,1168,3165,-2980,4798,-928,-3329,179,2348,33,19,901
640019,736264,1357032,738174,1360766,1408,3256,-3063,4800,-934,-3704,166,2172,25,29,900
641020,736436,1357140,738371,1360963,1370,3272,-3123,4740,-959,-3807,84,2257,25,29,900
642020,736584,1357244,738568,1361160,1541,3337,-3151,4718,-940,-3856,-420,2337,39,15,898
643022,736716,1357344,738765,1361357,1671,3406,-3129,4688,-857,-4061,-936,2296,39,15,898
644023,736836,1357468,738962,1361554,1780,3289,-3098,4578,-719,-4255,-1056,2301,25,32,896
645024,736988,1357564,739159,1361751,1600,3509,-3087,4401,-541,-4252,-672,2305,25,32,896
646025,737160,1357676,739356,1361948,1487,3447,-3071,4243,-347,-4201,-692,2332,45,15,895
647026,737352,1357788,739553,1362145,1364,3485,-3043,4009,-144,-4179,-1102,2221,45,15,895
648027,737524,1357900,739750,1362342,1501,3524,-2990,3644,54,-3996,-1624,1913,42,23,891
649028,737660,1358024,739947,1362539,1753,3482,-2891,3140,268,-3590,-2728,1746,42,23,891
650029,737832,1358176,740144,1362736,1539,3327,-2762,2586,460,-3211,-3158,1727,34,19,896
651030,737948,1358320,740341,1362933,1925,3402,-2626,1983,589,-2917,-3158,1708,34,19,896
652031,738080,1358484,740538,1363130,1854,3292,-2546,1437,672,-2605,-3132,2191,19,33,894
653032,738224,1358644,740735,1363327,1803,3333,-2524,959,772,-2185,-3304,2570,19,33,894
654033,738332,1358820,740932,1363524,2067,3244,-2558,556,935,-1747,-3546,3075,16,41,893
655034,738468,1358984,741129,1363721,1920,3334,-2594,296,1177,-1445,-4006,3587,16,41,893
656035,738584,1359148,741326,1363918,2080,3350,-2584,64,1416,-1100,-3848,3887,16,44,895
657036,738736,1359336,741523,1364115,1876,3205,1,-990,1274,3115,-3656,24334,16,44,895
658037,738872,1359560,741720,1364312,2003,2969,5657,-2029,551,7173,-4644,32767,31,37,895
659038,738992,1359788,741917,1364509,2138,2931,8316,-1823,430,564,-4315,11594,31,37,895
660039,739112,1360048,742114,1364706,2172,2704,7193,-409,935,-605,-4476,9396,21,52,896
661040,739232,1360264,742311,1364903,2207,2972,5106,1487,1489,-1314,-4029,8271,21,52,896
662041,739348,1360472,742508,1365100,2268,3018,3901,2141,1609,-1944,-1446,5158,35,48,897
663042,739492,1360712,742705,1365297,2116,2799,3497,2260,1296,-1567,76,4960,35,48,897
664043,739632,1360984,742902,1365494,2168,2567,3344,1923,809,-1772,1849,3584,19,60,895
665044,739788,1361296,743099,1365691,2086,2268,3002,1811,358,-1388,1924,4601,19,60,895
666045,739932,1361576,743296,1365888,2185,2432,2564,1881,-32,-922,1975,3729,24,63,898
667046,740100,1361752,743493,1366085,2049,3093,2239,1538,-248,-784,1275,2939,24,63,898
668047,740256,1361876,743690,1366282,2142,3451,2022,1349,-392,-395,644,3631,42,32,902
669048,740440,1361956,743887,1366479,1973,3777,1877,897,-552,-331,836,2672,42,32,902
670049,740604,1362060,744084,1366676,2114,3669,1776,543,-747,-308,1480,2888,40,25,895
671050,740784,1362196,744281,1366873,2021,3497,1757,-142,-938,-314,1724,1555,40,25,895
672051,740984,1362300,744478,1367070,1896,3739,1816,-957,-1057,-180,1480,1604,47,29,890
673052,741184,1362456,744675,1367267,1896,3433,1865,-1458,-1055,-95,1052,2465,47,29,890
674053,741380,1362624,744872,1367464,1921,3371,1903,-1968,-934,-143,355,2241,47,36,891
675061,741584,1362812,745102,1367694,1883,3266,1873,-2209,-787,-237,178,3182,47,36,891
676055,741780,1363092,745299,1367891,1935,2655,1785,-2378,-677,-484,678,3299,48,51,892
677056,742000,1363388,745496,1368088,1775,2513,1616,-2336,-617,-344,886,4085,48,51,892
678057,742196,1363696,745693,1368285,1926,2390,1265,-1863,-505,-399,642,5413,39,69,896
679058,742408,1364048,745890,1368482,1821,2047,850,-1296,-263,-523,473,5419,39,69,896
680059,742596,1364364,746087,1368679,1975,2221,537,-722,8,-401,914,5265,40,74,903
681060,742780,1364720,746284,1368876,2006,1902,418,-413,222,-786,1090,4666,40,74,903
682061,742984,1365056,746481,1369073,1879,1967,400,-45,358,-1048,628,5001,49,64,905
683062,743140,1365396,746678,1369270,2197,1880,441,235,439,-1128,567,4432,49,64,905
684063,743320,1365708,746875,1369467,2056,2004,494,559,457,-1312,830,4984,33,80,905
685064,743484,1366064,747072,1369664,2171,1661,527,1097,401,-1606,1008,5135,33,80,905
686065,743648,1366500,747269,1369861,2186,1057,538,1495,287,-1785,1166,4800,29,73,902
687066,743800,1366968,747466,1370058,2282,737,530,1988,168,-1587,1347,5223,29,73,902
688067,743984,1367408,747663,1370255,2088,807,509,2357,31,-1496,1871,4662,33,79,904
689068,744112,1367824,747860,1370452,2469,861,449,2604,-164,-1329,2165,4326,33,79,904
690069,744252,1368232,748057,1370649,2420,819,371,2613,-373,-1105,2305,3559,42,75,908
691070,744384,1368632,748254,1370846,2499,780,320,2415,-586,-776,2537,3091,42,75,908
692071,744508,1369156,748451,1371043,2582,-138,275,2217,-831,-406,2649,3020,33,77,906
693072,744628,1369616,748648,1371240,2641,146,227,1918,-1090,-96,2525,2807,33,77,906
694073,744740,1370036,748845,1371437,2729,299,151,1676,-1341,576,1989,3062,15,92,906
695074,744880,1370404,749042,1371634,2581,549,69,1495,-1573,1122,1368,3038,15,92,906
696075,745020,1370792,749239,1371831,2607,340,-7,1301,-1808,1506,1367,3117,38,76,907
697076,745164,1371204,749436,1372028,2605,96,-48,1036,-2036,1963,1286,2825,38,76,907
698077,745324,1371608,749633,1372225,2522,56,-70,684,-2224,2512,1079,2649,25,73,906
699078,745444,1371976,749830,1372422,2807,205,-129,428,-2409,2969,955,2916,25,73,906
700079,745608,1372296,750027,1372619,2547,451,-226,216,-2638,3257,1041,2961,25,58,908
701080,745776,1372572,750224,1372816,2536,692,-344,142,-2907,3418,1458,3516,25,58,908
702081,745928,1372772,750421,1373013,2657,1165,-535,263,-3209,3430,1766,4192,26,61,906
703082,746060,1373012,750618,1373210,2811,897,-791,590,-3526,3430,1533,4682,26,61,906
704083,746208,1373192,750815,1373407,2733,1279,-1024,982,-3823,3372,1034,4699,16,36,906
705084,746340,1373312,751012,1373604,2863,1688,-1138,1249,-4086,3129,453,4127,16,36,906
706085,746464,1373424,751209,1373801,2946,1775,-1174,1433,-4348,2746,-105,3902,35,29,904
707086,746624,1373492,751406,1373998,2738,2107,-1192,1507,-4617,2232,-917,3761,35,29,904
708087,746764,1373560,751603,1374195,2889,2164,-1220,1621,-4851,1794,-1614,4047,30,26,897
709088,746920,1373628,751800,1374392,2808,2220,-1247,1916,-5052,1358,-1425,4567,30,26,897
710089,747080,1373704,751997,1374589,2800,2223,-1265,2335,-5306,693,-710,4752,36,11,897
711090,747232,1373756,752194,1374786,2871,2438,-1293,2722,-5635,45,-966,4543,36,11,897
712091,747392,1373824,752391,1374983,2838,2395,-1262,2977,-5988,-669,-1936,4084,18,23,896
713092,747556,1373900,752588,1375180,2829,2398,-1155,3084,-6239,-1188,-3772,3994,18,23,896
714093,747728,1373960,752785,1375377,2791,2558,-1013,3187,-6361,-1608,-4443,4041,40,14,895
715094,747888,1374044,752982,1375574,2883,2459,-904,3231,-6377,-1796,-4566,3829,40,14,895
716095,748068,1374116,753179,1375771,2767,2589,-783,3121,-6303,-1723,-4386,3187,37,27,894
717096,748244,1374208,753376,1375968,2801,2510,-611,2798,-6166,-1661,-3728,2697,37,27,894
718097,748432,1374308,753573,1376165,2731,2503,-432,2363,-5993,-1684,-2712,2597,23,20,894
719098,748652,1374420,753770,1376362,2522,2466,-250,1886,-5765,-1763,-2212,2411,23,20,894
720099,748828,1374560,753967,1376559,2807,2316,-51,1363,-5457,-1757,-2005,2382,29,18,892
721100,749032,1374652,754164,1376756,2630,2663,144,873,-5065,-1733,-1918,2484,29,18,892
722101,749244,1374780,754361,1376953,2574,2468,327,414,-4580,-1555,-1912,2621,44,31,897
723102,749444,1374896,754558,1377150,2649,2579,508,-40,-4009,-1375,-1630,2872,44,31,897
724103,749644,1375008,754755,1377347,2649,2642,692,-409,-3392,-1226,-1367,3268,50,24,895
725104,749864,1375144,754952,1377544,2514,2519,893,-623,-2789,-1072,-1021,4076,50,24,895
726105,750084,1375268,755149,1377741,2505,2627,1301,-557,-2247,-691,-536,7065,27,26,896
727106,750280,1375392,755346,1377938,2657,2659,2121,-125,-1818,-94,21,11581,27,26,896
728107,750504,1375516,755543,1378135,2471,2692,2945,576,-1482,-6,145,11010,37,22,897
729108,750728,1375644,755740,1378332,2460,2698,3246,1130,-1144,-523,-270,7221,37,22,897
730109,750944,1375800,755937,1378529,2503,2542,3078,1650,-769,-659,-603,6377,32,39,894
731110,751128,1375936,756134,1378726,2709,2694,2762,2128,-390,-705,-1003,6081,32,39,894
732111,751320,1376076,756331,1378923,2663,2695,2489,2535,-100,-585,-971,5705,34,25,894
733112,751484,1376212,756528,1379120,2853,2746,2287,2816,56,-567,-513,5160,34,25,894
734113,751680,1376340,756725,1379317,2655,2828,2099,2843,77,-427,52,4501,47,36,894
735114,751868,1376468,756922,1379514,2709,2858,1880,2817,-15,-48,521,4357,47,36,894
736115,752052,1376608,757119,1379711,2741,2809,1644,2650,-153,73,886,3720,36,21,893
737116,752236,1376760,757316,1379908,2748,2755,1391,2246,-352,372,1411,2980,36,21,893
738117,752444,1376908,757513,1380105,2594,2801,1105,1637,-597,690,1420,2392,27,23,893
739118,752648,1377056,757710,1380302,2617,2824,841,851,-763,1009,214,1981,27,23,893
740119,752828,1377200,757907,1380499,2775,2872,637,-17,-875,1505,-397,1602,39,41,894
741120,753048,1377344,758104,1380696,2516,2897,481,-1003,-981,1608,-772,1390,39,41,894
742121,753236,1377520,758301,1380893,2721,2707,364,-1984,-1107,1636,-851,1327,30,31,893
743122,753424,1377660,758498,1381090,2726,2957,281,-2980,-1301,1730,-703,1107,30,31,893
744123,753656,1377816,758695,1381287,2437,2876,237,-3942,-1521,1772,-418,1346,28,34,894
745124,753844,1377984,758892,1381484,2717,2815,233,-4703,-1688,1880,-274,2058,28,34,894
746125,754028,1378140,759089,1381681,2748,2908,241,-5233,-1793,2011,-291,2644,34,46,893
747126,754208,1378336,759286,1381878,2781,2659,212,-5585,-1872,2075,-159,3073,34,46,893
748127,754428,1378536,759483,1382075,2522,2634,148,-5839,-1942,2114,-156,3343,26,49,894
749128,754624,1378732,759680,1382272,2673,2659,83,-6003,-2003,2067,-99,3724,26,49,894
750129,754808,1378908,759877,1382469,2755,2794,5,-6037,-2065,1858,7,4023,36,47,894
751130,755008,1379080,760074,1382666,2655,2831,-70,-5934,-2111,1714,99,4424,36,47,894
752131,755180,1379284,760271,1382863,2842,2628,-149,-5683,-2149,1556,375,5088,36,36,894
753132,755360,1379508,760468,1383060,2800,2492,-220,-5259,-2193,1483,677,5562,36,36,894
754133,755552,1379728,760665,1383257,2728,2508,-261,-4647,-2224,1474,702,5930,33,52,893
755134,755724,1379948,760862,1383454,2865,2498,-253,-4045,-2244,1394,734,5854,33,52,893
756135,755920,1380140,761059,1383651,2717,2676,-189,-3532,-2257,1319,804,5638,44,36,895
757136,756156,1380340,761256,1383848,2451,2626,-94,-3152,-2251,1252,753,5121,44,36,895
758144,756360,1380548,761486,1384078,2663,2586,32,-2916,-2220,1230,755,4714,39,38,894
759138,756572,1380744,761683,1384275,2608,2662,181,-2775,-2166,1166,666,4458,39,38,894
760139,756760,1380968,761880,1384472,2763,2476,347,-2726,-2086,1155,433,4207,39,47,897
761140,756972,1381200,762077,1384669,2607,2411,519,-2690,-1991,1171,208,4104,39,47,897
762141,757200,1381444,762274,1384866,2494,2316,692,-2639,-1889,1078,-88,4091,45,46,896
763142,757440,1381712,762471,1385063,2401,2136,860,-2606,-1802,1025,-319,3981,45,46,896
764143,757660,1381960,762668,1385260,2517,2239,1014,-2570,-1733,1066,-508,3957,55,62,897
765144,757912,1382228,762865,1385457,2294,2083,1136,-2518,-1652,1130,-551,4152,55,62,897
766145,758152,1382492,763062,1385654,2351,2080,1219,-2352,-1562,1170,-534,4209,39,51,901
767146,758384,1382744,763259,1385851,2387,2131,1272,-2199,-1484,1079,-359,4264,39,51,901
768147,758604,1382996,763456,1386048,2453,2108,1291,-2010,-1420,930,-25,4389,35,57,902
769148,758832,1383284,763653,1386245,2390,1843,1260,-1786,-1364,929,-55,4403,35,57,902
770148,759072,1383552,763850,1386442,2297,1938,1198,-1573,-1294,1046,-277,4497,36,54,901
771149,759296,1383804,764047,1386639,2385,2013,1140,-1347,-1225,1138,-287,4452,36,54,901
772151,759524,1384044,764244,1386836,2348,2070,1088,-1150,-1202,1195,-137,4379,52,56,902
773152,759768,1384288,764441,1387033,2228,2025,1041,-947,-1219,1228,20,4395,52,56,902
774154,759968,1384540,764638,1387230,2503,1952,994,-747,-1242,1274,116,4372,51,53,901
775154,760180,1384756,764835,1387427,2422,2169,935,-514,-1263,1345,193,4485,51,53,901
776155,760408,1384984,765032,1387624,2310,2081,872,-343,-1268,1393,141,4410,35,50,901
777156,760624,1385200,765229,1387821,2377,2148,823,-210,-1266,1492,146,4234,35,50,901
778157,760844,1385412,765426,1388018,2343,2167,813,-175,-1280,1503,253,3859,50,41,900
779158,761080,1385596,765623,1388215,2227,2348,829,-190,-1309,1338,191,3828,50,41,900
780159,761288,1385764,765820,1388412,2397,2461,818,-154,-1335,1173,115,4266,29,42,901
781160,761508,1385956,766017,1388609,2313,2314,794,10,-1360,1001,351,4340,29,42,901
782162,761724,1386108,766214,1388806,2331,2584,773,164,-1402,764,624,4456,32,46,900
783163,761952,1386296,766411,1389003,2243,2364,754,334,-1450,658,888,4525,32,46,900
784163,762188,1386472,766608,1389200,2177,2448,738,459,-1491,539,1054,4506,32,30,900
785164,762440,1386656,766805,1389397,2054,2405,719,601,-1525,279,1031,4500,32,30,900
786165,762676,1386832,767002,1389594,2138,2464,691,741,-1526,-5,589,4647,51,38,899
787166,762884,1386980,767199,1389791,2308,2662,650,920,-1477,-344,328,4659,51,38,899
788167,763144,1387128,767396,1389988,1956,2683,623,1079,-1410,-724,365,4682,50,25,901
789168,763376,1387268,767593,1390185,2117,2759,619,1154,-1341,-912,485,4494,50,25,901
790170,763588,1387420,767790,1390382,2236,2704,626,1222,-1281,-941,910,4558,32,27,898
791170,763864,1387588,767987,1390579,1802,2618,642,1299,-1238,-1080,1407,4501,32,27,898
792171,764120,1387736,768184,1390776,1901,2764,667,1326,-1232,-1269,1609,4322,47,23,897
793172,764348,1387876,768381,1390973,2064,2840,702,1307,-1235,-1428,1405,4330,47,23,897
794173,764592,1388004,768578,1391170,1944,2947,712,1298,-1205,-1749,918,4348,37,32,900
795174,764836,1388116,768775,1391367,1925,3084,705,1200,-1167,-2064,354,4125,37,32,900
796175,765068,1388252,768972,1391564,1984,2962,724,998,-1115,-2144,-206,3960,39,17,896
797177,765320,1388376,769169,1391761,1836,3069,752,762,-1047,-2241,-395,4218,39,17,896
798177,765580,1388492,769366,1391958,1759,3156,799,613,-1018,-2394,114,4441,55,33,893
799178,765824,1388612,769563,1392155,1840,3165,811,436,-1044,-2328,789,4773,55,33,893
800179,766080,1388732,769760,1392352,1739,3199,848,327,-1081,-2137,1161,5055,58,22,897
801180,766332,1388896,769957,1392549,1741,2940,888,237,-1071,-2106,1002,5132,58,22,897
802181,766584,1389080,770154,1392746,1717,2822,958,130,-1024,-2057,479,4746,43,41,896
803182,766836,1389220,770351,1392943,1693,3122,1052,-177,-965,-1951,132,3983,43,41,896
804183,767108,1389380,770548,1393140,1536,3014,1159,-559,-864,-1879,-600,3501,56,26,898
805184,767332,1389500,770745,1393337,1825,3299,1250,-944,-722,-1795,-1049,3475,56,26,898
806186,767564,1389632,770942,1393534,1760,3253,1328,-1265,-565,-1656,-981,3640,54,22,897
807187,767824,1389768,771139,1393731,1558,3255,1418,-1535,-433,-1544,-620,3730,54,22,897
808188,768048,1389896,771336,1393928,1772,3336,1496,-1664,-300,-1574,-780,4192,34,37,893
809188,768268,1390040,771533,1394125,1787,3261,1551,-1670,-159,-1633,-782,4577,34,37,893
810189,768480,1390160,771730,1394322,1832,3446,1599,-1602,-11,-1758,-711,4665,45,26,897
811190,768696,1390284,771927,1394519,1799,3453,1644,-1588,128,-1672,-596,4632,45,26,897
812191,768888,1390436,772124,1394716,1952,3298,1697,-1571,257,-1694,-611,4547,46,22,895
813192,769072,1390572,772321,1394913,2008,3426,1749,-1571,366,-1575,-279,4461,46,22,895
814193,769244,1390708,772518,1395110,2094,3454,1797,-1586,459,-1400,-189,4388,29,23,893
815194,769440,1390836,772715,1395307,1946,3535,1849,-1640,543,-1224,-149,4285,29,23,893
816195,769620,1390960,772912,1395504,2054,3593,1893,-1656,632,-1047,27,4323,36,32,892
817196,769804,1391116,773109,1395701,2035,3411,1929,-1647,738,-924,-89,4242,36,32,892
818197,769948,1391284,773306,1395898,2309,3350,1965,-1695,857,-796,-267,4079,42,34,891
819198,770116,1391468,773503,1396095,2173,3257,1993,-1721,951,-775,-460,4019,42,34,891
820199,770288,1391648,773700,1396292,2159,3290,2017,-1763,1023,-632,-616,3845,42,42,892
821200,770468,1391912,773897,1396489,2117,2737,2039,-1856,1086,-421,-1037,3744,42,42,892
822201,770612,1392168,774094,1396686,2366,2762,2041,-1941,1140,-322,-1428,3786,24,40,894
823202,770776,1392444,774291,1396883,2256,2603,2019,-1887,1201,-281,-1599,3797,24,40,894
824203,770904,1392660,774488,1397080,2513,2971,2009,-1931,1274,-120,-1343,3422,28,42,898
825204,771052,1392940,774685,1397277,2409,2534,2021,-2034,1375,138,-1018,3291,28,42,898
826205,771200,1393228,774882,1397474,2432,2445,2038,-2077,1504,450,-772,3308,20,59,898
827206,771324,1393516,775079,1397671,2615,2406,2041,-2094,1630,850,-462,3233,20,59,898
828207,771448,1393788,775276,1397868,2648,2474,2030,-2092,1750,1233,-147,3357,18,50,898
829208,771584,1394052,775473,1398065,2600,2496,1979,-1899,1904,1280,-435,3770,18,50,898
830209,771732,1394336,775670,1398262,2547,2333,1898,-1647,2043,1163,-545,3798,33,61,895
831210,771864,1394628,775867,1398459,2677,2242,1810,-1372,2107,1024,-379,3696,33,61,895
832211,772028,1394912,776064,1398656,2492,2255,1700,-1018,2137,668,-657,4050,19,58,895
833212,772168,1395176,776261,1398853,2667,2351,1580,-592,2181,565,-643,4054,19,58,895
834213,772308,1395452,776458,1399050,2693,2242,1473,-245,2225,757,-92,3855,24,48,897
835214,772444,1395696,776655,1399247,2746,2422,1387,22,2289,1080,47,3549,24,48,897
836215,772556,1395984,776852,1399444,2934,2108,1323,172,2359,1706,216,2974,39,48,898
837216,772676,1396280,777049,1399641,2919,2015,1275,200,2400,2071,109,2632,39,48,898
838217,772796,1396556,777246,1399838,2953,2106,1233,225,2434,2150,-479,2637,18,50,896
839219,772944,1396800,777443,1400035,2801,2286,1181,269,2451,2038,-1072,2616,18,50,896
840220,773104,1397112,777640,1400232,2743,1811,1110,403,2443,1874,-1608,2767,24,46,895
841227,773280,1397420,777870,1400462,2668,1802,1014,580,2421,1815,-2097,3048,24,46,895
842221,773452,1397696,778067,1400659,2705,1968,881,867,2382,1582,-2487,3324,47,51,895
843222,773600,1397964,778264,1400856,2877,1987,731,1265,2347,1281,-2711,3560,47,51,895
844223,773732,1398224,778461,1401053,3007,2010,628,1464,2262,1596,-2114,2864,32,53,900
845225,773868,1398592,778658,1401250,3008,1261,592,1478,2111,2346,-1401,2314,32,53,900
846225,774012,1398904,778855,1401447,2983,1561,586,1420,1918,2840,-1155,2129,25,64,898
847227,774156,1399192,779052,1401644,3007,1671,590,1248,1715,3104,-1286,1807,25,64,898
848227,774380,1399484,779249,1401841,2496,1604,601,1091,1501,3118,-1112,1874,26,55,900
849228,774604,1399788,779446,1402038,2485,1483,619,1020,1262,2889,-645,2092,26,55,900
850229,774804,1400184,779643,1402235,2635,821,653,1054,1019,2858,-480,2340,57,59,899
851230,775004,1400520,779840,1402432,2635,1136,693,1207,814,2812,-444,2741,57,59,899
852231,775196,1400828,780037,1402629,2688,1262,753,1458,646,2918,-63,2944,31,71,902
853232,775368,1401120,780234,1402826,2825,1320,845,1633,450,3275,246,2783,31,71,902
854233,775596,1401468,780431,1403023,2462,905,926,1853,190,3530,373,2869,37,69,903
855234,775812,1401804,780628,1403220,2530,919,987,2152,-47,3671,110,3082,37,69,903
856235,776024,1402188,780825,1403417,2549,537,1023,2595,-206,3351,-477,3635,54,69,902
857236,776264,1402460,781022,1403614,2356,1205,1047,3212,-302,2491,-868,4039,54,69,902
858237,776456,1402792,781219,1403811,2659,770,1111,3807,-410,2193,-462,3743,36,74,906
859238,776652,1403148,781416,1404008,2635,550,1204,4210,-574,2650,-5,3350,36,74,906
860239,776912,1403480,781613,1404205,2208,641,1284,4610,-753,3231,78,3376,30,66,905
861240,777152,1403824,781810,1404402,2315,502,1341,5023,-901,3605,-7,3203,30,66,905
862241,777404,1404080,782007,1404599,2217,1026,1376,5427,-996,3247,-265,3285,51,59,905
863242,777656,1404412,782204,1404796,2194,491,1420,5922,-1039,2292,-263,3638,51,59,905
864243,777892,1404752,782401,1404993,2278,379,1472,6332,-1106,1776,79,3341,56,49,908
865244,778128,1405048,782598,1405190,2262,611,1508,6716,-1243,1910,263,3076,56,49,908
866245,778396,1405360,782795,1405387,2031,460,1548,7005,-1404,2264,487,2790,38,51,910
867246,778692,1405620,782992,1405584,1813,758,1570,7212,-1553,2306,221,2531,38,51,910
868247,778976,1405732,783189,1405781,1851,1720,1521,7482,-1658,1552,-545,2950,48,54,909
869248,779240,1405912,783386,1405978,1947,1303,1432,7828,-1760,433,-664,2949,48,54,909
870249,779528,1406116,783583,1406175,1758,1149,1312,8108,-1966,125,-477,2664,61,53,911
871250,779780,1406312,783780,1406372,1959,1200,1177,8193,-2252,122,-456,2182,61,53,911
872252,780096,1406532,783977,1406569,1508,1040,1023,8130,-2587,6,-58,1911,44,47,908
873252,780408,1406688,784174,1406766,1483,1458,816,8029,-2918,-324,-265,1848,44,47,908
874253,780672,1406880,784371,1406963,1755,1235,537,8091,-3111,-1181,-1162,2576,46,42,907
875254,780928,1407112,784568,1407160,1779,970,190,8357,-3233,-1784,-869,3101,46,42,907
876255,781196,1407320,784765,1407357,1674,1115,-118,8534,-3371,-1814,-94,2460,43,37,910
877256,781512,1407516,784962,1407554,1323,1190,-345,8465,-3602,-1931,932,1812,43,37,910
878257,781788,1407712,785159,1407751,1538,1191,-543,8252,-3836,-2024,652,1744,52,33,910
879258,782108,1407880,785356,1407948,1210,1378,-878,8142,-3880,-2054,-397,2605,52,33,910
880259,782352,1408028,785553,1408145,1665,1525,-1374,8232,-3745,-2302,-600,3108,53,43,912
881260,782584,1408212,785750,1408342,1725,1306,-1868,8256,-3714,-2562,337,2537,53,43,912
882261,782908,1408380,785947,1408539,1095,1418,-2244,7940,-3887,-2842,791,1589,59,27,911
883262,783200,1408592,786144,1408736,1253,1137,-2477,7185,-4138,-3008,780,796,59,27,911
884263,783460,1408784,786341,1408933,1427,1264,-2681,6316,-4289,-2775,115,997,49,30,907
885264,783724,1408972,786538,1409130,1373,1293,-2956,5567,-4148,-2454,-1359,1657,49,30,907
886265,784024,1409132,786735,1409327,1103,1484,-3258,5009,-3868,-2413,-1874,2003,58,35,911
887266,784296,1409300,786932,1409524,1246,1447,-3465,4344,-3695,-2550,-1784,1862,58,35,911
888267,784544,1409452,787129,1409721,1373,1567,-3568,3552,-3657,-2605,-1725,1699,38,28,911
889268,784828,1409580,787326,1409918,1111,1747,-3613,2704,-3640,-2521,-1784,1960,38,28,911
890269,785040,1409752,787523,1410115,1555,1483,-3595,1923,-3590,-2484,-1746,2312,45,26,911
891270,785292,1409940,787720,1410312,1281,1387,-3489,1175,-3548,-2545,-1907,2662,45,26,911
892271,785564,1410112,787917,1410509,1124,1498,-3370,560,-3518,-2263,-1925,3490,53,27,910
893272,785828,1410240,788114,1410706,1145,1803,-3233,100,-3491,-1922,-1812,4026,53,27,910
894273,786036,1410412,788311,1410903,1490,1539,-3056,-268,-3448,-1622,-1793,4317,35,27,911
895274,786268,1410548,788508,1411100,1325,1791,-2856,-670,-3401,-1231,-1630,4606,35,27,911
896275,786476,1410712,788705,1411297,1471,1632,-2629,-1138,-3373,-828,-1271,4577,46,29,909
897276,786716,1410840,788902,1411494,1252,1887,-2385,-1593,-3373,-476,-842,4885,46,29,909
898277,786944,1410968,789099,1411691,1315,1917,-2113,-2009,-3405,59,-170,5536,33,23,909
899278,787148,1411152,789296,1411888,1461,1573,-1146,-2722,-3591,1953,460,10596,33,23,909
900279,787372,1411332,789493,1412085,1325,1605,1462,-3605,-4130,5032,159,26886,50,25,908
901280,787596,1411480,789690,1412282,1314,1827,3137,-3431,-4389,2369,-1325,15002,50,25,908
902281,787788,1411632,789887,1412479,1516,1822,3299,-3307,-4299,1137,-1047,6210,32,30,908
903282,788020,1411788,790084,1412676,1252,1816,3039,-3528,-4144,816,-500,5232,32,30,908
904283,788272,1411948,790281,1412873,1102,1807,3019,-4197,-4110,806,-306,4329,43,22,908
905284,788444,1412096,790478,1413070,1613,1904,3185,-4629,-4168,962,-614,5044,43,22,908
906285,788664,1412264,790675,1413267,1304,1791,3342,-4828,-4166,821,-551,5262,28,40,908
907286,788856,1412400,790872,1413464,1481,2018,3330,-4799,-4038,1307,-944,5864,28,40,908
908287,789068,1412564,791069,1413661,1351,1858,3145,-4514,-3826,1835,-829,6299,35,41,905
909289,789248,1412760,791266,1413858,1558,1659,2930,-4305,-3600,2050,-143,5952,35,41,905
910289,789480,1412960,791463,1414055,1218,1633,2693,-4169,-3452,2316,39,5767,32,34,906
911290,789696,1413136,791660,1414252,1311,1792,2471,-4210,-3362,2397,483,4990,32,34,906
912291,789904,1413280,791857,1414449,1356,2015,2293,-4349,-3280,2752,1004,4561,33,23,908
913292,790120,1413424,792054,1414646,1297,2039,2139,-4595,-3225,3207,1174,3990,33,23,908
914293,790384,1413568,792251,1414843,969,2063,1951,-4848,-3134,3433,1006,4270,50,34,909
915294,790600,1413724,792448,1415040,1261,2006,1726,-4931,-3033,3661,1384,4408,50,34,909
916295,790836,1413880,792645,1415237,1119,2024,1478,-4965,-2991,3902,1958,4447,52,40,907
917296,791088,1414024,792842,1415434,995,2122,1167,-4787,-2993,3944,2228,5247,52,40,907
918297,791304,1414164,793039,1415631,1212,2173,846,-4387,-3015,3697,2006,5377,29,36,906
919298,791524,1414280,793236,1415828,1178,2359,548,-3963,-3049,3602,1572,5462,29,36,906
920299,791744,1414384,793433,1416025,1168,2475,284,-3484,-3054,3424,1248,5369,29,17,908
921300,791952,1414516,793630,1416222,1238,2329,102,-3161,-3044,3329,1442,4679,29,17,908
922301,792172,1414632,793827,1416419,1154,2465,-11,-2973,-3009,3341,1190,4331,34,15,905
923302,792412,1414736,794024,1416616,1010,2581,-75,-2839,-2924,3013,767,4164,34,15,905
924312,792624,1414844,794254,1416846,1193,2610,-77,-2648,-2808,2599,392,3991,29,15,905
925305,792820,1414960,794451,1417043,1293,2596,-33,-2429,-2705,2224,63,3839,29,15,905
926305,793040,1415060,794648,1417240,1134,2739,32,-2060,-2606,1652,-248,4229,31,16,904
927306,793216,1415148,794845,1417437,1418,2862,83,-1456,-2482,1105,-808,4850,31,16,904
928307,793460,1415244,795042,1417634,973,2857,139,-719,-2334,563,-1164,5088,26,25,902
929308,793668,1415328,795239,1417831,1194,2982,236,26,-2198,-103,-1203,5005,26,25,902
930309,793852,1415392,795436,1418028,1350,3166,376,721,-2118,-615,-1052,4731,45,21,899
931310,794080,1415496,795633,1418225,1061,2958,495,1446,-2082,-867,-1038,4985,45,21,899
932311,794272,1415608,795830,1418422,1289,2945,564,2236,-2019,-1047,-1254,5016,43,17,900
933312,794520,1415708,796027,1418619,917,3064,590,3025,-1913,-1115,-1298,4823,43,17,900
934313,794736,1415880,796224,1418816,1108,2625,595,3738,-1785,-1225,-1185,4385,44,22,901
935314,794944,1416044,796421,1419013,1154,2690,610,4219,-1653,-1159,-916,3791,44,22,901
936315,795172,1416244,796618,1419210,1016,2464,629,4507,-1524,-996,-498,3371,47,46,901
937316,795392,1416480,796815,1419407,1056,2223,658,4623,-1388,-763,-94,2688,47,46,901
938317,795604,1416724,797012,1419604,1099,2153,649,4547,-1231,-255,191,2229,34,46,903
939318,795800,1417000,797209,1419801,1201,1918,616,4248,-1079,237,465,1470,34,46,903
940319,796000,1417288,797406,1419998,1174,1804,587,3820,-967,672,763,1098,47,54,906
941321,796172,1417508,797603,1420195,1360,2219,527,3336,-903,1131,896,1081,47,54,906
942321,796404,1417724,797800,1420392,970,2237,390,2909,-853,1540,928,1550,42,41,908
943322,796632,1417952,797997,1420589,982,2148,123,2813,-834,1770,964,2312,42,41,908
944323,796812,1418240,798194,1420786,1290,1734,-150,2716,-932,1754,1323,1781,48,44,906
945324,797024,1418500,798391,1420983,1083,1882,-382,2450,-1136,1574,1429,1688,48,44,906
946325,797212,1418760,798588,1421180,1237,1855,-645,2197,-1357,1333,1229,2224,36,62,909
947326,797408,1419024,798785,1421377,1189,1801,-952,2174,-1572,1120,1297,2685,36,62,909
948327,797612,1419308,798982,1421574,1136,1638,-1252,2191,-1796,970,1442,2675,31,59,909
949328,797808,1419560,799179,1421771,1186,1814,-1516,2102,-2051,952,1612,2461,31,59,909
950329,797988,1419816,799376,1421968,1293,1763,-1774,1962,-2315,1115,1375,2459,48,60,908
951330,798216,1420076,799573,1422165,981,1712,-2035,1828,-2555,1355,983,2403,48,60,908
952331,798424,1420344,799770,1422362,1101,1630,-2275,1667,-2761,1671,412,2230,37,48,908
953332,798596,1420596,799967,1422559,1337,1707,-2472,1420,-2938,1888,272,1962,37,48,908
954333,798784,1420840,800164,1422756,1241,1736,-2691,1158,-3061,2070,161,2220,29,53,911
955334,799004,1421064,800361,1422953,1032,1850,-2944,988,-3121,2178,-712,2527,29,53,911
956335,799192,1421284,800558,1423150,1236,1866,-3130,798,-3178,1940,-839,2272,29,43,909
957336,799384,1421456,800755,1423347,1213,2177,-3226,684,-3275,1535,-775,2595,29,43,909
958337,799592,1421628,800952,1423544,1108,2187,-3314,653,-3399,1329,-769,2890,32,41,910
959338,799812,1421820,801149,1423741,1024,2066,-3349,642,-3461,1206,-1355,3020,32,41,910
960339,799996,1422012,801346,1423938,1255,2068,-3332,684,-3433,1120,-1569,3246,29,47,907
961340,800200,1422156,801543,1424135,1127,2391,-3301,734,-3336,1111,-1598,3271,29,47,907
962341,800376,1422320,801740,1424332,1312,2282,-3275,833,-3192,1038,-1578,3329,44,31,906
963342,800552,1422448,801937,1424529,1321,2537,-3239,935,-2993,720,-1736,3457,44,31,906
964343,800732,1422572,802134,1424726,1304,2595,-3192,1083,-2764,29,-2120,3650,22,19,906
965344,800924,1422744,802331,1424923,1231,2306,-3120,1178,-2519,-507,-2429,3638,22,19,906
966345,801128,1422888,802528,1425120,1154,2504,-3019,1267,-2306,-600,-2461,3757,36,36,904
967346,801336,1423060,802725,1425317,1124,2341,-2899,1446,-2110,-708,-2619,4041,36,36,904
968347,801524,1423224,802922,1425514,1253,2406,-2749,1759,-1895,-999,-3139,4346,30,34,905
969348,801676,1423408,803119,1425711,1498,2288,-2555,2041,-1651,-1265,-3629,4352,30,34,905
970349,801864,1423588,803316,1425908,1278,2320,-2330,2322,-1397,-1325,-3863,4335,36,25,905
971350,802004,1423748,803513,1426105,1603,2462,-2092,2626,-1147,-1325,-3972,4522,36,25,905
972351,802136,1423916,803710,1426302,1681,2425,-1841,2932,-913,-1494,-4069,4635,28,34,903
973352,802276,1424072,803907,1426499,1656,2519,-1608,3156,-691,-1773,-3723,4751,28,34,903
974353,802372,1424228,804104,1426696,1977,2537,-995,3976,-490,-1899,-2564,10179,39,23,902
975354,802524,1424396,804301,1426893,1646,2475,772,7133,-228,-1916,-2099,30151,39,23,902
976355,802696,1424548,804498,1427090,1532,2596,2315,9240,0,-1935,-1665,11208,41,29,902
977356,802884,1424696,804695,1427287,1437,2642,2723,9028,142,-1729,-918,2383,41,29,902
978357,803052,1424884,804892,1427484,1575,2397,2574,7658,238,-1462,-714,1332,24,46,903
979358,803184,1425104,805089,1427681,1830,2187,2446,6452,320,-1189,-824,1542,24,46,903
980359,803340,1425312,805286,1427878,1698,2258,2428,5625,417,-1470,-671,1575,38,37,902
981360,803472,1425544,805483,1428075,1876,2093,2370,4902,493,-1339,-923,1645,38,37,902
982361,803608,1425740,805680,1428272,1879,2319,2269,4247,523,-1258,-744,1572,19,37,903
983362,803752,1425928,805877,1428469,1852,2373,2161,3418,507,-1549,-371,1362,19,37,903
984363,803856,1426168,806074,1428666,2143,2030,2029,2564,423,-1512,-244,1525,36,47,902
985364,803988,1426404,806271,1428863,1998,2038,1789,1842,334,-1555,-361,2137,36,47,902
986366,804108,1426692,806468,1429060,2107,1674,1487,1401,265,-1751,-577,2811,14,53,902
987366,804228,1426944,806665,1429257,2141,1875,1205,1071,136,-1837,-729,2934,14,53,902
988367,804356,1427240,806862,1429454,2122,1557,944,731,-12,-1968,-1031,3410,26,57,904
989368,804464,1427396,807059,1429651,2287,2450,687,674,-121,-1861,-1597,4151,26,57,904
990369,804564,1427524,807256,1429848,2380,2657,434,663,-189,-1712,-2260,4264,14,44,903
991370,804672,1427676,807453,1430045,2370,2527,150,857,-245,-1651,-2171,5426,14,44,903
992371,804768,1427876,807650,1430242,2489,2225,3,1095,-351,-1691,-1032,5950,14,43,899
993372,804860,1428116,807847,1430439,2561,1957,507,1296,-556,-786,-112,10893,14,43,899
994373,804976,1428356,808044,1430636,2447,1938,1476,1588,-760,-149,-121,13324,29,41,897
995374,805092,1428660,808241,1430833,2483,1492,1950,1725,-801,-635,-871,6725,29,41,897
996375,805208,1429028,808438,1431030,2519,1017,1799,1593,-688,-615,-1378,4342,28,53,899
997376,805336,1429284,808635,1431227,2475,1692,1536,1326,-522,-528,-775,3701,28,53,899
998377,805444,1429608,808832,1431424,2640,1212,1419,963,-393,-565,-214,3177,26,58,903
999378,805572,1429912,809029,1431621,2546,1290,1426,503,-320,-569,-216,2729,26,58,903
1000379,805692,1430184,809226,1431818,2631,1458,1459,-38,-251,-599,-427,2653,30,67,903
1001380,805816,1430480,809423,1432015,2639,1264,1467,-395,-172,-514,-745,3204,30,67,903
1002381,805952,1430780,809620,1432212,2590,1194,1475,-539,-98,-443,-1071,3724,18,68,903
1003382,806092,1431084,809817,1432409,2591,1122,1501,-501,-50,-524,-1168,4172,18,68,903
1004383,806216,1431324,810014,1432606,2725,1504,1543,-409,-63,-618,-1007,4304,20,59,903
1005384,806356,1431620,810211,1432803,2651,1110,1576,-271,-160,-609,-527,4489,20,59,903
1006385,806508,1431936,810408,1433000,2595,933,1601,-80,-342,-644,125,4528,19,67,903
1007393,806648,1432292,810638,1433230,2711,628,1613,88,-587,-639,623,4467,19,67,903
1008387,806800,1432600,810835,1433427,2657,880,1613,269,-867,-590,1003,4614,40,64,903
1009388,806948,1432872,811032,1433624,2704,1072,1592,500,-1145,-499,1238,4779,40,64,903
1010389,807092,1433196,811229,1433821,2753,691,1539,810,-1413,-385,1480,4979,38,73,905
1011390,807268,1433540,811426,1434018,2563,502,1474,1135,-1653,-320,1570,4849,38,73,905
1012391,807428,1433820,811623,1434215,2680,865,1414,1403,-1856,-141,1586,4669,24,60,904
1013392,807596,1434060,811820,1434412,2644,1096,1370,1558,-2029,72,1309,4346,24,60,904
1014393,807752,1434392,812017,1434609,2737,462,1355,1632,-2133,341,185,4127,24,52,906
1015394,807912,1434736,812214,1434806,2729,322,1359,1674,-2177,468,-692,3985,24,52,906
1016395,808080,1435000,812411,1435003,2693,793,1365,1702,-2196,542,-874,3915,28,66,903
1017396,808252,1435280,812608,1435200,2680,656,1341,1764,-2250,515,-530,4025,28,66,903
1018397,808408,1435508,812805,1435397,2799,968,1309,1841,-2352,513,253,3911,32,55,904
1019398,808568,1435840,813002,1435594,2791,258,1281,1893,-2494,551,970,3901,32,55,904
1020399,808728,1436120,813199,1435791,2807,547,1261,1972,-2636,512,656,4169,21,64,905
1021400,808960,1436372,813396,1435988,2343,698,1212,2092,-2730,602,-352,4244,21,64,905
1022401,809164,1436636,813593,1436185,2516,593,1171,2264,-2796,666,-481,4236,37,61,906
1023402,809372,1436820,813790,1436382,2487,1099,1165,2400,-2832,505,-624,4148,37,61,906
1024403,809600,1437040,813987,1436579,2349,864,1178,2517,-2846,454,-689,4160,54,58,908
1025404,809800,1437212,814184,1436776,2524,1175,1164,2619,-2879,299,-611,4251,54,58,908
1026405,809992,1437368,814381,1436973,2577,1293,1092,2837,-2948,27,-177,4527,37,32,905
1027406,810196,1437472,814578,1437170,2499,1659,996,3114,-3061,-284,513,4564,37,32,905
1028407,810376,1437592,814775,1437367,2658,1593,855,3338,-3222,-575,654,4505,36,15,903
1029408,810556,1437680,814972,1437564,2666,1840,707,3536,-3395,-768,843,4445,36,15,903
1030409,810764,1437768,815169,1437761,2487,1887,579,3560,-3525,-591,990,4016,24,23,902
1031410,810944,1437832,815366,1437958,2671,2096,476,3499,-3597,-431,1003,3850,24,23,902
1032411,811128,1437908,815563,1438155,2652,2074,399,3329,-3621,-486,955,3453,26,23,900
1033412,811340,1437976,815760,1438352,2471,2182,352,3054,-3609,-378,541,3254,26,23,900
1034413,811524,1438040,815957,1438549,2653,2265,320,2778,-3559,-274,397,3460,25,11,897
1035414,811672,1438108,816154,1438746,2900,2297,256,2534,-3493,-265,845,3752,25,11,897
1036415,811856,1438192,816351,1438943,2682,2247,266,2449,-3403,-196,756,5534,22,11,899
1037416,812024,1438280,816548,1439140,2796,2269,1099,2527,-3192,-1328,245,14090,22,11,899
1038417,812192,1438364,816745,1439337,2809,2344,2486,2753,-2939,-1131,-11,16891,24,24,894
1039418,812392,1438476,816942,1439534,2609,2206,2986,2891,-2821,118,620,6938,24,24,894
1040419,812564,1438592,817139,1439731,2795,2217,2552,2873,-2775,208,362,4702,43,23,895
1041420,812732,1438692,817336,1439928,2834,2361,1809,2906,-2674,405,-407,4683,43,23,895
1042421,812904,1438768,817533,1440125,2821,2564,1188,2752,-2479,393,-948,3941,44,23,898
1043422,813104,1438888,817730,1440322,2645,2323,830,2454,-2357,305,-492,3270,44,23,898
1044423,813276,1439016,817927,1440519,2832,2303,660,1857,-2448,186,786,2463,45,28,895
1045424,813444,1439124,818124,1440716,2871,2468,497,1196,-2603,345,588,2723,45,28,895
1046425,813632,1439268,818321,1440913,2751,2266,287,739,-2682,442,144,3104,25,35,897
1047426,813816,1439388,818518,1441110,2783,2450,63,370,-2700,354,-422,3092,25,35,897
1048427,813996,1439492,818715,1441307,2815,2592,-143,27,-2712,286,-1257,3199,30,21,894
1049428,814192,1439628,818912,1441504,2717,2419,-276,-459,-2740,207,-1458,2896,30,21,894
1050429,814368,1439776,819109,1441701,2852,2365,-352,-925,-2805,349,-1159,2931,21,23,894
1051430,814540,1439900,819306,1441898,2889,2549,-380,-1410,-2905,497,-948,2847,21,23,894
1052432,814720,1440048,819503,1442095,2847,2420,-338,-1878,-2994,578,-751,3064,28,20,895
1053433,814924,1440160,819700,1442292,2695,2683,-247,-2172,-3086,617,-349,3439,28,20,895
1054433,815112,1440288,819897,1442489,2800,2614,-141,-2437,-3203,510,309,3427,29,22,894
1055434,815300,1440440,820094,1442686,2805,2484,-38,-2625,-3327,492,143,3779,29,22,894
1056435,815488,1440568,820291,1442883,2810,2665,105,-2775,-3398,388,-613,3760,29,31,894
1057436,815648,1440708,820488,1443080,3002,2615,286,-2891,-3434,351,-749,3802,29,31,894
1058437,815840,1440840,820685,1443277,2806,2694,471,-2973,-3467,323,-492,3870,26,25,895
1059438,816020,1440976,820882,1443474,2888,2696,665,-3029,-3506,342,-378,3967,26,25,895
1060439,816184,1441124,821079,1443671,3004,2644,848,-2948,-3517,423,-725,4377,30,29,891
1061440,816368,1441300,821276,1443868,2885,2478,1039,-2793,-3492,506,-880,4493,30,29,891
1062441,816556,1441440,821473,1444065,2865,2729,1254,-2571,-3443,546,-862,4728,33,36,891
1063442,816728,1441600,821670,1444262,2977,2620,1490,-2288,-3385,510,-887,4725,33,36,891
1064443,816896,1441748,821867,1444459,3016,2718,1749,-2073,-3329,453,-651,4514,38,38,894
1065444,817076,1441904,822064,1444656,2949,2686,1996,-1893,-3253,521,-577,4446,38,38,894
1066445,817280,1442044,822261,1444853,2797,2812,2224,-1804,-3152,695,-537,4059,29,33,891
1067446,817472,1442196,822458,1445050,2876,2757,2417,-1705,-3013,850,-556,4074,29,33,891
1068447,817700,1442384,822655,1445247,2638,2537,2581,-1624,-2852,861,-525,3957,34,34,892
1069449,817908,1442544,822852,1445444,2759,2728,2708,-1552,-2702,1013,-97,3818,34,34,892
1070449,818096,1442688,823049,1445641,2889,2852,2786,-1481,-2579,1181,527,3870,30,31,893
1071450,818288,1442872,823246,1445838,2867,2608,2854,-1435,-2473,1272,817,3726,30,31,893
1072451,818488,1443076,823443,1446035,2817,2481,2904,-1368,-2396,1415,1114,3698,42,49,892
1073452,818664,1443276,823640,1446232,2977,2505,2925,-1344,-2326,1568,1212,3547,42,49,892
1074453,818876,1443448,823837,1446429,2747,2692,2906,-1337,-2246,1742,1188,3541,32,47,894
1075454,819052,1443624,824034,1446626,2982,2677,2824,-1294,-2185,1850,1266,3586,32,47,894
1076455,819244,1443824,824231,1446823,2884,2525,2695,-1184,-2168,1950,1495,3769,27,51,894
1077456,819404,1444056,824428,1447020,3101,2311,2517,-995,-2161,2144,1425,3918,27,51,894
1078457,819572,1444288,824625,1447217,3065,2296,2305,-850,-2153,2269,1424,3780,37,50,892
1079458,819740,1444540,824822,1447414,3079,2147,2070,-691,-2160,2322,1514,3953,37,50,892
1080459,819924,1444752,825019,1447611,2986,2391,1795,-490,-2189,2412,1617,4049,34,57,893
1081460,820104,1445000,825216,1447808,3019,2144,1504,-269,-2224,2489,1597,3878,34,57,893
1082461,820284,1445244,825413,1448005,3027,2150,1200,-208,-2244,2487,1374,3631,31,44,894
1083462,820480,1445488,825610,1448202,2929,2129,905,-200,-2245,2465,1040,3384,31,44,894
1084463,820648,1445748,825807,1448399,3118,2002,621,-269,-2243,2358,585,3188,23,45,894
1085464,820808,1445956,826004,1448596,3185,2323,367,-399,-2238,2243,201,2967,23,45,894
1086465,820992,1446156,826201,1448793,3042,2372,155,-609,-2239,2075,188,2721,32,56,896
1087466,821192,1446396,826398,1448990,2941,2103,-19,-871,-2275,1882,547,2690,32,56,896
1088467,821396,1446648,826595,1449187,2914,2005,-171,-1090,-2341,1738,879,2775,47,46,892
1089468,821616,1446892,826792,1449384,2805,2035,-274,-1230,-2420,1586,1051,2855,47,46,892
1090476,821852,1447172,827022,1449614,2703,1789,-336,-1402,-2511,1319,1004,2836,31,61,897
1091470,822064,1447444,827219,1449811,2848,1806,-364,-1648,-2584,1145,897,2903,31,61,897
1092471,822272,1447716,827416,1450008,2869,1773,-381,-1762,-2611,984,777,3093,29,57,898
1093472,822504,1447948,827613,1450205,2705,2008,-413,-1838,-2606,791,581,3410,29,57,898
1094473,822744,1448208,827810,1450402,2637,1806,-444,-1822,-2583,644,470,3798,30,49,897
1095474,822984,1448476,828007,1450599,2619,1725,-472,-1647,-2547,464,653,4103,30,49,897
1096475,823272,1448708,828204,1450796,2280,1935,-486,-1453,-2514,341,824,4140,57,56,897
1097476,823512,1448948,828401,1450993,2562,1867,-495,-1272,-2481,173,931,4253,57,56,897
1098477,823808,1449192,828598,1451190,2169,1822,-481,-1177,-2429,65,984,4158,45,44,902
1099478,824072,1449412,828795,1451387,2341,1961,-457,-1041,-2360,16,887,4272,45,44,902
1100479,824344,1449628,828992,1451584,2259,1979,-419,-908,-2277,-139,818,4200,41,38,901
1101481,824592,1449856,829189,1451781,2388,1890,-359,-857,-2186,-272,622,4119,41,38,901
1102481,824856,1450036,829386,1451978,2258,2198,-283,-829,-2103,-358,380,4007,45,36,902
1103482,825128,1450212,829583,1452175,2176,2233,-196,-866,-2003,-316,204,4025,45,36,902
1104483,825368,1450404,829780,1452372,2358,2135,-99,-861,-1893,-282,327,4118,51,45,900
1105484,825664,1450580,829977,1452569,1966,2246,-4,-889,-1828,-327,878,4029,51,45,900
1106485,825900,1450788,830174,1452766,2325,2041,104,-902,-1805,-204,1281,4001,57,34,900
1107486,826136,1450980,830371,1452963,2309,2143,203,-950,-1801,69,1672,4133,57,34,900
1108487,826416,1451160,830568,1453160,1997,2226,300,-952,-1809,164,1955,4201,55,45,902
1109488,826692,1451328,830765,1453357,1988,2314,384,-941,-1840,185,1860,4173,55,45,902
1110489,826960,1451524,830962,1453554,2008,2140,474,-982,-1907,240,1665,4110,37,32,900
1111490,827276,1451724,831159,1453751,1657,2114,532,-1027,-2027,263,1837,4184,37,32,900
1112491,827592,1451916,831356,1453948,1605,2166,577,-1078,-2211,286,2174,4143,47,30,901
1113492,827832,1452084,831553,1454145,2062,2330,586,-1089,-2438,313,2164,4369,47,30,901
1114493,828192,1452256,831750,1454342,1241,2316,555,-886,-2656,228,1597,5005,53,32,904
1115494,828544,1452376,831947,1454539,1224,2675,455,-571,-2780,179,61,5141,53,32,904
1116495,828844,1452544,832144,1454736,1504,2389,366,-304,-2852,202,-505,4840,54,39,899
1117497,829164,1452700,832341,1454933,1326,2482,337,-146,-2939,-174,-418,4575,54,39,899
1118497,829528,1452828,832538,1455130,977,2688,304,-224,-3067,-285,-267,4134,51,31,902
1119498,829860,1452976,832735,1455327,1119,2585,261,-271,-3164,-199,-709,4049,51,31,902
1120499,830132,1453152,832932,1455524,1462,2419,246,-446,-3193,-621,-1002,3480,71,26,904
1121500,830436,1453344,833129,1455721,1215,2322,269,-584,-3171,-833,-1130,3725,71,26,904
1122501,830736,1453532,833326,1455918,1196,2351,334,-621,-3116,-959,-663,3956,46,27,904
1123502,831012,1453696,833523,1456115,1311,2517,437,-800,-2992,-630,-364,3372,46,27,904
1124503,831320,1453868,833720,1456312,1063,2478,566,-1110,-2859,92,-198,3036,45,44,905
1125504,831592,1454012,833917,1456509,1255,2677,704,-1347,-2683,130,-701,3209,45,44,905
1126505,831832,1454160,834114,1456706,1437,2673,813,-1428,-2455,-263,-1383,3720,63,32,902
1127506,832104,1454280,834311,1456903,1204,2883,903,-1414,-2213,-664,-1962,3995,63,32,902
1128507,832348,1454444,834508,1457100,1359,2623,942,-1189,-1904,-933,-2807,4767,38,37,901
1129508,832560,1454600,834705,1457297,1553,2692,937,-774,-1564,-1196,-3271,5034,38,37,901
1130509,832792,1454712,834902,1457494,1413,3004,964,-401,-1287,-1708,-3459,4838,52,32,901
1131510,833004,1454800,835099,1457691,1532,3203,1029,-55,-1032,-2290,-3496,5046,52,32,901
1132511,833184,1454908,835296,1457888,1740,3117,1110,362,-756,-2572,-3509,5279,33,17,901
1133512,833392,1454992,835493,1458085,1560,3318,1168,827,-479,-2739,-3407,5151,33,17,901
1134513,833616,1455084,835690,1458282,1449,3314,1285,1168,-210,-2898,-2910,4676,41,27,897
1135514,833788,1455176,835887,1458479,1785,3361,1422,1338,50,-2463,-2551,4321,41,27,897
1136515,833960,1455272,836084,1458676,1797,3381,1506,1507,315,-1914,-2501,4208,47,16,895
1137516,834132,1455356,836281,1458873,1808,3506,1576,1580,594,-1921,-2406,3706,47,16,895
1138517,834296,1455432,836478,1459070,1872,3610,1634,1489,868,-2106,-2634,3510,43,13,893
1139518,834436,1455576,836675,1459267,2048,3210,1683,1351,1146,-2389,-2940,3544,43,13,893
1140519,834596,1455656,836872,1459464,1940,3661,1735,1308,1415,-2702,-2974,3651,21,29,892
1141520,834740,1455756,837069,1459661,2064,3580,1811,1197,1611,-2632,-2676,3240,21,29,892
1142521,834900,1455872,837266,1459858,1980,3516,1855,971,1772,-2259,-2550,3335,33,29,893
1143522,835044,1456004,837463,1460055,2105,3446,1847,766,1961,-1738,-2412,3501,33,29,893
1144523,835188,1456160,837660,1460252,2128,3314,1803,625,2140,-1447,-1978,3414,18,19,890
1145524,835324,1456308,837857,1460449,2205,3386,1755,466,2289,-1490,-1631,3331,18,19,890
1146525,835448,1456476,838054,1460646,2313,3275,1686,260,2427,-1427,-1554,3550,26,21,891
1147526,835580,1456656,838251,1460843,2291,3208,1569,115,2558,-1125,-1645,3701,26,21,891
1148527,835688,1456828,838448,1461040,2481,3270,1432,26,2682,-984,-1978,3655,35,33,890
1149528,835820,1457024,838645,1461237,2360,3121,1296,-127,2778,-786,-2172,3788,35,33,890
1150529,835964,1457232,838842,1461434,2309,3042,1145,-247,2819,-316,-1518,3799,16,42,891
1151530,836076,1457496,839039,1461631,2548,2664,974,-351,2801,-18,-89,3937,16,42,891
1152531,836204,1457732,839236,1461828,2478,2823,821,-410,2788,18,204,4180,36,40,893
1153532,836268,1457956,839433,1462025,2937,2887,666,-388,2807,-193,-86,4737,36,40,893
1154533,836344,1458164,839630,1462222,2916,2982,525,-276,2832,-534,107,4962,12,40,895
1155534,836380,1458448,839827,1462419,3237,2470,429,-197,2788,-365,702,4559,12,40,895
1156535,836436,1458708,840024,1462616,3175,2593,370,-277,2594,73,1504,4156,22,58,891
1157536,836492,1458996,840221,1462813,3237,2379,318,-404,2339,436,1274,4227,22,58,891
1158537,836548,1459280,840418,1463010,3300,2366,278,-548,2136,575,209,4215,15,55,890
1159538,836608,1459536,840615,1463207,3336,2516,262,-687,1942,485,389,4182,15,55,890
1160539,836676,1459856,840812,1463404,3343,2063,282,-788,1702,346,1280,4217,20,63,890
1161540,836752,1460208,841009,1463601,3347,1795,297,-874,1403,480,1370,4191,20,63,890
1162541,836836,1460528,841206,1463798,3348,1942,325,-1081,1084,709,963,3771,10,69,890
1163542,836936,1460836,841403,1463995,3292,1969,400,-1357,809,876,409,3489,10,69,890
1164543,837044,1461108,841600,1464192,3282,2161,514,-1709,611,1155,-86,3312,25,62,894
1165544,837184,1461456,841797,1464389,3108,1620,627,-2048,480,1106,-717,3299,25,62,894
1166545,837348,1461844,841994,1464586,2973,1286,726,-2283,428,823,-1560,3644,17,59,894
1167546,837520,1462144,842191,1464783,2934,1792,784,-2387,420,625,-2310,3995,17,59,894
1168547,837680,1462416,842388,1464980,3026,1934,807,-2319,458,319,-2757,4651,36,67,897
1169548,837832,1462748,842585,1465177,3097,1501,828,-2098,541,26,-2766,4849,36,67,897
1170549,837988,1463068,842782,1465374,3091,1522,870,-1928,606,12,-2407,4758,35,58,897
1171550,838128,1463364,842979,1465571,3217,1629,958,-1833,618,432,-1526,4594,35,58,897
1172551,838280,1463660,843176,1465768,3163,1586,1091,-1773,592,1190,-592,4249,27,55,897
1173559,838420,1463952,843406,1465998,3279,1585,1252,-1715,535,1786,40,4143,27,55,897
1174553,838620,1464284,843603,1466195,2903,1275,1451,-1695,467,1748,452,4192,39,69,896
1175554,838824,1464604,843800,1466392,2876,1296,1657,-1474,432,1376,-64,4814,39,69,896
1176555,839004,1464904,843997,1466589,3035,1377,1870,-1103,439,1012,-489,5116,53,58,897
1177556,839172,1465200,844194,1466786,3123,1358,2107,-620,467,748,-572,5377,53,58,897
1178557,839312,1465556,844391,1466983,3324,914,2362,-47,477,507,-524,5349,44,62,901
1179558,839440,1465880,844588,1467180,3431,1059,2646,271,365,584,220,4675,44,62,901
1180559,839592,1466180,844785,1467377,3302,1164,2922,620,173,1053,372,4812,23,62,898
1181560,839792,1466476,844982,1467574,3001,1145,3164,997,14,1594,274,4652,23,62,898
1182561,839988,1466760,845179,1467771,3028,1182,3363,1423,-99,1819,230,4731,26,54,897
1183562,840220,1467148,845376,1467968,2788,449,3506,1953,-180,1535,273,4989,26,54,897
1184563,840432,1467472,845573,1468165,2908,793,3580,2537,-244,1189,125,5080,36,59,899
1185564,840600,1467764,845770,1468362,3195,951,3593,3148,-301,1059,-150,5208,36,59,899
1186565,840740,1468024,845967,1468559,3397,1124,3619,3591,-369,1127,80,4388,45,70,905
1187566,840940,1468352,846164,1468756,3021,641,3682,3855,-512,1520,194,3773,45,70,905
1188567,841156,1468732,846361,1468953,2914,236,3730,3943,-691,2256,87,3142,39,61,899
1189568,841348,1469028,846558,1469150,3067,717,3732,3897,-831,2836,-99,2734,39,61,899
1190569,841596,1469344,846755,1469347,2696,540,3685,3973,-904,2810,-422,2958,45,58,902
1191570,841792,1469608,846952,1469544,3022,835,3623,3993,-939,2149,-427,2763,45,58,902
1192571,841976,1469948,847149,1469741,3104,298,3546,4074,-1030,1796,42,2923,38,70,901
1193572,842188,1470276,847346,1469938,2923,315,3457,4099,-1218,1927,283,2439,38,70,901
1194573,842412,1470524,847543,1470135,2837,793,3383,4050,-1433,2416,223,2149,31,56,901
1195574,842652,1470720,847740,1470332,2719,1118,3275,3927,-1610,3086,239,1953,31,56,901
1196575,842916,1470940,847937,1470529,2541,958,3102,3859,-1748,2988,-159,2270,56,51,904
1197576,843172,1471200,848134,1470726,2566,680,2877,4102,-1875,2422,-382,2876,56,51,904
1198577,843384,1471396,848331,1470923,2835,1081,2661,4296,-2029,1619,-208,2627,58,55,903
1199578,843644,1471640,848528,1471120,2509,760,2447,4455,-2291,1402,585,2700,58,55,903
1200579,843920,1471800,848725,1471317,2375,1301,2222,4715,-2581,2000,887,2695,44,37,906
1201580,844236,1471964,848922,1471514,2074,1290,1989,4775,-2828,2593,823,1991,44,37,906
1202581,844508,1472108,849119,1471711,2317,1438,1760,4724,-3044,2378,674,1770,55,30,907
1203582,844772,1472280,849316,1471908,2338,1274,1514,4676,-3262,1129,461,1877,55,30,907
1204583,845020,1472476,849513,1472105,2417,1124,1232,4625,-3515,376,576,1985,36,30,905
1205584,845240,1472644,849710,1472302,2583,1312,928,4659,-3812,266,895,2038,36,30,905
1206585,845560,1472824,849907,1472499,1904,1245,650,4610,-4118,367,1362,1773,51,40,905
1207586,845796,1473000,850104,1472696,2413,1279,384,4447,-4429,204,1398,1471,51,40,905
1208587,846008,1473180,850301,1472893,2557,1261,100,4384,-4626,-672,657,2312,43,41,904
1209588,846260,1473320,850498,1473090,2284,1536,-219,4530,-4677,-1664,37,2815,43,41,904
1210589,846456,1473456,850695,1473287,2635,1588,-495,4570,-4712,-1531,499,2008,45,36,904
1211590,846664,1473640,850892,1473484,2556,1294,-709,4314,-4771,-894,982,1267,45,36,904
1212591,846948,1473828,851089,1473681,2043,1273,-879,3892,-4777,-469,802,1256,53,42,904
1213592,847196,1474016,851286,1473878,2247,1277,-1089,3541,-4704,-748,197,1709,53,42,904
1214593,847420,1474192,851483,1474075,2386,1361,-1352,3350,-4512,-1594,-598,2307,36,28,902
1215594,847652,1474412,851680,1474272,2322,1076,-1672,3325,-4242,-1880,-1285,2622,36,28,902
1216595,847844,1474564,851877,1474469,2574,1521,-1940,3010,-4072,-1182,-637,1518,44,41,904
1217596,848080,1474732,852074,1474666,2283,1433,-2098,2354,-4035,-406,303,969,44,41,904
1218597,848348,1474892,852271,1474863,2052,1500,-2178,1585,-4017,-196,202,1010,42,36,906
1219598,848608,1475004,852468,1475060,2076,1837,-2290,1010,-3967,-481,-157,2132,42,36,906
1220599,848820,1475156,852665,1475257,2369,1607,-2485,811,-3885,-784,-4,3189,50,29,904
1221600,849048,1475352,852862,1475454,2257,1332,-2623,678,-3870,-845,132,2790,50,29,904
1222601,849244,1475556,853059,1475651,2458,1279,-2656,301,-3900,217,191,2278,29,40,903
1223602,849476,1475708,853256,1475848,2219,1624,-2602,-236,-3928,997,501,2622,29,40,903
1224603,849712,1475896,853453,1476045,2176,1403,-2529,-741,-3943,1064,138,3000,36,32,905
1225604,849920,1476044,853650,1476242,2348,1675,-2443,-1206,-3916,636,-595,3151,36,32,905
1226605,850124,1476220,853847,1476439,2371,1509,-2372,-1567,-3840,401,-830,3576,50,39,903
1227606,850328,1476380,854044,1476636,2368,1625,-2388,-1814,-3770,1164,-192,4176,50,39,903
1228607,850548,1476508,854241,1476833,2258,1855,-2378,-2061,-3753,2370,834,3695,28,42,903
1229608,850776,1476680,854438,1477030,2196,1591,-2267,-2536,-3763,3016,1188,3329,28,42,903
1230609,851020,1476860,854635,1477227,2076,1549,-2186,-2884,-3731,3405,1058,4445,52,29,903
1231610,851244,1477040,854832,1477424,2189,1556,-2194,-3072,-3612,3069,133,5167,52,29,903
1232611,851444,1477240,855029,1477621,2339,1430,-2131,-3219,-3499,3231,442,5529,31,27,903
1233612,851636,1477408,855226,1477818,2392,1643,-2024,-3310,-3546,4233,1759,6323,31,27,903
1234613,851868,1477584,855423,1478015,2127,1602,-1933,-3197,-3718,5048,2673,7727,33,34,904
1235614,852084,1477748,855620,1478212,2219,1691,-1811,-2513,-3918,4802,1910,8588,33,34,904
1236615,852316,1477876,855817,1478409,2105,1947,-1680,-2129,-3933,3592,1232,8442,52,36,902
1237616,852564,1478056,856014,1478606,1983,1630,-1483,-1679,-3955,2960,880,8793,52,36,902
1238617,852824,1478244,856211,1478803,1881,1584,-901,-323,-3954,2773,-190,15780,42,44,902
1239618,853052,1478428,856408,1479000,2068,1615,-133,1157,-3942,2749,-691,13814,42,44,902
1240619,853344,1478592,856605,1479197,1627,1754,192,1731,-3945,2883,-453,6217,43,30,905
1241620,853644,1478752,856802,1479394,1532,1796,220,1537,-3928,3150,-364,5003,43,30,905
1242621,853928,1478880,856999,1479591,1594,2026,217,1092,-3887,3645,-580,4488,60,26,905
1243622,854208,1479040,857196,1479788,1584,1842,287,762,-3799,3166,-612,4310,60,26,905
1244623,854520,1479160,857393,1479985,1334,2126,427,479,-3730,2709,-405,4108,63,34,906
1245624,854776,1479324,857590,1480182,1658,1867,543,226,-3712,2730,-259,4197,63,34,906
1246625,855068,1479456,857787,1480379,1392,2095,607,102,-3626,2746,34,4568,59,34,906
1247626,855384,1479592,857984,1480576,1190,2097,616,141,-3480,2658,159,4829,59,34,906
1248627,855696,1479736,858181,1480773,1166,2070,607,150,-3342,2108,-100,4439,42,28,903
1249628,856016,1479876,858378,1480970,1061,2120,635,121,-3206,1434,-78,4601,42,28,903
1250629,856360,1480004,858575,1481167,848,2226,684,302,-3102,1255,170,4931,51,19,907
1251630,856668,1480144,858772,1481364,1024,2177,719,623,-3024,1160,511,5261,51,19,907
1252631,856972,1480300,858969,1481561,1002,2095,749,1129,-2951,850,894,5775,64,35,907
1253632,857300,1480456,859166,1481758,796,2113,807,1704,-2902,649,1208,5661,64,35,907
1254633,857616,1480572,859363,1481955,818,2398,901,2283,-2901,520,1691,5487,49,36,907
1255634,857948,1480748,859560,1482152,659,2033,1052,2760,-2919,165,1992,5017,49,36,907
1256644,858276,1480888,859790,1482382,642,2298,1198,3129,-2941,-271,1783,4961,53,32,908
1257636,858540,1481012,859987,1482579,1012,2430,1326,3522,-2966,-745,1662,4827,53,32,908
1258637,858824,1481136,860184,1482776,849,2462,1471,3962,-2974,-1210,1650,4479,57,20,908
1259638,859124,1481288,860381,1482973,705,2308,1598,4352,-2978,-1524,1454,4294,53,36,904
1260639,859376,1481448,860578,1483170,981,2274,1693,4680,-2988,-1776,1374,4061,53,36,904
1261640,859648,1481600,860775,1483367,823,2344,1749,4924,-2986,-1739,1333,3616,34,36,907
1262641,859900,1481776,860972,1483564,924,2204,1750,5104,-2984,-1495,1433,3164,34,36,907
1263642,860136,1481920,861169,1483761,1006,2428,1720,5201,-2985,-1454,1506,2922,29,30,907
1264643,860380,1482092,861366,1483958,937,2264,1663,5166,-2973,-1494,1095,2453,29,30,907
1265644,860560,1482260,861563,1484155,1344,2302,1564,5050,-2952,-1417,874,2034,32,44,906
1266645,860848,1482452,861760,1484352,629,2154,1463,4920,-2919,-1521,643,1945,32,44,906
1267646,861084,1482620,861957,1484549,937,2318,1334,4811,-2852,-1678,215,2073,33,38,905
1268647,861284,1482820,862154,1484746,1161,2117,1168,4701,-2769,-1658,261,1964,33,38,905
1269648,861508,1483016,862351,1484943,1000,2142,998,4526,-2708,-1451,706,1437,47,33,905
1270649,861700,1483252,862548,1485140,1202,1876,841,4134,-2702,-1056,1271,911,47,33,905
1271650,861888,1483424,862745,1485337,1231,2287,678,3589,-2714,-644,1518,416,29,48,907
1272651,862124,1483616,862942,1485534,914,2164,488,2973,-2716,-285,1597,375,29,48,907
1273652,862312,1483828,863139,1485731,1218,2034,227,2430,-2635,122,1015,748,39,36,905
1274653,862512,1484040,863336,1485928,1142,2027,-344,2444,-2391,20,-505,2693,39,36,905
1275654,862700,1484288,863533,1486125,1222,1780,-937,2485,-2151,-280,-130,1566,24,45,907
1276655,862916,1484488,863730,1486322,1038,2079,-1348,2212,-2105,-476,969,1088,24,45,907
1277656,863096,1484692,863927,1486519,1271,2051,-1680,1729,-2137,-488,1074,1054,38,46,909
1278657,863316,1484952,864124,1486716,1011,1674,-2065,1369,-2075,-553,307,1218,38,46,909
1279658,863524,1485184,864321,1486913,1081,1834,-2534,1089,-1940,-697,208,1360,40,40,906
1280659,863728,1485412,864518,1487110,1103,1846,-3023,837,-1871,-712,742,1384,40,40,906
1281660,863956,1485652,864715,1487307,939,1752,-3459,494,-1853,-567,751,1198,37,50,908
1282661,864128,1485868,864912,1487504,1301,1894,-3818,72,-1826,-365,668,1029,37,50,908
1283662,864292,1486076,865109,1487701,1366,1940,-4156,-305,-1805,43,378,1284,45,44,910
1284663,864484,1486272,865306,1487898,1193,2015,-4481,-665,-1804,677,-257,1258,45,44,910
1285664,864680,1486480,865503,1488095,1168,1936,-4827,-902,-1812,1380,-1127,1653,41,37,907
1286665,864848,1486704,865700,1488292,1356,1824,-5200,-1099,-1824,1627,-1983,1698,41,37,907
1287666,865048,1486904,865897,1488489,1155,1973,-5497,-1384,-1839,1369,-2510,1797,48,48,908
1288667,865292,1487100,866094,1488686,860,1999,-5681,-1632,-1880,938,-2912,1953,48,48,908
1289668,865480,1487260,866291,1488883,1214,2241,-5775,-1952,-1940,989,-3134,1941,42,30,908
1290669,865664,1487444,866488,1489080,1245,2096,-5847,-2074,-2007,1271,-3363,2752,42,30,908
1291670,865820,1487604,866685,1489277,1438,2264,-5883,-2060,-2039,1094,-3949,2931,22,42,905
1292671,866008,1487776,866882,1489474,1242,2200,-5856,-2023,-2034,767,-4953,3160,22,42,905
1293672,866152,1487916,867079,1489671,1540,2425,-5790,-2029,-1960,655,-6372,3554,23,38,904
1294673,866348,1488072,867276,1489868,1215,2344,-5728,-1955,-1814,901,-7509,3785,23,38,904
1295674,866500,1488240,867473,1490065,1511,2282,-5648,-1862,-1694,978,-7631,3718,35,36,903
1296675,866664,1488384,867670,1490262,1451,2455,-5509,-1881,-1685,636,-7361,3700,35,36,903
1297677,866848,1488552,867867,1490459,1331,2319,-5219,-1791,-1721,603,-7448,5329,23,23,904
1298677,866988,1488684,868064,1490656,1631,2572,-1813,3492,-1583,2242,-8661,32767,23,23,904
1299678,867128,1488820,868261,1490853,1656,2574,4015,12909,-1071,460,-10043,32767,13,22,904
1300679,867252,1488952,868458,1491050,1789,2628,6864,15875,-918,1190,-3369,4064,13,22,904
1301680,867384,1489056,868655,1491247,1768,2844,6594,13379,-1061,1655,-1107,-1620,20,30,899
1302681,867516,1489172,868852,1491444,1797,2806,5581,9567,-1159,2493,-1739,-3195,20,30,899
1303682,867640,1489296,869049,1491641,1879,2788,4874,7164,-973,2271,-2732,-1479,22,18,895
1304683,867764,1489404,869246,1491838,1912,2927,4312,5870,-523,1665,-2837,-451,22,18,895
1305684,867892,1489536,869443,1492035,1917,2807,3565,5029,-163,2099,-2007,69,39,32,897
1306685,868040,1489640,869640,1492232,1814,3023,2950,3668,-52,1212,68,-1523,39,32,897
1307686,868224,1489748,869837,1492429,1594,3038,2648,1818,-137,367,1480,-1997,46,16,897
1308687,868424,1489896,870034,1492626,1494,2809,2517,-72,-365,-8,1781,-1770,46,16,897
1309688,868600,1490004,870231,1492823,1653,3099,2322,-1499,-504,-868,1194,88,28,30,897
1310689,868792,1490124,870428,1493020,1555,3058,2005,-1974,-460,-1243,119,2021,28,30,897
1311690,868944,1490296,870625,1493217,1826,2745,1627,-2223,-435,-1839,411,2205,47,34,897
1312691,869092,1490476,870822,1493414,1873,2703,1196,-2110,-539,-2759,1366,4172,47,34,897
1313692,869232,1490676,871019,1493611,1948,2577,807,-1755,-778,-3461,2102,4212,36,30,898
1314693,869384,1490904,871216,1493808,1894,2390,550,-1584,-1065,-3862,2535,3775,36,30,898
1315694,869516,1491092,871413,1494005,2047,2644,409,-1400,-1250,-4323,2634,4338,25,31,898
1316695,869652,1491268,871610,1494202,2049,2729,326,-1139,-1260,-4348,2080,4478,25,31,898
1317696,869784,1491472,871807,1494399,2104,2551,254,-607,-1127,-4025,1132,5241,33,53,899
1318697,869908,1491720,872004,1494596,2186,2254,227,-77,-848,-4056,-272,5171,33,53,899
1319698,870024,1492052,872201,1494793,2272,1670,282,351,-507,-3806,-1282,4867,28,51,898
1320699,870120,1492372,872398,1494990,2442,1692,420,665,-183,-3664,-1501,4462,28,51,898
1321700,870228,1492752,872595,1495187,2406,1237,653,814,109,-3674,-1251,3795,17,65,903
1322701,870316,1492964,872792,1495384,2580,2281,912,743,357,-3272,-1259,3135,17,65,903
1323702,870404,1493124,872989,1495581,2627,2622,1160,406,613,-2859,-1174,2456,12,45,902
1324703,870524,1493340,873186,1495778,2462,2265,1358,60,908,-2254,-1182,2598,12,45,902
1325704,870656,1493560,873383,1495975,2416,2230,1495,-225,1215,-1516,-1268,2533,13,52,894
1326705,870760,1493824,873580,1496172,2633,1926,1590,-457,1494,-999,-1221,2681,13,52,894
1327706,870872,1494156,873777,1496369,2620,1442,1709,-594,1720,-630,-1270,2735,16,52,898
1328707,871008,1494548,873974,1496566,2498,982,1879,-893,1877,-105,-1291,2187,16,52,898
1329708,871120,1494908,874171,1496763,2686,1111,2055,-1332,1940,332,-1018,2155,21,64,902
1330709,871240,1495168,874368,1496960,2670,1708,2222,-1711,1918,724,-476,2350,21,64,902
1331710,871368,1495480,874565,1497157,2651,1333,2336,-1915,1821,1086,-26,2675,23,57,903
1332711,871524,1495784,874762,1497354,2494,1336,2386,-1967,1668,1348,246,3017,23,57,903
1333712,871664,1496136,874959,1497551,2620,968,2383,-1890,1469,1557,424,3393,40,75,902
1334713,871820,1496460,875156,1497748,2540,1089,2304,-1636,1231,1742,-261,3968,40,75,902
1335714,871964,1496780,875353,1497945,2638,1059,2165,-1356,958,1795,-1015,4092,31,62,901
1336715,872124,1497076,875550,1498142,2555,1166,1997,-1013,579,1886,-1013,4165,31,62,901
1337716,872268,1497424,875747,1498339,2678,775,1842,-665,70,1886,-709,4105,38,67,903
1338717,872444,1497780,875944,1498536,2489,655,1701,-372,-550,1930,212,4013,38,67,903
1339725,872584,1498044,876174,1498766,2754,1216,1565,-56,-1247,2134,1712,3965,42,70,904
1340719,872744,1498344,876371,1498963,2645,946,1406,243,-1929,2349,2459,3991,42,70,904
1341720,872908,1498740,876568,1499160,2636,258,1226,609,-2537,2553,2605,4229,25,67,903
1342721,873072,1499132,876765,1499357,2651,197,1036,990,-3082,2589,2696,4007,25,67,903
1343722,873200,1499428,876962,1499554,2908,754,809,1402,-3556,2702,2521,4173,20,73,906
1344723,873344,1499708,877159,1499751,2831,817,563,1746,-3960,2771,2247,3861,20,73,906
1345724,873480,1500048,877356,1499948,2909,380,363,1927,-4314,2775,1968,3358,33,65,901
1346725,873620,1500424,877553,1500145,2910,76,199,2081,-4607,2711,1311,3351,33,65,901
1347726,873764,1500760,877750,1500342,2909,265,60,2248,-4810,2587,895,3290,19,74,902
1348727,873888,1501080,877947,1500539,3066,311,-73,2380,-4982,2473,1036,3129,19,74,902
1349728,874008,1501332,878144,1500736,3126,712,-210,2579,-5098,2365,533,3217,18,61,904
1350729,874152,1501576,878341,1500933,3000,741,-372,2821,-5129,2185,161,3443,18,61,904
1351730,874296,1501880,878538,1501130,3025,318,-536,3116,-5120,1827,70,3465,32,53,901
1352731,874432,1502220,878735,1501327,3101,30,-673,3409,-5111,1317,-54,3341,32,53,901
1353732,874568,1502464,878932,1501524,3129,609,-763,3708,-5113,702,-62,3233,21,53,903
1354733,874740,1502744,879129,1501721,2916,348,-805,3945,-5136,-51,-253,3130,21,53,903
1355734,874872,1503012,879326,1501918,3196,392,-770,4190,-5132,-819,-697,3089,40,54,902
1356735,875024,1503244,879523,1502115,3092,601,-663,4457,-5056,-1493,-1326,3313,40,54,902
1357736,875164,1503452,879720,1502312,3193,746,-516,4826,-4918,-2196,-2031,3517,31,46,900
1358737,875308,1503604,879917,1502509,3191,1115,-356,5177,-4744,-2870,-2427,3513,31,46,900
1359738,875428,1503696,880114,1502706,3376,1536,-236,5468,-4598,-3343,-1503,3377,26,32,900
1360739,875544,1503768,880311,1502903,3437,1716,-187,5764,-4477,-3646,-1022,3636,26,32,900
1361740,875668,1503860,880508,1503100,3420,1638,-164,6134,-4333,-3941,-667,3885,16,19,895
1362741,875784,1503940,880705,1503297,3507,1763,-149,6458,-4168,-4081,-380,3859,16,19,895
1363742,875896,1504024,880902,1503494,3570,1788,-140,6712,-4020,-4232,240,3824,15,17,893
1364743,876012,1504124,881099,1503691,3582,1730,-140,6889,-3883,-4299,699,3742,15,17,893
1365744,876140,1504220,881296,1503888,3538,1800,-150,6993,-3753,-4299,1100,3559,32,19,891
1366745,876276,1504316,881493,1504085,3516,1844,-146,6942,-3623,-4318,1579,3266,32,19,891
1367746,876408,1504404,881690,1504282,3571,1942,-134,6737,-3484,-4204,2028,3028,15,18,891
1368747,876528,1504524,881887,1504479,3681,1776,-160,6391,-3326,-3987,2231,2885,15,18,891
1369748,876692,1504608,882084,1504676,3421,2050,-233,5962,-3108,-3776,2148,2789,39,16,891
1370749,876868,1504712,882281,1504873,3356,1966,-164,5336,-2824,-3514,2106,3267,39,16,891
1371750,877048,1504804,882478,1505070,3340,2087,2727,3505,-2528,-2526,2128,28672,30,25,891
1372751,877228,1504908,882675,1505267,3348,2053,6085,2223,-2253,-179,1050,22797,30,25,891
1373752,877420,1505012,882872,1505464,3276,2094,6007,2939,-1488,-402,-1204,9735,37,15,892
1374753,877592,1505096,883069,1505661,3413,2269,3182,5705,-309,-238,-3095,13065,37,15,892
1375754,877796,1505208,883266,1505858,3211,2131,379,7897,371,-1419,-1122,8717,26,16,893
1376755,878012,1505312,883463,1506055,3129,2222,-650,7441,279,-1588,90,1020,26,16,893
1377756,878196,1505428,883660,1506252,3336,2184,32,4736,-226,-247,939,1057,42,18,893
1378757,878376,1505548,883857,1506449,3369,2192,1546,1504,-831,2044,716,7025,42,18,893
