"Data file recorded 2014/9/22  15:59:45"
"%  Right Stride Frequency         = 3.0"
"%  Left Stride Frequency         = 3.0"
"%  Phase (Fractional)         = 32768.0"
"%  Experiment.py "
"%  Motor Gains    = [1800, 200, 100, 0, 0, 1800, 200, 100, 0, 0]
"% Columns: "
"% time | Right Leg Pos | Left Leg Pos | Commanded Right Leg Pos | Commanded Left Leg Pos | DCR | DCL | GyroX | GryoY | GryoZ | AX | AY | AZ | RBEMF | LBEMF | VBatt "
11586,2931496,3147276,2908308,3203220,-3800,3800,-39,189,-234,174,-32,4131,-8,7,841
12580,2931488,3147232,2908505,3203417,-3800,3800,-39,188,-231,150,-37,4098,-8,7,841
13581,2931388,3147320,2908702,3203614,-3800,3800,-40,194,-233,146,-50,4123,1,4,841
14582,2931372,3147368,2908899,3203811,-3800,3800,-40,213,-233,137,-58,4121,1,4,841
15583,2931176,3147408,2909096,3204008,-3800,3800,-49,195,-233,120,-35,4124,-27,-5,799
16584,2930880,3147384,2909293,3204205,-3800,3800,-82,167,-227,188,-111,4067,-27,-5,799
17585,2930568,3147380,2909490,3204402,-3800,3800,-130,134,-231,181,125,4043,-52,-1,803
18585,2930192,3147424,2909687,3204599,-3800,3800,-173,139,-263,112,250,4086,-52,-1,803
19587,2929752,3147508,2909884,3204796,-3800,3800,-207,121,-264,191,-22,4042,-66,-2,804
20588,2929260,3147584,2910081,3204993,-3800,3800,-209,142,-213,269,186,4149,-66,-2,804
21576,2928716,3147688,2910278,3205190,-3514,3800,-212,147,-176,437,495,4057,-110,-4,805
22577,2928112,3147748,2910475,3205387,-2790,3800,-269,28,-150,925,-69,3809,-110,-4,805
23578,2927564,3147836,2910672,3205584,-2817,3800,-380,-61,-102,1291,56,3979,-97,5,806
24579,2926912,3147900,2910869,3205781,-1797,3800,-479,-134,-39,1482,311,3885,-97,5,806
25580,2926316,3148016,2911066,3205978,-1801,3800,-540,-147,0,1471,304,4018,-121,0,810
26581,2925712,3148108,2911263,3206175,-1402,3800,-584,-112,8,1560,150,4197,-121,0,810
27582,2925188,3148200,2911460,3206372,-1587,3800,-660,-40,-3,1869,-242,4206,-94,17,814
28583,2924612,3148320,2911657,3206569,-926,3800,-778,-26,-30,2055,-350,4179,-94,17,814
29584,2924144,3148424,2911854,3206766,-1311,3800,-869,73,-107,1792,-163,4451,-102,21,816
30585,2923712,3148528,2912051,3206963,-1262,3800,-939,207,-256,1447,154,4606,-102,21,816
31586,2923300,3148628,2912248,3207160,-1121,3800,-972,453,-472,1275,471,4800,-77,22,818
32587,2922968,3148740,2912445,3207357,-1391,3800,-1009,796,-703,1199,545,5100,-77,22,818
33588,2922688,3148836,2912642,3207554,-1508,3800,-1053,1181,-847,1272,-193,5241,-58,20,816
34589,2922408,3148928,2912839,3207751,-1301,3800,-1080,1552,-857,1245,-693,5391,-58,20,816
35590,2922184,3148996,2913036,3207948,-1468,3800,-1105,1934,-775,1196,-879,5503,-35,8,815
36591,2922008,3149064,2913233,3208145,-1606,3800,-1115,2346,-680,1205,-851,5381,-35,8,815
37592,2921796,3149120,2913430,3208342,-1202,3800,-1134,2733,-565,1197,-843,5298,-21,14,813
38593,2921676,3149164,2913627,3208539,-1640,3800,-1138,3075,-416,1185,-782,5220,-21,14,813
39594,2921572,3149212,2913824,3208736,-1609,3800,-1164,3399,-226,1095,-847,5224,-19,13,813
40595,2921452,3149276,2914021,3208933,-1371,3800,-1189,3671,-32,860,-793,4969,-19,13,813
41596,2921376,3149312,2914218,3209130,-1527,3800,-1217,3814,130,647,-601,4747,-25,10,813
42597,2921336,3149344,2914415,3209327,-1650,3800,-1234,3942,235,424,-439,4717,-25,10,813
43598,2921260,3149376,2914612,3209524,-1306,3800,-1240,4118,303,166,-543,4721,-15,12,814
44599,2921240,3149432,2914809,3209721,-1562,3800,-1223,4329,335,-89,-726,4778,-15,12,814
45600,2921244,3149488,2915006,3209918,-1629,3800,-1186,4547,324,-416,-829,4969,-3,17,813
46601,2921220,3149584,2915203,3210115,-1358,3800,-1149,4812,278,-703,-967,5199,-3,17,813
47602,2921196,3149624,2915400,3210312,-1262,3800,-1119,5101,226,-902,-1123,5390,-6,1,812
48603,2921200,3149668,2915597,3210509,-1353,3800,-1100,5402,182,-1079,-1115,5383,-6,1,812
49604,2921168,3149712,2915794,3210706,-1028,3800,-1081,5642,129,-1313,-831,5209,-7,15,812
50605,2921164,3149768,2915991,3210903,-1116,3800,-1063,5842,19,-1531,-384,5107,-7,15,812
51606,2921184,3149824,2916188,3211100,-1189,3800,-1025,5868,-170,-1688,24,4713,2,18,814
52607,2921164,3149920,2916385,3211297,-845,3800,-986,5762,-422,-1751,329,4419,2,18,814
53608,2921176,3149984,2916582,3211494,-964,3800,-948,5532,-704,-1751,516,4244,-2,20,815
54609,2921172,3150048,2916779,3211691,-777,3800,-905,5226,-947,-1627,598,4046,-2,20,815
55610,2921164,3150156,2916976,3211888,-663,3800,-835,4831,-1124,-1491,714,3712,7,23,814
56611,2921180,3150236,2917173,3212085,-734,3800,-728,4326,-1239,-1438,770,3425,7,23,814
57612,2921168,3150340,2917370,3212282,-468,3800,-573,3725,-1301,-1364,642,3128,-7,21,817
58613,2921184,3150476,2917567,3212479,-564,3800,-374,2986,-1307,-1298,676,2755,-7,21,817
59614,2921188,3150596,2917764,3212676,-405,3800,-139,2115,-1264,-1300,776,2474,-7,14,816
60615,2921188,3150740,2917961,3212873,-294,3800,116,1163,-1187,-1322,879,2265,-7,14,816
61616,2921196,3150872,2918158,3213070,-262,3800,365,174,-1108,-1442,1060,2277,13,35,818
62617,2921204,3151024,2918355,3213267,-180,3800,594,-742,-1038,-1611,1041,2533,13,35,818
63618,2921224,3151216,2918552,3213464,-177,3800,792,-1506,-957,-1810,787,2949,0,37,819
64619,2921248,3151376,2918749,3213661,-127,3800,959,-2145,-860,-1965,582,3318,0,37,819
65620,2921288,3151580,2918946,3213858,-158,3800,1101,-2607,-733,-2127,355,3745,17,28,819
66621,2921328,3151780,2919143,3214055,-90,3800,1220,-2991,-588,-2255,276,4047,17,28,819
67622,2921368,3151988,2919340,3214252,-21,3800,1309,-3249,-433,-2402,286,4347,1,32,820
68623,2921424,3152208,2919537,3214449,-59,3800,1380,-3474,-277,-2534,295,4433,1,32,820
69624,2921492,3152452,2919734,3214646,-78,3800,1441,-3621,-130,-2627,322,4493,23,38,819
70625,2921580,3152676,2919931,3214843,-155,3800,1507,-3811,6,-2685,343,4318,23,38,819
71626,2921672,3152944,2920128,3215040,-134,3800,1567,-4001,140,-2624,242,4287,14,48,820
72627,2921772,3153200,2920325,3215237,-142,3800,1623,-4238,286,-2475,276,4093,14,48,820
73628,2921872,3153440,2920522,3215434,-100,3800,1671,-4461,443,-2300,367,4082,33,43,821
74629,2921988,3153728,2920719,3215631,-164,3800,1736,-4687,622,-2102,569,3996,33,43,821
75630,2922128,3153984,2920916,3215828,-289,3800,1834,-4911,816,-1915,742,3882,15,46,820
76631,2922248,3154244,2921113,3216025,-131,3800,1932,-5117,1020,-1730,599,3870,15,46,820
77632,2922388,3154516,2921310,3216222,-231,3800,2022,-5330,1199,-1560,507,3751,31,46,820
78633,2922528,3154796,2921507,3216419,-206,3800,2093,-5542,1326,-1415,450,3672,31,46,820
79634,2922676,3155056,2921704,3216616,-235,3800,2146,-5745,1406,-1260,525,3655,22,52,821
80635,2922816,3155308,2921901,3216813,-161,3800,2193,-5898,1466,-1085,710,3768,22,52,821
81636,2922996,3155580,2922098,3217010,-403,3800,2227,-6029,1520,-907,844,3780,25,44,819
82637,2923152,3155840,2922295,3217207,-235,3800,2224,-6027,1579,-721,524,4030,25,44,819
83638,2923292,3156076,2922492,3217404,-110,3800,2203,-5975,1646,-572,234,4086,44,52,819
84639,2923472,3156292,2922689,3217601,-353,3800,2166,-5851,1686,-466,423,4190,44,52,819
85640,2923628,3156528,2922886,3217798,-185,3800,2126,-5736,1670,-358,925,4178,33,50,818
86641,2923788,3156724,2923083,3217995,-193,3800,2088,-5559,1609,-223,1171,4308,33,50,818
87642,2923968,3156928,2923280,3218192,-312,3800,2046,-5342,1520,-94,1167,4398,34,35,819
88643,2924112,3157160,2923477,3218389,-64,3800,2001,-5068,1436,5,1020,4381,34,35,819
89644,2924276,3157352,2923674,3218586,-174,3800,1945,-4768,1359,149,1182,4420,21,29,820
90645,2924412,3157532,2923871,3218783,28,3800,1899,-4475,1334,396,1135,4338,21,29,820
91646,2924580,3157728,2924068,3218980,-159,3800,1836,-4117,1362,611,978,4654,32,28,819
92647,2924704,3157908,2924265,3219177,148,3800,1755,-3749,1393,676,1337,4543,32,28,819
93655,2924836,3158080,2924692,3219604,227,3800,1664,-3349,1415,837,1411,4684,37,29,819
94649,2924976,3158252,2924889,3219801,202,3800,1605,-2942,1458,966,1338,4497,37,29,819
95650,2925064,3158452,2925086,3219998,575,3800,1571,-2568,1532,1105,1337,4386,39,33,820
96651,2925188,3158676,2925283,3220195,382,3800,1526,-2226,1610,1231,1529,4202,39,33,820
97652,2925324,3158888,2925480,3220392,334,3800,1466,-1988,1673,1341,1730,3935,23,38,819
98653,2925424,3159108,2925677,3220589,602,3800,1376,-1777,1727,1473,1558,3937,23,38,819
99654,2925584,3159292,2925874,3220786,243,3800,1245,-1557,1790,1506,976,3896,31,36,819
100655,2925692,3159528,2926071,3220983,607,3800,1058,-1299,1839,1501,473,3856,31,36,819
101656,2925800,3159740,2926268,3221180,646,3800,842,-1005,1870,1542,-5,3997,39,45,817
102657,2925900,3159992,2926465,3221377,739,3800,629,-601,1883,1473,-252,4272,39,45,817
103658,2926024,3160224,2926662,3221574,621,3800,412,-176,1827,1323,-441,4148,28,41,817
104659,2926140,3160440,2926859,3221771,706,3800,165,280,1726,1183,-735,4374,28,41,817
105660,2926268,3160664,2927056,3221968,662,3800,-90,725,1615,1128,-1069,4330,28,36,816
106661,2926388,3160904,2927253,3222165,747,3800,-349,1223,1498,1162,-1380,4458,28,36,816
107662,2926520,3161168,2927450,3222362,700,3800,-585,1720,1392,1114,-1640,4272,25,46,819
108663,2926652,3161480,2927647,3222559,729,3800,-796,2158,1283,1032,-1918,4104,25,46,819
109664,2926764,3161768,2927844,3222756,891,3800,-977,2507,1147,1005,-2116,3771,36,59,819
110665,2926860,3162040,2928041,3222953,1035,3800,-1111,2706,975,918,-2144,3411,36,59,819
111666,2926984,3162348,2928238,3223150,893,3800,-1190,2817,795,859,-2216,3138,24,68,817
112667,2927092,3162688,2928435,3223347,1033,3800,-1202,2789,662,787,-2260,2763,24,68,817
113668,2927176,3163052,2928632,3223544,1232,3800,-1173,2737,576,806,-2198,2646,21,60,817
114669,2927280,3163376,2928829,3223741,1148,3800,-1118,2584,538,905,-1995,2368,21,60,817
115670,2927380,3163728,2929026,3223938,1217,3800,-1053,2393,543,898,-1740,2334,22,72,818
116671,2927512,3164108,2929223,3224135,1045,3800,-988,2150,562,824,-1683,2176,22,72,818
117672,2927608,3164500,2929420,3224332,1315,3800,-919,1837,583,782,-2055,2090,41,75,818
118673,2927768,3164920,2929617,3224529,932,3800,-848,1538,572,639,-1626,2189,41,75,818
119674,2927900,3165336,2929814,3224726,1136,3800,-779,1256,479,430,-872,2174,30,79,819
120675,2928068,3165800,2930011,3224923,923,3800,-744,1088,365,292,-826,2639,30,79,819
121676,2928196,3166248,2930208,3225120,1205,3800,-723,1025,294,220,-1000,3072,29,96,820
122677,2928380,3166768,2930405,3225317,860,3800,-700,1054,277,203,-1663,3312,29,96,820
123678,2928536,3167328,2930602,3225514,1053,3800,-637,1074,282,156,-1848,3308,41,96,820
124679,2928720,3167940,2930799,3225711,885,3800,-555,1036,246,57,-1221,3222,41,96,820
125680,2928872,3168604,2930996,3225908,1105,3800,-443,910,148,-2,-848,2974,40,116,821
126681,2929036,3169212,2931193,3226105,1045,3800,-278,716,78,-79,-1063,2762,40,116,821
127682,2929196,3169988,2931390,3226302,1087,3800,-110,547,81,-22,-1596,3122,31,126,821
128683,2929384,3170684,2931587,3226499,916,3800,52,444,139,38,-1937,3149,31,126,821
129684,2929532,3171536,2931784,3226696,1188,3800,218,323,227,5,-1965,3113,45,126,823
130685,2929712,3172272,2931981,3226893,996,3800,391,234,354,83,-1943,3293,45,126,823
131686,2929864,3173068,2932178,3227090,1191,3800,566,132,494,158,-1684,3335,37,140,824
132686,2930016,3173880,2932375,3227287,1211,3800,755,20,624,103,-1333,3143,37,140,824
133688,2930164,3174720,2932572,3227484,1259,3800,950,-172,736,119,-1322,2902,48,145,824
134689,2930328,3175540,2932769,3227681,1173,3800,1137,-319,843,210,-1249,3086,48,145,824
135690,2930508,3176436,2932966,3227878,1081,3800,1301,-441,932,368,-1052,3190,33,156,821
136691,2930652,3177340,2933163,3228075,1330,3800,1431,-471,989,495,-861,3376,33,156,821
137692,2930824,3178296,2933360,3228272,1166,3800,1519,-402,1045,562,-856,3682,54,170,823
138693,2930972,3179156,2933557,3228469,1338,3800,1593,-201,1122,749,-893,3887,54,170,823
139694,2931128,3180072,2933754,3228666,1307,3800,1643,79,1223,809,-1070,4027,49,171,823
140695,2931296,3181004,2933951,3228863,1245,3800,1697,419,1317,848,-1247,4147,49,171,823
141696,2931492,3181880,2934148,3229060,1071,3800,1767,718,1356,981,-1521,4000,48,156,824
142697,2931628,3182692,2934345,3229257,1473,3800,1864,969,1314,1093,-1347,3790,48,156,824
143698,2931780,3183512,2934542,3229454,1393,3800,1955,1140,1228,1367,-1339,3466,53,150,824
144699,2931952,3184368,2934739,3229651,1280,3800,2016,1305,1133,1640,-1125,3381,53,150,824
145700,2932120,3185188,2934936,3229848,1318,3800,2068,1495,1008,1714,-574,3186,37,167,822
146701,2932276,3185996,2935133,3230045,1412,3800,2105,1647,818,1724,-115,3062,37,167,822
147702,2932448,3186812,2935330,3230242,1324,3800,2117,1801,532,1560,548,3084,35,163,821
148703,2932576,3187552,2935527,3230439,1629,3800,2066,1943,140,1338,1071,3162,35,163,821
149704,2932740,3188300,2935724,3230636,1420,3800,1937,2211,-347,1196,1214,3369,40,142,822
150705,2932900,3189048,2935921,3230833,1461,3800,1728,2468,-865,1022,1387,3291,40,142,822
151706,2933080,3189824,2936118,3231030,1345,3800,1496,2786,-1342,1041,1261,3324,53,137,821
152707,2933224,3190488,2936315,3231227,1593,3800,1230,3038,-1738,1080,1159,2996,53,137,821
153708,2933364,3191172,2936512,3231424,1644,3800,879,3106,-2166,833,1559,2549,32,128,821
154709,2933476,3191800,2936709,3231621,1857,3800,465,2983,-2742,676,2019,2118,32,128,821
155710,2933564,3192488,2936906,3231818,2055,3800,58,2715,-3407,579,2452,1659,26,131,819
156711,2933696,3193144,2937103,3232015,1810,3800,-296,2397,-3974,619,2308,1560,26,131,819
157712,2933796,3193864,2937300,3232212,2052,3800,-597,1970,-4257,730,1882,1142,22,118,817
158713,2933912,3194488,2937497,3232409,1989,3800,-858,1464,-4141,810,1423,1041,22,118,817
159714,2934028,3195172,2937694,3232606,2026,3800,-1071,906,-3598,797,1214,991,21,121,818
160715,2934116,3195780,2937891,3232803,2248,3800,-1195,305,-2744,569,1033,970,21,121,818
161716,2934240,3196500,2938088,3233000,2057,3800,-1212,-278,-1750,75,1100,1090,33,133,818
162717,2934356,3197200,2938285,3233197,2143,3800,-1157,-889,-738,-369,1283,983,33,133,818
163718,2934448,3197792,2938482,3233394,2340,3800,-1066,-1537,182,-502,1439,924,37,124,816
164718,2934536,3198496,2938679,3233591,2413,3800,-956,-2295,988,-487,1491,613,37,124,816
165719,2934624,3199240,2938876,3233788,2462,3800,-880,-3139,1712,-354,1246,618,34,129,816
166721,2934724,3199960,2939073,3233985,2431,3800,-864,-3912,2439,-172,872,755,34,129,816
167722,2934804,3200608,2939270,3234182,2608,3800,-937,-4562,3184,-3,561,1262,23,149,816
168723,2934904,3201520,2939467,3234379,2527,3800,-1063,-5055,3883,158,454,1934,23,149,816
169724,2935016,3202376,2939664,3234576,2490,3800,-1289,-5159,4456,182,470,3193,33,172,817
170725,2935112,3203336,2939861,3234773,2634,3800,-1554,-4937,5002,287,8,4200,33,172,817
171726,2935232,3204264,2940058,3234970,2519,3800,-1870,-4439,5520,660,-420,5659,45,188,818
172727,2935344,3205140,2940255,3235167,2608,3800,-2266,-3586,5940,935,-352,6765,45,188,818
173727,2935472,3206188,2940452,3235364,2539,3800,-2719,-2570,6294,980,-312,7310,40,195,817
174729,2935608,3207156,2940649,3235561,2517,3800,-3163,-1559,6502,941,160,7591,40,195,817
175730,2935760,3208068,2940846,3235758,2438,3800,-3540,-584,6365,702,1733,7873,36,183,818
176738,2935916,3208964,2941076,3235988,2446,3800,-3964,555,5852,830,2806,8756,36,183,818
177732,2936068,3209864,2941273,3236185,2492,3800,-4451,1749,5124,1314,2564,8979,31,188,818
178733,2936252,3210700,2941470,3236382,2299,3800,-4941,2736,4382,1970,2275,8530,31,188,818
179734,2936416,3211672,2941667,3236579,2439,3800,-5361,3367,3698,2761,2774,7726,35,177,816
180735,2936584,3212472,2941864,3236776,2428,3800,-5683,3699,3099,3362,2829,6962,35,177,816
181736,2936784,3213220,2942061,3236973,2227,3800,-5845,3852,2619,3488,2161,6635,39,187,818
182737,2936988,3213972,2942258,3237170,2200,3800,-5808,3781,2184,3699,1626,5985,39,187,818
183738,2937208,3214672,2942455,3237367,2091,3800,-5598,3468,1808,4392,1358,5359,49,164,818
184739,2937444,3215380,2942652,3237564,1975,3800,-5372,3039,1548,4863,1822,5174,49,164,818
185740,2937656,3215936,2942849,3237761,2120,3800,-5206,2666,1340,4702,2228,5504,47,115,818
186741,2937868,3216480,2943046,3237958,2114,3800,-5117,2352,1015,3663,2750,5991,47,115,818
187742,2938116,3217032,2943243,3238155,1868,3800,-5061,2122,478,2139,3612,6473,43,113,818
188743,2938364,3217540,2943440,3238352,1846,3800,-5033,2050,-312,996,3945,6977,43,113,818
189744,2938616,3218000,2943637,3238549,1798,3800,-5014,2073,-1242,241,2762,7226,58,92,816
190745,2938828,3218520,2943834,3238746,2042,3800,-4961,2195,-2134,-441,877,7779,58,92,816
191746,2939072,3218976,2944031,3238943,1823,3800,-4801,2396,-2937,-1100,141,8132,46,97,816
192747,2939312,3219396,2944228,3239140,1830,3800,-4002,3093,-3481,-2365,-1246,14877,46,97,816
193748,2939536,3219840,2944425,3239337,1919,3800,-907,5523,-3334,-5790,-4499,32767,40,81,815
194749,2939792,3220244,2944622,3239534,1694,3800,2864,7766,-2904,-4935,-3884,32767,40,81,815
195750,2940000,3220652,2944819,3239731,1990,3800,4302,7683,-2803,-1476,168,7505,61,88,816
196750,2940224,3221024,2945016,3239928,1879,3800,4048,5026,-2775,-5994,22,1932,61,88,816
197751,2940444,3221360,2945213,3240125,1894,3800,3718,-898,-2413,-13171,-2036,-2557,38,65,816
198752,2940628,3221696,2945410,3240322,2126,3800,3709,-6025,-1917,-6824,-2487,1174,38,65,816
199754,2940816,3221968,2945607,3240519,2106,3800,3744,-8019,-1222,-3243,-2081,4983,48,65,815
200755,2941024,3222268,2945804,3240716,1977,3800,3770,-8014,-420,711,-1185,5498,48,65,815
201756,2941220,3222556,2946001,3240913,2054,3800,3717,-7811,340,166,-623,6018,55,62,812
202757,2941392,3222868,2946198,3241110,2216,3800,3792,-8713,910,-1007,176,3931,55,62,812
203758,2941528,3223152,2946395,3241307,2468,3800,3895,-9974,1222,-540,863,4167,25,60,812
204759,2941620,3223436,2946592,3241504,2790,3800,3979,-10751,1397,-146,1078,4206,25,60,812
205760,2941732,3223664,2946789,3241701,2704,3800,4011,-11626,1521,-425,434,3605,13,59,812
206761,2941804,3223988,2946986,3241898,3010,3800,4012,-12379,1646,-537,-108,4490,13,59,812
207762,2941888,3224308,2947183,3242095,2985,3800,3906,-12440,1904,-42,-729,6410,30,59,808
208763,2941996,3224628,2947380,3242292,2876,3800,3644,-11439,2259,-8,-1672,8423,30,59,808
209764,2942096,3224932,2947577,3242489,2969,3800,3380,-10451,2587,-997,-1990,8006,33,71,808
210765,2942196,3225244,2947774,3242686,3013,3800,3149,-9474,2793,-1267,-2133,8994,33,71,808
211766,2942344,3225588,2947971,3242883,2735,3800,2953,-8321,2804,-843,-1876,8857,36,62,808
212767,2942520,3225960,2948168,3243080,2571,3800,2847,-7107,2679,-1342,-1671,8448,36,62,808
213768,2942684,3226288,2948365,3243277,2661,3800,2820,-6128,2511,-2176,-1807,8073,44,70,807
214769,2942824,3226592,2948562,3243474,2837,3800,2777,-5369,2375,-2070,-1760,7655,44,70,807
215770,2943000,3227004,2948759,3243671,2622,3800,2724,-4340,2322,-1309,-1796,7733,37,79,811
216771,2943188,3227384,2948956,3243868,2552,3800,2683,-3326,2326,-857,-2077,6897,37,79,811
217772,2943360,3227772,2949153,3244065,2664,3800,2689,-2580,2367,-1044,-2279,6404,29,68,809
218773,2943568,3228196,2949350,3244262,2436,3800,2755,-1971,2442,-914,-2244,6048,29,68,809
219774,2943796,3228624,2949547,3244459,2299,3800,2850,-1276,2517,-116,-2178,5718,55,76,811
220775,2944056,3229028,2949744,3244656,2072,3800,2952,-580,2587,224,-2097,5246,55,76,811
221776,2944308,3229524,2949941,3244853,2099,3800,3055,-113,2668,453,-1981,4575,46,77,813
222777,2944604,3229988,2950138,3245050,1781,3800,3155,109,2737,1043,-1652,3903,46,77,813
223778,2944852,3230496,2950335,3245247,2060,3800,3260,293,2806,1728,-1484,3554,60,85,814
224779,2945104,3231008,2950532,3245444,2012,3800,3373,466,2861,1991,-1499,3113,60,85,814
225780,2945448,3231568,2950729,3245641,1373,3800,3503,533,2941,1877,-1626,2860,60,103,816
226781,2945752,3232104,2950926,3245838,1577,3800,3624,642,3045,1945,-1503,3058,60,103,816
227782,2946024,3232736,2951123,3246035,1745,3800,3704,891,3099,2332,-1183,2900,70,115,815
228783,2946332,3233380,2951320,3246232,1472,3800,3767,1182,3086,2400,-792,2685,70,115,815
229784,2946664,3234112,2951517,3246429,1264,3800,3852,1367,3014,2174,-437,2422,77,126,819
230785,2946988,3234804,2951714,3246626,1259,3800,3969,1566,2891,2058,-371,2536,77,126,819
231773,2947312,3235608,2951911,3246823,1205,3052,4099,1900,2723,2013,-123,2572,75,152,820
232774,2947592,3236356,2952108,3247020,1444,3163,4221,2282,2517,2083,-39,2411,75,152,820
233775,2947896,3237192,2952305,3247217,1247,2334,4322,2766,2299,1910,-149,2547,71,157,822
234776,2948212,3238064,2952502,3247414,1121,1814,4452,3241,2116,1572,-338,2393,71,157,822
235777,2948500,3238856,2952699,3247611,1257,2054,4606,3741,1963,1458,-689,2125,64,139,823
236778,2948752,3239644,2952896,3247808,1459,1821,4787,4169,1842,1365,-1120,1758,64,139,823
237779,2949024,3240396,2953093,3248005,1302,1804,4997,4581,1728,1301,-1142,1467,54,135,831
238780,2949336,3241172,2953290,3248202,1002,1401,5194,4893,1622,1240,-1455,1047,54,135,831
239782,2949604,3241904,2953487,3248399,1246,1442,5363,5204,1557,1125,-1607,937,71,137,830
240782,2949876,3242628,2953684,3248596,1189,1262,5491,5542,1526,1041,-1755,683,71,137,830
241783,2950116,3243316,2953881,3248793,1371,1272,5589,5904,1518,1023,-1985,539,47,139,832
242784,2950392,3244040,2954078,3248990,1111,817,5657,6246,1542,1010,-2294,381,47,139,832
243785,2950628,3244604,2954275,3249187,1345,1657,5690,6573,1563,1027,-2383,112,41,127,833
244786,2950876,3245236,2954472,3249384,1249,1041,5644,6937,1574,1150,-1961,267,41,127,833
245787,2951124,3245836,2954669,3249581,1227,1064,5484,7382,1552,1282,-1275,513,51,106,833
246788,2951340,3246384,2954866,3249778,1419,1236,5243,7777,1525,1253,-1818,-149,51,106,833
247789,2951584,3246908,2955063,3249975,1224,1243,4956,7972,1520,1335,-1326,-768,50,94,832
248790,2951784,3247316,2955260,3250172,1499,1876,4680,7845,1505,1552,-316,-1826,50,94,832
249791,2951964,3247704,2955457,3250369,1632,1918,4494,7280,1431,1334,212,-3178,47,80,832
250792,2952176,3248252,2955654,3250566,1426,763,4411,6481,1287,1237,708,-3942,47,80,832
251793,2952388,3248636,2955851,3250763,1420,1707,4292,4743,1166,1523,45,-4332,52,71,828
252794,2952584,3249048,2956048,3250960,1521,1438,4172,4172,1181,1329,29,-3529,52,71,828
253795,2952816,3249424,2956245,3251157,1281,1585,3939,3835,1058,1031,627,-3048,51,72,832
254796,2953008,3249784,2956442,3251354,1535,1613,3567,3576,771,734,1281,-3024,51,72,832
255797,2953192,3250096,2956639,3251551,1590,1863,3109,3293,373,435,1641,-3229,52,67,830
256798,2953396,3250468,2956836,3251748,1463,1411,2649,2986,-83,142,1621,-3203,52,67,830
257799,2953584,3250780,2957033,3251945,1567,1736,2210,2720,-516,129,1460,-3198,38,57,828
258800,2953776,3251060,2957230,3252142,1545,1900,1790,2434,-892,329,1758,-3430,38,57,828
259810,2953976,3251328,2957460,3252372,1510,1958,1348,2045,-1204,570,2112,-3714,30,47,830
260802,2954152,3251596,2957657,3252569,1669,1927,862,1506,-1415,830,1921,-3907,30,47,830
261803,2954348,3251848,2957854,3252766,1545,2004,348,906,-1486,1011,1615,-3996,41,64,827
262804,2954492,3252112,2958051,3252963,1895,1899,-151,314,-1450,1136,1309,-3927,41,64,827
263805,2954660,3252392,2958248,3253160,1757,1763,-648,-300,-1332,1246,1561,-3928,36,55,827
264806,2954760,3252620,2958445,3253357,2226,2074,-1146,-938,-1157,1323,2013,-3938,36,55,827
265807,2954840,3252812,2958642,3253554,2403,2302,-1625,-1608,-911,1465,1785,-3923,19,43,825
266808,2955000,3253048,2958839,3253751,1921,2009,-2132,-2343,-601,1661,1357,-4055,19,43,825
267809,2955108,3253292,2959036,3253948,2285,1939,-2650,-3126,-248,2074,1096,-4142,17,56,822
268810,2955260,3253540,2959233,3254145,2030,1892,-3152,-4060,114,2493,795,-4418,17,56,822
269811,2955444,3253756,2959430,3254342,1837,2084,-3732,-4999,489,2787,112,-3997,31,49,824
270812,2955588,3253988,2959627,3254539,2111,1969,-4352,-5587,920,2579,-502,-2872,31,49,824
271813,2955744,3254200,2959824,3254736,2054,2087,-4976,-5854,1383,2089,-854,-2020,38,54,825
272814,2955876,3254424,2960021,3254933,2234,2000,-5631,-6040,1763,1974,-862,-1638,38,54,825
273815,2956028,3254660,2960218,3255130,2130,1908,-6289,-6163,2037,2383,-1177,-1125,32,44,824
274816,2956152,3254840,2960415,3255327,2338,2266,-6930,-6285,2182,2659,-1239,-1069,32,44,824
275817,2956280,3255052,2960612,3255524,2344,2059,-7528,-6496,2214,2605,-1371,-867,26,35,823
276818,2956468,3255240,2960809,3255721,1973,2213,-8074,-6726,2158,2599,-1453,-451,26,35,823
277819,2956600,3255416,2961006,3255918,2353,2297,-8612,-6887,2013,3007,-1698,80,32,34,821
278820,2956748,3255608,2961203,3256115,2275,2200,-9138,-6884,1854,3441,-2253,733,32,34,821
279821,2956904,3255780,2961400,3256312,2244,2336,-9650,-6799,1716,3681,-2615,1444,33,50,821
280822,2957048,3255956,2961597,3256509,2344,2321,-10351,-6253,1573,4059,-2823,3836,33,50,821
281823,2957208,3256144,2961794,3256706,2261,2249,-11051,-5540,1442,4545,-3072,3739,24,41,821
282824,2957376,3256332,2961991,3256903,2224,2253,-11536,-5106,1300,5018,-3177,3090,24,41,821
283825,2957544,3256508,2962188,3257100,2237,2338,-11832,-4829,1124,5174,-3131,3684,38,28,820
284826,2957712,3256680,2962385,3257297,2251,2374,-11978,-4705,906,5186,-3142,3455,38,28,820
285827,2957900,3256852,2962582,3257494,2131,2385,-11985,-4718,700,5389,-3352,3375,26,42,821
286828,2958092,3257036,2962779,3257691,2109,2315,-11921,-4635,497,5603,-3466,4219,26,42,821
287829,2958264,3257228,2962976,3257888,2246,2269,-11798,-4317,234,5636,-3484,4945,39,36,821
288830,2958464,3257436,2963173,3258085,2071,2164,-11556,-3996,-86,5403,-3175,5094,39,36,821
289831,2958636,3257660,2963370,3258282,2258,2052,-11200,-3455,-467,5109,-2504,6359,34,32,820
290832,2958800,3257864,2963567,3258479,2323,2174,-10828,-2539,-881,4602,-1683,7841,34,32,820
291833,2958964,3258052,2963764,3258676,2338,2278,-10421,-1242,-1261,4071,-1397,9051,28,33,822
292834,2959140,3258268,2963961,3258873,2273,2094,-9954,214,-1619,3665,-728,9889,28,33,822
293835,2959320,3258484,2964158,3259070,2257,2086,-9446,1777,-1979,3543,-30,10537,23,50,821
294836,2959480,3258700,2964355,3259267,2399,2078,-8751,3504,-2313,3548,335,12247,23,50,821
295837,2959652,3258940,2964552,3259464,2336,1909,-4091,12568,-2020,2966,-4403,32767,31,36,822
296838,2959820,3259160,2964749,3259661,2375,2025,3739,28127,-1200,4135,-4780,32767,31,36,822
297839,2960000,3259360,2964946,3259858,2308,2148,7810,-32570,-1240,7302,3486,9930,42,33,822
298840,2960156,3259556,2965143,3260055,2477,2174,7753,30840,-2150,7118,7064,-900,42,33,822
299841,2960324,3259764,2965340,3260252,2416,2094,6781,25042,-3302,6994,6734,-4275,40,51,822
300842,2960468,3260016,2965537,3260449,2590,1795,6598,20895,-4098,6059,5372,-3242,40,51,822
301843,2960616,3260252,2965734,3260646,2588,1878,7025,17969,-4291,5311,3666,-3335,43,50,819
302844,2960776,3260500,2965931,3260843,2530,1780,7285,15871,-4073,5640,960,-1100,43,50,819
303845,2960920,3260700,2966128,3261040,2654,2079,6598,14671,-3227,4756,-4076,2985,28,36,821
304846,2961076,3260892,2966325,3261237,2598,2131,5397,14090,-2275,2620,-5050,3869,28,36,821
305847,2961228,3261112,2966522,3261434,2644,1946,4472,13371,-2119,1063,-1231,2839,22,36,821
306848,2961384,3261348,2966719,3261631,2638,1829,4175,11644,-2544,-1135,889,367,22,36,821
307849,2961536,3261584,2966916,3261828,2684,1812,3946,8297,-2641,-7457,267,-942,22,50,820
308850,2961692,3261820,2967113,3262025,2678,1795,3298,3808,-2063,-11837,-831,380,22,50,820
309851,2961876,3262084,2967310,3262222,2509,1590,2255,-459,-1183,-14845,-1018,2608,26,54,821
310852,2962048,3262280,2967507,3262419,2596,2016,1467,-3404,-195,-15586,-4,4923,26,54,821
311853,2962220,3262416,2967704,3262616,2608,2418,1207,-4830,1040,-16436,415,7576,29,35,820
312854,2962412,3262540,2967901,3262813,2487,2525,1479,-5436,2368,-15985,756,8185,29,35,820
313855,2962576,3262680,2968098,3263010,2677,2451,1785,-4602,3018,-11175,-80,10248,45,32,819
314856,2962748,3262824,2968295,3263207,2639,2449,1830,-2774,2628,-6412,-1012,9320,45,32,819
315857,2962920,3262976,2968492,3263404,2651,2419,2044,-935,2288,-7286,-67,9402,43,35,818
316858,2963068,3263160,2968689,3263601,2824,2224,2431,458,2241,-6776,-807,8256,43,35,818
317859,2963232,3263400,2968886,3263798,2739,1855,2760,973,2234,-5474,-1415,6336,43,31,817
318860,2963400,3263644,2969083,3263995,2728,1810,3107,1562,2570,-5481,-918,7209,43,31,817
319861,2963588,3263980,2969280,3264192,2608,1174,3366,1900,2930,-3250,-1267,4709,26,44,818
320862,2963748,3264168,2969477,3264389,2801,2103,3561,1724,3330,-2867,-780,3733,26,44,818
321863,2963924,3264504,2969674,3264586,2711,1117,3697,1342,3932,-2763,-351,3279,38,55,821
322864,2964084,3264824,2969871,3264783,2829,1162,3810,548,4405,-910,-59,1327,38,55,821
323865,2964252,3265104,2970068,3264980,2792,1376,3968,-409,4694,-931,1065,1321,22,53,818
324866,2964392,3265416,2970265,3265177,2993,1125,4128,-1503,4733,-604,1377,594,22,53,818
325867,2964556,3265740,2970462,3265374,2859,995,4183,-2647,4458,-141,1800,486,24,73,822
326868,2964708,3266044,2970659,3265571,2955,1073,4193,-3452,4143,-533,2496,1676,24,73,822
327869,2964844,3266324,2970856,3265768,3082,1186,4099,-3988,3759,163,2324,1631,41,55,822
328870,2964976,3266700,2971053,3265965,3137,508,3888,-4422,3406,287,2018,2127,41,55,822
329870,2965112,3267024,2971250,3266162,3141,777,3581,-4563,3220,92,1795,3063,41,76,822
330872,2965268,3267360,2971447,3266359,3035,640,3194,-4578,3001,487,1490,2972,41,76,822
331873,2965464,3267668,2971644,3266556,2786,766,2793,-4451,2678,22,2210,3468,42,61,823
332874,2965656,3267972,2971841,3266753,2815,744,2400,-4306,2207,-204,2834,3280,42,61,823
333875,2965844,3268328,2972038,3266950,2844,349,1994,-4220,1556,-121,3185,2870,39,74,820
334876,2966008,3268640,2972235,3267147,3010,573,1586,-3959,951,-475,3189,3621,39,74,820
335877,2966184,3268912,2972432,3267344,2946,789,1206,-3560,483,-184,2617,3643,51,65,824
336878,2966348,3269128,2972629,3267541,3037,1131,895,-2994,167,-48,1962,4047,51,65,824
337879,2966488,3269372,2972826,3267738,3213,935,652,-2293,32,-142,1494,4342,32,58,824
338880,2966648,3269588,2973023,3267935,3105,1101,397,-1682,-58,187,1258,3949,32,58,824
339881,2966788,3269832,2973220,3268132,3256,905,115,-1137,-126,76,1226,3718,45,52,821
340882,2966948,3270020,2973417,3268329,3149,1259,-189,-637,-143,87,894,3462,45,52,821
341883,2967124,3270200,2973614,3268526,3060,1316,-480,-293,-162,213,564,2809,38,33,821
342891,2967260,3270368,2973844,3268756,3352,1418,-738,-71,-177,121,561,2603,38,33,821
343885,2967380,3270496,2974041,3268953,3487,1698,-981,64,-186,507,337,2189,25,31,820
344886,2967540,3270656,2974238,3269150,3255,1514,-1222,143,-156,877,165,2099,25,31,820
345887,2967704,3270792,2974435,3269347,3245,1690,-1439,281,-92,941,160,2292,31,33,815
346888,2967856,3270940,2974632,3269544,3341,1637,-1643,396,-79,1079,-27,1980,31,33,815
347889,2968060,3271072,2974829,3269741,3015,1766,-1807,517,-128,1107,-328,2054,40,30,817
348890,2968232,3271212,2975026,3269938,3227,1740,-1954,619,-260,1048,-322,2122,40,30,817
349891,2968408,3271352,2975223,3270135,3212,1765,-2153,635,-544,1035,-31,1957,49,22,817
350892,2968620,3271508,2975420,3270332,2982,1683,-2431,718,-965,808,152,2341,49,22,817
351893,2968812,3271624,2975617,3270529,3111,1968,-2732,966,-1405,889,-129,2871,30,33,817
352894,2969000,3271708,2975814,3270726,3141,2217,-3036,1437,-1807,1032,-449,3453,30,33,817
353895,2969180,3271836,2976011,3270923,3199,1972,-3299,2019,-2130,1102,-887,3983,46,35,819
354896,2969424,3271988,2976208,3271120,2781,1842,-3520,2638,-2391,1227,-1342,4157,46,35,819
355897,2969624,3272160,2976405,3271317,3055,1728,-3713,3147,-2640,1268,-1557,4048,52,25,815
356898,2969832,3272300,2976602,3271514,3002,1953,-3902,3563,-2913,1195,-1433,3885,52,25,815
357899,2970080,3272424,2976799,3271711,2731,2085,-4120,3831,-3246,1125,-993,3508,46,37,817
358900,2970304,3272572,2976996,3271908,2870,1956,-4353,3989,-3606,951,-647,3343,46,37,817
359901,2970528,3272708,2977193,3272105,2859,2058,-4562,4046,-3943,832,-692,3230,35,35,818
360902,2970780,3272852,2977390,3272302,2661,2031,-4708,4053,-4247,772,-563,3131,35,35,818
361903,2971016,3273020,2977587,3272499,2746,1894,-4814,4035,-4521,623,-449,3128,39,27,819
362904,2971232,3273144,2977784,3272696,2864,2201,-4885,3901,-4777,436,-205,2935,39,27,819
363905,2971488,3273252,2977981,3272893,2589,2340,-4933,3733,-5011,286,-209,2826,45,26,820
364906,2971712,3273396,2978178,3273090,2778,2138,-4939,3479,-5168,161,-722,2788,45,26,820
365907,2971968,3273552,2978375,3273287,2554,2081,-4888,3206,-5225,33,-1002,2919,50,39,818
366908,2972232,3273768,2978572,3273484,2476,1698,-4832,2937,-5174,-119,-1095,3050,50,39,818
367909,2972468,3273956,2978769,3273681,2634,1877,-4816,2743,-5025,-291,-837,3650,61,41,818
368910,2972692,3274112,2978966,3273878,2699,2095,-4836,2727,-4808,-379,-517,4367,61,41,818
369911,2972956,3274268,2979163,3274075,2420,2113,-4800,2743,-4562,-750,51,4317,39,28,823
370912,2973184,3274400,2979360,3274272,2634,2291,-4745,2867,-4342,-1089,272,4877,39,28,823
371913,2973420,3274556,2979557,3274469,2567,2159,-4649,2961,-4177,-1378,444,4901,43,26,819
372914,2973676,3274748,2979754,3274666,2417,1936,-4517,3021,-4090,-1684,657,4948,43,26,819
373915,2973940,3274904,2979951,3274863,2339,2179,-4353,3043,-4080,-1972,716,4889,57,32,819
374916,2974180,3275032,2980148,3275060,2471,2384,-4192,3066,-4089,-2142,297,5320,57,32,819
375917,2974440,3275184,2980345,3275257,2319,2254,-4078,3224,-4080,-2150,-8,5754,58,39,821
376918,2974668,3275348,2980542,3275454,2507,2194,-3983,3446,-4064,-2148,19,5872,58,39,821
377919,2974916,3275500,2980739,3275651,2361,2289,-3913,3686,-4011,-1994,-443,6135,43,26,818
378920,2975180,3275644,2980936,3275848,2233,2362,-3793,3722,-3942,-1821,-786,5711,43,26,818
379921,2975448,3275768,2981133,3276045,2178,2519,-3641,3674,-3879,-1653,-1072,5598,46,41,819
380922,2975684,3275888,2981330,3276242,2362,2578,-3417,3449,-3834,-1545,-1133,5027,46,41,819
381923,2975932,3276032,2981527,3276439,2265,2451,-3171,3103,-3801,-1479,-1140,4910,49,33,821
382924,2976228,3276180,2981724,3276636,1923,2448,-2899,2660,-3777,-1301,-1035,4653,49,33,821
383925,2976452,3276360,2981921,3276833,2362,2255,-2653,2182,-3762,-1107,-1218,4781,41,26,819
384926,2976716,3276504,2982118,3277030,2083,2504,-2385,1751,-3744,-1029,-1595,4870,41,26,819
385927,2977016,3276652,2982315,3277227,1814,2500,-2076,1286,-3689,-996,-2037,4970,59,26,822
386928,2977296,3276776,2982512,3277424,1904,2682,-1729,911,-3582,-854,-2382,5243,59,26,822
387929,2977544,3276908,2982709,3277621,2082,2661,-1400,536,-3412,-710,-2487,5231,66,35,821
388930,2977860,3277072,2982906,3277818,1606,2475,-1093,182,-3209,-687,-2485,5234,66,35,821
389931,2978124,3277236,2983103,3278015,1903,2491,-812,-273,-3048,-750,-2327,5073,60,41,819
390932,2978408,3277408,2983300,3278212,1740,2452,-544,-776,-2950,-788,-2186,5034,60,41,819
391933,2978740,3277556,2983497,3278409,1382,2623,-260,-1247,-2909,-766,-2151,5104,61,33,822
392934,2979040,3277720,2983694,3278606,1538,2538,76,-1690,-2890,-784,-2276,5200,61,33,822
393935,2979352,3277908,2983891,3278803,1413,2392,459,-2032,-2855,-851,-2452,5438,64,31,823
394936,2979676,3278084,2984088,3279000,1283,2476,834,-2255,-2772,-918,-2604,5707,64,31,823
395937,2979948,3278272,2984285,3279197,1575,2406,1166,-2367,-2632,-925,-2624,5958,57,37,823
396938,2980240,3278472,2984482,3279394,1410,2330,1481,-2445,-2438,-936,-2561,5876,57,37,823
397939,2980584,3278616,2984679,3279591,1021,2703,1800,-2569,-2206,-963,-2249,5864,59,36,825
398940,2980880,3278816,2984876,3279788,1279,2352,2136,-2649,-1963,-1039,-1624,5820,59,36,825
399941,2981168,3279032,2985073,3279985,1290,2243,2480,-2740,-1750,-1181,-1049,5848,72,47,823
400942,2981468,3279216,2985270,3280182,1169,2449,2837,-2780,-1601,-1327,-858,5879,72,47,823
401943,2981772,3279440,2985467,3280379,1098,2188,3207,-2756,-1504,-1459,-1096,5967,51,49,824
402944,2982068,3279612,2985664,3280576,1106,2524,3559,-2648,-1395,-1502,-1657,6034,51,49,824
403945,2982308,3279820,2985861,3280773,1437,2294,3887,-2553,-1227,-1571,-2096,5881,70,39,825
404946,2982592,3280076,2986058,3280970,1125,1968,4196,-2516,-1009,-1528,-2120,5595,70,39,825
405947,2982852,3280272,2986255,3281167,1248,2344,4487,-2518,-776,-1415,-1836,5265,53,38,825
406948,2983116,3280476,2986452,3281364,1194,2291,4771,-2535,-556,-1367,-1162,5077,53,38,825
407949,2983348,3280684,2986649,3281561,1379,2262,5009,-2596,-372,-1323,-701,4814,54,36,828
408950,2983560,3280868,2986846,3281758,1499,2418,5210,-2727,-187,-1215,-580,4575,54,36,828
409951,2983788,3281052,2987043,3281955,1385,2423,5373,-2869,17,-1077,-581,4380,34,41,826
410952,2983996,3281240,2987240,3282152,1506,2402,5533,-3019,233,-952,-675,4151,34,41,826
411953,2984216,3281468,2987437,3282349,1422,2139,5677,-3201,456,-849,-878,3890,34,51,823
412954,2984468,3281696,2987634,3282546,1198,2125,5806,-3408,683,-687,-954,3629,34,51,823
413955,2984680,3281920,2987831,3282743,1442,2139,5862,-3623,902,-529,-895,3447,39,56,824
414956,2984900,3282144,2988028,3282940,1382,2127,5870,-3856,1073,-472,-568,3307,39,56,824
415957,2985120,3282388,2988225,3283137,1373,1982,5842,-4033,1196,-399,-197,3130,42,53,827
416958,2985332,3282624,2988422,3283334,1417,2015,5789,-4238,1312,-308,-117,3029,42,53,827
417959,2985580,3282856,2988619,3283531,1170,2024,5724,-4383,1446,-233,-106,3011,53,38,826
418960,2985816,3283068,2988816,3283728,1229,2143,5639,-4495,1592,-192,-148,2961,53,38,826
419961,2986044,3283248,2989013,3283925,1265,2350,5526,-4576,1727,-189,-26,2914,41,50,826
420962,2986312,3283448,2989210,3284122,985,2225,5366,-4614,1836,-169,294,2851,41,50,826
421963,2986564,3283648,2989407,3284319,1061,2223,5160,-4623,1908,-113,643,2761,39,41,826
422964,2986816,3283824,2989604,3284516,1038,2383,4931,-4605,1952,-31,854,2775,39,41,826
423965,2987080,3284032,2989801,3284713,934,2178,4680,-4548,1996,42,1029,2753,59,33,826
424966,2987308,3284200,2989998,3284910,1146,2441,4402,-4469,2040,186,1275,2692,59,33,826
425974,2987572,3284380,2990228,3285140,907,2387,4097,-4358,2097,333,1508,2727,59,43,826
426968,2987848,3284532,2990425,3285337,797,2582,3778,-4231,2169,450,1758,2610,59,43,826
427969,2988104,3284680,2990622,3285534,897,2630,3450,-4094,2247,573,2021,2539,55,29,825
428970,2988328,3284820,2990819,3285731,1085,2705,3123,-3996,2320,693,2112,2353,55,29,825
429971,2988580,3284952,2991016,3285928,887,2783,2836,-3875,2373,825,2102,2289,50,29,824
430972,2988792,3285080,2991213,3286125,1130,2839,2581,-3774,2405,907,2087,2165,50,29,824
431973,2989000,3285208,2991410,3286322,1151,2869,2342,-3694,2435,1067,1889,2095,54,34,823
432974,2989232,3285356,2991607,3286519,986,2766,2113,-3612,2470,1314,1537,2057,54,34,823
433975,2989452,3285492,2991804,3286716,1051,2868,1892,-3565,2496,1553,1602,1833,39,23,822
434976,2989648,3285596,2992001,3286913,1203,3109,1627,-3519,2507,1689,1643,1793,39,23,822
435977,2989888,3285700,2992198,3287110,909,3150,1344,-3493,2493,1769,1756,1682,52,17,823
436978,2990088,3285812,2992395,3287307,1158,3137,1055,-3459,2441,1885,1550,1755,52,17,823
437979,2990288,3285940,2992592,3287504,1157,3069,789,-3397,2356,2083,1252,1705,44,29,821
438980,2990500,3286040,2992789,3287701,1076,3286,517,-3302,2275,2217,1153,1796,44,29,821
439981,2990700,3286128,2992986,3287898,1150,3409,247,-3170,2212,2309,820,2044,40,16,820
440982,2990876,3286224,2993183,3288095,1309,3405,-30,-2937,2152,2390,671,2234,40,16,820
441983,2991060,3286328,2993380,3288292,1266,3396,-311,-2611,2076,2526,457,2437,38,21,819
442984,2991232,3286420,2993577,3288489,1352,3517,-606,-2233,1971,2629,298,2612,38,21,819
443985,2991400,3286536,2993774,3288686,1391,3403,-901,-1840,1856,2651,342,2749,26,22,817
444986,2991612,3286632,2993971,3288883,1109,3573,-1176,-1411,1705,2659,523,2831,26,22,817
445987,2991784,3286716,2994168,3289080,1371,3698,-1411,-994,1517,2698,773,2921,47,9,815
447001,2991956,3286768,2994365,3289277,1382,3800,-1609,-619,1292,2723,1073,2797,47,9,815
448002,2992128,3286828,2994562,3289474,1394,3800,-1785,-266,1050,2776,1248,2767,46,4,816
449003,2992344,3286908,2994759,3289671,1111,3800,-1924,70,813,2748,1286,2788,46,4,816
450004,2992512,3286988,2994956,3289868,1424,3800,-2045,380,584,2736,1167,2779,47,18,813
451005,2992684,3287080,2995153,3290065,1411,3800,-2146,631,363,2772,919,2779,47,18,813
452005,2992880,3287168,2995350,3290262,1261,3800,-2231,902,161,2732,878,2820,29,18,814
453006,2993044,3287252,2995547,3290459,1476,3800,-2296,1167,-41,2589,1198,2939,29,18,814
454008,2993228,3287360,2995744,3290656,1357,3800,-2345,1457,-255,2375,1512,3029,31,26,811
454996,2993416,3287504,2995941,3290853,1337,3761,-2379,1731,-486,2170,1743,3117,31,26,811
456010,2993580,3287632,2996138,3291050,1502,3800,-2405,2012,-725,2046,1541,3107,48,32,812
457011,2993780,3287776,2996335,3291247,1276,3800,-2462,2236,-966,1832,1496,3095,48,32,812
457999,2994000,3287932,2996532,3291444,1141,3759,-2568,2433,-1201,1590,1319,3083,42,33,814
459000,2994192,3288116,2996729,3291641,1319,3591,-2714,2585,-1393,1290,612,3095,42,33,814
460001,2994372,3288324,2996926,3291838,1402,3437,-2874,2761,-1541,947,476,3167,37,26,815
461003,2994584,3288536,2997123,3292035,1196,3406,-3026,2907,-1647,683,66,3063,37,26,815
462004,2994760,3288700,2997320,3292232,1431,3721,-3151,2981,-1723,255,18,3072,32,43,816
463004,2994936,3288876,2997517,3292429,1441,3656,-3234,3030,-1770,-196,-44,3109,32,43,816
464005,2995144,3289060,2997714,3292626,1236,3613,-3283,3056,-1791,-571,-155,3077,31,42,818
465006,2995320,3289240,2997911,3292823,1446,3645,-3297,3004,-1777,-908,-388,3027,31,42,818
466007,2995496,3289468,2998108,3293020,1455,3332,-3285,2974,-1698,-1130,-656,3321,41,44,815
467008,2995684,3289680,2998305,3293217,1385,3427,-3243,3005,-1546,-1443,-881,3422,41,44,815
468009,2995848,3289900,2998502,3293414,1550,3367,-3175,2973,-1336,-1754,-945,3397,30,50,815
469010,2996028,3290120,2998699,3293611,1458,3358,-3085,2849,-1082,-1982,-1034,3405,30,50,815
470011,2996200,3290344,2998896,3293808,1519,3322,-2976,2690,-817,-2185,-1090,3368,48,36,818
471012,2996388,3290588,2999093,3294005,1424,3176,-2846,2468,-579,-2400,-1137,3245,48,36,818
472013,2996548,3290844,2999290,3294202,1615,3076,-2680,2176,-368,-2565,-1233,3177,28,38,818
473014,2996740,3291092,2999487,3294399,1419,3105,-2494,1892,-162,-2696,-1411,3363,28,38,818
474015,2996920,3291340,2999684,3294596,1501,3082,-2317,1621,66,-2738,-1570,3501,46,54,819
475016,2997084,3291560,2999881,3294793,1617,3248,-2166,1422,345,-2705,-1768,3796,46,54,819
476017,2997236,3291788,3000078,3294990,1711,3185,-2064,1292,666,-2674,-1968,4337,28,46,819
477018,2997416,3292024,3000275,3295187,1545,3118,-1975,1211,969,-2600,-1853,4326,28,46,819
478019,2997576,3292296,3000472,3295384,1686,2862,-1872,1062,1225,-2567,-1824,4364,46,46,817
479020,2997732,3292572,3000669,3295581,1730,2802,-1797,942,1454,-2447,-1858,4676,46,46,817
480021,2997908,3292844,3000866,3295778,1615,2795,-1747,791,1663,-2333,-1754,4724,25,43,819
481022,2998036,3293080,3001063,3295975,1946,3003,-1657,572,1852,-2184,-1459,4390,25,43,819
482023,2998184,3293352,3001260,3296172,1843,2746,-1549,247,2015,-2010,-1197,4318,44,57,820
483024,2998356,3293652,3001457,3296369,1704,2525,-1451,-108,2111,-1898,-1052,4477,44,57,820
484025,2998508,3293932,3001654,3296566,1850,2615,-1362,-504,2139,-1746,-1093,4386,30,64,818
485026,2998676,3294220,3001851,3296763,1763,2525,-1280,-885,2167,-1511,-1075,4508,30,64,818
486027,2998812,3294472,3002048,3296960,1991,2727,-1209,-1229,2251,-1173,-951,4699,24,49,822
487028,2998956,3294724,3002245,3297157,1965,2703,-1113,-1532,2401,-858,-859,4834,24,49,822
488029,2999064,3295040,3002442,3297354,2229,2251,-970,-1878,2565,-539,-915,4864,36,45,820
489030,2999196,3295316,3002639,3297551,2109,2467,-794,-2230,2658,-323,-603,4921,36,45,820
490031,2999312,3295560,3002836,3297748,2245,2647,-602,-2541,2652,-201,79,4993,17,44,818
491032,2999416,3295832,3003033,3297945,2361,2439,-391,-2857,2590,-39,419,4996,17,44,818
492033,2999556,3296064,3003230,3298142,2162,2675,-177,-3116,2533,55,408,5269,39,46,821
493034,2999704,3296384,3003427,3298339,2135,2071,32,-3299,2488,130,361,5547,39,46,821
494035,2999832,3296704,3003624,3298536,2290,2017,208,-3366,2414,149,595,5887,21,64,819
495036,2999984,3296992,3003821,3298733,2161,2178,359,-3331,2300,187,673,6160,21,64,819
496037,3000116,3297256,3004018,3298930,2315,2298,497,-3196,2183,300,426,6361,40,62,822
497038,3000244,3297532,3004215,3299127,2372,2188,637,-2964,2088,276,283,6676,40,62,822
498039,3000384,3297856,3004412,3299324,2322,1834,785,-2690,1994,229,260,6734,42,57,822
499040,3000516,3298212,3004609,3299521,2401,1564,933,-2399,1911,270,107,6833,42,57,822
500041,3000656,3298524,3004806,3299718,2377,1788,1099,-2123,1858,370,266,6619,40,71,820
501042,3000792,3298792,3005003,3299915,2430,2032,1276,-1877,1836,463,384,6508,40,71,820
502043,3000960,3299140,3005200,3300112,2243,1467,1470,-1636,1838,420,364,6454,25,68,823
503044,3001100,3299484,3005397,3300309,2444,1427,1693,-1424,1854,291,210,6333,25,68,823
504045,3001272,3299832,3005594,3300506,2256,1336,1949,-1188,1829,160,354,6231,35,59,821
505046,3001464,3300116,3005791,3300703,2134,1697,2206,-989,1769,134,469,6019,35,59,821
506047,3001644,3300452,3005988,3300900,2217,1311,2447,-825,1729,144,291,5790,42,71,824
507048,3001804,3300804,3006185,3301097,2360,1143,2675,-675,1725,173,-56,5654,42,71,824
508049,3001996,3301108,3006382,3301294,2162,1396,2883,-542,1746,178,-414,5505,29,63,825
509057,3002160,3301400,3006612,3301524,2367,1444,3071,-395,1767,200,-540,5381,29,63,825
510051,3002336,3301696,3006809,3301721,2302,1375,3241,-232,1758,155,-446,5266,49,47,824
511052,3002548,3302032,3007006,3301918,2072,1064,3384,-32,1709,116,-254,5212,49,47,824
512053,3002760,3302336,3007203,3302115,2066,1217,3490,216,1622,92,77,5330,56,68,824
513054,3002968,3302624,3007400,3302312,2087,1277,3561,549,1533,147,337,5407,56,68,824
514055,3003172,3302872,3007597,3302509,2109,1505,3616,893,1482,290,188,5375,54,57,827
515056,3003400,3303132,3007794,3302706,1946,1402,3670,1232,1456,348,-12,5006,54,57,827
516057,3003616,3303436,3007991,3302903,2014,1080,3716,1448,1437,493,-219,4582,45,48,826
517058,3003824,3303696,3008188,3303100,2060,1328,3754,1600,1420,651,-445,4312,45,48,826
518059,3004068,3303968,3008385,3303297,1816,1220,3774,1655,1391,703,-185,4024,45,61,826
519060,3004276,3304232,3008582,3303494,2037,1240,3775,1670,1343,773,83,3716,45,61,826
520061,3004492,3304452,3008779,3303691,1978,1505,3760,1622,1295,900,9,3367,41,58,827
521062,3004712,3304716,3008976,3303888,1944,1200,3732,1519,1255,1064,22,3190,41,58,827
522063,3004916,3304976,3009173,3304085,2042,1197,3691,1409,1212,1190,126,3013,50,41,826
523064,3005112,3305252,3009370,3304282,2094,1062,3640,1325,1157,1156,272,2938,50,41,826
524065,3005344,3305476,3009567,3304479,1854,1375,3578,1247,1093,1162,238,2871,54,39,827
525066,3005536,3305704,3009764,3304676,2107,1337,3481,1185,1028,1163,444,2873,54,39,827
526067,3005732,3305952,3009961,3304873,2083,1188,3341,1217,973,1227,499,2951,45,38,827
527068,3005952,3306204,3010158,3305070,1924,1139,3170,1191,906,1276,601,2666,45,38,827
528069,3006140,3306432,3010355,3305267,2129,1276,2995,1171,809,1305,690,2670,39,45,826
529070,3006336,3306680,3010552,3305464,2080,1128,2820,1152,682,1306,667,2533,39,45,826
530071,3006548,3306892,3010749,3305661,1974,1347,2628,1155,517,1219,803,2329,45,54,828
531072,3006772,3307092,3010946,3305858,1888,1419,2417,1118,326,1130,853,2206,45,54,828
532073,3006964,3307292,3011143,3306055,2091,1418,2187,1065,135,1171,374,2012,37,49,826
533074,3007152,3307524,3011340,3306252,2121,1203,1935,979,-35,1171,67,1899,37,49,826
534075,3007348,3307744,3011537,3306449,2072,1267,1667,882,-200,1085,364,1713,48,35,826
535076,3007508,3307956,3011734,3306646,2314,1310,1377,721,-406,1051,722,1473,48,35,826
536077,3007688,3308148,3011931,3306843,2197,1437,1078,573,-639,904,841,1396,46,37,827
537078,3007844,3308360,3012128,3307040,2366,1305,763,420,-871,759,715,1454,46,37,827
538079,3008004,3308536,3012325,3307237,2358,1540,424,364,-1064,584,-16,1753,30,31,825
539080,3008188,3308740,3012522,3307434,2215,1361,67,382,-1179,448,-662,2008,30,31,825
540081,3008372,3308948,3012719,3307631,2222,1331,-307,431,-1257,536,-889,1988,47,41,825
541082,3008524,3309136,3012916,3307828,2442,1460,-672,397,-1319,696,-886,1813,47,41,825
542083,3008664,3309288,3013113,3308025,2543,1704,-1004,317,-1353,899,-812,1621,27,41,825
543084,3008824,3309492,3013310,3308222,2435,1375,-1309,153,-1342,999,-669,1545,27,41,825
544085,3008972,3309640,3013507,3308419,2532,1747,-1615,-5,-1246,1137,-404,1863,19,30,823
545086,3009108,3309816,3013704,3308616,2635,1581,-1940,-93,-1076,1309,-141,2091,19,30,823
546087,3009280,3309932,3013901,3308813,2422,1992,-2253,-183,-872,1387,455,1969,26,19,823
547088,3009428,3310036,3014098,3309010,2595,2107,-2562,-351,-676,1534,1396,2004,26,19,823
548089,3009640,3310196,3014295,3309207,2188,1773,-2821,-684,-523,1616,1795,1369,36,28,821
549090,3009844,3310352,3014492,3309404,2236,1816,-3018,-1144,-395,1645,1844,1154,36,28,821
550091,3010052,3310528,3014689,3309601,2207,1700,-3166,-1628,-311,1659,1591,1212,39,29,819
551092,3010228,3310688,3014886,3309798,2417,1816,-3298,-2026,-248,1627,815,1580,39,29,819
552093,3010420,3310848,3015083,3309995,2321,1833,-3475,-2192,-176,1581,364,2513,30,25,823
553094,3010612,3310996,3015280,3310192,2324,1928,-3731,-2107,-116,1663,131,3291,30,25,823
554095,3010764,3311132,3015477,3310389,2595,2030,-4045,-1790,-77,1693,45,4002,30,37,820
555096,3010988,3311276,3015674,3310586,2134,2003,-4362,-1357,-74,1774,335,4489,30,37,820
556097,3011172,3311424,3015871,3310783,2390,2000,-4647,-988,-95,1966,491,4455,30,25,821
557098,3011352,3311544,3016068,3310980,2423,2209,-4894,-677,-105,2137,269,4437,30,25,821
558099,3011568,3311668,3016265,3311177,2191,2216,-5114,-472,-123,2251,170,4348,36,23,822
559100,3011768,3311820,3016462,3311374,2290,2061,-5297,-335,-156,2249,30,4248,36,23,822
560101,3011964,3312004,3016659,3311571,2317,1866,-5435,-256,-199,2279,11,4246,30,26,820
561102,3012204,3312128,3016856,3311768,2024,2272,-5536,-175,-244,2381,-283,4294,30,26,820
562103,3012488,3312284,3017053,3311965,1712,2090,-5598,-172,-276,2478,-411,4193,35,20,821
563104,3012744,3312440,3017250,3312162,1862,2108,-5638,-231,-285,2587,-651,4238,35,20,821
564105,3012992,3312548,3017447,3312359,1890,2447,-5652,-314,-296,2704,-867,4246,52,28,822
565106,3013260,3312668,3017644,3312556,1734,2406,-5627,-396,-336,2687,-871,4290,52,28,822
566107,3013584,3312792,3017841,3312753,1329,2413,-5571,-451,-432,2514,-785,4462,51,36,822
567108,3013856,3312940,3018038,3312950,1622,2285,-5479,-490,-550,2356,-951,4529,51,36,822
568109,3014140,3313100,3018235,3313147,1510,2226,-5339,-536,-662,2363,-1000,4582,47,31,822
569110,3014408,3313280,3018432,3313344,1580,2109,-5124,-565,-769,2452,-831,4611,47,31,822
570111,3014612,3313472,3018629,3313541,1977,2036,-4866,-606,-864,2370,-923,4851,61,41,824
571112,3014884,3313636,3018826,3313738,1520,2225,-4609,-521,-943,2054,-1103,5345,61,41,824
572113,3015092,3313796,3019023,3313935,1916,2267,-4363,-320,-997,1780,-1105,5657,42,25,825
573114,3015272,3313960,3019220,3314132,2099,2256,-4096,-115,-1034,1691,-790,5790,42,25,825
574115,3015496,3314096,3019417,3314329,1813,2458,-3815,80,-1036,1653,-426,5825,53,38,824
575116,3015732,3314260,3019614,3314526,1721,2297,-3486,270,-1005,1435,-163,5855,53,38,824
576117,3015912,3314444,3019811,3314723,2080,2178,-3146,454,-954,1065,-113,5948,42,33,820
577118,3016192,3314592,3020008,3314920,1419,2425,-2794,670,-901,751,-31,6145,42,33,820
578119,3016448,3314796,3020205,3315117,1544,2073,-2428,936,-871,584,129,6251,57,39,822
579120,3016684,3314952,3020402,3315314,1652,2391,-2057,1263,-875,392,165,6544,57,39,822
580121,3016948,3315132,3020599,3315511,1449,2248,-1693,1651,-888,199,188,6558,37,37,824
581122,3017180,3315288,3020796,3315708,1635,2416,-1345,1968,-899,137,-1,6463,37,37,824
582123,3017376,3315436,3020993,3315905,1860,2488,-1013,2236,-883,217,-501,6284,54,40,823
583124,3017564,3315576,3021190,3316102,1915,2563,-739,2413,-876,216,-98,5973,54,40,823
584125,3017724,3315788,3021387,3316299,2107,2106,-511,2495,-873,352,-509,5571,30,35,823
585126,3017928,3315976,3021584,3316496,1829,2260,-316,2434,-853,637,-1014,5151,30,35,823
586127,3018108,3316192,3021781,3316693,1988,2077,-122,2194,-823,1000,-1076,4594,45,42,821
587128,3018308,3316356,3021978,3316890,1862,2416,80,1844,-757,1369,-1265,4214,45,42,821
588129,3018512,3316552,3022175,3317087,1834,2217,285,1374,-641,1617,-1377,3837,27,32,821
589130,3018728,3316736,3022372,3317284,1752,2297,486,863,-496,1738,-1272,3791,27,32,821
590131,3018932,3316936,3022569,3317481,1825,2197,662,388,-324,1832,-1166,3864,32,34,822
591132,3019140,3317144,3022766,3317678,1795,2142,801,55,-129,1745,-1033,4194,32,34,822
592143,3019388,3317388,3022996,3317908,1538,1911,898,-158,64,1553,-706,4456,50,44,823
593134,3019580,3317600,3023193,3318105,1891,2104,960,-319,198,1392,-130,4611,50,44,823
594135,3019804,3317792,3023390,3318302,1680,2232,995,-397,248,1351,-92,4857,29,36,824
595136,3019992,3317992,3023587,3318499,1909,2180,1018,-393,274,1426,-866,4913,29,36,824
596137,3020180,3318200,3023784,3318696,1914,2125,1041,-377,313,1424,-1370,4965,29,30,823
597138,3020372,3318364,3023981,3318893,1892,2415,1072,-311,356,1475,-1796,5078,48,32,822
598139,3020572,3318540,3024178,3319090,1841,2349,1113,-197,406,1712,-2262,4989,48,32,822
599140,3020772,3318740,3024375,3319287,1841,2198,1138,-60,455,1908,-2247,4842,46,49,821
600141,3020948,3318912,3024572,3319484,2001,2385,1137,19,487,2067,-2096,4616,46,49,821
601142,3021128,3319132,3024769,3319681,1984,2075,1115,41,505,2003,-1808,4563,40,34,822
602143,3021316,3319320,3024966,3319878,1939,2279,1102,111,515,1719,-1078,4621,40,34,822
603144,3021492,3319528,3025163,3320075,2024,2149,1089,229,500,1408,-179,4579,45,32,823
604145,3021680,3319708,3025360,3320272,1953,2331,1078,385,484,1263,270,4625,45,32,823
605146,3021840,3319880,3025557,3320469,2145,2392,1070,586,477,1226,333,4695,30,34,822
606147,3022016,3320080,3025754,3320666,2055,2216,1068,822,479,1205,190,4688,30,34,822
607148,3022196,3320276,3025951,3320863,2039,2241,1098,1067,496,1143,-342,4723,26,47,820
608149,3022388,3320484,3026148,3321060,1966,2162,1145,1314,526,1254,-1288,4637,26,47,820
609150,3022560,3320660,3026345,3321257,2103,2372,1199,1612,565,1244,-1559,4616,45,32,821
610151,3022748,3320848,3026542,3321454,2008,2301,1242,1958,600,1094,-1426,4683,45,32,821
611152,3022928,3321032,3026739,3321651,2065,2332,1276,2285,619,942,-1734,4630,29,43,820
612153,3023112,3321204,3026936,3321848,2047,2418,1276,2626,616,714,-1515,4589,29,43,820
613154,3023288,3321392,3027133,3322045,2107,2321,1234,2908,572,671,-883,4325,27,47,821
614155,3023480,3321608,3027330,3322242,2010,2138,1156,3133,469,595,53,4075,27,47,821
615156,3023660,3321812,3027527,3322439,2093,2210,1078,3300,310,353,1009,3897,44,39,821
616157,3023856,3321968,3027724,3322636,1994,2528,1011,3482,165,215,832,3818,44,39,821
617158,3024004,3322156,3027921,3322833,2317,2332,958,3496,84,203,343,3337,34,35,821
618159,3024180,3322320,3028118,3323030,2152,2498,912,3492,98,363,-610,3275,34,35,821
619160,3024340,3322548,3028315,3323227,2268,2084,878,3423,238,437,-1778,2981,40,40,819
620161,3024504,3322756,3028512,3323424,2259,2204,834,3265,478,330,-2276,2830,40,40,819
621162,3024652,3322944,3028709,3323621,2381,2333,793,3011,721,116,-2174,2559,21,40,819
622163,3024808,3323144,3028906,3323818,2350,2257,755,2758,890,-61,-1543,2495,21,40,819
623164,3024956,3323368,3029103,3324015,2422,2095,720,2507,948,-354,-520,2410,21,50,819
624165,3025120,3323568,3029300,3324212,2337,2244,673,2266,935,-663,-127,2452,21,50,819
625166,3025276,3323816,3029497,3324409,2406,1921,632,2028,914,-954,-3,2579,39,36,820
626167,3025416,3324052,3029694,3324606,2532,1980,587,1880,920,-1056,-137,2814,39,36,820
627168,3025588,3324272,3029891,3324803,2344,2070,528,1820,982,-1145,-575,2927,33,42,821
628169,3025744,3324488,3030088,3325000,2462,2087,429,1825,1118,-1264,-1131,3223,33,42,821
629170,3025900,3324712,3030285,3325197,2482,2025,307,1915,1292,-1426,-1330,3457,23,40,821
630171,3026068,3324964,3030482,3325394,2420,1825,198,2007,1456,-1695,-1144,3474,23,40,821
631172,3026224,3325156,3030679,3325591,2514,2203,126,2127,1569,-1874,-704,3590,32,47,819
632173,3026380,3325384,3030876,3325788,2533,1964,99,2113,1622,-2025,-468,3222,32,47,819
633174,3026512,3325640,3031073,3325985,2713,1763,100,2064,1677,-2098,-399,3305,21,56,819
634175,3026708,3325872,3031270,3326182,2313,1898,101,1987,1788,-2048,-419,3230,21,56,819
635176,3026824,3326108,3031467,3326379,2850,1856,102,1969,1960,-2022,-655,3388,27,47,818
636177,3026976,3326364,3031664,3326576,2646,1705,125,1924,2172,-2020,-788,3293,27,47,818
637178,3027180,3326596,3031861,3326773,2319,1839,151,1872,2393,-1947,-778,3404,39,44,819
638179,3027348,3326844,3032058,3326970,2557,1717,177,1749,2595,-1867,-739,3188,39,44,819
639180,3027508,3327100,3032255,3327167,2625,1642,195,1526,2765,-1764,-444,3094,48,45,822
640181,3027708,3327380,3032452,3327364,2374,1455,205,1272,2923,-1748,-108,3086,48,45,822
641182,3027892,3327720,3032649,3327561,2481,1018,221,998,3096,-1677,155,3121,48,57,821
642183,3028084,3327900,3032846,3327758,2434,2024,239,762,3290,-1572,339,3293,48,57,821
643184,3028268,3328052,3033043,3327955,2491,2219,251,600,3503,-1501,414,3502,28,36,823
644185,3028436,3328228,3033240,3328152,2604,2078,269,461,3708,-1475,201,3751,28,36,823
645186,3028624,3328396,3033437,3328349,2484,2141,324,330,3871,-1443,-46,3822,47,40,820
646187,3028828,3328600,3033634,3328546,2382,1913,382,280,3976,-1445,102,4153,47,40,820
647188,3029012,3328820,3033831,3328743,2513,1803,427,218,4000,-1435,270,4068,48,33,819
648189,3029148,3329088,3034028,3328940,2841,1471,479,183,3942,-1439,35,4214,48,33,819
649190,3029372,3329392,3034225,3329137,2280,1199,555,134,3824,-1405,118,4271,28,50,821
650191,3029560,3329684,3034422,3329334,2510,1233,631,73,3685,-1312,592,4359,28,50,821
651192,3029732,3329896,3034619,3329531,2622,1726,682,44,3594,-1192,885,4475,39,52,825
652193,3029868,3330204,3034816,3329728,2875,1077,703,-22,3573,-1102,937,4496,39,52,825
653194,3030024,3330512,3035013,3329925,2769,1029,722,-44,3609,-1068,769,4851,24,52,820
654195,3030172,3330808,3035210,3330122,2841,1060,757,-31,3661,-957,528,4872,24,52,820
655196,3030292,3331148,3035407,3330319,3051,722,826,-4,3703,-916,377,4989,40,74,822
656197,3030468,3331476,3035604,3330516,2712,740,919,65,3736,-863,42,5016,40,74,822
657198,3030584,3331820,3035801,3330713,3123,574,1036,39,3745,-855,64,4821,29,69,822
658199,3030720,3332112,3035998,3330910,3026,857,1127,83,3705,-894,353,5230,29,69,822
659200,3030936,3332472,3036195,3331107,2519,361,1207,127,3615,-813,438,5044,52,55,822
660201,3031112,3332892,3036392,3331304,2779,-112,1283,246,3503,-800,501,5327,52,55,822
661202,3031300,3333324,3036589,3331501,2709,-292,1365,281,3339,-750,930,5149,38,59,826
662203,3031476,3333672,3036786,3331698,2794,167,1439,301,3134,-537,1200,5110,38,59,826
663204,3031668,3333940,3036983,3331895,2697,636,1466,375,2958,-297,1261,5217,54,62,825
664205,3031828,3334060,3037180,3332092,2914,1594,1470,396,2829,-171,1449,5050,54,62,825
665206,3032004,3334336,3037377,3332289,2825,584,1417,466,2739,-49,1147,5221,44,60,824
666207,3032156,3334588,3037574,3332486,2995,710,1350,488,2623,-101,1094,5037,44,60,824
667208,3032324,3334836,3037771,3332683,2909,711,1283,436,2375,-18,1579,4812,27,51,824
668209,3032484,3335116,3037968,3332880,2976,475,1203,329,1995,-69,2218,4599,27,51,824
669210,3032612,3335316,3038165,3333077,3208,973,1035,323,1540,-214,2709,5038,25,36,823
670211,3032736,3335524,3038362,3333274,3266,918,801,409,1111,-259,2530,5277,25,36,823
671212,3032868,3335708,3038559,3333471,3245,1072,538,695,736,-263,2550,5784,20,31,820
672213,3033000,3335880,3038756,3333668,3275,1158,266,1042,390,-334,2831,5922,20,31,820
673214,3033136,3336028,3038953,3333865,3278,1330,-34,1438,40,-401,2696,6160,43,27,819
674215,3033296,3336172,3039150,3334062,3145,1377,-355,1826,-245,-255,1948,6109,43,27,819
675223,3033456,3336328,3039380,3334292,3177,1335,-617,2043,-436,-7,884,5384,44,28,817
676217,3033612,3336468,3039577,3334489,3221,1459,-767,1990,-597,272,691,4658,44,28,817
677218,3033756,3336608,3039774,3334686,3321,1484,-822,1852,-793,513,1268,4407,41,31,818
678219,3033924,3336740,3039971,3334883,3185,1562,-856,1641,-1049,657,1704,4356,41,31,818
679220,3034092,3336880,3040168,3335080,3199,1536,-887,1521,-1301,797,1507,4425,31,33,817
680221,3034264,3337012,3040365,3335277,3186,1615,-917,1467,-1523,899,1311,4535,31,33,817
681222,3034436,3337156,3040562,3335474,3198,1563,-943,1542,-1721,1067,810,4829,45,22,818
682223,3034620,3337276,3040759,3335671,3129,1746,-987,1686,-1902,1086,296,5169,45,22,818
683224,3034784,3337368,3040956,3335868,3271,1967,-1040,1976,-2107,900,-12,5490,29,20,817
684225,3034976,3337476,3041153,3336065,3099,1906,-1079,2225,-2361,718,-458,5416,29,20,817
685226,3035180,3337672,3041350,3336262,3022,1356,-1071,2451,-2644,514,-565,5289,42,22,815
686227,3035360,3337804,3041547,3336459,3180,1784,-1039,2620,-2948,386,-647,5206,42,22,815
687228,3035564,3337976,3041744,3336656,3028,1545,-994,2782,-3256,268,-849,5251,52,36,818
688229,3035784,3338124,3041941,3336853,2919,1717,-927,2908,-3530,136,-1071,5063,52,36,818
689230,3035964,3338252,3042138,3337050,3179,1871,-853,3006,-3765,62,-1228,4963,51,26,818
690231,3036164,3338392,3042335,3337247,3053,1821,-801,3101,-3949,-54,-1361,4944,51,26,818
691232,3036356,3338556,3042532,3337444,3107,1686,-795,3132,-4080,-210,-1456,4773,39,23,817
692233,3036536,3338692,3042729,3337641,3190,1888,-819,3110,-4160,-382,-1518,4643,39,23,817
693234,3036728,3338792,3042926,3337838,3118,2155,-855,3089,-4169,-528,-1634,4693,35,37,818
694235,3036912,3338904,3043123,3338035,3176,2117,-868,2986,-4127,-696,-1706,4339,35,37,818
695236,3037108,3339040,3043320,3338232,3102,1993,-863,2816,-4057,-921,-1750,4268,38,41,816
696237,3037312,3339228,3043517,3338429,3050,1672,-836,2592,-3966,-1160,-1797,4058,38,41,816
697238,3037516,3339368,3043714,3338626,3048,1997,-788,2351,-3860,-1391,-1974,4145,51,41,815
698239,3037708,3339564,3043911,3338823,3126,1648,-724,2187,-3734,-1616,-2136,4231,51,41,815
699240,3037888,3339692,3044108,3339020,3210,2103,-673,2032,-3579,-1768,-2248,4313,30,37,817
700241,3038100,3339808,3044305,3339217,3005,2213,-652,1971,-3382,-1873,-2343,4657,30,37,817
701242,3038300,3339932,3044502,3339414,3080,2195,-638,1892,-3169,-1975,-2175,4595,34,21,815
702243,3038476,3340080,3044699,3339611,3240,2066,-633,1838,-3022,-2175,-1709,4746,34,21,815
703244,3038688,3340240,3044896,3339808,3010,2008,-655,1799,-2955,-2404,-1428,4987,43,36,815
704245,3038900,3340364,3045093,3340005,3004,2265,-696,1837,-2911,-2378,-1561,5142,43,36,815
705246,3039100,3340468,3045290,3340202,3080,2431,-758,1955,-2861,-2281,-1263,5349,44,20,817
706247,3039332,3340600,3045487,3340399,2865,2284,-833,2095,-2762,-2149,-1158,5490,44,20,817
707248,3039572,3340744,3045684,3340596,2797,2232,-914,2208,-2618,-1867,-1142,5468,39,30,814
708249,3039796,3340884,3045881,3340793,2887,2283,-981,2265,-2487,-1573,-848,5278,39,30,814
709250,3040072,3341020,3046078,3340990,2528,2334,-1027,2194,-2396,-1336,-517,4955,57,25,816
710251,3040292,3341128,3046275,3341187,2869,2548,-1056,1977,-2351,-1092,-225,4521,57,25,816
711252,3040544,3341232,3046472,3341384,2646,2614,-1071,1658,-2317,-836,106,4245,41,23,818
712253,3040832,3341372,3046669,3341581,2383,2414,-1064,1199,-2291,-515,335,4024,41,23,818
713254,3041100,3341508,3046866,3341778,2477,2466,-1049,754,-2273,-198,416,4119,66,37,816
714255,3041348,3341660,3047063,3341975,2581,2386,-1003,329,-2247,32,539,4113,66,37,816
715256,3041628,3341796,3047260,3342172,2346,2513,-943,-65,-2226,216,591,4294,45,39,818
716257,3041896,3341940,3047457,3342369,2390,2486,-856,-412,-2222,361,537,4405,45,39,818
717258,3042176,3342100,3047654,3342566,2280,2402,-760,-729,-2238,513,468,4491,50,37,818
718259,3042508,3342248,3047851,3342763,1896,2499,-645,-1035,-2303,499,370,4520,50,37,818
719260,3042812,3342392,3048048,3342960,2025,2547,-516,-1323,-2384,461,117,4651,64,34,818
720261,3043112,3342560,3048245,3343157,2006,2411,-377,-1536,-2463,505,-63,4860,64,34,818
721262,3043420,3342716,3048442,3343354,1908,2504,-239,-1674,-2530,488,175,4950,62,41,820
722263,3043728,3342896,3048639,3343551,1861,2361,-110,-1742,-2573,379,135,5201,62,41,820
723264,3044040,3343048,3048836,3343748,1786,2556,21,-1784,-2579,311,-275,5258,60,28,820
724265,3044364,3343204,3049033,3343945,1656,2549,167,-1764,-2548,227,-495,5397,60,28,820
725266,3044724,3343364,3049230,3344142,1361,2540,340,-1696,-2500,137,-584,5386,73,47,820
726267,3045044,3343532,3049427,3344339,1558,2503,534,-1640,-2444,8,-800,5318,73,47,820
727269,3045364,3343712,3049624,3344536,1504,2436,752,-1580,-2367,-187,-1076,5264,66,46,823
728269,3045680,3343904,3049821,3344733,1477,2364,997,-1564,-2277,-339,-1234,5104,66,46,823
729270,3046020,3344064,3050018,3344930,1265,2580,1256,-1504,-2177,-540,-1224,4962,60,30,823
730271,3046332,3344212,3050215,3345127,1391,2677,1527,-1479,-2076,-773,-1206,4836,60,30,823
731272,3046680,3344404,3050412,3345324,1101,2404,1813,-1445,-1971,-913,-1229,4789,67,47,822
732273,3046984,3344608,3050609,3345521,1329,2326,2104,-1375,-1855,-1030,-1251,4710,67,47,822
733274,3047300,3344772,3050806,3345718,1202,2590,2396,-1341,-1731,-1087,-1177,4633,67,44,825
734275,3047624,3344980,3051003,3345915,1097,2311,2685,-1274,-1605,-1128,-1313,4617,67,44,825
735276,3047900,3345156,3051200,3346112,1363,2521,2984,-1173,-1467,-1189,-1510,4451,69,43,824
736277,3048172,3345344,3051397,3346309,1356,2450,3290,-1048,-1310,-1269,-1643,4393,69,43,824
737278,3048480,3345548,3051594,3346506,1083,2346,3586,-950,-1147,-1285,-1684,4266,52,43,824
738279,3048732,3345740,3051791,3346703,1409,2424,3857,-876,-972,-1305,-1858,3980,52,43,824
739280,3048996,3345964,3051988,3346900,1305,2213,4102,-842,-795,-1299,-1898,3737,63,42,825
740281,3049244,3346156,3052185,3347097,1383,2415,4323,-879,-617,-1286,-1764,3396,63,42,825
741282,3049468,3346352,3052382,3347294,1522,2390,4522,-1011,-454,-1252,-1199,3091,47,47,823
742283,3049688,3346548,3052579,3347491,1537,2391,4675,-1140,-334,-1162,-729,2771,47,47,823
743284,3049984,3346704,3052776,3347688,1019,2659,4782,-1336,-216,-1115,-766,2526,60,47,823
744285,3050200,3346920,3052973,3347885,1511,2276,4832,-1534,-64,-989,-930,2452,60,47,823
745286,3050412,3347156,3053170,3348082,1531,2134,4839,-1758,121,-874,-902,2223,35,53,824
746287,3050684,3347388,3053367,3348279,1123,2144,4812,-1943,300,-833,-898,2127,35,53,824
747288,3050896,3347608,3053564,3348476,1492,2209,4771,-2150,446,-837,-831,1942,50,51,825
748289,3051144,3347840,3053761,3348673,1246,2119,4725,-2354,567,-745,-675,1900,50,51,825
749290,3051400,3348060,3053958,3348870,1170,2183,4663,-2537,651,-733,-412,1795,44,51,825
750291,3051664,3348328,3054155,3349067,1090,1852,4593,-2783,683,-707,-243,1553,44,51,825
751292,3051900,3348548,3054352,3349264,1249,2143,4505,-2968,706,-645,-293,1612,62,42,824
752293,3052184,3348756,3054549,3349461,911,2213,4412,-3170,781,-524,-422,1472,62,42,824
753294,3052456,3348956,3054746,3349658,954,2262,4301,-3339,931,-423,-496,1440,50,48,825
754295,3052704,3349140,3054943,3349855,1081,2368,4172,-3534,1120,-324,-392,1342,50,48,825
755296,3052972,3349352,3055140,3350052,926,2186,4030,-3701,1304,-291,-244,1302,60,48,827
756297,3053256,3349576,3055337,3350249,788,2099,3871,-3864,1469,-278,-122,1216,60,48,827
757298,3053520,3349800,3055534,3350446,885,2087,3707,-4020,1615,-269,70,1039,58,45,826
758306,3053760,3349988,3055764,3350676,1030,2331,3529,-4199,1748,-203,315,1017,58,45,826
759300,3054040,3350160,3055961,3350873,744,2443,3343,-4321,1879,-150,558,1008,40,30,827
760301,3054276,3350348,3056158,3351070,1003,2347,3127,-4424,2007,-70,713,1114,40,30,827
761302,3054480,3350524,3056355,3351267,1199,2431,2887,-4474,2140,56,871,1206,41,43,826
762303,3054740,3350676,3056552,3351464,822,2601,2612,-4467,2282,154,992,1304,41,43,826
763304,3054972,3350844,3056749,3351661,982,2514,2310,-4420,2424,217,1087,1285,34,38,823
764305,3055172,3351000,3056946,3351858,1181,2607,1998,-4415,2549,295,1397,1242,34,38,823
765306,3055404,3351152,3057143,3352055,966,2651,1684,-4416,2626,502,1640,1147,43,29,824
766307,3055596,3351280,3057340,3352252,1219,2833,1357,-4418,2679,737,1745,1154,43,29,824
767308,3055796,3351432,3057537,3352449,1168,2702,1035,-4430,2735,965,1764,1105,40,36,823
768309,3056020,3351552,3057734,3352646,1006,2936,728,-4461,2801,1134,1907,1084,40,36,823
769310,3056212,3351672,3057931,3352843,1209,2970,430,-4497,2866,1247,2062,1159,41,18,822
770311,3056384,3351784,3058128,3353040,1345,3057,140,-4466,2913,1474,2060,1313,41,18,822
771312,3056532,3351896,3058325,3353237,1516,3096,-143,-4407,2921,1622,2076,1391,45,29,820
772313,3056716,3352016,3058522,3353434,1298,3080,-424,-4301,2896,1850,2014,1595,45,29,820
773314,3056880,3352136,3058719,3353631,1438,3113,-711,-4147,2858,2111,1788,1842,42,28,817
774315,3057044,3352248,3058916,3353828,1452,3201,-999,-3935,2831,2421,1337,2008,42,28,817
775316,3057224,3352332,3059113,3354025,1361,3426,-1283,-3680,2802,2598,1240,2269,21,9,815
776317,3057384,3352416,3059310,3354222,1502,3476,-1582,-3349,2730,2653,1341,2424,21,9,815
777318,3057544,3352496,3059507,3354419,1519,3553,-1912,-3070,2575,2706,1389,2444,28,20,816
778319,3057736,3352604,3059704,3354616,1321,3418,-2249,-2794,2378,2860,1024,2513,28,20,816
779320,3057896,3352704,3059901,3354813,1538,3510,-2574,-2564,2166,3057,1058,2484,46,10,814
780321,3058048,3352800,3060098,3355010,1608,3581,-2888,-2340,1940,3170,987,2629,46,10,814
781322,3058256,3352884,3060295,3355207,1254,3705,-3197,-2087,1660,3190,1043,2840,27,22,815
782323,3058424,3353008,3060492,3355404,1516,3487,-3508,-1690,1309,3208,1187,3350,27,22,815
783324,3058580,3353120,3060689,3355601,1610,3601,-3785,-1198,940,3316,1204,3658,43,27,814
784325,3058788,3353216,3060886,3355798,1280,3745,-4016,-695,596,3365,980,3691,43,27,814
785326,3058964,3353344,3061083,3355995,1491,3576,-4217,-217,287,3436,828,3965,47,31,813
786327,3059132,3353476,3061280,3356192,1553,3580,-4366,272,-9,3365,720,4211,47,31,813
787328,3059328,3353596,3061477,3356389,1379,3690,-4434,683,-336,3178,917,3976,28,33,814
788329,3059540,3353748,3061674,3356586,1273,3510,-4446,1031,-669,3018,1002,3972,28,33,814
789343,3059712,3353852,3061871,3356783,1534,3800,-4452,1432,-971,2921,1007,4290,32,16,813
790331,3059920,3353996,3062068,3356980,1305,3626,-4450,1869,-1186,2857,672,4493,32,16,813
791345,3060092,3354104,3062265,3357177,1541,3800,-4418,2298,-1331,2598,651,4609,28,28,813
792333,3060280,3354232,3062462,3357374,1445,3796,-4344,2655,-1455,2193,674,4627,28,28,813
793347,3060496,3354352,3062659,3357571,1263,3800,-4232,2956,-1565,1842,442,4545,31,26,813
794348,3060676,3354480,3062856,3357768,1496,3800,-4099,3179,-1646,1576,345,4452,31,26,813
795349,3060876,3354620,3063053,3357965,1370,3800,-3976,3375,-1697,1244,493,4453,45,21,812
796350,3061056,3354752,3063250,3358162,1503,3800,-3869,3489,-1706,846,418,4410,45,21,812
797338,3061248,3354916,3063447,3358359,1431,3707,-3747,3588,-1677,463,444,4430,50,26,812
798339,3061436,3355124,3063644,3358556,1460,3427,-3594,3608,-1619,138,357,4400,50,26,812
799340,3061636,3355316,3063841,3358753,1383,3530,-3429,3574,-1553,-261,323,4456,30,39,814
800341,3061832,3355512,3064038,3358950,1410,3506,-3256,3538,-1476,-732,101,4574,30,39,814
801342,3062008,3355720,3064235,3359147,1544,3427,-3065,3492,-1390,-1243,-11,4543,33,45,816
802343,3062180,3355908,3064432,3359344,1581,3556,-2862,3405,-1294,-1630,-145,4566,33,45,816
803344,3062384,3356144,3064629,3359541,1378,3240,-2648,3343,-1155,-1981,-431,4809,33,35,816
804345,3062556,3356372,3064826,3359738,1589,3277,-2434,3320,-951,-2291,-765,5113,33,35,816
805346,3062720,3356620,3065023,3359935,1655,3130,-2227,3341,-687,-2524,-991,5404,39,47,817
806347,3062896,3356848,3065220,3360132,1589,3243,-2029,3368,-365,-2700,-1130,5614,39,47,817
807348,3063052,3357068,3065417,3360329,1733,3283,-1813,3446,-8,-2823,-1177,5691,47,36,816
808349,3063204,3357288,3065614,3360526,1778,3273,-1609,3445,360,-2981,-1220,5747,47,36,816
809350,3063376,3357516,3065811,3360723,1665,3211,-1444,3457,721,-3122,-1362,6067,40,41,816
810351,3063540,3357736,3066008,3360920,1729,3251,-1287,3445,1063,-3294,-1460,5916,40,41,816
811352,3063664,3357996,3066205,3361117,2012,2974,-1113,3322,1376,-3415,-1364,5621,44,56,817
812353,3063828,3358256,3066402,3361314,1777,2946,-958,3101,1651,-3437,-1316,5658,44,56,817
813354,3063988,3358492,3066599,3361511,1819,3080,-845,2801,1891,-3253,-1231,5413,40,55,817
814355,3064156,3358708,3066796,3361708,1782,3197,-746,2394,2110,-2924,-1175,5024,40,55,817
815356,3064300,3358956,3066993,3361905,1956,2975,-652,1428,2338,-3072,-1412,4070,25,55,817
816357,3064436,3359240,3067190,3362102,2033,2713,-564,-7,2558,-2968,-1829,3912,25,55,817
817358,3064560,3359484,3067387,3362299,2141,2943,-534,-968,2795,-2774,-1890,5549,26,56,816
818359,3064672,3359712,3067584,3362496,2253,3030,-532,-1327,2995,-1917,-1786,5910,26,56,816
819360,3064804,3359932,3067781,3362693,2158,3070,-537,-1359,3134,-1591,-1331,6419,19,35,815
820361,3064932,3360144,3067978,3362890,2213,3114,-457,-1457,3205,-1751,-398,6087,19,35,815
821361,3065036,3360388,3068175,3363087,2405,2894,-304,-1755,3175,-1291,-136,5878,36,47,815
822363,3065200,3360644,3068372,3363284,2044,2794,-119,-2031,3080,-821,-132,5909,36,47,815
823364,3065328,3360852,3068569,3363481,2301,3089,74,-2265,2994,-513,-157,6071,35,52,814
824365,3065468,3361072,3068766,3363678,2252,3005,264,-2477,2932,-194,-139,5947,35,52,814
825366,3065628,3361304,3068963,3363875,2143,2914,453,-2729,2923,27,162,6046,28,55,815
826367,3065776,3361556,3069160,3364072,2241,2766,640,-2815,2925,349,344,6379,28,55,815
827368,3065896,3361808,3069357,3364269,2450,2742,810,-2912,2871,527,98,6053,35,57,816
828369,3066044,3362076,3069554,3364466,2297,2612,1008,-3049,2765,329,-132,6083,35,57,816
829370,3066196,3362352,3069751,3364663,2293,2527,1221,-3149,2606,350,-170,6143,39,42,816
830371,3066320,3362612,3069948,3364860,2501,2600,1450,-3194,2408,302,24,6167,39,42,816
831372,3066504,3362856,3070145,3365057,2132,2680,1692,-3149,2260,170,52,6270,44,56,817
832373,3066660,3363120,3070342,3365254,2326,2525,1924,-3092,2176,240,-100,6265,44,56,817
833374,3066820,3363436,3070539,3365451,2318,2149,2133,-2979,2154,216,-391,6379,34,49,817
834375,3067016,3363740,3070736,3365648,2093,2177,2348,-2814,2150,98,-494,6269,34,49,817
835376,3067204,3364028,3070933,3365845,2148,2238,2589,-2634,2112,-109,-355,6170,50,63,820
836377,3067372,3364292,3071130,3366042,2287,2359,2865,-2456,2061,-442,-224,6189,50,63,820
837378,3067568,3364664,3071327,3366239,2113,1607,3166,-2206,2006,-631,-101,6195,29,60,820
838379,3067744,3364992,3071524,3366436,2248,1825,3440,-1896,1945,-760,-192,6220,29,60,820
839380,3067900,3365308,3071721,3366633,2392,1848,3689,-1529,1917,-1061,-441,6203,34,66,822
840381,3068116,3365604,3071918,3366830,2009,1929,3911,-1180,1901,-1160,-637,6028,34,66,822
841389,3068324,3365924,3072148,3367060,2069,1740,4104,-827,1900,-1124,-635,5831,36,72,821
842383,3068524,3366288,3072345,3367257,2119,1392,4276,-469,1939,-1146,-618,5698,36,72,821
843384,3068744,3366648,3072542,3367454,1985,1346,4436,-143,1996,-1123,-995,5378,35,53,822
844385,3068932,3366952,3072739,3367651,2189,1649,4564,122,2063,-1081,-1091,5076,35,53,822
845386,3069116,3367244,3072936,3367848,2220,1682,4648,380,2117,-903,-870,4776,43,59,825
846387,3069328,3367608,3073133,3368045,2040,1159,4683,608,2125,-715,-526,4544,43,59,825
847388,3069564,3367936,3073330,3368242,1873,1326,4690,813,2106,-666,-69,4370,52,55,823
848389,3069772,3368260,3073527,3368439,2045,1295,4690,984,2102,-461,23,4125,52,55,823
849390,3069956,3368512,3073724,3368636,2200,1721,4679,1147,2129,-138,-331,3898,53,51,826
850391,3070180,3368812,3073921,3368833,1939,1376,4660,1229,2172,177,-616,3474,53,51,826
851392,3070388,3369112,3074118,3369030,2036,1330,4619,1163,2194,455,-660,2986,35,63,825
852393,3070584,3369428,3074315,3369227,2111,1178,4547,1030,2197,709,-683,2666,35,63,825
853393,3070824,3369720,3074512,3369424,1818,1286,4452,859,2174,909,-303,2450,53,51,825
854395,3071040,3369972,3074709,3369621,1961,1512,4342,653,2134,1047,-78,2211,53,51,825
855396,3071220,3370248,3074906,3369818,2193,1328,4234,375,2097,1156,16,1977,45,62,825
856397,3071448,3370552,3075103,3370015,1881,1106,4116,125,2062,1361,86,1794,45,62,825
857398,3071636,3370848,3075300,3370212,2136,1112,3986,-156,2007,1562,451,1605,52,57,825
858399,3071828,3371140,3075497,3370409,2114,1095,3849,-380,1926,1716,481,1705,52,57,825
859400,3072024,3371396,3075694,3370606,2089,1294,3713,-569,1856,1893,-66,1710,39,56,827
860401,3072260,3371668,3075891,3370803,1823,1161,3555,-662,1785,1823,335,1799,39,56,827
861402,3072456,3371948,3076088,3371000,2075,1074,3361,-695,1656,1764,1005,1917,51,45,826
862403,3072680,3372236,3076285,3371197,1888,984,3144,-688,1479,1784,959,1912,51,45,826
863404,3072856,3372460,3076482,3371394,2198,1372,2919,-600,1299,1728,919,2083,41,43,826
864405,3073032,3372676,3076679,3371591,2208,1414,2690,-473,1096,1625,1037,2084,41,43,826
865406,3073216,3372920,3076876,3371788,2164,1218,2432,-310,813,1542,1434,1966,45,40,827
866407,3073364,3373172,3077073,3371985,2411,1143,2146,-182,466,1499,1702,1820,45,40,827
867408,3073532,3373388,3077270,3372182,2300,1360,1849,-63,122,1525,1093,1912,41,41,824
868409,3073732,3373636,3077467,3372379,2100,1137,1561,152,-134,1480,235,2119,41,41,824
869410,3073904,3373868,3077664,3372576,2286,1222,1275,441,-287,1471,-135,2179,40,45,824
870411,3074056,3374064,3077861,3372773,2432,1446,947,673,-365,1636,-376,2021,40,45,824
871412,3074192,3374280,3078058,3372970,2559,1313,555,793,-404,1842,-413,1722,24,45,826
872413,3074332,3374480,3078255,3373167,2559,1411,117,774,-446,1970,-127,1302,24,45,826
873414,3074500,3374684,3078452,3373364,2398,1383,-322,645,-481,1973,231,1007,24,44,822
874415,3074644,3374880,3078649,3373561,2573,1433,-743,460,-516,1974,1025,873,24,44,822
875416,3074820,3375080,3078846,3373758,2383,1407,-1166,266,-543,2086,1506,830,22,26,821
876417,3074988,3375240,3079043,3373955,2445,1673,-1569,40,-530,2246,1717,699,22,26,821
877418,3075180,3375376,3079240,3374152,2299,1850,-1961,-214,-508,2435,1984,663,48,21,822
878419,3075368,3375544,3079437,3374349,2329,1661,-2374,-451,-488,2525,2184,1003,48,21,822
879420,3075560,3375664,3079634,3374546,2307,1995,-2817,-540,-467,2598,2182,1567,26,40,821
880421,3075752,3375824,3079831,3374743,2310,1761,-3250,-605,-405,2767,1687,1646,26,40,821
881422,3075952,3376040,3080028,3374940,2259,1403,-3632,-673,-311,2835,1437,1641,50,38,822
882423,3076132,3376200,3080225,3375137,2392,1769,-3969,-741,-229,2689,1147,1638,50,38,822
883424,3076324,3376336,3080422,3375334,2320,1945,-4275,-811,-213,2381,944,1684,50,26,823
884425,3076572,3376484,3080619,3375531,1949,1892,-4557,-899,-263,2208,804,1796,50,26,823
885426,3076784,3376632,3080816,3375728,2167,1913,-4819,-974,-349,2150,620,1880,54,23,820
886427,3076996,3376764,3081013,3375925,2162,2042,-5082,-979,-422,2168,429,2357,54,23,820
887428,3077224,3376920,3081210,3376122,2049,1910,-5362,-827,-467,2242,181,2998,33,20,823
888429,3077420,3377072,3081407,3376319,2251,1955,-5660,-505,-490,2275,-92,3425,33,20,823
889430,3077660,3377192,3081604,3376516,1957,2187,-5945,-116,-503,2184,-388,3613,40,23,821
890431,3077924,3377356,3081801,3376713,1778,1927,-6179,184,-521,2077,-569,3485,40,23,821
891432,3078148,3377520,3081998,3376910,2017,1941,-6341,303,-579,2032,-584,3204,61,36,821
892433,3078392,3377652,3082195,3377107,1873,2170,-6432,285,-692,1999,-480,2923,61,36,821
893434,3078612,3377808,3082392,3377304,2013,2038,-6470,208,-837,1992,-565,2929,46,21,824
894435,3078908,3377932,3082589,3377501,1495,2270,-6479,150,-973,1967,-682,3062,46,21,824
895436,3079184,3378060,3082786,3377698,1586,2275,-6464,158,-1065,2030,-891,3345,50,18,821
896437,3079452,3378208,3082983,3377895,1606,2172,-6427,227,-1100,1980,-1349,3539,50,18,821
897438,3079736,3378348,3083180,3378092,1468,2247,-6374,276,-1092,1986,-1564,3706,48,34,823
898439,3079996,3378504,3083377,3378289,1591,2165,-6274,282,-1086,1965,-1381,3671,48,34,823
899440,3080248,3378660,3083574,3378486,1617,2182,-6125,164,-1105,1980,-1054,3517,46,38,824
900441,3080476,3378844,3083771,3378683,1754,2013,-5945,77,-1133,1872,-1160,3707,46,38,824
901442,3080680,3379036,3083968,3378880,1902,1965,-5750,-8,-1167,1689,-1152,3832,41,42,824
902443,3080864,3379220,3084165,3379077,2033,2021,-5549,-52,-1200,1661,-1137,3926,41,42,824
903444,3081068,3379404,3084362,3379274,1906,2026,-5340,-76,-1214,1787,-1292,4146,40,31,824
904445,3081284,3379584,3084559,3379471,1824,2059,-5123,-79,-1217,1818,-1297,4376,40,31,824
905446,3081476,3379728,3084756,3379668,1976,2307,-4899,-53,-1208,1844,-1318,4599,38,30,822
906447,3081704,3379924,3084953,3379865,1738,1983,-4669,25,-1178,1828,-1321,4906,38,30,822
907448,3081912,3380120,3085150,3380062,1859,1983,-4418,199,-1144,1730,-1105,5192,29,44,822
908449,3082120,3380336,3085347,3380259,1855,1850,-4155,436,-1125,1594,-902,5400,29,44,822
909450,3082324,3380540,3085544,3380456,1878,1922,-3899,715,-1118,1468,-908,5677,43,29,824
910451,3082516,3380712,3085741,3380653,1955,2133,-3653,1019,-1102,1339,-932,5881,43,29,824
911452,3082716,3380868,3085938,3380850,1904,2251,-3399,1308,-1114,1206,-676,5842,48,44,825
912453,3082888,3381032,3086135,3381047,2091,2215,-3126,1545,-1136,1286,-1257,5820,48,44,825
913454,3083052,3381220,3086332,3381244,2156,2069,-2849,1722,-1150,1419,-1704,5616,43,31,822
914455,3083224,3381424,3086529,3381441,2118,1966,-2573,1825,-1157,1440,-1809,5388,43,31,822
915456,3083412,3381604,3086726,3381638,2022,2123,-2314,1889,-1146,1372,-2104,5354,24,41,821
916457,3083596,3381768,3086923,3381835,2054,2238,-2091,1967,-1121,1161,-2150,5414,24,41,821
917458,3083788,3381932,3087120,3382032,2007,2252,-1924,2042,-1089,967,-1910,5454,30,31,820
918459,3083988,3382092,3087317,3382229,1955,2294,-1778,2125,-1032,883,-1866,5611,30,31,820
919460,3084216,3382248,3087514,3382426,1768,2337,-1622,2235,-946,781,-1777,5675,47,41,820
920461,3084392,3382428,3087711,3382623,2103,2194,-1441,2346,-855,632,-1512,5665,47,41,820
921462,3084624,3382580,3087908,3382820,1738,2389,-1254,2414,-798,380,-1098,5633,50,42,821
922463,3084860,3382748,3088105,3383017,1697,2302,-1060,2535,-742,174,-1382,5898,50,42,821
923464,3085068,3382932,3088302,3383214,1867,2207,-674,2838,-501,176,-2801,6075,51,35,821
924474,3085272,3383112,3088532,3383444,1904,2254,-473,2991,-339,215,-2891,5952,51,35,821
925466,3085500,3383364,3088729,3383641,1741,1781,-270,3068,-193,358,-2619,5688,35,34,822
926467,3085700,3383576,3088926,3383838,1915,2025,-63,3055,-69,528,-2141,5298,35,34,822
927468,3085904,3383768,3089123,3384035,1888,2152,140,2879,38,800,-1784,4921,42,39,822
928469,3086128,3383960,3089320,3384232,1752,2154,315,2572,138,1114,-1328,4647,42,39,822
929470,3086304,3384156,3089517,3384429,2061,2129,465,2194,243,1315,-633,4442,33,37,822
930471,3086488,3384380,3089714,3384626,2018,1943,571,1820,342,1415,41,4524,33,37,822
931472,3086712,3384644,3089911,3384823,1756,1663,646,1558,438,1297,416,4837,33,52,823
932473,3086904,3384840,3090108,3385020,1960,2089,705,1459,544,997,356,5229,33,52,823
933474,3087116,3385048,3090305,3385217,1829,2009,740,1481,615,747,298,5373,45,35,823
934475,3087320,3385220,3090502,3385414,1876,2245,764,1494,624,544,191,5416,45,35,823
935476,3087528,3385428,3090699,3385611,1847,2015,811,1541,615,503,-813,5544,48,49,823
936477,3087712,3385636,3090896,3385808,2003,2010,897,1581,631,493,-1975,5542,48,49,823
937478,3087932,3385832,3091093,3386005,1769,2086,1004,1643,658,326,-2268,5607,30,37,822
938479,3088096,3386016,3091290,3386202,2134,2166,1109,1707,669,231,-2085,5488,30,37,822
939480,3088288,3386200,3091487,3386399,1961,2172,1207,1753,658,115,-1744,5216,35,30,821
940481,3088464,3386400,3091684,3386596,2072,2071,1291,1722,634,43,-1244,4990,35,30,821
941482,3088696,3386572,3091881,3386793,1706,2257,1369,1654,559,-124,-96,4795,35,49,820
942483,3088884,3386764,3092078,3386990,1986,2134,1460,1516,461,-273,-16,4694,35,49,820
943484,3089040,3386956,3092275,3387187,2205,2136,1585,1275,327,-342,248,4420,28,42,822
944485,3089228,3387144,3092472,3387384,2009,2165,1707,1117,211,-320,167,4614,28,42,822
945486,3089388,3387348,3092669,3387581,2201,2062,1787,999,216,-245,-508,4567,33,31,822
946487,3089508,3387492,3092866,3387778,2486,2460,1806,913,360,-185,-986,4689,33,31,822
947488,3089676,3387712,3093063,3387975,2199,1975,1813,758,631,-283,-1154,4403,26,40,821
948489,3089812,3387884,3093260,3388172,2427,2287,1835,579,990,-190,-1598,4312,26,40,821
949490,3089948,3388096,3093457,3388369,2454,2030,1918,308,1360,-219,-1626,3882,36,40,817
950491,3090108,3388300,3093654,3388566,2321,2077,2069,-76,1671,-490,-1527,3589,36,40,817
951492,3090228,3388512,3093851,3388763,2606,2021,2240,-468,1895,-636,-1581,3481,17,33,817
952493,3090380,3388740,3094048,3388960,2425,1907,2403,-824,2063,-742,-1590,3549,17,33,817
953494,3090532,3388964,3094245,3389157,2446,1920,2531,-979,2229,-842,-1565,4275,36,46,820
954495,3090696,3389176,3094442,3389354,2387,1989,2635,-933,2387,-978,-1105,4628,36,46,820
955496,3090828,3389408,3094639,3389551,2616,1848,2698,-689,2524,-1067,-836,5110,37,47,821
956497,3090976,3389600,3094836,3389748,2538,2101,2738,-417,2690,-980,-1543,5066,37,47,821
957498,3091156,3389816,3095033,3389945,2346,1942,2737,-122,2844,-905,-1885,5136,43,45,820
958499,3091280,3390044,3095230,3390142,2729,1854,2714,148,2926,-987,-1706,4895,43,45,820
959500,3091448,3390268,3095427,3390339,2468,1867,2699,290,2923,-985,-1597,4552,42,34,819
960501,3091616,3390480,3095624,3390536,2481,1935,2702,389,2893,-832,-1625,4389,42,34,819
961502,3091764,3390660,3095821,3390733,2628,2143,2715,374,2841,-740,-900,4020,22,40,818
962503,3091912,3390896,3096018,3390930,2651,1775,2710,339,2771,-583,-380,3985,22,40,818
963504,3092076,3391128,3096215,3391127,2566,1785,2671,234,2717,-459,-170,3703,41,51,819
964505,3092232,3391396,3096412,3391324,2634,1529,2606,164,2710,-290,-343,3800,41,51,819
965506,3092360,3391628,3096609,3391521,2841,1738,2553,80,2705,-160,-211,3572,21,42,820
966507,3092548,3391852,3096806,3391718,2471,1777,2526,-66,2710,-15,-276,3463,21,42,820
967508,3092712,3392064,3097003,3391915,2636,1845,2520,-251,2746,151,-569,3415,30,40,821
968509,3092872,3392312,3097200,3392112,2678,1598,2550,-440,2820,313,-902,3281,30,40,821
969510,3093036,3392588,3097397,3392309,2668,1388,2581,-569,2896,228,-224,3410,27,48,821
970511,3093236,3392848,3097594,3392506,2443,1460,2581,-695,2974,212,28,3419,27,48,821
971512,3093436,3393116,3097791,3392703,2442,1379,2547,-770,3062,284,234,3626,51,59,821
972513,3093628,3393372,3097988,3392900,2496,1428,2519,-766,3148,254,545,3700,51,59,821
973514,3093808,3393548,3098185,3393097,2579,1937,2492,-676,3191,192,805,3976,35,37,822
974515,3093976,3393708,3098382,3393294,2668,2053,2477,-532,3177,-20,790,4143,35,37,822
975516,3094176,3393884,3098579,3393491,2466,1962,2499,-248,3115,-211,606,4447,43,27,822
976517,3094336,3394068,3098776,3393688,2734,1918,2540,86,3037,-232,590,4562,43,27,822
977518,3094492,3394288,3098973,3393885,2778,1682,2594,464,2935,-391,761,4585,32,38,818
978519,3094680,3394520,3099170,3394082,2583,1592,2658,851,2763,-552,820,4639,32,38,818
979520,3094872,3394780,3099367,3394279,2561,1389,2745,1181,2527,-613,827,4514,42,41,819
980521,3095056,3395160,3099564,3394476,2618,559,2822,1506,2299,-577,836,4535,42,41,819
981522,3095220,3395480,3099761,3394673,2758,880,2868,1795,2143,-414,784,4338,29,63,822
982523,3095368,3395760,3099958,3394870,2880,1093,2860,2010,2062,-376,584,4183,29,63,822
983524,3095504,3395984,3100155,3395067,2982,1431,2806,2272,2059,-302,65,4208,25,50,823
984525,3095664,3396248,3100352,3395264,2850,1151,2747,2420,2145,-120,-331,3839,25,50,823
985527,3095800,3396480,3100549,3395461,3027,1336,2731,2543,2280,-111,-239,3839,24,67,820
986527,3095940,3396836,3100746,3395658,3029,491,2793,2595,2403,-190,-62,3396,24,67,820
987528,3096072,3397180,3100943,3395855,3108,501,2882,2536,2441,-305,478,3162,45,78,821
988529,3096204,3397560,3101140,3396052,3138,195,2948,2421,2363,-412,997,2974,45,78,821
989531,3096360,3397988,3101337,3396249,3007,-207,2967,2273,2179,-397,1191,2883,48,60,822
990532,3096564,3398360,3101534,3396446,2705,66,2943,2200,1945,-429,1319,3069,48,60,822
991533,3096752,3398628,3101731,3396643,2810,684,2882,2117,1719,-492,1364,3083,36,69,822
992533,3096936,3398760,3101928,3396840,2841,1563,2770,2194,1518,-332,1345,3406,36,69,822
993534,3097108,3399048,3102125,3397037,2928,548,2600,2289,1365,-250,1586,3465,42,67,826
994536,3097280,3399364,3102322,3397234,2940,319,2360,2390,1200,-178,2068,3553,42,67,826
995536,3097424,3399676,3102519,3397431,3140,294,2043,2503,986,-208,2476,3517,49,62,819
996537,3097564,3399932,3102716,3397628,3190,617,1731,2659,744,-257,2569,3595,49,62,819
997538,3097724,3400144,3102913,3397825,3082,885,1428,2770,480,-279,2559,3558,27,49,823
998539,3097864,3400364,3103110,3398022,3233,825,1096,2883,194,-412,2666,3537,27,49,823
999540,3098008,3400572,3103307,3398219,3232,894,752,2988,-100,-401,2733,3494,43,38,821
1000541,3098164,3400772,3103504,3398416,3176,943,398,2993,-406,-379,2802,3201,43,38,821
1001542,3098284,3400956,3103701,3398613,3436,1048,40,2961,-705,-305,2744,3162,28,36,819
1002543,3098408,3401144,3103898,3398810,3445,1027,-294,2847,-960,-154,2569,2796,28,36,819
1003544,3098548,3401304,3104095,3399007,3371,1217,-624,2642,-1186,-13,2565,2601,34,28,819
1004545,3098676,3401460,3104292,3399204,3477,1260,-964,2355,-1402,154,2641,2390,34,28,819
1005546,3098820,3401584,3104489,3399401,3402,1491,-1319,2053,-1603,428,2575,2385,44,23,817
1006547,3098964,3401724,3104686,3399598,3426,1416,-1681,1784,-1761,640,2618,2512,44,23,817
1007555,3099120,3401844,3104916,3399828,3385,1590,-2022,1591,-1841,821,2593,2807,44,38,815
1008549,3099276,3401992,3105113,3400025,3404,1435,-2322,1525,-1813,1019,2276,3154,44,38,815
1009550,3099460,3402128,3105310,3400222,3235,1537,-2550,1497,-1702,1128,1884,3369,45,35,816
1010551,3099624,3402276,3105507,3400419,3376,1483,-2706,1526,-1613,1110,1593,3447,45,35,816
1011552,3099784,3402400,3105704,3400616,3418,1665,-2807,1423,-1640,887,1542,3133,34,21,816
1012553,3099960,3402516,3105901,3400813,3328,1750,-2892,1257,-1816,603,1773,3068,34,21,816
1013554,3100152,3402636,3106098,3401010,3232,1759,-3004,1082,-2110,370,1653,3144,30,36,816
1014555,3100332,3402748,3106295,3401207,3316,1845,-3139,1066,-2385,186,1151,3729,30,36,816
1015556,3100540,3402892,3106492,3401404,3137,1669,-3269,1268,-2593,-58,851,4336,48,21,815
1016557,3100736,3403032,3106689,3401601,3214,1719,-3380,1646,-2729,-209,321,4948,48,21,815
1017558,3100944,3403180,3106886,3401798,3135,1689,-3481,2196,-2815,-308,-111,5624,32,37,814
1018559,3101140,3403304,3107083,3401995,3211,1871,-3564,2746,-2938,-478,-134,5598,32,37,814
1019561,3101364,3403424,3107280,3402192,3025,1930,-3643,3263,-3155,-770,-130,5564,50,37,816
1020561,3101576,3403572,3107477,3402389,3095,1777,-3697,3631,-3443,-1011,-248,5296,50,37,816
1021562,3101792,3403764,3107674,3402586,3063,1503,-3707,3893,-3719,-1107,-520,5029,49,31,816
1022563,3102008,3403924,3107871,3402783,3056,1719,-3697,4018,-3912,-1098,-809,4742,49,31,816
1023564,3102192,3404076,3108068,3402980,3263,1789,-3720,4092,-3993,-1086,-1097,4720,32,37,817
1024565,3102404,3404196,3108265,3403177,3082,2023,-3779,4080,-3978,-1140,-1244,4625,32,37,817
1025566,3102624,3404296,3108462,3403374,3023,2190,-3822,4005,-3910,-1138,-1379,4412,37,22,817
1026567,3102836,3404476,3108659,3403571,3067,1697,-3819,3842,-3829,-1175,-1598,4293,37,22,817
1027568,3103060,3404628,3108856,3403768,2982,1892,-3784,3658,-3752,-1342,-1798,4353,52,28,815
1028569,3103304,3404796,3109053,3403965,2837,1804,-3700,3402,-3683,-1516,-2056,4219,52,28,815
1029570,3103512,3404924,3109250,3404162,3059,2085,-3577,3085,-3598,-1585,-2394,4298,51,26,816
1030571,3103744,3405088,3109447,3404359,2895,1874,-3452,2850,-3460,-1545,-2692,4620,51,26,816
1031572,3103968,3405216,3109644,3404556,2934,2129,-3337,2573,-3263,-1591,-2821,4608,39,28,819
1032573,3104164,3405396,3109841,3404753,3110,1811,-3235,2364,-3044,-1675,-2823,4952,39,28,819
1033574,3104372,3405524,3110038,3404950,3031,2166,-3134,2099,-2864,-1789,-2394,4884,46,35,818
1034575,3104632,3405656,3110235,3405147,2680,2170,-3040,1924,-2762,-1931,-1811,5391,46,35,818
1035576,3104856,3405768,3110432,3405344,2894,2332,-2953,1778,-2750,-2106,-1488,5446,41,35,817
1036577,3105108,3405916,3110629,3405541,2696,2129,-2860,1641,-2796,-2179,-1721,5792,41,35,817
1037578,3105348,3406028,3110826,3405738,2753,2391,-2767,1627,-2852,-2139,-2015,6413,38,39,818
1038579,3105588,3406188,3111023,3405935,2735,2107,-2263,2032,-2893,-1723,-2085,11250,38,39,818
1039580,3105828,3406336,3111220,3406132,2717,2204,93,4069,-3026,611,-1554,32767,52,25,816
1040581,3106076,3406464,3111417,3406329,2646,2359,2639,6138,-3162,724,-1852,24434,52,25,816
1041582,3106336,3406588,3111614,3406526,2544,2416,3276,6441,-3102,-942,-1446,6361,61,31,817
1042583,3106620,3406724,3111811,3406723,2357,2368,2726,5653,-2983,-890,-796,4773,61,31,817
1043584,3106872,3406840,3112008,3406920,2534,2529,2152,4607,-2945,-817,-241,3885,64,37,817
1044585,3107132,3406964,3112205,3407117,2457,2511,1921,3634,-2973,-769,107,3447,64,37,817
1045586,3107424,3407076,3112402,3407314,2216,2623,1888,2729,-3002,-478,61,3234,64,27,819
1046587,3107700,3407204,3112599,3407511,2282,2553,1842,1904,-2987,-373,-39,3316,64,27,819
1047588,3108012,3407332,3112796,3407708,2008,2584,1726,1100,-2923,-357,-174,3496,58,30,817
1048589,3108312,3407484,3112993,3407905,2039,2454,1578,313,-2837,-223,-251,3483,58,30,817
1049590,3108588,3407640,3113190,3408102,2155,2447,1448,-374,-2751,-154,-317,3739,50,26,817
1050591,3108920,3407776,3113387,3408299,1747,2598,1361,-971,-2692,-294,-272,3862,50,26,817
1051592,3109208,3407936,3113584,3408496,1983,2465,1294,-1486,-2703,-562,-175,4033,54,33,818
1052593,3109548,3408064,3113781,3408693,1595,2695,1255,-1932,-2754,-886,-132,4280,54,33,818
1053594,3109892,3408200,3113978,3408890,1506,2672,1263,-2239,-2802,-1055,-249,4573,58,29,819
1054595,3110212,3408348,3114175,3409087,1603,2619,1315,-2427,-2829,-1242,-529,4745,58,29,819
1055596,3110536,3408508,3114372,3409284,1523,2561,1381,-2556,-2815,-1522,-771,4886,63,29,820
1056597,3110876,3408680,3114569,3409481,1360,2497,1435,-2614,-2759,-1606,-1036,4902,63,29,820
1057598,3111192,3408864,3114766,3409678,1459,2427,1538,-2659,-2655,-1632,-1311,4759,69,47,821
1058599,3111528,3409036,3114963,3409875,1274,2513,1707,-2693,-2495,-1792,-1356,4590,69,47,821
1059600,3111852,3409208,3115160,3410072,1294,2524,1907,-2774,-2313,-1999,-1067,4295,59,45,823
1060601,3112220,3409380,3115357,3410269,944,2535,2136,-2891,-2150,-2151,-941,4219,59,45,823
1061602,3112560,3409528,3115554,3410466,1057,2708,2398,-2921,-1989,-2172,-1200,4195,56,35,821
1062603,3112828,3409712,3115751,3410663,1476,2488,2673,-2934,-1784,-2108,-1570,4145,56,35,821
1063604,3113180,3409908,3115948,3410860,884,2414,2961,-2900,-1511,-2105,-1774,4088,64,49,824
1064605,3113452,3410084,3116145,3411057,1351,2548,3261,-2840,-1205,-2093,-1816,3956,64,49,824
1065606,3113740,3410276,3116342,3411254,1212,2450,3572,-2759,-917,-2020,-1832,3849,50,35,822
1066607,3114068,3410460,3116539,3411451,904,2507,3899,-2665,-666,-2011,-1833,3737,50,35,822
1067608,3114332,3410648,3116736,3411648,1276,2486,4236,-2542,-453,-1996,-1758,3526,64,50,822
1068609,3114600,3410864,3116933,3411845,1220,2303,4581,-2457,-254,-1911,-1731,3321,64,50,822
1069610,3114852,3411076,3117130,3412042,1297,2321,4921,-2364,-71,-1858,-1653,3144,48,36,825
1070611,3115092,3411276,3117327,3412239,1353,2395,5223,-2272,100,-1737,-1687,2979,48,36,825
1071612,3115340,3411468,3117524,3412436,1281,2447,5489,-2155,249,-1660,-1523,2769,55,38,823
1072613,3115640,3411660,3117721,3412633,911,2450,5715,-2049,367,-1534,-1210,2587,55,38,823
1073614,3115872,3411860,3117918,3412830,1321,2399,5881,-1997,466,-1339,-863,2324,40,36,822
1074615,3116100,3412048,3118115,3413027,1333,2478,5959,-1965,536,-1263,-627,2063,40,36,822
1075616,3116384,3412220,3118312,3413224,945,2589,5939,-1995,585,-1097,-569,1770,47,39,825
1076617,3116648,3412452,3118509,3413421,1041,2198,5860,-2077,632,-842,-647,1497,47,39,825
1077618,3116892,3412660,3118706,3413618,1146,2344,5767,-2195,681,-669,-650,1174,60,54,823
1078619,3117144,3412892,3118903,3413815,1071,2179,5658,-2382,728,-497,-607,739,60,54,823
1079620,3117432,3413156,3119100,3414012,808,1950,5527,-2627,773,-358,-572,551,43,46,826
1080621,3117716,3413416,3119297,3414209,794,1947,5371,-2909,825,-195,-407,283,43,46,826
1081622,3117968,3413644,3119494,3414406,970,2133,5208,-3237,882,-52,-291,150,50,56,826
1082623,3118260,3413888,3119691,3414603,679,2013,5021,-3550,949,3,-187,59,50,56,826
1083625,3118536,3414128,3119888,3414800,745,2020,4811,-3809,1046,81,-209,42,58,55,827
1084625,3118772,3414368,3120085,3414997,978,2001,4588,-4037,1186,132,-205,56,58,55,827
1085626,3119100,3414584,3120282,3415194,345,2143,4355,-4249,1359,137,-89,47,49,45,828
1086628,3119344,3414812,3120479,3415391,850,2054,4104,-4404,1544,170,75,45,49,45,828
1087628,3119604,3415032,3120676,3415588,723,2094,3828,-4576,1737,122,245,-55,56,47,827
1088629,3119876,3415240,3120873,3415785,615,2164,3540,-4670,1928,97,338,69,56,47,827
1089630,3120112,3415468,3121070,3415982,822,2025,3235,-4748,2111,33,524,-58,37,47,827
1090638,3120344,3415680,3121300,3416212,847,2133,2924,-4797,2273,38,862,13,37,47,827
1091632,3120600,3415880,3121497,3416409,671,2207,2596,-4839,2415,44,1077,15,56,35,827
1092633,3120792,3416040,3121694,3416606,1074,2474,2270,-4850,2546,82,1145,27,56,35,827
1093634,3121024,3416216,3121891,3416803,809,2383,1924,-4846,2652,186,1347,-22,35,45,826
1094635,3121240,3416392,3122088,3417000,900,2393,1568,-4913,2736,374,1468,-193,35,45,826
1095636,3121456,3416572,3122285,3417197,892,2375,1200,-4949,2827,616,1522,-6,57,44,824
1096637,3121656,3416752,3122482,3417394,990,2383,850,-5020,2961,843,1511,-183,57,44,824
1097638,3121852,3416904,3122679,3417591,1016,2577,502,-5072,3140,1144,1499,45,42,25,825
1098639,3122040,3417040,3122876,3417788,1071,2704,162,-5117,3360,1357,1500,73,42,25,825
1099640,3122180,3417176,3123073,3417985,1396,2731,-165,-5141,3582,1649,1538,101,32,36,825
1100641,3122344,3417300,3123270,3418182,1260,2839,-495,-5186,3770,1845,1634,226,32,36,825
1101642,3122524,3417432,3123467,3418379,1168,2818,-812,-5228,3911,2030,1666,378,44,21,822
1102643,3122696,3417568,3123664,3418576,1229,2819,-1136,-5196,3979,2212,1812,584,44,21,822
1103644,3122844,3417676,3123861,3418773,1400,3034,-1457,-5138,3973,2359,1969,658,39,18,820
1104645,3123020,3417808,3124058,3418970,1236,2912,-1777,-5045,3894,2618,1861,966,39,18,820
1105646,3123172,3417908,3124255,3419167,1405,3155,-2083,-4926,3750,2752,1804,1193,23,13,819
1106647,3123328,3418016,3124452,3419364,1398,3145,-2401,-4750,3547,2871,2023,1451,23,13,819
1107648,3123488,3418120,3124649,3419561,1390,3211,-2763,-4507,3300,2981,2097,1786,22,21,819
1108649,3123656,3418224,3124846,3419758,1353,3252,-3186,-4203,3010,3019,2085,2183,22,21,819
1109650,3123804,3418344,3125043,3419955,1500,3186,-3652,-3758,2710,3269,2054,2741,40,12,818
1110651,3123972,3418468,3125240,3420152,1388,3194,-4143,-3208,2405,3468,2081,3340,40,12,818
1111652,3124124,3418588,3125437,3420349,1508,3252,-4606,-2589,2078,3568,1863,3594,40,19,816
1112653,3124292,3418700,3125634,3420546,1420,3341,-5054,-1886,1709,3854,1890,4263,40,19,816
1113654,3124460,3418816,3125831,3420743,1434,3351,-5494,-1066,1328,4156,1981,4779,28,27,817
1114655,3124648,3418944,3126028,3420940,1313,3307,-5891,-326,971,4318,1762,4472,28,27,817
1115656,3124796,3419072,3126225,3421137,1584,3338,-6207,282,664,4413,1519,4351,45,35,815
1116657,3124992,3419224,3126422,3421334,1286,3208,-6450,801,382,4374,1448,4440,45,35,815
1117658,3125168,3419344,3126619,3421531,1420,3442,-6584,1216,64,4245,1378,4106,28,16,815
1118660,3125356,3419460,3126816,3421728,1349,3503,-6566,1456,-288,4097,1391,3614,28,16,815
1119660,3125532,3419600,3127013,3421925,1433,3378,-6469,1600,-636,3867,1351,3943,28,18,817
1120661,3125716,3419712,3127210,3422122,1390,3592,-6375,1900,-927,3610,1146,4514,28,18,817
1121662,3125908,3419848,3127407,3422319,1342,3468,-6269,2257,-1131,3369,777,4537,45,20,815
1122663,3126100,3419988,3127604,3422516,1344,3469,-6110,2577,-1270,3101,454,4524,45,20,815
1123664,3126288,3420116,3127801,3422713,1373,3575,-5894,2795,-1401,2824,370,4457,40,20,812
1124665,3126484,3420276,3127998,3422910,1325,3392,-5647,2922,-1579,2491,616,4321,40,20,812
1125666,3126652,3420436,3128195,3423107,1513,3408,-5390,2999,-1797,2034,902,4480,29,40,816
1126667,3126856,3420632,3128392,3423304,1285,3185,-5156,3119,-2033,1421,999,4676,29,40,816
1127668,3127040,3420832,3128589,3423501,1416,3158,-4955,3266,-2235,715,553,4908,48,46,815
1128669,3127208,3421060,3128786,3423698,1529,2971,-4756,3451,-2385,41,357,5056,48,46,815
1129670,3127404,3421264,3128983,3423895,1354,3118,-4531,3611,-2466,-569,64,5248,38,34,818
1130671,3127572,3421452,3129180,3424092,1543,3223,-4268,3807,-2462,-1121,-143,5281,38,34,818
1131672,3127756,3421676,3129377,3424289,1449,2986,-3977,4009,-2348,-1622,-502,5518,50,50,818
1132673,3127940,3421920,3129574,3424486,1455,2841,-3667,4230,-2119,-2069,-886,5880,50,50,818
1133674,3128104,3422148,3129771,3424683,1594,2928,-3390,4531,-1765,-2467,-1309,6336,29,50,817
1134675,3128288,3422412,3129968,3424880,1476,2674,-3120,4849,-1324,-2834,-1507,6325,29,50,817
1135676,3128440,3422620,3130165,3425077,1696,3019,-2800,5042,-851,-3282,-1570,5917,26,34,820
1136677,3128596,3422832,3130362,3425274,1689,2989,-2444,5050,-374,-3678,-1597,5838,26,34,820
1137678,3128764,3423036,3130559,3425471,1627,3036,-2119,5018,93,-3918,-1596,5998,45,42,819
1138679,3128920,3423252,3130756,3425668,1720,2952,-1796,4944,553,-4061,-1622,5753,45,42,819
1139680,3129076,3423536,3130953,3425865,1738,2490,-1460,4798,1002,-4124,-1805,5631,43,56,817
1140681,3129208,3423804,3131150,3426062,1918,2559,-1158,4562,1424,-4053,-1998,5682,43,56,817
1141682,3129352,3424036,3131347,3426259,1866,2769,-898,3974,1837,-4289,-2101,4764,29,37,818
1142683,3129504,3424224,3131544,3426456,1837,3048,-659,1652,2201,-4865,-2561,1540,29,37,818
1143684,3129684,3424496,3131741,3426653,1669,2491,-449,-1629,2569,-4931,-3252,1855,30,56,820
1144685,3129828,3424768,3131938,3426850,1918,2458,-343,-3829,3032,-4336,-3541,4923,30,56,820
1145686,3129944,3425084,3132135,3427047,2129,2131,-343,-3548,3529,-3209,-3352,8761,37,45,818
1146687,3130092,3425316,3132332,3427244,1951,2642,-393,-2157,3890,-2822,-2862,9102,37,45,818
1147688,3130196,3425536,3132529,3427441,2268,2707,-351,-1311,4013,-2761,-2344,8112,22,54,820
1148689,3130320,3425772,3132726,3427638,2175,2591,-195,-918,3999,-2605,-1733,8360,22,54,820
1149690,3130444,3426028,3132923,3427835,2207,2440,-11,-760,3927,-1606,-1219,7665,25,44,818
1150691,3130560,3426304,3133120,3428032,2294,2280,113,-404,3833,-961,-1042,7988,25,44,818
1151692,3130720,3426552,3133317,3428229,2035,2433,277,-376,3785,-697,-769,6725,41,40,818
1152693,3130852,3426772,3133514,3428426,2239,2598,493,-560,3732,69,-374,6331,41,40,818
1153694,3131012,3427008,3133711,3428623,2081,2481,730,-792,3664,785,359,5897,33,56,819
1154695,3131152,3427208,3133908,3428820,2232,2706,976,-1089,3569,1110,690,5606,33,56,819
1155696,3131292,3427480,3134105,3429017,2257,2223,1231,-1542,3421,1319,525,5126,22,50,818
1156697,3131428,3427808,3134302,3429214,2309,1815,1509,-2104,3278,1561,417,4861,22,50,818
1157698,3131560,3428048,3134499,3429411,2364,2346,1772,-2493,3155,1968,370,5162,23,45,817
1158699,3131728,3428280,3134696,3429608,2152,2382,2009,-2849,3037,2115,281,4954,23,45,817
1159700,3131876,3428500,3134893,3429805,2299,2447,2226,-3137,2934,1866,333,5438,29,58,821
1160701,3132044,3428800,3135090,3430002,2187,1902,2425,-3304,2802,1817,417,5634,29,58,821
1161702,3132208,3429116,3135287,3430199,2228,1749,2610,-3297,2603,1667,570,6000,48,63,817
1162703,3132384,3429396,3135484,3430396,2162,1939,2782,-3075,2357,1107,584,6486,48,63,817
1163704,3132588,3429672,3135681,3430593,1985,1929,2941,-2781,2073,564,316,6740,50,61,822
1164705,3132772,3429952,3135878,3430790,2116,1868,3100,-2287,1811,106,41,7184,50,61,822
1165706,3132956,3430288,3136075,3430987,2122,1457,3259,-1600,1589,-180,-246,7494,34,65,821
1166707,3133144,3430604,3136272,3431184,2102,1529,3387,-845,1406,-497,-721,7436,34,65,821
1167708,3133324,3430916,3136469,3431381,2160,1504,3502,-213,1288,-904,-1024,7035,41,53,823
1168709,3133500,3431196,3136666,3431578,2195,1667,3638,318,1226,-992,-942,6594,41,53,823
1169710,3133704,3431536,3136863,3431775,2018,1230,3790,746,1182,-1060,-577,6117,53,56,824
1170711,3133932,3431848,3137060,3431972,1854,1355,3939,1132,1152,-1346,-237,5768,53,56,824
1171712,3134132,3432152,3137257,3432169,2029,1358,4073,1415,1146,-1444,-69,5262,43,63,822
1172713,3134344,3432460,3137454,3432366,1947,1284,4188,1646,1190,-1347,-200,5006,43,63,822
1173721,3134560,3432732,3137684,3432596,1929,1491,4276,1905,1307,-1223,-217,4780,39,50,826
1174715,3134748,3433036,3137881,3432793,2109,1244,4317,2083,1458,-1118,-67,4468,39,50,826
1175716,3134972,3433332,3138078,3432990,1872,1249,4318,2197,1622,-965,26,4149,45,50,826
1176717,3135180,3433632,3138275,3433187,1969,1179,4284,2253,1786,-708,110,3870,45,50,826
1177718,3135372,3433896,3138472,3433384,2071,1375,4240,2300,1945,-490,-69,3561,37,63,826
1178719,3135556,3434160,3138669,3433581,2128,1345,4179,2217,2085,-379,-82,3142,37,63,826
1179720,3135784,3434456,3138866,3433778,1839,1102,4112,2106,2196,-139,-122,2883,34,45,826
1180721,3135980,3434724,3139063,3433975,2040,1245,4029,1948,2295,164,-102,2573,34,45,826
1181722,3136168,3434976,3139260,3434172,2095,1321,3937,1765,2381,381,22,2352,36,45,824
1182723,3136384,3435248,3139457,3434369,1912,1163,3839,1483,2429,535,185,2059,36,45,824
1183724,3136584,3435488,3139654,3434566,2012,1343,3739,1126,2416,660,307,1732,48,57,824
1184725,3136752,3435720,3139851,3434763,2224,1378,3639,753,2361,829,-13,1543,48,57,824
1185726,3136956,3435992,3140048,3434960,1997,1095,3525,378,2279,1039,-340,1344,37,40,827
1186727,3137144,3436248,3140245,3435157,2102,1169,3384,-2,2154,1145,-105,1240,37,40,827
1187728,3137328,3436480,3140442,3435354,2133,1304,3210,-351,1959,1231,261,1180,35,39,824
1188729,3137512,3436688,3140639,3435551,2140,1449,3021,-689,1732,1344,174,1240,35,39,824
1189730,3137720,3436924,3140836,3435748,1985,1256,2821,-922,1514,1372,28,1509,33,53,826
1190731,3137940,3437152,3141033,3435945,1901,1292,2601,-1044,1295,1311,-34,1624,33,53,826
1191732,3138128,3437392,3141230,3436142,2106,1198,2344,-1067,1047,1269,34,1787,45,43,825
1192733,3138332,3437640,3141427,3436339,2003,1126,2051,-1032,755,1232,370,1817,45,43,825
1193734,3138500,3437868,3141624,3436536,2241,1236,1736,-1014,414,1185,882,1884,35,44,825
1194735,3138676,3438080,3141821,3436733,2201,1330,1424,-932,37,1068,1201,2027,35,44,825
1195736,3138844,3438272,3142018,3436930,2264,1457,1127,-794,-298,1015,904,2216,42,39,826
1196737,3139012,3438504,3142215,3437127,2278,1191,841,-605,-549,1033,496,2274,42,39,826
1197738,3139196,3438716,3142412,3437324,2184,1309,558,-407,-718,1076,-32,2257,32,41,824
1198739,3139408,3438928,3142609,3437521,2003,1302,275,-234,-828,1172,-564,2047,32,41,824
1199740,3139576,3439156,3142806,3437718,2291,1189,-3,-210,-917,1301,-745,1744,43,34,825
1200741,3139748,3439372,3143003,3437915,2278,1254,-285,-283,-1015,1429,-640,1455,43,34,825
1201742,3139928,3439544,3143200,3438112,2236,1540,-576,-501,-1113,1528,-533,1226,25,36,825
1202743,3140100,3439712,3143397,3438309,2297,1578,-870,-730,-1188,1542,-519,1221,25,36,825
1203744,3140244,3439916,3143594,3438506,2497,1350,-1159,-952,-1225,1570,-396,1238,31,28,823
1204745,3140424,3440128,3143791,3438703,2279,1292,-1457,-1124,-1236,1694,45,1294,31,28,823
1205746,3140600,3440324,3143988,3438900,2314,1393,-1760,-1355,-1212,1952,447,1154,42,42,822
1206747,3140788,3440504,3144185,3439097,2244,1500,-2063,-1630,-1134,2246,586,1086,42,42,822
1207748,3140976,3440652,3144382,3439294,2248,1722,-2353,-1986,-1014,2391,615,1161,43,25,824
1208749,3141148,3440788,3144579,3439491,2360,1823,-2636,-2296,-882,2521,994,1362,43,25,824
1209750,3141332,3440928,3144776,3439688,2292,1823,-2980,-2434,-769,2742,1170,2178,43,21,823
1210751,3141520,3441076,3144973,3439885,2271,1794,-3375,-2390,-665,2870,1025,2661,43,21,823
1211752,3141716,3441216,3145170,3440082,2222,1869,-3774,-2201,-575,2896,1224,3219,30,38,821
1212753,3141916,3441364,3145367,3440279,2197,1840,-4169,-1943,-522,3011,1539,3582,30,38,821
1213754,3142200,3441516,3145564,3440476,1634,1834,-4513,-1828,-515,2959,1700,3075,53,30,822
1214756,3142408,3441692,3145761,3440673,2105,1694,-4816,-1798,-565,2899,1575,3118,53,30,822
1215756,3142620,3441836,3145958,3440870,2074,1917,-5100,-1698,-645,2909,1151,3439,34,38,821
1216757,3142836,3442016,3146155,3441067,2041,1699,-5378,-1534,-710,2866,368,3604,34,38,821
1217758,3143080,3442156,3146352,3441264,1846,1974,-5632,-1267,-752,2868,-190,4052,35,32,823
1218759,3143336,3442308,3146549,3441461,1746,1918,-5859,-969,-796,2866,-455,4220,35,32,823
1219760,3143584,3442408,3146746,3441658,1774,2286,-6044,-647,-858,2965,-528,4399,56,35,823
1220761,3143844,3442516,3146943,3441855,1672,2275,-6152,-362,-925,3015,-597,4400,56,35,823
1221762,3144092,3442644,3147140,3442052,1725,2180,-6195,-129,-1001,3004,-950,4344,56,26,824
1222763,3144340,3442816,3147337,3442249,1704,1916,-6205,121,-1102,2929,-1270,4468,56,26,824
1223764,3144656,3442972,3147534,3442446,1226,2034,-6159,359,-1247,2775,-1212,4459,45,36,822
1224765,3144912,3443116,3147731,3442643,1576,2132,-6067,591,-1439,2670,-1225,4660,45,36,822
1225766,3145160,3443244,3147928,3442840,1605,2262,-5928,839,-1646,2550,-1456,4610,44,35,822
1226767,3145448,3443376,3148125,3443037,1315,2266,-5747,977,-1829,2483,-1765,4454,44,35,822
1227768,3145648,3443552,3148322,3443234,1865,2000,-5504,1029,-1982,2513,-1877,4298,46,19,822
1228769,3145876,3443692,3148519,3443431,1676,2250,-5210,1064,-2115,2384,-1739,4328,46,19,822
1229770,3146128,3443856,3148716,3443628,1503,2114,-4873,1167,-2240,2203,-1605,4390,45,25,824
1230771,3146308,3443964,3148913,3443825,1960,2503,-4523,1240,-2332,1969,-1565,4527,45,25,824
1231772,3146496,3444084,3149110,3444022,1915,2462,-4172,1360,-2362,1781,-1555,4802,52,24,822
1232773,3146736,3444268,3149307,3444219,1571,2068,-3863,1501,-2355,1485,-991,4955,52,24,822
1233774,3146948,3444516,3149504,3444416,1741,1646,-3587,1723,-2335,1234,-266,5178,45,29,820
1234775,3147140,3444704,3149701,3444613,1868,2025,-3306,1969,-2291,1032,-228,5362,45,29,820
1235776,3147380,3444884,3149898,3444810,1550,2082,-3024,2277,-2223,900,-325,5619,52,41,824
1236777,3147604,3445040,3150095,3445007,1638,2250,-2738,2615,-2159,734,-502,5606,52,41,824
1237778,3147792,3445180,3150292,3445204,1867,2375,-2439,2869,-2101,669,-1259,5429,33,25,821
1238779,3148024,3445360,3150489,3445401,1578,2133,-2163,3074,-2036,631,-1833,5389,33,25,821
1239780,3148232,3445544,3150686,3445598,1723,2113,-1906,3223,-1954,556,-2294,5276,49,39,823
1240781,3148396,3445740,3150883,3445795,2013,2039,-1676,3351,-1871,445,-2196,5141,49,39,823
1241782,3148568,3445916,3151080,3445992,1974,2173,-1452,3425,-1796,307,-1792,5003,28,38,824
1242783,3148788,3446076,3151277,3446189,1665,2289,-1238,3517,-1690,140,-1498,5032,28,38,824
1243784,3148964,3446240,3151474,3446386,1950,2279,-1057,3577,-1558,13,-1068,4991,43,44,821
1244785,3149140,3446424,3151671,3446583,1960,2159,-893,3598,-1404,-44,-806,4936,43,44,821
1245786,3149360,3446588,3151868,3446780,1675,2299,-747,3620,-1236,-25,-889,4997,38,25,822
1246787,3149524,3446720,3152065,3446977,2040,2527,-610,3620,-1061,-9,-1092,4872,38,25,822
1247789,3149700,3446928,3152262,3447174,1974,2048,-461,3564,-857,69,-1697,4790,29,31,820
1248789,3149904,3447088,3152459,3447371,1797,2364,-283,3424,-626,78,-2261,4483,29,31,820
1249790,3150104,3447268,3152656,3447568,1821,2246,-102,3248,-394,93,-2543,4440,36,34,819
1250791,3150284,3447460,3152853,3447765,1954,2174,55,3050,-166,221,-2840,4381,36,34,819
1251792,3150492,3447664,3153050,3447962,1775,2095,202,2828,64,355,-3024,4308,26,35,821
1252793,3150688,3447836,3153247,3448159,1851,2306,346,2622,295,370,-2890,4386,26,35,821
1253794,3150876,3448040,3153444,3448356,1905,2104,473,2435,498,370,-2521,4479,44,45,821
1254795,3151072,3448204,3153641,3448553,1856,2369,543,2273,649,394,-1582,4443,44,45,821
1255796,3151280,3448444,3153838,3448750,1777,1875,572,2068,755,633,-757,4271,39,44,822
1256806,3151444,3448688,3154068,3448980,2082,1844,581,1796,823,912,-354,4185,39,44,822
1257798,3151664,3448916,3154265,3449177,1722,1930,574,1522,874,1108,-247,4281,40,39,821
1258799,3151852,3449104,3154462,3449374,1926,2184,552,1245,906,1237,-332,4265,40,39,821
1259800,3152044,3449300,3154659,3449571,1904,2135,523,998,915,1379,-335,4256,49,48,822
1260801,3152260,3449496,3154856,3449768,1746,2135,488,780,922,1414,-290,4294,49,48,822
1261802,3152464,3449684,3155053,3449965,1818,2189,452,669,919,1212,-446,4514,32,35,822
1262803,3152656,3449888,3155250,3450162,1896,2086,439,586,890,849,-724,4657,32,35,822
1263805,3152820,3450076,3155447,3450359,2086,2190,447,568,832,581,-1116,4900,48,38,823
1264806,3153040,3450284,3155644,3450556,1727,2060,492,561,744,631,-1401,4826,48,38,823
1265806,3153204,3450484,3155841,3450753,2091,2109,578,512,641,765,-1138,4570,27,35,822
1266807,3153360,3450688,3156038,3450950,2160,2081,694,360,543,841,-1067,4308,27,35,822
1267808,3153560,3450880,3156235,3451147,1884,2158,827,172,483,778,-1284,4288,28,46,823
1268809,3153728,3451056,3156432,3451344,2098,2267,957,141,458,489,-1131,4603,28,46,823
1269810,3153868,3451244,3156629,3451541,2298,2196,1077,121,460,179,-942,4497,31,45,820
1270811,3154044,3451408,3156826,3451738,2083,2361,1177,16,478,131,-905,4364,31,45,820
1271812,3154196,3451620,3157023,3451935,2253,2054,1254,-112,517,104,-700,4261,44,42,819
1272813,3154328,3451812,3157220,3452132,2407,2182,1305,-197,602,-24,-551,4335,44,42,819
1273814,3154516,3452008,3157417,3452329,2061,2158,1335,-299,705,-159,-417,4227,36,34,819
1274815,3154672,3452180,3157614,3452526,2280,2319,1344,-399,805,-280,-489,4376,36,34,819
1275816,3154792,3452332,3157811,3452723,2539,2463,1340,-406,899,-280,-516,4550,22,39,819
1276817,3154976,3452512,3158008,3452920,2146,2296,1328,-375,981,-274,-948,4510,22,39,819
1277818,3155104,3452708,3158205,3453117,2527,2196,1315,-337,1089,-425,-1278,4574,37,31,819
1278819,3155212,3452900,3158402,3453314,2691,2223,1313,-322,1224,-613,-907,4459,37,31,819
1279820,3155364,3453080,3158599,3453511,2437,2306,1282,-286,1373,-571,-1016,4500,24,33,818
1280821,3155528,3453268,3158796,3453708,2377,2260,1240,-238,1576,-634,-1372,4445,24,33,818
1281822,3155660,3453448,3158993,3453905,2606,2317,1205,-231,1808,-659,-1518,4394,26,31,815
1282823,3155784,3453676,3159190,3454102,2689,2004,1166,-228,2050,-684,-1623,4394,26,31,815
1283824,3155964,3453884,3159387,3454299,2347,2124,1140,-200,2277,-747,-1385,4485,37,47,818
1284825,3156100,3454080,3159584,3454496,2650,2199,1127,-89,2426,-701,-985,4604,37,47,818
1285826,3156260,3454316,3159781,3454693,2517,1932,1154,-38,2502,-727,-743,4471,36,49,817
1286827,3156412,3454516,3159978,3454890,2587,2157,1226,36,2529,-687,-488,4522,36,49,817
1287828,3156588,3454736,3160175,3455087,2447,2022,1313,156,2526,-593,-508,4579,29,43,818
1288829,3156724,3454956,3160372,3455284,2725,2012,1390,269,2520,-535,-593,4607,29,43,818
1289830,3156872,3455164,3160569,3455481,2671,2082,1445,379,2496,-416,-666,4608,30,47,818
1290831,3157060,3455376,3160766,3455678,2426,2050,1495,430,2447,-353,-611,4459,30,47,818
1291832,3157208,3455604,3160963,3455875,2699,1937,1540,503,2384,-265,-540,4557,27,35,817
1292833,3157364,3455820,3161160,3456072,2667,2003,1571,499,2313,-247,-461,4260,27,35,817
1293834,3157524,3456040,3161357,3456269,2659,1968,1584,474,2276,-174,-460,4325,19,53,818
1294835,3157700,3456248,3161554,3456466,2569,2038,1593,351,2268,-42,-445,4009,19,53,818
1295836,3157832,3456464,3161751,3456663,2874,1980,1584,182,2275,9,-346,3874,39,51,818
1296837,3157984,3456720,3161948,3456860,2768,1704,1578,-28,2308,-51,-218,3670,39,51,818
1297838,3158152,3456980,3162145,3457057,2682,1651,1574,-316,2357,4,-45,3493,27,43,819
1298839,3158348,3457208,3162342,3457254,2509,1838,1573,-556,2415,36,42,3682,27,43,819
1299840,3158500,3457464,3162539,3457451,2804,1637,1589,-776,2484,41,-14,3612,48,52,819
1300841,3158708,3457708,3162736,3457648,2450,1691,1610,-879,2547,33,-28,4023,48,52,819
1301842,3158876,3457948,3162933,3457845,2713,1697,1656,-974,2603,-43,-132,4073,42,47,820
1302843,3159064,3458188,3163130,3458042,2593,1678,1708,-988,2662,-54,103,4335,42,47,820
1303844,3159268,3458440,3163327,3458239,2491,1579,1727,-940,2763,-69,274,4461,30,42,820
1304845,3159468,3458800,3163524,3458436,2515,833,1722,-816,2905,-169,447,4690,30,42,820
1305846,3159632,3458988,3163721,3458633,2755,1911,1717,-632,3046,-295,634,4768,39,39,821
1306847,3159832,3459148,3163918,3458830,2530,2103,1727,-402,3141,-475,804,4870,39,39,821
1307848,3159988,3459296,3164115,3459027,2824,2199,1770,-167,3185,-591,555,4812,30,33,824
1308849,3160212,3459456,3164312,3459224,2388,2141,1875,22,3195,-615,224,4801,30,33,824
1309850,3160408,3459672,3164509,3459421,2564,1782,1977,292,3197,-723,487,5003,47,30,818
1310851,3160612,3459872,3164706,3459618,2512,1881,2057,577,3162,-807,837,4905,47,30,818
1311852,3160772,3460136,3164903,3459815,2804,1451,2142,854,3078,-801,913,4936,25,38,819
1312853,3160928,3460416,3165100,3460012,2848,1315,2266,1096,2982,-713,909,4837,25,38,819
1313854,3161064,3460764,3165297,3460209,3000,823,2388,1325,2910,-549,936,4865,22,51,818
1314855,3161232,3461064,3165494,3460406,2813,1077,2465,1555,2891,-397,1030,4870,22,51,818
1315856,3161380,3461308,3165691,3460603,2961,1407,2509,1782,2880,-314,1002,4851,35,52,819
1316857,3161508,3461544,3165888,3460800,3117,1440,2546,2086,2834,-344,732,4992,35,52,819
1317858,3161652,3461816,3166085,3460997,3042,1182,2610,2309,2795,-257,203,4717,42,57,821
1318859,3161780,3462176,3166282,3461194,3173,560,2692,2502,2765,-194,256,4594,42,57,821
1319860,3161956,3462504,3166479,3461391,2882,702,2763,2635,2706,-247,604,4328,28,59,818
1320861,3162172,3462848,3166676,3461588,2625,537,2811,2683,2594,-261,747,4039,28,59,818
1321862,3162360,3463136,3166873,3461785,2805,847,2846,2577,2430,-228,756,3699,52,65,821
1322863,3162516,3463468,3167070,3461982,3024,512,2871,2445,2222,-127,893,3580,52,65,821
1323864,3162708,3463792,3167267,3462179,2802,507,2835,2314,1996,28,954,3492,52,53,824
1324865,3162868,3464096,3167464,3462376,3019,584,2759,2192,1749,74,1362,3417,52,53,824
1325866,3163044,3464336,3167661,3462573,2929,965,2657,2135,1473,60,1666,3619,31,54,821
1326867,3163196,3464648,3167858,3462770,3100,464,2536,2196,1203,53,1774,3800,31,54,821
1327868,3163360,3464932,3168055,3462967,3040,600,2376,2295,948,19,1910,3938,31,63,822
1328869,3163484,3465216,3168252,3463164,3323,562,2171,2389,716,60,1877,3899,31,63,822
1329870,3163660,3465444,3168449,3463361,3008,898,1965,2447,502,52,1888,3840,29,58,821
1330871,3163796,3465632,3168646,3463558,3286,1151,1754,2508,260,8,2136,3793,29,58,821
1331872,3163920,3465824,3168843,3463755,3394,1128,1503,2505,-43,-42,2583,3532,22,36,819
1332873,3164052,3466016,3169040,3463952,3373,1129,1181,2481,-415,-197,3095,3427,22,36,819
1333874,3164188,3466220,3169237,3464149,3376,1051,800,2441,-847,-264,3615,3339,39,39,818
1334875,3164336,3466388,3169434,3464346,3324,1289,383,2375,-1288,-255,3789,3350,39,39,818
1335876,3164492,3466556,3169631,3464543,3293,1301,4,2385,-1636,-138,3293,3525,31,28,816
1336877,3164656,3466728,3169828,3464740,3258,1287,-295,2453,-1852,13,2488,3532,31,28,816
1337878,3164808,3466916,3170025,3464937,3354,1190,-564,2525,-1958,140,2116,3509,45,44,816
1338879,3164976,3467044,3170222,3465134,3268,1595,-849,2467,-2039,203,2291,3042,45,44,816
1339887,3165152,3467196,3170452,3465364,3243,1479,-1132,2289,-2144,266,2246,2712,40,26,818
1340881,3165324,3467336,3170649,3465561,3280,1578,-1372,1961,-2268,185,2019,2427,40,26,818
1341882,3165484,3467540,3170846,3465758,3372,1175,-1574,1638,-2379,268,2014,2506,35,42,816
1342883,3165688,3467712,3171043,3465955,3095,1386,-1735,1446,-2407,433,1667,2758,35,42,816
1343884,3165860,3467884,3171240,3466152,3307,1396,-1879,1405,-2342,605,1743,3162,28,43,816
1344885,3166064,3468024,3171437,3466349,3105,1621,-1995,1453,-2252,713,1859,3403,28,43,816
1345886,3166280,3468152,3171634,3466546,3022,1727,-2071,1583,-2182,632,1808,3564,33,31,818
1346887,3166476,3468324,3171831,3466743,3149,1462,-2123,1689,-2170,593,1751,3639,33,31,818
1347888,3166668,3468468,3172028,3466940,3177,1660,-2180,1780,-2231,533,1693,3585,43,31,816
1348889,3166912,3468644,3172225,3467137,2832,1469,-2247,1952,-2340,442,1230,3887,43,31,816
