"Data file recorded 2014/9/22  15:57:26"
"%  Right Stride Frequency         = 3.0"
"%  Left Stride Frequency         = 3.0"
"%  Phase (Fractional)         = 32768.0"
"%  Experiment.py "
"%  Motor Gains    = [1800, 200, 100, 0, 0, 1800, 200, 100, 0, 0]
"% Columns: "
"% time | Right Leg Pos | Left Leg Pos | Commanded Right Leg Pos | Commanded Left Leg Pos | DCR | DCL | GyroX | GryoY | GryoZ | AX | AY | AZ | RBEMF | LBEMF | VBatt "
11936,1737008,1899880,1752912,1916752,3800,3800,-24,184,-233,-206,-104,4072,10,3,845
12930,1736988,1899932,1753109,1916949,3800,3800,-26,182,-231,-207,-103,4096,4,-3,845
13931,1737068,1899936,1753306,1917146,3800,3800,-23,180,-234,-213,-123,4053,4,-3,845
14932,1737176,1899948,1753503,1917343,3800,3800,-25,167,-234,-225,-147,4117,21,23,805
15933,1737324,1900004,1753700,1917540,3800,3800,-25,165,-250,-282,5,4102,21,23,805
16934,1737576,1900100,1753897,1917737,3800,3800,-18,204,-298,-358,249,4157,56,16,807
17935,1737860,1900240,1754094,1917934,3800,3800,-14,223,-365,-474,468,4150,56,16,807
18936,1738116,1900376,1754291,1918131,3800,3800,-6,224,-417,-490,385,4126,69,23,807
19937,1738424,1900512,1754488,1918328,3800,3800,-7,230,-460,-550,337,4209,69,23,807
20938,1738832,1900640,1754685,1918525,3800,3800,6,267,-507,-736,325,4192,63,38,809
21939,1739244,1900784,1754882,1918722,3800,3800,26,251,-589,-873,290,4110,63,38,809
22940,1739644,1900948,1755079,1918919,3800,3800,82,251,-702,-1001,290,4039,83,40,808
23941,1740152,1901144,1755276,1919116,3800,3800,145,222,-845,-1157,359,4008,83,40,808
24942,1740680,1901340,1755473,1919313,3800,3800,208,169,-995,-1194,10,3919,88,47,809
25943,1741232,1901496,1755670,1919510,3800,3800,248,24,-1143,-1195,-205,3770,88,47,809
26932,1741924,1901644,1755867,1919707,3078,3800,263,-123,-1281,-1149,-402,3785,105,41,809
27933,1742560,1901780,1756064,1919904,3237,3800,262,-286,-1390,-1101,-875,3686,105,41,809
28934,1743228,1901952,1756261,1920101,2833,3800,235,-519,-1466,-1123,-1201,3561,130,43,813
29935,1743960,1902120,1756458,1920298,2200,3800,217,-775,-1506,-1099,-1317,3434,130,43,813
30936,1744744,1902260,1756655,1920495,1620,3800,198,-1049,-1468,-1152,-1464,3316,140,45,815
31937,1745456,1902424,1756852,1920692,1846,3800,218,-1321,-1358,-1302,-1487,3266,140,45,815
32937,1746180,1902568,1757049,1920889,1541,3800,276,-1736,-1202,-1419,-1315,2933,142,46,820
33938,1746936,1902740,1757246,1921086,1097,3800,379,-2104,-1007,-1521,-1180,3119,142,46,820
34940,1747648,1902912,1757443,1921283,1148,3800,493,-2511,-812,-1609,-919,2912,137,32,820
35941,1748268,1903092,1757640,1921480,1539,3800,645,-2794,-628,-1979,-518,3341,137,32,820
36942,1748976,1903256,1757837,1921677,766,3800,837,-2965,-445,-2319,-471,3699,136,45,820
37943,1749608,1903416,1758034,1921874,1052,3800,1088,-3094,-254,-2557,-963,3795,136,45,820
38944,1750204,1903612,1758231,1922071,1103,3800,1299,-3029,26,-3013,-1789,4689,113,52,823
39945,1750808,1903828,1758428,1922268,876,3800,1484,-2846,412,-3461,-2179,4811,113,52,823
40945,1751332,1904036,1758625,1922465,1233,3800,1626,-2663,870,-3567,-2300,4988,122,39,821
41947,1751820,1904212,1758822,1922662,1333,3800,1787,-2538,1390,-3561,-1934,4688,122,39,821
42948,1752264,1904392,1759019,1922859,1500,3800,1921,-2387,1979,-3657,-1883,4993,102,50,821
43948,1752676,1904568,1759216,1923056,1607,3800,2069,-2353,2618,-3976,-1749,4481,102,50,821
44950,1753044,1904720,1759413,1923253,1807,3800,2216,-2419,3284,-4202,-1577,4666,91,35,820
45951,1753428,1904896,1759610,1923450,1627,3800,2340,-2519,3917,-3808,-1295,4477,91,35,820
46952,1753728,1905068,1759807,1923647,2108,3800,2483,-2658,4470,-3088,-986,4150,66,31,816
47953,1753948,1905200,1760004,1923844,2599,3800,2569,-2955,4921,-2294,-496,3876,66,31,816
48953,1754136,1905388,1760201,1924041,2804,3800,2640,-3410,5237,-1445,-78,3285,53,31,815
49954,1754316,1905552,1760398,1924238,2862,3800,2634,-4086,5442,-393,196,2838,53,31,815
50956,1754460,1905676,1760595,1924435,3112,3800,2580,-4850,5549,601,196,2606,27,37,812
51957,1754584,1905812,1760792,1924632,3271,3800,2442,-5670,5536,1438,538,2407,27,37,812
52957,1754792,1905924,1760989,1924829,2742,3800,2245,-6447,5392,2207,961,2643,25,22,810
53959,1754924,1906008,1761186,1925026,3246,3800,1972,-7031,5170,2696,922,3279,25,22,810
54960,1755044,1906132,1761383,1925223,3356,3800,1666,-7365,4912,2763,955,3994,24,26,811
55961,1755184,1906176,1761580,1925420,3257,3800,1269,-7338,4508,2596,1882,5320,24,26,811
56962,1755272,1906224,1761777,1925617,3632,3800,677,-6954,3870,2864,2967,6459,19,11,807
57975,1755340,1906304,1761974,1925814,3800,3800,19,-6289,3120,3495,3041,7071,19,11,807
58964,1755476,1906396,1762171,1926011,3418,3800,-623,-5653,2352,4046,3240,6870,33,10,803
59965,1755564,1906456,1762368,1926208,3767,3800,-1204,-5150,1559,4094,3473,6696,33,10,803
60965,1755668,1906496,1762565,1926405,3709,3800,-1743,-4668,747,4117,3882,6752,40,16,805
61966,1755840,1906496,1762762,1926602,3296,3800,-2215,-4244,-27,4295,3880,6393,40,16,805
62968,1756028,1906560,1762959,1926799,3201,3800,-2590,-3859,-673,4369,3506,6254,47,26,804
63968,1756200,1906632,1763156,1926996,3314,3800,-2822,-3549,-1133,4101,2699,6052,47,26,804
64969,1756412,1906700,1763353,1927193,3059,3800,-2929,-3258,-1429,3464,2029,6029,34,21,808
65970,1756584,1906804,1763550,1927390,3321,3800,-2933,-2858,-1639,2654,1447,6468,34,21,808
66972,1756736,1906884,1763747,1927587,3468,3800,-2850,-2396,-1805,2167,883,6283,26,16,809
67972,1756896,1906928,1763944,1927784,3435,3800,-2707,-2120,-1935,2014,794,5680,26,16,809
68973,1757104,1907004,1764141,1927981,3131,3800,-2541,-1931,-2032,1876,636,5498,31,35,806
69974,1757324,1907136,1764338,1928178,3048,3800,-2343,-1751,-2074,1486,251,5482,31,35,806
70976,1757568,1907240,1764535,1928375,2878,3800,-2085,-1468,-2036,616,-214,5720,64,32,808
71976,1757816,1907376,1764732,1928572,2832,3800,-1752,-1124,-1945,-485,-509,5991,64,32,808
72977,1758068,1907532,1764929,1928769,2785,3800,-1352,-567,-1827,-1378,-739,6434,62,34,812
73978,1758312,1907704,1765126,1928966,2815,3800,-911,14,-1687,-1624,-964,6337,62,34,812
74980,1758572,1907812,1765323,1929163,2688,3800,-504,601,-1502,-1506,-1542,6358,60,33,811
75980,1758844,1907980,1765520,1929360,2582,3800,-158,1151,-1270,-1403,-1951,6064,60,33,811
76982,1759084,1908140,1765717,1929557,2764,3800,159,1635,-997,-1741,-2203,6048,50,22,813
77982,1759320,1908300,1765914,1929754,2773,3800,456,2239,-689,-2449,-2426,6504,50,22,813
78984,1759548,1908500,1766111,1929951,2811,3800,774,2689,-415,-2701,-2105,5687,45,39,812
79984,1759772,1908612,1766308,1930148,2826,3800,1082,2937,-218,-2055,-1727,4993,45,39,812
80986,1760048,1908760,1766505,1930345,2467,3800,1378,2930,-79,-1106,-1409,3996,41,36,810
81986,1760300,1908928,1766702,1930542,2594,3800,1640,2815,55,-776,-1442,3803,41,36,810
82987,1760556,1909108,1766899,1930739,2544,3800,1890,2651,250,-1220,-1663,3856,60,29,814
83988,1760828,1909288,1767096,1930936,2412,3800,2098,2509,501,-1275,-1709,3911,60,29,814
84989,1761080,1909528,1767293,1931133,2515,3800,2219,2342,726,-447,-1234,3584,47,43,814
85990,1761352,1909692,1767490,1931330,2358,3800,2259,2058,866,633,-745,2874,47,43,814
86992,1761656,1909852,1767687,1931527,2112,3800,2277,1555,938,1046,-803,2444,51,28,814
87993,1761912,1910028,1767884,1931724,2387,3800,2294,1057,986,543,-1103,2905,51,28,814
88994,1762184,1910192,1768081,1931921,2255,3800,2323,653,1003,134,-841,3040,49,27,815
89994,1762428,1910384,1768278,1932118,2410,3800,2343,184,944,617,-86,2573,49,27,815
90996,1762632,1910552,1768475,1932315,2659,3800,2328,-306,839,1493,363,2494,41,32,814
91997,1762908,1910684,1768672,1932512,2176,3800,2267,-730,769,1650,7,2632,41,32,814
92998,1763164,1910832,1768869,1932709,2276,3800,2176,-997,746,1131,-483,3311,45,36,811
94005,1763396,1910980,1769296,1933136,2512,3800,2070,-1093,729,590,-471,3813,45,36,811
95000,1763636,1911148,1769493,1933333,2444,3800,1922,-1155,687,757,-373,3807,40,32,814
96000,1763868,1911324,1769690,1933530,2480,3800,1734,-1288,605,1186,-495,3391,40,32,814
97002,1764140,1911480,1769887,1933727,2198,3800,1532,-1525,506,1219,-228,3056,57,35,812
98002,1764476,1911636,1770084,1933924,1738,3800,1356,-1777,417,945,189,3222,57,35,812
99004,1764792,1911792,1770281,1934121,1812,3800,1195,-1842,381,671,82,3849,62,31,815
100005,1765084,1911980,1770478,1934318,1921,3800,1057,-1706,404,655,88,4155,62,31,815
101006,1765376,1912156,1770675,1934515,1880,3800,923,-1517,445,892,297,4038,54,35,817
102006,1765688,1912340,1770872,1934712,1706,3800,824,-1407,473,1045,393,3936,54,35,817
103008,1766040,1912512,1771069,1934909,1389,3800,765,-1271,472,931,460,4010,76,31,815
104009,1766344,1912700,1771266,1935106,1642,3800,739,-1100,446,617,267,4121,76,31,815
105009,1766652,1912876,1771463,1935303,1570,3800,732,-877,408,207,34,4206,72,35,818
106010,1766996,1913092,1771660,1935500,1281,3800,720,-687,340,125,-130,4130,72,35,818
107011,1767292,1913316,1771857,1935697,1539,3800,703,-491,270,260,-416,3997,75,44,818
108012,1767556,1913544,1772054,1935894,1710,3800,666,-391,224,349,-442,3685,75,44,818
109013,1767828,1913808,1772251,1936091,1628,3800,620,-350,226,482,-525,3489,50,42,819
110014,1768076,1914052,1772448,1936288,1757,3800,556,-354,314,662,-481,3534,50,42,819
111015,1768324,1914312,1772645,1936485,1735,3800,487,-285,495,827,-71,3516,65,60,819
112016,1768616,1914648,1772842,1936682,1419,3800,383,-226,718,901,597,3306,65,60,819
113017,1768904,1914936,1773039,1936879,1405,3800,273,-242,969,1029,758,3149,58,66,818
114018,1769176,1915252,1773236,1937076,1473,3800,163,-295,1231,1127,867,3045,58,66,818
115019,1769476,1915552,1773433,1937273,1253,3800,118,-364,1487,955,639,2885,58,59,819
116020,1769740,1915852,1773630,1937470,1449,3800,133,-438,1689,635,772,2854,58,59,819
117021,1770004,1916260,1773827,1937667,1421,3800,200,-541,1788,328,1097,2705,68,70,821
118022,1770332,1916640,1774024,1937864,964,3800,262,-598,1776,148,1264,2843,68,70,821
119023,1770580,1916984,1774221,1938061,1443,3800,309,-562,1703,8,1287,3056,49,81,821
120025,1770840,1917428,1774418,1938258,1340,3800,359,-400,1625,-78,1266,3350,49,81,821
121025,1771088,1917868,1774615,1938455,1393,3800,411,-177,1611,-10,1119,3637,54,87,822
122026,1771328,1918268,1774812,1938652,1426,3800,460,103,1654,210,1013,3759,54,87,822
123028,1771548,1918788,1775009,1938849,1540,3800,505,523,1716,307,801,3965,41,85,822
124029,1771740,1919264,1775206,1939046,1719,3800,554,893,1803,263,599,3667,41,85,822
125030,1771956,1919720,1775403,1939243,1561,3800,602,1205,1867,273,719,3638,39,105,820
126030,1772168,1920240,1775600,1939440,1580,3800,632,1427,1887,331,979,3246,39,105,820
127031,1772404,1920792,1775797,1939637,1414,3800,671,1490,1845,426,1428,2723,54,103,822
128032,1772688,1921388,1775994,1939834,1076,3800,694,1437,1759,343,1597,2446,54,103,822
129033,1772928,1922040,1776191,1940031,1332,3800,711,1375,1681,230,1590,2343,45,111,823
130034,1773148,1922640,1776388,1940228,1448,3800,706,1310,1605,357,1566,2184,45,111,823
131035,1773432,1923356,1776585,1940425,1010,3800,697,1212,1532,489,1162,2105,49,116,824
132037,1773700,1924040,1776782,1940622,1080,3800,685,1223,1493,647,390,2265,49,116,824
133025,1773964,1924856,1776979,1940819,1076,3606,682,1118,1465,556,863,1867,44,147,825
134026,1774236,1925684,1777176,1941016,993,3257,681,988,1438,638,618,1920,44,147,825
135027,1774456,1926512,1777373,1941213,1309,2983,690,846,1426,813,375,1743,63,148,826
136028,1774708,1927344,1777570,1941410,1085,2682,710,658,1435,1009,-86,1573,63,148,826
137029,1774900,1928168,1777767,1941607,1463,2458,732,473,1475,1082,-670,1464,46,155,829
138030,1775112,1928960,1777964,1941804,1332,2400,758,312,1532,1077,-734,1440,46,155,829
139031,1775268,1929816,1778161,1942001,1701,1712,763,149,1607,1241,-686,1394,56,142,832
140032,1775452,1930648,1778358,1942198,1533,1586,774,-11,1685,1317,-479,1369,56,142,832
141033,1775636,1931416,1778555,1942395,1538,1737,768,-51,1751,1294,-194,1600,38,157,833
142034,1775796,1932176,1778752,1942592,1706,1542,754,-109,1785,1251,90,1333,38,157,833
143035,1775988,1932944,1778949,1942789,1508,1243,708,-21,1766,1247,-1,1761,52,151,833
144036,1776144,1933672,1779146,1942986,1752,1262,669,157,1726,1159,-203,1780,52,151,833
145037,1776308,1934376,1779343,1943183,1716,1191,596,489,1690,1321,-207,2441,36,125,835
146038,1776460,1935028,1779540,1943380,1812,1317,420,1143,1668,1560,42,3495,36,125,835
147039,1776628,1935656,1779737,1943577,1726,1279,228,1865,1658,1567,-525,3132,45,115,833
148040,1776768,1936240,1779934,1943774,1926,1385,72,2416,1654,1654,-925,2637,45,115,833
149041,1776916,1936688,1780131,1943971,1898,2127,-116,2981,1688,1993,-1174,3144,24,116,833
150041,1777112,1937236,1780328,1944168,1599,1349,-267,3341,1713,1776,-1351,1820,24,116,833
151042,1777268,1937704,1780525,1944365,1868,1732,-294,3310,1629,1504,-969,665,46,95,830
152043,1777448,1938132,1780722,1944562,1726,1881,-242,3008,1453,1580,-755,143,46,95,830
153045,1777648,1938564,1780919,1944759,1600,1754,-216,2679,1234,1785,-285,26,41,74,831
154046,1777844,1938952,1781116,1944956,1626,1946,-260,2379,962,1788,467,-71,41,74,831
155047,1778032,1939284,1781313,1945153,1680,2238,-406,2134,622,1945,130,85,52,77,832
156048,1778224,1939668,1781510,1945350,1659,1832,-633,2005,284,2198,-1079,437,52,77,832
157049,1778404,1939976,1781707,1945547,1742,2260,-951,2012,-47,2432,-1548,878,45,55,828
158050,1778604,1940248,1781904,1945744,1616,2453,-1358,2042,-364,2655,-1970,1075,45,55,828
159051,1778776,1940492,1782101,1945941,1803,2608,-1849,2148,-723,2638,-1878,1327,35,53,828
160052,1778960,1940752,1782298,1946138,1734,2481,-2357,2169,-1203,2529,-1420,989,35,53,828
161053,1779084,1940952,1782495,1946335,2141,2856,-2838,2045,-1712,2572,-1245,814,20,42,826
162054,1779220,1941172,1782692,1946532,2094,2722,-3273,1789,-2146,2755,-1148,611,20,42,826
163055,1779384,1941400,1782889,1946729,1934,2659,-3652,1390,-2494,2953,-1066,324,18,38,824
164056,1779504,1941604,1783086,1946926,2244,2807,-3973,877,-2770,3036,-1012,232,18,38,824
165057,1779648,1941824,1783283,1947123,2118,2698,-4233,251,-2978,3077,-1310,115,22,30,824
166058,1779788,1942004,1783480,1947320,2169,2957,-4413,-400,-3100,3153,-1392,94,22,30,824
167059,1779920,1942192,1783677,1947517,2248,2912,-4528,-1083,-3129,3269,-1286,248,29,36,821
168060,1780064,1942428,1783874,1947714,2197,2595,-4592,-1741,-3087,3264,-1119,529,29,36,821
169061,1780224,1942660,1784071,1947911,2114,2606,-4625,-2273,-2980,3115,-1012,1138,38,49,820
170062,1780380,1942908,1784268,1948108,2157,2485,-4651,-2718,-2781,2949,-967,1521,38,49,820
171063,1780520,1943156,1784465,1948305,2283,2463,-4711,-3038,-2495,2902,-869,2217,34,52,823
172064,1780700,1943416,1784662,1948502,2042,2362,-4825,-3109,-2148,2931,-652,3070,34,52,823
173065,1780836,1943648,1784859,1948699,2344,2522,-4968,-2958,-1769,2813,-359,3805,40,60,824
174066,1780976,1943904,1785056,1948896,2344,2347,-5099,-2695,-1356,2509,-209,4308,40,60,824
175067,1781160,1944148,1785253,1949093,2076,2403,-5214,-2377,-918,2227,-213,4781,42,42,824
176068,1781324,1944368,1785450,1949290,2217,2543,-5359,-1876,-509,2148,-329,5552,42,42,824
177076,1781472,1944624,1785680,1949520,2354,2308,-5737,-825,-145,2164,-504,7681,43,55,825
178070,1781644,1944856,1785877,1949717,2216,2444,-5980,-43,97,1935,-161,5635,43,55,825
179071,1781808,1945060,1786074,1949914,2280,2617,-5971,275,182,1730,122,5124,45,57,823
180072,1781976,1945300,1786271,1950111,2269,2373,-5876,376,171,1621,97,5356,45,57,823
181073,1782164,1945532,1786468,1950308,2149,2408,-5816,704,130,1679,-313,6219,49,52,822
182074,1782328,1945760,1786665,1950505,2314,2421,-5865,1335,137,1759,-636,7032,49,52,822
183075,1782512,1945988,1786862,1950702,2196,2408,-5927,2094,143,1617,-348,7259,42,38,825
184076,1782720,1946212,1787059,1950899,2041,2422,-5915,2816,48,1053,61,7340,42,38,825
185077,1782916,1946444,1787256,1951096,2118,2358,-5816,3470,-167,302,709,7479,29,43,824
186078,1783076,1946680,1787453,1951293,2360,2317,-5663,4098,-446,-220,970,7793,29,43,824
187079,1783268,1946924,1787650,1951490,2163,2247,-5406,4900,-689,-525,450,9322,46,39,825
188080,1783456,1947148,1787847,1951687,2193,2361,-2939,9713,-374,-2447,-4062,32767,46,39,825
189081,1783616,1947368,1788044,1951884,2385,2376,1914,19461,509,-3038,-6217,32767,40,36,825
190082,1783796,1947592,1788241,1952081,2268,2340,4893,24058,784,487,849,15734,40,36,825
191083,1783984,1947816,1788438,1952278,2223,2329,5107,22355,365,1641,3216,1052,45,39,823
192084,1784168,1948028,1788635,1952475,2255,2399,4513,18469,-242,2228,2832,-1038,45,39,823
193085,1784348,1948248,1788832,1952672,2288,2340,4264,15262,-616,2146,2182,-1138,26,40,824
194086,1784508,1948496,1789029,1952869,2430,2143,4489,12590,-680,2123,1026,-1909,26,40,824
195087,1784664,1948704,1789226,1953066,2474,2389,4726,10442,-550,2377,-285,-625,42,45,824
196088,1784780,1948892,1789423,1953263,2761,2518,4852,8143,-238,1235,-766,-827,42,45,824
197089,1784944,1949124,1789620,1953460,2475,2229,4879,4394,345,-2253,-1470,-2162,21,48,824
198090,1785084,1949364,1789817,1953657,2651,2161,4596,-29,1021,-3776,-1914,-27,21,48,824
199091,1785212,1949608,1790014,1953854,2758,2116,4011,-3251,1770,-5302,-1513,3716,26,42,823
200092,1785352,1949868,1790211,1954051,2709,1990,3585,-4506,2315,-3601,-759,5564,26,42,823
201093,1785476,1950124,1790408,1954248,2842,1989,3225,-4060,2209,-1336,-872,6441,40,40,822
202094,1785608,1950356,1790605,1954445,2821,2124,2905,-3570,1827,-2392,24,6125,40,40,822
203095,1785804,1950604,1790802,1954642,2423,2003,2715,-3294,1505,-3262,666,6798,44,60,821
204096,1785992,1950880,1790999,1954839,2478,1794,2570,-2991,1095,-2778,709,6687,44,60,821
205097,1786164,1951184,1791196,1955036,2590,1573,2540,-2733,823,-3706,1243,6970,31,61,824
206098,1786336,1951520,1791393,1955233,2602,1312,2664,-2252,653,-3697,1084,7018,31,61,824
207099,1786500,1951692,1791590,1955430,2667,2349,2902,-1935,464,-3551,1266,6391,47,50,826
208100,1786644,1951832,1791787,1955627,2817,2575,3166,-1496,462,-4114,1479,7237,47,50,826
209101,1786804,1952020,1791984,1955824,2734,2279,3393,-1167,593,-3475,784,6000,37,47,823
210102,1786944,1952208,1792181,1956021,2885,2284,3549,-904,908,-3082,5,6092,37,47,823
211103,1787096,1952452,1792378,1956218,2831,1914,3654,-671,1445,-3008,-326,5778,24,38,821
212104,1787248,1952724,1792575,1956415,2851,1708,3743,-671,1952,-2573,-148,4661,24,38,821
213105,1787392,1952988,1792772,1956612,2926,1728,3879,-749,2326,-2837,539,4544,36,45,821
214106,1787520,1953348,1792969,1956809,3057,1057,4062,-978,2554,-2627,1242,3783,36,45,821
215107,1787660,1953644,1793166,1957006,3008,1415,4214,-1142,2641,-2212,1957,3933,37,54,823
216108,1787792,1953912,1793363,1957203,3088,1559,4342,-1219,2728,-2270,2307,4200,37,54,823
217108,1787928,1954220,1793560,1957400,3091,1261,4420,-1068,2802,-1891,1988,4701,45,55,824
218110,1788080,1954544,1793757,1957597,3011,1106,4468,-757,2832,-1652,1699,4838,45,55,824
219111,1788260,1954860,1793954,1957794,2845,1104,4489,-356,2859,-1451,1313,5126,26,67,824
220112,1788432,1955192,1794151,1957991,2907,946,4447,72,2799,-1079,747,4773,26,67,824
221113,1788568,1955484,1794348,1958188,3160,1154,4353,361,2620,-1127,585,4337,49,68,826
222114,1788764,1955816,1794545,1958385,2786,845,4202,465,2283,-1161,688,3731,49,68,826
223115,1788920,1956148,1794742,1958582,3056,786,3965,407,1828,-837,561,2983,49,57,824
224116,1789104,1956480,1794939,1958779,2888,728,3655,341,1399,-640,280,2993,49,57,824
225117,1789280,1956792,1795136,1958976,2948,802,3285,248,1019,-418,-22,2671,30,73,825
226118,1789464,1957056,1795333,1959173,2905,1074,2852,147,654,-166,-138,2547,30,73,825
227119,1789632,1957432,1795530,1959370,3018,295,2384,111,351,169,-161,2644,48,58,827
228120,1789836,1957788,1795727,1959567,2791,350,1912,99,104,629,-285,2526,48,58,827
229121,1790020,1958080,1795924,1959764,2923,710,1438,104,-114,830,-281,2441,47,69,827
230122,1790232,1958300,1796121,1959961,2742,1149,985,59,-293,880,55,2412,47,69,827
231123,1790432,1958580,1796318,1960158,2817,738,613,42,-490,1018,1129,2240,34,46,828
232124,1790652,1958840,1796515,1960355,2684,836,318,-14,-691,1034,1466,1976,34,46,828
233125,1790832,1959080,1796712,1960552,2942,942,43,-74,-889,1006,1723,1837,48,39,828
234126,1791052,1959288,1796909,1960749,2683,1138,-275,-237,-1136,947,2199,1474,48,39,828
235127,1791260,1959484,1797106,1960946,2755,1213,-606,-374,-1436,880,2417,1683,46,46,826
236128,1791452,1959668,1797303,1961143,2858,1295,-912,-337,-1698,969,2066,2063,46,46,826
237129,1791672,1959820,1797500,1961340,2674,1514,-1219,-47,-1864,981,1740,2649,35,28,827
238130,1791864,1959988,1797697,1961537,2852,1427,-1542,405,-1921,970,1530,2972,35,28,827
239131,1792068,1960188,1797894,1961734,2775,1227,-1906,916,-1907,1111,1192,3132,42,36,825
240132,1792276,1960360,1798091,1961931,2746,1413,-2261,1500,-1847,1213,888,3338,42,36,825
241133,1792508,1960540,1798288,1962128,2583,1370,-2621,2069,-1816,990,1018,3254,41,45,826
242133,1792700,1960692,1798485,1962325,2836,1565,-2933,2534,-1887,755,740,3026,41,45,826
243135,1792896,1960856,1798682,1962522,2812,1506,-3177,2947,-2062,556,276,2985,35,27,826
244136,1793088,1961012,1798879,1962719,2840,1574,-3351,3410,-2302,396,30,2953,35,27,826
245137,1793280,1961156,1799076,1962916,2844,1672,-3462,3796,-2611,187,-68,2694,48,34,824
246138,1793452,1961304,1799273,1963113,2981,1669,-3515,4132,-2968,-30,-183,2660,48,34,824
247139,1793652,1961476,1799470,1963310,2805,1530,-3529,4345,-3350,-125,-436,2349,26,40,823
248140,1793840,1961660,1799667,1963507,2885,1461,-3528,4542,-3784,-158,-715,2389,26,40,823
249141,1794012,1961852,1799864,1963704,2997,1414,-3515,4736,-4251,-339,-1045,2511,39,33,824
250141,1794220,1962020,1800061,1963901,2769,1577,-3498,4916,-4671,-397,-1685,2649,39,33,824
251143,1794420,1962152,1800258,1964098,2819,1831,-3486,5064,-4989,-367,-2305,2769,42,28,824
252144,1794608,1962288,1800455,1964295,2899,1833,-3487,5323,-5180,-363,-2987,3201,42,28,824
253145,1794812,1962424,1800652,1964492,2797,1860,-3509,5548,-5267,-323,-3538,3174,27,37,823
254146,1794992,1962580,1800849,1964689,2955,1754,-3511,5542,-5289,-423,-3598,2577,27,37,823
255147,1795200,1962684,1801046,1964886,2777,2120,-3483,5242,-5271,-432,-3319,1907,51,22,823
256148,1795432,1962836,1801243,1965083,2612,1840,-3423,4641,-5233,-342,-2840,1244,51,22,823
257149,1795644,1962984,1801440,1965280,2732,1887,-3343,3843,-5202,-517,-1987,754,54,26,822
258150,1795868,1963156,1801637,1965477,2646,1748,-3248,2879,-5179,-791,-1446,423,54,26,822
259151,1796108,1963348,1801834,1965674,2529,1627,-3147,1923,-5126,-959,-1497,787,35,46,824
260161,1796356,1963536,1802064,1965904,2472,1670,-3052,1118,-4994,-1073,-1693,1308,35,46,824
261153,1796592,1963688,1802261,1966101,2531,1916,-2960,513,-4760,-1229,-1761,1878,59,33,825
262154,1796900,1963832,1802458,1966298,2033,1989,-2873,50,-4444,-1447,-1555,2487,59,33,825
263155,1797168,1963996,1802655,1966495,2253,1880,-2786,-418,-4100,-1707,-1044,2803,49,31,826
264156,1797468,1964160,1802852,1966692,2009,1894,-2679,-745,-3741,-1890,-658,3166,49,31,826
265157,1797752,1964332,1803049,1966889,2071,1856,-2581,-1026,-3387,-2110,-230,3478,67,25,827
266158,1798104,1964488,1803246,1967086,1579,1974,-2492,-1147,-3042,-2351,67,4347,67,25,827
267159,1798412,1964648,1803443,1967283,1806,1966,-2428,-1034,-2704,-2559,228,5087,73,24,828
268160,1798728,1964796,1803640,1967480,1705,2063,-2382,-672,-2423,-2749,398,5940,73,24,828
269161,1799076,1964952,1803837,1967677,1440,2032,-2381,-153,-2234,-2885,618,6452,59,42,829
270162,1799412,1965076,1804034,1967874,1455,2264,-2406,346,-2135,-2974,321,6546,59,42,829
271163,1799748,1965252,1804231,1968071,1395,1949,-2436,792,-2054,-2794,-461,6525,61,43,829
272164,1800108,1965408,1804428,1968268,1173,2092,-2440,1064,-1952,-2393,-924,6092,61,43,829
273165,1800420,1965576,1804625,1968465,1423,2031,-2420,1244,-1845,-2089,-706,5855,76,39,829
274165,1800748,1965720,1804822,1968662,1267,2204,-2369,1224,-1800,-1755,-48,5325,76,39,829
275167,1801100,1965888,1805019,1968859,1050,2068,-2288,1068,-1804,-1251,312,4972,63,31,831
276168,1801420,1966060,1805216,1969056,1197,2054,-2158,794,-1793,-746,160,4763,63,31,831
277169,1801732,1966208,1805413,1969253,1196,2227,-1958,397,-1763,-371,-272,4454,67,26,830
278170,1802084,1966340,1805610,1969450,879,2355,-1697,-99,-1736,-69,-746,4312,67,26,830
279171,1802364,1966488,1805807,1969647,1294,2278,-1388,-671,-1741,208,-982,3998,71,32,830
280172,1802668,1966636,1806004,1969844,1097,2300,-1081,-1267,-1792,515,-1123,3916,71,32,830
281173,1802968,1966776,1806201,1970041,1077,2375,-768,-1873,-1881,612,-1177,3910,64,40,829
282174,1803284,1966948,1806398,1970238,926,2187,-453,-2462,-1970,710,-1401,4088,64,40,829
283175,1803536,1967108,1806595,1970435,1302,2280,-137,-2932,-2045,850,-1609,4322,64,30,830
284176,1803844,1967248,1806792,1970632,904,2430,166,-3316,-2090,838,-1863,4628,64,30,830
285177,1804088,1967412,1806989,1970829,1283,2295,467,-3609,-2113,664,-1990,4882,51,43,831
286178,1804324,1967564,1807186,1971026,1317,2390,770,-3822,-2139,461,-2052,5058,51,43,831
287179,1804596,1967712,1807383,1971223,1059,2437,1081,-3951,-2159,214,-1978,5335,44,43,830
288180,1804828,1967864,1807580,1971420,1295,2433,1402,-3951,-2178,-14,-1714,5580,44,43,830
289181,1805076,1968028,1807777,1971617,1172,2373,1709,-3881,-2185,-287,-1466,5775,59,33,829
290182,1805316,1968196,1807974,1971814,1205,2361,2008,-3689,-2174,-604,-1342,6046,59,33,829
291183,1805588,1968368,1808171,1972011,973,2348,2291,-3463,-2117,-869,-1183,6135,62,41,827
292184,1805824,1968524,1808368,1972208,1180,2467,2564,-3171,-1995,-1039,-876,6155,62,41,827
293185,1806080,1968716,1808565,1972405,1030,2245,2818,-2871,-1808,-1238,-493,6126,52,43,829
294186,1806376,1968872,1808762,1972602,737,2489,3074,-2606,-1582,-1441,-169,5797,52,43,829
295187,1806636,1969076,1808959,1972799,934,2187,3327,-2416,-1346,-1623,-52,5637,62,43,828
296188,1806908,1969268,1809156,1972996,827,2264,3574,-2281,-1111,-1865,157,5283,62,43,828
297189,1807200,1969472,1809353,1973193,661,2187,3806,-2214,-874,-2098,253,4991,60,31,830
298190,1807488,1969680,1809550,1973390,647,2158,4027,-2240,-633,-2212,361,4552,60,31,830
299191,1807732,1969860,1809747,1973587,901,2340,4236,-2311,-382,-2255,511,4317,63,29,831
300192,1807996,1970048,1809944,1973784,747,2295,4414,-2401,-124,-2246,622,4032,63,29,831
301193,1808256,1970208,1810141,1973981,745,2488,4556,-2550,131,-2226,761,3808,56,29,831
302194,1808516,1970372,1810338,1974178,717,2478,4647,-2717,390,-2162,726,3665,56,29,831
303195,1808776,1970572,1810535,1974375,690,2252,4717,-2924,660,-1990,613,3385,48,47,830
304196,1808972,1970812,1810732,1974572,1091,1984,4760,-3126,944,-1746,538,3265,48,47,830
305197,1809168,1971040,1810929,1974769,1091,2046,4792,-3355,1239,-1592,529,2966,54,53,831
306198,1809392,1971248,1811126,1974966,906,2166,4774,-3645,1541,-1225,441,2669,54,53,831
307199,1809584,1971468,1811323,1975163,1108,2082,4700,-3960,1875,-739,367,2595,51,38,832
308200,1809800,1971684,1811520,1975360,949,2100,4576,-4283,2220,-494,459,2584,51,38,832
309201,1810004,1971928,1811717,1975557,1022,1905,4434,-4510,2540,-318,589,2559,49,43,831
310202,1810188,1972136,1811914,1975754,1153,2125,4243,-4721,2816,-137,772,2637,49,43,831
311203,1810352,1972328,1812111,1975951,1292,2229,4021,-4915,3066,244,1037,2551,41,35,832
312204,1810532,1972512,1812308,1976148,1201,2285,3726,-5038,3287,708,1301,2753,41,35,832
313205,1810704,1972704,1812505,1976345,1262,2238,3352,-5061,3459,895,1610,2910,33,41,829
314206,1810876,1972872,1812702,1976542,1273,2401,2907,-5039,3562,1142,1742,3094,33,41,829
315207,1811020,1973020,1812899,1976739,1472,2549,2416,-4942,3586,1437,1883,3208,26,41,830
316208,1811172,1973196,1813096,1976936,1442,2383,1910,-4839,3562,1731,1951,3237,26,41,830
317209,1811288,1973360,1813293,1977133,1703,2474,1337,-4683,3473,1910,1936,3312,29,33,829
318210,1811400,1973520,1813490,1977330,1766,2516,713,-4428,3368,2227,1685,3790,29,33,829
319211,1811568,1973620,1813687,1977527,1429,2934,21,-3953,3239,2595,1938,4541,33,31,827
320212,1811708,1973724,1813884,1977724,1629,2950,-665,-3449,3032,2727,2052,4409,33,31,827
321213,1811828,1973812,1814081,1977921,1789,3099,-1332,-2891,2734,2863,1998,4840,21,30,825
322214,1811976,1973940,1814278,1978118,1635,2881,-1984,-2304,2357,2997,1978,5005,21,30,825
323215,1812116,1974032,1814475,1978315,1711,3153,-2559,-1856,1957,3166,1572,4318,23,25,821
324216,1812204,1974152,1814672,1978512,2084,3012,-2998,-1611,1579,3319,1149,3850,23,25,821
325217,1812368,1974216,1814869,1978709,1625,3421,-3317,-1520,1206,3355,881,3517,16,28,822
326218,1812544,1974312,1815066,1978906,1559,3266,-3541,-1528,836,3335,727,3318,16,28,822
327219,1812684,1974424,1815263,1979103,1810,3205,-3681,-1547,475,3297,559,3289,43,16,820
328219,1812856,1974548,1815460,1979300,1621,3163,-3758,-1565,151,3360,294,3277,43,16,820
329221,1813016,1974684,1815657,1979497,1713,3116,-3812,-1526,-75,3421,-119,3597,36,18,821
330221,1813180,1974804,1815854,1979694,1703,3250,-3845,-1454,-208,3315,-449,3827,36,18,821
331223,1813344,1974936,1816051,1979891,1718,3205,-3846,-1305,-273,3038,-771,4212,25,17,821
332224,1813520,1975040,1816248,1980088,1652,3422,-3794,-999,-317,2580,-853,4580,25,17,821
333225,1813692,1975160,1816445,1980285,1689,3357,-3700,-675,-374,1996,-837,4788,25,20,820
334226,1813856,1975316,1816642,1980482,1754,3151,-3544,-333,-453,1527,-671,4783,25,20,820
335227,1814056,1975448,1816839,1980679,1528,3330,-3322,-60,-553,978,-320,4729,24,29,818
336228,1814240,1975588,1817036,1980876,1634,3306,-3056,243,-651,550,-120,4956,24,29,818
337229,1814412,1975704,1817233,1981073,1721,3493,-2776,529,-726,182,-148,4988,40,19,821
338229,1814580,1975848,1817430,1981270,1759,3342,-2475,879,-766,-152,-49,5177,40,19,821
339231,1814772,1975996,1817627,1981467,1612,3340,-2166,1249,-759,-483,-189,5330,35,24,821
340232,1814936,1976144,1817824,1981664,1802,3362,-1861,1660,-702,-772,-558,5536,35,24,821
341233,1815140,1976296,1818021,1981861,1550,3358,-1610,2067,-579,-1021,-967,5649,48,21,820
342234,1815324,1976460,1818218,1982058,1680,3299,-1402,2433,-394,-1228,-1205,5598,48,21,820
343242,1815500,1976596,1818448,1982288,1755,3516,-995,2965,36,-1532,-1303,5291,28,23,819
344236,1815700,1976760,1818645,1982485,1605,3356,-749,3091,260,-1596,-1254,5094,28,23,819
345237,1815876,1976932,1818842,1982682,1764,3318,-497,3147,471,-1656,-1130,4906,33,25,820
346238,1816052,1977108,1819039,1982879,1774,3304,-258,3085,648,-1722,-952,4657,33,25,820
347239,1816248,1977316,1819236,1983076,1650,3100,-42,2963,787,-1656,-886,4602,44,45,819
348240,1816436,1977508,1819433,1983273,1705,3203,155,2791,895,-1668,-1015,4637,44,45,819
349241,1816640,1977708,1819630,1983470,1601,3153,306,2666,980,-1715,-1069,4731,46,35,820
350242,1816816,1977896,1819827,1983667,1787,3234,421,2499,1059,-1639,-1197,4584,46,35,820
351243,1817000,1978092,1820024,1983864,1743,3185,525,2307,1169,-1474,-1317,4648,49,31,821
352244,1817180,1978276,1820221,1984061,1776,3267,636,2042,1301,-1320,-1232,4315,49,31,821
353245,1817372,1978472,1820418,1984258,1704,3193,765,1639,1415,-1303,-1110,4099,31,35,821
354246,1817548,1978668,1820615,1984455,1813,3195,883,1251,1511,-1301,-1201,4310,31,35,821
355247,1817708,1978904,1820812,1984652,1931,2928,954,965,1602,-1257,-1215,4578,27,53,820
356248,1817852,1979116,1821009,1984849,2054,3073,992,733,1661,-1134,-629,4543,27,53,820
357249,1818044,1979356,1821206,1985046,1757,2880,1024,449,1693,-913,-363,4584,26,45,820
358250,1818212,1979584,1821403,1985243,1921,2942,1045,184,1736,-739,-290,4634,26,45,820
359251,1818396,1979800,1821600,1985440,1827,3010,1074,-99,1770,-603,-200,4494,46,50,821
360252,1818528,1980028,1821797,1985637,2181,2922,1122,-453,1794,-557,-108,4267,46,50,821
361253,1818700,1980244,1821994,1985834,1942,2990,1195,-795,1784,-655,-304,4275,31,48,822
362254,1818876,1980476,1822191,1986031,1927,2877,1284,-1130,1767,-700,-418,4320,31,48,822
363255,1819044,1980692,1822388,1986228,1991,2969,1390,-1385,1759,-655,-246,4527,35,33,821
364256,1819200,1980940,1822585,1986425,2084,2748,1512,-1572,1791,-666,-377,4572,35,33,821
365257,1819344,1981128,1822782,1986622,2183,3128,1632,-1726,1888,-659,-1041,4584,29,47,823
366258,1819456,1981316,1822979,1986819,2422,3133,1763,-1904,2017,-688,-1296,4571,29,47,823
367259,1819608,1981532,1823176,1987016,2191,2950,1908,-2015,2125,-818,-1112,4643,29,54,822
368260,1819720,1981788,1823373,1987213,2480,2676,2066,-2076,2162,-1020,-901,4637,29,54,822
369261,1819860,1982064,1823570,1987410,2331,2517,2226,-2171,2153,-1126,-713,4496,41,40,817
370262,1819992,1982280,1823767,1987607,2409,2884,2384,-2263,2162,-1093,-558,4475,41,40,817
371263,1820124,1982460,1823964,1987804,2439,3118,2522,-2258,2216,-1093,-357,4543,40,47,819
372264,1820284,1982676,1824161,1988001,2281,2886,2634,-2135,2305,-1174,-487,4764,40,47,819
373264,1820432,1982912,1824358,1988198,2379,2744,2737,-1993,2401,-1264,-832,4747,27,47,820
374266,1820572,1983148,1824555,1988395,2454,2728,2840,-1838,2480,-1242,-822,4811,27,47,820
375267,1820700,1983404,1824752,1988592,2560,2578,2940,-1608,2535,-1119,-492,4720,41,37,821
376268,1820852,1983600,1824949,1988789,2431,2955,3033,-1415,2569,-1154,-145,4591,41,37,821
377268,1821000,1983780,1825146,1988986,2478,3063,3108,-1212,2605,-1209,-238,4572,36,35,820
378269,1821140,1984000,1825343,1989183,2554,2804,3166,-1002,2657,-1160,-371,4478,36,35,820
379271,1821308,1984224,1825540,1989380,2392,2768,3207,-713,2682,-1019,20,4534,40,44,818
380272,1821444,1984460,1825737,1989577,2620,2677,3238,-490,2669,-814,276,4255,40,44,818
381273,1821628,1984672,1825934,1989774,2327,2822,3259,-281,2638,-703,349,4143,45,47,819
382274,1821800,1984872,1826131,1989971,2414,2896,3273,-101,2617,-588,291,3931,45,47,819
383275,1821992,1985064,1826328,1990168,2292,2949,3279,56,2614,-423,184,3796,46,34,819
384276,1822176,1985272,1826525,1990365,2348,2846,3257,200,2618,-224,48,3676,46,34,819
385277,1822348,1985476,1826722,1990562,2435,2869,3218,290,2596,8,19,3396,48,55,820
386278,1822520,1985768,1826919,1990759,2447,2278,3146,328,2515,230,66,3212,48,55,820
387279,1822708,1986036,1827116,1990956,2352,2398,3044,258,2357,374,687,2794,53,41,821
388280,1822904,1986284,1827313,1991153,2303,2501,2915,137,2187,590,779,2558,53,41,821
389281,1823108,1986520,1827510,1991350,2251,2560,2774,-20,2052,702,674,2526,53,54,823
390282,1823344,1986748,1827707,1991547,2034,2596,2623,-149,1940,845,360,2522,53,54,823
391283,1823544,1987072,1827904,1991744,2259,1942,2447,-264,1809,964,224,2406,36,65,822
392284,1823732,1987368,1828101,1991941,2338,2074,2241,-357,1658,1023,584,2342,36,65,822
393285,1823960,1987656,1828298,1992138,2076,2085,2026,-449,1510,1181,659,2359,50,59,824
394286,1824168,1987912,1828495,1992335,2197,2260,1844,-539,1405,1304,645,2272,50,59,824
395287,1824384,1988196,1828692,1992532,2140,2048,1705,-591,1322,1315,720,2411,42,57,825
396288,1824588,1988572,1828889,1992729,2212,1395,1575,-572,1234,1239,626,2478,42,57,825
397289,1824808,1988876,1829086,1992926,2102,1798,1429,-591,1114,1140,924,2401,53,66,825
398290,1825016,1989192,1829283,1993123,2174,1672,1271,-560,987,1185,930,2486,53,66,825
399291,1825236,1989472,1829480,1993320,2090,1862,1096,-530,875,1255,905,2412,45,68,829
400292,1825472,1989852,1829677,1993517,1973,1157,916,-468,788,1248,699,2415,45,68,829
401293,1825696,1990192,1829874,1993714,2037,1344,734,-417,723,1146,703,2391,36,55,828
402294,1825916,1990516,1830071,1993911,2052,1389,557,-308,664,963,814,2448,36,55,828
403295,1826140,1990808,1830268,1994108,2017,1549,375,-201,605,936,1134,2408,52,62,831
404296,1826356,1991104,1830465,1994305,2059,1480,205,-154,552,985,1333,2287,52,62,831
405297,1826560,1991440,1830662,1994502,2132,1170,55,-57,532,1148,1084,2379,38,54,830
406298,1826764,1991752,1830859,1994699,2129,1271,-58,25,554,1201,930,2310,38,54,830
407299,1826972,1992072,1831056,1994896,2100,1167,-150,150,612,1220,821,2484,42,67,830
408300,1827172,1992324,1831253,1995093,2150,1568,-236,273,658,1176,1009,2422,42,67,830
409301,1827400,1992608,1831450,1995290,1962,1330,-329,405,672,1308,710,2390,50,54,830
410302,1827612,1992924,1831647,1995487,2056,1079,-449,499,661,1387,450,2361,50,54,830
411303,1827776,1993200,1831844,1995684,2371,1294,-569,568,614,1468,560,2243,30,49,828
412304,1827996,1993508,1832041,1995881,2012,1046,-691,592,528,1593,691,2189,30,49,828
413305,1828176,1993756,1832238,1996078,2271,1399,-818,648,433,1721,470,2213,49,48,830
414306,1828368,1994060,1832435,1996275,2199,1003,-948,747,355,1713,248,2331,49,48,830
415307,1828612,1994332,1832632,1996472,1853,1170,-1074,886,296,1692,89,2562,51,57,832
416308,1828800,1994620,1832829,1996669,2208,1030,-1191,1084,253,1795,-83,2830,51,57,832
417309,1829004,1994872,1833026,1996866,2106,1232,-1310,1342,221,1967,-139,2931,51,54,831
418310,1829224,1995112,1833223,1997063,1997,1288,-1431,1574,154,2122,-83,2939,51,54,831
419311,1829436,1995364,1833420,1997260,2040,1189,-1551,1794,31,2109,9,2958,38,56,831
420312,1829640,1995628,1833617,1997457,2088,1085,-1679,2024,-127,2038,213,3039,38,56,831
421313,1829896,1995896,1833814,1997654,1738,1029,-1824,2289,-321,1964,705,3098,53,50,831
422314,1830188,1996112,1834011,1997851,1473,1347,-1975,2590,-550,1912,891,3174,53,50,831
423315,1830460,1996328,1834208,1998048,1565,1338,-2117,2860,-771,1940,573,3121,62,38,830
424316,1830696,1996528,1834405,1998245,1773,1437,-2245,3105,-965,1981,177,3015,62,38,830
425317,1831004,1996748,1834602,1998442,1276,1303,-2357,3377,-1148,1952,-50,3107,60,37,833
426325,1831252,1996984,1834832,1998672,1643,1200,-2460,3603,-1352,1769,-74,3111,60,37,833
427319,1831524,1997184,1835029,1998869,1461,1424,-2552,3800,-1592,1534,45,3038,49,50,831
428320,1831824,1997412,1835226,1999066,1242,1235,-2645,3918,-1851,1372,124,2933,49,50,831
429321,1832084,1997620,1835423,1999263,1464,1357,-2723,3969,-2091,1280,151,2822,46,43,833
430322,1832340,1997788,1835620,1999460,1464,1619,-2798,3970,-2291,1167,79,2719,46,43,833
431323,1832624,1998004,1835817,1999657,1252,1311,-2861,3981,-2441,963,-156,2760,40,31,834
432324,1832876,1998176,1836014,1999854,1428,1598,-2906,4009,-2563,795,-278,2875,40,31,834
433325,1833108,1998352,1836211,2000051,1538,1582,-2914,4025,-2667,700,-320,2897,60,41,831
434326,1833376,1998528,1836408,2000248,1283,1591,-2939,4067,-2724,674,-474,3166,60,41,831
435327,1833592,1998720,1836605,2000445,1600,1495,-3002,4159,-2753,586,-287,3550,41,24,831
436328,1833868,1998880,1836802,2000642,1191,1711,-3065,4255,-2766,433,-322,3551,41,24,831
437329,1834132,1999008,1836999,2000839,1236,1941,-3087,4234,-2758,305,-501,3218,41,25,833
438330,1834400,1999144,1837196,2001036,1181,1919,-3076,4078,-2723,184,-669,2884,41,25,833
439331,1834600,1999256,1837393,2001233,1605,2106,-3057,3699,-2663,39,-575,2427,48,18,832
440332,1834844,1999388,1837590,2001430,1310,2010,-2965,3065,-2567,-42,-335,1526,48,18,832
441333,1835112,1999520,1837787,2001627,1129,2039,-2842,2251,-2443,-166,-173,1270,53,31,831
442334,1835336,1999668,1837984,2001824,1393,1961,-2744,1534,-2314,-417,18,1790,53,31,831
443335,1835548,1999832,1838181,2002021,1462,1876,-2713,1053,-2197,-762,-7,2584,40,24,830
444336,1835688,1999968,1838378,2002218,1938,2078,-2718,766,-2031,-888,-735,3079,40,24,830
445337,1835836,2000100,1838575,2002415,1909,2132,-2736,582,-1792,-952,-1244,3372,32,22,828
446338,1835984,2000256,1838772,2002612,1932,2001,-2746,375,-1548,-998,-1134,3457,32,22,828
447339,1836152,2000388,1838969,2002809,1819,2179,-2759,77,-1340,-929,-707,3406,40,17,827
448340,1836288,2000488,1839166,2003006,2047,2423,-2784,-283,-1142,-752,-327,3394,40,17,827
449341,1836472,2000596,1839363,2003203,1754,2412,-2812,-654,-929,-638,134,3446,26,30,826
450342,1836676,2000700,1839560,2003400,1626,2479,-2819,-986,-699,-588,323,3660,26,30,826
451343,1836824,2000808,1839757,2003597,1998,2493,-2831,-1297,-435,-446,348,3835,27,15,824
452344,1836976,2000964,1839954,2003794,1993,2212,-2842,-1556,-154,-256,509,4077,27,15,824
453345,1837188,2001088,1840151,2003991,1613,2444,-2841,-1772,105,-64,624,4287,24,28,826
454346,1837332,2001240,1840348,2004188,2061,2290,-2814,-1957,332,103,243,4461,24,28,826
455347,1837500,2001336,1840545,2004385,1925,2685,-2753,-2097,532,327,-416,4615,28,13,824
456348,1837668,2001456,1840742,2004582,1937,2569,-2670,-2275,687,668,-690,4454,28,13,824
457349,1837812,2001624,1840939,2004779,2112,2283,-2557,-2536,764,1032,-729,4171,31,25,824
458350,1837992,2001764,1841136,2004976,1895,2483,-2470,-2821,766,1382,-854,4446,31,25,824
459351,1838172,2001900,1841333,2005173,1903,2536,-2417,-3092,739,1662,-1051,4533,21,19,824
460352,1838348,2002052,1841530,2005370,1938,2457,-2414,-3251,719,1924,-1223,4993,21,19,824
461353,1838488,2002148,1841727,2005567,2188,2851,-2465,-3229,709,2110,-1274,5594,43,20,824
462353,1838684,2002276,1841924,2005764,1839,2682,-2524,-3062,719,2198,-1332,6067,43,20,824
463355,1838852,2002456,1842121,2005961,2028,2365,-2567,-2783,713,2307,-1053,6488,24,31,824
464356,1839072,2002640,1842318,2006158,1693,2346,-2584,-2474,638,2354,-369,6690,24,31,824
465357,1839264,2002812,1842515,2006355,1871,2433,-2576,-2106,498,2363,-219,6971,47,30,824
466358,1839496,2002976,1842712,2006552,1607,2498,-2538,-1683,350,2338,-759,7034,47,30,824
467359,1839704,2003120,1842909,2006749,1752,2647,-2476,-1255,235,2218,-1224,7156,38,34,825
468360,1839904,2003268,1843106,2006946,1802,2645,-2376,-846,151,2217,-1439,7194,38,34,825
469361,1840124,2003428,1843303,2007143,1667,2587,-2250,-413,63,2293,-1487,7243,51,22,826
470362,1840332,2003576,1843500,2007340,1738,2684,-2090,40,-42,2157,-1589,7367,51,22,826
471363,1840520,2003776,1843697,2007537,1868,2358,-1879,436,-152,2028,-1776,7185,40,37,824
472364,1840732,2003948,1843894,2007734,1711,2545,-1620,759,-268,1993,-1844,7048,40,37,824
473365,1840948,2004104,1844091,2007931,1679,2663,-1326,1053,-404,2015,-1449,6895,41,28,824
474366,1841136,2004260,1844288,2008128,1858,2682,-1008,1275,-537,2039,-1190,6642,41,28,824
475367,1841360,2004452,1844485,2008325,1622,2461,-725,1380,-645,1854,-875,6245,33,26,825
476368,1841588,2004612,1844682,2008522,1584,2678,-494,1419,-707,1488,-965,6216,33,26,825
477369,1841776,2004788,1844879,2008719,1838,2587,-327,1551,-725,1065,-820,6549,39,26,823
478369,1841988,2004944,1845076,2008916,1683,2731,-213,1730,-709,642,-606,6594,39,26,823
479371,1842212,2005156,1845273,2009113,1596,2375,-124,1914,-681,276,-469,6702,33,36,824
480372,1842412,2005324,1845470,2009310,1745,2664,-42,2092,-648,65,-340,6600,33,36,824
481373,1842604,2005532,1845667,2009507,1799,2409,42,2244,-618,-54,-268,6509,32,43,824
482374,1842832,2005740,1845864,2009704,1560,2405,145,2322,-583,-223,-354,6251,32,43,824
483375,1843012,2005932,1846061,2009901,1868,2509,272,2266,-523,-165,-521,5947,49,31,824
484376,1843196,2006152,1846258,2010098,1849,2325,426,2161,-421,121,-815,5667,49,31,824
485377,1843432,2006360,1846455,2010295,1508,2395,593,2004,-262,394,-820,5467,39,50,827
486378,1843612,2006560,1846652,2010492,1865,2444,765,1848,-82,407,-634,5345,39,50,827
487379,1843812,2006812,1846849,2010689,1740,2096,931,1689,82,395,-591,5314,32,42,827
488380,1844008,2007048,1847046,2010886,1767,2180,1088,1565,199,337,-323,5407,32,42,827
489381,1844204,2007320,1847243,2011083,1767,1922,1222,1533,259,152,151,5600,47,50,824
490382,1844380,2007508,1847440,2011280,1902,2452,1323,1538,272,-189,439,5720,47,50,824
491383,1844536,2007676,1847637,2011477,2045,2591,1404,1576,230,-453,525,5801,43,36,827
492384,1844688,2007868,1847834,2011674,2091,2444,1461,1660,155,-503,410,5947,43,36,827
493385,1844864,2008100,1848031,2011871,1950,2179,1503,1788,67,-473,40,5865,21,43,825
494386,1845004,2008316,1848228,2012068,2201,2271,1522,1915,-12,-446,-555,5792,21,43,825
495387,1845172,2008544,1848425,2012265,2040,2184,1537,1962,-75,-456,-910,5552,42,43,823
496388,1845308,2008756,1848622,2012462,2267,2277,1550,1934,-116,-302,-1112,5332,42,43,823
497389,1845460,2008952,1848819,2012659,2188,2379,1567,1843,-132,-189,-891,4996,32,50,824
498390,1845616,2009168,1849016,2012856,2182,2246,1595,1632,-122,-166,-664,4667,32,50,824
499391,1845732,2009348,1849213,2013053,2467,2479,1649,1391,-107,-82,-513,4428,22,38,822
500392,1845912,2009568,1849410,2013250,2076,2220,1721,1000,-78,54,-222,3967,22,38,822
501393,1846056,2009780,1849607,2013447,2325,2264,1776,601,-34,287,-146,3877,40,43,824
502394,1846208,2009956,1849804,2013644,2295,2499,1820,118,18,313,388,3600,40,43,824
503395,1846340,2010152,1850001,2013841,2449,2375,1841,-319,33,278,704,3764,29,50,825
504396,1846504,2010324,1850198,2014038,2265,2537,1848,-746,12,317,592,3650,29,50,825
505397,1846660,2010512,1850395,2014235,2333,2442,1832,-1086,11,312,385,3884,32,49,823
506397,1846796,2010716,1850592,2014432,2486,2339,1776,-1300,49,213,479,4103,32,49,823
507399,1846956,2010904,1850789,2014629,2353,2443,1697,-1495,107,12,682,4101,37,34,822
508399,1847096,2011108,1850986,2014826,2503,2341,1605,-1608,168,-200,688,4331,37,34,822
509408,1847228,2011288,1851216,2015056,2597,2514,1523,-1739,232,-330,466,4122,25,30,821
510401,1847404,2011484,1851413,2015253,2332,2415,1463,-1780,322,-405,197,4419,25,30,821
511403,1847528,2011684,1851610,2015450,2690,2389,1444,-1798,472,-427,-275,4332,22,39,821
512403,1847724,2011888,1851807,2015647,2242,2362,1465,-1760,689,-403,-704,4512,22,39,821
513405,1847880,2012076,1852004,2015844,2510,2466,1521,-1633,925,-541,-549,4563,36,32,823
514406,1848052,2012276,1852201,2016041,2422,2391,1596,-1506,1107,-669,21,4513,36,32,823
515407,1848232,2012492,1852398,2016238,2380,2284,1668,-1356,1228,-688,236,4679,30,48,824
516408,1848412,2012704,1852595,2016435,2389,2303,1740,-1209,1333,-714,391,4591,30,48,824
517409,1848584,2012928,1852792,2016632,2450,2216,1818,-922,1462,-563,115,4864,46,44,822
518410,1848756,2013164,1852989,2016829,2462,2125,1899,-636,1596,-555,257,4662,46,44,822
519411,1848920,2013352,1853186,2017026,2527,2430,1966,-349,1701,-513,237,4739,45,43,823
520412,1849092,2013548,1853383,2017223,2489,2380,2011,-81,1762,-430,140,4491,45,43,823
521413,1849248,2013764,1853580,2017420,2608,2248,2027,138,1784,-302,-103,4432,44,34,822
522414,1849444,2014008,1853777,2017617,2360,2053,1990,289,1789,-272,28,4204,44,34,822
523415,1849592,2014228,1853974,2017814,2681,2193,1935,366,1736,-336,632,3995,29,38,821
524416,1849788,2014416,1854171,2018011,2383,2398,1869,450,1643,-202,573,3891,29,38,821
525417,1849956,2014648,1854368,2018208,2571,2109,1835,471,1591,33,-160,3658,36,42,824
526418,1850104,2014908,1854565,2018405,2719,1906,1828,513,1615,355,-923,3712,36,42,824
527419,1850244,2015148,1854762,2018602,2795,2013,1824,503,1716,512,-1328,3526,23,53,823
528419,1850392,2015408,1854959,2018799,2767,1862,1772,531,1874,694,-1547,3706,23,53,823
529421,1850536,2015652,1855156,2018996,2816,1941,1695,494,2044,754,-1243,3369,42,54,823
530421,1850672,2015880,1855353,2019193,2894,2028,1631,418,2117,624,-108,3319,42,54,823
531423,1850844,2016152,1855550,2019390,2681,1721,1608,299,2076,576,108,3023,23,57,823
532424,1850964,2016416,1855747,2019587,3040,1742,1631,143,1976,589,271,2922,23,57,823
533425,1851108,2016704,1855944,2019784,2915,1553,1630,4,1824,530,1111,2929,49,57,820
534426,1851316,2017028,1856141,2019981,2511,1273,1576,-98,1657,412,1103,3082,49,57,820
535427,1851496,2017208,1856338,2020178,2694,2181,1469,-63,1552,442,372,3483,40,42,822
536428,1851680,2017344,1856535,2020375,2676,2483,1319,92,1552,491,-612,3726,40,42,822
537429,1851872,2017512,1856732,2020572,2629,2296,1139,458,1624,476,-1351,4205,40,39,827
538430,1852044,2017676,1856929,2020769,2766,2337,959,879,1731,416,-1530,4290,40,39,827
539431,1852204,2017904,1857126,2020966,2858,1923,777,1339,1803,229,-666,4356,46,46,820
540432,1852372,2018116,1857323,2021163,2821,2018,634,1754,1795,-58,201,4166,46,46,820
541433,1852536,2018400,1857520,2021360,2862,1530,592,2091,1715,-64,-55,3903,31,57,821
542433,1852700,2018740,1857717,2021557,2877,1117,653,2333,1602,-141,404,3699,31,57,821
543435,1852864,2019040,1857914,2021754,2893,1323,744,2554,1503,-127,864,3558,39,60,821
544435,1853040,2019264,1858111,2021951,2828,1786,793,2724,1462,-77,895,3329,39,60,821
545437,1853180,2019592,1858308,2022148,3079,1080,758,2904,1461,-126,786,3366,42,54,824
546438,1853312,2019888,1858505,2022345,3159,1236,671,3089,1475,-97,471,3273,42,54,824
547439,1853492,2020204,1858702,2022542,2867,1060,560,3232,1512,54,115,3277,24,61,823
548440,1853648,2020532,1858899,2022739,3036,927,441,3442,1564,144,-383,3456,24,61,823
549441,1853828,2020852,1859096,2022936,2895,924,337,3616,1624,263,-916,3284,43,66,824
550442,1854016,2021164,1859293,2023133,2849,924,273,3792,1679,242,-841,3340,43,66,824
551443,1854192,2021488,1859490,2023330,2935,793,223,3938,1664,204,-67,3241,31,65,826
552444,1854360,2021888,1859687,2023527,2998,230,159,3985,1522,191,593,2827,31,65,826
553445,1854576,2022312,1859884,2023724,2691,-20,44,3946,1261,179,1006,2615,43,59,826
554446,1854764,2022764,1860081,2023921,2871,-307,-97,3849,965,212,979,2572,43,59,826
555447,1854968,2023088,1860278,2024118,2769,437,-241,3818,681,249,859,2745,37,74,826
556448,1855196,2023344,1860475,2024315,2606,837,-368,3795,461,295,797,2755,37,74,826
557449,1855408,2023496,1860672,2024512,2701,1507,-477,3785,309,473,801,2884,36,56,828
558450,1855616,2023780,1860869,2024709,2722,644,-587,3743,175,579,1130,2720,36,56,828
559451,1855864,2024064,1861066,2024906,2451,606,-724,3678,-47,570,1594,2641,40,66,829
560452,1856100,2024360,1861263,2025103,2509,487,-910,3521,-401,509,1837,2509,40,66,829
561453,1856324,2024644,1861460,2025300,2574,524,-1104,3388,-789,343,1625,2790,47,57,828
562454,1856556,2024872,1861657,2025497,2509,861,-1268,3416,-1110,312,1327,3155,47,57,828
563455,1856808,2025088,1861854,2025694,2361,928,-1420,3427,-1327,372,1209,3094,42,44,830
564456,1857044,2025264,1862051,2025891,2445,1187,-1605,3505,-1497,271,1549,3230,42,44,830
565457,1857256,2025416,1862248,2026088,2589,1357,-1835,3519,-1684,60,1951,2995,61,46,828
566458,1857516,2025572,1862445,2026285,2263,1350,-2026,3478,-1879,-82,1760,2984,61,46,828
567459,1857748,2025752,1862642,2026482,2423,1207,-2164,3390,-2007,-57,1356,3032,58,32,827
568460,1857980,2025912,1862839,2026679,2409,1349,-2292,3383,-2131,-127,1322,3217,58,32,827
569461,1858232,2026060,1863036,2026876,2261,1445,-2400,3375,-2280,-222,713,3186,56,26,829
570462,1858480,2026212,1863233,2027073,2264,1441,-2461,3330,-2422,-276,-389,3172,56,26,829
571463,1858708,2026360,1863430,2027270,2377,1487,-2473,3381,-2534,-426,-843,3373,57,33,828
572464,1858940,2026500,1863627,2027467,2337,1562,-2515,3408,-2659,-867,-471,3278,57,33,828
573465,1859168,2026624,1863824,2027664,2349,1695,-2589,3402,-2833,-1194,64,3244,41,22,828
574466,1859388,2026772,1864021,2027861,2389,1566,-2693,3238,-3034,-1360,575,2996,41,22,828
575467,1859628,2026936,1864218,2028058,2247,1482,-2812,3151,-3223,-1405,584,3281,59,23,828
576468,1859864,2027084,1864415,2028255,2255,1603,-2936,3103,-3352,-1428,-136,3401,59,23,828
577469,1860084,2027304,1864612,2028452,2346,1143,-3018,3075,-3402,-1453,-1199,3628,56,41,826
578470,1860320,2027472,1864809,2028649,2230,1481,-3085,3099,-3400,-1514,-1707,3937,56,41,826
579471,1860536,2027636,1865006,2028846,2348,1520,-3188,3257,-3384,-1614,-2031,4370,36,31,827
580472,1860744,2027776,1865203,2029043,2394,1696,-3302,3391,-3360,-1802,-2355,4414,36,31,827
581473,1861000,2027892,1865400,2029240,2068,1882,-3350,3394,-3289,-1975,-2744,4012,35,33,828
582474,1861208,2027992,1865597,2029437,2364,2025,-3346,3316,-3158,-1944,-2991,4037,35,33,828
583475,1861404,2028140,1865794,2029634,2441,1746,-3315,3102,-2975,-1856,-3056,3598,33,26,826
584476,1861620,2028280,1865991,2029831,2308,1822,-3234,2699,-2763,-1815,-3020,3125,33,26,826
585477,1861852,2028404,1866188,2030028,2194,1954,-3121,2085,-2543,-1848,-2821,2699,49,24,825
586478,1862068,2028532,1866385,2030225,2287,1959,-3004,1443,-2344,-1914,-2656,2884,49,24,825
587479,1862292,2028648,1866582,2030422,2225,2071,-2883,827,-2171,-2055,-2712,3026,38,29,825
588480,1862556,2028816,1866779,2030619,1946,1759,-2730,258,-2018,-2207,-2936,3360,38,29,825
589481,1862820,2028976,1866976,2030816,1918,1825,-2556,-166,-1898,-2307,-3056,3855,55,38,825
590482,1863052,2029108,1867173,2031013,2103,2030,-2348,-506,-1771,-2297,-3247,4158,55,38,825
591483,1863312,2029228,1867370,2031210,1902,2138,-2107,-762,-1581,-2176,-3523,4637,61,26,828
592493,1863588,2029356,1867600,2031440,1782,2133,-1871,-976,-1328,-2032,-3467,4916,61,26,828
593485,1863840,2029512,1867797,2031637,1908,1977,-1656,-1130,-1065,-1998,-2722,5187,45,25,826
594485,1864136,2029648,1867994,2031834,1591,2129,-1492,-1282,-845,-1930,-1835,5226,45,25,826
595487,1864400,2029812,1868191,2032031,1762,1970,-1362,-1451,-684,-1844,-1016,5243,49,36,827
596488,1864676,2029924,1868388,2032228,1653,2332,-1217,-1628,-548,-1742,-494,5369,49,36,827
597489,1864984,2030048,1868585,2032425,1405,2289,-1006,-1801,-416,-1616,-336,5453,46,37,828
598489,1865288,2030172,1868782,2032622,1384,2322,-744,-1973,-314,-1511,-242,5500,46,37,828
599491,1865572,2030308,1868979,2032819,1471,2274,-430,-2123,-267,-1364,-274,5608,47,33,826
600492,1865868,2030436,1869176,2033016,1353,2355,-109,-2245,-276,-1099,-446,5789,47,33,826
601492,1866120,2030560,1869373,2033213,1605,2412,201,-2361,-294,-710,-718,5833,64,29,828
602493,1866416,2030680,1869570,2033410,1287,2472,499,-2400,-283,-343,-674,5871,64,29,828
603495,1866704,2030788,1869767,2033607,1298,2586,783,-2493,-263,-86,-241,5807,66,35,828
604496,1866968,2030940,1869964,2033804,1418,2332,1059,-2602,-246,73,114,5742,66,35,828
605497,1867256,2031076,1870161,2034001,1229,2459,1328,-2810,-243,292,278,5475,51,24,827
606497,1867500,2031196,1870358,2034198,1484,2594,1603,-3011,-252,519,365,5425,51,24,827
607499,1867792,2031312,1870555,2034395,1143,2655,1873,-3198,-291,651,410,5445,51,22,828
608499,1868052,2031448,1870752,2034592,1316,2557,2114,-3323,-372,798,396,5475,51,22,828
609500,1868308,2031560,1870949,2034789,1315,2745,2325,-3382,-474,1042,246,5709,44,21,825
610501,1868568,2031704,1871146,2034986,1263,2569,2512,-3396,-563,1185,281,5725,44,21,825
611503,1868820,2031800,1871343,2035183,1289,2914,2671,-3319,-643,1246,478,5915,44,34,825
612504,1869056,2031928,1871540,2035380,1373,2745,2789,-3187,-706,1250,593,6026,44,34,825
613505,1869276,2032048,1871737,2035577,1463,2829,2892,-2989,-747,1213,565,6128,37,22,826
614506,1869500,2032184,1871934,2035774,1427,2757,2992,-2760,-783,1108,550,6036,37,22,826
615507,1869720,2032300,1872131,2035971,1442,2919,3092,-2507,-832,978,524,5981,34,22,825
616508,1869940,2032444,1872328,2036168,1433,2767,3204,-2273,-893,798,527,5884,34,22,825
617508,1870140,2032560,1872525,2036365,1557,2979,3298,-2100,-966,605,544,5598,46,22,825
618509,1870400,2032708,1872722,2036562,1154,2801,3389,-1926,-1049,441,506,5427,46,22,825
619511,1870624,2032852,1872919,2036759,1368,2850,3469,-1769,-1134,139,440,5166,36,32,825
620512,1870848,2033000,1873116,2036956,1356,2847,3543,-1621,-1221,-180,372,5078,36,32,825
621513,1871088,2033160,1873313,2037153,1238,2789,3592,-1461,-1300,-439,410,4877,56,25,825
622514,1871324,2033308,1873510,2037350,1246,2887,3613,-1338,-1367,-685,592,4685,56,25,825
623515,1871556,2033432,1873707,2037547,1257,3070,3597,-1179,-1406,-875,644,4672,58,42,824
624516,1871828,2033612,1873904,2037744,974,2727,3542,-1030,-1403,-1040,580,4470,58,42,824
625517,1872084,2033804,1874101,2037941,1048,2656,3457,-888,-1343,-1163,521,4418,63,31,825
626517,1872344,2033996,1874298,2038138,996,2659,3355,-770,-1242,-1245,468,4161,63,31,825
627519,1872600,2034164,1874495,2038335,995,2822,3253,-679,-1101,-1322,401,3921,49,45,827
628520,1872856,2034340,1874692,2038532,970,2783,3166,-608,-939,-1428,440,3579,49,45,827
629521,1873120,2034516,1874889,2038729,891,2792,3086,-665,-778,-1504,640,3217,58,44,828
630522,1873388,2034724,1875086,2038926,835,2588,3000,-786,-621,-1541,700,2932,58,44,828
631523,1873636,2034932,1875283,2039123,938,2584,2917,-975,-452,-1563,604,2586,49,35,826
632524,1873896,2035168,1875480,2039320,836,2393,2829,-1232,-271,-1479,569,2240,49,35,826
633525,1874120,2035360,1875677,2039517,1049,2671,2741,-1565,-78,-1342,492,1948,51,33,828
634525,1874348,2035548,1875874,2039714,1010,2700,2622,-1932,126,-1198,538,1885,51,33,828
635527,1874580,2035728,1876071,2039911,971,2759,2494,-2297,336,-1125,538,1632,55,31,830
636528,1874776,2035912,1876268,2040108,1196,2740,2334,-2650,558,-1105,523,1697,55,31,830
637529,1874972,2036172,1876465,2040305,1197,2239,2168,-3001,815,-1001,411,1654,44,45,827
638530,1875188,2036388,1876662,2040502,1064,2505,1979,-3254,1082,-853,299,1864,44,45,827
639531,1875376,2036596,1876859,2040699,1243,2552,1773,-3448,1328,-795,256,1923,29,56,826
640531,1875552,2036804,1877056,2040896,1327,2548,1531,-3583,1522,-708,224,2132,29,56,826
641532,1875748,2037016,1877253,2041093,1203,2517,1282,-3726,1666,-583,295,2048,27,41,829
642533,1875900,2037244,1877450,2041290,1499,2405,1018,-3823,1777,-415,254,2221,27,41,829
643534,1876096,2037472,1877647,2041487,1224,2391,743,-3862,1856,-263,-44,2365,41,39,826
644536,1876284,2037684,1877844,2041684,1278,2485,458,-3871,1947,-115,-357,2520,41,39,826
645537,1876440,2037892,1878041,2041881,1497,2506,162,-3856,2046,148,-564,2656,31,33,827
646538,1876588,2038052,1878238,2042078,1569,2824,-129,-3750,2173,379,-612,2835,31,33,827
647539,1876752,2038240,1878435,2042275,1483,2653,-422,-3600,2315,558,-589,3079,21,35,827
648540,1876892,2038428,1878632,2042472,1659,2658,-698,-3421,2451,699,-499,3130,21,35,827
649541,1877044,2038584,1878829,2042669,1604,2877,-965,-3240,2549,860,-303,3326,21,34,824
650541,1877220,2038768,1879026,2042866,1463,2708,-1199,-3038,2593,1140,-111,3340,21,34,824
651543,1877352,2038928,1879223,2043063,1768,2876,-1411,-2858,2578,1355,136,3313,37,30,825
652544,1877532,2039076,1879420,2043260,1475,2972,-1608,-2637,2518,1391,406,3462,37,30,825
653545,1877680,2039224,1879617,2043457,1697,2995,-1806,-2470,2415,1455,490,3493,40,30,824
654546,1877832,2039380,1879814,2043654,1692,2964,-2008,-2259,2289,1573,407,3731,40,30,824
655547,1877992,2039504,1880011,2043851,1659,3197,-2214,-2015,2147,1667,272,3867,40,20,822
656547,1878192,2039632,1880208,2044048,1407,3203,-2412,-1748,1968,1672,232,4098,40,20,822
657549,1878352,2039748,1880405,2044245,1675,3314,-2593,-1425,1758,1641,99,4320,32,24,822
658549,1878520,2039892,1880602,2044442,1637,3163,-2739,-1084,1538,1668,-4,4527,32,24,822
659551,1878708,2040048,1880799,2044639,1517,3107,-2859,-698,1318,1649,-64,4838,27,32,822
660552,1878884,2040200,1880996,2044836,1602,3153,-2956,-294,1086,1460,65,5019,27,32,822
661553,1879072,2040344,1881193,2045033,1531,3227,-3020,138,841,1212,343,5180,43,34,821
662553,1879252,2040472,1881390,2045230,1589,3358,-3039,501,599,969,668,5157,43,34,821
663554,1879460,2040620,1881587,2045427,1409,3256,-3027,858,368,773,890,5186,39,37,821
664556,1879624,2040764,1881784,2045624,1700,3305,-2983,1142,178,576,913,5174,39,37,821
665556,1879812,2040944,1881981,2045821,1554,3089,-2915,1382,37,388,717,5135,29,25,818
666557,1880016,2041068,1882178,2046018,1451,3471,-2824,1549,-38,313,286,5088,29,25,818
667559,1880192,2041204,1882375,2046215,1636,3424,-2700,1689,-56,260,-70,4950,30,28,819
668560,1880364,2041340,1882572,2046412,1672,3451,-2550,1716,-46,78,-243,4849,30,28,819
669561,1880588,2041496,1882769,2046609,1336,3345,-2391,1696,-22,-171,-240,4733,29,22,819
670561,1880780,2041664,1882966,2046806,1538,3284,-2257,1655,6,-462,-101,4829,29,22,819
671563,1880952,2041836,1883163,2047003,1674,3271,-2155,1618,53,-732,-5,4998,30,27,818
672563,1881180,2041984,1883360,2047200,1312,3444,-2057,1615,121,-1064,79,5197,30,27,818
673564,1881348,2042140,1883557,2047397,1699,3413,-1936,1663,217,-1404,35,5310,37,38,821
674565,1881524,2042296,1883754,2047594,1659,3432,-1813,1719,319,-1612,-161,5525,37,38,821
675573,1881708,2042496,1883984,2047824,1630,3171,-1696,1729,425,-1710,-286,5452,29,27,819
676568,1881900,2042656,1884181,2048021,1583,3438,-1555,1716,541,-1831,-402,5477,29,27,819
677569,1882072,2042836,1884378,2048218,1719,3322,-1390,1652,669,-1996,-551,5437,39,29,818
678570,1882244,2043032,1884575,2048415,1730,3223,-1209,1520,798,-2210,-635,5373,39,29,818
679571,1882412,2043232,1884772,2048612,1769,3198,-1033,1418,914,-2323,-721,5435,30,43,820
680572,1882588,2043380,1884969,2048809,1728,3545,-852,1289,1032,-2359,-820,5343,30,43,820
681573,1882760,2043596,1885166,2049006,1765,3113,-669,1108,1159,-2394,-879,5318,47,25,820
682574,1882960,2043772,1885363,2049203,1589,3373,-470,842,1288,-2349,-1002,5041,47,25,820
683575,1883112,2043948,1885560,2049400,1909,3383,-247,490,1409,-2224,-1128,4850,31,44,818
684576,1883252,2044112,1885757,2049597,2009,3474,-29,128,1541,-2110,-1267,4920,31,44,818
685577,1883432,2044328,1885954,2049794,1768,3143,164,-191,1679,-1968,-1444,4969,43,36,820
686578,1883584,2044548,1886151,2049991,1963,3108,353,-537,1781,-1879,-1282,4772,43,36,820
687579,1883744,2044784,1886348,2050188,1930,2992,543,-883,1822,-1622,-1101,4997,25,41,816
688580,1883920,2045000,1886545,2050385,1839,3110,711,-1158,1851,-1356,-959,5142,25,41,816
689581,1884048,2045200,1886742,2050582,2170,3210,890,-1494,1912,-1203,-743,4926,24,35,820
690582,1884200,2045428,1886939,2050779,2040,3022,1106,-1832,2019,-1040,-848,4968,24,35,820
691583,1884360,2045664,1887136,2050976,2007,2956,1345,-2117,2117,-909,-849,4979,28,42,821
692584,1884516,2045920,1887333,2051173,2050,2806,1581,-2403,2156,-852,-573,4942,28,42,821
693585,1884672,2046160,1887530,2051370,2069,2888,1804,-2682,2124,-792,-341,4908,43,44,820
694586,1884836,2046372,1887727,2051567,2034,3057,2015,-2956,2071,-533,-395,4875,43,44,820
695587,1884928,2046564,1887924,2051764,2531,3186,2219,-3179,2068,-302,-717,4870,19,52,819
696588,1885060,2046764,1888121,2051961,2310,3135,2397,-3382,2128,-159,-881,4960,19,52,819
697589,1885200,2046968,1888318,2052158,2286,3108,2559,-3509,2217,-135,-886,5025,39,53,819
698590,1885316,2047220,1888515,2052355,2472,2785,2711,-3592,2306,-147,-864,5023,39,53,819
699591,1885448,2047460,1888712,2052552,2401,2842,2862,-3649,2344,-147,-326,5059,39,35,817
700592,1885592,2047652,1888909,2052749,2350,3145,2996,-3644,2318,-253,397,5162,39,35,817
701593,1885732,2047836,1889106,2052946,2400,3202,3112,-3543,2275,-271,638,5181,31,48,819
702594,1885880,2048012,1889303,2053143,2373,3262,3217,-3413,2247,-255,626,5300,31,48,819
703595,1886024,2048244,1889500,2053340,2422,2898,3310,-3215,2229,-258,395,5365,30,47,817
704596,1886164,2048476,1889697,2053537,2472,2884,3402,-2977,2229,-274,-53,5341,30,47,817
705597,1886280,2048688,1889894,2053734,2659,3002,3489,-2729,2239,-314,-125,5228,42,36,817
706597,1886428,2048904,1890091,2053931,2481,2970,3554,-2484,2243,-335,-119,5225,42,36,817
707599,1886576,2049096,1890288,2054128,2503,3123,3611,-2168,2238,-410,-244,5104,29,43,819
708600,1886712,2049300,1890485,2054325,2606,3046,3659,-1835,2218,-470,-476,5017,29,43,819
709601,1886880,2049516,1890682,2054522,2419,2963,3695,-1509,2183,-442,-549,4891,29,44,817
710602,1887040,2049756,1890879,2054719,2487,2796,3720,-1196,2140,-386,-495,4769,29,44,817
711603,1887200,2049984,1891076,2054916,2503,2858,3740,-837,2081,-389,-345,4682,47,36,817
712604,1887388,2050204,1891273,2055113,2333,2899,3753,-489,2003,-444,-247,4563,47,36,817
713605,1887580,2050424,1891470,2055310,2311,2890,3763,-152,1938,-419,-214,4401,29,40,819
714606,1887756,2050648,1891667,2055507,2421,2854,3758,177,1890,-303,-318,4237,29,40,819
715607,1887912,2050840,1891864,2055704,2564,3057,3736,495,1851,-211,-595,4178,48,47,820
716608,1888104,2051084,1892061,2055901,2342,2712,3699,750,1816,-74,-603,3895,48,47,820
717609,1888276,2051356,1892258,2056098,2479,2505,3649,926,1753,134,-140,3607,43,52,820
718610,1888480,2051640,1892455,2056295,2277,2393,3579,1039,1664,341,453,3276,43,52,820
719611,1888704,2051896,1892652,2056492,2140,2543,3486,1108,1584,560,716,3065,55,57,820
720612,1888916,2052124,1892849,2056689,2210,2705,3386,1148,1555,712,770,2894,55,57,820
721613,1889096,2052372,1893046,2056886,2418,2558,3289,1171,1573,889,771,2752,47,47,821
722614,1889316,2052680,1893243,2057083,2159,2135,3210,1172,1584,1114,686,2525,47,47,821
723615,1889520,2052984,1893440,2057280,2256,2114,3133,1043,1534,1294,782,2177,52,65,822
724616,1889740,2053280,1893637,2057477,2147,2122,3041,838,1412,1354,1024,1864,52,65,822
725617,1889948,2053580,1893834,2057674,2218,2053,2935,559,1245,1317,1179,1609,37,54,825
726618,1890180,2053912,1894031,2057871,2054,1793,2817,339,1072,1217,1220,1676,37,54,825
727619,1890396,2054232,1894228,2058068,2145,1815,2691,144,921,1156,1035,1671,42,70,825
728620,1890584,2054528,1894425,2058265,2325,1923,2551,-18,801,1219,765,1752,42,70,825
729621,1890824,2054832,1894622,2058462,1983,1827,2400,-137,699,1353,423,1757,36,61,828
730622,1891036,2055188,1894819,2058659,2151,1432,2248,-266,609,1389,117,1676,36,61,828
731623,1891256,2055548,1895016,2058856,2092,1336,2088,-356,518,1173,271,1813,53,57,825
732624,1891492,2055856,1895213,2059053,1976,1613,1920,-383,427,939,733,1859,53,57,825
733625,1891688,2056168,1895410,2059250,2227,1538,1730,-384,339,850,1057,1883,40,63,828
734626,1891920,2056460,1895607,2059447,1987,1622,1512,-372,285,903,1025,1754,40,63,828
735627,1892140,2056768,1895804,2059644,2053,1473,1290,-312,272,994,1034,1812,47,56,829
736628,1892336,2057124,1896001,2059841,2204,1104,1098,-224,291,927,1027,1954,47,56,829
737629,1892560,2057432,1896198,2060038,2017,1356,941,-100,356,862,958,2118,42,63,829
738630,1892820,2057712,1896395,2060235,1766,1495,790,133,451,825,1067,2404,42,63,829
739631,1893040,2057980,1896592,2060432,2006,1539,619,395,551,832,1121,2283,58,51,830
740632,1893252,2058284,1896789,2060629,2050,1268,429,635,634,935,1165,2272,58,51,830
741633,1893480,2058604,1896986,2060826,1937,1114,226,789,656,965,1712,1913,37,47,829
742634,1893640,2058896,1897183,2061023,2379,1248,24,841,616,1068,1860,1748,37,47,829
743635,1893820,2059148,1897380,2061220,2262,1474,-167,893,588,1263,1301,1740,30,61,829
744636,1894052,2059396,1897577,2061417,1923,1478,-325,892,601,1367,1089,1677,30,61,829
745637,1894276,2059692,1897774,2061614,1962,1134,-474,904,623,1447,946,1699,44,55,828
746638,1894460,2060024,1897971,2061811,2217,850,-616,950,648,1619,463,1776,44,55,828
747639,1894652,2060308,1898168,2062008,2171,1113,-760,1061,668,1751,220,1937,35,49,830
748640,1894896,2060528,1898365,2062205,1826,1502,-921,1147,660,1820,149,1995,35,49,830
749641,1895080,2060820,1898562,2062402,2207,1011,-1094,1284,601,1825,66,2223,46,58,831
750642,1895308,2061112,1898759,2062599,1919,970,-1272,1455,476,1785,-74,2359,46,58,831
751643,1895596,2061380,1898956,2062796,1505,1089,-1456,1691,305,1764,-317,2563,39,63,830
752644,1895876,2061680,1899153,2062993,1519,844,-1641,1978,90,1797,-205,2710,39,63,830
753645,1896132,2061908,1899350,2063190,1644,1280,-1827,2244,-159,1850,249,2606,65,54,831
754646,1896388,2062136,1899547,2063387,1619,1267,-2022,2521,-425,1947,549,2647,65,54,831
755647,1896636,2062380,1899744,2063584,1646,1147,-2221,2840,-680,1995,541,2778,44,46,835
756648,1896936,2062644,1899941,2063781,1277,992,-2412,3120,-907,1991,336,2796,44,46,835
757649,1897236,2062916,1900138,2063978,1232,909,-2570,3367,-1122,1914,425,2739,65,54,832
758657,1897488,2063152,1900368,2064208,1523,1132,-2705,3544,-1340,1923,363,2612,65,54,832
759651,1897744,2063328,1900565,2064405,1473,1517,-2793,3650,-1564,1882,146,2371,48,40,835
760652,1898048,2063580,1900762,2064602,1126,1018,-2858,3680,-1808,1693,619,2142,48,40,835
761653,1898332,2063792,1900959,2064799,1214,1261,-2897,3649,-2074,1561,716,2070,62,37,834
762654,1898604,2064020,1901156,2064996,1256,1147,-2923,3580,-2280,1502,79,2172,62,37,834
763655,1898868,2064220,1901353,2065193,1278,1321,-2951,3613,-2395,1443,-259,2714,46,29,834
764656,1899104,2064400,1901550,2065390,1435,1455,-3049,3908,-2467,1417,-52,3573,46,29,834
765657,1899360,2064552,1901747,2065587,1284,1649,-3167,4284,-2530,1176,101,3622,43,36,833
766658,1899648,2064696,1901944,2065784,1045,1723,-3272,4586,-2607,926,365,3319,43,36,833
767659,1899892,2064828,1902141,2065981,1300,1826,-3372,4741,-2703,820,349,3189,40,36,832
768660,1900108,2064992,1902338,2066178,1467,1641,-3407,4670,-2775,634,-94,2373,40,36,832
769661,1900300,2065164,1902535,2066375,1620,1603,-3358,4277,-2825,345,-127,1553,58,38,832
770662,1900552,2065344,1902732,2066572,1222,1560,-3312,3770,-2857,120,-576,1584,58,38,832
771663,1900784,2065516,1902929,2066769,1331,1621,-3292,3336,-2857,0,-810,1689,42,24,831
772664,1901004,2065672,1903126,2066966,1396,1739,-3319,2996,-2811,-99,-838,1936,42,24,831
773664,1901224,2065832,1903323,2067163,1387,1731,-3386,2761,-2707,-291,-953,2484,54,22,832
774665,1901432,2065956,1903520,2067360,1457,1988,-3480,2548,-2568,-572,-849,2505,54,22,832
775667,1901624,2066084,1903717,2067557,1560,1994,-3576,2332,-2459,-830,-541,2627,48,21,830
776668,1901800,2066224,1903914,2067754,1670,1944,-3663,2069,-2372,-1075,-552,2637,48,21,830
777669,1901968,2066352,1904111,2067951,1732,2050,-3705,1738,-2278,-1124,-638,2474,26,29,829
778670,1902116,2066516,1904308,2068148,1880,1840,-3702,1353,-2149,-1050,-654,2378,26,29,829
779671,1902292,2066664,1904505,2068345,1714,1961,-3689,987,-1960,-901,-680,2589,41,36,828
780672,1902420,2066812,1904702,2068542,2045,1984,-3702,627,-1720,-829,-598,2788,41,36,828
781673,1902544,2066964,1904899,2068739,2102,1979,-3744,253,-1455,-842,-358,2934,39,23,828
782674,1902684,2067108,1905096,2068936,2028,2052,-3771,-187,-1166,-744,-103,2840,39,23,828
783675,1902812,2067244,1905293,2069133,2134,2130,-3767,-684,-864,-596,182,2796,39,30,826
784676,1902944,2067368,1905490,2069330,2138,2237,-3741,-1155,-545,-543,481,2997,39,30,826
785677,1903096,2067500,1905687,2069527,2033,2215,-3716,-1615,-229,-455,623,3074,36,31,824
786677,1903248,2067624,1905884,2069724,2054,2298,-3714,-2033,67,-161,86,3454,36,31,824
787679,1903392,2067752,1906081,2069921,2127,2304,-3717,-2375,363,160,-760,3702,19,35,823
788680,1903548,2067896,1906278,2070118,2071,2228,-3716,-2716,630,505,-1425,3870,19,35,823
789681,1903732,2068068,1906475,2070315,1902,2064,-3713,-3057,860,893,-2043,3909,29,39,824
790682,1903912,2068276,1906672,2070512,1935,1834,-3674,-3455,1052,1234,-2229,3735,29,39,824
791683,1904068,2068448,1906869,2070709,2103,2071,-3613,-3818,1169,1592,-2142,3955,28,37,824
792684,1904276,2068584,1907066,2070906,1775,2323,-3560,-4091,1226,1806,-2064,4503,28,37,824
793685,1904468,2068720,1907263,2071103,1877,2351,-3516,-4289,1252,1976,-2062,4769,30,21,826
794686,1904648,2068904,1907460,2071300,1960,2056,-3485,-4381,1261,2126,-2002,5247,30,21,826
795687,1904864,2069044,1907657,2071497,1727,2357,-3458,-4246,1219,2216,-1481,6072,41,24,826
796688,1905064,2069232,1907854,2071694,1827,2061,-3442,-4030,1081,2217,-1025,6264,41,24,826
797689,1905280,2069384,1908051,2071891,1718,2307,-3404,-3684,944,2357,-1908,6849,30,39,825
798689,1905460,2069548,1908248,2072088,1952,2247,-3366,-3210,848,2508,-2521,7376,30,39,825
799691,1905704,2069736,1908445,2072285,1531,2102,-3330,-2682,724,2554,-2510,7594,44,40,827
800692,1905900,2069908,1908642,2072482,1832,2213,-3300,-2106,567,2517,-2554,7962,44,40,827
801693,1906120,2070060,1908839,2072679,1672,2357,-3228,-1528,394,2364,-2561,7984,51,35,825
802693,1906296,2070216,1909036,2072876,1958,2351,-3119,-996,219,2363,-2454,7935,51,35,825
803695,1906508,2070356,1909233,2073073,1726,2476,-2967,-559,60,2395,-2039,7756,28,29,826
804696,1906712,2070504,1909430,2073270,1774,2449,-2802,-186,-91,2416,-1399,7595,28,29,826
805697,1906904,2070696,1909627,2073467,1851,2177,-2660,146,-216,2596,-866,7479,39,24,825
806698,1907116,2070868,1909824,2073664,1721,2313,-2516,359,-330,2844,-491,7186,39,24,825
807699,1907352,2071044,1910021,2073861,1553,2298,-2322,520,-479,3002,-365,7065,52,41,824
808700,1907548,2071192,1910218,2074058,1805,2495,-2066,617,-624,2897,-751,6906,52,41,824
809701,1907760,2071320,1910415,2074255,1699,2651,-1814,787,-690,2459,-1474,7407,27,40,825
810702,1907968,2071476,1910612,2074452,1719,2494,-1568,1126,-681,2040,-1696,7740,27,40,825
811703,1908152,2071688,1910809,2074649,1876,2139,-1303,1470,-657,1721,-1378,7791,27,30,825
812704,1908344,2071896,1911006,2074846,1828,2159,-1003,1822,-637,1415,-882,7842,27,30,825
813705,1908572,2072092,1911203,2075043,1591,2235,-696,2134,-607,1015,-494,7769,29,46,824
814706,1908760,2072304,1911400,2075240,1845,2129,-420,2457,-544,830,-511,7835,29,46,824
815707,1908956,2072508,1911597,2075437,1796,2177,-141,2633,-471,919,-320,7305,34,49,826
816708,1909148,2072720,1911794,2075634,1823,2121,168,2665,-394,1130,-178,6831,34,49,826
817709,1909352,2072956,1911991,2075831,1746,1954,444,2608,-278,1317,-376,6538,29,48,827
818710,1909540,2073140,1912188,2076028,1850,2286,660,2526,-121,1266,-435,6461,29,48,827
819711,1909724,2073316,1912385,2076225,1882,2345,830,2598,36,779,-201,6781,47,50,826
820712,1909904,2073500,1912582,2076422,1914,2302,982,2728,133,109,114,6877,47,50,826
821713,1910076,2073672,1912779,2076619,1976,2388,1134,2781,131,-243,549,6575,26,43,826
822714,1910252,2073900,1912976,2076816,1961,2025,1314,2823,38,-302,743,6396,26,43,826
823715,1910408,2074104,1913173,2077013,2105,2172,1505,2889,-43,-318,113,6419,36,49,824
824716,1910568,2074300,1913370,2077210,2096,2223,1689,2946,-47,-490,-690,6405,36,49,824
825717,1910732,2074460,1913567,2077407,2086,2466,1862,3027,40,-659,-1199,6549,37,45,826
826718,1910884,2074636,1913764,2077604,2181,2375,2016,3161,176,-564,-1484,6537,37,45,826
827719,1911028,2074820,1913961,2077801,2255,2332,2161,3286,299,-577,-1461,6166,21,29,824
828720,1911192,2075052,1914158,2077998,2145,2016,2317,3239,368,-827,-1092,5752,21,29,824
829721,1911328,2075232,1914355,2078195,2348,2350,2475,3062,367,-894,-696,5354,27,47,822
830722,1911492,2075428,1914552,2078392,2187,2250,2618,2791,363,-747,-604,5004,27,47,822
831723,1911636,2075616,1914749,2078589,2337,2305,2746,2463,414,-589,-479,4624,20,46,824
832724,1911808,2075776,1914946,2078786,2174,2497,2855,2030,476,-429,-262,4293,20,46,824
833725,1911948,2075948,1915143,2078983,2399,2433,2942,1578,519,-354,-219,4219,39,49,824
834726,1912100,2076148,1915340,2079180,2344,2258,3009,1188,560,-205,-455,4231,39,49,824
835727,1912260,2076348,1915537,2079377,2311,2257,3068,800,626,-99,-589,4002,31,35,823
836728,1912384,2076536,1915734,2079574,2569,2337,3117,385,722,-196,-228,3881,31,35,823
837729,1912524,2076712,1915931,2079771,2495,2421,3152,-64,815,-298,217,3653,37,35,823
838730,1912692,2076916,1916128,2079968,2332,2244,3160,-533,894,-407,360,3597,37,35,823
839731,1912836,2077100,1916325,2080165,2507,2375,3154,-939,1002,-553,243,3635,35,32,820
840732,1912988,2077280,1916522,2080362,2478,2408,3130,-1259,1152,-628,-88,3832,35,32,820
841740,1913156,2077480,1916752,2080592,2405,2297,3099,-1434,1346,-756,-452,4120,39,30,821
842734,1913336,2077684,1916949,2080789,2338,2269,3075,-1492,1567,-862,-560,4307,39,30,821
843735,1913492,2077908,1917146,2080986,2507,2133,3053,-1497,1763,-893,-527,4378,47,47,821
844736,1913656,2078108,1917343,2081183,2472,2283,3044,-1469,1928,-953,-735,4415,47,47,821
845737,1913856,2078336,1917540,2081380,2246,2094,3037,-1390,2078,-1008,-574,4470,43,50,823
846738,1914028,2078528,1917737,2081577,2433,2322,3016,-1261,2183,-1115,-213,4378,43,50,823
847739,1914192,2078756,1917934,2081774,2499,2084,2978,-1138,2261,-1176,-58,4361,26,51,822
848740,1914380,2078972,1918131,2081971,2353,2151,2906,-1006,2324,-1147,-98,4306,26,51,822
849741,1914528,2079184,1918328,2082168,2625,2170,2826,-866,2359,-1074,-214,4261,25,38,822
850742,1914696,2079452,1918525,2082365,2514,1790,2763,-711,2372,-1010,-482,4163,25,38,822
851743,1914900,2079660,1918722,2082562,2286,2161,2739,-566,2370,-915,-708,4126,43,52,823
852744,1915048,2079876,1918919,2082759,2659,2102,2744,-418,2333,-877,-497,3983,43,52,823
853745,1915204,2080088,1919116,2082956,2628,2122,2773,-302,2255,-774,-686,3773,23,38,823
854746,1915404,2080340,1919313,2083153,2352,1848,2799,-224,2170,-612,-942,3639,23,38,823
855747,1915548,2080588,1919510,2083350,2726,1851,2796,-202,2117,-455,-1085,3558,43,50,823
856748,1915696,2080868,1919707,2083547,2723,1615,2734,-167,2120,-304,-937,3566,43,50,823
857749,1915844,2081108,1919904,2083744,2746,1847,2627,-141,2166,-123,-390,3437,39,54,825
858750,1916000,2081316,1920101,2083941,2715,2042,2505,-108,2242,15,173,3454,39,54,825
859751,1916108,2081588,1920298,2084138,3054,1610,2415,-75,2314,192,294,3367,26,43,824
860752,1916264,2081864,1920495,2084335,2773,1550,2377,-34,2360,402,211,3245,26,43,824
861753,1916416,2082156,1920692,2084532,2819,1410,2370,-23,2400,508,260,3161,27,46,822
862753,1916532,2082484,1920889,2084729,3080,1127,2340,-22,2398,546,426,3137,27,46,822
863755,1916688,2082700,1921086,2084926,2849,1820,2280,-46,2347,497,231,3077,39,46,823
864755,1916896,2082856,1921283,2085123,2519,2213,2236,-38,2283,388,-106,3167,39,46,823
865757,1917072,2083020,1921480,2085320,2730,2177,2179,35,2187,290,50,3166,52,45,824
866757,1917236,2083180,1921677,2085517,2820,2220,2084,79,2078,266,285,3130,52,45,824
867759,1917444,2083364,1921874,2085714,2541,2075,1924,214,2016,289,828,3394,41,41,823
868760,1917612,2083572,1922071,2085911,2805,1921,1745,402,2012,302,996,3377,41,41,823
869761,1917764,2083816,1922268,2086108,2926,1676,1579,655,1971,237,1034,3541,30,30,821
870762,1917936,2084064,1922465,2086305,2813,1629,1477,869,1849,139,751,3349,30,30,821
871763,1918088,2084384,1922662,2086502,2958,1125,1421,1099,1673,78,671,3347,30,54,822
872764,1918240,2084616,1922859,2086699,2978,1660,1376,1384,1477,-7,817,3384,30,54,822
873765,1918404,2084924,1923056,2086896,2919,1137,1311,1687,1350,-45,385,3513,41,53,823
874766,1918548,2085232,1923253,2087093,3068,1088,1212,1993,1292,-134,578,3539,41,53,823
875767,1918680,2085488,1923450,2087290,3173,1388,1065,2298,1267,-117,743,3438,22,68,821
876768,1918824,2085812,1923647,2087487,3122,908,882,2600,1257,-63,685,3416,22,68,821
877769,1918964,2086104,1923844,2087684,3173,1066,682,2893,1259,-67,469,3358,43,69,824
878770,1919132,2086420,1924041,2087881,3012,865,497,3156,1243,-143,444,3270,43,69,824
879771,1919308,2086668,1924238,2088078,2972,1267,331,3370,1177,-151,364,3143,42,61,824
880772,1919476,2086972,1924435,2088275,3036,870,189,3596,1068,-105,214,3186,42,61,824
881773,1919640,2087324,1924632,2088472,3076,502,68,3838,933,-222,444,3212,32,68,825
882774,1919816,2087644,1924829,2088669,3010,649,-35,4025,767,-265,801,2859,32,68,825
883775,1920000,2087952,1925026,2088866,2967,675,-162,4008,561,-204,1169,2385,43,54,825
884776,1920176,2088220,1925223,2089063,3027,894,-305,3915,335,-45,1524,2206,43,54,825
885777,1920388,2088544,1925420,2089260,2797,488,-459,3710,94,60,1849,1916,46,60,825
886778,1920592,2088864,1925617,2089457,2845,459,-608,3508,-134,142,2095,1968,46,60,825
887779,1920784,2089116,1925814,2089654,2923,860,-754,3312,-316,330,2111,2146,55,57,825
888780,1920996,2089340,1926011,2089851,2792,1023,-914,3233,-486,463,2105,2462,55,57,825
889781,1921224,2089564,1926208,2090048,2680,1012,-1081,3245,-653,536,2049,2692,57,41,828
890782,1921448,2089780,1926405,2090245,2694,1054,-1278,3259,-836,490,2126,2744,57,41,828
891783,1921668,2089988,1926602,2090442,2710,1099,-1510,3258,-1045,424,2401,2721,43,49,826
892784,1921900,2090176,1926799,2090639,2620,1228,-1769,3178,-1306,324,2804,2570,43,49,826
893785,1922124,2090360,1926996,2090836,2660,1259,-2012,3109,-1608,183,2734,2531,57,45,827
894786,1922352,2090536,1927193,2091033,2622,1318,-2204,3012,-1908,-6,2397,2554,57,45,827
895787,1922568,2090700,1927390,2091230,2690,1407,-2379,2935,-2177,-50,2306,2809,45,39,826
896788,1922788,2090836,1927587,2091427,2655,1609,-2551,2955,-2375,61,1801,3052,45,39,826
897789,1923012,2090980,1927784,2091624,2620,1583,-2716,3047,-2463,106,1015,3313,35,29,824
898790,1923264,2091156,1927981,2091821,2421,1392,-2844,3211,-2472,12,383,3480,35,29,824
899791,1923488,2091344,1928178,2092018,2585,1322,-2934,3311,-2530,-215,613,3313,49,36,825
900792,1923724,2091532,1928375,2092215,2493,1326,-3011,3391,-2694,-408,478,3345,49,36,825
901793,1923944,2091668,1928572,2092412,2584,1677,-3080,3335,-2931,-555,-132,3043,58,42,827
902794,1924192,2091828,1928769,2092609,2388,1544,-3111,3286,-3196,-756,-459,3172,58,42,827
903795,1924412,2091956,1928966,2092806,2554,1774,-3102,3273,-3420,-935,-764,3254,40,31,827
904796,1924608,2092096,1929163,2093003,2705,1724,-3094,3310,-3574,-991,-1076,3402,40,31,827
905797,1924844,2092228,1929360,2093200,2439,1803,-3159,3344,-3676,-1051,-1213,3503,41,38,826
906798,1925060,2092380,1929557,2093397,2557,1698,-3271,3368,-3755,-1183,-1396,3577,41,38,826
907799,1925280,2092544,1929754,2093594,2522,1638,-3429,3602,-3796,-1307,-1865,4405,43,27,823
908800,1925524,2092708,1929951,2093791,2352,1652,-3564,3846,-3803,-1535,-2203,4466,43,27,823
909801,1925744,2092852,1930148,2093988,2493,1801,-3667,4080,-3801,-1695,-2352,4562,56,39,825
910802,1925956,2093004,1930345,2094185,2537,1770,-3723,4215,-3795,-1839,-2486,4271,56,39,825
911803,1926188,2093132,1930542,2094382,2398,1952,-3726,4261,-3793,-2055,-2650,4149,48,34,825
912803,1926420,2093268,1930739,2094579,2383,1929,-3651,4030,-3775,-2230,-2783,3462,48,34,825
913805,1926636,2093392,1930936,2094776,2475,2036,-3526,3630,-3708,-2222,-2971,3166,49,31,824
914806,1926880,2093484,1931133,2094973,2280,2282,-3427,3278,-3581,-2216,-2986,3506,49,31,824
915807,1927100,2093568,1931330,2095170,2421,2383,-3336,2873,-3423,-2402,-2736,3312,35,24,824
916808,1927324,2093712,1931527,2095367,2386,2031,-3252,2465,-3265,-2528,-2411,3620,35,24,824
917809,1927568,2093836,1931724,2095564,2241,2188,-3158,2075,-3103,-2630,-2272,3794,43,26,822
918810,1927804,2094008,1931921,2095761,2274,1900,-3046,1680,-2903,-2579,-2526,3948,43,26,822
919811,1928056,2094132,1932118,2095958,2151,2232,-2900,1250,-2670,-2654,-2855,3921,55,25,823
920812,1928360,2094280,1932315,2096155,1780,2103,-2733,800,-2427,-2749,-3056,4185,55,25,823
921812,1928596,2094444,1932512,2096352,2188,2019,-2548,403,-2184,-2607,-2960,4435,62,35,826
922814,1928856,2094564,1932709,2096549,2012,2328,-2358,26,-1931,-2435,-2601,4518,62,35,826
923815,1929140,2094720,1932906,2096746,1823,2121,-2178,-310,-1688,-2414,-1885,4771,54,39,827
924825,1929420,2094836,1933136,2096976,1828,2422,-2010,-652,-1464,-2358,-1182,4867,54,39,827
925817,1929712,2095012,1933333,2097173,1712,2056,-1842,-987,-1253,-2189,-726,5080,47,23,824
926818,1929972,2095128,1933530,2097370,1884,2468,-1652,-1290,-1057,-2060,-463,5187,47,23,824
927819,1930264,2095272,1933727,2097567,1643,2316,-1425,-1572,-895,-1969,-310,5342,66,39,825
928820,1930580,2095408,1933924,2097764,1442,2393,-1179,-1838,-796,-1887,-213,5496,66,39,825
929820,1930852,2095560,1934121,2097961,1684,2314,-889,-2024,-762,-1666,-564,5785,48,35,823
930821,1931168,2095704,1934318,2098158,1358,2387,-564,-2159,-747,-1393,-1158,5943,48,35,823
931823,1931488,2095844,1934515,2098355,1280,2438,-231,-2270,-718,-1097,-1465,5995,58,22,827
932824,1931772,2095984,1934712,2098552,1466,2463,91,-2389,-700,-771,-1380,5971,58,22,827
933825,1932080,2096120,1934909,2098749,1269,2516,398,-2574,-719,-475,-1175,5851,52,22,827
934826,1932364,2096244,1935106,2098946,1380,2623,711,-2770,-776,-214,-852,5656,52,22,827
935827,1932640,2096356,1935303,2099143,1397,2736,1019,-3008,-859,-47,-518,5627,68,38,826
936828,1932952,2096492,1935500,2099340,1121,2613,1321,-3224,-942,184,-462,5618,68,38,826
937828,1933224,2096652,1935697,2099537,1339,2480,1604,-3418,-1014,420,-553,5668,54,38,826
938830,1933500,2096800,1935894,2099734,1280,2577,1856,-3540,-1081,596,-756,5784,54,38,826
939831,1933812,2096940,1936091,2099931,1005,2653,2080,-3638,-1165,757,-709,5706,51,38,825
940832,1934056,2097080,1936288,2100128,1409,2679,2284,-3705,-1260,889,-463,5804,51,38,825
941833,1934316,2097216,1936485,2100325,1283,2731,2481,-3770,-1360,965,-195,5740,44,22,825
942834,1934576,2097348,1936682,2100522,1255,2785,2665,-3779,-1448,1010,8,5818,44,22,825
943835,1934788,2097492,1936879,2100719,1548,2734,2846,-3728,-1519,972,115,5810,41,37,824
944836,1935016,2097640,1937076,2100916,1436,2731,3026,-3675,-1578,891,190,5708,41,37,824
945837,1935256,2097772,1937273,2101113,1342,2861,3206,-3605,-1629,820,194,5669,46,29,825
946838,1935452,2097912,1937470,2101310,1618,2836,3376,-3550,-1664,708,262,5494,46,29,825
947839,1935696,2098044,1937667,2101507,1298,2915,3531,-3448,-1677,573,236,5522,42,24,824
948840,1935940,2098200,1937864,2101704,1277,2784,3675,-3309,-1671,398,107,5414,42,24,824
949841,1936160,2098368,1938061,2101901,1418,2722,3806,-3153,-1638,189,19,5328,35,25,823
950842,1936376,2098516,1938258,2102098,1435,2870,3946,-2980,-1589,-52,-32,5205,35,25,823
951843,1936608,2098664,1938455,2102295,1319,2892,4083,-2778,-1526,-320,4,5091,37,28,823
952844,1936832,2098792,1938652,2102492,1358,3047,4213,-2572,-1441,-520,-3,4993,37,28,823
953845,1937088,2098944,1938849,2102689,1132,2918,4326,-2364,-1312,-634,15,4867,39,32,823
954845,1937348,2099120,1939046,2102886,1080,2778,4417,-2136,-1149,-755,92,4806,39,32,823
955847,1937600,2099284,1939243,2103083,1107,2868,4480,-1922,-967,-856,171,4548,57,36,823
956848,1937856,2099456,1939440,2103280,1056,2830,4506,-1732,-789,-961,293,4422,57,36,823
957849,1938148,2099620,1939637,2103477,789,2895,4498,-1579,-619,-1032,543,4101,61,44,825
958850,1938412,2099792,1939834,2103674,935,2857,4458,-1429,-439,-1034,626,3853,61,44,825
959851,1938640,2099948,1940031,2103871,1147,2975,4398,-1364,-249,-1007,672,3563,52,40,825
960852,1938892,2100152,1940228,2104068,973,2673,4324,-1338,-48,-1018,652,3290,52,40,825
961853,1939180,2100332,1940425,2104265,708,2832,4223,-1377,159,-924,678,2936,45,45,824
962853,1939448,2100512,1940622,2104462,802,2840,4100,-1461,371,-807,781,2732,45,45,824
963855,1939664,2100716,1940819,2104659,1119,2687,3954,-1602,566,-627,974,2477,44,38,826
964856,1939892,2100868,1941016,2104856,1030,3033,3788,-1772,754,-421,924,2181,44,38,826
965857,1940068,2101064,1941213,2105053,1365,2759,3585,-1940,965,-206,823,2118,56,32,825
966858,1940260,2101240,1941410,2105250,1268,2895,3355,-2178,1202,24,726,1862,56,32,825
967859,1940472,2101396,1941607,2105447,1136,3038,3087,-2425,1461,261,635,1798,39,35,824
968860,1940656,2101568,1941804,2105644,1317,2950,2800,-2645,1727,439,587,1709,39,35,824
969861,1940828,2101768,1942001,2105841,1403,2774,2491,-2876,1964,577,567,1637,39,46,824
970862,1941012,2101964,1942198,2106038,1334,2801,2175,-3097,2125,658,708,1542,39,46,824
971863,1941204,2102200,1942395,2106235,1287,2534,1857,-3337,2201,773,821,1507,29,43,824
972864,1941372,2102400,1942592,2106432,1450,2758,1526,-3564,2200,955,806,1485,29,43,824
973865,1941528,2102584,1942789,2106629,1543,2865,1197,-3773,2162,1094,710,1584,41,35,824
974866,1941680,2102800,1942986,2106826,1587,2658,866,-3879,2108,1137,618,1950,41,35,824
975867,1941844,2103004,1943183,2107023,1528,2730,545,-3883,2058,1239,274,2149,32,40,824
976868,1941988,2103212,1943380,2107220,1676,2701,218,-3788,2032,1368,-51,2490,32,40,824
977869,1942156,2103436,1943577,2107417,1539,2590,-125,-3597,2027,1535,-195,2795,39,32,823
978870,1942288,2103596,1943774,2107614,1793,3007,-469,-3344,2033,1648,-210,2955,39,32,823
979871,1942428,2103772,1943971,2107811,1769,2917,-791,-3041,2028,1729,24,3137,19,32,823
980872,1942588,2103928,1944168,2108008,1660,3060,-1091,-2766,1975,1756,612,3116,19,32,823
981873,1942724,2104104,1944365,2108205,1837,2946,-1376,-2511,1867,1850,1036,3229,18,35,820
982874,1942868,2104368,1944562,2108402,1811,2367,-1642,-2279,1715,1875,1158,3094,18,35,820
983875,1943048,2104524,1944759,2108599,1593,3061,-1884,-2055,1539,1821,1204,3122,25,28,820
984876,1943168,2104680,1944956,2108796,2002,3079,-2121,-1852,1353,1755,1313,3210,25,28,820
985877,1943316,2104836,1945153,2108993,1849,3098,-2338,-1679,1165,1813,1168,3202,37,35,824
986878,1943520,2104972,1945350,2109190,1497,3251,-2511,-1453,982,1835,798,3402,37,35,824
987879,1943688,2105156,1945547,2109387,1734,2958,-2644,-1259,803,1817,517,3437,22,40,819
988880,1943820,2105328,1945744,2109584,1989,3045,-2758,-1063,615,1771,428,3702,22,40,819
989881,1944052,2105484,1945941,2109781,1349,3163,-2853,-786,423,1691,412,3893,44,27,820
990882,1944208,2105628,1946138,2109978,1842,3262,-2927,-494,238,1604,386,4126,44,27,820
991883,1944384,2105776,1946335,2110175,1727,3260,-2986,-112,61,1417,583,4461,41,28,818
992884,1944572,2105936,1946532,2110372,1656,3202,-3047,277,-95,1238,735,4712,41,28,818
993885,1944780,2106128,1946729,2110569,1526,3005,-3095,682,-224,1142,774,4823,28,41,819
994886,1944944,2106276,1946926,2110766,1816,3303,-3129,1078,-322,929,878,5032,28,41,819
995887,1945156,2106420,1947123,2110963,1510,3351,-3140,1469,-386,664,958,5081,49,24,819
996888,1945376,2106572,1947320,2111160,1451,3322,-3143,1787,-400,453,806,5117,49,24,819
997889,1945536,2106724,1947517,2111357,1842,3342,-3136,2064,-363,175,639,5052,30,36,819
998890,1945736,2106900,1947714,2111554,1591,3203,-3125,2282,-305,-4,556,5001,30,36,819
999891,1945948,2107060,1947911,2111751,1510,3320,-3102,2402,-243,-160,453,4755,32,22,820
1000892,1946140,2107236,1948108,2111948,1637,3230,-3044,2355,-184,-454,461,4494,32,22,820
1001892,1946320,2107388,1948305,2112145,1720,3401,-2957,2288,-134,-763,542,4585,50,37,819
1002893,1946552,2107536,1948502,2112342,1380,3449,-2846,2199,-93,-1092,428,4663,50,37,819
1003895,1946740,2107716,1948699,2112539,1659,3257,-2716,2145,-50,-1366,162,4795,40,38,820
1004896,1946908,2107892,1948896,2112736,1797,3291,-2590,2092,14,-1596,-281,5007,40,38,820
1005897,1947120,2108072,1949093,2112933,1517,3275,-2482,2087,115,-1699,-746,5304,34,41,818
1006898,1947284,2108240,1949290,2113130,1831,3363,-2372,2085,267,-1774,-1106,5375,34,41,818
1007906,1947472,2108436,1949520,2113360,1701,3204,-2254,2072,452,-1880,-1234,5383,40,39,818
1008901,1947688,2108632,1949717,2113557,1517,3206,-2109,1986,638,-2066,-1107,5252,49,30,819
1009901,1947864,2108848,1949914,2113754,1776,3073,-1946,1832,808,-2279,-881,5238,49,30,819
1010902,1948040,2109040,1950111,2113951,1787,3227,-1770,1703,974,-2421,-770,5329,50,28,820
1011903,1948232,2109224,1950308,2114148,1689,3283,-1565,1486,1166,-2494,-608,5107,50,28,820
1012904,1948428,2109396,1950505,2114345,1665,3370,-1133,1009,1615,-2716,-735,5301,31,45,818
1013905,1948580,2109588,1950702,2114542,1960,3249,-932,861,1839,-2808,-969,5758,31,45,818
1014906,1948748,2109796,1950899,2114739,1873,3145,-735,776,2027,-2838,-896,5794,26,38,819
1015907,1948912,2110032,1951096,2114936,1913,2954,-527,653,2149,-2714,-619,5719,26,38,819
1016908,1949068,2110272,1951293,2115133,1981,2911,-331,460,2239,-2506,-693,5766,47,41,818
1017909,1949252,2110468,1951490,2115330,1813,3187,-132,270,2334,-2222,-817,5521,47,41,818
1018909,1949416,2110672,1951687,2115527,1952,3135,85,-14,2423,-1949,-932,5262,28,35,821
1019911,1949548,2110880,1951884,2115724,2181,3105,326,-380,2479,-1800,-961,5124,28,35,821
1020912,1949728,2111144,1952081,2115921,1890,2727,558,-703,2489,-1729,-998,5224,30,46,820
1021913,1949876,2111400,1952278,2116118,2111,2752,766,-992,2460,-1653,-915,5214,30,46,820
1022914,1950052,2111636,1952475,2116315,1946,2861,963,-1258,2442,-1363,-891,5278,45,37,822
1023915,1950220,2111864,1952672,2116512,2009,2898,1175,-1581,2468,-1095,-984,5113,45,37,822
1024916,1950364,2112080,1952869,2116709,2183,2966,1412,-1863,2533,-956,-1225,5083,39,52,821
1025917,1950484,2112316,1953066,2116906,2367,2825,1656,-2195,2579,-854,-1183,4882,39,52,821
1026918,1950600,2112500,1953263,2117103,2429,3156,1903,-2529,2600,-721,-1147,4821,19,43,819
1027919,1950760,2112756,1953460,2117300,2170,2681,2150,-2839,2609,-673,-1051,4771,19,43,819
1028920,1950884,2113044,1953657,2117497,2428,2441,2385,-3124,2620,-612,-878,4726,43,51,816
1029921,1951004,2113256,1953854,2117694,2487,2911,2591,-3360,2659,-543,-517,4825,43,51,816
1030922,1951156,2113476,1954051,2117891,2308,2852,2770,-3538,2738,-495,-146,4855,42,38,820
1031923,1951320,2113700,1954248,2118088,2247,2816,2933,-3632,2819,-549,-4,5012,42,38,820
1032924,1951452,2113928,1954445,2118285,2477,2778,3094,-3677,2859,-664,-114,4974,29,42,819
1033925,1951596,2114168,1954642,2118482,2425,2685,3263,-3704,2843,-749,-181,5082,29,42,819
1034926,1951740,2114408,1954839,2118679,2449,2666,3404,-3567,2801,-802,-197,5401,22,41,819
1035927,1951860,2114640,1955036,2118876,2634,2702,3515,-3298,2766,-904,-36,5565,22,41,819
1036928,1952036,2114832,1955233,2119073,2293,2955,3602,-2951,2771,-1047,-326,5688,36,49,820
1037929,1952172,2115068,1955430,2119270,2571,2664,3670,-2572,2805,-1094,-612,5738,36,49,820
1038930,1952300,2115300,1955627,2119467,2652,2675,3715,-2096,2824,-1054,-756,5842,40,37,817
1039931,1952484,2115520,1955824,2119664,2308,2740,3741,-1650,2798,-1054,-570,5522,40,37,817
1040931,1952656,2115736,1956021,2119861,2395,2757,3771,-1253,2742,-1056,-307,5264,47,35,818
1041933,1952820,2115960,1956218,2120058,2460,2696,3813,-894,2688,-1014,-22,4996,47,35,818
1042933,1953036,2116188,1956415,2120255,2127,2659,3853,-588,2639,-912,-23,4688,48,38,820
1043935,1953192,2116392,1956612,2120452,2521,2807,3865,-316,2607,-744,-398,4489,48,38,820
1044936,1953372,2116612,1956809,2120649,2379,2697,3862,-142,2595,-626,-673,4108,30,51,822
1045937,1953556,2116896,1957006,2120846,2361,2259,3853,-14,2572,-422,-568,3853,30,51,822
1046938,1953744,2117172,1957203,2121043,2341,2276,3839,73,2512,-184,-199,3601,51,56,820
1047939,1953944,2117448,1957400,2121240,2264,2242,3807,134,2450,74,-39,3429,51,56,820
1048940,1954136,2117684,1957597,2121437,2317,2475,3778,171,2421,262,-80,3212,55,44,822
1049941,1954364,2117940,1957794,2121634,2080,2325,3744,196,2414,422,-255,3093,55,44,822
1050942,1954548,2118240,1957991,2121831,2361,2006,3695,184,2406,596,-457,2956,57,59,821
1051943,1954752,2118536,1958188,2122028,2233,1987,3634,145,2347,672,135,2708,57,59,821
1052943,1954976,2118844,1958385,2122225,2098,1864,3547,32,2208,806,626,2432,54,62,825
1053945,1955180,2119108,1958582,2122422,2220,2111,3448,-119,2036,955,752,2206,54,62,825
1054946,1955392,2119420,1958779,2122619,2164,1760,3337,-249,1884,1122,651,2223,54,59,826
1055947,1955628,2119736,1958976,2122816,1998,1684,3209,-300,1743,1154,717,2273,54,59,826
1056948,1955824,2120056,1959173,2123013,2248,1606,3089,-339,1574,1087,915,2244,50,67,826
1057949,1956024,2120356,1959370,2123210,2223,1686,2974,-356,1390,1160,733,2233,50,67,826
1058949,1956252,2120700,1959567,2123407,2034,1347,2858,-377,1204,1187,700,2136,56,56,827
1059951,1956456,2121040,1959764,2123604,2182,1309,2735,-373,1041,1195,477,2107,56,56,827
1060952,1956692,2121372,1959961,2123801,1966,1301,2593,-426,886,1116,457,1973,53,50,827
1061953,1956928,2121684,1960158,2123998,1949,1375,2439,-449,755,1071,328,1953,53,50,827
1062954,1957112,2121956,1960355,2124195,2281,1593,2278,-478,648,1018,561,1686,37,53,829
1063955,1957344,2122288,1960552,2124392,1966,1159,2109,-584,536,1020,1174,1525,37,53,829
1064955,1957544,2122604,1960749,2124589,2165,1207,1958,-676,453,1095,1277,1573,37,69,826
1065956,1957756,2122908,1960946,2124786,2084,1236,1837,-702,437,1143,1030,1725,37,69,826
1066957,1957956,2123192,1961143,2124983,2158,1323,1729,-646,472,1069,1210,1858,37,59,829
1067959,1958200,2123460,1961340,2125180,1863,1392,1605,-522,529,1014,1309,2041,37,59,829
1068959,1958412,2123768,1961537,2125377,2058,1094,1451,-301,587,1012,1062,2096,39,49,829
1069961,1958608,2124072,1961734,2125574,2158,1072,1273,-109,646,1103,747,2030,39,49,829
1070962,1958832,2124344,1961931,2125771,1972,1239,1086,59,680,1197,1011,1931,33,49,829
1071963,1959020,2124608,1962128,2125968,2201,1260,892,105,665,1255,1486,1676,33,49,829
1072964,1959192,2124848,1962325,2126165,2313,1391,692,162,628,1376,1015,1703,49,46,829
1073965,1959380,2125116,1962522,2126362,2218,1185,500,238,605,1423,635,1734,49,46,829
1074966,1959632,2125444,1962719,2126559,1794,752,313,386,596,1428,612,1926,37,61,828
1075967,1959836,2125740,1962916,2126756,2092,910,123,590,605,1549,288,2190,37,61,828
1076968,1960048,2126044,1963113,2126953,2035,813,-74,843,625,1702,259,2251,53,54,832
1077969,1960260,2126304,1963310,2127150,2030,1060,-281,1092,607,1854,346,2321,53,54,832
1078970,1960468,2126488,1963507,2127347,2050,1541,-492,1345,528,1933,317,2365,48,56,831
1079971,1960692,2126716,1963704,2127544,1939,1252,-713,1606,402,1917,308,2414,48,56,831
1080972,1960960,2127012,1963901,2127741,1634,784,-945,1883,236,1933,379,2499,59,47,829
1081973,1961208,2127252,1964098,2127938,1737,1116,-1196,2213,45,2060,434,2540,59,47,829
1082974,1961480,2127492,1964295,2128135,1555,1097,-1445,2520,-160,2271,454,2511,43,58,832
1083975,1961764,2127728,1964492,2128332,1441,1105,-1682,2788,-347,2383,337,2501,43,58,832
1084976,1962004,2128004,1964689,2128529,1698,820,-1909,3044,-521,2385,346,2504,66,45,832
1085976,1962244,2128268,1964886,2128726,1680,866,-2122,3232,-715,2315,483,2388,66,45,832
1086978,1962592,2128504,1965083,2128923,939,1024,-2312,3374,-974,2224,925,2223,61,44,833
1087979,1962840,2128704,1965280,2129120,1542,1247,-2494,3458,-1277,2162,1066,2095,61,44,833
1088980,1963120,2128916,1965477,2129317,1306,1166,-2659,3516,-1564,2203,674,2021,61,36,835
1089981,1963400,2129156,1965674,2129514,1270,972,-2803,3491,-1829,2124,917,1945,61,36,835
1090988,1963676,2129372,1965904,2129744,1276,1128,-2916,3460,-2101,1959,1084,2018,62,33,834
1091983,1963936,2129580,1966101,2129941,1348,1174,-3009,3499,-2328,1873,326,2246,62,33,834
1092984,1964212,2129768,1966298,2130138,1213,1303,-3087,3560,-2502,1680,93,2532,43,25,833
1093985,1964448,2129928,1966495,2130335,1447,1494,-3171,3749,-2647,1522,300,2886,43,25,833
1094986,1964644,2130060,1966692,2130532,1698,1698,-3308,4132,-2761,1523,79,3706,59,34,832
1095987,1964920,2130208,1966889,2130729,1164,1619,-3444,4476,-2859,1328,-31,3281,59,34,832
1096988,1965204,2130336,1967086,2130926,1076,1775,-3521,4525,-2962,1143,-187,2651,54,30,829
1097988,1965464,2130468,1967283,2131123,1198,1778,-3582,4469,-3048,1057,-439,2730,54,30,829
1098990,1965668,2130612,1967480,2131320,1546,1727,-3579,4146,-3099,887,-598,1584,54,29,831
1099991,1965916,2130796,1967677,2131517,1248,1482,-3509,3565,-3139,591,-683,871,54,29,831
1100992,1966160,2130952,1967874,2131714,1253,1675,-3450,2914,-3146,471,-741,985,45,23,830
1101993,1966348,2131104,1968071,2131911,1608,1721,-3425,2354,-3121,318,-766,1286,45,23,830
1102994,1966556,2131268,1968268,2132108,1478,1661,-3472,1890,-3029,127,-826,1757,47,19,831
1103995,1966696,2131404,1968465,2132305,1928,1862,-3588,1574,-2866,17,-868,2216,47,19,831
1104996,1966848,2131524,1968662,2132502,1874,1996,-3745,1326,-2668,-109,-702,2474,41,16,829
1105997,1966988,2131660,1968859,2132699,1974,1923,-3877,1112,-2456,-204,-578,2586,41,16,829
1106998,1967112,2131772,1969056,2132896,2106,2110,-3992,829,-2237,-193,-412,2533,37,18,826
1107999,1967244,2131928,1969253,2133093,2085,1854,-4066,419,-2023,-178,-69,2374,37,18,826
1109000,1967372,2132064,1969450,2133290,2141,2006,-4108,-44,-1795,-184,194,2462,21,21,824
1110001,1967544,2132196,1969647,2133487,1878,2060,-4140,-461,-1549,-224,363,2736,21,21,824
1111002,1967724,2132340,1969844,2133684,1835,2008,-4185,-764,-1276,-306,503,3042,28,28,825
1112003,1967900,2132476,1970041,2133881,1869,2086,-4242,-963,-964,-267,336,3477,28,28,825
1113004,1968060,2132616,1970238,2134078,1987,2086,-4288,-1103,-667,-177,254,3653,33,33,826
1114005,1968260,2132752,1970435,2134275,1735,2138,-4320,-1208,-414,-120,-280,3987,33,33,826
1115006,1968468,2132864,1970632,2134472,1681,2325,-4320,-1347,-193,-57,-913,3870,49,18,824
1116007,1968672,2132988,1970829,2134669,1703,2283,-4303,-1577,-12,53,-1187,3876,49,18,824
1117008,1968828,2133096,1971026,2134866,2021,2422,-4278,-1798,105,228,-1245,4036,46,31,824
1118009,1969000,2133216,1971223,2135063,1933,2381,-4262,-1957,170,528,-1603,4318,46,31,824
1119010,1969172,2133368,1971420,2135260,1944,2202,-4268,-2052,226,866,-2088,4578,28,30,823
1120011,1969336,2133528,1971617,2135457,2010,2168,-4270,-2194,288,1345,-2297,4570,28,30,823
1121012,1969504,2133696,1971814,2135654,1998,2132,-4228,-2457,342,1984,-2330,4178,26,28,824
1122013,1969696,2133872,1972011,2135851,1851,2091,-4141,-2813,387,2541,-2286,4184,26,28,824
1123014,1969868,2134048,1972208,2136048,1987,2100,-4073,-3087,435,2835,-2299,4547,25,37,825
1124015,1970076,2134212,1972405,2136245,1757,2191,-4013,-3278,460,2955,-2028,4747,25,37,825
1125016,1970288,2134356,1972602,2136442,1726,2339,-3979,-3353,422,3015,-1520,5257,48,24,825
1126017,1970512,2134512,1972799,2136639,1640,2282,-3960,-3311,347,3079,-1373,5683,48,24,825
1127018,1970732,2134652,1972996,2136836,1655,2408,-3939,-3145,270,3042,-1471,6282,51,30,824
1128019,1970968,2134808,1973193,2137033,1538,2326,-3894,-2893,189,2847,-1647,6684,51,30,824
1129020,1971164,2134968,1973390,2137230,1790,2319,-3814,-2538,68,2742,-1855,7006,48,29,825
1130020,1971348,2135192,1973587,2137427,1870,1907,-3700,-2112,-79,2605,-2217,7283,48,29,825
1131021,1971552,2135356,1973784,2137624,1742,2297,-3534,-1675,-214,2484,-2663,7333,42,32,825
1132023,1971740,2135536,1973981,2137821,1847,2205,-3331,-1220,-344,2387,-2751,7532,42,32,825
1133023,1971940,2135684,1974178,2138018,1771,2426,-3109,-738,-461,2407,-2789,7798,46,42,826
1134025,1972148,2135816,1974375,2138215,1717,2556,-2885,-218,-543,2538,-2840,7855,46,42,826
1135025,1972352,2135960,1974572,2138412,1739,2504,-2656,257,-596,2656,-2687,7635,51,41,825
1136027,1972536,2136156,1974769,2138609,1871,2180,-2438,679,-661,2532,-1822,7655,51,41,825
1137028,1972768,2136316,1974966,2138806,1555,2422,-2234,1138,-761,2119,-1240,7896,44,33,823
1138029,1972964,2136492,1975163,2139003,1781,2332,-2036,1643,-878,1625,-1020,8077,44,33,823
1139030,1973132,2136620,1975360,2139200,1970,2662,-1818,2149,-958,1300,-817,8108,25,30,824
1140031,1973380,2136788,1975557,2139397,1447,2426,-1552,2644,-983,1147,-746,8040,25,30,824
1141032,1973540,2136992,1975754,2139594,2014,2198,-1252,2991,-947,1099,-839,7681,45,37,822
1142033,1973732,2137184,1975951,2139791,1817,2276,-933,3249,-843,1040,-1346,7506,45,37,822
1143034,1973920,2137380,1976148,2139988,1847,2252,-604,3404,-679,964,-1549,7266,35,34,825
1144035,1974132,2137584,1976345,2140185,1690,2200,-284,3495,-457,1127,-1490,6854,35,34,825
1145036,1974300,2137792,1976542,2140382,1978,2170,5,3426,-209,1345,-1188,6328,46,37,825
1146037,1974492,2138040,1976739,2140579,1831,1898,283,3192,1,1513,-454,5849,46,37,825
1147037,1974684,2138244,1976936,2140776,1833,2170,563,2865,178,1571,-210,5610,48,40,825
1148039,1974876,2138440,1977133,2140973,1836,2222,829,2585,291,1247,61,5622,48,40,825
1149040,1975044,2138612,1977330,2141170,1999,2383,1060,2449,323,682,353,5980,29,41,825
1150041,1975272,2138776,1977527,2141367,1611,2448,1251,2364,296,353,371,6152,29,41,825
1151042,1975436,2138940,1977724,2141564,2026,2463,1417,2400,239,172,324,6542,45,39,823
1152043,1975596,2139164,1977921,2141761,2067,2077,1571,2547,183,-23,129,6691,45,39,823
1153044,1975788,2139356,1978118,2141958,1870,2279,1706,2685,151,-237,-534,6641,39,48,824
1154045,1975952,2139556,1978315,2142155,2060,2229,1821,2791,168,-365,-1192,6611,39,48,824
1155045,1976096,2139748,1978512,2142352,2209,2281,1936,2944,225,-418,-1299,6512,35,39,825
1156047,1976292,2139924,1978709,2142549,1885,2391,2054,3052,265,-517,-878,6236,35,39,825
1157048,1976444,2140116,1978906,2142746,2180,2293,2165,3064,264,-706,-425,5902,40,31,823
1158049,1976620,2140308,1979103,2142943,2040,2296,2290,2936,228,-749,-66,5612,40,31,823
1159050,1976780,2140496,1979300,2143140,2157,2325,2419,2755,188,-719,24,5384,29,34,822
1160051,1976936,2140680,1979497,2143337,2200,2357,2535,2544,184,-635,-283,5106,29,34,822
1161052,1977072,2140848,1979694,2143534,2353,2470,2623,2296,231,-495,-674,4854,43,46,823
1162053,1977232,2141020,1979891,2143731,2219,2457,2694,2011,322,-328,-643,4696,43,46,823
1163053,1977400,2141236,1980088,2143928,2183,2174,2758,1680,400,-189,-549,4405,21,45,821
1164055,1977548,2141408,1980285,2144125,2329,2460,2806,1327,407,-204,-576,4339,21,45,821
1165056,1977712,2141572,1980482,2144322,2245,2525,2851,951,359,-296,-655,4142,31,49,823
1166057,1977868,2141780,1980679,2144519,2313,2246,2886,545,276,-372,-179,3964,31,49,823
1167057,1978004,2141972,1980876,2144716,2466,2348,2910,134,180,-451,72,3808,27,37,820
1168059,1978132,2142156,1981073,2144913,2546,2405,2904,-206,133,-573,-262,3930,27,37,820
1169060,1978304,2142348,1981270,2145110,2283,2357,2868,-480,167,-688,-633,3973,19,32,821
1170061,1978448,2142532,1981467,2145307,2481,2414,2810,-735,277,-791,-651,4023,19,32,821
1171062,1978600,2142688,1981664,2145504,2452,2607,2750,-953,421,-845,-616,4022,29,33,819
1172063,1978788,2142892,1981861,2145701,2231,2305,2702,-1128,591,-921,-1113,4057,29,33,819
1173064,1978912,2143080,1982058,2145898,2664,2409,2674,-1266,788,-1043,-1308,4054,35,44,820
1174072,1979096,2143316,1982288,2146128,2310,2107,2672,-1391,939,-1180,-869,3945,35,44,820
1175065,1979284,2143532,1982485,2146325,2289,2224,2692,-1449,1050,-1222,-907,4076,39,39,820
1176066,1979452,2143736,1982682,2146522,2428,2297,2736,-1408,1178,-1292,-1120,4196,39,39,820
1177068,1979612,2143940,1982879,2146719,2494,2294,2780,-1269,1332,-1391,-1178,4489,23,35,823
1178068,1979784,2144160,1983076,2146916,2431,2185,2792,-1065,1476,-1516,-578,4530,23,35,823
1179069,1979932,2144404,1983273,2147113,2604,2014,2754,-838,1595,-1523,-287,4555,45,47,820
1180071,1980088,2144616,1983470,2147310,2572,2208,2679,-605,1682,-1502,-323,4352,45,47,820
1181072,1980264,2144832,1983667,2147507,2457,2176,2595,-415,1737,-1488,-373,4258,41,51,820
1182073,1980436,2145056,1983864,2147704,2494,2114,2510,-236,1797,-1361,-786,4135,41,51,820
1183073,1980576,2145292,1984061,2147901,2719,2023,2427,-66,1900,-1219,-985,4035,35,41,821
1184075,1980760,2145472,1984258,2148098,2451,2381,2344,101,2008,-1068,-956,3912,35,41,821
1185076,1980956,2145732,1984455,2148295,2377,1854,2253,179,2109,-924,-993,3677,36,44,822
1186076,1981096,2145956,1984652,2148492,2752,2067,2166,243,2188,-776,-675,3603,36,44,822
1187077,1981228,2146216,1984849,2148689,2832,1814,2077,224,2236,-640,-197,3261,35,50,823
1188079,1981400,2146460,1985046,2148886,2594,1895,1990,212,2273,-431,107,3232,35,50,823
1189080,1981552,2146656,1985243,2149083,2739,2195,1925,139,2334,-265,402,3059,24,53,821
1190081,1981672,2146912,1985440,2149280,2973,1795,1892,48,2420,-75,311,3092,24,53,821
1191082,1981836,2147156,1985637,2149477,2714,1849,1892,-11,2490,177,157,3054,23,42,821
1192082,1981984,2147404,1985834,2149674,2836,1803,1919,-54,2549,336,-21,3102,23,42,821
1193084,1982084,2147656,1986031,2149871,3179,1754,1941,-45,2570,402,90,3226,33,43,821
1194084,1982256,2147936,1986228,2150068,2741,1543,1948,-49,2532,377,404,3173,33,43,821
1195086,1982476,2148156,1986425,2150265,2432,1908,1951,27,2453,321,400,3396,47,55,820
1196087,1982648,2148336,1986622,2150462,2743,2166,1932,127,2336,246,551,3375,47,55,820
1197087,1982836,2148464,1986819,2150659,2648,2522,1870,234,2210,268,589,3444,46,26,823
1198088,1983032,2148608,1987016,2150856,2599,2445,1754,386,2125,294,721,3631,46,26,823
1199089,1983184,2148756,1987213,2151053,2895,2443,1629,634,2108,290,754,3744,44,29,819
1200090,1983356,2148924,1987410,2151250,2782,2331,1525,911,2105,248,757,3751,44,29,819
1201092,1983512,2149152,1987607,2151447,2900,1943,1461,1175,2049,144,499,3770,28,41,818
1202093,1983676,2149396,1987804,2151644,2866,1822,1450,1376,1897,136,191,3522,28,41,818
1203094,1983820,2149672,1988001,2151841,3015,1588,1476,1561,1631,-74,766,3372,23,60,819
1204095,1983964,2149912,1988198,2152038,3039,1795,1497,1791,1325,-272,1055,3512,23,60,819
1205096,1984116,2150168,1988395,2152235,3009,1669,1496,1945,1055,-294,1122,3381,35,65,820
1206097,1984260,2150504,1988592,2152432,3083,1109,1430,2190,879,-242,1065,3600,35,65,820
1207098,1984396,2150836,1988789,2152629,3161,1074,1269,2459,817,-138,813,3533,23,64,821
1208099,1984532,2151092,1988986,2152826,3189,1524,1029,2700,842,27,137,3533,23,64,821
1209100,1984700,2151412,1989183,2153023,3003,1070,814,2941,935,-3,-139,3562,48,73,822
1210101,1984864,2151728,1989380,2153220,3043,1043,668,3178,1059,-50,-173,3476,48,73,822
1211102,1985032,2152024,1989577,2153417,3032,1125,562,3317,1135,-131,-42,3191,29,66,823
1212103,1985204,2152312,1989774,2153614,3018,1136,451,3393,1108,-308,460,2965,29,66,823
1213104,1985396,2152656,1989971,2153811,2896,721,331,3324,938,-514,1221,2480,51,61,822
1214105,1985572,2153040,1990168,2154008,3006,389,198,3187,673,-698,1618,2249,51,61,822
1215106,1985740,2153444,1990365,2154205,3070,173,53,3000,388,-774,1810,2177,51,72,824
1216107,1985940,2153840,1990562,2154402,2870,135,-112,2847,151,-636,1785,2299,51,72,824
1217108,1986136,2154168,1990759,2154599,2896,503,-277,2745,-20,-545,1748,2515,42,70,826
1218109,1986324,2154380,1990956,2154796,2951,1222,-463,2714,-152,-412,1753,2700,42,70,826
1219109,1986544,2154600,1991153,2154993,2742,1162,-666,2720,-262,-228,1738,2944,50,58,826
1220111,1986760,2154904,1991350,2155190,2759,590,-882,2756,-387,-192,1881,3108,50,58,826
1221112,1986972,2155184,1991547,2155387,2778,704,-1106,2805,-571,-163,2018,3225,54,56,825
1222113,1987220,2155484,1991744,2155584,2532,533,-1338,2830,-819,-176,2165,3190,54,56,825
1223114,1987408,2155744,1991941,2155781,2912,756,-1562,2843,-1092,-105,2126,3145,55,46,827
1224115,1987612,2155964,1992138,2155978,2809,996,-1783,2737,-1366,-45,2227,2924,55,46,827
1225116,1987860,2156176,1992335,2156175,2513,1039,-2013,2618,-1617,130,2325,3030,57,42,826
1226117,1988068,2156364,1992532,2156372,2759,1193,-2243,2509,-1831,218,2401,2915,57,42,826
1227118,1988276,2156528,1992729,2156569,2754,1358,-2466,2446,-2026,311,2462,3107,45,42,826
1228119,1988508,2156728,1992926,2156766,2590,1131,-2664,2357,-2174,414,2097,3116,45,42,826
1229120,1988724,2156924,1993123,2156963,2683,1157,-2831,2290,-2236,646,1507,3248,55,45,825
1230121,1988956,2157100,1993320,2157160,2568,1291,-2951,2189,-2268,733,1011,3148,55,45,825
1231122,1989188,2157280,1993517,2157357,2554,1273,-3040,2032,-2363,617,808,3043,57,40,826
1232123,1989436,2157428,1993714,2157554,2432,1495,-3089,1783,-2527,504,449,2839,57,40,826
1233123,1989652,2157592,1993911,2157751,2624,1409,-3103,1588,-2737,339,206,3131,54,43,826
1234125,1989868,2157732,1994108,2157948,2617,1584,-3075,1527,-2945,39,39,3415,54,43,826
1235126,1990076,2157860,1994305,2158145,2663,1690,-3037,1584,-3151,-216,-81,3871,35,35,824
1236127,1990276,2158016,1994502,2158342,2713,1533,-2982,1680,-3356,-397,-252,4110,35,35,824
1237128,1990488,2158184,1994699,2158539,2632,1471,-2942,1953,-3538,-434,-629,4738,34,26,823
1238129,1990696,2158364,1994896,2158736,2652,1403,-2951,2455,-3676,-543,-1077,5450,34,26,823
1239130,1990912,2158564,1995093,2158933,2595,1277,-3008,2975,-3762,-826,-1471,5486,48,41,824
1240131,1991116,2158712,1995290,2159130,2668,1623,-3079,3432,-3834,-1059,-1675,5480,48,41,824
1241132,1991336,2158848,1995487,2159327,2559,1725,-3140,3846,-3935,-1291,-1787,5382,45,38,825
1242133,1991556,2158984,1995684,2159524,2550,1752,-3145,4121,-4089,-1599,-1798,4954,45,38,825
1243134,1991768,2159108,1995881,2159721,2593,1859,-3064,4193,-4239,-1811,-1988,4454,34,25,823
1244135,1991996,2159240,1996078,2159918,2480,1838,-2954,4146,-4300,-1847,-2296,4366,34,25,823
1245136,1992232,2159384,1996275,2160115,2414,1787,-2852,4138,-4239,-1794,-2422,4480,39,22,823
1246137,1992476,2159528,1996472,2160312,2345,1810,-2789,4011,-4095,-1853,-2316,4093,39,22,823
1247138,1992696,2159660,1996669,2160509,2485,1914,-2728,3757,-3910,-1912,-2160,3957,55,37,823
1248139,1992920,2159832,1996866,2160706,2449,1675,-2627,3399,-3712,-2003,-1885,3776,55,37,823
1249140,1993168,2159988,1997063,2160903,2277,1793,-2483,2970,-3515,-2110,-1965,3543,48,26,823
1250141,1993420,2160172,1997260,2161100,2229,1624,-2307,2469,-3318,-2232,-2295,3459,48,26,823
1251142,1993680,2160296,1997457,2161297,2151,2031,-2117,1980,-3124,-2507,-2528,3710,51,24,825
1252143,1993940,2160432,1997654,2161494,2125,1983,-1951,1557,-2926,-2705,-2658,4153,51,24,825
1253144,1994208,2160588,1997851,2161691,2044,1876,-1810,1227,-2690,-2721,-2729,4341,49,29,826
1254145,1994452,2160720,1998048,2161888,2175,2055,-1679,933,-2409,-2694,-2483,4558,49,29,826
1255146,1994724,2160876,1998245,2162085,1967,1924,-1546,586,-2148,-2794,-1805,4640,53,24,825
1256147,1995008,2161032,1998442,2162282,1855,1942,-1416,266,-1939,-2858,-1295,4809,53,24,825
1257157,1995296,2161188,1998672,2162512,1805,1974,-1253,-31,-1771,-2849,-1105,4861,62,33,825
1258149,1995564,2161344,1998869,2162709,1899,1992,-1074,-325,-1636,-2773,-1073,4929,62,33,825
1259150,1995840,2161464,1999066,2162906,1815,2251,-877,-602,-1527,-2696,-1103,5135,54,39,825
1260151,1996144,2161616,1999263,2163103,1594,2072,-678,-856,-1428,-2501,-1298,5313,54,39,825
1261152,1996460,2161760,1999460,2163300,1467,2145,-439,-1092,-1314,-2168,-1522,5362,61,29,825
1262153,1996736,2161892,1999657,2163497,1683,2249,-164,-1305,-1177,-1850,-1592,5461,61,29,825
1263154,1997028,2162024,1999854,2163694,1541,2278,126,-1547,-1033,-1500,-1539,5333,54,41,827
1264154,1997344,2162184,2000051,2163891,1340,2120,423,-1825,-918,-1141,-1203,5138,54,41,827
1265155,1997632,2162312,2000248,2164088,1475,2350,730,-2202,-841,-794,-734,4919,70,25,825
1266156,1997940,2162444,2000445,2164285,1302,2355,1049,-2650,-807,-525,-469,4648,70,25,825
1267158,1998212,2162588,2000642,2164482,1494,2303,1357,-3132,-800,-261,-451,4671,67,22,827
1268159,1998492,2162716,2000839,2164679,1409,2433,1640,-3584,-804,31,-438,4649,67,22,827
1269160,1998804,2162824,2001036,2164876,1158,2598,1890,-3942,-814,318,-507,4877,52,28,827
1270161,1999056,2162940,2001233,2165073,1510,2584,2114,-4195,-822,529,-627,4952,52,28,827
1271162,1999348,2163056,2001430,2165270,1218,2620,2310,-4394,-835,676,-799,5100,65,34,824
1272163,1999632,2163212,2001627,2165467,1230,2388,2490,-4565,-858,808,-838,5144,65,34,824
1273164,1999888,2163344,2001824,2165664,1380,2567,2657,-4675,-888,842,-569,5242,58,21,824
1274165,2000132,2163468,2002021,2165861,1435,2650,2803,-4668,-932,757,-145,5431,58,21,824
1275166,2000412,2163596,2002218,2166058,1174,2655,2936,-4606,-985,642,-1,5564,52,26,826
1276167,2000608,2163720,2002415,2166255,1700,2714,3054,-4431,-1033,547,21,5845,52,26,826
1277168,2000820,2163852,2002612,2166452,1593,2692,3149,-4133,-1083,538,61,5936,51,35,824
1278169,2001052,2164004,2002809,2166649,1454,2588,3229,-3804,-1131,412,-4,5900,51,35,824
1279170,2001324,2164136,2003006,2166846,1171,2741,3305,-3494,-1167,289,-287,5778,39,24,823
1280171,2001560,2164244,2003203,2167043,1379,2932,3392,-3171,-1166,217,-480,5524,39,24,823
1281172,2001796,2164388,2003400,2167240,1361,2730,3467,-2875,-1122,120,-485,5362,47,22,824
1282173,2002036,2164520,2003597,2167437,1318,2834,3555,-2613,-1076,-71,-189,5095,47,22,824
1283174,2002272,2164684,2003794,2167634,1326,2649,3630,-2376,-1044,-201,13,4809,54,29,822
1284175,2002512,2164824,2003991,2167831,1282,2825,3715,-2145,-1022,-333,143,4693,54,29,822
1285176,2002776,2165004,2004188,2168028,1104,2582,3807,-1943,-1003,-484,249,4492,39,26,823
1286177,2003044,2165144,2004385,2168225,1048,2858,3901,-1713,-974,-555,74,4379,39,26,823
1287178,2003324,2165304,2004582,2168422,936,2751,3982,-1477,-907,-604,-87,4282,59,29,824
1288179,2003600,2165448,2004779,2168619,927,2874,4032,-1265,-800,-679,-149,4114,59,29,824
1289180,2003848,2165616,2004976,2168816,1080,2738,4048,-1068,-653,-737,-181,3954,42,32,824
1290181,2004112,2165788,2005173,2169013,951,2724,4019,-871,-487,-762,-77,3716,42,32,824
1291182,2004404,2165976,2005370,2169210,734,2629,3948,-757,-320,-775,38,3393,59,42,826
1292183,2004644,2166144,2005567,2169407,1040,2767,3857,-701,-171,-792,181,3102,59,42,826
1293184,2004872,2166332,2005764,2169604,1101,2646,3749,-726,-44,-838,340,2766,44,25,824
1294185,2005160,2166488,2005961,2169801,688,2865,3646,-837,64,-848,506,2413,44,25,824
1295186,2005380,2166656,2006158,2169998,1102,2804,3535,-991,168,-786,770,2126,54,28,825
1296187,2005580,2166832,2006355,2170195,1226,2763,3415,-1217,271,-581,777,1783,54,28,825
1297187,2005780,2166996,2006552,2170392,1225,2854,3266,-1537,404,-415,557,1494,48,30,826
1298189,2006004,2167168,2006749,2170589,1063,2815,3093,-1843,600,-171,-5,1403,48,30,826
1299190,2006196,2167372,2006946,2170786,1265,2613,2913,-2226,849,-19,-261,1131,50,44,825
1300191,2006388,2167588,2007143,2170983,1267,2530,2705,-2586,1118,112,7,1188,50,44,825
1301192,2006576,2167772,2007340,2171180,1297,2736,2491,-2936,1372,238,412,1076,47,52,825
1302193,2006768,2167980,2007537,2171377,1274,2582,2273,-3286,1626,369,500,1109,47,52,825
1303194,2006932,2168172,2007734,2171574,1464,2686,2053,-3564,1869,486,668,1212,46,35,825
1304195,2007116,2168380,2007931,2171771,1345,2581,1818,-3793,2075,537,930,1292,46,35,825
1305196,2007280,2168612,2008128,2171968,1484,2416,1575,-3963,2219,625,1109,1484,34,37,826
1306197,2007432,2168800,2008325,2172165,1579,2696,1308,-4094,2291,697,1194,1644,34,37,826
1307198,2007608,2168984,2008522,2172362,1439,2727,1018,-4143,2323,840,1156,1899,41,42,825
1308199,2007760,2169180,2008719,2172559,1609,2653,695,-4073,2343,974,1073,2197,41,42,825
1309200,2007888,2169364,2008916,2172756,1789,2735,335,-3917,2362,1088,1034,2545,20,44,824
1310201,2008044,2169544,2009113,2172953,1632,2768,-49,-3673,2368,1136,1188,2816,20,44,824
1311201,2008196,2169716,2009310,2173150,1677,2830,-454,-3324,2342,1244,1318,3151,19,38,824
1312203,2008308,2169908,2009507,2173347,1964,2708,-833,-2928,2278,1406,1388,3305,19,38,824
1313203,2008500,2170084,2009704,2173544,1468,2817,-1154,-2523,2195,1573,1291,3447,21,24,822
1314204,2008656,2170244,2009901,2173741,1711,2934,-1432,-2123,2077,1693,1553,3446,21,24,822
1315205,2008776,2170372,2010098,2173938,1969,3165,-1700,-1822,1897,1797,1802,3315,29,19,820
1316207,2008956,2170484,2010295,2174135,1602,3303,-1963,-1571,1685,1907,1839,3330,29,19,820
1317208,2009120,2170632,2010492,2174332,1717,3100,-2247,-1384,1445,2017,1781,3261,31,18,821
1318209,2009284,2170776,2010689,2174529,1732,3150,-2540,-1209,1231,2257,1482,3436,31,18,821
1319210,2009468,2170928,2010886,2174726,1613,3120,-2830,-1038,1068,2400,1378,3552,43,20,819
1320211,2009632,2171052,2011083,2174923,1752,3328,-3103,-850,911,2493,1335,3669,43,20,819
1321212,2009824,2171208,2011280,2175120,1580,3147,-3356,-591,731,2459,1285,3869,34,23,819
1322212,2009988,2171364,2011477,2175317,1770,3165,-3588,-312,515,2306,1275,4230,34,23,819
1323213,2010184,2171512,2011674,2175514,1570,3237,-3774,-12,292,2183,1133,4367,36,22,818
1324215,2010372,2171672,2011871,2175711,1625,3179,-3916,248,73,1982,1075,4405,36,22,818
1325216,2010552,2171832,2012068,2175908,1683,3197,-4018,539,-115,1749,1049,4597,30,30,818
1326217,2010756,2171960,2012265,2176105,1530,3428,-4095,813,-268,1476,881,4857,30,30,818
1327217,2010964,2172104,2012462,2176302,1500,3351,-4138,1126,-383,1156,694,5020,36,28,818
1328219,2011148,2172244,2012659,2176499,1657,3402,-4145,1429,-444,901,523,5150,36,28,818
1329220,2011360,2172404,2012856,2176696,1475,3295,-4109,1734,-465,603,397,5186,32,23,818
1330221,2011552,2172560,2013053,2176893,1602,3339,-4027,1921,-466,232,450,5104,32,23,818
1331221,2011728,2172732,2013250,2177090,1712,3251,-3922,2098,-464,-101,451,5162,48,35,818
1332223,2011936,2172876,2013447,2177287,1508,3449,-3803,2200,-474,-423,492,5081,48,35,818
1333224,2012136,2173052,2013644,2177484,1556,3259,-3681,2283,-488,-722,297,5038,47,39,818
1334225,2012320,2173204,2013841,2177681,1662,3430,-3546,2308,-499,-1014,-3,5068,47,39,818
1335226,2012504,2173372,2014038,2177878,1669,3344,-3394,2329,-485,-1304,-339,5201,31,31,816
1336227,2012700,2173548,2014235,2178075,1594,3304,-3215,2326,-430,-1594,-696,5265,31,31,816
1337228,2012904,2173720,2014432,2178272,1541,3341,-3029,2306,-329,-1812,-975,5375,29,31,817
1338229,2013092,2173940,2014629,2178469,1646,3032,-2844,2253,-173,-2045,-1167,5359,29,31,817
1339230,2013264,2174144,2014826,2178666,1757,3129,-2664,2163,25,-2263,-1330,5313,32,33,820
1340238,2013460,2174352,2015056,2178896,1622,3114,-2485,2057,262,-2469,-1474,5427,32,33,820
1341232,2013632,2174552,2015253,2179093,1784,3164,-2286,1858,531,-2604,-1491,5213,37,35,821
1342233,2013816,2174760,2015450,2179290,1715,3110,-2042,1638,817,-2695,-1518,5084,37,35,821
1343234,2014000,2174952,2015647,2179487,1720,3213,-1760,1322,1105,-2868,-1566,4996,47,47,821
1344235,2014168,2175152,2015844,2179684,1833,3163,-1465,1009,1375,-2993,-1718,5209,47,47,821
1345236,2014324,2175356,2016041,2179881,1927,3136,-1183,748,1621,-3054,-1885,5603,30,37,820
1346237,2014496,2175592,2016238,2180078,1838,2919,-899,553,1826,-3034,-1780,5579,30,37,820
1347237,2014660,2175832,2016435,2180275,1903,2876,-610,328,2001,-2906,-1665,5556,39,57,818
1348239,2014808,2176072,2016632,2180472,2025,2858,-331,144,2176,-2686,-1671,5752,39,57,818
1349240,2014976,2176280,2016829,2180669,1913,3054,-57,-72,2358,-2441,-1707,5728,40,45,820
1350241,2015108,2176528,2017026,2180866,2166,2783,232,-350,2523,-2244,-1543,5533,40,45,820
1351242,2015276,2176768,2017223,2181063,1955,2815,523,-638,2653,-2076,-1448,5499,35,42,821
1352243,2015420,2176992,2017420,2181260,2128,2903,814,-941,2730,-1903,-1266,5455,35,42,821
