"Data file recorded 2014/9/24  13:49:16"
"%  Right Stride Frequency         = 3.0"
"%  Left Stride Frequency         = 3.0"
"%  Phase (Fractional)         = 32768.0"
"%  Experiment.py "
"%  Motor Gains    = [1800, 200, 100, 0, 0, 1800, 200, 100, 0, 0]
"% Columns: "
"% time | Right Leg Pos | Left Leg Pos | Commanded Right Leg Pos | Commanded Left Leg Pos | DCR | DCL | GyroX | GryoY | GryoZ | AX | AY | AZ | RBEMF | LBEMF | VBatt "
11427,1198492,1831188,1219928,1842520,3800,3800,502,753,-1138,99,-403,4043,7,5,922
12421,1198504,1831188,1220125,1842717,3800,3800,503,752,-1139,112,-418,4055,7,5,922
13422,1198564,1831196,1220322,1842914,3800,3800,504,753,-1144,116,-409,4066,-9,-2,922
14423,1198684,1831256,1220519,1843111,3800,3800,503,756,-1141,125,-387,4089,-9,-2,922
15424,1198852,1831464,1220716,1843308,3800,3800,508,774,-1134,160,-264,4090,18,36,879
16425,1199084,1831728,1220913,1843505,3800,3800,510,826,-1132,215,-322,4160,18,36,879
17426,1199360,1832000,1221110,1843702,3800,3800,515,800,-1165,179,-236,4105,36,58,879
18427,1199660,1832296,1221307,1843899,3800,3800,491,847,-1237,98,-331,4297,36,58,879
19428,1200044,1832596,1221504,1844096,3800,3800,424,958,-1299,1,-745,4477,70,59,882
20429,1200420,1832888,1221701,1844293,3800,3800,347,1141,-1349,-53,-241,4487,70,59,882
21430,1200808,1833168,1221898,1844490,3800,3800,290,1261,-1410,-73,124,4375,72,57,882
22431,1201244,1833432,1222095,1844687,3800,3800,236,1418,-1466,-168,-91,4564,72,57,882
23432,1201628,1833676,1222292,1844884,3800,3800,191,1517,-1501,-290,-423,4454,93,51,882
24433,1202040,1833912,1222489,1845081,3800,3800,177,1517,-1532,-162,-384,4085,93,51,882
25434,1202472,1834088,1222686,1845278,3800,3800,224,1384,-1570,159,-33,3825,90,51,881
26435,1202844,1834260,1222883,1845475,3800,3800,306,1255,-1610,370,91,3868,90,51,881
27436,1203228,1834416,1223080,1845672,3800,3800,395,1095,-1688,445,130,3811,79,36,880
28437,1203652,1834532,1223277,1845869,3800,3800,462,1049,-1824,430,53,4336,79,36,880
29438,1204028,1834620,1223474,1846066,3800,3800,486,1144,-1981,500,-420,4813,85,38,880
30439,1204432,1834676,1223671,1846263,3800,3800,470,1349,-2158,742,-469,5104,85,38,880
31440,1204876,1834720,1223868,1846460,3800,3800,439,1625,-2307,1045,-676,5587,88,22,879
32441,1205268,1834740,1224065,1846657,3800,3800,967,2918,-2405,2347,-1824,14991,88,22,879
33442,1205700,1834768,1224262,1846854,3800,3800,2044,5231,-2545,2928,-2703,19880,78,4,879
34443,1206128,1834784,1224459,1847051,3800,3800,2550,6071,-2664,1273,-2516,5141,78,4,879
35444,1206584,1834812,1224656,1847248,3800,3800,2457,5655,-2757,1131,-2649,3803,99,3,879
36445,1207016,1834832,1224853,1847445,3800,3800,2209,4848,-2880,1282,-2451,3264,99,3,879
37446,1207464,1834844,1225050,1847642,3800,3800,2053,4212,-3044,1365,-1632,2934,96,4,878
38447,1207948,1834884,1225247,1847839,3800,3800,1992,3577,-3219,1477,-1070,2608,96,4,878
39448,1208424,1834916,1225444,1848036,3800,3800,1927,3043,-3383,1667,-880,2774,92,7,879
40449,1208888,1834920,1225641,1848233,3800,3800,1895,2333,-3523,1579,-500,2245,92,7,879
41450,1209456,1834956,1225838,1848430,3800,3800,1920,1554,-3679,1457,-109,2334,100,5,879
42451,1209988,1834984,1226035,1848627,3800,3800,1957,801,-3872,1305,235,2885,100,5,879
43452,1210528,1835040,1226232,1848824,3800,3800,1993,205,-4041,1312,-17,3446,104,21,879
44453,1211100,1835064,1226429,1849021,3800,3800,2021,-136,-4143,976,-324,4518,104,21,879
45454,1211620,1835096,1226626,1849218,3800,3800,2066,-188,-4168,610,-1031,5155,121,7,880
46455,1212152,1835140,1226823,1849415,3800,3800,2102,-68,-4124,26,-1238,5690,121,7,880
47456,1212748,1835172,1227020,1849612,3800,3800,2125,198,-4084,-433,-950,5723,115,8,879
48457,1213324,1835220,1227217,1849809,3800,3800,2129,317,-4095,-628,-203,5360,115,8,879
49446,1213944,1835272,1227414,1850006,3411,3800,2132,445,-4111,-407,618,5596,113,12,879
50446,1214668,1835328,1227611,1850203,2532,3800,2205,554,-4083,-421,1874,5558,113,12,879
51448,1215380,1835368,1227808,1850400,2384,3800,2283,598,-4010,-533,1211,5265,116,13,881
52448,1216016,1835436,1228005,1850597,2668,3800,2411,717,-3835,-1498,-134,5299,116,13,881
53449,1216772,1835488,1228202,1850794,1674,3800,2572,848,-3602,-2081,-1110,4910,125,15,888
54450,1217508,1835552,1228399,1850991,1565,3800,2759,681,-3455,-1848,-1385,3666,125,15,888
55451,1218220,1835636,1228596,1851188,1490,3800,2938,394,-3305,-1908,-1085,3712,134,23,888
56452,1218976,1835748,1228793,1851385,972,3800,3079,249,-3069,-1989,-1022,3762,134,23,888
57453,1219700,1835872,1228990,1851582,942,3800,3202,-8,-2793,-1935,-1342,3215,141,28,893
58454,1220412,1836008,1229187,1851779,793,3800,3363,-259,-2458,-2309,-1264,3228,141,28,893
59455,1221104,1836172,1229384,1851976,702,3800,3540,-565,-2095,-2338,-1236,2857,141,46,894
60456,1221848,1836340,1229581,1852173,138,3800,3687,-851,-1769,-2476,-1546,2716,141,46,894
61457,1222448,1836488,1229778,1852370,863,3800,3816,-1036,-1416,-3501,-1846,3199,128,36,896
62458,1223080,1836648,1229975,1852567,473,3800,3966,-1224,-1032,-3929,-2382,3058,128,36,896
63459,1223656,1836816,1230172,1852764,657,3800,4130,-1351,-657,-3970,-2578,3247,125,51,897
64460,1224200,1837000,1230369,1852961,706,3800,4253,-1275,-223,-4335,-2376,3797,125,51,897
65461,1224664,1837164,1230566,1853158,1090,3800,4345,-1269,187,-4155,-2135,3155,107,36,896
66462,1225176,1837344,1230763,1853355,653,3800,4423,-1441,555,-3926,-1622,2722,107,36,896
67463,1225616,1837484,1230960,1853552,997,3800,4493,-1590,986,-3835,-1181,3022,98,42,896
68464,1225984,1837636,1231157,1853749,1373,3800,4581,-1741,1445,-3703,-1326,2574,98,42,896
69465,1226356,1837792,1231354,1853946,1272,3800,4646,-1951,1927,-3820,-1353,2692,80,27,895
70466,1226712,1837932,1231551,1854143,1303,3800,4721,-2091,2392,-3722,-790,2633,80,27,895
71467,1227020,1838060,1231748,1854340,1555,3800,4752,-2333,2768,-2957,-138,2100,62,28,893
72468,1227320,1838196,1231945,1854537,1561,3800,4762,-2652,3053,-2388,492,1883,62,28,893
73469,1227564,1838324,1232142,1854734,1891,3800,4758,-3130,3306,-1813,823,1408,63,25,893
74470,1227784,1838444,1232339,1854931,2032,3800,4726,-3810,3509,-1010,923,925,63,25,893
75471,1228012,1838552,1232536,1855128,1969,3800,4645,-4396,3709,-711,578,1238,57,16,891
76472,1228212,1838624,1232733,1855325,2143,3800,4495,-4912,3908,-425,704,1141,57,16,891
77473,1228404,1838684,1232930,1855522,2196,3800,4282,-5386,4034,86,912,1277,33,11,888
78474,1228548,1838788,1233127,1855719,2521,3800,3991,-5783,4127,366,990,1765,33,11,888
79475,1228688,1838848,1233324,1855916,2572,3800,3640,-6084,4198,1030,1176,1740,40,12,888
80476,1228804,1838928,1233521,1856113,2758,3800,3198,-6350,4179,2074,1645,2057,40,12,888
81477,1228924,1838988,1233718,1856310,2768,3800,2683,-6497,4054,2829,2155,2240,17,6,885
82478,1229068,1839052,1233915,1856507,2643,3800,2097,-6508,3787,3543,2622,2773,17,6,885
83479,1229208,1839116,1234112,1856704,2694,3800,1347,-6104,3368,3897,2930,4446,37,9,883
84480,1229332,1839184,1234309,1856901,2826,3800,520,-5435,3014,4018,2544,4995,37,9,883
85481,1229456,1839260,1234506,1857098,2859,3800,-241,-4679,2684,4099,3070,5040,38,9,885
86482,1229536,1839320,1234703,1857295,3186,3800,-938,-3980,2254,4094,3407,5224,38,9,885
87483,1229592,1839412,1234900,1857492,3399,3800,-1663,-3048,1708,4218,3672,6435,30,23,883
88484,1229640,1839500,1235097,1857689,3516,3800,-2404,-2078,1157,4693,3442,6262,30,23,883
89486,1229696,1839568,1235294,1857886,3529,3800,-3069,-1394,669,5267,3285,4995,17,17,881
90487,1229732,1839656,1235491,1858083,3725,3800,-3533,-1205,157,5161,3538,3451,17,17,881
91500,1229760,1839784,1235688,1858280,3800,3800,-3828,-1478,-382,4926,3250,2371,5,16,876
92501,1229792,1839888,1235885,1858477,3800,3800,-4057,-1929,-852,4700,2452,2066,5,16,876
93509,1229832,1839988,1236312,1858904,3800,3800,-4236,-2454,-1200,4359,1702,1602,18,22,875
94503,1229880,1840108,1236509,1859101,3800,3800,-4371,-3037,-1500,4080,1113,1134,18,22,875
95504,1229916,1840252,1236706,1859298,3800,3800,-4448,-3640,-1791,3548,464,1186,2,36,876
96505,1229976,1840372,1236903,1859495,3800,3800,-4499,-3985,-2025,2834,-320,2072,2,36,876
97506,1230028,1840520,1237100,1859692,3800,3800,-4532,-4049,-2199,2145,-892,2835,19,24,876
98507,1230068,1840648,1237297,1859889,3800,3800,-4528,-3825,-2328,1400,-1205,3658,19,24,876
99508,1230128,1840812,1237494,1860086,3800,3800,-4473,-3398,-2358,736,-1679,4438,-1,38,875
100509,1230208,1840940,1237691,1860283,3800,3800,-4354,-2870,-2336,-6,-1908,4649,-1,38,875
101510,1230312,1841092,1237888,1860480,3800,3800,-4187,-2324,-2337,-707,-1698,5005,18,25,876
102511,1230460,1841256,1238085,1860677,3800,3800,-3978,-1628,-2351,-1189,-1343,5444,18,25,876
103512,1230600,1841428,1238282,1860874,3800,3800,-3762,-847,-2321,-1452,-1293,5916,23,38,875
104500,1230788,1841612,1238479,1861071,3643,3800,-3545,93,-2188,-1614,-1266,6480,23,38,875
105514,1230944,1841784,1238676,1861268,3800,3800,-3291,1001,-1964,-1773,-1036,6540,49,45,877
106515,1231076,1841972,1238873,1861465,3800,3800,-3000,1778,-1741,-2030,-680,6364,49,45,877
107516,1231212,1842200,1239070,1861662,3800,3800,-2693,2443,-1560,-2143,-373,6283,33,36,879
108517,1231336,1842416,1239267,1861859,3800,3800,-2373,2912,-1403,-1639,152,5680,33,36,879
109518,1231452,1842632,1239464,1862056,3800,3800,-2043,3254,-1285,-729,821,5358,23,37,877
110519,1231584,1842836,1239661,1862253,3800,3800,-1720,3486,-1165,-273,940,5042,23,37,877
111520,1231752,1843048,1239858,1862450,3800,3800,-1429,3601,-989,-216,448,4947,38,37,877
112521,1231932,1843252,1240055,1862647,3800,3800,-1186,3634,-745,-206,-241,5022,38,37,877
113509,1232148,1843492,1240252,1862844,3664,3800,-977,3644,-499,-82,-601,5499,36,44,877
114510,1232356,1843712,1240449,1863041,3710,3800,-717,3651,-348,662,-453,6777,36,44,877
115524,1232532,1843928,1240646,1863238,3800,3800,-384,3636,-320,1369,8,7667,38,48,877
116512,1232752,1844104,1240843,1863435,3637,3800,0,3535,-349,1588,-195,8276,38,48,877
117513,1232980,1844284,1241040,1863632,3575,3800,402,3402,-406,1863,177,8146,39,50,879
118514,1233236,1844448,1241237,1863829,3376,3800,805,3112,-464,2149,678,7427,39,50,879
119515,1233528,1844620,1241434,1864026,3111,3800,1099,2886,-444,1492,-249,7255,51,40,879
120516,1233856,1844748,1241631,1864223,2829,3800,1255,2882,-275,263,-1152,7846,51,40,879
121517,1234136,1844864,1241828,1864420,3095,3800,1358,3199,-48,-468,-1453,8319,52,37,881
122518,1234440,1845000,1242025,1864617,2899,3800,1478,3372,127,-993,-1114,6756,52,37,881
123519,1234772,1845100,1242222,1864814,2666,3800,1627,3330,245,-1197,-772,5434,66,16,884
124520,1235044,1845196,1242419,1865011,3009,3800,1742,3012,333,-942,-321,4194,66,16,884
125521,1235352,1845328,1242616,1865208,2737,3800,1787,2628,514,-1221,-771,3996,60,24,882
126522,1235692,1845424,1242813,1865405,2476,3800,1743,2614,879,-1830,-1733,5000,60,24,882
127523,1235980,1845528,1243010,1865602,2762,3800,1673,2670,1270,-2151,-1772,4487,60,17,883
128524,1236308,1845628,1243207,1865799,2456,3800,1684,2493,1567,-1539,-1002,3569,60,17,883
129526,1236660,1845744,1243404,1865996,2239,3800,1771,2088,1773,-1015,-379,3010,61,32,887
130526,1236960,1845820,1243601,1866193,2520,3800,1863,1623,1969,-1397,-776,3179,61,32,887
131527,1237328,1845920,1243798,1866390,2021,3800,1891,1370,2219,-2020,-1468,3915,75,21,886
132528,1237728,1846012,1243995,1866587,1734,3800,1913,1264,2468,-1777,-1188,3854,75,21,886
133529,1238076,1846092,1244192,1866784,1993,3800,1975,1161,2628,-1056,-560,3428,64,14,887
134530,1238392,1846160,1244389,1866981,2142,3800,2008,1041,2727,-1231,-1011,3772,64,14,887
135531,1238808,1846248,1244586,1867178,1422,3800,1987,880,2786,-1874,-1241,3997,55,17,889
136532,1239140,1846328,1244783,1867375,1888,3800,1949,850,2785,-2080,-1160,4029,55,17,889
137533,1239488,1846376,1244980,1867572,1723,3800,1925,926,2731,-1918,-672,4130,63,9,887
138534,1239848,1846420,1245177,1867769,1577,3800,1894,1059,2708,-1643,-634,4352,63,9,887
139535,1240228,1846456,1245374,1867966,1373,3800,1834,1139,2713,-1259,-680,4295,80,4,889
140536,1240580,1846484,1245571,1868163,1481,3800,1807,1270,2722,-890,-248,3941,80,4,889
141537,1240904,1846520,1245768,1868360,1601,3800,1852,1281,2688,-585,637,3262,77,4,890
142538,1241212,1846576,1245965,1868557,1653,3800,1943,1009,2620,-216,1000,2778,77,4,890
143539,1241552,1846644,1246162,1868754,1391,3800,1953,747,2524,159,1038,3299,57,9,891
144540,1241836,1846680,1246359,1868951,1704,3800,1883,745,2408,442,1030,3457,57,9,891
145541,1242156,1846748,1246556,1869148,1426,3800,1789,724,2277,295,708,3208,60,5,889
146542,1242372,1846788,1246753,1869345,2069,3800,1753,532,2115,45,594,2821,60,5,889
147543,1242620,1846848,1246950,1869542,1847,3800,1776,203,1853,120,944,2469,43,13,888
148544,1242904,1846916,1247147,1869739,1584,3800,1826,-87,1520,500,804,2351,43,13,888
149545,1243136,1847000,1247344,1869936,1895,3800,1855,-435,1205,644,485,2321,40,7,888
150546,1243340,1847096,1247541,1870133,2068,3800,1870,-728,910,685,225,2544,40,7,888
151547,1243560,1847204,1247738,1870330,1959,3800,1879,-890,619,674,-47,2611,36,17,890
152548,1243732,1847328,1247935,1870527,2271,3800,1912,-994,293,449,-291,2563,30,26,888
153550,1243940,1847460,1248132,1870724,2041,3800,1957,-1109,-90,-105,-549,2620,30,26,888
154551,1244164,1847640,1248329,1870921,1930,3800,1989,-1145,-483,-605,-653,3064,50,31,887
155551,1244332,1847808,1248526,1871118,2294,3800,2012,-1018,-844,-547,-578,3204,50,31,887
156553,1244504,1847984,1248723,1871315,2281,3800,2105,-981,-1184,-275,-147,2622,30,41,888
157553,1244688,1848164,1248920,1871512,2212,3800,2257,-1067,-1524,-78,5,2321,30,41,888
158554,1244868,1848324,1249117,1871709,2245,3800,2373,-1195,-1813,203,-168,2355,26,24,886
159555,1245020,1848484,1249314,1871906,2441,3800,2456,-1231,-1988,78,-316,2494,26,24,886
160556,1245212,1848620,1249511,1872103,2194,3800,2550,-1188,-2081,-148,-66,2632,41,25,887
161558,1245384,1848776,1249708,1872300,2331,3800,2629,-1054,-2136,-326,425,2866,41,25,887
162559,1245556,1848920,1249905,1872497,2343,3800,2690,-854,-2198,-463,793,3088,33,27,888
163559,1245720,1849052,1250102,1872694,2407,3800,2738,-684,-2315,-575,1177,2695,33,27,888
164560,1245908,1849172,1250299,1872891,2262,3800,2796,-695,-2454,-693,1322,2188,27,15,886
165561,1246064,1849276,1250496,1873088,2481,3800,2871,-764,-2557,-687,1251,2066,27,15,886
166562,1246244,1849364,1250693,1873285,2340,3800,2936,-862,-2560,-516,936,2098,45,14,886
167563,1246428,1849468,1250890,1873482,2321,3800,2993,-987,-2446,-431,634,1833,45,14,886
168564,1246616,1849564,1251087,1873679,2301,3800,3038,-1180,-2256,-440,623,1777,38,12,885
169565,1246804,1849636,1251284,1873876,2306,3800,3042,-1409,-2049,-231,967,1610,38,12,885
170567,1247024,1849720,1251481,1874073,2096,3800,3006,-1647,-1862,-204,1369,1589,37,27,886
171567,1247212,1849804,1251678,1874270,2301,3800,2941,-1915,-1687,-136,1505,1342,37,27,886
172568,1247416,1849908,1251875,1874467,2199,3800,2845,-2141,-1514,107,1693,1694,50,22,888
173569,1247664,1850000,1252072,1874664,1903,3800,2689,-2226,-1337,357,2180,2128,50,22,888
174570,1247852,1850100,1252269,1874861,2283,3800,2472,-2120,-1177,639,2717,2518,42,19,887
175571,1248072,1850200,1252466,1875058,2073,3800,2224,-2030,-1041,830,2949,2372,42,19,887
176579,1248336,1850300,1252696,1875288,1784,3800,1957,-1927,-949,966,3294,2489,53,21,887
177574,1248528,1850440,1252893,1875485,2237,3800,1664,-1764,-902,1171,3720,2888,53,21,887
178574,1248764,1850612,1253090,1875682,1946,3800,1335,-1575,-889,1472,3887,2833,45,22,888
179575,1248996,1850764,1253287,1875879,1956,3800,972,-1469,-908,1823,4030,2719,45,22,888
180576,1249216,1850916,1253484,1876076,2022,3800,590,-1435,-944,2266,4186,2632,51,25,888
181577,1249452,1851080,1253681,1876273,1906,3800,183,-1425,-976,2908,4331,2819,51,25,888
182578,1249736,1851224,1253878,1876470,1568,3800,-256,-1408,-991,3374,4434,2628,37,36,889
183579,1249980,1851388,1254075,1876667,1798,3800,-675,-1555,-993,3671,4417,2179,37,36,889
184581,1250228,1851608,1254272,1876864,1752,3800,-1040,-1840,-1002,3935,4297,1785,35,45,891
185582,1250448,1851840,1254469,1877061,1918,3800,-1405,-2199,-1018,4233,4138,1827,35,45,891
186582,1250736,1852072,1254666,1877258,1453,3800,-1995,-2120,-800,4615,2504,3684,49,41,891
187583,1250976,1852308,1254863,1877455,1735,3800,-2691,-1884,-419,4542,1843,3321,49,41,891
188584,1251212,1852548,1255060,1877652,1744,3800,-3235,-1818,-81,4767,2466,2833,44,53,892
189585,1251452,1852780,1255257,1877849,1701,3800,-3597,-1923,142,5045,2747,2620,44,53,892
190586,1251712,1853084,1255454,1878046,1548,3800,-3838,-2062,311,5251,2379,2692,57,63,890
191587,1251956,1853400,1255651,1878243,1628,3800,-4083,-2038,509,5114,1849,3340,57,63,890
192588,1252212,1853712,1255848,1878440,1528,3800,-4234,-1976,619,4529,2001,3068,39,49,892
193590,1252448,1853988,1256045,1878637,1637,3800,-4327,-1914,623,4083,1875,3280,39,49,892
194590,1252684,1854256,1256242,1878834,1620,3800,-4423,-1681,541,3864,2063,3987,40,72,893
195591,1252920,1854668,1256439,1879031,1604,3800,-4470,-1303,452,3842,1989,4155,40,72,893
196592,1253144,1855104,1256636,1879228,1668,3800,-4420,-871,394,3929,2124,4085,36,63,891
197593,1253328,1855576,1256833,1879425,1924,3800,-4314,-375,343,3753,2093,4354,36,63,891
198594,1253560,1856068,1257030,1879622,1609,3800,-4155,142,304,3504,1941,4452,39,94,892
199595,1253776,1856688,1257227,1879819,1702,3800,-3978,660,228,3142,1695,4556,39,94,892
200596,1254016,1857316,1257424,1880016,1533,3800,-3730,1110,117,2732,1262,4141,50,121,895
201598,1254248,1858108,1257621,1880213,1569,3800,-3430,1522,-84,2371,656,3788,50,121,895
202598,1254460,1858844,1257818,1880410,1688,3800,-3138,1844,-360,2386,-103,3672,56,159,896
203599,1254676,1859676,1258015,1880607,1655,3800,-2835,2253,-664,2469,-661,3896,56,159,896
204600,1254892,1860524,1258212,1880804,1647,3800,-2536,2621,-956,2475,-854,3452,36,147,897
205601,1255100,1861380,1258409,1881001,1693,3800,-2192,2811,-1239,2327,-954,2789,36,147,897
206590,1255316,1862428,1258606,1881198,1635,3632,-1765,2848,-1493,2121,-917,2553,40,176,899
207603,1255512,1863376,1258803,1881395,1762,3800,-1310,2849,-1739,2265,-566,2512,40,176,899
208591,1255764,1864296,1259000,1881592,1388,3791,-854,3017,-1984,2510,-517,2767,47,176,901
209593,1255976,1865296,1259197,1881789,1632,2941,-360,3274,-2171,2223,-1076,2785,47,176,901
210593,1256200,1866248,1259394,1881986,1546,2913,169,3604,-2295,2171,-1521,2996,60,193,902
211595,1256436,1867244,1259591,1882183,1454,2289,720,4033,-2396,2148,-2267,3237,60,193,902
212595,1256640,1868312,1259788,1882380,1652,1460,1245,4591,-2482,2178,-3127,3826,61,187,903
213597,1256888,1869212,1259985,1882577,1354,2204,1724,5292,-2603,2130,-3643,3921,61,187,903
214597,1257152,1870012,1260182,1882774,1226,2566,2160,5905,-2784,2101,-3851,3643,46,167,909
215598,1257364,1870948,1260379,1882971,1544,1394,2498,6562,-3011,2391,-3890,3801,46,167,909
216599,1257592,1871844,1260576,1883168,1432,1339,2730,7109,-3285,2695,-3506,3294,51,167,907
217601,1257832,1872812,1260773,1883365,1339,552,2909,7489,-3579,2868,-3078,2719,51,167,907
218602,1258036,1873632,1260970,1883562,1561,1205,3078,7810,-3816,2829,-2635,2754,51,159,911
219603,1258252,1874356,1261167,1883759,1479,1576,3242,8060,-3955,2754,-2727,2561,51,159,911
220604,1258524,1875028,1261364,1883956,1096,1694,3388,8291,-4018,2941,-3011,2449,55,147,911
221605,1258720,1875736,1261561,1884153,1572,1245,3525,8387,-4033,3266,-2815,1852,55,147,911
222606,1258928,1876400,1261758,1884350,1492,1317,3669,8324,-4035,3457,-2342,1214,43,142,909
223607,1259176,1877100,1261955,1884547,1221,873,3726,8179,-4036,3497,-1967,1323,43,142,909
224608,1259368,1877740,1262152,1884744,1573,1054,3658,8087,-4059,3265,-1848,1509,36,147,909
225609,1259588,1878408,1262349,1884941,1389,673,3479,8005,-4178,2890,-1444,1431,36,147,909
226610,1259868,1879020,1262546,1885138,978,843,3245,7906,-4425,2598,-987,1269,58,134,911
227611,1260144,1879652,1262743,1885335,969,528,2949,7896,-4732,2216,-735,1751,58,134,911
228612,1260424,1880272,1262940,1885532,908,418,2503,7978,-5075,1693,-197,1829,61,109,915
229613,1260648,1880808,1263137,1885729,1246,795,1985,7923,-5432,1329,120,1158,61,109,915
230613,1260864,1881256,1263334,1885926,1288,1236,1476,7718,-5749,1126,554,813,59,84,916
231614,1261060,1881656,1263531,1886123,1414,1448,995,7359,-6017,1059,1248,487,59,84,916
232615,1261204,1882016,1263728,1886320,1763,1626,510,6966,-6278,1063,1834,356,40,70,912
233616,1261424,1882352,1263925,1886517,1279,1716,12,6369,-6615,900,2386,-333,40,70,912
234618,1261644,1882688,1264122,1886714,1268,1656,-515,5799,-6999,733,1995,-107,52,70,906
235619,1261836,1882972,1264319,1886911,1447,1944,-1622,6132,-7139,1163,786,3758,52,70,906
236619,1262024,1883216,1264516,1887108,1476,2174,-3394,7212,-6690,1310,-2566,4723,47,63,908
237620,1262200,1883456,1264713,1887305,1561,2180,-4974,7449,-5859,1338,-3860,965,47,63,908
238622,1262360,1883740,1264910,1887502,1677,1868,-6077,6826,-4969,1198,-3773,-134,46,44,906
239622,1262528,1884024,1265107,1887699,1641,1830,-6854,5627,-4259,1109,-2688,-1073,46,44,906
240623,1262660,1884284,1265304,1887896,1894,1953,-7255,4196,-3759,781,-1948,-2110,28,56,905
241625,1262784,1884516,1265501,1888093,1977,2113,-7494,2732,-3198,804,-2372,-1982,28,56,905
242626,1262932,1884788,1265698,1888290,1849,1831,-7775,1545,-2425,897,-3557,-994,31,46,904
243627,1263068,1885064,1265895,1888487,1952,1773,-8215,739,-1519,439,-4611,664,31,46,904
244627,1263212,1885352,1266092,1888684,1925,1658,-8633,222,-746,-326,-5023,1282,27,63,903
245629,1263352,1885728,1266289,1888881,1976,1030,-8879,-199,-177,-771,-5572,1930,27,63,903
246629,1263488,1886044,1266486,1889078,2028,1353,-8870,-427,410,-1062,-6811,3210,25,62,904
247630,1263616,1886244,1266683,1889275,2109,2077,-8738,-460,1067,-1654,-7578,4153,25,62,904
248631,1263768,1886432,1266880,1889472,1980,2157,-6280,2401,1763,-1762,-9496,23821,43,51,906
249632,1263932,1886644,1267077,1889669,1920,2001,2167,17853,3138,-2973,-17647,32767,43,51,906
250634,1264088,1886928,1267274,1889866,1989,1514,9033,28037,4048,-1721,-9330,24431,45,47,902
251635,1264244,1887216,1267471,1890063,2007,1449,10142,27658,4080,-700,-3250,-1287,45,47,902
252636,1264424,1887524,1267668,1890260,1865,1276,8719,22326,3708,-448,-2367,-4972,45,53,905
253636,1264568,1887740,1267865,1890457,2114,1842,7525,17944,3344,50,-2809,-3462,45,53,905
254638,1264744,1888100,1268062,1890654,1924,872,7080,15657,3257,-963,-2076,-2266,44,58,907
255638,1264936,1888416,1268259,1890851,1827,1095,6865,13842,3166,-503,-1913,-2800,44,58,907
256639,1265132,1888728,1268456,1891048,1802,1070,6569,11870,2821,-883,-1437,-3107,33,56,907
257641,1265336,1889012,1268653,1891245,1750,1207,6099,9273,2457,-2293,-1367,-3109,33,56,907
258642,1265532,1889316,1268850,1891442,1802,1036,5408,6697,2103,-2856,-1706,-2719,37,70,908
259652,1265728,1889600,1269080,1891672,1817,1137,4503,3104,1947,-4379,-1815,-4082,37,70,908
260643,1265916,1889924,1269277,1891869,1872,831,3332,229,2069,-4280,-3203,-316,38,68,909
261645,1266132,1890272,1269474,1892066,1689,616,2177,-909,1903,-3842,-1238,1368,38,68,909
262646,1266356,1890568,1269671,1892263,1627,897,1435,-2066,1313,-4524,557,-375,53,57,909
263646,1266540,1890868,1269868,1892460,1884,827,909,-3235,594,-4536,559,949,53,57,909
264647,1266732,1891168,1270065,1892657,1837,783,505,-4414,93,-4998,654,1256,37,63,911
265648,1266908,1891436,1270262,1892854,1946,952,147,-5252,-141,-4880,605,2359,37,63,911
266650,1267056,1891780,1270459,1893051,2144,412,-146,-5627,-189,-4635,355,3091,23,72,909
267651,1267192,1892156,1270656,1893248,2246,134,-342,-5981,-14,-4805,-35,3493,23,72,909
268652,1267328,1892492,1270853,1893445,2274,323,-536,-5937,305,-4620,-147,4797,38,68,907
269652,1267456,1892772,1271050,1893642,2355,637,-683,-6011,713,-4649,101,4226,38,68,907
270654,1267584,1893080,1271247,1893839,2385,413,-801,-5914,1172,-4400,317,4963,40,64,908
271654,1267720,1893380,1271444,1894036,2363,418,-892,-5945,1623,-4162,742,4081,40,64,908
272655,1267860,1893676,1271641,1894233,2364,399,-912,-6287,2038,-3949,955,3335,31,67,907
273657,1267980,1893916,1271838,1894430,2524,731,-855,-6624,2425,-3563,1197,3401,31,67,907
274657,1268128,1894160,1272035,1894627,2370,686,-704,-7134,2790,-3110,1161,2732,26,46,907
275658,1268296,1894376,1272232,1894824,2259,852,-493,-7499,3125,-2572,1120,3352,26,46,907
276659,1268460,1894608,1272429,1895021,2300,737,-232,-7726,3463,-2197,1162,3464,36,45,906
277660,1268676,1894832,1272626,1895218,1967,775,17,-7745,3744,-1624,1398,4206,36,45,906
278661,1268872,1895072,1272823,1895415,2093,656,199,-7337,3962,-1108,1659,5327,48,44,905
279662,1269064,1895252,1273020,1895612,2121,1039,374,-6836,4091,-824,2192,5520,48,44,905
280663,1269300,1895416,1273217,1895809,1830,1153,508,-6225,3992,-752,2349,5770,42,31,908
281664,1269524,1895548,1273414,1896006,1894,1382,696,-5772,3666,-1058,2604,5053,42,31,908
282665,1269752,1895700,1273611,1896203,1855,1277,888,-5262,3191,-904,2320,5716,43,27,909
283667,1270012,1895864,1273808,1896400,1629,1216,955,-4392,2578,-585,2179,6667,43,27,909
284668,1270232,1895988,1274005,1896597,1870,1498,893,-3422,1975,149,1787,6779,41,33,907
285669,1270448,1896092,1274202,1896794,1887,1665,828,-2391,1395,800,1653,6638,41,33,907
286669,1270668,1896200,1274399,1896991,1852,1679,811,-1641,768,1129,1807,5855,41,30,906
287671,1270868,1896292,1274596,1897188,1977,1825,780,-888,63,1410,1844,6132,41,30,906
288671,1271032,1896384,1274793,1897385,2217,1871,730,-226,-588,2053,1693,5567,45,18,904
289673,1271200,1896464,1274990,1897582,2205,1998,732,185,-1060,2928,1281,4710,45,18,904
290674,1271364,1896520,1275187,1897779,2246,2210,831,420,-1430,3117,1354,3898,27,14,900
291675,1271508,1896572,1275384,1897976,2395,2299,998,368,-1776,3125,1540,2994,27,14,900
292676,1271640,1896648,1275581,1898173,2499,2203,1174,160,-2141,3279,1571,2588,36,21,899
293677,1271792,1896708,1275778,1898370,2394,2363,1342,-168,-2477,3154,1296,2075,36,21,899
294677,1271920,1896764,1275975,1898567,2575,2450,1493,-539,-2749,3018,586,1936,27,4,897
295679,1272060,1896816,1276172,1898764,2527,2540,1614,-850,-2979,2734,-579,1828,27,4,897
296679,1272200,1896888,1276369,1898961,2553,2469,1726,-1081,-3167,2206,-1392,2131,15,19,895
297680,1272312,1896960,1276566,1899158,2765,2525,1811,-1049,-3366,1712,-1915,2714,15,19,895
298681,1272428,1897028,1276763,1899355,2777,2607,1893,-889,-3589,1160,-2371,2907,17,27,895
299683,1272564,1897124,1276960,1899552,2679,2476,1957,-475,-3791,638,-2925,3716,17,27,895
300684,1272708,1897228,1277157,1899749,2654,2468,1991,155,-3943,260,-3185,4256,32,15,892
301685,1272852,1897344,1277354,1899946,2678,2429,1989,947,-4054,-196,-3248,4691,32,15,892
302686,1273000,1897436,1277551,1900143,2675,2626,1990,1851,-4156,-646,-2425,4729,34,23,894
303687,1273140,1897520,1277748,1900340,2751,2726,2015,2669,-4307,-1037,-1043,4431,34,23,894
304687,1273288,1897620,1277945,1900537,2723,2669,2021,3449,-4484,-1075,-613,4695,31,27,894
305689,1273448,1897756,1278142,1900734,2665,2471,2004,4235,-4573,-812,-1345,4558,31,27,894
306690,1273592,1897868,1278339,1900931,2790,2660,1991,4956,-4570,-495,-1924,4212,25,32,893
307691,1273760,1897940,1278536,1901128,2653,2965,2008,5477,-4555,-328,-1311,3579,25,32,893
308691,1273952,1898040,1278733,1901325,2507,2833,2069,5673,-4529,-164,-644,2766,28,12,893
309693,1274112,1898116,1278930,1901522,2724,3037,2130,5779,-4470,76,-608,2573,28,12,893
310693,1274276,1898208,1279127,1901719,2714,2984,2196,5688,-4395,107,17,1782,27,28,891
311695,1274444,1898332,1279324,1901916,2703,2817,2241,5373,-4326,59,666,1315,27,28,891
312695,1274624,1898440,1279521,1902113,2637,2957,2280,4917,-4232,20,405,957,37,26,889
313697,1274796,1898556,1279718,1902310,2698,2943,2292,4447,-4065,3,-60,1045,37,26,889
314697,1274960,1898676,1279915,1902507,2763,2952,2245,4022,-3852,-76,-311,1183,22,19,891
315699,1275136,1898800,1280112,1902704,2698,2960,2131,3655,-3617,-77,-710,1335,22,19,891
316700,1275296,1898924,1280309,1902901,2815,2993,2001,3326,-3384,-82,-1002,1420,22,33,890
317701,1275452,1899036,1280506,1903098,2859,3107,1877,2914,-3155,-120,-848,1264,22,33,890
318702,1275616,1899132,1280703,1903295,2825,3251,1723,2503,-2956,-101,-529,1553,21,24,890
319702,1275784,1899252,1280900,1903492,2814,3136,1516,2186,-2768,-29,-261,1770,21,24,890
320703,1275952,1899364,1281097,1903689,2827,3224,1282,1894,-2586,10,-98,1810,40,32,888
321705,1276136,1899464,1281294,1903886,2734,3343,1027,1610,-2411,-3,18,1803,40,32,888
322705,1276324,1899576,1281491,1904083,2714,3306,735,1274,-2242,-30,303,1870,45,31,887
323706,1276500,1899700,1281688,1904280,2799,3263,404,948,-2081,105,518,1944,45,31,887
324707,1276680,1899836,1281885,1904477,2783,3216,25,623,-1928,152,699,1979,34,24,888
325708,1276820,1899948,1282082,1904674,3059,3404,-368,294,-1773,83,721,1989,34,24,888
326709,1276984,1900096,1282279,1904871,2924,3202,-760,-68,-1643,12,745,1942,25,36,888
327710,1277132,1900208,1282476,1905068,3047,3465,-1172,-376,-1542,-16,771,2252,25,36,888
328711,1277272,1900340,1282673,1905265,3123,3370,-1585,-672,-1490,-148,1008,2401,39,19,886
329713,1277412,1900468,1282870,1905462,3149,3426,-1982,-898,-1504,-243,1089,2527,39,19,886
330713,1277568,1900612,1283067,1905659,3068,3350,-2349,-1146,-1553,-322,970,2678,40,25,885
331714,1277740,1900728,1283264,1905856,2980,3562,-2689,-1350,-1585,-279,687,2925,40,25,885
332716,1277880,1900864,1283461,1906053,3206,3465,-2978,-1553,-1600,-272,119,2926,32,28,884
333716,1278024,1901024,1283658,1906250,3205,3332,-3176,-1847,-1599,-323,-711,2659,32,28,884
334718,1278180,1901168,1283855,1906447,3150,3456,-3278,-2273,-1594,-276,-932,2552,38,28,883
335718,1278340,1901312,1284052,1906644,3143,3481,-3352,-2718,-1578,-112,-1038,2703,38,28,883
336719,1278460,1901460,1284249,1906841,3427,3478,-3419,-3061,-1556,71,-891,3035,34,40,884
337721,1278624,1901604,1284446,1907038,3168,3527,-3453,-3341,-1536,96,-675,3119,34,40,884
338721,1278792,1901776,1284643,1907235,3157,3364,-3434,-3650,-1530,138,-567,3321,19,31,883
339722,1278944,1901952,1284840,1907432,3278,3350,-3377,-3950,-1541,210,-420,3589,19,31,883
340724,1279124,1902112,1285037,1907629,3111,3467,-3310,-4193,-1538,293,-445,3866,32,36,884
341725,1279284,1902268,1285234,1907826,3253,3511,-3249,-4331,-1529,380,-585,4224,32,36,884
342732,1279432,1902420,1285464,1908056,3365,3571,-2147,-3264,-1542,1859,-903,17346,30,48,883
343726,1279636,1902608,1285661,1908253,3014,3351,1323,1874,-1651,4089,-1736,32767,30,48,883
344727,1279852,1902800,1285858,1908450,2932,3329,3972,5054,-1696,873,-1163,15210,38,49,880
345728,1280092,1903004,1286055,1908647,2764,3252,4346,4522,-1698,421,197,1864,38,49,880
346729,1280408,1903184,1286252,1908844,2238,3411,3767,2345,-1665,709,-122,630,51,36,886
347730,1280740,1903384,1286449,1909041,2079,3285,3289,588,-1615,1035,-611,1036,51,36,886
348732,1281072,1903600,1286646,1909238,2021,3178,3061,-463,-1520,887,-562,1352,68,43,890
349733,1281424,1903840,1286843,1909435,1829,3011,2850,-1153,-1442,983,-407,1790,68,43,890
350734,1281788,1904048,1287040,1909632,1682,3207,2551,-1869,-1429,740,-463,1591,70,41,894
351735,1282128,1904264,1287237,1909829,1770,3150,2202,-2712,-1413,251,-881,1923,70,41,894
352736,1282572,1904452,1287434,1910026,1012,3330,1823,-3323,-1378,343,-998,2381,73,53,895
353737,1282948,1904660,1287631,1910223,1359,3201,1428,-3951,-1358,207,-775,2146,73,53,895
354738,1283300,1904848,1287828,1910420,1442,3331,988,-4266,-1320,-121,-1185,3399,75,42,896
355739,1283672,1905052,1288025,1910617,1241,3229,563,-4403,-1277,-471,-1245,3559,75,42,896
356740,1284076,1905280,1288222,1910814,951,3066,219,-4425,-1243,-779,-1271,3942,74,49,895
357741,1284384,1905516,1288419,1911011,1504,3000,-40,-4257,-1175,-1123,-1645,4632,74,49,895
358741,1284680,1905756,1288616,1911208,1535,2957,-208,-4103,-1082,-1281,-1820,4471,71,45,900
359743,1284984,1905976,1288813,1911405,1439,3073,-299,-3895,-1016,-1378,-1550,4569,71,45,900
360743,1285268,1906256,1289010,1911602,1527,2663,-323,-3776,-969,-1543,-1093,4496,67,42,899
361745,1285548,1906512,1289207,1911799,1515,2788,-317,-3595,-954,-1361,-774,4533,67,42,899
362746,1285840,1906716,1289404,1911996,1400,3111,-303,-3397,-921,-1324,-780,4502,56,43,900
363746,1286088,1906952,1289601,1912193,1653,2895,-282,-3201,-812,-1406,-921,4514,56,43,900
364747,1286356,1907184,1289798,1912390,1498,2905,-255,-3016,-664,-1297,-1226,4481,57,42,898
365748,1286616,1907384,1289995,1912587,1520,3105,-186,-2862,-507,-1402,-1483,4373,57,42,898
366749,1286840,1907628,1290192,1912784,1735,2810,-81,-2722,-361,-1518,-1587,4421,56,44,898
367750,1287044,1907848,1290389,1912981,1856,2951,96,-2583,-237,-1476,-1607,4106,56,44,898
368751,1287268,1908088,1290586,1913178,1721,2808,290,-2516,-125,-1382,-1407,4105,50,52,897
369753,1287472,1908292,1290783,1913375,1844,3031,503,-2427,-18,-1171,-1117,3999,50,52,897
370753,1287692,1908520,1290980,1913572,1733,2869,711,-2461,70,-956,-892,3682,28,38,898
371754,1287896,1908760,1291177,1913769,1831,2776,881,-2501,144,-822,-703,3878,28,38,898
372755,1288124,1908964,1291374,1913966,1669,2999,992,-2451,212,-689,-517,3981,39,36,897
373757,1288356,1909168,1291571,1914163,1628,2997,1061,-2343,267,-583,-315,4076,39,36,897
374757,1288588,1909384,1291768,1914360,1614,2914,1091,-2200,315,-634,-272,4147,35,34,898
375758,1288788,1909576,1291965,1914557,1813,3067,1072,-2065,374,-586,-348,4278,35,34,898
376759,1288996,1909772,1292162,1914754,1759,3044,1027,-1925,449,-496,-401,4261,43,47,898
377760,1289188,1909964,1292359,1914951,1862,3072,967,-1784,553,-425,-608,4258,43,47,898
378761,1289412,1910136,1292556,1915148,1650,3209,898,-1688,661,-225,-594,4129,28,44,895
379762,1289628,1910312,1292753,1915345,1693,3194,864,-1741,733,-83,-163,3620,28,44,895
380763,1289832,1910496,1292950,1915542,1765,3151,821,-1785,771,69,148,3883,28,41,895
381765,1290044,1910668,1293147,1915739,1709,3238,712,-1713,807,384,547,4365,28,41,895
382766,1290256,1910824,1293344,1915936,1704,3356,542,-1584,812,576,1148,4509,30,24,895
383766,1290440,1910976,1293541,1916133,1884,3402,375,-1484,770,709,1601,4345,30,24,895
384767,1290652,1911120,1293738,1916330,1704,3476,211,-1374,719,765,1168,4527,48,26,893
385769,1290848,1911276,1293935,1916527,1804,3420,22,-1258,677,627,733,4797,48,26,893
386769,1291060,1911396,1294132,1916724,1699,3680,-196,-1031,659,329,459,5223,43,26,893
387770,1291256,1911544,1294329,1916921,1800,3527,-386,-785,669,43,729,5665,43,26,893
388771,1291452,1911680,1294526,1917118,1800,3630,-522,-495,681,149,778,6505,42,26,889
389773,1291616,1911832,1294723,1917315,2016,3552,-565,-192,693,80,988,7197,42,26,889
390773,1291812,1911984,1294920,1917512,1816,3573,-540,80,706,-90,813,7347,23,24,890
391787,1291984,1912096,1295117,1917709,1978,3800,-446,173,736,-275,451,6958,23,24,890
392788,1292144,1912220,1295314,1917906,2071,3800,-298,110,807,-667,132,6405,27,30,890
393789,1292344,1912340,1295511,1918103,1819,3800,-127,-87,899,-1017,-272,5602,27,30,890
394790,1292504,1912428,1295708,1918300,2087,3800,60,-377,1027,-1373,-597,4973,31,30,887
395791,1292656,1912548,1295905,1918497,2156,3800,249,-743,1189,-1689,-854,4572,31,30,887
396792,1292820,1912644,1296102,1918694,2097,3800,427,-1127,1369,-1953,-1308,4509,42,17,888
397793,1292984,1912740,1296299,1918891,2112,3800,606,-1356,1561,-1980,-1444,4602,42,17,888
398794,1293116,1912828,1296496,1919088,2341,3800,816,-1614,1727,-1760,-1312,4401,36,21,886
399795,1293256,1912936,1296693,1919285,2317,3800,1061,-1870,1846,-1485,-807,4345,36,21,886
400796,1293396,1913028,1296890,1919482,2343,3800,1320,-2149,1930,-1141,-358,4323,36,14,885
401797,1293516,1913128,1297087,1919679,2502,3800,1562,-2321,2001,-697,-208,4588,36,14,885
402798,1293684,1913232,1297284,1919876,2216,3800,1771,-2381,2071,-323,-40,4946,40,14,885
403799,1293840,1913340,1297481,1920073,2310,3800,1932,-2299,2129,-352,-221,5264,40,14,885
404800,1293988,1913448,1297678,1920270,2381,3800,2039,-2096,2182,-685,-365,5465,43,20,883
405801,1294108,1913568,1297875,1920467,2591,3800,2108,-1731,2228,-791,-339,5546,43,20,883
406802,1294248,1913660,1298072,1920664,2492,3800,2171,-1393,2234,-455,91,5325,23,15,885
407803,1294360,1913788,1298269,1920861,2704,3800,2243,-1120,2187,79,563,5197,23,15,885
408804,1294488,1913924,1298466,1921058,2636,3800,2338,-961,2102,817,-235,5250,34,24,884
409805,1294624,1914076,1298663,1921255,2613,3800,2446,-738,2081,1422,-614,5447,34,24,884
410806,1294768,1914292,1298860,1921452,2588,3800,2524,-277,2072,1784,-474,5600,21,43,882
411807,1294904,1914504,1299057,1921649,2665,3800,2579,-89,1942,1748,-553,4682,21,43,882
412795,1295040,1914736,1299254,1921846,2692,3795,2621,19,1796,1314,-586,5267,22,38,883
413796,1295136,1914988,1299451,1922043,2988,3647,2620,398,1692,1514,-950,5492,22,38,883
414798,1295240,1915256,1299648,1922240,2980,3517,2647,493,1544,1715,-571,4039,24,48,884
415799,1295356,1915552,1299845,1922437,2941,3300,2730,381,1385,1711,71,4037,24,48,884
416800,1295432,1915808,1300042,1922634,3245,3525,2824,153,1248,2560,391,3367,15,67,883
417801,1295528,1916124,1300239,1922831,3165,3099,2901,-104,1069,3366,872,3018,15,67,883
418802,1295640,1916468,1300436,1923028,3103,2861,2945,-207,915,2971,688,3341,16,69,887
419803,1295756,1916800,1300633,1923225,3115,2878,2993,-402,757,2557,671,3012,16,69,887
420804,1295880,1917120,1300830,1923422,3098,2900,3019,-460,582,2663,949,3597,29,72,887
421805,1296060,1917536,1301027,1923619,2756,2205,3052,-262,469,2408,1214,3884,29,72,887
422806,1296240,1917924,1301224,1923816,2765,2297,3056,148,362,2030,929,4220,44,89,888
423807,1296428,1918280,1301421,1924013,2720,2428,3003,565,227,1322,266,4545,44,89,888
424808,1296596,1918700,1301618,1924210,2858,1932,2901,1188,136,452,-625,4920,37,82,896
425816,1296776,1919124,1301848,1924440,2806,1823,2830,1777,67,125,-890,4117,37,82,896
426810,1296964,1919544,1302045,1924637,2761,1751,2797,2097,44,-273,-1232,3590,48,70,895
427811,1297124,1919888,1302242,1924834,2954,2162,2747,2415,116,-444,-1631,3803,48,70,895
428812,1297348,1920320,1302439,1925031,2543,1510,2726,2645,220,151,-1245,2802,35,75,898
429813,1297568,1920724,1302636,1925228,2559,1594,2750,2827,300,95,-737,2484,35,75,898
430814,1297788,1921076,1302833,1925425,2550,1852,2797,2935,388,-602,-725,2459,51,65,895
431815,1298008,1921452,1303030,1925622,2540,1624,2834,3002,514,-960,-1442,2413,51,65,895
432816,1298184,1921892,1303227,1925819,2826,1118,2872,3225,686,-1134,-1412,2597,52,82,900
433817,1298388,1922268,1303424,1926016,2649,1441,2939,3330,829,-1264,-752,1922,52,82,900
434818,1298608,1922616,1303621,1926213,2539,1549,3102,3087,898,-401,-765,1371,51,80,900
435819,1298836,1922996,1303818,1926410,2477,1270,3132,3188,962,-146,-881,1970,51,80,900
436819,1299068,1923408,1304015,1926607,2436,976,3067,3487,978,-802,-1137,2221,47,76,901
437821,1299296,1923800,1304212,1926804,2449,1016,2982,3770,941,-1747,-809,2158,47,76,901
438822,1299484,1924168,1304409,1927001,2704,1091,2962,3836,829,-1346,171,1447,48,70,903
439823,1299700,1924568,1304606,1927198,2521,802,2932,3728,652,-229,638,1086,48,70,903
440824,1299960,1924980,1304803,1927395,2220,634,2842,3711,519,556,286,1277,54,67,904
441825,1300196,1925316,1305000,1927592,2354,1048,2737,3627,461,828,-551,948,54,67,904
442826,1300428,1925708,1305197,1927789,2364,613,2645,3555,438,654,-896,1204,49,80,905
443827,1300656,1926148,1305394,1927986,2377,206,2541,3602,381,274,-489,1437,49,80,905
444828,1300896,1926520,1305591,1928183,2284,555,2415,3561,216,672,236,838,40,85,904
445829,1301112,1926828,1305788,1928380,2426,907,2278,3353,-15,1492,693,686,40,85,904
446830,1301356,1927232,1305985,1928577,2232,216,2152,3119,-205,2153,601,628,44,69,907
447831,1301612,1927588,1306182,1928774,2132,446,2017,2894,-383,2304,208,606,44,69,907
448832,1301848,1927984,1306379,1928971,2240,109,1888,2704,-533,1792,50,743,36,70,905
449833,1302092,1928252,1306576,1929168,2170,878,1791,2591,-687,1775,691,1229,36,70,905
450834,1302340,1928600,1306773,1929365,2124,312,1681,2658,-888,2377,1203,1510,50,75,909
451835,1302556,1928960,1306970,1929562,2316,165,1563,2749,-1110,2825,1617,1375,50,75,909
452836,1302808,1929312,1307167,1929759,2068,147,1414,2852,-1340,2815,1541,1645,48,56,907
453837,1303072,1929708,1307364,1929956,1965,-216,1257,2981,-1584,2399,1016,1742,48,56,907
454837,1303304,1929996,1307561,1930153,2149,419,1127,3106,-1843,2045,582,1709,39,60,907
455839,1303516,1930176,1307758,1930350,2269,1102,1028,3299,-2122,2096,303,1771,39,60,907
456839,1303740,1930376,1307955,1930547,2183,976,937,3443,-2396,2425,166,1648,31,48,909
457841,1303960,1930572,1308152,1930744,2199,1002,819,3619,-2637,2598,84,1848,31,48,909
458842,1304168,1930776,1308349,1930941,2270,949,667,3829,-2839,2474,-351,2065,40,37,906
459843,1304432,1931004,1308546,1931138,1890,785,547,4128,-3042,2004,-547,2100,40,37,906
460843,1304640,1931180,1308743,1931335,2237,1120,458,4386,-3269,1478,-550,2044,43,48,906
461844,1304828,1931368,1308940,1931532,2367,1049,352,4572,-3525,1496,-172,1768,43,48,906
462845,1305044,1931568,1309137,1931729,2184,972,205,4725,-3786,1614,269,1717,44,38,909
463847,1305228,1931792,1309334,1931926,2391,810,26,4818,-4034,1482,313,1591,44,38,909
464847,1305428,1932004,1309531,1932123,2290,879,-149,4802,-4281,1038,159,1350,36,41,905
465849,1305652,1932200,1309728,1932320,2129,979,-342,4819,-4520,534,-144,1451,36,41,905
466849,1305892,1932396,1309925,1932517,2011,980,-592,4957,-4734,167,-278,1798,47,42,905
467851,1306116,1932524,1310122,1932714,2100,1435,-890,5109,-4937,-64,-247,1737,47,42,905
468851,1306316,1932572,1310319,1932911,2249,2000,-1199,5102,-5151,-272,-322,1451,48,34,906
469853,1306524,1932832,1310516,1933108,2195,648,-1492,4980,-5357,-561,-656,1294,48,34,906
470853,1306728,1933132,1310713,1933305,2218,353,-1758,4747,-5539,-902,-860,1092,46,51,905
471855,1306904,1933332,1310910,1933502,2403,976,-2003,4428,-5714,-1044,-584,887,46,51,905
472855,1307172,1933520,1311107,1933699,1798,1055,-2227,3989,-5884,-1155,-338,630,48,39,907
473857,1307440,1933716,1311304,1933896,1767,1006,-2449,3514,-5989,-1268,-725,771,48,39,907
474858,1307668,1933912,1311501,1934093,2004,1006,-2698,3084,-6026,-1411,-1031,1020,36,31,905
475858,1307940,1934120,1311698,1934290,1697,926,-2943,2596,-6002,-1517,-1559,1147,36,31,905
476859,1308204,1934328,1311895,1934487,1718,921,-3122,2011,-5954,-1519,-2157,938,45,34,907
477860,1308504,1934520,1312092,1934684,1448,1024,-3238,1300,-5904,-1387,-1867,799,45,34,907
478861,1308820,1934676,1312289,1934881,1297,1267,-3339,525,-5815,-1277,-1566,1019,45,42,909
479863,1309092,1934832,1312486,1935078,1540,1285,-3463,-128,-5661,-1157,-1324,1639,45,42,909
480864,1309344,1934960,1312683,1935275,1641,1490,-3571,-632,-5445,-933,-797,2320,43,21,910
481865,1309648,1935096,1312880,1935472,1270,1467,-3855,-678,-5130,-165,-215,4307,43,21,910
482866,1309924,1935240,1313077,1935669,1410,1440,-4058,-786,-4834,-20,133,3027,58,39,909
483867,1310192,1935408,1313274,1935866,1430,1303,-4016,-1459,-4678,149,553,2062,58,39,909
484868,1310448,1935588,1313471,1936063,1480,1236,-3879,-2251,-4553,623,868,2717,50,36,909
485869,1310668,1935732,1313668,1936260,1695,1485,-3906,-2724,-4340,877,480,4226,50,36,909
486869,1310904,1935872,1313865,1936457,1579,1535,-3951,-2899,-4044,847,56,4187,52,38,909
487871,1311156,1936016,1314062,1936654,1455,1533,-3972,-3086,-3758,1218,262,4719,52,38,909
488871,1311384,1936160,1314259,1936851,1592,1556,-3942,-3289,-3528,1816,518,6111,50,19,905
489873,1311604,1936304,1314456,1937048,1632,1579,-3913,-3177,-3394,2736,750,7796,50,19,905
490874,1311812,1936424,1314653,1937245,1703,1763,-3887,-2901,-3298,2967,1169,8304,32,35,908
491875,1312072,1936564,1314850,1937442,1350,1663,-2903,-1641,-3278,5081,646,17499,32,35,908
492876,1312268,1936684,1315047,1937639,1752,1823,478,4629,-3625,11181,-548,32767,50,27,907
493877,1312492,1936828,1315244,1937836,1566,1696,3229,8438,-3863,4912,-268,14855,50,27,907
494878,1312712,1937000,1315441,1938033,1581,1532,3644,8023,-3783,3335,-590,4749,50,22,908
495879,1312924,1937164,1315638,1938230,1625,1597,3039,5633,-3661,3420,-1405,1990,50,22,908
496880,1313124,1937308,1315835,1938427,1699,1745,2664,3576,-3543,3246,-2343,1480,46,21,906
497881,1313352,1937444,1316032,1938624,1511,1823,2430,2089,-3435,3180,-2248,1626,46,21,906
498881,1313568,1937596,1316229,1938821,1578,1743,2227,1177,-3354,3560,-2349,2169,48,29,905
499882,1313788,1937720,1316426,1939018,1544,1950,1933,311,-3355,3563,-1506,2220,48,29,905
500883,1314020,1937828,1316623,1939215,1453,2089,1607,-548,-3419,3308,-1382,2557,29,17,904
501885,1314236,1937968,1316820,1939412,1546,1915,1250,-1405,-3496,3268,-2144,2897,29,17,904
502885,1314448,1938116,1317017,1939609,1564,1887,852,-2024,-3540,3284,-2141,3399,41,36,905
503886,1314684,1938256,1317214,1939806,1398,1962,469,-2448,-3639,3213,-1236,3474,41,36,905
504887,1314884,1938396,1317411,1940003,1622,1987,167,-3086,-3837,3116,-480,2942,51,34,905
505889,1315124,1938556,1317608,1940200,1354,1879,-111,-3621,-4038,3231,-88,3823,51,34,905
506890,1315356,1938692,1317805,1940397,1389,2056,-473,-3611,-4155,3630,210,5562,35,24,906
507890,1315612,1938836,1318002,1940594,1214,2029,-796,-3235,-4307,4000,1376,6024,35,24,906
508898,1315840,1938980,1318232,1940824,1390,2068,-1013,-2799,-4558,3974,2733,6400,36,22,906
509892,1316076,1939120,1318429,1941021,1323,2118,-1132,-2453,-4905,3907,3512,6116,36,22,906
510893,1316320,1939244,1318626,1941218,1253,2250,-1181,-2148,-5235,4031,3228,6104,43,27,904
511894,1316544,1939364,1318823,1941415,1366,2310,-1198,-1758,-5454,3910,3274,6391,43,27,904
512896,1316752,1939500,1319020,1941612,1462,2237,-1210,-1313,-5680,3328,3465,6358,30,27,904
513897,1316972,1939644,1319217,1941809,1377,2211,-1210,-860,-5938,2847,3040,6332,30,27,904
514898,1317180,1939804,1319414,1942006,1448,2127,-1164,-334,-6103,2576,2211,6552,41,20,903
515899,1317408,1939928,1319611,1942203,1310,2384,-1071,153,-6152,2223,1166,5968,41,20,903
516900,1317656,1940060,1319808,1942400,1162,2364,-983,442,-6116,1899,65,5223,51,36,904
517901,1317872,1940204,1320005,1942597,1355,2312,-930,566,-6073,1663,26,4888,51,36,904
518902,1318056,1940344,1320202,1942794,1561,2363,-847,622,-6049,1565,-36,4281,48,26,903
519902,1318300,1940492,1320399,1942991,1166,2335,-736,599,-6017,1404,-410,4145,48,26,903
520903,1318512,1940668,1320596,1943188,1359,2170,-603,582,-5893,1272,-1009,4250,33,41,903
521905,1318732,1940836,1320793,1943385,1299,2233,-486,686,-5699,1252,-1165,4576,33,41,903
522906,1318944,1941004,1320990,1943582,1344,2246,-406,933,-5563,886,-498,4690,37,40,903
523906,1319140,1941172,1321187,1943779,1444,2259,-345,1163,-5507,372,-346,4633,37,40,903
524908,1319336,1941352,1321384,1943976,1446,2193,-241,1391,-5462,-67,-768,4433,49,30,903
525908,1319576,1941572,1321581,1944173,1152,1933,-95,1579,-5354,-266,-1411,4483,49,30,903
526909,1319812,1941760,1321778,1944370,1159,2137,23,1795,-5203,-508,-1356,4468,50,38,903
527910,1319996,1941964,1321975,1944567,1491,2034,95,1870,-5083,-612,-880,4165,50,38,903
528912,1320216,1942144,1322172,1944764,1256,2193,187,1888,-4980,-506,-857,3844,32,47,907
529913,1320412,1942356,1322369,1944961,1408,1986,256,1959,-4845,-362,-1132,4049,32,47,907
530914,1320620,1942608,1322566,1945158,1328,1713,216,2134,-4693,-432,-1601,4279,40,47,905
531914,1320860,1942892,1322763,1945355,1109,1475,176,2185,-4593,-560,-1419,3679,40,47,905
532915,1321088,1943108,1322960,1945552,1171,1893,133,2211,-4510,-694,-1383,3974,31,45,904
533917,1321312,1943336,1323157,1945749,1184,1804,47,2311,-4382,-745,-1410,4207,31,45,904
534917,1321520,1943600,1323354,1945946,1279,1549,-98,2413,-4220,-805,-1295,4146,37,54,910
535918,1321752,1943868,1323551,1946143,1115,1494,-176,2328,-4056,-807,-821,3425,37,54,910
536919,1321992,1944140,1323748,1946340,1046,1436,-154,2056,-3918,-611,-251,3094,40,48,908
537921,1322196,1944392,1323945,1946537,1268,1538,-110,1725,-3799,-256,172,3022,40,48,908
538922,1322460,1944648,1324142,1946734,865,1487,-85,1405,-3687,181,604,2923,53,63,910
539922,1322700,1944920,1324339,1946931,996,1355,-92,1068,-3601,539,981,2807,53,63,910
540924,1322904,1945184,1324536,1947128,1218,1376,-138,689,-3553,771,1143,2896,38,48,909
541924,1323140,1945428,1324733,1947325,1002,1480,-243,391,-3506,913,617,3148,38,48,909
542925,1323364,1945680,1324930,1947522,1065,1407,-409,204,-3430,862,-269,3367,34,51,910
543926,1323556,1945908,1325127,1947719,1267,1543,-540,6,-3411,671,-226,3015,34,51,910
544927,1323808,1946100,1325324,1947916,869,1771,-654,-232,-3477,526,911,3228,54,42,909
545929,1324064,1946324,1325521,1948113,818,1560,-786,-424,-3576,425,1733,3403,54,42,909
546930,1324276,1946532,1325718,1948310,1086,1655,-969,-488,-3639,403,1642,3722,53,50,909
547931,1324472,1946716,1325915,1948507,1187,1811,-1165,-601,-3661,503,1520,3345,53,50,909
548931,1324716,1946892,1326112,1948704,867,1871,-1307,-834,-3691,848,1355,2832,37,28,911
549933,1324912,1947052,1326309,1948901,1167,1987,-1414,-1110,-3750,1151,719,2624,37,28,911
550933,1325112,1947224,1326506,1949098,1141,1923,-1488,-1390,-3794,1266,-1294,2807,39,27,908
551935,1325304,1947380,1326703,1949295,1193,2042,-1561,-1435,-3794,1016,-2746,3531,39,27,908
552935,1325524,1947552,1326900,1949492,1009,1953,-1613,-1379,-3792,683,-2966,3604,48,36,906
553937,1325692,1947724,1327097,1949689,1347,1964,-1653,-1252,-3822,860,-3128,3962,48,36,906
554938,1325876,1947912,1327294,1949886,1253,1869,-1667,-898,-3838,981,-3090,4257,42,28,905
555939,1326016,1948068,1327491,1950083,1553,2087,-1613,-562,-3794,628,-2954,3968,42,28,905
556939,1326156,1948240,1327688,1950280,1579,1999,-1498,-271,-3708,325,-2849,3849,17,31,906
557941,1326296,1948396,1327885,1950477,1604,2117,-1370,-34,-3580,154,-2628,3861,17,31,906
558942,1326424,1948556,1328082,1950674,1709,2108,-1227,305,-3421,160,-2302,3958,17,35,904
559942,1326544,1948692,1328279,1950871,1794,2286,-1067,617,-3265,40,-1827,3675,17,35,904
560943,1326668,1948824,1328476,1951068,1801,2340,-916,938,-3102,-186,-1373,3873,30,23,903
561945,1326776,1948952,1328673,1951265,1940,2396,-790,1315,-2930,-178,-612,3863,30,23,903
562946,1326940,1949100,1328870,1951462,1606,2292,-680,1721,-2758,-190,310,3661,27,38,901
563947,1327136,1949272,1329067,1951659,1406,2154,-596,2150,-2545,-566,843,3754,27,38,901
564947,1327312,1949460,1329264,1951856,1540,2058,-518,2565,-2243,-903,768,3764,31,25,899
565949,1327480,1949628,1329461,1952053,1604,2196,-427,3001,-1852,-996,525,3819,31,25,899
566949,1327676,1949796,1329658,1952250,1429,2210,-302,3628,-1398,-1198,120,3948,38,43,903
567950,1327832,1949992,1329855,1952447,1699,2035,-146,4232,-928,-1544,-496,3939,38,43,903
568951,1327980,1950156,1330052,1952644,1770,2251,30,4848,-490,-1712,-1296,4009,45,36,903
569953,1328132,1950400,1330249,1952841,1765,1730,209,5437,-108,-1873,-1668,4014,45,36,903
570954,1328288,1950640,1330446,1953038,1759,1737,358,6068,210,-1998,-1994,3994,23,53,903
571955,1328412,1950860,1330643,1953235,1991,1852,453,6631,467,-2439,-2268,3761,23,53,903
572955,1328548,1951096,1330840,1953432,1944,1736,484,7014,656,-2901,-2099,3330,19,57,905
573957,1328704,1951368,1331037,1953629,1837,1478,452,7247,782,-3132,-1774,2834,19,57,905
574958,1328816,1951572,1331234,1953826,2149,1901,396,7386,888,-3263,-1945,2501,19,47,902
575958,1328936,1951732,1331431,1954023,2134,2192,369,7457,1020,-3355,-2135,2311,19,47,902
576959,1329056,1951872,1331628,1954220,2168,2342,372,7388,1155,-3303,-2076,1902,19,43,903
577961,1329168,1952040,1331825,1954417,2256,2181,368,7211,1275,-3257,-2014,1802,19,43,903
578962,1329300,1952204,1332022,1954614,2160,2221,357,7032,1390,-3171,-2358,1847,27,30,899
579963,1329440,1952436,1332219,1954811,2136,1781,365,6793,1491,-3138,-2564,1585,27,30,899
580964,1329580,1952704,1332416,1955008,2161,1525,399,6489,1574,-3063,-2704,1715,36,50,899
581965,1329708,1952960,1332613,1955205,2267,1575,458,6214,1661,-2889,-2644,1748,36,50,899
582966,1329848,1953212,1332810,1955402,2218,1576,524,5805,1743,-2618,-2506,1652,31,47,902
583967,1329960,1953472,1333007,1955599,2431,1498,575,5368,1803,-2468,-2445,1770,31,47,902
584967,1330096,1953780,1333204,1955796,2308,1150,610,4926,1865,-2449,-2626,1997,33,67,902
585969,1330248,1954084,1333401,1955993,2228,1128,612,4600,1915,-2311,-2791,2391,33,67,902
586970,1330388,1954368,1333598,1956190,2329,1216,583,4224,1937,-2257,-3141,2424,21,57,901
587970,1330512,1954668,1333795,1956387,2461,1071,565,3870,1930,-2215,-3184,2525,21,57,901
588971,1330664,1954956,1333992,1956584,2307,1106,539,3507,1878,-2097,-2866,2832,39,69,904
589972,1330816,1955220,1334189,1956781,2328,1227,490,3123,1800,-1992,-2601,3080,39,69,904
590973,1330952,1955552,1334386,1956978,2455,743,416,2864,1741,-1781,-2534,3543,37,51,904
591983,1331104,1955896,1334616,1957208,2390,618,348,2580,1700,-1644,-2056,3423,37,51,904
592975,1331252,1956260,1334813,1957405,2437,420,291,2243,1655,-1532,-1567,3565,30,65,903
593976,1331376,1956616,1335010,1957602,2619,401,228,1941,1571,-1476,-984,3856,30,65,903
594978,1331512,1956940,1335207,1957799,2572,545,1352,1328,1437,-1067,19,13757,20,69,906
595979,1331648,1957296,1335404,1957996,2600,275,5364,830,1233,963,789,32767,20,69,906
596979,1331784,1957640,1335601,1958193,2627,286,8180,1308,1214,494,-1148,19125,15,68,905
597980,1331884,1957944,1335798,1958390,2896,488,8076,1830,1284,-971,-736,6353,15,68,905
598981,1332004,1958272,1335995,1958587,2805,281,6879,2290,1147,-1181,440,5446,27,67,904
599982,1332164,1958556,1336192,1958784,2573,518,5972,2157,868,-1239,1773,4239,27,67,904
600983,1332316,1958864,1336389,1958981,2642,319,5350,2189,537,-602,2505,5703,25,69,902
601984,1332488,1959124,1336586,1959178,2529,591,4820,2302,306,126,3908,5450,25,69,902
602986,1332648,1959480,1336783,1959375,2622,-79,4154,2348,307,710,3332,4772,43,63,905
603986,1332804,1959796,1336980,1959572,2666,119,3443,2140,470,282,2054,3783,43,63,905
604987,1332996,1960048,1337177,1959769,2444,495,2887,1744,581,-289,941,3127,33,64,905
605988,1333172,1960204,1337374,1959966,2553,1113,2564,1185,569,-431,1358,2549,33,64,905
606989,1333352,1960408,1337571,1960163,2537,810,2348,438,514,82,1137,1997,27,62,906
607990,1333548,1960676,1337768,1960360,2438,379,2109,-199,523,314,1386,2460,27,62,906
608991,1333720,1960984,1337965,1960557,2600,80,1808,-545,546,285,2423,3088,46,59,902
609992,1333884,1961212,1338162,1960754,2665,566,1439,-694,440,124,2929,3307,46,59,902
610994,1334024,1961432,1338359,1960951,2841,606,1116,-919,195,-687,2927,2986,43,59,905
611995,1334164,1961644,1338556,1961148,2867,650,828,-1095,-215,-1280,3196,3338,43,59,905
612996,1334284,1961804,1338753,1961345,3026,991,534,-1198,-743,-1512,3130,3321,16,30,904
613997,1334388,1961948,1338950,1961542,3168,1114,233,-1285,-1290,-1847,2571,3471,16,30,904
614997,1334484,1962056,1339147,1961739,3264,1378,-40,-1308,-1801,-1950,1920,3450,28,25,902
615999,1334588,1962136,1339344,1961936,3256,1605,-235,-1415,-2265,-1830,1551,3099,28,25,902
616999,1334684,1962168,1339541,1962133,3351,1977,-374,-1531,-2694,-1885,1608,3192,28,19,897
618001,1334788,1962204,1339738,1962330,3343,2023,-453,-1742,-3100,-2045,1705,2828,28,19,897
619002,1334876,1962220,1339935,1962527,3491,2227,-487,-2017,-3459,-1794,1650,2611,16,0,894
620003,1334984,1962252,1340132,1962724,3406,2200,-484,-2283,-3685,-1383,1283,2462,16,0,894
621003,1335096,1962280,1340329,1962921,3419,2299,-456,-2600,-3741,-886,872,2444,29,0,890
622004,1335184,1962316,1340526,1963118,3618,2320,-436,-2888,-3679,-416,838,2496,29,0,890
623006,1335280,1962372,1340723,1963315,3613,2257,-447,-3171,-3541,13,957,2576,10,16,889
624006,1335424,1962440,1340920,1963512,3338,2239,-506,-3264,-3334,514,952,3211,10,16,889
625007,1335540,1962536,1341117,1963709,3550,2108,-605,-3208,-3066,807,861,3686,11,14,887
626009,1335648,1962672,1341314,1963906,3640,1886,-720,-2970,-2772,955,1021,4178,11,14,887
627010,1335772,1962800,1341511,1964103,3574,1966,-829,-2571,-2502,1026,1003,4651,16,36,890
628011,1335896,1962952,1341708,1964300,3607,1836,-889,-2104,-2316,978,874,4599,16,36,890
629012,1336032,1963076,1341905,1964497,3559,2043,-903,-1604,-2252,899,666,4916,30,27,889
630013,1336192,1963200,1342102,1964694,3427,2076,-890,-1130,-2243,1029,285,5078,30,27,889
631013,1336360,1963348,1342299,1964891,3390,1948,-894,-490,-2204,1310,-157,5534,27,23,889
632014,1336536,1963484,1342496,1965088,3351,2049,-903,260,-2148,1521,-171,5639,27,23,889
633015,1336732,1963616,1342693,1965285,3227,2103,-892,901,-2163,1565,401,5337,40,23,889
634016,1336980,1963740,1342890,1965482,2882,2186,-860,1447,-2273,1586,874,5169,40,23,889
635017,1337220,1963860,1343087,1965679,2914,2245,-798,1844,-2386,1677,172,4901,50,37,892
636018,1337480,1964012,1343284,1965876,2762,2065,-712,2161,-2457,1755,-959,4619,50,37,892
637019,1337772,1964128,1343481,1966073,2521,2326,-591,2357,-2516,1579,-1539,3945,56,25,895
638020,1338020,1964260,1343678,1966270,2775,2255,-431,2299,-2570,1532,-2008,3478,56,25,895
639021,1338288,1964384,1343875,1966467,2620,2338,-252,2242,-2615,1735,-2594,3347,52,19,895
640022,1338592,1964492,1344072,1966664,2349,2477,-70,2110,-2638,1791,-2816,3185,52,19,895
641023,1338852,1964620,1344269,1966861,2597,2382,159,1942,-2651,1656,-2712,3074,47,28,895
642025,1339116,1964736,1344466,1967058,2544,2494,398,1653,-2711,1418,-1803,2765,47,28,895
643025,1339420,1964856,1344663,1967255,2248,2503,613,1376,-2781,1230,-1563,2885,43,28,895
644027,1339660,1964948,1344860,1967452,2630,2725,800,1168,-2827,931,-1926,2954,43,28,895
645027,1339904,1965072,1345057,1967649,2585,2557,996,854,-2844,706,-2985,2544,42,37,896
646029,1340140,1965192,1345254,1967846,2619,2617,1220,508,-2839,657,-3550,2736,42,37,896
647029,1340352,1965312,1345451,1968043,2763,2651,1418,284,-2815,496,-3492,3010,51,35,893
648031,1340576,1965440,1345648,1968240,2677,2632,1560,195,-2787,362,-3141,3307,51,35,893
649031,1340796,1965556,1345845,1968437,2693,2743,1674,184,-2766,77,-2114,3579,47,33,894
650033,1340992,1965680,1346042,1968634,2845,2726,1742,245,-2759,-114,-1288,3987,47,33,894
651033,1341192,1965828,1346239,1968831,2819,2597,1781,428,-2761,-31,-841,4218,28,30,892
652035,1341352,1965948,1346436,1969028,3087,2807,1805,547,-2775,-31,-175,3913,28,30,892
653036,1341564,1966064,1346633,1969225,2756,2869,1843,522,-2793,20,138,3595,38,24,890
654036,1341760,1966192,1346830,1969422,2858,2824,1882,428,-2762,279,162,3470,38,24,890
655037,1341956,1966304,1347027,1969619,2859,2962,1920,355,-2650,613,194,3523,48,26,888
656038,1342184,1966416,1347224,1969816,2646,3000,1957,296,-2516,733,400,3475,48,26,888
657039,1342368,1966548,1347421,1970013,2928,2904,1996,146,-2398,822,743,3319,26,37,890
658041,1342564,1966700,1347618,1970210,2854,2800,2021,81,-2296,929,936,3570,26,37,890
659041,1342756,1966800,1347815,1970407,2883,3168,2006,78,-2184,1024,965,3691,40,26,889
660043,1342940,1966944,1348012,1970604,2939,2917,1954,118,-2053,1021,953,3724,40,26,889
661043,1343112,1967084,1348209,1970801,3026,2968,1882,87,-1940,950,1082,3598,39,26,890
662045,1343296,1967252,1348406,1970998,2958,2806,1787,-12,-1860,986,1170,3381,39,26,890
663045,1343488,1967408,1348603,1971195,2911,2900,1655,-133,-1806,1020,1191,3386,43,44,889
664047,1343636,1967580,1348800,1971392,3209,2812,1476,-178,-1789,910,1176,3486,43,44,889
665047,1343808,1967720,1348997,1971589,3071,3038,1260,-209,-1820,953,1334,3656,41,45,888
666048,1343976,1967868,1349194,1971786,3110,3009,1005,-199,-1874,1092,1300,3776,41,45,888
667049,1344152,1968040,1349391,1971983,3070,2871,742,-183,-1944,1161,1286,3615,25,39,888
668050,1344340,1968236,1349588,1972180,3000,2723,465,-205,-2030,1167,1058,3577,25,39,888
669051,1344496,1968428,1349785,1972377,3219,2751,207,-359,-2110,1139,660,3406,22,34,887
670052,1344668,1968612,1349982,1972574,3131,2807,-26,-550,-2157,1286,252,3243,22,34,887
671053,1344836,1968800,1350179,1972771,3169,2787,-238,-754,-2173,1349,65,3001,40,34,890
672054,1345008,1968968,1350376,1972968,3156,2925,-421,-1116,-2187,1292,149,2784,40,34,890
673055,1345156,1969180,1350573,1973165,3329,2645,-583,-1517,-2196,1327,115,2777,35,36,888
674057,1345340,1969404,1350770,1973362,3111,2558,-715,-1920,-2196,1357,118,2672,35,36,888
675064,1345548,1969640,1351000,1973592,2971,2481,-823,-2277,-2202,1290,-1,2933,33,38,887
676059,1345724,1969848,1351197,1973789,3182,2652,-904,-2588,-2216,1147,34,3180,33,38,887
677060,1345928,1970044,1351394,1973986,3005,2729,-986,-2847,-2238,1049,89,3506,36,53,889
678061,1346140,1970240,1351591,1974183,2949,2729,-1063,-2923,-2264,953,402,3989,36,53,889
679061,1346340,1970440,1351788,1974380,3024,2704,-1142,-2861,-2262,790,274,4454,26,54,888
680063,1346528,1970684,1351985,1974577,3104,2409,-1225,-2736,-2231,615,-55,4793,26,54,888
681063,1346736,1970888,1352182,1974774,2975,2657,-1293,-2565,-2204,472,-152,4861,45,45,890
682065,1346948,1971136,1352379,1974971,2944,2360,-1330,-2383,-2178,371,-197,4995,45,45,890
683066,1347176,1971372,1352576,1975168,2832,2419,-1343,-2210,-2164,243,-192,5190,53,62,892
684066,1347404,1971628,1352773,1975365,2819,2269,-857,-1475,-2083,-8,-605,11387,53,62,892
685068,1347636,1971892,1352970,1975562,2780,2189,712,1254,-1805,-760,-1416,27791,49,58,894
686069,1347900,1972180,1353167,1975759,2551,2000,1910,2938,-1633,-156,48,10019,49,58,894
687070,1348184,1972444,1353364,1975956,2389,2122,2065,2785,-1628,316,666,3537,56,65,894
688070,1348432,1972704,1353561,1976153,2592,2120,1788,1685,-1652,615,495,2397,56,65,894
689071,1348644,1972936,1353758,1976350,2812,2280,1567,593,-1629,796,316,2070,40,58,898
690073,1348892,1973212,1353955,1976547,2565,1971,1497,-183,-1543,530,253,2197,40,58,898
691074,1349148,1973512,1354152,1976744,2491,1776,1445,-873,-1466,436,207,2112,44,49,898
692075,1349372,1973772,1354349,1976941,2680,1999,1376,-1498,-1463,292,495,2390,44,49,898
693076,1349620,1974024,1354546,1977138,2508,2026,1272,-2090,-1484,19,740,2796,58,47,898
694077,1349856,1974268,1354743,1977335,2567,2055,1123,-2470,-1503,147,715,3300,58,47,898
695078,1350084,1974480,1354940,1977532,2604,2250,956,-2706,-1493,100,616,3610,56,57,898
696079,1350308,1974720,1355137,1977729,2619,2056,802,-2804,-1443,-192,680,4141,56,57,898
697080,1350532,1974972,1355334,1977926,2608,1958,622,-2710,-1402,-316,583,4836,49,41,897
698081,1350760,1975200,1355531,1978123,2569,2095,445,-2502,-1381,-527,815,5153,49,41,897
699081,1350984,1975424,1355728,1978320,2583,2108,308,-2237,-1372,-688,1226,5263,29,40,897
700082,1351212,1975616,1355925,1978517,2546,2311,224,-1970,-1397,-793,1578,5240,29,40,897
701084,1351436,1975820,1356122,1978714,2560,2233,174,-1694,-1434,-975,1991,5429,38,50,898
702085,1351664,1976036,1356319,1978911,2522,2151,155,-1425,-1448,-1058,2086,5266,38,50,898
703086,1351932,1976220,1356516,1979108,2242,2357,179,-1257,-1422,-1243,1809,4927,36,29,897
704086,1352200,1976372,1356713,1979305,2212,2577,231,-1146,-1352,-1309,1471,4842,36,29,897
705087,1352496,1976544,1356910,1979502,1994,2463,315,-1133,-1253,-1180,1184,4675,58,25,898
706089,1352816,1976696,1357107,1979699,1791,2609,412,-1106,-1125,-1238,503,4634,58,25,898
707089,1353124,1976864,1357304,1979896,1817,2523,495,-1030,-959,-1702,-261,4860,46,43,897
708091,1353428,1977024,1357501,1980093,1796,2589,567,-804,-762,-2200,-960,5123,46,43,897
709092,1353820,1977164,1357698,1980290,1162,2740,599,-585,-555,-2205,-1280,4997,52,28,898
710093,1354160,1977312,1357895,1980487,1425,2712,597,-301,-325,-2058,-1190,5368,52,28,898
711094,1354472,1977492,1358092,1980684,1549,2520,547,-50,-72,-1982,-850,5042,56,28,899
712095,1354748,1977648,1358289,1980881,1741,2689,488,190,193,-2232,-380,4902,56,28,899
713096,1355104,1977812,1358486,1981078,1172,2654,455,257,510,-2795,-218,4368,59,24,900
714097,1355396,1977976,1358683,1981275,1530,2669,465,159,867,-3157,-471,3927,59,24,900
715098,1355680,1978120,1358880,1981472,1543,2818,502,-34,1280,-3529,-1166,3906,47,24,898
716099,1355984,1978248,1359077,1981669,1372,2949,574,-177,1729,-3938,-1638,4122,47,24,898
717100,1356272,1978400,1359274,1981866,1432,2820,699,-349,2120,-3878,-1399,3830,51,33,900
718101,1356556,1978544,1359471,1982063,1420,2893,888,-609,2465,-3097,-993,3450,51,33,900
719102,1356804,1978704,1359668,1982260,1622,2810,1107,-876,2778,-2386,-550,3484,52,41,897
720102,1357044,1978868,1359865,1982457,1654,2801,1334,-1311,3028,-1784,-289,2943,52,41,897
721103,1357284,1979024,1360062,1982654,1635,2869,1532,-1725,3252,-1339,-706,3002,54,23,897
722105,1357528,1979184,1360259,1982851,1591,2861,1691,-2011,3490,-1070,-1221,3408,54,23,897
723105,1357756,1979324,1360456,1983048,1677,3012,1792,-2185,3701,-974,-1732,3645,34,25,898
724106,1357964,1979504,1360653,1983245,1798,2769,1876,-2289,3844,-983,-2130,3728,34,25,898
725107,1358176,1979664,1360850,1983442,1767,2912,1933,-2323,3925,-952,-2506,4110,46,29,898
726109,1358396,1979840,1361047,1983639,1707,2822,1956,-2231,3952,-792,-2820,4498,46,29,898
727109,1358588,1980048,1361244,1983836,1885,2618,1968,-2060,3946,-532,-2954,4508,41,28,897
728110,1358776,1980216,1361441,1984033,1915,2881,1982,-1838,3905,-107,-2980,4624,41,28,897
729111,1358944,1980396,1361638,1984230,2052,2814,1994,-1631,3806,707,-2741,4577,27,28,897
730113,1359132,1980596,1361835,1984427,1932,2689,1985,-1376,3682,1506,-2647,4632,27,28,897
731114,1359348,1980768,1362032,1984624,1750,2876,1988,-1148,3517,1864,-2385,4466,48,37,894
732114,1359528,1980956,1362229,1984821,1982,2780,2003,-947,3315,1899,-2263,4515,48,37,894
733115,1359676,1981124,1362426,1985018,2205,2919,2005,-773,3085,1832,-1902,4508,26,36,898
734116,1359824,1981284,1362623,1985215,2227,2986,1994,-556,2846,1890,-1626,4459,26,36,898
735117,1359996,1981468,1362820,1985412,2089,2843,2008,-423,2600,2160,-1359,4104,43,50,897
736118,1360136,1981688,1363017,1985609,2314,2608,2049,-455,2331,2549,-1235,3681,43,50,897
737119,1360304,1981920,1363214,1985806,2152,2518,2116,-572,2011,2848,-644,3468,43,34,894
738121,1360464,1982116,1363411,1986003,2219,2745,2172,-626,1639,2845,247,3385,43,34,894
739121,1360600,1982304,1363608,1986200,2396,2799,2176,-656,1243,2500,772,3618,18,45,895
740122,1360688,1982480,1363805,1986397,2744,2884,2115,-607,818,1847,831,4016,18,45,895
741123,1360780,1982712,1364002,1986594,2766,2519,1999,-396,356,1394,777,4378,31,42,894
742125,1360860,1982948,1364199,1986791,2894,2478,1827,-50,-28,1248,86,4497,31,42,894
743125,1360916,1983192,1364396,1986988,3106,2408,1676,144,-377,1396,553,3859,27,53,890
744127,1360984,1983420,1364593,1987185,3088,2495,1524,196,-708,1354,98,3621,27,53,890
745127,1361040,1983656,1364790,1987382,3226,2429,1343,280,-983,1022,-611,3654,2,51,892
746129,1361108,1983920,1364987,1987579,3208,2225,1152,409,-1153,563,-1835,3734,2,51,892
747130,1361196,1984208,1365184,1987776,3132,2035,1003,471,-1225,191,-2815,3519,20,41,890
748131,1361260,1984496,1365381,1987973,3341,1996,938,482,-1277,-74,-2988,3089,20,41,890
749131,1361348,1984780,1365578,1988170,3240,1984,930,354,-1352,-328,-3176,2779,27,52,891
750133,1361476,1985072,1365775,1988367,3021,1892,938,180,-1411,-644,-3256,2476,27,52,891
751134,1361604,1985340,1365972,1988564,3052,2012,976,-78,-1413,-722,-2863,2164,13,54,891
752135,1361732,1985680,1366169,1988761,3083,1500,1038,-365,-1352,-631,-2572,2303,13,54,891
753135,1361872,1986024,1366366,1988958,3034,1411,1064,-399,-1182,-846,-3004,3105,19,56,894
754137,1361996,1986324,1366563,1989155,3167,1642,1070,-328,-921,-1259,-2856,3229,19,56,894
755137,1362132,1986596,1366760,1989352,3120,1784,1109,-283,-674,-1404,-2130,3101,27,58,896
756139,1362248,1986884,1366957,1989549,3281,1645,1207,-291,-493,-1283,-1310,2926,27,58,896
757139,1362392,1987248,1367154,1989746,3130,1096,1371,-380,-380,-989,-500,2491,37,66,895
758148,1362540,1987564,1367384,1989976,3142,1359,1603,-569,-351,-640,433,2191,37,66,895
759142,1362696,1987860,1367581,1990173,3111,1441,1846,-726,-314,-214,728,2454,19,59,894
760143,1362920,1988136,1367778,1990370,2675,1532,2031,-490,-178,154,694,3634,19,59,894
761143,1363152,1988480,1367975,1990567,2611,1043,2149,91,32,95,1121,4239,32,68,897
762145,1363352,1988816,1368172,1990764,2811,1032,2284,606,200,1,1617,4052,32,68,897
763146,1363592,1989144,1368369,1990961,2543,1025,2465,1181,287,-154,1773,4200,50,69,899
764147,1363788,1989420,1368566,1991158,2819,1315,2684,1645,341,-321,1848,3913,50,69,899
765147,1363980,1989768,1368763,1991355,2847,799,2876,2148,382,16,1581,4179,32,69,900
766148,1364220,1990096,1368960,1991552,2530,867,3020,2782,412,438,1298,4241,32,69,900
767149,1364480,1990424,1369157,1991749,2378,810,3108,3439,416,689,915,4177,37,65,900
768150,1364696,1990748,1369354,1991946,2644,779,3121,4114,391,757,497,4247,37,65,900
769151,1364960,1991040,1369551,1992143,2316,938,3112,4747,398,146,130,4220,48,59,904
770152,1365192,1991368,1369748,1992340,2502,656,3103,5189,386,83,416,3454,48,59,904
771153,1365460,1991636,1369945,1992537,2246,999,3131,5380,279,767,986,2331,39,64,903
772154,1365732,1991912,1370142,1992734,2189,915,3185,5374,120,1716,1267,1944,39,64,903
773155,1365984,1992200,1370339,1992931,2291,800,3195,5349,14,2254,799,1808,53,67,905
774156,1366236,1992528,1370536,1993128,2268,492,3112,5420,12,1714,-147,2267,53,67,905
775158,1366456,1992824,1370733,1993325,2458,649,2987,5564,30,856,-277,2262,59,59,905
776158,1366696,1993124,1370930,1993522,2315,579,2859,5603,-86,896,291,1584,59,59,905
777159,1366948,1993492,1371127,1993719,2217,79,2743,5481,-355,1542,1070,1021,46,61,907
778161,1367192,1993868,1371324,1993916,2247,-49,2584,5151,-657,2123,1292,619,46,61,907
779162,1367472,1994256,1371521,1994113,1987,-208,2344,4917,-890,1694,322,1084,55,55,906
780162,1367712,1994532,1371718,1994310,2218,457,2076,4782,-1074,591,-11,1084,55,55,906
781163,1367944,1994736,1371915,1994507,2254,904,1821,4648,-1291,183,-20,1126,56,55,908
782164,1368224,1995000,1372112,1994704,1918,499,1565,4481,-1579,601,71,723,56,55,908
783166,1368520,1995232,1372309,1994901,1776,684,1306,4266,-1884,1069,-82,696,63,56,908
784166,1368780,1995480,1372506,1995098,1973,561,1024,4140,-2133,858,-680,985,63,56,908
785167,1369064,1995664,1372703,1995295,1786,966,738,3919,-2373,133,-878,665,38,38,908
786169,1369340,1995784,1372900,1995492,1802,1400,461,3710,-2629,-264,-871,954,38,38,908
787169,1369564,1995896,1373097,1995689,2115,1488,173,3546,-2928,-281,-391,985,49,51,907
788170,1369916,1996164,1373294,1995886,1248,481,-132,3408,-3251,-310,-276,1037,49,51,907
789171,1370188,1996380,1373491,1996083,1716,798,-466,3355,-3456,-339,-785,1426,46,51,907
790172,1370448,1996604,1373688,1996280,1763,736,-841,3500,-3544,-529,-663,2095,46,51,907
791173,1370728,1996780,1373885,1996477,1603,1045,-1169,3643,-3567,-686,-184,1877,44,46,913
792174,1370980,1996840,1374082,1996674,1755,1831,-1414,3591,-3589,-751,373,1359,44,46,913
793175,1371292,1997008,1374279,1996871,1329,1168,-1649,3452,-3625,-690,464,1369,39,34,909
794176,1371544,1997224,1374476,1997068,1681,860,-1940,3312,-3638,-759,374,1580,39,34,909
795178,1371816,1997404,1374673,1997265,1523,1092,-2291,3204,-3597,-1014,16,1851,51,41,904
796178,1372052,1997596,1374870,1997462,1732,1020,-2632,3042,-3553,-1261,61,1597,51,41,904
797179,1372292,1997736,1375067,1997659,1688,1370,-2949,2749,-3502,-1148,191,1480,59,45,908
798180,1372580,1997900,1375264,1997856,1349,1234,-3383,2688,-3366,-610,90,2688,59,45,908
799181,1372836,1998092,1375461,1998053,1523,1061,-3734,2362,-3220,-1065,-574,1213,59,44,909
800182,1373092,1998296,1375658,1998250,1498,983,-3941,1857,-3114,-1255,-1038,1438,59,44,909
801183,1373352,1998520,1375855,1998447,1445,846,-4087,1325,-2957,-1241,-1451,1925,54,34,909
802184,1373584,1998696,1376052,1998644,1606,1156,-4223,981,-2776,-923,-1407,2718,54,34,909
803185,1373804,1998864,1376249,1998841,1671,1218,-4355,809,-2601,-777,-1305,3040,34,26,909
804186,1374044,1999032,1376446,1999038,1528,1231,-4534,733,-2479,-496,-928,3791,34,26,909
805187,1374260,1999164,1376643,1999235,1670,1485,-4700,612,-2426,-271,-891,3570,44,36,909
806188,1374448,1999264,1376840,1999432,1850,1727,-4722,95,-2431,-410,-1306,2680,44,36,909
807190,1374648,1999380,1377037,1999629,1773,1663,-4685,-472,-2463,66,-1044,3123,35,34,907
808191,1374840,1999548,1377234,1999826,1827,1351,-4615,-1113,-2505,488,-970,2980,35,34,907
809191,1375040,1999736,1377431,2000023,1775,1230,-4491,-1653,-2525,664,-1596,3400,36,29,903
810192,1375260,1999912,1377628,2000220,1641,1314,-4349,-2063,-2532,906,-1678,3916,36,29,903
811193,1375452,2000076,1377825,2000417,1818,1403,-4181,-2359,-2542,1207,-1689,4504,47,27,906
812194,1375648,2000236,1378022,2000614,1794,1445,-3976,-2671,-2573,1569,-1467,4766,47,27,906
813195,1375848,2000372,1378219,2000811,1768,1621,-3728,-2986,-2652,2169,-838,5345,29,29,907
814196,1376024,2000512,1378416,2001008,1928,1621,-2586,-2265,-2825,4210,-367,13979,29,29,907
815197,1376184,2000648,1378613,2001205,2045,1673,1087,4257,-3498,11895,86,32767,23,38,905
816198,1376420,2000788,1378810,2001402,1553,1673,4460,8624,-4092,5820,-28,16869,23,38,905
817199,1376616,2000944,1379007,2001599,1804,1592,5136,7855,-4261,3376,243,2250,35,29,904
818201,1376812,2001124,1379204,2001796,1805,1450,4708,5132,-4227,3542,-1125,1115,35,29,904
819201,1376984,2001288,1379401,2001993,1967,1564,4049,3071,-3997,3480,-2973,2665,34,25,904
820203,1377160,2001440,1379598,2002190,1951,1659,3789,1988,-3836,3311,-1817,1745,34,25,904
821203,1377352,2001596,1379795,2002387,1854,1652,3629,907,-3843,3669,-2025,1729,22,22,905
822204,1377528,2001752,1379992,2002584,1963,1670,3381,-106,-3882,3700,-1430,1983,22,22,905
823205,1377724,2001904,1380189,2002781,1839,1715,3010,-1109,-3949,3874,-822,2324,39,24,903
824207,1377908,2002016,1380386,2002978,1920,2003,2538,-2042,-4047,3817,-842,2618,39,24,903
825207,1378096,2002156,1380583,2003175,1899,1853,2010,-2577,-4113,3609,-709,3924,26,36,904
826209,1378280,2002300,1380780,2003372,1931,1852,1538,-2935,-4154,3863,-171,4002,26,36,904
827209,1378488,2002480,1380977,2003569,1776,1634,1109,-3260,-4188,4013,-12,3983,27,33,902
828211,1378688,2002656,1381174,2003766,1826,1668,748,-3462,-4236,3786,716,4666,27,33,902
829211,1378908,2002844,1381371,2003963,1691,1598,448,-3453,-4371,4080,1820,5246,28,25,901
830213,1379132,2002980,1381568,2004160,1655,1950,179,-3281,-4596,4374,2863,5857,28,25,901
831213,1379364,2003104,1381765,2004357,1590,2057,-23,-2990,-4796,4131,3242,6049,50,36,903
832214,1379620,2003236,1381962,2004554,1415,2036,-138,-2613,-4948,4019,3350,6049,50,36,903
833215,1379852,2003372,1382159,2004751,1549,2038,-132,-2442,-5084,3603,3256,5349,43,19,904
834217,1380076,2003508,1382356,2004948,1588,2065,-19,-2382,-5118,3140,2543,4872,43,19,904
835217,1380332,2003652,1382553,2005145,1363,2039,61,-2118,-5166,2791,2481,5724,34,21,904
836219,1380568,2003788,1382750,2005342,1470,2115,63,-1654,-5316,2073,2249,6244,34,21,904
837219,1380808,2003928,1382947,2005539,1427,2116,109,-1244,-5385,1553,1135,5357,35,33,903
838220,1381076,2004044,1383144,2005736,1221,2302,227,-990,-5284,1503,339,5027,35,33,903
839221,1381296,2004168,1383341,2005933,1512,2284,298,-585,-5095,1307,-53,5723,32,17,903
840223,1381496,2004328,1383538,2006130,1636,2076,368,-110,-4913,727,-353,5375,32,17,903
841230,1381740,2004468,1383768,2006360,1355,2241,483,315,-4806,570,-353,5043,51,26,902
842225,1381988,2004612,1383965,2006557,1308,2239,579,753,-4705,598,-485,5352,51,26,902
843226,1382196,2004732,1384162,2006754,1553,2424,656,1175,-4545,655,-400,4929,31,33,903
844227,1382428,2004884,1384359,2006951,1389,2244,682,1435,-4376,633,-187,4509,31,33,903
845227,1382644,2005064,1384556,2007148,1481,2076,659,1638,-4220,431,-318,4176,32,34,903
846228,1382868,2005248,1384753,2007345,1419,2058,608,1757,-4073,301,-370,3895,32,34,903
847229,1383080,2005408,1384950,2007542,1488,2224,550,1834,-3959,355,-324,3567,40,41,903
848231,1383320,2005548,1385147,2007739,1294,2375,492,1796,-3858,414,-266,3387,40,41,903
849231,1383556,2005728,1385344,2007936,1302,2133,417,1759,-3760,550,-192,3270,29,40,904
850233,1383776,2005916,1385541,2008133,1393,2087,331,1624,-3700,725,86,2894,29,40,904
851233,1384028,2006120,1385738,2008330,1169,1985,219,1482,-3689,822,278,2957,47,45,901
852235,1384292,2006316,1385935,2008527,1065,2035,63,1326,-3683,829,-34,2930,47,45,901
853235,1384520,2006492,1386132,2008724,1277,2170,-124,1221,-3675,859,-378,3045,54,36,903
854236,1384772,2006696,1386329,2008921,1103,1992,-311,1220,-3666,657,-658,3185,54,36,903
855237,1385028,2006876,1386526,2009118,1052,2151,-479,1139,-3661,431,-749,3199,44,44,906
856238,1385252,2007108,1386723,2009315,1241,1810,-606,1027,-3687,437,-480,3028,44,44,906
857239,1385528,2007284,1386920,2009512,881,2170,-724,871,-3729,653,-57,2988,49,30,906
858240,1385768,2007492,1387117,2009709,1087,1966,-885,796,-3762,874,2,3183,49,30,906
859241,1386000,2007700,1387314,2009906,1122,1961,-1034,672,-3779,983,116,2920,31,36,906
860242,1386232,2007872,1387511,2010103,1108,2198,-1081,422,-3780,969,367,2468,31,36,906
861243,1386488,2008100,1387708,2010300,932,1834,-1064,94,-3768,1070,348,2561,37,47,906
862244,1386692,2008344,1387905,2010497,1254,1715,-1048,-133,-3736,908,131,2799,37,47,906
863245,1386912,2008540,1388102,2010694,1143,2015,-1060,-261,-3707,610,149,3147,48,41,904
864246,1387160,2008764,1388299,2010891,947,1828,-1099,-306,-3704,427,250,3349,48,41,904
865247,1387384,2008980,1388496,2011088,1085,1871,-1154,-223,-3705,305,332,3634,35,45,907
866248,1387608,2009228,1388693,2011285,1073,1648,-1235,-26,-3686,317,322,3848,35,45,907
867249,1387832,2009472,1388890,2011482,1061,1654,-1339,169,-3654,313,337,3926,32,42,907
868250,1388072,2009772,1389087,2011679,943,1259,-1437,394,-3612,63,270,4168,32,42,907
869251,1388296,2010028,1389284,2011876,1032,1508,-1524,654,-3568,-191,309,4063,48,48,908
870252,1388516,2010272,1389481,2012073,1047,1563,-1594,854,-3538,-219,420,3750,48,48,908
871253,1388724,2010524,1389678,2012270,1117,1489,-1632,924,-3526,4,788,3410,31,47,911
872254,1388932,2010780,1389875,2012467,1112,1438,-1639,903,-3514,370,1096,3061,31,47,911
873255,1389140,2011016,1390072,2012664,1107,1547,-1613,830,-3505,839,1136,2844,50,53,908
874257,1389360,2011200,1390269,2012861,1022,1877,-1546,746,-3494,1080,348,2753,50,53,908
875258,1389600,2011360,1390466,2013058,879,2044,-1447,646,-3479,1140,-825,2672,52,44,908
876258,1389824,2011516,1390663,2013255,967,2088,-1356,548,-3489,1003,-1158,2765,52,44,908
877259,1389996,2011652,1390860,2013452,1303,2240,-1283,599,-3495,764,-1445,3111,36,32,907
878260,1390208,2011788,1391057,2013649,1047,2266,-1266,800,-3452,511,-1663,3590,36,32,907
879261,1390412,2011916,1391254,2013846,1094,2348,-1251,1125,-3336,33,-1863,3742,40,31,906
880262,1390608,2012032,1391451,2014043,1144,2458,-1244,1546,-3164,-594,-1816,4137,40,31,906
881263,1390796,2012144,1391648,2014240,1199,2521,-1236,2040,-2953,-1080,-1470,4284,26,25,904
882265,1391004,2012264,1391845,2014437,1069,2505,-1276,2536,-2699,-1257,-1633,4349,26,25,904
883265,1391200,2012384,1392042,2014634,1145,2539,-1297,3059,-2368,-1394,-2603,4356,37,23,902
884266,1391376,2012540,1392239,2014831,1279,2333,-1244,3541,-2025,-1608,-3139,4204,37,23,902
885267,1391524,2012656,1392436,2015028,1475,2619,-1124,3862,-1738,-1836,-2992,3686,21,21,902
886269,1391696,2012788,1392633,2015225,1336,2547,-960,4108,-1492,-2030,-2942,3541,21,21,902
887269,1391824,2012892,1392830,2015422,1643,2764,-808,4365,-1239,-2123,-3006,3544,20,28,903
888270,1391952,2013008,1393027,2015619,1673,2725,-687,4532,-945,-2172,-2915,3422,20,28,903
889271,1392092,2013120,1393224,2015816,1623,2788,-606,4692,-615,-2157,-2321,3331,33,14,901
890273,1392196,2013220,1393421,2016013,1889,2906,-560,4806,-306,-2198,-1145,3115,33,14,901
891274,1392328,2013300,1393618,2016210,1742,3083,-511,4859,-9,-2394,-866,3060,24,24,898
892274,1392524,2013412,1393815,2016407,1344,2921,-427,4920,299,-2719,-1021,3201,24,24,898
893276,1392708,2013532,1394012,2016604,1425,2906,-339,5018,579,-2854,-902,3297,30,30,895
894276,1392864,2013668,1394209,2016801,1618,2833,-279,5128,813,-2922,-898,3408,30,30,895
895277,1393016,2013808,1394406,2016998,1662,2833,-256,5239,1008,-3047,-1166,3534,45,26,897
896278,1393164,2013952,1394603,2017195,1710,2833,-241,5316,1154,-3252,-1342,3416,45,26,897
897280,1393316,2014088,1394800,2017392,1705,2909,-248,5277,1226,-3423,-1280,3327,22,30,896
898281,1393456,2014224,1394997,2017589,1805,2937,-279,5219,1203,-3595,-398,3195,22,30,896
899281,1393576,2014376,1395194,2017786,1965,2858,-343,5132,1135,-3696,-48,3134,23,40,897
900282,1393684,2014532,1395391,2017983,2079,2851,-426,4926,1072,-3646,54,2905,23,40,897
901283,1393816,2014736,1395588,2018180,1957,2549,-502,4608,1031,-3408,-23,2738,17,38,896
902284,1393932,2014940,1395785,2018377,2093,2547,-552,4270,991,-3220,-538,2635,17,38,896
903285,1394056,2015132,1395982,2018574,2076,2624,-575,3861,984,-3168,-1440,2706,16,43,895
904286,1394164,2015352,1396179,2018771,2215,2440,-556,3428,1014,-3051,-2206,2835,16,43,895
905287,1394252,2015536,1396376,2018968,2389,2672,-490,3047,1026,-2885,-2729,3063,30,36,897
906289,1394356,2015736,1396573,2019165,2330,2570,-398,2631,977,-2774,-2810,3064,30,36,897
907289,1394428,2015952,1396770,2019362,2585,2463,-193,2131,910,-2569,-3146,3873,11,35,895
908290,1394536,2016196,1396967,2019559,2400,2268,1363,2565,807,-948,-3542,20554,11,35,895
909291,1394628,2016444,1397164,2019756,2546,2221,4727,4235,618,755,-3070,32767,17,42,895
910292,1394736,2016688,1397361,2019953,2486,2226,6988,5073,530,-703,-1982,14006,17,42,895
911293,1394860,2016980,1397558,2020150,2418,1886,7048,4471,637,-1518,-1685,2935,14,47,897
912294,1394948,2017160,1397755,2020347,2692,2593,6208,3448,795,-1264,-1232,2475,14,47,897
913295,1395068,2017276,1397952,2020544,2526,3030,5544,2544,878,-1146,-507,2339,13,39,897
914297,1395180,2017412,1398149,2020741,2614,2931,5203,1788,884,-1097,-103,2166,13,39,897
915297,1395284,2017580,1398346,2020938,2705,2745,4989,1098,849,-956,-19,2016,12,25,893
916298,1395408,2017772,1398543,2021135,2613,2598,4726,388,865,-818,-72,2258,12,25,893
917299,1395528,2018060,1398740,2021332,2673,1958,4256,-36,949,-515,101,3413,36,48,889
918300,1395644,2018404,1398937,2021529,2734,1545,3673,-407,1013,-356,790,3128,36,48,889
919301,1395776,2018776,1399134,2021726,2663,1293,3144,-821,989,-329,1282,2917,19,69,892
920302,1395920,2019156,1399331,2021923,2612,1163,2768,-1276,870,-240,1538,2840,19,69,892
921303,1396060,2019392,1399528,2022120,2663,2047,2477,-1661,746,-32,1517,3376,23,75,899
922304,1396208,2019748,1399725,2022317,2635,1227,2214,-1832,665,-70,1516,3891,23,75,899
923305,1396376,2020104,1399922,2022514,2523,1159,1956,-1911,581,-162,1538,3908,25,79,901
924315,1396516,2020504,1400152,2022744,2738,809,1716,-2000,434,-235,1694,3897,25,79,901
925307,1396680,2020860,1400349,2022941,2604,1014,1530,-2140,216,-417,1918,3684,45,86,900
926308,1396832,2021164,1400546,2023138,2700,1293,1380,-2268,-61,-523,1738,3788,45,86,900
927309,1397008,2021520,1400743,2023335,2559,898,1217,-2250,-379,-588,1477,4349,25,76,902
928310,1397160,2021896,1400940,2023532,2730,695,1043,-2084,-644,-234,1182,4676,25,76,902
929311,1397316,2022260,1401137,2023729,2724,697,878,-1795,-854,132,1417,4872,25,64,900
930313,1397468,2022576,1401334,2023926,2768,945,715,-1502,-1096,232,2125,4924,25,64,900
931313,1397600,2022940,1401531,2024123,2923,571,517,-1174,-1387,424,2514,5081,40,66,902
932314,1397740,2023328,1401728,2024320,2899,338,340,-890,-1677,758,2558,4723,40,66,902
933315,1397884,2023724,1401925,2024517,2898,201,198,-648,-1914,1122,2496,4645,38,75,901
934316,1398004,2024112,1402122,2024714,3082,167,38,-340,-2079,1412,2426,4940,38,75,901
935317,1398140,2024472,1402319,2024911,3010,270,-177,18,-2211,1680,2575,4989,25,64,902
936319,1398284,2024876,1402516,2025108,2984,-96,-386,388,-2357,1840,2756,4729,25,64,902
937319,1398432,2025212,1402713,2025305,2982,268,-534,592,-2510,1967,2492,4330,34,76,901
938322,1398584,2025420,1402910,2025502,2978,1064,-652,722,-2677,2071,2326,4168,34,76,901
939323,1398748,2025756,1403107,2025699,2917,202,-730,706,-2830,2107,1956,3565,30,63,901
940324,1398928,2026040,1403304,2025896,2826,489,-739,603,-2939,2270,1672,3152,30,63,901
941325,1399080,2026332,1403501,2026093,3021,397,-702,431,-3020,2510,1551,3031,37,73,898
942326,1399256,2026644,1403698,2026290,2882,222,-642,340,-3114,2640,1624,3089,37,73,898
943326,1399384,2026912,1403895,2026487,3213,466,-552,416,-3272,2626,2063,3469,25,66,903
944327,1399524,2027140,1404092,2026684,3164,702,-493,691,-3495,2372,2198,4154,25,66,903
945328,1399672,2027396,1404289,2026881,3136,501,-511,1239,-3751,1899,1726,5019,26,45,903
946329,1399788,2027580,1404486,2027078,3372,957,-571,1945,-4021,1438,983,5204,26,45,903
947330,1399924,2027728,1404683,2027275,3275,1203,-593,2658,-4291,1091,402,5144,15,48,899
948331,1400048,2027848,1404880,2027472,3383,1412,-549,3365,-4529,663,-104,4973,15,48,899
949332,1400192,2027920,1405077,2027669,3282,1767,-422,3829,-4744,289,-423,4237,13,24,896
950333,1400336,2027996,1405274,2027866,3307,1795,-236,4105,-4931,62,-813,3786,13,24,896
951334,1400460,2028056,1405471,2028063,3465,1955,-2,4241,-5073,-304,-762,3473,16,26,893
952335,1400632,2028132,1405668,2028260,3177,1908,189,4354,-5213,-474,309,3413,16,26,893
953336,1400776,2028180,1405865,2028457,3376,2149,231,4472,-5361,-746,181,3529,37,9,893
954337,1400944,2028256,1406062,2028654,3240,2027,162,4561,-5494,-1046,-577,3446,37,9,893
955338,1401124,2028328,1406259,2028851,3173,2107,70,4557,-5648,-1338,-1754,3087,39,10,893
956339,1401284,2028420,1406456,2029048,3315,2028,79,4358,-5730,-1524,-2809,2603,39,10,893
957340,1401428,2028496,1406653,2029245,3440,2182,107,4047,-5723,-1634,-2669,2546,24,20,892
958341,1401584,2028580,1406850,2029442,3384,2181,144,3644,-5672,-1528,-2150,2221,24,20,892
959342,1401732,2028652,1407047,2029639,3456,2311,221,3191,-5574,-1486,-1548,1968,22,16,890
960343,1401880,2028772,1407244,2029836,3479,2045,285,2687,-5444,-1505,-1211,2101,22,16,890
961344,1402048,2028888,1407441,2030033,3367,2107,328,2227,-5271,-1418,-1191,2295,19,19,889
962345,1402196,2028964,1407638,2030230,3515,2410,343,1870,-5010,-1270,-1463,2607,19,19,889
963346,1402344,2029060,1407835,2030427,3538,2329,349,1584,-4611,-1146,-1873,2765,37,17,888
964348,1402492,2029152,1408032,2030624,3560,2400,341,1228,-4112,-1036,-1788,2801,37,17,888
965348,1402648,2029208,1408229,2030821,3529,2688,332,875,-3574,-780,-1456,2881,26,16,887
966349,1402800,2029300,1408426,2031018,3575,2509,331,560,-3051,-654,-1030,2994,26,16,887
967350,1402988,2029388,1408623,2031215,3355,2582,315,349,-2575,-600,-791,3373,37,24,887
968351,1403128,2029480,1408820,2031412,3681,2605,282,272,-2145,-617,-701,3986,37,24,887
969352,1403288,2029560,1409017,2031609,3573,2731,219,427,-1752,-721,-883,4761,38,28,886
970353,1403428,2029644,1409214,2031806,3724,2756,114,799,-1391,-844,-1199,5275,38,28,886
971355,1403604,2029736,1409411,2032003,3510,2753,-25,1262,-1055,-932,-1511,5513,26,22,884
972355,1403792,2029824,1409608,2032200,3440,2826,-167,1677,-749,-873,-1620,5597,26,22,884
973356,1403948,2029888,1409805,2032397,3659,3035,-258,1998,-512,-833,-1500,5378,36,12,881
974357,1404112,2029968,1410002,2032594,3625,2987,-268,2221,-386,-856,-1054,4990,36,12,881
975359,1404296,2030048,1410199,2032791,3507,3039,-229,2304,-360,-832,-389,4704,41,16,885
976359,1404472,2030140,1410396,2032988,3567,3010,-202,2299,-384,-672,58,4656,41,16,885
977360,1404656,2030228,1410593,2033185,3524,3084,-192,2305,-444,-527,547,4513,26,27,882
978361,1404832,2030312,1410790,2033382,3584,3159,-158,2179,-547,-472,781,3771,26,27,882
979362,1405012,2030416,1410987,2033579,3567,3075,-79,1783,-714,-378,836,3244,43,32,883
980363,1405184,2030512,1411184,2033776,3630,3170,63,1204,-916,-193,850,2574,43,32,883
981377,1405332,2030620,1411381,2033973,3800,3135,208,513,-1074,20,884,2326,41,27,882
982365,1405492,2030716,1411578,2034170,3745,3255,285,-122,-1147,332,852,2547,41,27,882
983366,1405656,2030844,1411775,2034367,3736,3086,322,-725,-1177,444,996,2587,30,35,880
984380,1405812,2030940,1411972,2034564,3800,3331,385,-1327,-1218,524,953,2349,30,35,880
985381,1405960,2031068,1412169,2034761,3800,3162,490,-2005,-1279,608,713,2357,35,30,879
986382,1406116,2031168,1412366,2034958,3800,3380,592,-2560,-1337,715,474,2837,35,30,879
987383,1406268,2031276,1412563,2035155,3800,3370,670,-2951,-1369,792,62,3143,39,33,878
988384,1406420,2031388,1412760,2035352,3800,3383,723,-3259,-1387,920,-57,3338,39,33,878
989385,1406544,2031528,1412957,2035549,3800,3235,734,-3407,-1434,924,91,3983,16,19,876
990386,1406712,2031608,1413154,2035746,3800,3661,658,-3311,-1475,978,327,4814,16,19,876
991387,1406868,2031704,1413351,2035943,3800,3606,495,-2989,-1483,1138,613,5362,32,17,878
992388,1407024,2031808,1413548,2036140,3800,3598,317,-2509,-1499,1149,984,5682,32,17,878
993389,1407196,2031928,1413745,2036337,3800,3533,135,-1961,-1515,1170,789,5950,23,34,874
994390,1407364,2032060,1413942,2036534,3800,3488,-20,-1516,-1534,1223,687,5681,23,34,874
995391,1407536,2032188,1414139,2036731,3800,3543,-120,-1160,-1555,1267,477,5303,35,22,874
996392,1407720,2032308,1414336,2036928,3800,3628,-148,-978,-1577,1302,503,4835,35,22,874
997393,1407856,2032452,1414533,2037125,3800,3502,-126,-998,-1609,1366,487,4317,37,27,877
998394,1408008,2032592,1414730,2037322,3800,3553,-37,-1160,-1659,1390,624,3676,37,27,877
999395,1408160,2032760,1414927,2037519,3800,3392,76,-1405,-1718,1399,867,3462,27,33,874
1000396,1408328,2032944,1415124,2037716,3800,3299,176,-1651,-1804,1417,1058,3540,27,33,874
1001397,1408448,2033136,1415321,2037913,3800,3252,234,-1816,-1904,1303,1201,3768,38,33,877
1002398,1408612,2033280,1415518,2038110,3800,3576,248,-1898,-1989,1243,924,4002,38,33,877
1003399,1408748,2033452,1415715,2038307,3800,3413,277,-1963,-2068,1272,281,3949,40,40,879
1004400,1408884,2033636,1415912,2038504,3800,3345,338,-2075,-2142,1189,-73,3910,40,40,879
1005401,1409036,2033856,1416109,2038701,3800,3110,392,-2057,-2214,1108,56,4251,38,32,876
1006402,1409164,2034084,1416306,2038898,3800,3047,411,-2046,-2291,1041,196,4199,38,32,876
1007410,1409292,2034276,1416536,2039128,3800,3290,397,-2012,-2355,1030,247,4413,35,36,877
1008404,1409436,2034452,1416733,2039325,3800,3400,354,-1903,-2394,1066,454,4696,35,36,877
1009405,1409572,2034664,1416930,2039522,3800,3169,300,-1719,-2406,1097,510,4745,37,52,881
1010406,1409712,2034912,1417127,2039719,3800,2923,236,-1509,-2388,1033,407,4927,37,52,881
1011407,1409844,2035140,1417324,2039916,3800,3035,179,-1326,-2357,943,365,4907,35,40,878
1012408,1409992,2035368,1417521,2040113,3800,3023,131,-1138,-2331,895,170,4884,35,40,878
1013409,1410148,2035584,1417718,2040310,3800,3090,87,-918,-2282,798,-226,4986,37,53,881
1014410,1410296,2035772,1417915,2040507,3800,3270,50,-709,-2203,701,-516,4913,37,53,881
1015411,1410468,2035964,1418112,2040704,3800,3249,16,-589,-2128,660,-559,4856,26,37,881
1016412,1410608,2036192,1418309,2040901,3800,3011,-2,-481,-2081,514,-426,4728,26,37,881
1017413,1410776,2036432,1418506,2041098,3800,2917,-10,-463,-2049,351,-548,4644,39,43,878
1018414,1410976,2036660,1418703,2041295,3800,2979,31,-443,-2020,250,-716,4978,39,43,878
1019415,1411168,2036900,1418900,2041492,3800,2886,335,-97,-1933,-159,-1081,8538,24,49,881
1020416,1411356,2037160,1419097,2041689,3800,2735,833,525,-1808,-385,-1008,9618,24,49,881
1021417,1411620,2037440,1419294,2041886,3800,2574,1108,565,-1767,-77,-287,4763,34,64,882
1022418,1411824,2037752,1419491,2042083,3800,2325,1111,153,-1791,-30,2,3621,34,64,882
1023419,1412068,2038032,1419688,2042280,3800,2489,1019,-372,-1818,-23,-28,3326,33,64,884
1024407,1412340,2038292,1419885,2042477,3742,2587,937,-847,-1810,-85,-136,3289,33,64,884
1025408,1412616,2038556,1420082,2042674,3683,2533,886,-1222,-1765,-127,-104,3354,57,54,886
1026410,1412892,2038852,1420279,2042871,3651,2291,843,-1521,-1727,-128,90,3454,57,54,886
1027410,1413240,2039160,1420476,2043068,3135,2168,811,-1873,-1716,-259,307,3401,61,63,884
1028412,1413568,2039464,1420673,2043265,3204,2146,781,-2199,-1717,-469,391,3745,61,63,884
1029412,1413876,2039760,1420870,2043462,3282,2153,755,-2384,-1714,-585,459,4057,52,67,888
1030413,1414204,2040040,1421067,2043659,3100,2218,737,-2446,-1687,-613,537,4282,52,67,888
1031414,1414556,2040336,1421264,2043856,2883,2075,739,-2476,-1642,-629,592,4499,58,68,893
1032415,1414880,2040620,1421461,2044053,3005,2112,751,-2478,-1592,-662,612,4551,58,68,893
1033416,1415220,2040904,1421658,2044250,2843,2075,776,-2449,-1535,-710,453,4631,65,69,893
1034417,1415532,2041140,1421855,2044447,2968,2359,805,-2381,-1453,-718,409,4800,65,69,893
1035418,1415860,2041420,1422052,2044644,2812,2047,836,-2261,-1352,-649,459,4730,53,48,894
1036419,1416152,2041684,1422249,2044841,2997,2119,877,-2191,-1229,-530,492,4672,53,48,894
1037420,1416480,2041904,1422446,2045038,2715,2384,928,-2112,-1105,-434,711,4559,66,43,893
1038421,1416768,2042148,1422643,2045235,2926,2214,991,-2095,-1015,-428,941,4406,66,43,893
1039422,1417084,2042376,1422840,2045432,2700,2301,1076,-2106,-949,-479,1046,4214,45,43,893
1040423,1417412,2042580,1423037,2045629,2568,2448,1181,-2212,-894,-536,1093,4020,45,43,893
1041424,1417732,2042804,1423234,2045826,2565,2313,1285,-2288,-828,-438,886,4070,69,41,895
1042425,1418044,2043012,1423431,2046023,2566,2408,1391,-2341,-743,-451,681,4019,69,41,895
1043426,1418360,2043220,1423628,2046220,2490,2404,1505,-2369,-649,-498,403,4071,65,52,895
1044427,1418668,2043440,1423825,2046417,2492,2319,1616,-2362,-555,-493,306,4076,65,52,895
1045428,1418960,2043604,1424022,2046614,2551,2684,1719,-2345,-440,-514,226,4038,46,48,895
1046429,1419280,2043780,1424219,2046811,2323,2619,1814,-2333,-315,-433,255,4038,46,48,895
1047430,1419580,2043940,1424416,2047008,2404,2736,1902,-2277,-196,-450,296,3917,70,39,896
1048431,1419932,2044100,1424613,2047205,2012,2753,1975,-2202,-78,-425,170,4069,70,39,896
1049432,1420300,2044300,1424810,2047402,1837,2502,2042,-2097,32,-147,21,3993,66,33,895
1050433,1420668,2044500,1425007,2047599,1763,2501,2099,-2054,171,32,-508,3883,66,33,895
1051434,1421040,2044660,1425204,2047796,1662,2769,2104,-2001,352,-71,-1569,4027,79,32,895
1052435,1421404,2044848,1425401,2047993,1639,2598,2062,-1869,592,-434,-2730,4241,79,32,895
1053436,1421788,2045024,1425598,2048190,1433,2683,2021,-1722,846,-841,-3203,4233,77,46,899
1054437,1422136,2045196,1425795,2048387,1592,2719,1977,-1544,1071,-668,-3241,4293,77,46,899
1055438,1422468,2045380,1425992,2048584,1634,2651,1933,-1402,1308,-341,-3524,4100,69,38,899
1056439,1422812,2045548,1426189,2048781,1495,2764,1892,-1336,1619,-172,-4056,4131,69,38,899
1057440,1423108,2045732,1426386,2048978,1752,2670,1891,-1258,1971,-519,-4258,4103,53,30,898
1058441,1423408,2045884,1426583,2049175,1683,2891,1931,-1263,2299,-850,-4167,4036,53,30,898
1059442,1423708,2046056,1426780,2049372,1638,2777,2014,-1298,2552,-856,-3843,3900,50,27,897
1060443,1423960,2046252,1426977,2049569,1914,2628,2084,-1401,2761,-575,-3492,3827,50,27,897
1061444,1424200,2046428,1427174,2049766,1970,2763,2125,-1429,2953,-49,-3279,4105,47,30,895
1062445,1424436,2046588,1427371,2049963,1979,2880,2131,-1522,3119,487,-2846,3787,47,30,895
1063446,1424668,2046752,1427568,2050160,1989,2870,2129,-1643,3244,1080,-2206,3743,56,43,897
1064447,1424896,2046932,1427765,2050357,2001,2779,2104,-1726,3330,1635,-1438,4001,56,43,897
1065448,1425104,2047120,1427962,2050554,2122,2733,2048,-1792,3364,1866,-893,4237,44,45,895
1066449,1425288,2047388,1428159,2050751,2278,2202,1963,-1708,3364,1829,-602,4671,44,45,895
1067450,1425464,2047596,1428356,2050948,2338,2574,1860,-1550,3324,1692,-343,4879,49,41,896
1068451,1425636,2047836,1428553,2051145,2374,2355,1753,-1363,3236,1769,10,5064,49,41,896
1069453,1425824,2048012,1428750,2051342,2279,2765,1644,-1190,3112,1986,345,4987,29,34,898
1070454,1426000,2048244,1428947,2051539,2364,2399,1551,-1057,2951,2515,674,4877,29,34,898
1071455,1426152,2048544,1429144,2051736,2534,1930,1420,-893,2752,2803,644,5124,40,51,895
1072455,1426260,2048832,1429341,2051933,2848,1966,1279,-668,2558,2426,261,5053,40,51,895
1073456,1426360,2049092,1429538,2052130,2942,2114,1159,-470,2372,2140,-488,5050,19,52,895
1074458,1426452,2049364,1429735,2052327,3039,2007,1091,-351,2158,2301,-738,4802,19,52,895
1075459,1426524,2049636,1429932,2052524,3219,1974,1059,-257,1855,2508,-321,4641,9,49,895
1076460,1426600,2049952,1430129,2052721,3248,1647,1030,-279,1476,2804,-402,4165,9,49,895
1077460,1426668,2050280,1430326,2052918,3356,1515,999,-367,1115,2746,-915,3912,26,48,893
1078461,1426732,2050556,1430523,2053115,3439,1806,963,-417,857,2576,-1412,4182,26,48,893
1079462,1426796,2050812,1430720,2053312,3499,1905,926,-390,714,2533,-1969,4172,19,56,891
1080463,1426888,2051072,1430917,2053509,3371,1853,905,-364,613,2448,-1794,3927,19,56,891
1081464,1427012,2051384,1431114,2053706,3203,1478,923,-392,460,2206,-1369,3744,26,62,891
1082465,1427144,2051696,1431311,2053903,3183,1428,968,-526,268,1914,-1649,3514,26,62,891
1083466,1427260,2051976,1431508,2054100,3319,1592,1010,-545,156,1500,-2472,3908,25,56,890
1084467,1427396,2052240,1431705,2054297,3222,1663,1037,-357,169,933,-2939,4379,25,56,890
1085468,1427500,2052520,1431902,2054494,3464,1527,1046,4,274,571,-3171,4824,37,64,895
1086469,1427592,2052812,1432099,2054691,3586,1410,1091,271,429,661,-2790,4635,37,64,895
1087470,1427680,2053104,1432296,2054888,3659,1369,1172,567,579,879,-2191,4609,15,60,894
1088484,1427736,2053412,1432493,2055085,3800,1221,1307,792,680,1020,-1518,4099,15,60,894
1089485,1427804,2053664,1432690,2055282,3800,1547,1520,885,716,1067,-861,3610,6,63,891
1090493,1427864,2053964,1432920,2055512,3800,1217,1771,945,729,1215,-512,3747,6,63,891
1091487,1427928,2054252,1433117,2055709,3800,1252,2016,1110,780,1455,-581,3912,22,60,890
1092488,1428004,2054532,1433314,2055906,3800,1265,2239,1491,903,1666,-773,4355,22,60,890
1093489,1428080,2054780,1433511,2056103,3800,1444,2460,2000,1043,1657,-743,4635,4,60,889
1094490,1428200,2055028,1433708,2056300,3800,1421,2685,2584,1164,1749,-520,4707,4,60,889
1095491,1428328,2055336,1433905,2056497,3800,998,2913,3205,1242,1809,-87,4710,21,54,888
1096479,1428488,2055604,1434102,2056694,3657,1217,3137,3863,1260,1641,130,4723,21,54,888
1097480,1428700,2055872,1434299,2056891,3326,1186,3339,4509,1222,1427,58,4724,23,56,890
1098481,1428880,2056136,1434496,2057088,3534,1182,3484,5241,1149,1150,-207,4889,23,56,890
1099482,1429072,2056428,1434693,2057285,3463,965,3568,5971,1059,747,-140,4785,41,45,892
1100483,1429300,2056712,1434890,2057482,3226,977,3631,6572,974,350,-71,4199,41,45,892
1101484,1429540,2057028,1435087,2057679,3133,725,3671,7082,853,-63,-48,3872,30,52,894
1102485,1429844,2057344,1435284,2057876,2687,672,3678,7581,672,-194,526,3537,30,52,894
1103486,1430200,2057628,1435481,2058073,2293,834,3671,7797,424,378,1249,2322,67,52,898
1104487,1430552,2057876,1435678,2058270,2251,1037,3659,7817,118,767,1430,1892,67,52,898
1105488,1430892,2058200,1435875,2058467,2264,507,3644,7783,-137,583,1418,1767,72,55,902
1106490,1431264,2058520,1436072,2058664,1988,478,3608,7735,-307,273,1187,1497,72,55,902
1107490,1431604,2058784,1436269,2058861,2127,798,3508,7550,-444,147,821,1011,54,57,905
1108491,1431912,2059092,1436466,2059058,2278,475,3287,6781,-650,976,52,-392,54,57,905
1109492,1432256,2059332,1436663,2059255,1989,881,3171,6077,-715,962,-206,-677,57,50,908
1110493,1432580,2059644,1436860,2059452,2059,380,3062,5527,-708,817,-970,-472,57,50,908
1111494,1432924,2059940,1437057,2059649,1871,437,2959,5042,-627,984,-1338,-597,71,53,906
1112495,1433280,2060248,1437254,2059846,1727,313,2830,4644,-562,1069,-1260,-177,71,53,906
1113496,1433628,2060476,1437451,2060043,1711,798,2690,4395,-512,748,-1252,173,75,46,908
1114497,1434024,2060704,1437648,2060240,1324,785,2562,4199,-471,494,-1569,166,75,46,908
1115498,1434400,2060960,1437845,2060437,1371,584,2400,4123,-429,526,-1940,730,81,55,909
1116499,1434812,2061096,1438042,2060634,1053,1360,2220,4192,-392,360,-1844,997,81,55,909
1117500,1435140,2061300,1438239,2060831,1520,932,2016,4398,-380,179,-1991,1127,60,54,909
1118501,1435528,2061508,1438436,2061028,1062,903,1736,4732,-388,-213,-2382,1843,60,54,909
1119502,1435872,2061708,1438633,2061225,1273,951,1366,5271,-430,-663,-2269,2644,73,36,910
1120503,1436184,2061848,1438830,2061422,1423,1351,983,5879,-582,-875,-1306,2273,73,36,910
1121504,1436472,2062008,1439027,2061619,1533,1243,633,6319,-834,-1266,-639,2036,71,41,911
1122505,1436844,2062172,1439224,2061816,932,1232,271,6729,-1113,-1428,-148,2343,71,41,911
1123506,1437160,2062336,1439421,2062013,1230,1247,-171,7198,-1423,-1328,590,2405,51,41,908
1124507,1437448,2062512,1439618,2062210,1366,1181,-662,7785,-1745,-1541,931,2456,51,41,908
1125508,1437744,2062688,1439815,2062407,1273,1189,-1121,8160,-2064,-1929,1186,1921,54,27,910
1126509,1438004,2062864,1440012,2062604,1470,1198,-1564,8311,-2411,-1954,1871,1502,54,27,910
1127510,1438324,2063032,1440209,2062801,1042,1261,-2010,8306,-2758,-1937,2370,1200,68,39,908
1128511,1438616,2063188,1440406,2062998,1175,1354,-2473,8106,-3113,-1989,2708,811,68,39,908
1129512,1438880,2063284,1440603,2063195,1322,1773,-2973,7735,-3474,-1925,2414,587,41,23,908
1130513,1439132,2063444,1440800,2063392,1373,1390,-3449,7224,-3794,-1874,2058,218,41,23,908
1131514,1439408,2063608,1440997,2063589,1188,1379,-3864,6548,-4023,-1689,1651,-189,41,35,909
1132515,1439660,2063824,1441194,2063786,1315,1046,-4196,5602,-4146,-1488,720,-745,41,35,909
1133516,1439876,2063992,1441391,2063983,1531,1359,-4472,4442,-4134,-1304,-831,-836,38,39,908
1134517,1440112,2064168,1441588,2064180,1389,1318,-4715,3241,-4034,-1301,-1715,-738,38,39,908
1135518,1440304,2064340,1441785,2064377,1666,1354,-4905,2019,-3914,-1438,-1980,-794,35,32,909
1136519,1440516,2064496,1441982,2064574,1536,1472,-5017,748,-3843,-1737,-1992,-732,35,32,909
1137520,1440732,2064692,1442179,2064771,1502,1222,-5025,-586,-3785,-1679,-2290,-756,48,27,907
1138521,1440952,2064812,1442376,2064968,1467,1731,-4985,-1794,-3715,-1736,-2361,130,48,27,907
1139522,1441164,2064980,1442573,2065165,1511,1444,-4939,-2726,-3642,-1778,-2179,1224,43,36,905
1140523,1441336,2065164,1442770,2065362,1773,1350,-4865,-3535,-3538,-1762,-2678,1686,43,36,905
1141524,1441520,2065384,1442967,2065559,1703,1114,-4747,-4170,-3401,-1721,-3185,2347,44,42,905
1142525,1441672,2065584,1443164,2065756,1923,1238,-4575,-4709,-3293,-1743,-3095,2742,44,42,905
1143526,1441896,2065780,1443361,2065953,1462,1264,-4360,-5161,-3250,-1758,-2595,3181,23,35,906
1144527,1442112,2065968,1443558,2066150,1504,1317,-4100,-5623,-3225,-1657,-2363,3534,23,35,906
1145528,1442288,2066136,1443755,2066347,1763,1455,-3814,-5953,-3142,-1241,-2243,4240,29,36,905
1146529,1442456,2066288,1443952,2066544,1826,1576,-3525,-6155,-3033,-816,-1752,4814,29,36,905
1147530,1442668,2066452,1444149,2066741,1545,1516,-3197,-6309,-2959,-379,-1119,5052,34,34,907
1148531,1442848,2066628,1444346,2066938,1753,1450,-2822,-6485,-2964,223,-582,5162,34,34,907
1149532,1443016,2066776,1444543,2067135,1841,1646,-2408,-6673,-3045,807,-195,5290,40,27,903
1150533,1443256,2066928,1444740,2067332,1373,1641,-1966,-6881,-3134,1516,391,6075,40,27,903
1151534,1443444,2067076,1444937,2067529,1702,1688,-1484,-7049,-3264,2818,1679,7196,27,38,905
1152536,1443644,2067232,1445134,2067726,1625,1656,-996,-7106,-3457,4003,3140,8110,27,22,906
1153536,1443868,2067360,1445331,2067923,1463,1861,119,-6444,-3695,5637,3670,14848,27,22,906
1154537,1444052,2067512,1445528,2068120,1720,1731,2825,-1611,-4285,11125,3344,32767,30,23,905
1155538,1444236,2067660,1445725,2068317,1726,1777,5228,1812,-4809,7138,3403,17361,30,23,905
1156539,1444444,2067788,1445922,2068514,1571,1933,5609,2049,-4991,5329,1814,7739,28,44,904
1157540,1444652,2067980,1446119,2068711,1567,1535,4711,1577,-4798,4846,-1451,8271,28,44,904
1158541,1444868,2068176,1446316,2068908,1509,1511,4059,761,-4621,4374,-1160,3954,39,27,903
1159542,1445072,2068360,1446513,2069105,1581,1592,3961,-158,-4566,4207,-817,2618,39,27,903
1160543,1445288,2068500,1446710,2069302,1497,1892,3899,-1152,-4508,4798,-1606,2875,32,25,904
1161544,1445524,2068636,1446907,2069499,1356,1944,3565,-1848,-4397,5051,-1551,3292,32,25,904
1162545,1445732,2068772,1447104,2069696,1526,1971,3040,-2124,-4173,4643,-2478,4065,51,25,904
1163546,1445952,2068892,1447301,2069893,1441,2104,2179,-2111,-3860,4551,-3603,5209,51,25,904
1164547,1446180,2068988,1447498,2070090,1378,2300,1406,-2234,-3573,4386,-2370,3650,52,30,903
1165548,1446408,2069124,1447695,2070287,1365,2077,876,-2747,-3335,3835,-1599,2973,52,30,903
1166549,1446656,2069248,1447892,2070484,1218,2184,431,-3185,-3281,3798,-249,3359,30,31,902
1167550,1446880,2069352,1448089,2070681,1356,2350,28,-3505,-3437,3502,1530,3701,30,31,902
1168551,1447092,2069436,1448286,2070878,1424,2524,-388,-3230,-3540,3454,1833,5460,39,14,903
1169552,1447332,2069524,1448483,2071075,1231,2548,-808,-2476,-3476,3504,1476,6531,39,14,903
1170553,1447564,2069604,1448680,2071272,1266,2650,-1061,-1804,-3364,2671,1787,6012,34,14,899
1171554,1447772,2069700,1448877,2071469,1411,2594,-1088,-1262,-3289,1569,1779,5828,34,14,899
1172555,1447992,2069812,1449074,2071666,1326,2532,-1100,-801,-3293,940,1610,5869,45,14,900
1173563,1448192,2069932,1449304,2071896,1464,2531,-1087,-355,-3305,165,1380,5492,45,14,900
1174557,1448368,2070040,1449501,2072093,1624,2645,-1021,143,-3218,-618,589,5628,48,23,901
1175558,1448592,2070160,1449698,2072290,1313,2605,-922,608,-3053,-1150,-372,5547,48,23,901
1176559,1448796,2070300,1449895,2072487,1434,2505,-771,1095,-2840,-1583,-580,5511,34,20,897
1177560,1449020,2070416,1450092,2072684,1298,2691,-571,1520,-2644,-1936,-225,5242,34,20,897
1178561,1449216,2070588,1450289,2072881,1473,2352,-349,1898,-2492,-1990,-185,5020,44,27,900
1179562,1449412,2070740,1450486,2073078,1474,2498,-125,2186,-2323,-1878,-50,4626,44,27,900
1180563,1449588,2070960,1450683,2073275,1609,2063,101,2312,-2143,-1583,206,4149,34,40,900
1181564,1449788,2071164,1450880,2073472,1457,2160,320,2351,-1975,-1001,483,3798,34,40,900
1182565,1449984,2071352,1451077,2073669,1483,2265,489,2311,-1796,-433,775,3697,24,44,901
1183566,1450180,2071560,1451274,2073866,1483,2135,611,2296,-1631,128,958,3423,24,44,901
1184567,1450360,2071748,1451471,2074063,1592,2265,673,2208,-1497,536,859,3338,42,36,902
1185568,1450592,2071932,1451668,2074260,1251,2296,752,2082,-1413,665,886,2998,42,36,902
1186569,1450784,2072156,1451865,2074457,1504,2035,898,1832,-1438,692,879,2769,39,41,902
1187570,1450988,2072388,1452062,2074654,1425,1969,1017,1679,-1503,858,422,3441,39,41,902
1188571,1451204,2072648,1452259,2074851,1343,1767,1041,1752,-1545,1071,-160,4071,26,43,903
1189572,1451384,2072868,1452456,2075048,1576,2008,980,1888,-1623,1305,-454,3978,26,43,903
1190573,1451588,2073068,1452653,2075245,1423,2131,879,1972,-1810,1635,-486,3878,25,38,906
1191574,1451804,2073268,1452850,2075442,1339,2131,659,2154,-2106,2034,-332,4584,25,38,906
1192575,1452028,2073564,1453047,2075639,1277,1487,332,2396,-2438,2341,-486,4504,27,56,902
1193576,1452224,2073796,1453244,2075836,1454,1873,48,2522,-2742,2440,-406,3852,27,56,902
1194577,1452492,2074036,1453441,2076033,973,1804,-153,2521,-2987,2377,-232,3733,38,47,907
1195578,1452728,2074272,1453638,2076230,1155,1812,-309,2406,-3205,2422,108,3647,38,47,907
1196579,1452932,2074480,1453835,2076427,1352,1983,-436,2310,-3394,2592,481,3524,54,41,907
1197580,1453148,2074748,1454032,2076624,1269,1577,-536,2055,-3560,2772,849,2969,54,41,907
1198581,1453384,2075024,1454229,2076821,1127,1492,-618,1695,-3697,3075,1057,2768,47,51,905
1199582,1453616,2075264,1454426,2077018,1137,1699,-683,1300,-3782,3121,1187,2596,47,51,905
1200583,1453856,2075484,1454623,2077215,1069,1814,-746,907,-3829,3091,1354,2386,42,56,908
1201584,1454092,2075720,1454820,2077412,1076,1697,-809,424,-3869,2971,1579,2158,42,56,908
1202586,1454300,2075956,1455017,2077609,1247,1681,-885,14,-3921,2644,1776,2471,49,59,906
1203586,1454528,2076168,1455214,2077806,1108,1824,-991,-172,-3975,2285,1670,3135,49,59,906
1204588,1454760,2076364,1455411,2078003,1068,1925,-1097,-174,-4019,1826,1464,3621,46,32,905
1205588,1454972,2076556,1455608,2078200,1186,1953,-1166,-14,-4051,1426,1201,3887,46,32,905
1206590,1455208,2076724,1455805,2078397,1019,2116,-1184,239,-4079,1180,605,3994,37,31,906
1207590,1455436,2076864,1456002,2078594,1056,2316,-1182,580,-4075,946,-292,4264,37,31,906
1208592,1455644,2076996,1456199,2078791,1176,2395,-1175,876,-4023,500,-951,4093,50,32,905
1209592,1455844,2077132,1456396,2078988,1225,2397,-1164,1188,-3913,106,-1433,4105,50,32,905
1210593,1456060,2077252,1456593,2079185,1117,2531,-1115,1551,-3732,-324,-1849,4085,35,20,902
1211594,1456264,2077360,1456790,2079382,1189,2646,-1039,1931,-3479,-987,-2333,4164,35,20,902
1212595,1456460,2077456,1456987,2079579,1239,2765,-920,2252,-3207,-1413,-2502,3721,40,30,901
1213596,1456668,2077576,1457184,2079776,1159,2649,-764,2512,-2943,-1609,-2454,3542,40,30,901
1214597,1456856,2077668,1457381,2079973,1288,2871,-571,2747,-2671,-1896,-2501,3483,35,19,898
1215598,1457020,2077792,1457578,2080170,1453,2704,-355,2974,-2382,-2295,-2968,3377,35,19,898
1216599,1457156,2077896,1457775,2080367,1656,2870,-120,3130,-2067,-2553,-3312,3195,37,16,898
1217600,1457300,2078020,1457972,2080564,1629,2777,119,3234,-1711,-2623,-3464,3021,37,16,898
1218601,1457432,2078124,1458169,2080761,1732,2944,337,3336,-1313,-2663,-3502,2955,34,31,897
1219602,1457564,2078244,1458366,2080958,1761,2878,518,3426,-900,-2885,-3408,2872,34,31,897
1220603,1457660,2078368,1458563,2081155,2030,2886,670,3503,-495,-3006,-2966,2937,29,20,896
1221604,1457772,2078476,1458760,2081352,1968,3025,806,3635,-124,-3005,-2557,3094,29,20,896
1222605,1457924,2078580,1458957,2081549,1737,3092,924,3821,211,-3086,-2511,3307,18,19,894
1223606,1458096,2078708,1459154,2081746,1624,2973,1034,4057,519,-3169,-2663,3344,18,19,894
1224607,1458236,2078812,1459351,2081943,1849,3164,1129,4218,802,-3022,-2740,3238,40,15,893
1225608,1458380,2078936,1459548,2082140,1848,3073,1209,4398,1051,-2806,-2210,3429,40,15,893
1226609,1458536,2079064,1459745,2082337,1791,3078,1249,4566,1266,-2773,-1719,3318,33,19,892
1227610,1458664,2079172,1459942,2082534,1996,3243,1237,4710,1447,-2652,-1473,3360,33,19,892
1228611,1458836,2079312,1460139,2082731,1733,3068,1211,4850,1626,-2498,-1121,3590,21,35,894
1229612,1458964,2079464,1460336,2082928,2038,3014,1173,4983,1770,-2278,-678,3493,21,35,894
1230613,1459104,2079608,1460533,2083125,1988,3088,1130,4998,1838,-2124,-227,3135,39,39,893
1231614,1459244,2079784,1460730,2083322,2014,2897,1083,4923,1841,-2076,-31,3026,39,39,893
1232615,1459392,2079928,1460927,2083519,1986,3122,1011,4702,1760,-1966,497,2620,33,29,893
1233616,1459488,2080092,1461124,2083716,2355,3012,872,4333,1584,-1840,1128,2400,33,29,893
1234617,1459616,2080284,1461321,2083913,2186,2839,702,4010,1357,-1880,1582,2446,25,46,893
1235618,1459768,2080504,1461518,2084110,2057,2655,532,3571,1112,-1851,1746,2249,25,46,893
1236619,1459872,2080728,1461715,2084307,2397,2619,332,3144,881,-1662,1410,2564,14,48,892
1237620,1459980,2080928,1461912,2084504,2412,2769,106,2803,709,-1555,790,3011,14,48,892
1238621,1460092,2081112,1462109,2084701,2425,2875,-124,2557,541,-1475,245,3174,32,45,894
1239622,1460192,2081320,1462306,2084898,2543,2721,-314,2305,347,-1440,-179,3235,32,45,894
1240623,1460328,2081568,1462503,2085095,2345,2449,-471,1913,122,-1462,-230,3084,21,39,892
1241624,1460476,2081816,1462700,2085292,2292,2427,-613,1434,-120,-1270,-993,3005,21,39,892
1242625,1460580,2082132,1462897,2085489,2608,1951,-715,918,-311,-1189,-2126,3005,36,57,895
1243626,1460712,2082404,1463094,2085686,2462,2194,-754,451,-417,-1089,-2347,3189,36,57,895
1244627,1460840,2082616,1463291,2085883,2518,2562,-578,146,-443,-1077,-1956,5144,25,51,897
1245628,1460964,2082736,1463488,2086080,2576,3172,1238,1281,-269,-1741,-1245,26920,25,51,897
1246629,1461108,2082844,1463685,2086277,2474,3286,4492,3665,65,-1860,-977,32767,32,31,893
1247630,1461232,2082972,1463882,2086474,2632,3192,6223,4446,236,-896,-378,9406,32,31,893
1248631,1461376,2083100,1464079,2086671,2530,3224,6015,3630,224,-526,20,2539,38,20,887
1249632,1461508,2083244,1464276,2086868,2635,3147,5218,2349,169,-186,134,2032,38,20,887
1250633,1461656,2083432,1464473,2087065,2556,2877,4656,1409,174,-38,416,2295,32,31,888
1251634,1461812,2083644,1464670,2087262,2525,2721,4314,847,251,-43,423,2763,32,31,888
1252635,1461952,2083896,1464867,2087459,2651,2447,3993,402,331,130,555,2772,37,54,891
1253636,1462092,2084232,1465064,2087656,2677,1862,3520,176,410,96,681,3723,37,54,891
1254637,1462260,2084520,1465261,2087853,2514,2123,3041,-37,446,-164,979,3511,39,67,894
1255638,1462384,2084864,1465458,2088050,2822,1709,2731,-435,425,-141,1327,3007,39,67,894
1256648,1462532,2085184,1465688,2088280,2709,1820,2544,-797,414,-141,1623,3275,42,74,897
1257640,1462704,2085468,1465885,2088477,2570,2008,2377,-980,413,-254,1639,3815,42,74,897
1258641,1462864,2085804,1466082,2088674,2663,1622,2174,-1044,347,-397,1659,4039,25,58,895
1259642,1463004,2086096,1466279,2088871,2813,1856,1999,-1031,243,-623,1628,4233,25,58,895
1260643,1463160,2086380,1466476,2089068,2732,1868,1848,-822,121,-656,1557,4748,22,69,898
1261644,1463308,2086652,1466673,2089265,2804,1911,1722,-602,-21,-541,1555,4625,22,69,898
1262645,1463460,2086968,1466870,2089462,2799,1583,1609,-424,-188,-652,2038,4582,42,69,896
1263646,1463636,2087304,1467067,2089659,2659,1398,1526,-244,-360,-569,2437,4468,42,69,896
1264647,1463788,2087680,1467264,2089856,2830,1070,1459,-75,-524,-341,2493,4363,23,58,897
1265648,1463952,2087992,1467461,2090053,2770,1420,1378,80,-648,-330,2393,4449,23,58,897
1266650,1464128,2088280,1467658,2090250,2705,1530,1301,205,-708,-161,1837,4282,29,73,898
1267650,1464328,2088616,1467855,2090447,2554,1169,1265,294,-710,200,1306,4004,29,73,898
1268651,1464504,2088920,1468052,2090644,2714,1323,1246,376,-692,360,1283,4022,30,54,898
1269652,1464692,2089200,1468249,2090841,2644,1437,1204,469,-690,540,1308,4127,30,54,898
1270653,1464916,2089408,1468446,2091038,2408,1882,1134,554,-714,835,1590,4103,27,59,898
1271654,1465088,2089664,1468643,2091235,2744,1557,1075,711,-758,1163,2595,4204,27,59,898
1272655,1465268,2089940,1468840,2091432,2702,1397,975,993,-845,1514,3621,4604,24,65,898
1273656,1465444,2090228,1469037,2091629,2737,1282,820,1318,-947,1704,3946,4536,24,65,898
1274657,1465604,2090492,1469234,2091826,2854,1404,647,1592,-1077,1666,4300,4287,40,53,899
1275658,1465776,2090740,1469431,2092023,2791,1481,495,1708,-1268,1663,4233,3659,40,53,899
1276659,1465948,2090968,1469628,2092220,2803,1593,372,1704,-1492,1606,3091,3442,23,48,898
1277660,1466136,2091228,1469825,2092417,2707,1365,217,1744,-1753,1343,2211,3787,23,48,898
1278661,1466316,2091488,1470022,2092614,2765,1338,8,1931,-2031,1320,1817,4112,26,63,898
1279662,1466500,2091756,1470219,2092811,2747,1257,-263,2266,-2320,1366,1812,4374,26,63,898
1280663,1466684,2092036,1470416,2093008,2754,1146,-571,2589,-2674,1208,2309,4260,42,62,898
1281664,1466868,2092288,1470613,2093205,2759,1296,-882,2853,-3100,967,2332,4263,42,62,898
1282666,1467060,2092512,1470810,2093402,2712,1460,-1168,3029,-3551,766,2224,3784,25,44,900
1283666,1467244,2092744,1471007,2093599,2769,1394,-1388,2961,-3959,937,1804,3083,25,44,900
1284667,1467404,2092948,1471204,2093796,2935,1567,-1535,2712,-4304,1076,785,2684,32,47,899
1285668,1467608,2093116,1471401,2093993,2658,1805,-1649,2305,-4628,766,191,2209,32,47,899
1286669,1467800,2093268,1471598,2094190,2737,1925,-1754,1824,-4923,602,-223,2008,24,36,896
1287670,1467968,2093376,1471795,2094387,2900,2239,-1853,1222,-5187,607,-85,1710,24,36,896
1288671,1468156,2093464,1471992,2094584,2779,2412,-1930,603,-5424,596,-8,1738,45,14,896
1289672,1468344,2093556,1472189,2094781,2784,2434,-1992,111,-5562,499,-1316,2121,45,14,896
1290673,1468532,2093644,1472386,2094978,2789,2507,-2006,-354,-5605,92,-1969,2218,40,18,891
1291674,1468724,2093792,1472583,2095175,2767,2153,-1973,-756,-5622,-93,-2131,2493,40,18,891
1292675,1468936,2093928,1472780,2095372,2636,2255,-1913,-1095,-5646,-102,-2241,2702,41,38,891
1293676,1469148,2094060,1472977,2095569,2630,2310,-1881,-1238,-5660,-172,-2481,3664,41,38,891
1294677,1469360,2094172,1473174,2095766,2625,2472,-1906,-1023,-5633,-304,-2569,4853,49,37,894
1295678,1469616,2094324,1473371,2095963,2324,2242,-1957,-602,-5601,-501,-1782,5415,49,37,894
1296679,1469860,2094488,1473568,2096160,2379,2181,-1976,-40,-5610,-738,-1588,5830,50,28,894
1297680,1470084,2094660,1473765,2096357,2493,2143,-1941,438,-5620,-988,-2131,5760,50,28,894
1298682,1470376,2094800,1473962,2096554,2027,2368,-1849,914,-5592,-1114,-2506,5920,52,29,897
1299682,1470640,2094924,1474159,2096751,2173,2500,-1687,1341,-5525,-1120,-2495,5680,52,29,897
1300683,1470900,2095044,1474356,2096948,2171,2560,-769,2617,-5346,-539,-3896,15607,50,34,898
1301684,1471152,2095164,1474553,2097145,2198,2594,994,5367,-5036,-68,-4842,25105,50,34,898
1302685,1471400,2095312,1474750,2097342,2201,2441,2104,6437,-4795,-297,-2445,5657,37,34,895
1303686,1471644,2095428,1474947,2097539,2206,2677,2320,5868,-4626,-245,-1756,2962,37,34,895
1304687,1471924,2095560,1475144,2097736,1945,2606,2293,4683,-4436,-153,-2019,1996,34,32,895
1305688,1472164,2095688,1475341,2097933,2177,2662,2376,3775,-4186,-249,-2163,2151,34,32,895
1306689,1472412,2095812,1475538,2098130,2105,2719,2556,3033,-3901,-550,-2283,1950,47,23,896
1307690,1472660,2095956,1475735,2098327,2083,2618,2711,2310,-3663,-631,-2193,1894,47,23,896
1308691,1472924,2096104,1475932,2098524,1954,2615,2823,1556,-3510,-792,-2487,1706,53,41,895
1309692,1473184,2096236,1476129,2098721,1952,2744,2904,730,-3403,-1002,-2710,1819,53,41,895
1310693,1473432,2096372,1476326,2098918,2005,2746,2945,91,-3321,-1088,-2729,2400,40,41,897
1311694,1473712,2096500,1476523,2099115,1770,2827,2921,-364,-3223,-1313,-2024,2986,40,41,897
1312695,1473952,2096656,1476720,2099312,2001,2671,2834,-510,-3144,-1470,-1250,3695,39,23,894
1313696,1474188,2096828,1476917,2099509,2010,2582,2729,-594,-3125,-1647,-806,3737,39,23,894
1314697,1474436,2097008,1477114,2099706,1912,2540,2637,-646,-3148,-1820,-384,3880,56,28,895
1315698,1474660,2097164,1477311,2099903,2051,2708,2538,-688,-3183,-1750,-88,3916,56,28,895
1316699,1474856,2097332,1477508,2100100,2227,2647,2432,-847,-3202,-1542,230,3581,32,33,897
1317700,1475068,2097480,1477705,2100297,2121,2794,2354,-1051,-3187,-1178,417,3366,32,33,897
1318701,1475272,2097656,1477902,2100494,2168,2629,2266,-1393,-3075,-629,215,3043,50,35,895
1319702,1475472,2097820,1478099,2100691,2193,2719,2147,-1699,-2893,-99,684,3273,50,35,895
1320703,1475688,2098008,1478296,2100888,2085,2573,2007,-1915,-2708,82,1461,3246,42,36,895
1321704,1475880,2098152,1478493,2101085,2238,2872,1885,-2238,-2550,246,1970,2875,42,36,895
1322705,1476060,2098364,1478690,2101282,2320,2441,1783,-2611,-2399,457,2299,2842,43,36,895
1323706,1476264,2098548,1478887,2101479,2168,2623,1691,-3015,-2225,651,2597,2687,43,36,895
1324707,1476452,2098736,1479084,2101676,2272,2601,1575,-3398,-2026,854,2500,2582,30,49,894
1325708,1476644,2098936,1479281,2101873,2250,2526,1430,-3832,-1787,904,1879,2494,30,49,894
1326709,1476860,2099156,1479478,2102070,2092,2391,1263,-4152,-1517,988,1357,2826,36,46,895
1327710,1477120,2099360,1479675,2102267,1790,2489,1060,-4390,-1262,1194,949,3009,36,46,895
1328711,1477332,2099588,1479872,2102464,2084,2326,855,-4557,-1044,1236,749,3118,38,56,897
1329712,1477564,2099824,1480069,2102661,1944,2259,636,-4628,-899,1045,745,3563,38,56,897
1330713,1477784,2100068,1480266,2102858,2009,2190,401,-4586,-836,911,1100,3732,37,43,898
1331715,1477992,2100308,1480463,2103055,2080,2196,164,-4459,-800,885,989,3968,37,43,898
1332716,1478240,2100580,1480660,2103252,1808,1964,-36,-4300,-768,817,727,3885,47,60,900
1333716,1478484,2100840,1480857,2103449,1812,2011,-206,-4224,-738,756,95,3582,47,60,900
1334717,1478708,2101076,1481054,2103646,1926,2145,-333,-4276,-705,710,-321,3356,54,47,900
1335718,1478940,2101324,1481251,2103843,1861,2047,-424,-4381,-677,748,-441,3079,54,47,900
1336719,1479196,2101552,1481448,2104040,1686,2160,-478,-4508,-662,934,-458,2966,30,54,899
1337720,1479416,2101788,1481645,2104237,1901,2093,-500,-4688,-664,1033,-504,2827,30,54,899
1338721,1479624,2102036,1481842,2104434,1972,1996,-478,-4878,-690,1061,-596,2741,42,51,901
1339729,1479852,2102268,1482072,2104664,1848,2095,-423,-5015,-712,1073,-803,2738,42,51,901
1340723,1480080,2102528,1482269,2104861,1835,1894,-360,-5168,-718,1195,-1077,2820,48,60,901
1341724,1480296,2102812,1482466,2105058,1902,1706,-295,-5255,-711,1272,-1200,2833,48,60,901
1342725,1480548,2103092,1482663,2105255,1653,1694,-231,-5376,-703,1328,-1424,2791,32,48,902
1343726,1480792,2103344,1482860,2105452,1683,1846,-161,-5488,-703,1404,-1676,2921,32,48,902
1344727,1481020,2103612,1483057,2105649,1770,1715,-106,-5478,-704,1464,-1890,3102,39,54,904
1345728,1481268,2103876,1483254,2105846,1623,1711,-54,-5363,-692,1627,-2085,3442,39,54,904
1346729,1481512,2104104,1483451,2106043,1628,1923,-5,-5146,-662,1732,-2324,3803,36,63,902
1347730,1481760,2104364,1483648,2106240,1580,1695,47,-4804,-597,1854,-2540,4173,36,63,902
