"Data file recorded 2014/9/22  15:46:30"
"%  Right Stride Frequency         = 3.0"
"%  Left Stride Frequency         = 3.0"
"%  Phase (Fractional)         = 32768.0"
"%  Experiment.py "
"%  Motor Gains    = [1800, 200, 100, 0, 0, 1800, 200, 100, 0, 0]
"% Columns: "
"% time | Right Leg Pos | Left Leg Pos | Commanded Right Leg Pos | Commanded Left Leg Pos | DCR | DCL | GyroX | GryoY | GryoZ | AX | AY | AZ | RBEMF | LBEMF | VBatt "
10932,7032624,7744040,7027880,7781544,-854,3800,-2,134,237,135,-412,4054,8,9,858
11927,7032624,7744020,7028077,7781741,-769,3800,-3,135,239,151,-404,4078,8,9,858
12927,7032636,7744072,7028274,7781938,-763,3800,-2,140,239,135,-413,4081,-9,0,837
13928,7032628,7744100,7028471,7782135,-549,3800,-4,152,240,136,-426,4062,-9,0,837
14930,7032620,7744124,7028668,7782332,-460,3800,-5,148,242,146,-396,4079,-14,17,835
15930,7032600,7744184,7028865,7782529,-291,3800,-9,139,252,99,-415,4081,-14,17,835
16931,7032596,7744240,7029062,7782726,-303,3800,-14,137,273,49,-508,4138,-3,1,835
17932,7032592,7744288,7029259,7782923,-215,3800,-14,156,301,39,-622,4099,-3,1,835
18933,7032592,7744328,7029456,7783120,-155,3800,-4,190,327,21,-512,4132,-3,5,836
19935,7032608,7744404,7029653,7783317,-175,3800,21,165,364,74,-567,4035,-3,5,836
20935,7032596,7744492,7029850,7783514,91,3800,70,135,422,141,-581,3953,-7,20,836
21936,7032596,7744616,7030047,7783711,102,3800,132,59,474,152,-256,3980,-7,20,836
22937,7032588,7744724,7030244,7783908,241,3800,190,29,528,89,-344,4063,0,19,836
23938,7032600,7744820,7030441,7784105,198,3800,228,39,593,-15,-431,4260,0,19,836
24939,7032592,7744928,7030638,7784302,412,3800,234,154,655,-159,-411,4513,13,17,835
25940,7032596,7745016,7030835,7784499,422,3800,231,286,729,-174,-716,4520,13,17,835
26941,7032592,7745064,7031032,7784696,560,3800,260,367,803,-59,-461,4236,-2,11,835
27942,7032600,7745108,7031229,7784893,567,3800,335,280,833,108,317,3831,-2,11,835
28943,7032592,7745140,7031426,7785090,757,3800,428,161,880,208,-403,3870,10,1,835
29944,7032620,7745140,7031623,7785287,606,3800,489,83,924,176,-377,3985,10,1,835
30945,7032616,7745184,7031820,7785484,895,3800,500,50,960,210,-599,4022,12,0,833
31946,7032608,7745216,7032017,7785681,1009,3800,482,60,984,205,-970,4117,12,0,833
32947,7032616,7745208,7032214,7785878,992,3800,433,77,966,116,-750,4067,-3,3,833
33948,7032608,7745224,7032411,7786075,1182,3800,345,83,918,-15,-618,4148,-3,3,833
34949,7032616,7745228,7032608,7786272,1165,3800,218,73,846,-142,-321,4183,12,3,831
35950,7032592,7745232,7032805,7786469,1462,3800,75,72,770,-143,-293,4120,12,3,831
36951,7032612,7745232,7033002,7786666,1265,3800,-58,45,707,-52,-361,3980,12,-6,831
37952,7032616,7745248,7033199,7786863,1450,3800,-171,-19,648,33,-264,3805,12,-6,831
38953,7032612,7745248,7033396,7787060,1588,3800,-243,-185,587,116,-201,3534,-7,-3,831
39954,7032612,7745268,7033593,7787257,1651,3800,-267,-400,523,221,-103,3398,-7,-3,831
40955,7032620,7745284,7033790,7787454,1684,3800,-255,-670,461,294,-89,3366,4,-3,826
41956,7032616,7745292,7033987,7787651,1847,3800,-209,-876,418,369,-244,3490,4,-3,826
42957,7032620,7745296,7034184,7787848,1882,3800,-140,-1013,386,441,-195,3695,-6,-4,829
43958,7032644,7745320,7034381,7788045,1834,3800,-67,-1029,360,487,-248,4038,-6,-4,829
44959,7032644,7745320,7034578,7788242,2070,3800,-5,-956,342,544,-303,4326,9,1,827
45960,7032652,7745320,7034775,7788439,2103,3800,48,-808,314,550,-149,4504,9,1,827
46961,7032664,7745320,7034972,7788636,2161,3800,92,-616,272,587,-41,4747,3,-4,826
47962,7032700,7745328,7035169,7788833,2082,3800,126,-375,217,620,-45,4908,3,-4,826
48963,7032724,7745340,7035366,7789030,2234,3800,139,-115,151,600,2,4989,4,-5,827
49964,7032768,7745352,7035563,7789227,2176,3800,136,198,75,599,-59,5020,4,-5,827
50965,7032812,7745368,7035760,7789424,2244,3800,131,476,4,626,-267,4919,2,-4,826
51966,7032868,7745376,7035957,7789621,2231,3800,124,697,-50,689,-381,4756,2,-4,826
52967,7032932,7745388,7036154,7789818,2240,3800,120,856,-93,709,-471,4602,9,-3,826
53968,7033048,7745384,7036351,7790015,1951,3800,130,948,-124,722,-548,4404,9,-3,826
54969,7033144,7745396,7036548,7790212,2121,3800,145,1006,-153,728,-499,4266,21,10,826
55970,7033228,7745416,7036745,7790409,2247,3800,166,1026,-177,726,-427,4137,21,10,826
56971,7033348,7745428,7036942,7790606,2056,3800,192,1058,-200,650,-443,4075,29,0,826
57972,7033440,7745440,7037139,7790803,2278,3800,219,1044,-225,549,-354,4071,29,0,826
58973,7033512,7745444,7037336,7791000,2459,3800,236,1037,-264,430,-142,4083,28,10,826
59974,7033624,7745452,7037533,7791197,2246,3800,244,1047,-284,370,-547,4161,28,10,826
60975,7033724,7745472,7037730,7791394,2365,3800,253,1120,-264,272,-723,4224,18,-1,825
61976,7033812,7745496,7037927,7791591,2489,3800,241,1201,-254,104,-340,4264,18,-1,825
62977,7033908,7745516,7038124,7791788,2484,3800,225,1311,-244,53,-538,4276,32,-1,825
63978,7034012,7745512,7038321,7791985,2476,3800,217,1355,-231,64,-524,4137,32,-1,825
64979,7034076,7745532,7038518,7792182,2785,3800,203,1376,-254,-60,37,4000,11,-1,824
65980,7034136,7745540,7038715,7792379,2871,3800,182,1324,-302,-175,-29,3826,11,-1,824
66981,7034216,7745548,7038912,7792576,2798,3800,174,1260,-330,-219,-495,3789,17,11,823
67982,7034272,7745548,7039109,7792773,3011,3800,162,1180,-342,-276,-357,3810,17,11,823
68983,7034348,7745508,7039306,7792970,2940,3800,150,1130,-350,-346,-373,3816,25,-3,822
69984,7034424,7745524,7039503,7793167,2994,3800,137,1100,-338,-358,-682,3815,25,-3,822
70985,7034488,7745524,7039700,7793364,3129,3800,121,1044,-338,-448,-305,3713,13,-2,821
71986,7034568,7745544,7039897,7793561,3081,3800,81,971,-359,-489,-138,3716,13,-2,821
72987,7034668,7745556,7040094,7793758,3000,3800,39,896,-369,-491,-416,3744,14,6,821
73988,7034752,7745548,7040291,7793955,3151,3800,-1,815,-362,-566,-225,3713,14,6,821
74989,7034840,7745540,7040488,7794152,3175,3800,-45,750,-343,-543,-275,3801,21,11,821
75990,7034928,7745548,7040685,7794349,3223,3800,-83,723,-280,-462,-866,3836,21,11,821
76991,7034996,7745544,7040882,7794546,3406,3800,-116,656,-200,-497,-710,3755,13,-3,820
77992,7035052,7745564,7041079,7794743,3544,3800,-143,572,-139,-468,-442,3707,13,-3,820
78993,7035120,7745556,7041276,7794940,3527,3800,-147,444,-78,-408,-711,3671,22,10,818
79994,7035180,7745564,7041473,7795137,3638,3800,-130,335,-20,-374,-646,3589,22,10,818
80995,7035236,7745544,7041670,7795334,3727,3800,-105,188,13,-401,-402,3513,27,14,816
81996,7035296,7745560,7041867,7795531,3763,3800,-73,48,37,-364,-729,3547,27,14,816
83009,7035344,7745572,7042064,7795728,3800,3800,-39,-76,73,-269,-926,3660,16,16,816
84010,7035400,7745584,7042261,7795925,3800,3800,-9,-161,116,-194,-861,3719,16,16,816
85011,7035464,7745584,7042458,7796122,3800,3800,22,-243,164,-139,-1002,3848,7,10,815
86013,7035520,7745556,7042655,7796319,3800,3800,48,-273,195,-137,-748,3995,7,10,815
87014,7035544,7745560,7042852,7796516,3800,3800,55,-260,200,-58,-437,4170,21,13,815
88015,7035584,7745576,7043049,7796713,3800,3800,47,-185,209,46,-396,4263,21,13,815
89016,7035592,7745596,7043246,7796910,3800,3800,28,-93,232,102,-135,4298,7,12,815
90017,7035576,7745584,7043443,7797107,3800,3800,7,-14,268,146,-107,4309,7,12,815
91018,7035588,7745600,7043640,7797304,3800,3800,-6,49,319,255,-306,4307,17,15,814
92019,7035592,7745576,7043837,7797501,3800,3800,0,75,351,304,-41,4257,17,15,814
93027,7035588,7745584,7044264,7797928,3800,3800,25,88,360,344,-2,4125,7,17,814
94021,7035580,7745600,7044461,7798125,3800,3800,57,66,364,408,-100,4081,7,17,814
95022,7035588,7745604,7044658,7798322,3800,3800,76,61,364,399,57,4068,7,16,814
96023,7035596,7745608,7044855,7798519,3800,3800,70,42,373,382,-136,4081,7,16,814
97024,7035588,7745612,7045052,7798716,3800,3800,45,28,401,357,-331,4112,-4,15,814
98025,7035600,7745596,7045249,7798913,3800,3800,6,-14,422,330,-214,4076,-4,15,814
99026,7035596,7745596,7045446,7799110,3800,3800,-46,-45,427,319,-193,4022,10,13,814
100027,7035576,7745608,7045643,7799307,3800,3800,-102,-99,420,317,-105,3984,10,13,814
101028,7035588,7745624,7045840,7799504,3800,3800,-158,-127,402,311,66,3943,1,15,813
102029,7035588,7745632,7046037,7799701,3800,3800,-206,-161,389,355,43,3997,1,15,813
103030,7035592,7745636,7046234,7799898,3800,3800,-235,-176,385,355,-19,4007,17,16,813
104031,7035572,7745612,7046431,7800095,3800,3800,-239,-207,382,301,-105,4075,17,16,813
105032,7035592,7745612,7046628,7800292,3800,3800,-214,-212,378,288,-256,4181,6,15,814
106033,7035592,7745640,7046825,7800489,3800,3800,-175,-181,374,276,-347,4283,6,15,814
107034,7035584,7745632,7047022,7800686,3800,3800,-131,-103,363,235,-401,4340,17,16,814
108035,7035588,7745652,7047219,7800883,3800,3800,-91,2,347,248,-463,4421,17,16,814
109036,7035592,7745648,7047416,7801080,3800,3800,-58,107,336,274,-485,4453,1,12,814
110037,7035572,7745612,7047613,7801277,3800,3800,-30,200,326,258,-507,4439,1,12,814
111038,7035584,7745628,7047810,7801474,3800,3800,-2,262,309,275,-468,4366,6,15,814
112039,7035584,7745624,7048007,7801671,3800,3800,24,312,286,286,-391,4251,6,15,814
113040,7035596,7745640,7048204,7801868,3800,3800,50,340,261,305,-372,4199,17,16,813
114041,7035580,7745640,7048401,7802065,3800,3800,74,372,243,351,-400,4147,17,16,813
115042,7035596,7745648,7048598,7802262,3800,3800,91,358,226,356,-460,4067,-1,15,814
116043,7035596,7745648,7048795,7802459,3800,3800,104,335,210,380,-517,4036,-1,15,814
117044,7035580,7745632,7048992,7802656,3800,3800,110,278,197,368,-609,4016,17,15,814
118045,7035584,7745632,7049189,7802853,3800,3800,115,245,177,335,-674,4022,17,15,814
119046,7035596,7745648,7049386,7803050,3800,3800,112,219,152,287,-657,4062,16,14,814
120047,7035588,7745648,7049583,7803247,3800,3800,101,234,120,274,-610,4091,16,14,814
121048,7035588,7745644,7049780,7803444,3800,3800,82,237,87,283,-541,4067,6,14,814
122049,7035588,7745620,7049977,7803641,3800,3800,60,237,62,287,-454,4025,6,14,814
123050,7035584,7745628,7050174,7803838,3800,3800,37,199,47,274,-381,4047,2,16,813
124051,7035580,7745652,7050371,7804035,3800,3800,20,163,35,236,-299,4087,2,16,813
125052,7035600,7745648,7050568,7804232,3800,3800,6,140,30,174,-265,4054,6,12,812
126053,7035604,7745644,7050765,7804429,3800,3800,-5,152,26,136,-249,4107,6,12,812
127054,7035584,7745664,7050962,7804626,3800,3800,-19,190,29,94,-256,4151,1,11,814
128055,7035596,7745612,7051159,7804823,3800,3800,-34,234,40,41,-285,4171,1,11,814
129056,7035588,7745628,7051356,7805020,3800,3800,-49,270,55,-30,-342,4238,16,9,813
130057,7035584,7745660,7051553,7805217,3800,3800,-64,284,70,-113,-349,4244,16,9,813
131058,7035588,7745664,7051750,7805414,3800,3800,-81,312,85,-129,-332,4199,15,0,811
132059,7035588,7745684,7051947,7805611,3800,3800,-95,332,109,-164,-380,4146,15,0,811
133060,7035596,7745676,7052144,7805808,3800,3800,-108,368,138,-194,-406,4088,14,3,814
134060,7035576,7745652,7052341,7806005,3800,3800,-114,367,168,-208,-408,4059,14,3,814
135062,7035592,7745648,7052538,7806202,3800,3800,-117,348,207,-216,-393,4009,17,4,812
136063,7035600,7745668,7052735,7806399,3800,3800,-113,280,243,-229,-340,3998,17,4,812
137064,7035588,7745688,7052932,7806596,3800,3800,-103,230,270,-234,-328,3972,15,0,813
138065,7035584,7745696,7053129,7806793,3800,3800,-91,184,294,-235,-339,4007,15,0,813
139066,7035588,7745696,7053326,7806990,3800,3800,-83,181,316,-248,-367,4056,-1,1,814
140067,7035588,7745692,7053523,7807187,3800,3800,-75,177,333,-239,-404,4059,-1,1,814
141068,7035592,7745660,7053720,7807384,3800,3800,-70,182,351,-234,-429,4102,17,9,813
142069,7035592,7745684,7053917,7807581,3800,3800,-65,161,361,-229,-433,4108,17,9,813
143070,7035584,7745692,7054114,7807778,3800,3800,-59,140,372,-214,-458,4102,2,0,814
144071,7035580,7745696,7054311,7807975,3800,3800,-50,118,379,-185,-413,4103,2,0,814
145072,7035588,7745704,7054508,7808172,3800,3800,-40,111,380,-152,-396,4079,3,0,813
146073,7035588,7745684,7054705,7808369,3800,3800,-26,107,376,-93,-399,4085,3,0,813
147074,7035584,7745684,7054902,7808566,3800,3800,-11,88,368,-67,-368,4084,17,3,813
148075,7035592,7745696,7055099,7808763,3800,3800,4,56,362,-35,-384,4074,17,3,813
149076,7035588,7745704,7055296,7808960,3800,3800,20,2,355,-7,-367,4060,2,0,813
150076,7035588,7745728,7055493,7809157,3800,3800,36,-35,346,43,-385,4069,2,0,813
151078,7035584,7745720,7055690,7809354,3800,3800,53,-62,335,77,-384,4110,15,0,813
152079,7035600,7745700,7055887,7809551,3800,3800,73,-46,321,105,-369,4117,15,0,813
153080,7035596,7745688,7056084,7809748,3800,3800,90,-38,309,115,-382,4117,7,4,814
154081,7035588,7745712,7056281,7809945,3800,3800,104,-23,298,128,-371,4129,7,4,814
155082,7035600,7745716,7056478,7810142,3800,3800,113,-41,285,146,-338,4178,3,0,813
156083,7035592,7745732,7056675,7810339,3800,3800,121,-40,271,196,-333,4167,3,0,813
157084,7035588,7745720,7056872,7810536,3800,3800,128,-35,257,203,-307,4175,-2,0,812
158085,7035592,7745712,7057069,7810733,3800,3800,131,4,243,207,-304,4146,-2,0,812
159086,7035596,7745704,7057266,7810930,3800,3800,131,30,234,203,-273,4143,17,7,813
160087,7035584,7745708,7057463,7811127,3800,3800,131,55,230,227,-301,4174,17,7,813
161088,7035584,7745732,7057660,7811324,3800,3800,133,51,227,213,-341,4163,7,2,813
162089,7035592,7745736,7057857,7811521,3800,3800,133,49,220,182,-341,4170,7,2,813
163090,7035580,7745740,7058054,7811718,3800,3800,132,54,215,193,-374,4177,17,-1,813
164091,7035580,7745724,7058251,7811915,3800,3800,127,79,217,175,-370,4119,17,-1,813
165092,7035596,7745716,7058448,7812112,3800,3800,122,115,218,158,-382,4127,14,7,813
166093,7035600,7745720,7058645,7812309,3800,3800,116,137,220,133,-378,4081,14,7,813
167094,7035584,7745732,7058842,7812506,3800,3800,107,143,225,124,-376,4096,17,-1,813
168095,7035584,7745756,7059039,7812703,3800,3800,97,120,233,108,-382,4085,17,-1,813
169096,7035600,7745748,7059236,7812900,3800,3800,88,111,236,102,-377,4049,0,-1,812
170097,7035592,7745736,7059433,7813097,3800,3800,79,108,245,106,-373,4048,0,-1,812
171098,7035584,7745732,7059630,7813294,3800,3800,71,128,252,69,-361,4006,12,4,813
172099,7035604,7745732,7059827,7813491,3800,3800,66,126,262,67,-371,4004,12,4,813
173100,7035596,7745744,7060024,7813688,3800,3800,62,130,272,64,-386,4002,7,-1,813
174101,7035580,7745768,7060221,7813885,3800,3800,61,98,280,69,-392,4032,7,-1,813
175102,7035600,7745760,7060418,7814082,3800,3800,57,88,288,62,-407,4017,-2,1,813
176110,7035600,7745744,7060648,7814312,3800,3800,53,73,294,50,-407,4026,-2,1,813
177104,7035588,7745732,7060845,7814509,3800,3800,50,98,303,72,-411,4009,5,5,813
178105,7035604,7745732,7061042,7814706,3800,3800,45,114,304,81,-396,4014,5,5,813
179106,7035600,7745744,7061239,7814903,3800,3800,39,126,305,93,-405,4013,17,1,813
180107,7035592,7745768,7061436,7815100,3800,3800,30,106,305,112,-387,4001,17,1,813
181108,7035592,7745768,7061633,7815297,3800,3800,20,82,302,121,-395,3979,17,2,813
182108,7035596,7745760,7061830,7815494,3800,3800,9,67,298,139,-395,4002,17,2,813
183110,7035600,7745740,7062027,7815691,3800,3800,-2,72,294,147,-402,3994,3,5,813
184111,7035592,7745752,7062224,7815888,3800,3800,-11,88,288,148,-399,3978,3,5,813
185112,7035592,7745768,7062421,7816085,3800,3800,-20,91,281,182,-376,3988,9,1,813
186113,7035608,7745772,7062618,7816282,3800,3800,-31,89,274,225,-366,4001,9,1,813
187114,7035592,7745764,7062815,7816479,3800,3800,-39,65,266,238,-379,4013,-1,3,813
188115,7035588,7745748,7063012,7816676,3800,3800,-44,66,256,254,-384,4043,-1,3,813
189116,7035600,7745744,7063209,7816873,3800,3800,-45,74,245,248,-359,4106,7,0,812
190117,7035584,7745744,7063406,7817070,3800,3800,-41,111,234,242,-332,4128,7,0,812
191118,7035592,7745756,7063603,7817267,3800,3800,-37,133,223,256,-337,4096,0,1,812
192119,7035596,7745776,7063800,7817464,3800,3800,-36,160,212,287,-345,4098,0,1,812
193120,7035596,7745776,7063997,7817661,3800,3800,-34,154,206,289,-337,4072,7,1,813
194121,7035584,7745760,7064194,7817858,3800,3800,-32,166,199,284,-322,4112,7,1,813
195122,7035592,7745748,7064391,7818055,3800,3800,-29,178,191,246,-292,4125,7,6,813
196123,7035600,7745752,7064588,7818252,3800,3800,-27,217,185,256,-313,4108,7,6,813
197124,7035592,7745760,7064785,7818449,3800,3800,-29,246,177,239,-313,4087,17,6,813
198125,7035604,7745784,7064982,7818646,3800,3800,-30,272,172,206,-293,4080,17,6,813
199126,7035604,7745776,7065179,7818843,3800,3800,-28,266,168,180,-314,4085,0,2,813
200127,7035592,7745768,7065376,7819040,3800,3800,-27,252,165,140,-327,4058,0,2,813
201128,7035592,7745752,7065573,7819237,3800,3800,-24,240,167,113,-329,4043,17,2,812
202129,7035592,7745748,7065770,7819434,3800,3800,-24,245,167,97,-337,4020,17,2,812
203130,7035600,7745772,7065967,7819631,3800,3800,-24,259,167,70,-346,3999,17,-1,812
204131,7035592,7745772,7066164,7819828,3800,3800,-23,262,170,53,-348,4008,17,-1,812
205132,7035600,7745776,7066361,7820025,3800,3800,-25,250,175,15,-339,4006,17,0,813
206133,7035604,7745776,7066558,7820222,3800,3800,-26,214,180,-11,-353,4020,17,0,813
207134,7035596,7745748,7066755,7820419,3800,3800,-29,197,185,-18,-354,4030,16,5,812
208135,7035608,7745752,7066952,7820616,3800,3800,-35,183,191,-39,-344,4001,16,5,812
209136,7035592,7745764,7067149,7820813,3800,3800,-37,203,199,-26,-355,4043,15,2,813
210137,7035596,7745792,7067346,7821010,3800,3800,-36,206,207,-40,-380,4069,15,2,813
211138,7035592,7745780,7067543,7821207,3800,3800,-35,208,217,-52,-385,4055,6,-2,812
212139,7035604,7745772,7067740,7821404,3800,3800,-35,172,225,-82,-384,4024,6,-2,812
213140,7035600,7745748,7067937,7821601,3800,3800,-30,158,232,-92,-373,4038,9,4,812
214141,7035596,7745760,7068134,7821798,3800,3800,-28,143,239,-69,-388,4028,9,4,812
215142,7035600,7745768,7068331,7821995,3800,3800,-28,161,244,-61,-403,4015,2,-1,813
216143,7035604,7745776,7068528,7822192,3800,3800,-28,167,250,-34,-424,4036,2,-1,813
217144,7035588,7745780,7068725,7822389,3800,3800,-30,172,256,-40,-413,4062,8,0,813
218145,7035600,7745764,7068922,7822586,3800,3800,-30,149,263,-21,-414,4086,8,0,813
219146,7035596,7745756,7069119,7822783,3800,3800,-33,123,264,-6,-421,4033,2,6,813
220147,7035596,7745768,7069316,7822980,3800,3800,-38,100,267,-5,-416,4022,2,6,813
221148,7035596,7745772,7069513,7823177,3800,3800,-42,97,267,19,-406,4036,6,0,813
222149,7035620,7745784,7069710,7823374,3800,3800,-46,108,267,21,-398,4001,6,0,813
223150,7035596,7745788,7069907,7823571,3800,3800,-51,107,268,23,-383,4028,3,-1,812
224151,7035588,7745772,7070104,7823768,3800,3800,-57,94,265,39,-410,4078,3,-1,812
225152,7035604,7745748,7070301,7823965,3800,3800,-61,60,263,81,-400,4089,15,5,812
226153,7035608,7745752,7070498,7824162,3800,3800,-65,46,263,66,-380,4064,15,5,812
227154,7035588,7745772,7070695,7824359,3800,3800,-68,38,263,69,-383,4112,17,1,813
228155,7035600,7745772,7070892,7824556,3800,3800,-70,65,259,82,-390,4155,17,1,813
229156,7035596,7745780,7071089,7824753,3800,3800,-70,72,254,88,-379,4138,17,9,813
230157,7035584,7745772,7071286,7824950,3800,3800,-69,86,252,88,-368,4170,17,9,813
231158,7035600,7745748,7071483,7825147,3800,3800,-69,66,252,78,-360,4143,7,1,813
232159,7035596,7745756,7071680,7825344,3800,3800,-67,67,252,93,-360,4119,7,1,813
233160,7035604,7745756,7071877,7825541,3800,3800,-66,67,254,101,-343,4153,17,0,813
234161,7035592,7745768,7072074,7825738,3800,3800,-61,97,255,93,-323,4175,17,0,813
235162,7035592,7745792,7072271,7825935,3800,3800,-55,123,254,106,-323,4155,16,0,812
236163,7035600,7745784,7072468,7826132,3800,3800,-52,145,254,95,-355,4173,16,0,812
237164,7035592,7745756,7072665,7826329,3800,3800,-45,140,256,101,-355,4185,8,9,813
238165,7035616,7745760,7072862,7826526,3800,3800,-40,127,255,103,-349,4131,8,9,813
239166,7035600,7745768,7073059,7826723,3800,3800,-34,123,255,94,-344,4183,17,4,813
240167,7035580,7745768,7073256,7826920,3800,3800,-27,140,257,118,-333,4187,17,4,813
241168,7035596,7745796,7073453,7827117,3800,3800,-21,169,258,114,-333,4169,6,1,813
242169,7035600,7745764,7073650,7827314,3800,3800,-16,178,255,117,-342,4134,6,1,813
243170,7035608,7745768,7073847,7827511,3800,3800,-11,178,253,108,-367,4156,10,5,813
244171,7035588,7745752,7074044,7827708,3800,3800,-5,150,251,117,-362,4153,10,5,813
245172,7035604,7745768,7074241,7827905,3800,3800,-1,142,250,122,-361,4148,8,-1,811
246173,7035600,7745780,7074438,7828102,3800,3800,3,136,245,141,-377,4125,8,-1,811
247174,7035596,7745788,7074635,7828299,3800,3800,6,157,243,141,-380,4122,3,-1,812
248175,7035596,7745784,7074832,7828496,3800,3800,10,164,242,140,-382,4106,3,-1,812
249176,7035608,7745760,7075029,7828693,3800,3800,15,172,238,147,-357,4090,17,2,813
250177,7035588,7745752,7075226,7828890,3800,3800,22,141,231,150,-365,4101,17,2,813
251178,7035584,7745760,7075423,7829087,3800,3800,30,124,231,148,-368,4113,3,0,813
252179,7035600,7745768,7075620,7829284,3800,3800,35,109,230,142,-378,4122,3,0,813
253180,7035600,7745784,7075817,7829481,3800,3800,41,128,230,137,-357,4116,-1,4,813
254181,7035592,7745772,7076014,7829678,3800,3800,48,142,229,115,-374,4110,-1,4,813
255182,7035596,7745756,7076211,7829875,3800,3800,51,150,227,125,-396,4103,6,3,813
256183,7035616,7745748,7076408,7830072,3800,3800,55,129,226,110,-393,4107,6,3,813
257184,7035592,7745756,7076605,7830269,3800,3800,61,106,225,102,-370,4094,10,0,813
258185,7035600,7745768,7076802,7830466,3800,3800,62,92,226,82,-385,4071,10,0,813
259195,7035604,7745780,7077032,7830696,3800,3800,66,94,228,115,-393,4069,-1,5,813
260187,7035600,7745768,7077229,7830893,3800,3800,67,110,230,95,-373,4079,-1,5,813
261187,7035588,7745764,7077426,7831090,3800,3800,69,114,229,66,-367,4093,2,5,813
262188,7035604,7745756,7077623,7831287,3800,3800,69,113,228,74,-384,4096,2,5,813
263190,7035600,7745780,7077820,7831484,3800,3800,69,85,232,60,-393,4094,17,0,813
264191,7035584,7745764,7078017,7831681,3800,3800,69,75,236,65,-399,4057,17,0,813
265192,7035608,7745792,7078214,7831878,3800,3800,68,67,239,78,-391,4074,15,8,813
266193,7035612,7745780,7078411,7832075,3800,3800,70,96,243,62,-373,4107,15,8,813
267194,7035600,7745764,7078608,7832272,3800,3800,70,106,245,65,-381,4090,5,2,812
268195,7035596,7745764,7078805,7832469,3800,3800,69,118,248,73,-387,4082,5,2,812
269196,7035604,7745764,7079002,7832666,3800,3800,69,96,250,82,-361,4098,3,1,812
270197,7035604,7745768,7079199,7832863,3800,3800,68,88,252,68,-372,4131,3,1,812
271198,7035592,7745796,7079396,7833060,3800,3800,65,79,252,90,-388,4102,17,3,813
272199,7035600,7745788,7079593,7833257,3800,3800,63,103,252,83,-366,4098,17,3,813
273200,7035600,7745760,7079790,7833454,3800,3800,60,123,249,92,-356,4091,9,3,813
274201,7035596,7745744,7079987,7833651,3800,3800,57,141,251,106,-364,4076,9,3,813
275202,7035604,7745756,7080184,7833848,3800,3800,55,131,250,84,-346,4096,-1,-1,813
276203,7035604,7745760,7080381,7834045,3800,3800,51,113,249,102,-355,4080,-1,-1,813
277204,7035600,7745792,7080578,7834242,3800,3800,47,106,246,119,-350,4084,17,0,813
278204,7035600,7745788,7080775,7834439,3800,3800,42,119,242,134,-358,4049,17,0,813
279206,7035612,7745772,7080972,7834636,3800,3800,39,147,239,132,-358,4023,14,2,812
280207,7035600,7745756,7081169,7834833,3800,3800,38,162,236,114,-353,4025,14,2,812
281208,7035596,7745764,7081366,7835030,3800,3800,34,163,232,92,-344,4024,17,-1,813
282209,7035600,7745780,7081563,7835227,3800,3800,30,138,227,95,-367,4064,17,-1,813
283210,7035596,7745772,7081760,7835424,3800,3800,25,136,226,95,-359,4049,16,8,813
284211,7035604,7745772,7081957,7835621,3800,3800,21,130,221,86,-333,4071,16,8,813
285212,7035616,7745764,7082154,7835818,3800,3800,18,161,220,102,-356,4085,15,9,813
286213,7035604,7745752,7082351,7836015,3800,3800,15,175,219,93,-361,4052,15,9,813
287214,7035600,7745764,7082548,7836212,3800,3800,11,188,216,67,-353,4019,15,1,813
288215,7035600,7745776,7082745,7836409,3800,3800,7,163,216,59,-353,4016,15,1,813
289216,7035612,7745780,7082942,7836606,3800,3800,4,154,215,28,-352,4026,16,-1,811
290217,7035596,7745784,7083139,7836803,3800,3800,3,144,217,51,-351,4048,16,-1,811
291218,7035592,7745764,7083336,7837000,3800,3800,-2,165,218,67,-355,4057,5,9,812
292219,7035616,7745752,7083533,7837197,3800,3800,-4,179,215,49,-373,4070,5,9,812
293220,7035600,7745776,7083730,7837394,3800,3800,-5,188,218,16,-328,4025,3,1,813
294221,7035596,7745772,7083927,7837591,3800,3800,-6,170,224,22,-340,4003,3,1,813
295222,7035612,7745784,7084124,7837788,3800,3800,-5,146,229,39,-361,3987,0,3,813
296223,7035616,7745780,7084321,7837985,3800,3800,-6,134,231,1,-362,4003,0,3,813
297224,7035596,7745776,7084518,7838182,3800,3800,-7,137,237,9,-382,4004,14,3,813
298225,7035616,7745760,7084715,7838379,3800,3800,-7,155,242,9,-382,4006,14,3,813
299226,7035616,7745772,7084912,7838576,3800,3800,-9,157,246,-2,-373,4036,16,0,813
300227,7035616,7745780,7085109,7838773,3800,3800,-11,151,252,13,-350,4028,16,0,813
301228,7035612,7745784,7085306,7838970,3800,3800,-12,118,255,17,-365,4047,2,2,811
302229,7035616,7745796,7085503,7839167,3800,3800,-14,105,259,26,-367,4029,2,2,811
303230,7035608,7745768,7085700,7839364,3800,3800,-15,92,262,37,-356,4038,6,4,813
304231,7035592,7745764,7085897,7839561,3800,3800,-16,111,264,39,-357,4029,6,4,813
305232,7035604,7745760,7086094,7839758,3800,3800,-16,113,267,27,-374,4026,5,0,813
306232,7035608,7745772,7086291,7839955,3800,3800,-18,121,269,26,-374,4041,5,0,813
307234,7035592,7745796,7086488,7840152,3800,3800,-19,90,270,58,-379,4034,3,1,812
308234,7035612,7745784,7086685,7840349,3800,3800,-21,70,270,66,-371,4052,3,1,812
309236,7035612,7745784,7086882,7840546,3800,3800,-22,52,268,74,-362,4037,17,8,813
310236,7035600,7745752,7087079,7840743,3800,3800,-24,72,269,94,-360,4040,17,8,813
311238,7035608,7745760,7087276,7840940,3800,3800,-26,88,271,71,-366,4086,15,0,812
312239,7035612,7745780,7087473,7841137,3800,3800,-27,101,268,119,-367,4103,15,0,812
313240,7035604,7745792,7087670,7841334,3800,3800,-27,89,266,142,-347,4103,17,5,812
314240,7035600,7745792,7087867,7841531,3800,3800,-29,74,262,149,-331,4086,17,5,812
315242,7035604,7745792,7088064,7841728,3800,3800,-30,74,261,152,-353,4068,17,9,813
316243,7035628,7745760,7088261,7841925,3800,3800,-31,85,258,161,-356,4073,17,9,813
317244,7035596,7745776,7088458,7842122,3800,3800,-30,115,254,142,-344,4115,17,3,812
318245,7035616,7745768,7088655,7842319,3800,3800,-30,129,249,157,-346,4099,17,3,812
319246,7035612,7745788,7088852,7842516,3800,3800,-34,140,246,155,-359,4117,5,2,812
320247,7035604,7745796,7089049,7842713,3800,3800,-38,121,245,138,-360,4105,5,2,812
321248,7035612,7745792,7089246,7842910,3800,3800,-39,119,241,135,-362,4139,3,3,812
322248,7035616,7745756,7089443,7843107,3800,3800,-39,119,238,159,-364,4144,3,3,812
323250,7035608,7745764,7089640,7843304,3800,3800,-41,151,233,176,-379,4122,-1,0,811
324251,7035600,7745772,7089837,7843501,3800,3800,-44,166,229,158,-364,4081,-1,0,811
325252,7035616,7745796,7090034,7843698,3800,3800,-46,184,224,147,-380,4081,5,3,812
326253,7035608,7745800,7090231,7843895,3800,3800,-49,163,220,131,-364,4111,5,3,812
327254,7035592,7745788,7090428,7844092,3800,3800,-49,155,218,134,-364,4117,16,3,812
328255,7035612,7745764,7090625,7844289,3800,3800,-49,148,217,139,-366,4102,16,3,812
329256,7035624,7745764,7090822,7844486,3800,3800,-50,169,215,112,-365,4098,3,1,813
330256,7035600,7745772,7091019,7844683,3800,3800,-48,188,215,127,-369,4102,3,1,813
331258,7035616,7745780,7091216,7844880,3800,3800,-44,200,215,149,-386,4088,17,4,812
332259,7035616,7745800,7091413,7845077,3800,3800,-44,187,212,121,-378,4119,17,4,812
333260,7035600,7745788,7091610,7845274,3800,3800,-44,168,214,96,-386,4103,6,3,811
334260,7035596,7745764,7091807,7845471,3800,3800,-40,162,216,101,-368,4130,6,3,811
335262,7035616,7745768,7092004,7845668,3800,3800,-38,166,217,90,-383,4092,0,3,811
336263,7035612,7745780,7092201,7845865,3800,3800,-35,188,216,100,-378,4131,0,3,811
337264,7035600,7745800,7092398,7846062,3800,3800,-34,197,219,89,-385,4130,17,7,812
338264,7035604,7745788,7092595,7846259,3800,3800,-33,199,222,73,-366,4095,17,7,812
339266,7035616,7745792,7092792,7846456,3800,3800,-33,166,224,80,-367,4110,16,9,812
340267,7035600,7745768,7092989,7846653,3800,3800,-30,155,224,80,-369,4111,16,9,812
341268,7035600,7745760,7093186,7846850,3800,3800,-26,144,226,74,-370,4093,14,-1,812
342275,7035608,7745776,7093416,7847080,3800,3800,-25,164,230,69,-345,4084,14,-1,812
343270,7035604,7745800,7093613,7847277,3800,3800,-23,170,232,51,-361,4051,-2,3,813
344271,7035608,7745812,7093810,7847474,3800,3800,-22,174,234,40,-372,4076,-2,3,813
345272,7035612,7745780,7094007,7847671,3800,3800,-17,143,235,46,-388,4143,15,9,811
346273,7035608,7745788,7094204,7847868,3800,3800,-12,125,236,51,-380,4119,15,9,811
347274,7035596,7745772,7094401,7848065,3800,3800,-10,106,237,56,-382,4117,2,1,812
348275,7035608,7745776,7094598,7848262,3800,3800,-10,121,238,43,-395,4109,2,1,812
349276,7035620,7745800,7094795,7848459,3800,3800,-5,135,240,67,-383,4112,8,1,812
350277,7035612,7745800,7094992,7848656,3800,3800,-2,144,244,62,-386,4138,8,1,812
351278,7035608,7745804,7095189,7848853,3800,3800,0,131,245,72,-382,4135,13,5,812
352279,7035620,7745752,7095386,7849050,3800,3800,4,107,246,91,-385,4093,13,5,812
353280,7035608,7745784,7095583,7849247,3800,3800,8,97,245,93,-383,4121,7,0,812
354281,7035596,7745788,7095780,7849444,3800,3800,12,100,247,88,-355,4107,7,0,812
355282,7035616,7745800,7095977,7849641,3800,3800,16,124,247,96,-363,4128,2,0,811
356283,7035616,7745804,7096174,7849838,3800,3800,20,128,247,63,-366,4127,2,0,811
357284,7035604,7745792,7096371,7850035,3800,3800,24,132,248,57,-354,4127,3,6,811
358285,7035624,7745772,7096568,7850232,3800,3800,27,103,249,67,-370,4112,3,6,811
359286,7035616,7745760,7096765,7850429,3800,3800,31,94,248,65,-363,4108,17,2,812
360287,7035600,7745788,7096962,7850626,3800,3800,34,87,245,61,-372,4120,17,2,812
361288,7035612,7745788,7097159,7850823,3800,3800,38,115,245,80,-361,4109,-2,5,812
362289,7035620,7745816,7097356,7851020,3800,3800,40,124,245,83,-365,4094,-2,5,812
363290,7035604,7745800,7097553,7851217,3800,3800,43,134,244,98,-361,4122,2,7,813
364291,7035608,7745776,7097750,7851414,3800,3800,47,111,243,85,-357,4095,2,7,813
365292,7035616,7745772,7097947,7851611,3800,3800,45,98,243,93,-362,4077,17,4,812
366293,7035608,7745784,7098144,7851808,3800,3800,47,88,243,74,-371,4076,17,4,812
367294,7035608,7745796,7098341,7852005,3800,3800,50,105,244,70,-370,4103,18,3,812
368295,7035612,7745812,7098538,7852202,3800,3800,52,124,244,71,-367,4118,18,3,812
369296,7035628,7745808,7098735,7852399,3800,3800,56,137,244,81,-358,4111,12,8,812
370297,7035604,7745784,7098932,7852596,3800,3800,56,127,245,91,-366,4086,12,8,812
371298,7035612,7745780,7099129,7852793,3800,3800,55,106,245,81,-370,4096,5,-2,812
372299,7035612,7745780,7099326,7852990,3800,3800,54,100,245,80,-351,4069,5,-2,812
373300,7035620,7745796,7099523,7853187,3800,3800,54,107,246,83,-348,4095,1,3,812
374301,7035608,7745820,7099720,7853384,3800,3800,55,133,246,83,-384,4102,1,3,812
375302,7035616,7745800,7099917,7853581,3800,3800,52,142,245,57,-377,4118,9,6,812
376303,7035620,7745792,7100114,7853778,3800,3800,50,144,245,66,-379,4080,9,6,812
377304,7035608,7745792,7100311,7853975,3800,3800,48,116,246,101,-387,4049,7,-1,811
378305,7035628,7745792,7100508,7854172,3800,3800,44,107,243,91,-387,4028,7,-1,811
379306,7035632,7745804,7100705,7854369,3800,3800,43,95,244,110,-371,4045,15,5,811
380307,7035616,7745808,7100902,7854566,3800,3800,41,118,247,79,-374,4035,15,5,811
381308,7035604,7745816,7101099,7854763,3800,3800,39,125,249,68,-372,4075,17,8,812
382309,7035624,7745800,7101296,7854960,3800,3800,37,132,248,69,-383,4084,17,8,812
383310,7035620,7745788,7101493,7855157,3800,3800,35,103,248,69,-378,4058,17,0,812
384311,7035616,7745796,7101690,7855354,3800,3800,32,89,248,71,-379,4065,17,0,812
385312,7035624,7745804,7101887,7855551,3800,3800,31,78,250,78,-362,4015,17,2,812
386313,7035624,7745816,7102084,7855748,3800,3800,29,98,254,88,-391,4044,17,2,812
387314,7035612,7745816,7102281,7855945,3800,3800,25,115,254,92,-381,4061,7,4,812
388315,7035620,7745800,7102478,7856142,3800,3800,22,127,254,98,-355,4071,7,4,812
389316,7035624,7745776,7102675,7856339,3800,3800,21,117,254,92,-370,4074,9,-1,811
390317,7035608,7745792,7102872,7856536,3800,3800,21,96,254,108,-371,4066,9,-1,811
391318,7035628,7745812,7103069,7856733,3800,3800,21,87,254,118,-370,4085,17,7,812
392319,7035624,7745820,7103266,7856930,3800,3800,22,89,254,108,-373,4084,17,7,812
393320,7035624,7745828,7103463,7857127,3800,3800,21,117,254,110,-356,4087,5,8,812
394321,7035600,7745800,7103660,7857324,3800,3800,16,127,257,90,-355,4067,5,8,812
395322,7035620,7745800,7103857,7857521,3800,3800,15,133,258,114,-339,4008,8,2,812
396323,7035620,7745808,7104054,7857718,3800,3800,15,111,253,128,-355,4016,8,2,812
397324,7035616,7745816,7104251,7857915,3800,3800,14,108,254,138,-342,4022,-3,6,812
398325,7035620,7745832,7104448,7858112,3800,3800,13,103,252,140,-344,4071,-3,6,812
399326,7035628,7745832,7104645,7858309,3800,3800,13,131,250,104,-365,4067,16,9,811
400327,7035608,7745808,7104842,7858506,3800,3800,10,142,249,89,-363,4066,16,9,811
401328,7035632,7745800,7105039,7858703,3800,3800,8,154,245,134,-347,4071,3,1,811
402329,7035624,7745804,7105236,7858900,3800,3800,3,131,241,132,-360,4085,3,1,811
403330,7035628,7745820,7105433,7859097,3800,3800,0,121,242,128,-338,4084,3,5,812
404331,7035624,7745836,7105630,7859294,3800,3800,1,109,242,132,-351,4066,3,5,812
405332,7035624,7745836,7105827,7859491,3800,3800,0,127,236,143,-354,4070,17,9,812
406332,7035620,7745812,7106024,7859688,3800,3800,-2,147,231,135,-352,4090,17,9,812
407334,7035620,7745788,7106221,7859885,3800,3800,-3,162,231,126,-332,4077,7,1,812
408335,7035640,7745800,7106418,7860082,3800,3800,-7,152,231,123,-334,4066,7,1,812
409336,7035628,7745816,7106615,7860279,3800,3800,-11,131,227,112,-339,4043,-1,2,812
410337,7035608,7745832,7106812,7860476,3800,3800,-11,127,223,118,-338,4069,-1,2,812
411338,7035624,7745824,7107009,7860673,3800,3800,-10,133,223,120,-324,4057,10,8,811
412339,7035628,7745832,7107206,7860870,3800,3800,-12,161,222,106,-345,4075,10,8,811
413340,7035628,7745800,7107403,7861067,3800,3800,-13,168,223,103,-349,4049,4,1,812
414341,7035624,7745816,7107600,7861264,3800,3800,-15,172,224,112,-337,4045,4,1,812
415342,7035628,7745804,7107797,7861461,3800,3800,-17,144,224,86,-373,4036,13,1,812
416343,7035632,7745836,7107994,7861658,3800,3800,-19,140,223,85,-362,4066,13,1,812
417344,7035616,7745836,7108191,7861855,3800,3800,-19,134,221,67,-368,4033,10,4,812
418345,7035624,7745816,7108388,7862052,3800,3800,-20,161,222,75,-360,4041,10,4,812
419346,7035628,7745800,7108585,7862249,3800,3800,-24,168,227,96,-359,4052,17,1,812
420347,7035620,7745812,7108782,7862446,3800,3800,-24,177,227,98,-369,4072,17,1,812
421348,7035628,7745816,7108979,7862643,3800,3800,-24,155,227,68,-373,4064,-2,2,811
422349,7035628,7745828,7109176,7862840,3800,3800,-23,141,227,39,-376,4049,-2,2,811
423350,7035640,7745844,7109373,7863037,3800,3800,-27,128,230,46,-377,4030,16,4,811
424351,7035620,7745816,7109570,7863234,3800,3800,-30,145,232,66,-360,4067,16,4,811
425359,7035632,7745800,7109800,7863464,3800,3800,-32,159,232,87,-370,4040,10,6,812
426353,7035632,7745800,7109997,7863661,3800,3800,-34,170,232,82,-358,4048,10,6,812
427354,7035620,7745804,7110194,7863858,3800,3800,-35,158,235,65,-369,4081,0,6,812
428355,7035620,7745828,7110391,7864055,3800,3800,-36,134,237,81,-366,4040,0,6,812
429356,7035628,7745828,7110588,7864252,3800,3800,-38,123,240,64,-360,4031,10,5,812
430357,7035612,7745824,7110785,7864449,3800,3800,-40,123,241,47,-367,4051,10,5,812
431358,7035620,7745792,7110982,7864646,3800,3800,-42,143,241,51,-375,4038,16,4,812
432359,7035620,7745804,7111179,7864843,3800,3800,-42,148,239,82,-348,4069,16,4,812
433360,7035628,7745808,7111376,7865040,3800,3800,-44,151,240,79,-351,4099,3,2,810
434361,7035612,7745820,7111573,7865237,3800,3800,-45,122,241,89,-347,4077,3,2,810
435362,7035620,7745828,7111770,7865434,3800,3800,-46,112,243,70,-374,4087,14,5,812
436363,7035632,7745816,7111967,7865631,3800,3800,-46,103,244,63,-372,4106,14,5,812
437364,7035624,7745800,7112164,7865828,3800,3800,-44,129,243,65,-390,4110,17,1,812
438365,7035636,7745812,7112361,7866025,3800,3800,-42,141,242,86,-373,4090,17,1,812
439366,7035632,7745820,7112558,7866222,3800,3800,-40,152,243,74,-360,4080,6,0,812
440367,7035620,7745836,7112755,7866419,3800,3800,-39,129,244,52,-362,4097,6,0,812
441368,7035628,7745836,7112952,7866616,3800,3800,-37,117,241,59,-346,4084,4,7,812
442369,7035636,7745824,7113149,7866813,3800,3800,-36,110,240,93,-366,4124,4,7,812
443370,7035628,7745808,7113346,7867010,3800,3800,-33,128,240,86,-357,4132,17,3,810
444371,7035624,7745800,7113543,7867207,3800,3800,-30,149,240,86,-349,4133,17,3,810
445371,7035632,7745812,7113740,7867404,3800,3800,-29,160,241,85,-367,4129,17,7,810
446373,7035636,7745828,7113937,7867601,3800,3800,-26,152,241,91,-387,4142,17,7,810
447374,7035624,7745836,7114134,7867798,3800,3800,-24,130,239,97,-368,4142,17,8,812
448375,7035640,7745820,7114331,7867995,3800,3800,-23,123,237,104,-382,4081,17,8,812
449376,7035636,7745812,7114528,7868192,3800,3800,-21,125,235,101,-377,4084,9,-1,812
450377,7035628,7745816,7114725,7868389,3800,3800,-18,151,236,81,-371,4105,9,-1,812
451378,7035624,7745812,7114922,7868586,3800,3800,-14,157,234,92,-374,4150,14,2,812
452379,7035636,7745828,7115119,7868783,3800,3800,-11,162,233,92,-360,4135,14,2,812
453380,7035628,7745836,7115316,7868980,3800,3800,-9,136,233,94,-367,4139,13,0,812
454381,7035616,7745824,7115513,7869177,3800,3800,-10,125,234,91,-372,4110,13,0,812
455382,7035636,7745808,7115710,7869374,3800,3800,-7,114,234,83,-372,4072,1,1,810
456383,7035640,7745804,7115907,7869571,3800,3800,-3,137,234,110,-370,4101,1,1,810
457384,7035620,7745820,7116104,7869768,3800,3800,0,147,233,117,-359,4137,-1,1,812
458385,7035640,7745812,7116301,7869965,3800,3800,1,162,233,87,-361,4100,-1,1,812
459386,7035640,7745836,7116498,7870162,3800,3800,4,137,235,105,-387,4099,17,5,812
460387,7035636,7745836,7116695,7870359,3800,3800,6,122,234,113,-371,4103,17,5,812
461387,7035640,7745812,7116892,7870556,3800,3800,7,110,233,89,-371,4122,6,3,812
462389,7035632,7745812,7117089,7870753,3800,3800,11,124,234,96,-386,4126,6,3,812
463390,7035640,7745820,7117286,7870950,3800,3800,15,137,234,79,-393,4105,15,8,812
464391,7035632,7745824,7117483,7871147,3800,3800,17,147,235,84,-385,4140,15,8,812
465392,7035640,7745852,7117680,7871344,3800,3800,21,140,235,92,-377,4108,9,3,810
466393,7035640,7745840,7117877,7871541,3800,3800,22,113,239,100,-401,4136,9,3,810
467394,7035636,7745816,7118074,7871738,3800,3800,25,101,240,73,-387,4082,4,2,811
468395,7035628,7745800,7118271,7871935,3800,3800,27,104,241,77,-376,4065,4,2,811
469396,7035648,7745812,7118468,7872132,3800,3800,29,129,242,88,-395,4114,17,2,812
470397,7035640,7745824,7118665,7872329,3800,3800,31,136,244,80,-398,4120,17,2,812
471398,7035636,7745832,7118862,7872526,3800,3800,33,140,242,82,-389,4102,16,8,812
472399,7035648,7745840,7119059,7872723,3800,3800,35,111,244,102,-362,4096,16,8,812
473400,7035640,7745820,7119256,7872920,3800,3800,37,99,243,79,-373,4099,0,2,812
474401,7035632,7745808,7119453,7873117,3800,3800,35,89,243,110,-363,4101,0,2,812
475402,7035652,7745812,7119650,7873314,3800,3800,37,116,243,118,-361,4107,5,4,812
476403,7035644,7745836,7119847,7873511,3800,3800,40,127,244,94,-360,4094,5,4,812
477403,7035636,7745848,7120044,7873708,3800,3800,41,138,245,100,-370,4083,8,1,810
478405,7035640,7745832,7120241,7873905,3800,3800,41,115,247,114,-362,4081,8,1,810
479406,7035652,7745800,7120438,7874102,3800,3800,40,103,244,110,-374,4054,17,0,812
480407,7035636,7745796,7120635,7874299,3800,3800,39,93,241,96,-368,4061,17,0,812
481408,7035640,7745816,7120832,7874496,3800,3800,39,109,240,81,-369,4102,6,3,812
482409,7035644,7745828,7121029,7874693,3800,3800,38,128,240,80,-369,4108,6,3,812
483410,7035644,7745836,7121226,7874890,3800,3800,37,137,242,90,-372,4062,8,5,812
484411,7035644,7745828,7121423,7875087,3800,3800,39,128,240,102,-380,4076,8,5,812
485412,7035656,7745816,7121620,7875284,3800,3800,39,106,237,120,-370,4103,14,-1,812
486412,7035656,7745808,7121817,7875481,3800,3800,37,100,235,94,-374,4080,14,-1,812
487414,7035640,7745824,7122014,7875678,3800,3800,38,104,235,74,-367,4035,12,2,811
488415,7035648,7745836,7122211,7875875,3800,3800,38,129,236,96,-348,4085,12,2,811
489416,7035648,7745836,7122408,7876072,3800,3800,36,148,235,81,-362,4115,10,6,810
490417,7035640,7745836,7122605,7876269,3800,3800,36,123,233,82,-373,4100,10,6,810
491418,7035640,7745828,7122802,7876466,3800,3800,34,117,233,66,-372,4071,13,1,812
492419,7035660,7745812,7122999,7876663,3800,3800,32,108,235,48,-362,4030,13,1,812
493420,7035656,7745800,7123196,7876860,3800,3800,31,134,236,72,-362,4045,-3,9,812
494421,7035644,7745832,7123393,7877057,3800,3800,30,147,235,90,-365,4064,-3,9,812
495422,7035664,7745844,7123590,7877254,3800,3800,31,159,232,71,-369,4051,16,5,812
496423,7035656,7745848,7123787,7877451,3800,3800,28,137,234,83,-382,4067,16,5,812
497424,7035640,7745816,7123984,7877648,3800,3800,22,121,238,94,-371,4060,17,0,812
498425,7035672,7745796,7124181,7877845,3800,3800,21,112,237,67,-336,4024,17,0,812
499426,7035656,7745816,7124378,7878042,3800,3800,21,125,236,64,-360,4016,11,2,810
500427,7035648,7745828,7124575,7878239,3800,3800,23,142,234,84,-378,4054,11,2,810
501428,7035656,7745840,7124772,7878436,3800,3800,21,147,238,74,-382,4058,15,4,811
502429,7035660,7745828,7124969,7878633,3800,3800,20,141,239,69,-371,4064,15,4,811
503430,7035660,7745828,7125166,7878830,3800,3800,16,117,239,77,-366,4041,6,1,811
504431,7035648,7745800,7125363,7879027,3800,3800,15,107,241,86,-361,4095,6,1,811
505432,7035664,7745816,7125560,7879224,3800,3800,11,109,238,86,-353,4071,17,3,811
506433,7035668,7745836,7125757,7879421,3800,3800,9,138,237,82,-362,4056,17,3,811
507434,7035640,7745840,7125954,7879618,3800,3800,9,145,240,103,-357,4060,10,9,812
508442,7035648,7745824,7126184,7879848,3800,3800,9,152,241,98,-361,4045,10,9,812
509436,7035660,7745824,7126381,7880045,3800,3800,6,120,239,92,-373,4026,8,1,811
510437,7035660,7745808,7126578,7880242,3800,3800,2,108,239,82,-361,4028,8,1,811
511438,7035664,7745812,7126775,7880439,3800,3800,-1,100,241,115,-366,4037,0,4,810
512439,7035660,7745828,7126972,7880636,3800,3800,-1,126,240,114,-365,4053,0,4,810
513440,7035672,7745840,7127169,7880833,3800,3800,-1,135,241,69,-373,4040,5,8,811
514441,7035652,7745824,7127366,7881030,3800,3800,-4,144,242,86,-371,4056,5,8,811
515442,7035660,7745812,7127563,7881227,3800,3800,-6,124,240,84,-368,4092,-1,2,811
516443,7035672,7745800,7127760,7881424,3800,3800,-9,110,238,72,-367,4051,-1,2,811
517444,7035656,7745824,7127957,7881621,3800,3800,-11,100,239,98,-359,4050,13,5,811
518445,7035676,7745820,7128154,7881818,3800,3800,-14,115,243,103,-358,4047,13,5,811
519446,7035672,7745844,7128351,7882015,3800,3800,-15,135,244,91,-348,4054,17,3,811
520447,7035664,7745836,7128548,7882212,3800,3800,-18,147,241,99,-344,4073,17,3,811
521448,7035676,7745828,7128745,7882409,3800,3800,-20,142,239,101,-369,4040,18,-1,811
522449,7035668,7745808,7128942,7882606,3800,3800,-21,118,239,103,-381,4048,18,-1,811
523450,7035680,7745804,7129139,7882803,3800,3800,-22,111,239,103,-382,4065,0,5,811
524451,7035672,7745820,7129336,7883000,3800,3800,-21,111,239,123,-359,4073,0,5,811
525452,7035672,7745832,7129533,7883197,3800,3800,-22,142,236,108,-341,4068,17,5,812
526453,7035680,7745844,7129730,7883394,3800,3800,-23,152,233,127,-348,4094,17,5,812
527454,7035664,7745832,7129927,7883591,3800,3800,-24,159,233,104,-350,4099,3,0,811
528455,7035672,7745812,7130124,7883788,3800,3800,-26,137,233,114,-350,4066,3,0,811
529456,7035684,7745808,7130321,7883985,3800,3800,-27,132,233,121,-375,4092,12,9,811
530457,7035680,7745816,7130518,7884182,3800,3800,-28,124,231,106,-359,4102,12,9,811
531458,7035668,7745836,7130715,7884379,3800,3800,-28,148,228,100,-389,4078,18,1,810
532459,7035680,7745836,7130912,7884576,3800,3800,-27,162,228,87,-390,4074,18,1,810
533460,7035692,7745832,7131109,7884773,3800,3800,-29,173,230,99,-353,4057,8,0,810
534460,7035664,7745804,7131306,7884970,3800,3800,-31,154,230,106,-356,4062,8,0,810
535462,7035692,7745828,7131503,7885167,3800,3800,-32,139,231,124,-377,4064,0,2,811
536463,7035684,7745816,7131700,7885364,3800,3800,-33,127,230,100,-371,4087,0,2,811
537464,7035680,7745828,7131897,7885561,3800,3800,-30,137,225,84,-376,4078,3,4,811
538465,7035676,7745844,7132094,7885758,3800,3800,-32,158,226,100,-388,4088,3,4,811
539465,7035692,7745828,7132291,7885955,3800,3800,-34,170,225,95,-385,4079,12,4,811
540467,7035680,7745804,7132488,7886152,3800,3800,-34,164,226,90,-371,4058,12,4,811
541467,7035684,7745808,7132685,7886349,3800,3800,-32,137,224,85,-358,4062,17,2,811
542468,7035696,7745832,7132882,7886546,3800,3800,-33,129,223,119,-346,4042,17,2,811
543470,7035688,7745820,7133079,7886743,3800,3800,-33,128,225,98,-366,4096,16,1,810
544471,7035688,7745852,7133276,7886940,3800,3800,-32,155,229,82,-395,4111,16,1,810
545472,7035696,7745832,7133473,7887137,3800,3800,-31,163,227,96,-389,4086,17,0,811
546473,7035688,7745800,7133670,7887334,3800,3800,-31,170,224,102,-388,4038,17,0,811
547474,7035688,7745812,7133867,7887531,3800,3800,-29,143,224,109,-384,4072,-1,3,812
548475,7035688,7745816,7134064,7887728,3800,3800,-29,132,226,102,-380,4122,-1,3,812
549476,7035704,7745824,7134261,7887925,3800,3800,-29,121,230,88,-391,4117,1,5,811
550476,7035696,7745852,7134458,7888122,3800,3800,-27,143,230,64,-375,4055,1,5,811
551478,7035692,7745816,7134655,7888319,3800,3800,-26,154,228,59,-365,4056,11,1,811
552479,7035708,7745808,7134852,7888516,3800,3800,-23,161,230,89,-382,4119,11,1,811
553480,7035692,7745812,7135049,7888713,3800,3800,-21,140,231,108,-377,4096,8,3,810
554481,7035696,7745816,7135246,7888910,3800,3800,-20,124,231,110,-404,4094,8,3,810
555482,7035716,7745840,7135443,7889107,3800,3800,-19,112,233,85,-398,4106,8,8,810
556483,7035712,7745848,7135640,7889304,3800,3800,-16,125,235,74,-381,4146,8,8,810
557484,7035704,7745824,7135837,7889501,3800,3800,-12,144,234,82,-354,4120,18,0,811
558485,7035704,7745812,7136034,7889698,3800,3800,-8,155,233,88,-363,4095,18,0,811
559486,7035716,7745804,7136231,7889895,3800,3800,-5,151,233,65,-370,4097,6,9,811
560487,7035696,7745812,7136428,7890092,3800,3800,-4,126,233,85,-379,4130,6,9,811
561488,7035688,7745828,7136625,7890289,3800,3800,-4,114,233,84,-394,4086,6,8,812
562489,7035716,7745852,7136822,7890486,3800,3800,-7,113,235,109,-377,4115,6,8,812
563490,7035712,7745824,7137019,7890683,3800,3800,-6,141,235,96,-369,4146,14,0,811
564491,7035716,7745808,7137216,7890880,3800,3800,-1,147,232,93,-357,4151,14,0,811
565492,7035712,7745808,7137413,7891077,3800,3800,2,154,235,95,-354,4124,1,2,811
566493,7035716,7745824,7137610,7891274,3800,3800,4,126,233,102,-348,4110,1,2,811
567494,7035708,7745824,7137807,7891471,3800,3800,7,115,230,86,-351,4146,3,2,811
568495,7035716,7745844,7138004,7891668,3800,3800,8,104,231,65,-383,4122,3,2,811
569496,7035732,7745832,7138201,7891865,3800,3800,8,128,232,87,-368,4096,11,3,812
570497,7035712,7745820,7138398,7892062,3800,3800,10,140,229,97,-362,4109,11,3,812
571498,7035716,7745808,7138595,7892259,3800,3800,14,153,231,82,-358,4123,-1,1,811
572499,7035728,7745812,7138792,7892456,3800,3800,17,131,233,81,-349,4110,-1,1,811
573499,7035732,7745820,7138989,7892653,3800,3800,18,116,230,84,-354,4115,5,8,812
574500,7035716,7745848,7139186,7892850,3800,3800,21,106,230,71,-342,4107,5,8,812
575502,7035724,7745836,7139383,7893047,3800,3800,22,119,231,68,-356,4096,12,0,810
576502,7035736,7745812,7139580,7893244,3800,3800,26,139,235,71,-358,4086,12,0,810
577504,7035724,7745804,7139777,7893441,3800,3800,30,150,237,69,-346,4092,17,2,810
578505,7035720,7745824,7139974,7893638,3800,3800,32,143,236,73,-346,4127,17,2,810
579506,7035736,7745836,7140171,7893835,3800,3800,35,118,235,67,-348,4095,17,6,811
580507,7035728,7745844,7140368,7894032,3800,3800,35,109,236,84,-361,4090,17,6,811
581508,7035728,7745840,7140565,7894229,3800,3800,37,107,236,90,-388,4087,17,1,811
582509,7035740,7745828,7140762,7894426,3800,3800,37,132,236,95,-403,4076,17,1,811
583510,7035740,7745816,7140959,7894623,3800,3800,36,138,235,84,-407,4071,0,7,811
584511,7035732,7745820,7141156,7894820,3800,3800,39,146,233,100,-373,4104,0,7,811
585512,7035740,7745848,7141353,7895017,3800,3800,41,117,236,90,-367,4074,3,6,811
586513,7035748,7745844,7141550,7895214,3800,3800,41,103,238,70,-382,4082,3,6,811
587514,7035732,7745840,7141747,7895411,3800,3800,40,88,238,61,-368,4104,16,-1,810
588515,7035748,7745816,7141944,7895608,3800,3800,41,108,238,68,-376,4098,16,-1,810
589516,7035748,7745808,7142141,7895805,3800,3800,39,120,237,61,-356,4093,2,5,811
590516,7035732,7745816,7142338,7896002,3800,3800,40,134,236,72,-366,4097,2,5,811
591527,7035740,7745832,7142568,7896232,3800,3800,40,117,238,96,-365,4086,17,7,811
592519,7035756,7745840,7142765,7896429,3800,3800,40,100,240,94,-369,4045,17,7,811
593520,7035748,7745848,7142962,7896626,3800,3800,38,93,239,126,-368,4084,6,4,811
594521,7035748,7745808,7143159,7896823,3800,3800,37,104,238,117,-368,4076,6,4,811
595522,7035756,7745796,7143356,7897020,3800,3800,36,122,236,91,-359,4085,-1,4,811
596522,7035760,7745824,7143553,7897217,3800,3800,36,131,239,79,-359,4095,-1,4,811
597524,7035744,7745824,7143750,7897414,3800,3800,34,129,241,87,-352,4100,4,4,810
598524,7035760,7745836,7143947,7897611,3800,3800,32,104,240,95,-364,4082,4,4,810
599526,7035764,7745828,7144144,7897808,3800,3800,31,96,238,96,-392,4076,1,1,810
600527,7035748,7745828,7144341,7898005,3800,3800,31,94,236,87,-385,4055,1,1,810
601528,7035760,7745808,7144538,7898202,3800,3800,31,123,241,77,-368,4056,15,8,811
602529,7035768,7745820,7144735,7898399,3800,3800,30,134,243,89,-376,4042,15,8,811
603530,7035760,7745828,7144932,7898596,3800,3800,28,140,241,97,-376,4054,3,6,811
604531,7035752,7745840,7145129,7898793,3800,3800,25,117,238,88,-373,4085,3,6,811
605532,7035764,7745852,7145326,7898990,3800,3800,23,110,238,90,-348,4071,8,7,811
606532,7035768,7745828,7145523,7899187,3800,3800,24,96,237,85,-356,4058,8,7,811
607534,7035748,7745800,7145720,7899384,3800,3800,22,122,235,94,-362,4044,17,0,811
608534,7035772,7745824,7145917,7899581,3800,3800,20,136,238,118,-350,4033,17,0,811
609536,7035776,7745828,7146114,7899778,3800,3800,18,152,238,134,-384,4043,7,10,810
610537,7035752,7745836,7146311,7899975,3800,3800,16,138,235,110,-352,4057,7,10,810
611538,7035772,7745844,7146508,7900172,3800,3800,14,123,232,71,-339,4050,8,6,811
612539,7035772,7745836,7146705,7900369,3800,3800,13,114,232,96,-354,4057,8,6,811
613540,7035768,7745816,7146902,7900566,3800,3800,10,125,232,82,-357,4047,0,11,811
614541,7035772,7745820,7147099,7900763,3800,3800,7,149,232,79,-359,4090,0,11,811
615542,7035784,7745832,7147296,7900960,3800,3800,5,159,231,87,-366,4089,17,4,811
616543,7035784,7745844,7147493,7901157,3800,3800,3,155,230,91,-339,4073,17,4,811
617544,7035764,7745848,7147690,7901354,3800,3800,2,129,229,74,-326,4061,17,0,811
618545,7035780,7745836,7147887,7901551,3800,3800,-2,120,228,96,-336,4084,17,0,811
619546,7035780,7745816,7148084,7901748,3800,3800,-4,116,231,112,-361,4057,18,-1,810
620547,7035780,7745828,7148281,7901945,3800,3800,-5,142,234,98,-355,4019,18,-1,810
621548,7035772,7745832,7148478,7902142,3800,3800,-8,151,235,76,-362,4036,17,8,810
622549,7035780,7745836,7148675,7902339,3800,3800,-12,161,232,70,-371,4051,17,8,810
623550,7035788,7745832,7148872,7902536,3800,3800,-13,135,230,80,-367,4034,18,6,811
624551,7035784,7745836,7149069,7902733,3800,3800,-13,127,231,90,-365,4052,18,6,811
625552,7035788,7745804,7149266,7902930,3800,3800,-14,115,233,78,-370,4059,15,4,811
626553,7035792,7745816,7149463,7903127,3800,3800,-17,135,235,71,-370,4062,15,4,811
627554,7035772,7745828,7149660,7903324,3800,3800,-21,150,232,69,-371,4059,3,5,811
628555,7035784,7745832,7149857,7903521,3800,3800,-22,163,229,79,-374,4042,3,5,811
629556,7035800,7745848,7150054,7903718,3800,3800,-22,148,230,82,-368,4079,15,1,811
630557,7035780,7745832,7150251,7903915,3800,3800,-22,132,232,101,-351,4067,15,1,811
631558,7035788,7745796,7150448,7904112,3800,3800,-24,121,235,82,-354,4085,-1,2,810
632559,7035808,7745816,7150645,7904309,3800,3800,-26,131,235,82,-383,4055,-1,2,810
633560,7035796,7745828,7150842,7904506,3800,3800,-25,152,233,88,-371,4068,17,8,811
634561,7035788,7745848,7151039,7904703,3800,3800,-27,163,233,85,-367,4092,17,8,811
635562,7035800,7745844,7151236,7904900,3800,3800,-28,159,232,95,-367,4072,17,2,811
636563,7035800,7745832,7151433,7905097,3800,3800,-28,133,231,92,-389,4065,17,2,811
637564,7035788,7745820,7151630,7905294,3800,3800,-26,122,232,82,-381,4084,13,11,811
638565,7035800,7745820,7151827,7905491,3800,3800,-27,118,233,80,-372,4094,13,11,811
639566,7035808,7745816,7152024,7905688,3800,3800,-29,144,232,98,-359,4084,11,7,811
640567,7035796,7745836,7152221,7905885,3800,3800,-29,150,235,102,-351,4108,11,7,811
641568,7035792,7745856,7152418,7906082,3800,3800,-28,158,233,77,-357,4116,18,-1,810
642569,7035804,7745828,7152615,7906279,3800,3800,-30,134,231,79,-340,4114,18,-1,810
643570,7035796,7745804,7152812,7906476,3800,3800,-31,125,232,91,-353,4076,0,4,810
644571,7035792,7745812,7153009,7906673,3800,3800,-30,114,232,103,-371,4070,0,4,810
645572,7035812,7745832,7153206,7906870,3800,3800,-30,137,233,96,-363,4080,11,7,811
646573,7035808,7745832,7153403,7907067,3800,3800,-31,153,231,100,-351,4060,11,7,811
647574,7035792,7745848,7153600,7907264,3800,3800,-28,164,229,76,-343,4086,3,3,811
648575,7035808,7745828,7153797,7907461,3800,3800,-27,149,231,86,-347,4076,3,3,811
649576,7035816,7745808,7153994,7907658,3800,3800,-26,133,231,84,-338,4088,15,9,811
650577,7035804,7745804,7154191,7907855,3800,3800,-27,125,231,100,-362,4073,15,9,811
651578,7035800,7745816,7154388,7908052,3800,3800,-26,134,230,114,-362,4108,11,11,811
652579,7035808,7745844,7154585,7908249,3800,3800,-27,154,228,109,-360,4139,11,11,811
653580,7035800,7745848,7154782,7908446,3800,3800,-25,162,230,101,-357,4098,6,0,810
654581,7035800,7745828,7154979,7908643,3800,3800,-25,161,231,95,-366,4065,6,0,810
655582,7035808,7745804,7155176,7908840,3800,3800,-24,136,227,80,-357,4104,16,2,811
656583,7035808,7745808,7155373,7909037,3800,3800,-21,125,229,86,-347,4126,16,2,811
657584,7035800,7745832,7155570,7909234,3800,3800,-20,120,234,98,-354,4098,9,6,811
658585,7035812,7745824,7155767,7909431,3800,3800,-21,145,233,98,-363,4112,9,6,811
659586,7035816,7745852,7155964,7909628,3800,3800,-18,152,232,83,-362,4100,17,8,811
660587,7035800,7745836,7156161,7909825,3800,3800,-16,163,232,88,-370,4095,17,8,811
661588,7035800,7745804,7156358,7910022,3800,3800,-17,134,228,65,-384,4124,16,8,811
662588,7035820,7745800,7156555,7910219,3800,3800,-16,125,229,74,-369,4153,16,8,811
663590,7035812,7745808,7156752,7910416,3800,3800,-13,114,232,85,-351,4150,18,8,810
664591,7035812,7745824,7156949,7910613,3800,3800,-12,136,233,79,-352,4139,18,8,810
665592,7035824,7745840,7157146,7910810,3800,3800,-11,147,238,90,-364,4135,4,1,809
666593,7035808,7745828,7157343,7911007,3800,3800,-7,158,239,57,-369,4087,4,1,809
667594,7035808,7745824,7157540,7911204,3800,3800,-6,139,239,54,-364,4057,3,7,811
668595,7035808,7745804,7157737,7911401,3800,3800,-4,122,237,63,-356,4088,3,7,811
669596,7035824,7745816,7157934,7911598,3800,3800,-2,110,236,94,-361,4103,1,12,810
670596,7035812,7745828,7158131,7911795,3800,3800,-1,119,239,70,-372,4119,1,12,810
671598,7035800,7745856,7158328,7911992,3800,3800,1,141,241,99,-362,4112,17,4,811
672599,7035828,7745840,7158525,7912189,3800,3800,2,147,239,89,-373,4107,17,4,811
673600,7035812,7745812,7158722,7912386,3800,3800,1,144,239,81,-366,4043,-3,5,811
674607,7035800,7745808,7158952,7912616,3800,3800,5,116,238,74,-359,4074,-3,5,811
675602,7035828,7745824,7159149,7912813,3800,3800,7,110,238,75,-366,4104,18,2,809
676603,7035824,7745824,7159346,7913010,3800,3800,9,107,239,73,-384,4116,18,2,809
677604,7035816,7745852,7159543,7913207,3800,3800,11,130,239,81,-377,4130,9,1,811
678605,7035824,7745844,7159740,7913404,3800,3800,15,138,240,78,-350,4116,9,1,811
679606,7035820,7745828,7159937,7913601,3800,3800,17,145,240,82,-372,4089,7,6,811
680607,7035828,7745808,7160134,7913798,3800,3800,17,117,240,56,-368,4103,7,6,811
681608,7035828,7745824,7160331,7913995,3800,3800,19,108,242,64,-357,4085,13,5,811
682609,7035820,7745832,7160528,7914192,3800,3800,22,97,241,52,-369,4091,13,5,811
683610,7035828,7745844,7160725,7914389,3800,3800,24,121,240,63,-381,4127,3,4,811
684611,7035816,7745844,7160922,7914586,3800,3800,24,138,239,110,-371,4127,3,4,811
685612,7035820,7745828,7161119,7914783,3800,3800,24,148,240,109,-371,4079,17,3,810
686613,7035836,7745816,7161316,7914980,3800,3800,25,131,240,100,-374,4100,17,3,810
687614,7035812,7745816,7161513,7915177,3800,3800,25,113,240,82,-351,4086,9,4,809
688615,7035832,7745824,7161710,7915374,3800,3800,27,98,239,83,-372,4048,9,4,809
689616,7035836,7745840,7161907,7915571,3800,3800,26,105,241,92,-381,4096,18,2,811
690616,7035820,7745852,7162104,7915768,3800,3800,25,127,242,84,-385,4132,18,2,811
691618,7035820,7745832,7162301,7915965,3800,3800,27,139,239,69,-371,4118,2,3,811
692619,7035832,7745804,7162498,7916162,3800,3800,29,136,236,80,-367,4115,2,3,811
693620,7035828,7745816,7162695,7916359,3800,3800,31,110,240,70,-411,4100,18,4,811
694621,7035820,7745836,7162892,7916556,3800,3800,32,103,239,79,-378,4081,18,4,811
695622,7035844,7745856,7163089,7916753,3800,3800,32,99,240,102,-363,4054,3,6,811
696623,7035828,7745860,7163286,7916950,3800,3800,30,125,239,92,-357,4066,3,6,811
697624,7035820,7745832,7163483,7917147,3800,3800,29,136,236,75,-341,4108,18,2,809
698625,7035832,7745804,7163680,7917344,3800,3800,31,145,237,75,-366,4092,18,2,809
699626,7035836,7745820,7163877,7917541,3800,3800,32,119,240,97,-351,4113,14,13,811
700627,7035824,7745816,7164074,7917738,3800,3800,30,111,241,88,-385,4091,14,13,811
701628,7035828,7745844,7164271,7917935,3800,3800,29,102,240,95,-359,4067,12,2,811
702629,7035836,7745848,7164468,7918132,3800,3800,30,123,238,86,-374,4047,12,2,811
703630,7035828,7745832,7164665,7918329,3800,3800,31,136,241,88,-372,4068,16,3,811
704631,7035824,7745824,7164862,7918526,3800,3800,30,147,240,81,-351,4077,16,3,811
705632,7035840,7745820,7165059,7918723,3800,3800,27,130,239,97,-370,4095,16,7,811
706632,7035836,7745836,7165256,7918920,3800,3800,24,115,239,90,-367,4093,16,7,811
707633,7035828,7745852,7165453,7919117,3800,3800,24,105,239,67,-359,4076,3,1,810
708635,7035840,7745852,7165650,7919314,3800,3800,24,110,239,97,-362,4083,3,1,810
709636,7035832,7745832,7165847,7919511,3800,3800,22,132,239,84,-366,4057,0,5,809
710637,7035832,7745816,7166044,7919708,3800,3800,22,141,240,92,-363,4015,0,5,809
711638,7035832,7745828,7166241,7919905,3800,3800,17,139,241,93,-372,4052,11,3,811
712639,7035844,7745832,7166438,7920102,3800,3800,17,111,237,94,-376,4065,11,3,811
713640,7035824,7745852,7166635,7920299,3800,3800,16,105,237,106,-349,4061,0,1,811
714641,7035832,7745856,7166832,7920496,3800,3800,15,99,240,101,-353,4052,0,1,811
715642,7035832,7745836,7167029,7920693,3800,3800,13,129,238,79,-372,4058,-1,9,811
716643,7035840,7745812,7167226,7920890,3800,3800,10,140,238,90,-383,4074,-1,9,811
717643,7035820,7745812,7167423,7921087,3800,3800,7,153,238,87,-357,4035,17,6,811
718644,7035836,7745828,7167620,7921284,3800,3800,7,127,238,86,-350,4043,17,6,811
719646,7035836,7745844,7167817,7921481,3800,3800,6,118,237,116,-369,4066,10,0,809
720647,7035840,7745856,7168014,7921678,3800,3800,3,108,237,92,-375,4056,10,0,809
721648,7035828,7745844,7168211,7921875,3800,3800,0,129,237,85,-394,4048,2,5,810
722649,7035836,7745812,7168408,7922072,3800,3800,0,139,233,87,-389,4054,2,5,810
723650,7035840,7745824,7168605,7922269,3800,3800,-1,153,234,97,-371,4053,7,9,811
724651,7035832,7745832,7168802,7922466,3800,3800,-4,140,236,74,-398,4093,7,9,811
725652,7035848,7745844,7168999,7922663,3800,3800,-5,123,235,68,-374,4070,5,4,811
726653,7035848,7745844,7169196,7922860,3800,3800,-7,117,235,85,-378,4070,5,4,811
727654,7035828,7745840,7169393,7923057,3800,3800,-9,125,234,86,-363,4048,15,3,811
728655,7035836,7745816,7169590,7923254,3800,3800,-9,146,234,100,-376,4048,15,3,811
729655,7035844,7745824,7169787,7923451,3800,3800,-11,156,233,105,-399,4067,6,4,809
730657,7035828,7745824,7169984,7923648,3800,3800,-14,157,234,91,-384,4061,6,4,809
731657,7035836,7745852,7170181,7923845,3800,3800,-14,134,234,69,-379,4084,17,1,810
732659,7035828,7745856,7170378,7924042,3800,3800,-14,124,233,67,-388,4045,17,1,810
733659,7035848,7745852,7170575,7924239,3800,3800,-15,118,235,61,-369,4047,-2,8,811
734660,7035828,7745812,7170772,7924436,3800,3800,-18,146,237,78,-364,4052,-2,8,811
735662,7035844,7745808,7170969,7924633,3800,3800,-19,155,235,90,-374,4033,17,3,811
736663,7035852,7745828,7171166,7924830,3800,3800,-19,164,231,95,-371,4052,17,3,811
737664,7035832,7745852,7171363,7925027,3800,3800,-22,141,232,92,-356,4066,12,1,810
738665,7035844,7745856,7171560,7925224,3800,3800,-26,129,233,78,-352,4076,12,1,810
739665,7035844,7745828,7171757,7925421,3800,3800,-26,118,234,92,-372,4097,-2,7,810
740667,7035840,7745812,7171954,7925618,3800,3800,-25,136,230,70,-370,4079,-2,7,810
741668,7035836,7745820,7172151,7925815,3800,3800,-25,150,230,97,-382,4059,9,5,810
742669,7035844,7745820,7172348,7926012,3800,3800,-25,162,233,74,-391,4042,9,5,810
743670,7035844,7745836,7172545,7926209,3800,3800,-26,146,233,73,-404,4053,7,1,811
744671,7035836,7745836,7172742,7926406,3800,3800,-26,125,233,108,-376,4061,7,1,811
745672,7035856,7745828,7172939,7926603,3800,3800,-25,117,234,100,-354,4088,14,2,811
746673,7035844,7745824,7173136,7926800,3800,3800,-23,126,234,88,-360,4082,14,2,811
747674,7035844,7745828,7173333,7926997,3800,3800,-22,151,232,75,-363,4054,16,7,811
748675,7035852,7745832,7173530,7927194,3800,3800,-22,162,231,97,-357,4081,16,7,811
749676,7035840,7745828,7173727,7927391,3800,3800,-22,165,233,100,-379,4104,6,3,811
750677,7035832,7745844,7173924,7927588,3800,3800,-21,138,235,98,-365,4098,6,3,811
751678,7035836,7745844,7174121,7927785,3800,3800,-20,127,235,97,-349,4099,16,4,810
752679,7035848,7745808,7174318,7927982,3800,3800,-21,122,235,91,-348,4094,16,4,810
753680,7035860,7745816,7174515,7928179,3800,3800,-20,148,234,70,-352,4079,18,6,809
754680,7035844,7745836,7174712,7928376,3800,3800,-19,154,236,78,-351,4091,18,6,809
755682,7035860,7745856,7174909,7928573,3800,3800,-20,157,236,56,-358,4052,16,5,811
756682,7035864,7745840,7175106,7928770,3800,3800,-22,134,236,76,-384,4076,16,5,811
757691,7035844,7745844,7175336,7929000,3800,3800,-22,121,234,84,-370,4097,11,7,810
758685,7035848,7745820,7175533,7929197,3800,3800,-18,108,233,85,-370,4097,11,7,810
759686,7035840,7745824,7175730,7929394,3800,3800,-20,128,231,71,-383,4091,5,8,810
760687,7035840,7745820,7175927,7929591,3800,3800,-20,141,232,88,-373,4084,5,8,810
761688,7035832,7745832,7176124,7929788,3800,3800,-19,151,235,83,-377,4093,4,2,810
762689,7035856,7745868,7176321,7929985,3800,3800,-19,138,236,69,-393,4095,4,2,810
763690,7035856,7745844,7176518,7930182,3800,3800,-19,119,236,96,-374,4104,0,0,809
764691,7035852,7745824,7176715,7930379,3800,3800,-15,108,237,76,-363,4110,0,0,809
765692,7035856,7745816,7176912,7930576,3800,3800,-14,118,238,81,-382,4067,8,9,810
766693,7035856,7745820,7177109,7930773,3800,3800,-14,144,241,76,-394,4073,8,9,810
767694,7035844,7745836,7177306,7930970,3800,3800,-15,151,240,82,-378,4108,2,7,810
768695,7035856,7745848,7177503,7931167,3800,3800,-13,152,238,97,-381,4122,2,7,810
769696,7035856,7745840,7177700,7931364,3800,3800,-9,128,240,83,-363,4127,15,3,811
770697,7035848,7745828,7177897,7931561,3800,3800,-6,119,240,91,-362,4052,15,3,811
771698,7035852,7745812,7178094,7931758,3800,3800,-7,111,240,87,-383,4103,18,5,810
772698,7035868,7745820,7178291,7931955,3800,3800,-7,137,237,91,-386,4116,18,5,810
773700,7035860,7745828,7178488,7932152,3800,3800,-6,145,239,100,-372,4120,17,-1,810
774701,7035844,7745848,7178685,7932349,3800,3800,-5,153,239,73,-379,4141,17,-1,810
775702,7035860,7745844,7178882,7932546,3800,3800,-4,132,238,108,-350,4140,-3,4,809
776703,7035860,7745828,7179079,7932743,3800,3800,-4,120,238,100,-374,4115,-3,4,809
777704,7035852,7745808,7179276,7932940,3800,3800,-1,103,237,100,-370,4117,17,8,810
778705,7035848,7745824,7179473,7933137,3800,3800,1,122,239,86,-364,4103,17,8,810
779706,7035856,7745844,7179670,7933334,3800,3800,2,137,240,78,-361,4091,15,0,810
780707,7035848,7745856,7179867,7933531,3800,3800,3,150,244,103,-345,4106,15,0,810
781708,7035836,7745852,7180064,7933728,3800,3800,5,139,242,116,-358,4105,16,4,810
782709,7035856,7745824,7180261,7933925,3800,3800,7,119,240,90,-358,4100,16,4,810
783710,7035856,7745808,7180458,7934122,3800,3800,8,111,237,66,-367,4108,2,3,810
784711,7035848,7745816,7180655,7934319,3800,3800,9,114,238,78,-358,4153,2,3,810
785712,7035856,7745832,7180852,7934516,3800,3800,9,138,237,95,-364,4111,11,-1,809
786713,7035860,7745840,7181049,7934713,3800,3800,7,148,236,76,-361,4080,11,-1,809
787714,7035844,7745844,7181246,7934910,3800,3800,10,149,238,88,-356,4109,9,3,810
788715,7035852,7745832,7181443,7935107,3800,3800,13,123,240,102,-342,4090,9,3,810
789716,7035852,7745808,7181640,7935304,3800,3800,14,115,239,82,-348,4089,18,6,810
790717,7035860,7745832,7181837,7935501,3800,3800,13,107,239,63,-350,4107,18,6,810
791718,7035840,7745856,7182034,7935698,3800,3800,13,130,238,71,-371,4078,2,2,810
792719,7035860,7745856,7182231,7935895,3800,3800,14,139,236,94,-373,4064,2,2,810
793720,7035856,7745864,7182428,7936092,3800,3800,15,149,235,105,-368,4084,15,5,810
794721,7035840,7745840,7182625,7936289,3800,3800,18,123,238,97,-366,4107,15,5,810
795721,7035856,7745816,7182822,7936486,3800,3800,20,111,238,79,-378,4075,17,5,809
796722,7035864,7745828,7183019,7936683,3800,3800,22,101,239,84,-378,4082,17,5,809
797723,7035856,7745844,7183216,7936880,3800,3800,22,120,240,80,-375,4117,18,-1,809
798724,7035860,7745844,7183413,7937077,3800,3800,24,134,241,72,-357,4125,18,-1,809
799726,7035864,7745856,7183610,7937274,3800,3800,25,144,240,91,-383,4122,1,7,810
800727,7035856,7745828,7183807,7937471,3800,3800,26,135,238,76,-390,4088,1,7,810
801727,7035848,7745808,7184004,7937668,3800,3800,25,120,239,87,-372,4085,5,13,810
802728,7035860,7745840,7184201,7937865,3800,3800,26,110,240,85,-367,4076,5,13,810
803730,7035856,7745836,7184398,7938062,3800,3800,26,116,238,97,-381,4053,8,2,810
804730,7035852,7745856,7184595,7938259,3800,3800,25,140,239,89,-356,4089,8,2,810
805731,7035860,7745856,7184792,7938456,3800,3800,23,146,241,71,-376,4100,-2,2,810
806733,7035872,7745840,7184989,7938653,3800,3800,22,148,239,102,-383,4087,-2,2,810
807734,7035840,7745820,7185186,7938850,3800,3800,23,120,242,91,-381,4080,18,5,809
808735,7035868,7745832,7185383,7939047,3800,3800,25,110,241,98,-353,4071,18,5,809
809736,7035872,7745832,7185580,7939244,3800,3800,24,100,238,80,-363,4079,18,2,810
810737,7035864,7745832,7185777,7939441,3800,3800,24,125,240,93,-357,4085,18,2,810
811738,7035852,7745852,7185974,7939638,3800,3800,23,132,241,87,-378,4087,17,7,810
812739,7035856,7745856,7186171,7939835,3800,3800,23,145,239,71,-380,4075,17,7,810
813740,7035856,7745816,7186368,7940032,3800,3800,22,123,239,99,-383,4081,18,6,810
814741,7035852,7745824,7186565,7940229,3800,3800,20,113,240,100,-350,4039,18,6,810
815742,7035868,7745844,7186762,7940426,3800,3800,19,102,241,104,-365,4068,10,2,810
816743,7035856,7745848,7186959,7940623,3800,3800,20,119,239,91,-370,4085,10,2,810
817744,7035844,7745856,7187156,7940820,3800,3800,18,136,240,83,-377,4082,1,5,809
818744,7035856,7745844,7187353,7941017,3800,3800,18,148,241,94,-366,4118,1,5,809
819746,7035864,7745820,7187550,7941214,3800,3800,16,137,241,89,-377,4118,18,10,809
820746,7035868,7745828,7187747,7941411,3800,3800,14,118,239,68,-379,4068,18,10,809
821747,7035844,7745832,7187944,7941608,3800,3800,11,107,238,61,-377,4044,18,11,810
822749,7035868,7745856,7188141,7941805,3800,3800,11,113,238,83,-371,4037,18,11,810
823750,7035864,7745856,7188338,7942002,3800,3800,10,138,239,85,-383,4074,16,5,810
824751,7035844,7745844,7188535,7942199,3800,3800,8,146,240,108,-373,4074,16,5,810
825752,7035856,7745804,7188732,7942396,3800,3800,5,147,240,108,-348,4047,12,10,810
826753,7035868,7745828,7188929,7942593,3800,3800,5,123,240,85,-366,4063,12,10,810
827754,7035848,7745828,7189126,7942790,3800,3800,3,114,240,72,-381,4035,1,1,810
828755,7035864,7745852,7189323,7942987,3800,3800,-2,106,241,68,-384,4040,1,1,810
829755,7035864,7745848,7189520,7943184,3800,3800,-3,131,239,72,-358,4081,8,1,809
830757,7035856,7745836,7189717,7943381,3800,3800,-2,138,239,74,-388,4074,8,1,809
831758,7035848,7745824,7189914,7943578,3800,3800,-3,150,241,80,-359,4068,11,6,810
832759,7035868,7745816,7190111,7943775,3800,3800,-6,128,241,88,-367,4075,11,6,810
833760,7035864,7745832,7190308,7943972,3800,3800,-9,116,238,79,-367,4090,3,4,810
834761,7035848,7745844,7190505,7944169,3800,3800,-12,107,240,84,-362,4053,3,4,810
835762,7035856,7745852,7190702,7944366,3800,3800,-11,127,243,63,-369,4038,-1,4,810
836763,7035864,7745860,7190899,7944563,3800,3800,-12,144,242,95,-373,4072,-1,4,810
837764,7035848,7745812,7191096,7944760,3800,3800,-13,156,240,100,-366,4069,16,7,810
838765,7035852,7745816,7191293,7944957,3800,3800,-13,146,238,76,-358,4080,16,7,810
839766,7035876,7745828,7191490,7945154,3800,3800,-15,126,237,87,-363,4075,1,0,809
840773,7035864,7745840,7191720,7945384,3800,3800,-18,117,237,74,-356,4072,1,0,809
841768,7035852,7745856,7191917,7945581,3800,3800,-20,122,238,74,-362,4069,1,3,809
842768,7035856,7745836,7192114,7945778,3800,3800,-19,145,240,68,-358,4080,1,3,809
843770,7035852,7745812,7192311,7945975,3800,3800,-19,152,239,91,-376,4065,9,10,810
844771,7035852,7745820,7192508,7946172,3800,3800,-18,157,240,104,-380,4059,9,10,810
845771,7035860,7745840,7192705,7946369,3800,3800,-19,131,240,103,-384,4050,17,6,810
846772,7035860,7745844,7192902,7946566,3800,3800,-20,124,240,80,-392,4049,17,6,810
847774,7035852,7745864,7193099,7946763,3800,3800,-19,118,241,99,-377,4066,-1,2,810
848775,7035856,7745840,7193296,7946960,3800,3800,-19,142,239,78,-360,4069,-1,2,810
849776,7035872,7745820,7193493,7947157,3800,3800,-19,150,237,88,-357,4072,2,9,810
850776,7035856,7745816,7193690,7947354,3800,3800,-19,162,237,93,-341,4055,2,9,810
851778,7035852,7745840,7193887,7947551,3800,3800,-18,140,236,89,-371,4096,8,2,809
852778,7035868,7745840,7194084,7947748,3800,3800,-15,130,237,94,-393,4088,8,2,809
853779,7035852,7745848,7194281,7947945,3800,3800,-16,119,237,86,-359,4059,3,5,810
854780,7035844,7745840,7194478,7948142,3800,3800,-16,136,236,71,-345,4071,3,5,810
855782,7035864,7745824,7194675,7948339,3800,3800,-17,150,236,73,-363,4084,16,9,810
856783,7035856,7745828,7194872,7948536,3800,3800,-17,159,239,85,-361,4093,16,9,810
857784,7035852,7745828,7195069,7948733,3800,3800,-15,147,237,88,-365,4046,2,1,810
858785,7035856,7745840,7195266,7948930,3800,3800,-14,130,236,85,-349,4080,2,1,810
859786,7035860,7745860,7195463,7949127,3800,3800,-14,121,236,73,-348,4051,4,10,810
860787,7035860,7745856,7195660,7949324,3800,3800,-12,123,235,106,-359,4069,4,10,810
861787,7035848,7745832,7195857,7949521,3800,3800,-11,145,235,80,-363,4084,14,4,809
862788,7035860,7745808,7196054,7949718,3800,3800,-9,151,234,70,-378,4072,14,4,809
863790,7035864,7745828,7196251,7949915,3800,3800,-10,153,235,95,-360,4108,18,1,809
864790,7035836,7745836,7196448,7950112,3800,3800,-9,125,235,88,-328,4105,18,1,809
865792,7035856,7745876,7196645,7950309,3800,3800,-10,115,235,77,-347,4095,13,5,810
866792,7035860,7745848,7196842,7950506,3800,3800,-10,107,233,101,-382,4075,13,5,810
867794,7035848,7745820,7197039,7950703,3800,3800,-11,132,237,111,-373,4107,5,3,810
868794,7035864,7745816,7197236,7950900,3800,3800,-10,140,239,85,-368,4113,5,3,810
869795,7035868,7745828,7197433,7951097,3800,3800,-9,152,238,73,-367,4100,17,4,810
870796,7035856,7745828,7197630,7951294,3800,3800,-9,132,237,76,-373,4092,17,4,810
871798,7035844,7745868,7197827,7951491,3800,3800,-9,122,237,61,-362,4110,5,1,810
872799,7035868,7745864,7198024,7951688,3800,3800,-7,110,238,68,-333,4105,5,1,810
873800,7035856,7745836,7198221,7951885,3800,3800,-7,125,238,91,-358,4098,12,5,809
874801,7035852,7745824,7198418,7952082,3800,3800,-5,143,240,87,-373,4084,12,5,809
875802,7035856,7745816,7198615,7952279,3800,3800,-5,154,240,83,-384,4083,17,2,810
876803,7035868,7745836,7198812,7952476,3800,3800,-6,143,239,74,-398,4086,17,2,810
877804,7035856,7745852,7199009,7952673,3800,3800,-5,122,240,90,-373,4091,0,4,810
878805,7035852,7745856,7199206,7952870,3800,3800,-5,112,240,85,-386,4135,0,4,810
879806,7035856,7745836,7199403,7953067,3800,3800,-6,114,239,82,-383,4117,18,12,810
880807,7035860,7745816,7199600,7953264,3800,3800,-8,138,239,88,-390,4104,18,12,810
881808,7035844,7745828,7199797,7953461,3800,3800,-6,147,240,97,-376,4097,12,4,810
882809,7035860,7745848,7199994,7953658,3800,3800,-4,152,242,101,-377,4100,12,4,810
883810,7035856,7745860,7200191,7953855,3800,3800,-3,124,241,99,-359,4106,0,2,809
884811,7035844,7745860,7200388,7954052,3800,3800,-2,115,241,85,-360,4067,0,2,809
885812,7035872,7745840,7200585,7954249,3800,3800,-3,109,240,78,-363,4076,8,4,808
886813,7035864,7745820,7200782,7954446,3800,3800,-2,138,241,80,-363,4067,8,4,808
887814,7035856,7745824,7200979,7954643,3800,3800,-3,146,239,92,-370,4076,3,0,810
888815,7035860,7745852,7201176,7954840,3800,3800,-1,158,238,86,-381,4114,3,0,810
889816,7035876,7745856,7201373,7955037,3800,3800,-1,136,238,64,-372,4106,1,7,810
890817,7035856,7745868,7201570,7955234,3800,3800,-4,122,238,79,-380,4093,1,7,810
891818,7035856,7745844,7201767,7955431,3800,3800,-3,109,238,82,-377,4090,17,7,810
892819,7035860,7745828,7201964,7955628,3800,3800,1,125,238,65,-364,4068,17,7,810
893820,7035876,7745816,7202161,7955825,3800,3800,3,141,238,102,-361,4104,18,-1,810
894821,7035852,7745844,7202358,7956022,3800,3800,4,152,236,102,-374,4099,18,-1,810
895822,7035856,7745856,7202555,7956219,3800,3800,3,140,235,66,-383,4095,-1,7,809
896823,7035872,7745860,7202752,7956416,3800,3800,4,117,236,66,-371,4114,-1,7,809
897824,7035856,7745840,7202949,7956613,3800,3800,7,109,240,53,-364,4075,13,8,810
898825,7035864,7745828,7203146,7956810,3800,3800,8,111,241,88,-372,4090,13,8,810
899826,7035868,7745820,7203343,7957007,3800,3800,8,136,239,89,-385,4111,18,1,810
900827,7035864,7745840,7203540,7957204,3800,3800,8,145,237,89,-369,4087,18,1,810
901828,7035856,7745848,7203737,7957401,3800,3800,10,151,239,87,-370,4131,12,4,810
902829,7035860,7745864,7203934,7957598,3800,3800,12,123,240,86,-362,4120,12,4,810
903830,7035868,7745848,7204131,7957795,3800,3800,15,115,241,84,-390,4076,10,5,810
904831,7035852,7745812,7204328,7957992,3800,3800,17,107,239,68,-376,4064,10,5,810
905832,7035856,7745836,7204525,7958189,3800,3800,15,133,240,92,-369,4070,9,-1,809
906833,7035856,7745840,7204722,7958386,3800,3800,16,144,240,106,-349,4075,9,-1,809
907834,7035852,7745848,7204919,7958583,3800,3800,16,152,242,105,-354,4098,4,0,809
908835,7035856,7745860,7205116,7958780,3800,3800,16,127,241,71,-346,4110,4,0,809
909836,7035868,7745852,7205313,7958977,3800,3800,19,116,242,76,-372,4071,11,7,810
910837,7035856,7745816,7205510,7959174,3800,3800,20,105,242,89,-373,4068,11,7,810
911838,7035852,7745828,7205707,7959371,3800,3800,19,120,241,89,-373,4083,18,6,810
912839,7035864,7745836,7205904,7959568,3800,3800,19,134,241,98,-354,4059,18,6,810
913840,7035872,7745852,7206101,7959765,3800,3800,20,141,238,98,-343,4060,17,10,810
914841,7035836,7745856,7206298,7959962,3800,3800,22,131,239,103,-352,4067,17,10,810
915842,7035856,7745848,7206495,7960159,3800,3800,23,111,242,101,-350,4087,18,3,810
916843,7035868,7745832,7206692,7960356,3800,3800,24,104,242,92,-355,4103,18,3,810
917844,7035860,7745828,7206889,7960553,3800,3800,24,105,242,61,-376,4091,18,0,809
918845,7035864,7745844,7207086,7960750,3800,3800,22,131,242,64,-362,4060,18,0,809
919846,7035856,7745844,7207283,7960947,3800,3800,22,139,242,82,-370,4054,0,7,810
920847,7035852,7745864,7207480,7961144,3800,3800,23,145,241,88,-369,4067,0,7,810
921848,7035852,7745852,7207677,7961341,3800,3800,22,117,240,77,-362,4054,17,6,810
922849,7035864,7745824,7207874,7961538,3800,3800,22,111,241,63,-361,4067,17,6,810
923859,7035860,7745828,7208104,7961768,3800,3800,20,103,241,78,-335,4073,1,1,810
924851,7035856,7745840,7208301,7961965,3800,3800,18,128,240,87,-347,4041,1,1,810
925852,7035856,7745852,7208498,7962162,3800,3800,18,134,240,99,-376,4070,-1,12,810
926853,7035860,7745860,7208695,7962359,3800,3800,15,143,241,95,-383,4096,-1,12,810
927854,7035864,7745856,7208892,7962556,3800,3800,15,121,240,67,-367,4085,17,4,809
928855,7035856,7745828,7209089,7962753,3800,3800,12,108,241,73,-374,4047,17,4,809
929856,7035864,7745824,7209286,7962950,3800,3800,11,98,240,68,-390,4060,3,0,809
930857,7035860,7745844,7209483,7963147,3800,3800,12,115,238,48,-379,4096,3,0,809
931858,7035856,7745844,7209680,7963344,3800,3800,12,134,239,59,-361,4101,15,13,810
932859,7035860,7745860,7209877,7963541,3800,3800,13,149,241,80,-361,4075,15,13,810
933860,7035864,7745860,7210074,7963738,3800,3800,11,142,243,75,-357,4060,13,12,810
934860,7035852,7745828,7210271,7963935,3800,3800,11,120,242,91,-364,4054,13,12,810
935862,7035864,7745820,7210468,7964132,3800,3800,11,110,244,105,-359,4040,10,5,810
936863,7035876,7745832,7210665,7964329,3800,3800,9,114,241,98,-374,4080,10,5,810
937864,7035852,7745840,7210862,7964526,3800,3800,6,143,240,80,-370,4096,11,10,810
938865,7035856,7745856,7211059,7964723,3800,3800,3,148,238,86,-345,4093,11,10,810
939866,7035868,7745856,7211256,7964920,3800,3800,3,150,240,83,-354,4061,19,2,809
940867,7035852,7745828,7211453,7965117,3800,3800,3,125,242,78,-361,4029,19,2,809
941868,7035860,7745820,7211650,7965314,3800,3800,3,118,241,82,-365,4043,3,7,809
942869,7035868,7745832,7211847,7965511,3800,3800,2,111,239,79,-382,4070,3,7,809
943870,7035868,7745836,7212044,7965708,3800,3800,-2,135,240,102,-377,4082,14,13,810
944871,7035856,7745856,7212241,7965905,3800,3800,-5,144,241,89,-372,4087,14,13,810
945872,7035860,7745856,7212438,7966102,3800,3800,-5,154,239,78,-374,4112,6,10,810
946873,7035856,7745832,7212635,7966299,3800,3800,-7,134,239,92,-364,4034,6,10,810
947874,7035860,7745824,7212832,7966496,3800,3800,-11,120,238,95,-359,4042,11,5,810
948875,7035856,7745828,7213029,7966693,3800,3800,-11,110,239,92,-345,4056,11,5,810
949876,7035856,7745840,7213226,7966890,3800,3800,-11,126,238,102,-348,4075,7,1,809
950877,7035848,7745868,7213423,7967087,3800,3800,-13,144,237,85,-376,4112,7,1,809
951878,7035852,7745844,7213620,7967284,3800,3800,-14,154,236,96,-371,4116,18,10,808
952879,7035876,7745840,7213817,7967481,3800,3800,-15,146,239,81,-371,4068,18,10,808
953880,7035868,7745828,7214014,7967678,3800,3800,-15,126,241,95,-365,4070,18,10,810
954881,7035852,7745844,7214211,7967875,3800,3800,-16,119,240,91,-371,4059,18,10,810
955882,7035868,7745836,7214408,7968072,3800,3800,-16,120,238,67,-340,4064,17,13,810
956883,7035856,7745852,7214605,7968269,3800,3800,-16,144,238,106,-339,4082,17,13,810
957884,7035856,7745860,7214802,7968466,3800,3800,-17,150,240,93,-362,4077,18,14,810
958885,7035852,7745832,7214999,7968663,3800,3800,-18,154,240,85,-371,4055,18,14,810
959886,7035864,7745824,7215196,7968860,3800,3800,-17,130,236,85,-374,4075,0,6,810
960887,7035868,7745832,7215393,7969057,3800,3800,-18,125,234,91,-385,4090,0,6,810
961888,7035860,7745840,7215590,7969254,3800,3800,-20,116,237,105,-380,4052,16,9,809
962889,7035864,7745848,7215787,7969451,3800,3800,-19,137,240,95,-369,4057,16,9,809
963890,7035860,7745848,7215984,7969648,3800,3800,-17,146,238,102,-381,4101,18,9,810
964891,7035848,7745836,7216181,7969845,3800,3800,-16,161,239,106,-380,4111,18,9,810
965892,7035860,7745820,7216378,7970042,3800,3800,-15,143,237,88,-381,4091,0,5,809
966893,7035876,7745824,7216575,7970239,3800,3800,-16,129,239,80,-361,4128,0,5,809
967894,7035848,7745848,7216772,7970436,3800,3800,-16,117,236,109,-371,4082,3,3,810
968895,7035852,7745868,7216969,7970633,3800,3800,-16,129,234,114,-367,4082,3,3,810
969896,7035856,7745856,7217166,7970830,3800,3800,-14,146,234,120,-377,4098,18,11,810
970897,7035856,7745832,7217363,7971027,3800,3800,-16,156,234,102,-367,4124,18,11,810
971898,7035848,7745804,7217560,7971224,3800,3800,-18,151,236,95,-351,4106,18,6,809
972899,7035860,7745820,7217757,7971421,3800,3800,-16,129,237,96,-344,4121,18,6,809
973900,7035864,7745832,7217954,7971618,3800,3800,-14,121,238,94,-352,4076,0,6,809
974901,7035848,7745852,7218151,7971815,3800,3800,-12,120,238,90,-384,4087,18,7,810
975902,7035852,7745868,7218348,7972012,3800,3800,-11,145,236,98,-359,4047,18,7,810
976903,7035868,7745836,7218545,7972209,3800,3800,-13,153,238,97,-358,4053,8,2,810
977904,7035852,7745824,7218742,7972406,3800,3800,-12,160,237,101,-356,4083,8,2,810
978905,7035848,7745824,7218939,7972603,3800,3800,-12,132,238,62,-347,4093,16,7,809
979906,7035860,7745840,7219136,7972800,3800,3800,-12,121,235,58,-370,4097,16,7,809
980907,7035856,7745860,7219333,7972997,3800,3800,-8,110,233,70,-384,4095,6,11,809
981908,7035840,7745860,7219530,7973194,3800,3800,-8,133,234,103,-382,4078,6,11,809
982909,7035864,7745848,7219727,7973391,3800,3800,-7,143,234,102,-381,4105,18,4,808
983910,7035868,7745832,7219924,7973588,3800,3800,-4,157,236,91,-381,4088,18,4,808
984911,7035860,7745824,7220121,7973785,3800,3800,-5,139,237,86,-371,4122,3,8,810
985912,7035860,7745848,7220318,7973982,3800,3800,-8,122,237,94,-354,4110,3,8,810
986913,7035864,7745852,7220515,7974179,3800,3800,-6,111,236,77,-371,4108,8,10,810
987914,7035848,7745868,7220712,7974376,3800,3800,-5,127,234,90,-372,4102,8,10,810
988915,7035856,7745848,7220909,7974573,3800,3800,-4,148,235,79,-336,4079,4,4,810
989916,7035864,7745840,7221106,7974770,3800,3800,-4,156,239,89,-381,4103,4,4,810
990917,7035872,7745828,7221303,7974967,3800,3800,-3,147,238,96,-362,4088,8,11,810
991918,7035852,7745836,7221500,7975164,3800,3800,-1,122,236,78,-372,4101,8,11,810
992919,7035860,7745836,7221697,7975361,3800,3800,-1,113,238,68,-394,4120,18,10,809
993920,7035868,7745868,7221894,7975558,3800,3800,-1,112,241,84,-385,4101,18,10,809
994921,7035856,7745860,7222091,7975755,3800,3800,0,140,241,97,-390,4108,7,1,809
995922,7035872,7745828,7222288,7975952,3800,3800,1,148,239,70,-370,4131,7,1,809
996923,7035860,7745828,7222485,7976149,3800,3800,1,155,238,100,-359,4104,17,11,810
997924,7035852,7745824,7222682,7976346,3800,3800,2,127,237,65,-377,4084,17,11,810
998925,7035876,7745856,7222879,7976543,3800,3800,5,116,238,73,-388,4085,11,7,810
999926,7035856,7745864,7223076,7976740,3800,3800,5,107,242,79,-377,4084,11,7,810
1000927,7035864,7745848,7223273,7976937,3800,3800,6,131,243,84,-370,4088,13,0,810
1001928,7035844,7745832,7223470,7977134,3800,3800,6,139,243,74,-365,4078,13,0,810
1002929,7035864,7745816,7223667,7977331,3800,3800,5,151,242,72,-361,4084,-1,6,810
1003930,7035864,7745848,7223864,7977528,3800,3800,6,131,240,58,-359,4101,-1,6,810
1004931,7035860,7745856,7224061,7977725,3800,3800,6,114,241,69,-350,4106,18,5,809
1005932,7035868,7745868,7224258,7977922,3800,3800,8,104,241,80,-365,4124,18,5,809
1006940,7035872,7745856,7224488,7978152,3800,3800,11,119,240,79,-362,4097,18,5,809
1007934,7035860,7745844,7224685,7978349,3800,3800,12,137,242,98,-371,4039,18,5,809
1008935,7035856,7745828,7224882,7978546,3800,3800,12,146,242,110,-358,4031,17,7,809
1009936,7035856,7745844,7225079,7978743,3800,3800,12,137,240,82,-366,4067,17,7,809
1010937,7035856,7745860,7225276,7978940,3800,3800,13,117,240,82,-355,4100,17,3,810
1011938,7035856,7745856,7225473,7979137,3800,3800,13,109,243,76,-363,4088,17,3,810
1012939,7035864,7745856,7225670,7979334,3800,3800,14,108,240,90,-372,4065,11,3,810
1013940,7035864,7745840,7225867,7979531,3800,3800,15,133,243,87,-351,4086,11,3,810
1014941,7035852,7745824,7226064,7979728,3800,3800,17,140,243,93,-360,4076,-1,1,808
1015942,7035872,7745832,7226261,7979925,3800,3800,19,146,240,102,-357,4085,-1,1,808
1016943,7035860,7745844,7226458,7980122,3800,3800,18,120,240,92,-342,4088,5,1,808
1017944,7035860,7745864,7226655,7980319,3800,3800,17,112,243,88,-375,4122,5,1,808
1018945,7035868,7745860,7226852,7980516,3800,3800,17,101,241,77,-382,4110,14,2,810
1019946,7035864,7745840,7227049,7980713,3800,3800,18,125,238,85,-365,4114,14,2,810
1020947,7035868,7745828,7227246,7980910,3800,3800,19,136,239,89,-369,4076,8,12,810
1021948,7035852,7745840,7227443,7981107,3800,3800,19,147,240,78,-383,4069,8,12,810
1022949,7035848,7745848,7227640,7981304,3800,3800,19,125,242,94,-378,4078,18,13,810
1023950,7035860,7745860,7227837,7981501,3800,3800,20,113,244,96,-364,4113,18,13,810
1024951,7035860,7745864,7228034,7981698,3800,3800,20,102,244,69,-375,4112,6,5,809
1025952,7035860,7745848,7228231,7981895,3800,3800,19,117,242,75,-376,4044,6,5,809
1026953,7035856,7745824,7228428,7982092,3800,3800,20,135,243,62,-354,4074,4,4,808
1027954,7035860,7745840,7228625,7982289,3800,3800,19,144,245,59,-376,4062,4,4,808
1028955,7035852,7745840,7228822,7982486,3800,3800,19,138,244,102,-368,4081,2,8,810
1029956,7035876,7745856,7229019,7982683,3800,3800,19,116,243,85,-366,4079,2,8,810
1030957,7035864,7745860,7229216,7982880,3800,3800,20,105,239,88,-378,4091,13,1,810
1031958,7035856,7745828,7229413,7983077,3800,3800,21,102,241,88,-384,4074,13,1,810
1032959,7035872,7745828,7229610,7983274,3800,3800,21,129,243,96,-364,4098,2,5,809
1033960,7035864,7745832,7229807,7983471,3800,3800,18,137,242,64,-374,4069,2,5,809
1034961,7035856,7745844,7230004,7983668,3800,3800,16,142,240,95,-362,4087,12,9,810
1035962,7035860,7745856,7230201,7983865,3800,3800,16,115,240,106,-364,4061,12,9,810
1036963,7035876,7745872,7230398,7984062,3800,3800,17,108,239,94,-373,4061,5,8,808
1037964,7035852,7745828,7230595,7984259,3800,3800,16,100,239,101,-371,4089,5,8,808
1038965,7035848,7745828,7230792,7984456,3800,3800,13,122,241,98,-364,4046,-2,1,808
1039966,7035868,7745828,7230989,7984653,3800,3800,10,134,239,90,-364,4054,-2,1,808
1040967,7035872,7745840,7231186,7984850,3800,3800,9,146,240,76,-374,4071,18,12,810
1041968,7035848,7745864,7231383,7985047,3800,3800,8,129,243,87,-362,4056,18,12,810
1042969,7035872,7745852,7231580,7985244,3800,3800,8,116,243,116,-367,4053,18,2,810
1043970,7035872,7745832,7231777,7985441,3800,3800,7,104,241,106,-382,4072,18,2,810
1044971,7035856,7745824,7231974,7985638,3800,3800,7,118,239,106,-374,4095,14,12,809
1045972,7035852,7745840,7232171,7985835,3800,3800,7,138,239,97,-351,4083,14,12,809
1046973,7035864,7745832,7232368,7986032,3800,3800,4,147,239,109,-360,4049,11,10,809
1047974,7035856,7745864,7232565,7986229,3800,3800,1,142,237,88,-385,4069,11,10,809
1048975,7035852,7745856,7232762,7986426,3800,3800,1,119,234,94,-364,4055,6,1,808
1049976,7035868,7745836,7232959,7986623,3800,3800,1,110,237,100,-396,4047,6,1,808
1050977,7035852,7745816,7233156,7986820,3800,3800,-3,111,239,94,-388,4086,18,11,809
1051978,7035856,7745820,7233353,7987017,3800,3800,-5,138,241,110,-357,4055,18,11,809
1052979,7035868,7745844,7233550,7987214,3800,3800,-6,145,240,122,-357,4074,17,11,809
1053980,7035864,7745852,7233747,7987411,3800,3800,-6,153,241,99,-362,4065,17,11,809
1054981,7035844,7745860,7233944,7987608,3800,3800,-9,127,240,105,-354,4052,13,6,809
1055982,7035856,7745836,7234141,7987805,3800,3800,-9,120,239,110,-355,4080,13,6,809
1056983,7035880,7745832,7234338,7988002,3800,3800,-9,114,238,121,-354,4093,15,1,809
1057984,7035856,7745832,7234535,7988199,3800,3800,-10,140,236,99,-354,4097,15,1,809
1058985,7035848,7745832,7234732,7988396,3800,3800,-12,149,234,99,-366,4092,15,7,809
1059986,7035856,7745856,7234929,7988593,3800,3800,-14,161,235,91,-370,4059,15,7,809
1060987,7035864,7745868,7235126,7988790,3800,3800,-14,141,239,115,-381,4043,15,1,808
1061988,7035848,7745844,7235323,7988987,3800,3800,-16,127,238,107,-357,4049,15,1,808
1062988,7035872,7745828,7235520,7989184,3800,3800,-17,118,235,101,-360,4068,4,9,809
1063990,7035868,7745832,7235717,7989381,3800,3800,-18,133,234,74,-378,4105,4,9,809
1064991,7035860,7745836,7235914,7989578,3800,3800,-18,154,238,65,-371,4110,7,11,809
1065992,7035856,7745856,7236111,7989775,3800,3800,-19,164,238,81,-366,4070,7,11,809
1066993,7035868,7745860,7236308,7989972,3800,3800,-21,157,237,95,-369,4059,10,5,809
1067993,7035860,7745852,7236505,7990169,3800,3800,-22,131,235,78,-353,4075,10,5,809
1068995,7035856,7745824,7236702,7990366,3800,3800,-22,123,233,86,-369,4117,18,8,809
1069996,7035876,7745824,7236899,7990563,3800,3800,-24,121,232,98,-359,4137,18,8,809
1070997,7035868,7745852,7237096,7990760,3800,3800,-22,146,235,90,-360,4089,18,12,808
1071998,7035860,7745860,7237293,7990957,3800,3800,-21,156,240,112,-362,4093,18,12,808
1072999,7035856,7745864,7237490,7991154,3800,3800,-20,164,238,103,-380,4064,7,5,809
1074000,7035876,7745852,7237687,7991351,3800,3800,-19,137,234,82,-355,4057,7,5,809
1075001,7035860,7745824,7237884,7991548,3800,3800,-19,127,234,86,-371,4091,17,6,809
1076002,7035860,7745828,7238081,7991745,3800,3800,-19,118,236,94,-378,4091,17,6,809
1077003,7035864,7745844,7238278,7991942,3800,3800,-16,142,238,91,-382,4021,18,12,809
1078004,7035856,7745856,7238475,7992139,3800,3800,-16,152,237,100,-362,4047,18,12,809
1079005,7035856,7745864,7238672,7992336,3800,3800,-14,163,236,70,-352,4091,18,4,809
1080006,7035880,7745848,7238869,7992533,3800,3800,-14,143,236,73,-366,4066,18,4,809
1081007,7035860,7745828,7239066,7992730,3800,3800,-13,127,239,106,-372,4095,0,5,808
1082008,7035852,7745828,7239263,7992927,3800,3800,-11,115,241,104,-359,4121,0,5,808
1083009,7035864,7745844,7239460,7993124,3800,3800,-10,127,240,83,-353,4118,19,5,808
1084010,7035876,7745856,7239657,7993321,3800,3800,-11,147,237,86,-344,4086,19,5,808
1085011,7035856,7745844,7239854,7993518,3800,3800,-8,155,237,99,-341,4129,11,4,809
1086012,7035856,7745856,7240051,7993715,3800,3800,-7,147,239,107,-368,4089,11,4,809
1087013,7035872,7745840,7240248,7993912,3800,3800,-8,126,238,85,-378,4070,3,9,809
1088014,7035860,7745816,7240445,7994109,3800,3800,-6,120,238,83,-376,4079,3,9,809
1089015,7035856,7745840,7240642,7994306,3800,3800,-3,114,239,63,-351,4088,5,4,809
1090023,7035872,7745852,7240872,7994536,3800,3800,-3,135,238,102,-367,4124,5,4,809
1091017,7035876,7745880,7241069,7994733,3800,3800,-4,144,238,76,-355,4102,0,9,809
1092018,7035856,7745860,7241266,7994930,3800,3800,-3,154,239,76,-363,4088,0,9,809
1093019,7035860,7745836,7241463,7995127,3800,3800,-1,124,239,69,-361,4075,3,7,808
1094020,7035868,7745820,7241660,7995324,3800,3800,0,113,239,74,-360,4074,3,7,808
1095021,7035856,7745820,7241857,7995521,3800,3800,2,102,239,69,-374,4091,14,10,809
1096022,7035864,7745844,7242054,7995718,3800,3800,2,123,239,96,-386,4098,14,10,809
1097023,7035864,7745868,7242251,7995915,3800,3800,1,135,238,85,-383,4110,6,2,809
1098024,7035852,7745864,7242448,7996112,3800,3800,3,147,239,84,-388,4072,6,2,809
1099025,7035848,7745844,7242645,7996309,3800,3800,4,129,241,77,-398,4091,14,10,809
1100026,7035864,7745828,7242842,7996506,3800,3800,3,112,240,69,-367,4107,14,10,809
1101027,7035856,7745836,7243039,7996703,3800,3800,5,102,242,85,-367,4109,3,12,809
1102028,7035848,7745852,7243236,7996900,3800,3800,5,114,241,73,-372,4086,3,12,809
1103029,7035868,7745860,7243433,7997097,3800,3800,5,134,240,77,-383,4105,11,4,808
1104030,7035876,7745860,7243630,7997294,3800,3800,6,144,240,85,-374,4108,11,4,808
1105031,7035860,7745852,7243827,7997491,3800,3800,6,140,241,105,-371,4080,1,6,808
1106032,7035864,7745836,7244024,7997688,3800,3800,6,116,243,113,-369,4080,1,6,808
1107033,7035868,7745832,7244221,7997885,3800,3800,9,108,244,106,-373,4089,18,12,809
1108034,7035864,7745852,7244418,7998082,3800,3800,10,106,242,94,-352,4072,18,12,809
1109034,7035868,7745876,7244615,7998279,3800,3800,8,133,242,81,-375,4087,18,8,809
1110036,7035872,7745856,7244812,7998476,3800,3800,8,142,241,84,-402,4074,18,8,809
1111036,7035860,7745848,7245009,7998673,3800,3800,9,151,243,64,-379,4050,5,8,809
1112038,7035856,7745836,7245206,7998870,3800,3800,10,124,243,75,-362,4065,5,8,809
1113039,7035864,7745836,7245403,7999067,3800,3800,11,113,244,79,-381,4072,10,13,809
1114040,7035864,7745852,7245600,7999264,3800,3800,12,104,244,81,-362,4056,10,13,809
1115041,7035856,7745868,7245797,7999461,3800,3800,12,129,244,85,-364,4079,14,2,808
1116042,7035864,7745864,7245994,7999658,3800,3800,13,141,245,99,-353,4095,14,2,808
1117043,7035864,7745856,7246191,7999855,3800,3800,11,151,241,84,-361,4083,18,11,809
1118044,7035868,7745824,7246388,8000052,3800,3800,10,133,240,90,-367,4114,18,11,809
1119045,7035852,7745824,7246585,8000249,3800,3800,12,116,239,80,-377,4089,18,4,809
1120046,7035864,7745848,7246782,8000446,3800,3800,12,105,240,87,-374,4116,18,4,809
1121047,7035868,7745880,7246979,8000643,3800,3800,11,116,238,104,-355,4114,5,7,809
1122048,7035860,7745868,7247176,8000840,3800,3800,10,138,235,124,-358,4126,5,7,809
1123049,7035868,7745860,7247373,8001037,3800,3800,10,147,236,97,-373,4089,8,10,809
1124050,7035868,7745820,7247570,8001234,3800,3800,12,143,238,121,-378,4071,8,10,809
1125050,7035868,7745832,7247767,8001431,3800,3800,12,118,240,106,-389,4089,16,7,808
1126052,7035852,7745844,7247964,8001628,3800,3800,13,109,238,107,-378,4079,16,7,808
1127053,7035860,7745864,7248161,8001825,3800,3800,14,106,237,84,-360,4080,12,2,808
1128054,7035868,7745864,7248358,8002022,3800,3800,14,134,236,65,-372,4082,12,2,808
1129055,7035848,7745852,7248555,8002219,3800,3800,15,142,240,93,-374,4063,14,4,809
1130056,7035880,7745836,7248752,8002416,3800,3800,15,151,239,103,-377,4064,14,4,809
1131056,7035876,7745836,7248949,8002613,3800,3800,13,129,237,85,-385,4076,7,13,809
1132058,7035860,7745824,7249146,8002810,3800,3800,14,121,238,79,-386,4097,7,13,809
1133058,7035864,7745848,7249343,8003007,3800,3800,15,108,238,79,-378,4093,17,3,809
1134060,7035860,7745860,7249540,8003204,3800,3800,16,131,239,80,-376,4068,17,3,809
1135061,7035852,7745844,7249737,8003401,3800,3800,16,141,241,88,-389,4102,-2,4,809
1136062,7035852,7745828,7249934,8003598,3800,3800,16,151,238,58,-360,4092,-2,4,809
1137063,7035872,7745844,7250131,8003795,3800,3800,16,134,239,72,-372,4080,2,13,808
1138064,7035868,7745836,7250328,8003992,3800,3800,18,116,238,72,-364,4083,2,13,808
1139065,7035852,7745844,7250525,8004189,3800,3800,17,106,238,81,-370,4086,18,2,809
1140066,7035868,7745876,7250722,8004386,3800,3800,17,118,239,106,-387,4065,18,2,809
1141067,7035860,7745856,7250919,8004583,3800,3800,17,136,238,84,-365,4079,10,9,809
1142068,7035856,7745836,7251116,8004780,3800,3800,17,144,237,89,-367,4078,10,9,809
1143069,7035856,7745840,7251313,8004977,3800,3800,13,141,238,73,-389,4091,18,10,809
1144070,7035860,7745836,7251510,8005174,3800,3800,12,117,242,64,-377,4086,18,10,809
1145071,7035864,7745848,7251707,8005371,3800,3800,10,113,241,95,-357,4069,13,5,809
1146072,7035856,7745872,7251904,8005568,3800,3800,10,108,241,84,-367,4072,13,5,809
1147073,7035876,7745864,7252101,8005765,3800,3800,8,136,239,84,-375,4082,18,9,808
1148074,7035868,7745820,7252298,8005962,3800,3800,8,142,237,79,-380,4045,18,9,808
1149075,7035856,7745836,7252495,8006159,3800,3800,7,149,238,92,-360,4068,18,9,808
1150076,7035860,7745828,7252692,8006356,3800,3800,5,124,239,87,-346,4088,18,9,808
1151077,7035868,7745860,7252889,8006553,3800,3800,2,113,239,89,-373,4072,15,5,809
1152078,7035856,7745864,7253086,8006750,3800,3800,1,104,240,76,-399,4091,15,5,809
1153079,7035860,7745844,7253283,8006947,3800,3800,1,128,239,84,-396,4088,2,9,809
1154080,7035864,7745828,7253480,8007144,3800,3800,2,140,239,80,-378,4038,2,9,809
1155081,7035856,7745828,7253677,8007341,3800,3800,0,150,241,114,-377,4082,18,14,809
1156082,7035864,7745832,7253874,8007538,3800,3800,-1,134,240,92,-366,4060,18,14,809
1157083,7035864,7745856,7254071,8007735,3800,3800,0,121,241,71,-378,4064,17,4,809
1158084,7035872,7745864,7254268,8007932,3800,3800,-2,114,241,90,-383,4056,17,4,809
1159085,7035852,7745860,7254465,8008129,3800,3800,-4,122,239,103,-365,4056,13,6,807
1160086,7035872,7745848,7254662,8008326,3800,3800,-6,144,241,95,-358,4036,13,6,807
1161087,7035872,7745824,7254859,8008523,3800,3800,-6,154,241,76,-353,4077,18,5,808
1162088,7035856,7745844,7255056,8008720,3800,3800,-6,151,237,86,-377,4074,18,5,808
1163089,7035856,7745856,7255253,8008917,3800,3800,-7,125,236,84,-361,4045,18,9,808
1164090,7035880,7745876,7255450,8009114,3800,3800,-7,119,240,101,-358,4081,18,9,808
1165091,7035860,7745856,7255647,8009311,3800,3800,-8,114,240,102,-377,4113,18,5,809
1166092,7035856,7745836,7255844,8009508,3800,3800,-11,140,237,88,-378,4108,18,5,809
1167093,7035876,7745824,7256041,8009705,3800,3800,-14,148,238,97,-385,4057,17,6,809
1168094,7035868,7745828,7256238,8009902,3800,3800,-16,156,238,78,-370,4066,17,6,809
1169095,7035856,7745848,7256435,8010099,3800,3800,-16,131,239,71,-356,4091,5,3,808
1170096,7035868,7745872,7256632,8010296,3800,3800,-15,121,239,89,-364,4120,5,3,808
1171097,7035868,7745860,7256829,8010493,3800,3800,-15,132,237,67,-367,4095,14,2,808
1172098,7035860,7745832,7257026,8010690,3800,3800,-18,144,241,93,-364,4103,14,2,808
1173106,7035860,7745832,7257256,8010920,3800,3800,-16,157,240,100,-372,4084,18,13,809
1174100,7035868,7745844,7257453,8011117,3800,3800,-14,142,237,82,-358,4071,18,13,809
1175101,7035852,7745856,7257650,8011314,3800,3800,-17,126,237,62,-360,4076,17,1,809
1176102,7035848,7745872,7257847,8011511,3800,3800,-19,116,238,80,-357,4087,17,1,809
1177103,7035864,7745856,7258044,8011708,3800,3800,-18,124,239,71,-381,4075,5,7,809
1178104,7035864,7745844,7258241,8011905,3800,3800,-16,146,239,86,-380,4102,5,7,809
1179105,7035852,7745828,7258438,8012102,3800,3800,-15,154,238,83,-373,4092,7,12,809
1180106,7035860,7745824,7258635,8012299,3800,3800,-16,152,238,91,-348,4089,7,12,809
1181107,7035872,7745836,7258832,8012496,3800,3800,-17,126,239,74,-358,4089,0,1,808
1182108,7035864,7745872,7259029,8012693,3800,3800,-17,118,239,68,-359,4083,0,1,808
1183109,7035848,7745860,7259226,8012890,3800,3800,-16,112,237,96,-358,4060,11,10,808
1184110,7035868,7745848,7259423,8013087,3800,3800,-15,139,238,100,-350,4069,11,10,808
1185111,7035868,7745836,7259620,8013284,3800,3800,-15,144,238,90,-347,4093,16,11,809
1186112,7035856,7745828,7259817,8013481,3800,3800,-14,151,239,82,-381,4089,16,11,809
1187113,7035872,7745856,7260014,8013678,3800,3800,-12,127,240,62,-359,4064,5,5,809
1188114,7035860,7745860,7260211,8013875,3800,3800,-8,119,239,73,-349,4113,5,5,809
1189115,7035856,7745872,7260408,8014072,3800,3800,-5,110,240,68,-370,4129,17,5,808
1190116,7035864,7745860,7260605,8014269,3800,3800,-5,133,240,72,-382,4119,17,5,808
1191117,7035872,7745832,7260802,8014466,3800,3800,-3,144,242,99,-343,4102,18,4,809
1192118,7035856,7745836,7260999,8014663,3800,3800,-3,155,240,92,-362,4095,18,4,809
1193119,7035848,7745848,7261196,8014860,3800,3800,-3,140,238,94,-369,4083,2,5,808
1194120,7035864,7745860,7261393,8015057,3800,3800,0,120,236,74,-364,4099,2,5,808
1195121,7035856,7745856,7261590,8015254,3800,3800,4,109,239,100,-370,4107,-2,1,809
1196122,7035856,7745840,7261787,8015451,3800,3800,3,120,238,82,-362,4093,-2,1,809
1197122,7035872,7745832,7261984,8015648,3800,3800,3,139,238,113,-371,4085,3,11,809
1198123,7035876,7745832,7262181,8015845,3800,3800,5,147,241,106,-329,4087,3,11,809
1199124,7035856,7745848,7262378,8016042,3800,3800,5,146,241,99,-376,4088,4,2,808
1200126,7035860,7745868,7262575,8016239,3800,3800,5,120,239,80,-383,4053,4,2,808
1201127,7035868,7745876,7262772,8016436,3800,3800,6,114,240,87,-369,4088,5,10,808
1202128,7035848,7745860,7262969,8016633,3800,3800,5,111,239,96,-362,4075,5,10,808
1203129,7035860,7745824,7263166,8016830,3800,3800,4,135,240,84,-361,4073,9,4,807
1204130,7035868,7745836,7263363,8017027,3800,3800,5,141,240,97,-374,4081,9,4,807
1205131,7035864,7745852,7263560,8017224,3800,3800,6,149,239,110,-376,4094,3,4,808
1206132,7035852,7745856,7263757,8017421,3800,3800,7,123,240,92,-382,4114,3,4,808
1207133,7035884,7745864,7263954,8017618,3800,3800,7,113,240,101,-384,4085,0,12,808
1208134,7035868,7745868,7264151,8017815,3800,3800,6,102,238,108,-369,4079,0,12,808
1209135,7035856,7745836,7264348,8018012,3800,3800,3,124,238,82,-375,4074,18,9,808
1210136,7035860,7745836,7264545,8018209,3800,3800,4,140,239,84,-372,4077,18,9,808
1211137,7035876,7745844,7264742,8018406,3800,3800,7,149,239,83,-362,4111,3,11,809
1212138,7035864,7745868,7264939,8018603,3800,3800,7,133,239,100,-373,4117,3,11,809
1213139,7035852,7745876,7265136,8018800,3800,3800,5,115,240,94,-369,4121,-2,12,809
1214140,7035864,7745856,7265333,8018997,3800,3800,4,109,239,83,-377,4114,-2,12,809
1215141,7035876,7745840,7265530,8019194,3800,3800,5,119,238,94,-377,4112,18,11,807
1216142,7035852,7745832,7265727,8019391,3800,3800,6,142,241,63,-353,4100,18,11,807
1217143,7035868,7745856,7265924,8019588,3800,3800,7,151,241,74,-364,4103,17,3,808
1218144,7035868,7745852,7266121,8019785,3800,3800,9,151,241,94,-386,4084,17,3,808
1219145,7035860,7745864,7266318,8019982,3800,3800,9,123,237,101,-370,4066,12,6,808
1220146,7035852,7745852,7266515,8020179,3800,3800,9,115,238,95,-372,4086,12,6,808
1221147,7035872,7745852,7266712,8020376,3800,3800,9,110,241,88,-354,4098,17,8,809
1222148,7035868,7745840,7266909,8020573,3800,3800,9,137,240,117,-381,4082,17,8,809
1223149,7035856,7745856,7267106,8020770,3800,3800,9,144,239,96,-391,4073,18,5,809
1224150,7035864,7745864,7267303,8020967,3800,3800,8,154,242,92,-381,4054,18,5,809
1225151,7035864,7745872,7267500,8021164,3800,3800,7,132,242,74,-365,4057,1,8,807
1226152,7035856,7745860,7267697,8021361,3800,3800,7,123,239,74,-364,4056,1,8,807
1227153,7035868,7745844,7267894,8021558,3800,3800,7,108,235,95,-376,4091,18,8,808
1228154,7035872,7745824,7268091,8021755,3800,3800,6,126,236,110,-356,4115,18,8,808
1229155,7035852,7745852,7268288,8021952,3800,3800,8,140,237,95,-379,4099,18,1,809
1230156,7035856,7745836,7268485,8022149,3800,3800,8,154,238,81,-358,4111,18,1,809
1231156,7035868,7745864,7268682,8022346,3800,3800,7,140,236,76,-370,4094,6,5,809
1232158,7035876,7745868,7268879,8022543,3800,3800,7,120,239,76,-367,4090,6,5,809
1233159,7035848,7745840,7269076,8022740,3800,3800,8,111,239,67,-380,4086,4,13,809
1234160,7035872,7745832,7269273,8022937,3800,3800,9,118,237,80,-367,4118,4,13,809
1235161,7035872,7745844,7269470,8023134,3800,3800,10,139,238,85,-354,4097,17,2,809
1236162,7035864,7745844,7269667,8023331,3800,3800,10,149,238,89,-377,4115,17,2,809
1237163,7035860,7745864,7269864,8023528,3800,3800,9,148,239,77,-384,4096,18,3,808
1238164,7035868,7745868,7270061,8023725,3800,3800,8,124,240,70,-386,4054,18,3,808
1239165,7035856,7745844,7270258,8023922,3800,3800,8,115,237,71,-371,4072,17,12,809
1240166,7035856,7745828,7270455,8024119,3800,3800,9,109,239,83,-372,4096,17,12,809
1241167,7035864,7745840,7270652,8024316,3800,3800,10,136,239,83,-355,4073,0,7,809
1242168,7035864,7745864,7270849,8024513,3800,3800,8,144,239,104,-367,4099,0,7,809
1243169,7035848,7745872,7271046,8024710,3800,3800,10,152,238,98,-367,4040,11,5,809
1244170,7035868,7745872,7271243,8024907,3800,3800,9,126,241,94,-378,4084,11,5,809
1245171,7035864,7745828,7271440,8025104,3800,3800,8,114,242,84,-373,4064,14,10,809
1246171,7035852,7745836,7271637,8025301,3800,3800,8,101,244,78,-370,4092,14,10,809
1247172,7035860,7745840,7271834,8025498,3800,3800,8,124,242,78,-364,4062,18,1,808
1248174,7035864,7745852,7272031,8025695,3800,3800,10,140,243,88,-370,4087,18,1,808
1249175,7035864,7745880,7272228,8025892,3800,3800,11,150,243,97,-368,4085,3,7,808
1250176,7035864,7745868,7272425,8026089,3800,3800,9,134,243,82,-379,4065,3,7,808
1251177,7035868,7745840,7272622,8026286,3800,3800,8,113,245,69,-374,4064,18,9,809
1252178,7035864,7745828,7272819,8026483,3800,3800,7,104,243,85,-366,4051,18,9,809
1253179,7035852,7745848,7273016,8026680,3800,3800,7,112,241,99,-359,4032,4,2,809
1254180,7035868,7745864,7273213,8026877,3800,3800,8,135,240,86,-373,4072,4,2,809
1255180,7035876,7745868,7273410,8027074,3800,3800,7,144,241,80,-373,4093,12,9,809
1256191,7035856,7745872,7273640,8027304,3800,3800,6,145,243,74,-354,4096,12,9,809
1257183,7035872,7745856,7273837,8027501,3800,3800,5,118,241,77,-359,4086,9,12,809
1258184,7035864,7745836,7274034,8027698,3800,3800,3,110,240,80,-341,4073,9,12,809
1259185,7035852,7745840,7274231,8027895,3800,3800,1,107,239,71,-383,4100,19,1,808
1260186,7035856,7745848,7274428,8028092,3800,3800,1,133,242,98,-370,4083,19,1,808
1261187,7035872,7745860,7274625,8028289,3800,3800,2,141,244,106,-347,4060,2,8,809
1262188,7035868,7745860,7274822,8028486,3800,3800,2,152,244,92,-351,4062,2,8,809
1263189,7035852,7745868,7275019,8028683,3800,3800,2,126,242,76,-364,4072,11,11,809
1264190,7035860,7745836,7275216,8028880,3800,3800,2,115,242,112,-350,4077,11,11,809
1265191,7035868,7745840,7275413,8029077,3800,3800,1,106,242,107,-358,4095,1,1,809
1266192,7035856,7745840,7275610,8029274,3800,3800,-1,127,240,96,-371,4042,1,1,809
1267193,7035856,7745856,7275807,8029471,3800,3800,-1,143,240,81,-369,4053,17,12,809
1268194,7035864,7745880,7276004,8029668,3800,3800,-1,154,239,94,-368,4096,17,12,809
1269195,7035856,7745856,7276201,8029865,3800,3800,-3,141,240,100,-364,4069,10,6,808
1270196,7035860,7745832,7276398,8030062,3800,3800,-4,120,240,71,-371,4047,10,6,808
1271197,7035868,7745840,7276595,8030259,3800,3800,-3,110,239,63,-371,4056,17,3,807
1272198,7035876,7745848,7276792,8030456,3800,3800,-3,118,239,102,-392,4067,17,3,807
1273199,7035856,7745868,7276989,8030653,3800,3800,-3,145,239,97,-388,4071,5,9,809
1274200,7035856,7745864,7277186,8030850,3800,3800,-5,152,236,95,-369,4087,5,9,809
1275201,7035872,7745856,7277383,8031047,3800,3800,-5,153,239,112,-367,4094,18,7,809
1276202,7035852,7745844,7277580,8031244,3800,3800,-6,126,239,87,-360,4081,18,7,809
1277203,7035868,7745848,7277777,8031441,3800,3800,-6,118,238,92,-376,4093,17,6,809
1278204,7035868,7745844,7277974,8031638,3800,3800,-5,113,238,85,-371,4081,17,6,809
1279205,7035864,7745872,7278171,8031835,3800,3800,-5,139,237,91,-379,4079,16,0,809
1280206,7035860,7745864,7278368,8032032,3800,3800,-5,148,236,86,-369,4093,16,0,809
1281207,7035868,7745864,7278565,8032229,3800,3800,-8,158,235,91,-362,4074,6,10,808
1282208,7035872,7745844,7278762,8032426,3800,3800,-7,134,237,92,-361,4136,6,10,808
1283209,7035852,7745844,7278959,8032623,3800,3800,-7,122,239,93,-365,4131,9,5,809
1284210,7035860,7745848,7279156,8032820,3800,3800,-7,110,239,109,-348,4077,9,5,809
1285211,7035864,7745864,7279353,8033017,3800,3800,-7,127,237,122,-380,4110,0,10,809
1286212,7035856,7745880,7279550,8033214,3800,3800,-8,143,237,103,-379,4081,0,10,809
1287212,7035860,7745856,7279747,8033411,3800,3800,-9,157,238,96,-368,4069,11,10,809
1288214,7035872,7745856,7279944,8033608,3800,3800,-10,147,238,94,-365,4094,11,10,809
1289215,7035872,7745832,7280141,8033805,3800,3800,-10,128,236,99,-366,4093,18,14,809
1290216,7035864,7745844,7280338,8034002,3800,3800,-8,118,236,86,-367,4082,18,14,809
1291217,7035860,7745868,7280535,8034199,3800,3800,-8,123,236,73,-368,4119,0,4,807
1292218,7035876,7745872,7280732,8034396,3800,3800,-9,149,238,59,-358,4093,0,4,807
1293219,7035848,7745860,7280929,8034593,3800,3800,-10,157,242,66,-341,4075,18,7,808
1294220,7035868,7745852,7281126,8034790,3800,3800,-8,153,242,80,-366,4072,18,7,808
1295221,7035876,7745832,7281323,8034987,3800,3800,-6,124,241,77,-376,4090,5,6,808
1296222,7035856,7745856,7281520,8035184,3800,3800,-7,119,241,85,-377,4085,5,6,808
1297222,7035856,7745876,7281717,8035381,3800,3800,-9,114,237,86,-384,4064,2,13,809
1298224,7035868,7745860,7281914,8035578,3800,3800,-6,141,237,68,-368,4038,2,13,809
1299225,7035872,7745864,7282111,8035775,3800,3800,-5,149,235,102,-364,4086,7,12,809
1300226,7035860,7745852,7282308,8035972,3800,3800,-3,159,235,85,-376,4099,7,12,809
1301227,7035864,7745832,7282505,8036169,3800,3800,-4,135,237,85,-367,4108,16,3,809
1302228,7035872,7745844,7282702,8036366,3800,3800,-6,122,239,87,-366,4094,16,3,809
1303229,7035864,7745864,7282899,8036563,3800,3800,-5,112,238,80,-346,4083,-1,2,807
1304230,7035872,7745876,7283096,8036760,3800,3800,-3,128,238,93,-352,4056,-1,2,807
1305231,7035856,7745880,7283293,8036957,3800,3800,-4,144,236,96,-366,4071,18,13,809
1306232,7035856,7745856,7283490,8037154,3800,3800,-3,155,237,88,-374,4095,18,13,809
1307233,7035860,7745836,7283687,8037351,3800,3800,-1,143,237,86,-379,4101,-1,3,809
1308234,7035860,7745852,7283884,8037548,3800,3800,-2,120,238,87,-355,4090,-1,3,809
1309235,7035868,7745860,7284081,8037745,3800,3800,-1,110,237,64,-356,4075,12,12,808
1310236,7035856,7745864,7284278,8037942,3800,3800,2,116,239,106,-364,4048,12,12,808
1311237,7035872,7745868,7284475,8038139,3800,3800,4,141,238,74,-372,4071,14,13,809
1312238,7035868,7745848,7284672,8038336,3800,3800,3,148,239,84,-363,4107,14,13,809
1313239,7035864,7745840,7284869,8038533,3800,3800,2,149,241,95,-347,4070,18,0,807
1314240,7035868,7745844,7285066,8038730,3800,3800,3,123,239,79,-360,4070,18,0,807
1315241,7035868,7745852,7285263,8038927,3800,3800,5,116,239,83,-382,4067,18,8,808
1316242,7035860,7745868,7285460,8039124,3800,3800,4,110,240,91,-388,4081,18,8,808
1317243,7035856,7745876,7285657,8039321,3800,3800,2,136,241,71,-357,4130,4,8,809
1318244,7035872,7745864,7285854,8039518,3800,3800,2,142,241,80,-367,4118,4,8,809
1319244,7035872,7745832,7286051,8039715,3800,3800,5,151,239,92,-378,4076,18,1,809
1320246,7035856,7745844,7286248,8039912,3800,3800,6,127,240,87,-379,4071,18,1,809
1321247,7035868,7745856,7286445,8040109,3800,3800,5,114,240,74,-364,4076,2,8,809
1322248,7035864,7745880,7286642,8040306,3800,3800,5,101,239,75,-337,4084,2,8,809
1323249,7035860,7745884,7286839,8040503,3800,3800,4,119,239,91,-379,4089,14,6,808
1324250,7035864,7745864,7287036,8040700,3800,3800,4,135,242,82,-362,4054,14,6,808
1325251,7035860,7745832,7287233,8040897,3800,3800,5,146,243,86,-356,4091,16,3,807
1326252,7035860,7745852,7287430,8041094,3800,3800,6,134,242,77,-383,4098,16,3,807
1327253,7035860,7745848,7287627,8041291,3800,3800,7,114,243,81,-373,4085,1,4,809
1328254,7035876,7745864,7287824,8041488,3800,3800,7,104,241,87,-377,4065,1,4,809
1329255,7035868,7745884,7288021,8041685,3800,3800,6,112,241,82,-364,4077,15,8,808
1330256,7035856,7745848,7288218,8041882,3800,3800,6,139,241,84,-370,4088,15,8,808
1331257,7035852,7745832,7288415,8042079,3800,3800,7,143,240,69,-390,4074,0,3,808
1332258,7035868,7745848,7288612,8042276,3800,3800,6,145,240,82,-380,4095,0,3,808
1333259,7035860,7745844,7288809,8042473,3800,3800,5,121,241,88,-376,4098,18,13,809
1334260,7035868,7745860,7289006,8042670,3800,3800,5,114,241,77,-389,4104,18,13,809
1335261,7035868,7745880,7289203,8042867,3800,3800,5,106,239,82,-392,4076,4,5,808
1336262,7035864,7745868,7289400,8043064,3800,3800,6,130,241,89,-367,4096,4,5,808
1337263,7035856,7745832,7289597,8043261,3800,3800,7,139,243,90,-371,4113,11,4,807
1338264,7035864,7745848,7289794,8043458,3800,3800,5,148,240,89,-375,4095,11,4,807
1339272,7035872,7745852,7290024,8043688,3800,3800,7,127,239,82,-395,4069,12,9,809
1340266,7035856,7745864,7290221,8043885,3800,3800,7,116,239,102,-365,4071,12,9,809
1341267,7035884,7745860,7290418,8044082,3800,3800,5,105,238,88,-379,4062,18,12,808
1342267,7035860,7745856,7290615,8044279,3800,3800,7,125,239,92,-382,4073,18,12,808
1343269,7035856,7745812,7290812,8044476,3800,3800,10,144,241,95,-385,4090,18,3,809
1344270,7035860,7745832,7291009,8044673,3800,3800,9,153,241,92,-376,4105,18,3,809
1345271,7035864,7745848,7291206,8044870,3800,3800,7,144,240,78,-371,4099,0,7,809
1346272,7035860,7745868,7291403,8045067,3800,3800,6,124,238,96,-370,4058,0,7,809
1347273,7035848,7745880,7291600,8045264,3800,3800,6,114,235,76,-378,4045,5,5,807
1348274,7035864,7745852,7291797,8045461,3800,3800,8,119,233,92,-374,4045,5,5,807
1349275,7035860,7745832,7291994,8045658,3800,3800,8,141,238,85,-355,4065,1,3,809
1350276,7035852,7745840,7292191,8045855,3800,3800,6,149,237,86,-365,4092,1,3,809
1351277,7035876,7745848,7292388,8046052,3800,3800,5,150,236,92,-387,4088,18,7,809
1352278,7035872,7745864,7292585,8046249,3800,3800,5,121,236,98,-372,4105,18,7,809
1353279,7035852,7745876,7292782,8046446,3800,3800,7,116,237,80,-355,4100,13,16,808
1354280,7035856,7745868,7292979,8046643,3800,3800,8,109,237,69,-366,4100,13,16,808
1355281,7035856,7745832,7293176,8046840,3800,3800,7,134,238,81,-369,4141,6,5,808
1356282,7035852,7745832,7293373,8047037,3800,3800,9,142,240,118,-349,4104,6,5,808
1357283,7035856,7745840,7293570,8047234,3800,3800,9,154,239,104,-367,4072,5,4,807
1358283,7035872,7745860,7293767,8047431,3800,3800,9,134,238,93,-379,4083,5,4,807
1359285,7035868,7745872,7293964,8047628,3800,3800,11,121,235,78,-393,4076,18,11,807
1360286,7035864,7745868,7294161,8047825,3800,3800,11,111,237,100,-353,4058,18,11,807
1361287,7035868,7745836,7294358,8048022,3800,3800,11,128,240,101,-366,4061,14,8,808
1362288,7035876,7745828,7294555,8048219,3800,3800,11,144,240,88,-364,4091,14,8,808
1363289,7035856,7745844,7294752,8048416,3800,3800,11,154,241,99,-342,4099,13,11,809
1364290,7035856,7745852,7294949,8048613,3800,3800,10,143,240,98,-378,4105,13,11,809
1365291,7035872,7745872,7295146,8048810,3800,3800,10,123,238,83,-377,4087,18,11,809
1366292,7035872,7745872,7295343,8049007,3800,3800,9,113,238,81,-376,4073,18,11,809
1367293,7035856,7745828,7295540,8049204,3800,3800,9,116,241,79,-351,4096,18,3,809
1368294,7035864,7745820,7295737,8049401,3800,3800,9,136,242,86,-361,4034,18,3,809
1369295,7035876,7745848,7295934,8049598,3800,3800,8,145,242,102,-372,4051,19,3,807
1370296,7035852,7745864,7296131,8049795,3800,3800,7,146,241,74,-381,4097,19,3,807
1371297,7035856,7745868,7296328,8049992,3800,3800,7,119,240,79,-365,4091,17,14,808
1372298,7035872,7745868,7296525,8050189,3800,3800,8,113,240,98,-358,4081,17,14,808
1373299,7035848,7745836,7296722,8050386,3800,3800,5,106,240,102,-363,4084,5,1,808
1374300,7035852,7745844,7296919,8050583,3800,3800,5,129,238,116,-355,4059,5,1,808
1375300,7035868,7745840,7297116,8050780,3800,3800,3,140,241,94,-369,4064,8,11,808
1376302,7035868,7745852,7297313,8050977,3800,3800,3,151,242,81,-363,4080,8,11,808
1377302,7035844,7745872,7297510,8051174,3800,3800,2,128,240,88,-355,4121,4,14,808
1378304,7035868,7745864,7297707,8051371,3800,3800,0,115,241,85,-365,4076,4,14,808
1379304,7035872,7745860,7297904,8051568,3800,3800,-1,103,241,80,-354,4075,5,3,807
1380306,7035860,7745828,7298101,8051765,3800,3800,-2,122,240,66,-351,4087,5,3,807
1381306,7035864,7745840,7298298,8051962,3800,3800,-3,138,239,64,-354,4093,18,8,807
1382308,7035864,7745860,7298495,8052159,3800,3800,-3,147,240,77,-367,4063,18,8,807
1383308,7035856,7745864,7298692,8052356,3800,3800,-5,138,243,70,-375,4116,18,12,809
1384310,7035856,7745872,7298889,8052553,3800,3800,-6,118,243,74,-380,4090,18,12,809
1385311,7035868,7745856,7299086,8052750,3800,3800,-6,109,240,90,-384,4119,0,2,809
1386311,7035876,7745832,7299283,8052947,3800,3800,-6,116,240,96,-377,4091,0,2,809
1387312,7035848,7745832,7299480,8053144,3800,3800,-7,140,240,97,-383,4073,0,8,808
1388314,7035876,7745860,7299677,8053341,3800,3800,-9,148,238,91,-368,4073,0,8,808
1389315,7035864,7745888,7299874,8053538,3800,3800,-8,152,241,93,-362,4086,5,8,808
1390316,7035864,7745876,7300071,8053735,3800,3800,-8,126,240,78,-362,4106,5,8,808
1391316,7035864,7745856,7300268,8053932,3800,3800,-10,119,239,77,-364,4089,18,5,807
1392318,7035856,7745848,7300465,8054129,3800,3800,-10,114,242,94,-360,4070,18,5,807
1393319,7035856,7745824,7300662,8054326,3800,3800,-10,140,244,89,-353,4082,-2,11,808
1394320,7035860,7745868,7300859,8054523,3800,3800,-11,151,242,89,-383,4060,-2,11,808
1395320,7035872,7745872,7301056,8054720,3800,3800,-12,161,241,101,-377,4084,17,13,809
1396322,7035864,7745868,7301253,8054917,3800,3800,-14,137,238,121,-349,4113,17,13,809
1397323,7035856,7745856,7301450,8055114,3800,3800,-15,122,238,110,-350,4079,18,6,808
1398324,7035864,7745828,7301647,8055311,3800,3800,-16,114,237,87,-379,4062,18,6,808
1399325,7035872,7745844,7301844,8055508,3800,3800,-16,129,237,94,-368,4062,15,13,808
1400326,7035856,7745860,7302041,8055705,3800,3800,-14,146,238,118,-364,4109,15,13,808
1401327,7035872,7745864,7302238,8055902,3800,3800,-13,154,239,107,-365,4088,14,10,807
1402328,7035864,7745872,7302435,8056099,3800,3800,-14,144,238,85,-374,4078,14,10,807
1403329,7035864,7745864,7302632,8056296,3800,3800,-14,124,238,81,-382,4097,7,3,808
1404330,7035852,7745844,7302829,8056493,3800,3800,-14,117,239,94,-378,4095,7,3,808
1405331,7035864,7745844,7303026,8056690,3800,3800,-11,120,238,80,-376,4093,18,10,808
1406332,7035868,7745852,7303223,8056887,3800,3800,-8,147,238,96,-406,4081,18,10,808
1407333,7035856,7745872,7303420,8057084,3800,3800,-7,154,237,92,-378,4076,18,9,808
1408334,7035860,7745876,7303617,8057281,3800,3800,-7,157,239,86,-354,4041,18,9,808
1409335,7035860,7745872,7303814,8057478,3800,3800,-7,129,241,90,-369,4063,18,6,808
1410336,7035860,7745848,7304011,8057675,3800,3800,-8,121,239,105,-367,4070,18,6,808
1411337,7035856,7745844,7304208,8057872,3800,3800,-6,112,236,99,-350,4070,18,6,808
1412338,7035864,7745852,7304405,8058069,3800,3800,-3,138,235,79,-366,4103,18,6,808
1413339,7035864,7745864,7304602,8058266,3800,3800,-2,147,237,80,-371,4069,17,8,808
1414340,7035852,7745868,7304799,8058463,3800,3800,-2,159,239,100,-358,4072,17,8,808
1415341,7035868,7745864,7304996,8058660,3800,3800,-3,136,237,100,-355,4095,14,5,809
1416342,7035880,7745856,7305193,8058857,3800,3800,-1,122,235,116,-361,4107,14,5,809
1417343,7035856,7745840,7305390,8059054,3800,3800,1,110,237,79,-380,4082,-1,4,808
1418344,7035864,7745844,7305587,8059251,3800,3800,1,126,238,66,-353,4071,-1,4,808
1419345,7035880,7745872,7305784,8059448,3800,3800,1,143,241,102,-354,4108,18,12,809
1420346,7035856,7745880,7305981,8059645,3800,3800,4,151,240,111,-363,4123,18,12,809
1421347,7035860,7745864,7306178,8059842,3800,3800,5,140,237,74,-369,4105,2,4,809
1422355,7035872,7745824,7306408,8060072,3800,3800,4,118,238,89,-370,4109,2,4,809
1423349,7035872,7745852,7306605,8060269,3800,3800,4,109,237,68,-367,4063,18,4,807
1424350,7035864,7745848,7306802,8060466,3800,3800,6,110,238,66,-372,4061,18,4,807
1425351,7035864,7745868,7306999,8060663,3800,3800,4,135,238,88,-383,4067,1,8,808
1426352,7035872,7745872,7307196,8060860,3800,3800,4,144,236,95,-366,4102,1,8,808
1427353,7035848,7745864,7307393,8061057,3800,3800,6,148,235,86,-387,4097,19,7,808
1428354,7035864,7745844,7307590,8061254,3800,3800,5,124,237,90,-385,4089,19,7,808
1429355,7035880,7745840,7307787,8061451,3800,3800,6,117,239,69,-370,4100,-1,8,808
1430356,7035864,7745844,7307984,8061648,3800,3800,8,108,237,71,-361,4091,-1,8,808
1431357,7035864,7745872,7308181,8061845,3800,3800,9,133,236,85,-366,4086,7,10,808
1432358,7035872,7745884,7308378,8062042,3800,3800,9,144,238,84,-391,4099,7,10,808
1433359,7035872,7745868,7308575,8062239,3800,3800,8,154,242,80,-372,4065,14,3,808
1434360,7035848,7745840,7308772,8062436,3800,3800,11,132,242,93,-369,4102,14,3,808
1435361,7035876,7745844,7308969,8062633,3800,3800,14,120,240,92,-372,4069,11,5,807
1436362,7035872,7745848,7309166,8062830,3800,3800,13,109,239,66,-375,4089,11,5,807
1437363,7035856,7745856,7309363,8063027,3800,3800,13,123,239,77,-374,4064,18,13,808
1438364,7035860,7745872,7309560,8063224,3800,3800,13,139,241,100,-371,4080,18,13,808
1439365,7035868,7745868,7309757,8063421,3800,3800,11,151,243,98,-361,4100,15,7,808
1440366,7035860,7745828,7309954,8063618,3800,3800,10,145,241,78,-369,4083,15,7,808
1441367,7035856,7745844,7310151,8063815,3800,3800,9,123,241,56,-392,4100,13,9,808
1442368,7035860,7745864,7310348,8064012,3800,3800,9,112,238,91,-390,4130,13,9,808
1443369,7035856,7745856,7310545,8064209,3800,3800,11,113,239,106,-394,4132,18,10,808
1444370,7035856,7745884,7310742,8064406,3800,3800,9,137,239,86,-370,4092,18,10,808
1445371,7035876,7745864,7310939,8064603,3800,3800,5,143,239,66,-367,4100,8,2,807
1446372,7035864,7745844,7311136,8064800,3800,3800,6,146,242,62,-367,4096,8,2,807
1447373,7035860,7745836,7311333,8064997,3800,3800,7,120,242,86,-357,4089,14,11,807
1448374,7035856,7745852,7311530,8065194,3800,3800,7,113,242,70,-372,4086,14,11,807
1449375,7035876,7745856,7311727,8065391,3800,3800,7,102,242,78,-367,4084,16,12,808
1450376,7035864,7745880,7311924,8065588,3800,3800,6,127,240,69,-372,4090,16,12,808
1451377,7035860,7745860,7312121,8065785,3800,3800,6,136,239,90,-378,4066,11,3,808
1452378,7035872,7745844,7312318,8065982,3800,3800,7,146,241,82,-375,4078,11,3,808
1453379,7035880,7745840,7312515,8066179,3800,3800,6,129,242,62,-389,4092,11,7,808
1454380,7035856,7745856,7312712,8066376,3800,3800,7,117,244,84,-388,4083,11,7,808
1455381,7035868,7745856,7312909,8066573,3800,3800,6,107,242,94,-383,4119,8,13,808
1456382,7035872,7745876,7313106,8066770,3800,3800,8,121,242,96,-379,4093,8,13,808
1457383,7035856,7745864,7313303,8066967,3800,3800,9,138,241,91,-359,4074,8,3,807
1458384,7035856,7745856,7313500,8067164,3800,3800,8,151,242,112,-359,4079,8,3,807
1459385,7035868,7745840,7313697,8067361,3800,3800,8,143,242,68,-361,4090,13,10,808
