"Data file recorded 2014/9/24  18:5:46"
"%  Right Stride Frequency         = 3.0"
"%  Left Stride Frequency         = 3.0"
"%  Phase (Fractional)         = 32768.0"
"%  Experiment.py "
"%  Motor Gains    = [1800, 200, 100, 0, 0, 1800, 200, 100, 0, 0]
"% Columns: "
"% time | Right Leg Pos | Left Leg Pos | Commanded Right Leg Pos | Commanded Left Leg Pos | DCR | DCL | GyroX | GryoY | GryoZ | AX | AY | AZ | RBEMF | LBEMF | VBatt "
10526,5351008,5576540,5332708,5627620,-3800,3800,-139,-703,310,820,-506,3962,9,-8,901
11520,5351004,5576552,5332905,5627817,-3800,3800,-137,-705,311,827,-509,3967,9,-8,901
12521,5350928,5576584,5333102,5628014,-3800,3800,-137,-689,310,830,-539,3982,-5,-10,900
13522,5350784,5576636,5333299,5628211,-3800,3800,-115,-635,308,847,-371,4395,-5,-10,900
14523,5350588,5576672,5333496,5628408,-3800,3800,-75,-618,335,892,-342,4777,-32,-8,856
15524,5350284,5576744,5333693,5628605,-3800,3800,-29,-607,364,1208,-420,4577,-32,-8,856
16512,5349924,5576804,5333890,5628802,-3587,3800,2,-634,343,1736,-311,4708,-71,-6,857
17513,5349556,5576872,5334087,5628999,-3291,3800,-25,-588,333,1757,-807,4467,-71,-6,857
18514,5349088,5576976,5334284,5629196,-2377,3800,-118,-412,342,2023,-655,4432,-77,-7,859
19515,5348604,5577060,5334481,5629393,-1980,3800,-220,16,298,2791,-133,5531,-77,-7,859
20516,5348112,5577156,5334678,5629590,-1630,3800,-298,422,342,1957,-1015,4830,-80,3,863
21517,5347636,5577268,5334875,5629787,-1437,3800,-366,369,515,1684,-1170,3227,-80,3,863
22518,5347224,5577392,5335072,5629984,-1572,3800,-312,219,725,2230,-1477,4826,-96,23,870
23519,5346816,5577532,5335269,5630181,-1333,3800,-217,-25,929,1541,-552,4256,-96,23,870
24520,5346480,5577644,5335466,5630378,-1552,3800,-151,-166,1060,1400,-966,4420,-61,14,870
25521,5346132,5577784,5335663,5630575,-1239,3800,-127,-248,1068,2158,-1265,4901,-61,14,870
26522,5345840,5577896,5335860,5630772,-1376,3800,-113,-94,1019,2638,-745,5726,-56,8,871
27523,5345604,5578008,5336057,5630969,-1538,3800,-146,206,985,2229,-981,5956,-56,8,871
28524,5345388,5578148,5336254,5631166,-1482,3800,-149,548,999,1891,-1437,6152,-34,13,873
29525,5345244,5578280,5336451,5631363,-1785,3800,-149,602,1057,2060,-895,5046,-34,13,873
30526,5345100,5578408,5336648,5631560,-1637,3800,-101,613,1182,2352,-1271,5620,-31,9,871
31527,5344972,5578512,5336845,5631757,-1596,3800,-42,620,1353,2417,-2023,5335,-31,9,871
32528,5344880,5578608,5337042,5631954,-1695,3800,-22,652,1616,1271,-1417,4947,-30,21,869
33529,5344792,5578712,5337239,5632151,-1597,3800,20,752,1871,1475,-2490,5458,-30,21,869
34530,5344712,5578836,5337436,5632348,-1526,3800,118,931,2094,840,-2237,5463,-18,8,870
35531,5344644,5578928,5337633,5632545,-1486,3800,169,1120,2309,524,-1690,4601,-18,8,870
36532,5344572,5579036,5337830,5632742,-1344,3800,227,1208,2453,620,-2108,4719,-3,20,869
37533,5344508,5579156,5338027,5632939,-1281,3800,376,1250,2521,96,-1725,5485,-3,20,869
38534,5344468,5579232,5338224,5633136,-1327,3800,563,1080,2563,-228,-1363,4198,-1,3,867
39535,5344432,5579320,5338421,5633333,-1251,3800,731,706,2449,503,-711,4110,-1,3,867
40536,5344404,5579448,5338618,5633530,-1204,3800,865,399,2266,-324,-415,4402,-8,7,871
41537,5344404,5579576,5338815,5633727,-1294,3800,972,25,2128,-1718,-192,3778,-8,7,871
42538,5344396,5579676,5339012,5633924,-1155,3800,1061,-371,1977,-1578,5,3867,8,9,871
43539,5344384,5579816,5339209,5634121,-1039,3800,1130,-783,1751,-1013,0,3864,8,9,871
44540,5344388,5579936,5339406,5634318,-1055,3800,1157,-1152,1501,-1149,460,4252,7,14,872
45541,5344372,5580052,5339603,5634515,-837,3800,1112,-1520,1327,-1791,396,3682,7,14,872
46542,5344376,5580204,5339800,5634712,-878,3800,990,-1835,1152,-793,142,3942,-1,27,872
47543,5344368,5580340,5339997,5634909,-714,3800,866,-1954,1065,-1128,322,4503,-1,27,872
48544,5344372,5580492,5340194,5635106,-705,3800,752,-2127,1067,-1348,-220,3740,0,21,872
49545,5344376,5580636,5340391,5635303,-621,3800,669,-2273,1059,-727,316,4083,0,21,872
50546,5344384,5580800,5340588,5635500,-564,3800,610,-2452,1075,-961,57,3539,-9,16,874
51547,5344372,5580964,5340785,5635697,-348,3800,558,-2559,1011,-190,726,3808,-9,16,874
52548,5344392,5581120,5340982,5635894,-470,3800,459,-2733,930,206,1106,2795,7,17,875
53549,5344388,5581272,5341179,5636091,-233,3800,304,-2809,867,728,1078,2959,7,17,875
54550,5344388,5581428,5341376,5636288,-172,3800,194,-2725,877,214,916,3779,-7,21,876
55551,5344380,5581604,5341573,5636485,-32,3800,129,-2597,892,-45,759,2965,-7,21,876
56552,5344392,5581796,5341770,5636682,-77,3800,107,-2583,889,-473,726,3106,-1,35,876
57553,5344400,5582020,5341967,5636879,31,3800,131,-2654,870,-648,558,3150,-1,35,876
58554,5344416,5582236,5342164,5637076,60,3800,152,-2786,828,-848,1249,2801,-6,41,876
59555,5344436,5582468,5342361,5637273,113,3800,178,-2958,796,-1058,657,3005,-6,41,876
60556,5344432,5582712,5342558,5637470,350,3800,175,-3028,704,-171,1579,3198,16,42,877
61557,5344460,5582948,5342755,5637667,224,3800,45,-2978,676,-268,1007,2523,16,42,877
62558,5344488,5583212,5342952,5637864,299,3800,-154,-2731,725,-73,789,3178,17,39,877
63559,5344540,5583480,5343149,5638061,211,3800,-346,-2374,766,521,249,3521,17,39,877
64560,5344576,5583772,5343346,5638258,382,3800,-448,-2049,820,58,1045,3660,17,60,877
65561,5344640,5584036,5343543,5638455,265,3800,-520,-2084,893,230,1470,2034,17,60,877
66562,5344724,5584312,5343740,5638652,190,3800,-553,-2281,990,389,721,2194,5,54,878
67563,5344788,5584652,5343937,5638849,374,3800,-435,-2255,1070,637,380,4362,5,54,878
68564,5344856,5584952,5344134,5639046,404,3800,-333,-2218,1110,555,929,2251,16,51,877
69565,5344972,5585264,5344331,5639243,140,3800,-352,-2375,1128,533,1019,1049,16,51,877
70566,5345044,5585584,5344528,5639440,470,3800,-336,-2353,1159,548,746,2882,32,54,876
71567,5345136,5585856,5344725,5639637,391,3800,-230,-2182,1200,254,790,3315,32,54,876
72568,5345264,5586244,5344922,5639834,196,3800,-152,-2112,1313,-746,-112,1942,32,79,878
73569,5345372,5586684,5345119,5640031,360,3800,-128,-2097,1409,-205,889,2259,32,79,878
74570,5345484,5587052,5345316,5640228,373,3800,-84,-1839,1453,598,1891,3682,23,75,879
75571,5345608,5587516,5345513,5640425,330,3800,-74,-1633,1468,1226,-460,1807,23,75,879
76572,5345748,5588000,5345710,5640622,255,3800,-10,-1458,1410,1621,1600,3132,22,85,879
77573,5345892,5588500,5345907,5640819,253,3800,177,-1202,1477,278,1764,4303,22,85,879
78574,5346048,5589140,5346104,5641016,196,3800,284,-1207,1599,778,339,1043,23,103,879
79575,5346180,5589680,5346301,5641213,375,3800,315,-1373,1637,1457,1872,1117,23,103,879
80576,5346312,5590276,5346498,5641410,403,3800,451,-1298,1787,-266,-88,3680,37,109,879
81577,5346432,5590920,5346695,5641607,512,3800,641,-1128,1832,1467,-711,2421,37,109,879
82578,5346584,5591564,5346892,5641804,332,3800,785,-958,1724,1918,1386,2489,43,121,881
83579,5346716,5592268,5347089,5642001,485,3800,824,-811,1697,624,1518,2144,43,121,881
84580,5346840,5593088,5347286,5642198,567,3800,781,-741,1750,668,1063,1840,47,134,881
85580,5347000,5593856,5347483,5642395,359,3800,754,-491,1753,1457,810,3153,47,134,881
86581,5347180,5594704,5347680,5642592,241,3800,701,-214,1687,1570,226,2416,47,146,882
87583,5347320,5595480,5347877,5642789,516,3800,611,5,1598,1700,1444,1948,47,146,882
88584,5347460,5596432,5348074,5642986,541,3800,539,93,1574,1507,1306,2030,29,157,884
89585,5347584,5597288,5348271,5643183,674,3800,542,209,1612,1483,643,2731,29,157,884
90586,5347720,5598300,5348468,5643380,626,3800,443,95,1674,1666,-427,447,49,156,882
91587,5347860,5599336,5348665,5643577,626,3800,149,-107,1668,2717,-5065,-1170,49,156,882
92595,5347988,5600276,5349092,5644004,833,3800,-150,-22,1551,3386,-2595,1054,47,179,883
93589,5348140,5601228,5349289,5644201,702,3800,-434,487,1501,2703,-1443,1393,47,179,883
94590,5348300,5602316,5349486,5644398,669,3800,-719,1036,1437,2935,-2626,424,49,186,884
95591,5348428,5603468,5349683,5644595,900,3800,-953,1500,1361,2506,-2067,1114,49,186,884
96592,5348588,5604484,5349880,5644792,716,3800,-1081,2051,1311,2268,-3597,2007,42,189,884
97593,5348720,5605520,5350077,5644989,920,3800,-1082,2574,1232,2785,-3300,2702,42,189,884
98594,5348860,5606596,5350274,5645186,895,3800,-977,3011,1131,2774,-1228,2584,29,199,884
99595,5349024,5607680,5350471,5645383,760,3800,-1394,2342,754,5774,-7653,-7138,29,199,884
100596,5349204,5608648,5350668,5645580,668,3800,-1938,1911,340,3521,-6994,-1441,31,195,885
101597,5349344,5609732,5350865,5645777,943,3800,-2091,2475,234,934,-4436,3325,31,195,885
102598,5349456,5610724,5351062,5645974,1155,3800,-2026,3122,73,1732,-3337,675,41,190,883
103599,5349616,5611668,5351259,5646171,873,3800,-1792,3440,7,-1353,-1682,2052,41,190,883
104600,5349788,5612520,5351456,5646368,809,3800,-1426,3404,-126,-957,-2693,2790,31,193,882
105601,5349936,5613484,5351653,5646565,980,3800,-1033,3025,-388,-688,-2702,2129,31,193,882
106602,5350112,5614592,5351850,5646762,815,3800,-588,2510,-607,-2009,-1608,3020,32,182,884
107603,5350264,5615556,5352047,5646959,985,3800,-172,2056,-802,-2479,-1963,4259,32,182,884
108604,5350424,5616528,5352244,5647156,951,3800,59,1649,-1123,-2032,1634,2954,38,186,883
109605,5350556,5617516,5352441,5647353,1156,3800,-174,1193,-1550,-3025,2509,1248,38,186,883
110606,5350724,5618528,5352638,5647550,944,3800,-398,787,-1849,-4826,-1082,4417,45,186,883
111607,5350868,5619420,5352835,5647747,1117,3800,-74,577,-1959,-4582,-2274,10711,45,186,883
112608,5351052,5620348,5353032,5647944,874,3800,357,-608,-1961,-3862,-3134,4402,35,179,881
113609,5351244,5621292,5353229,5648141,826,3800,660,-1662,-2023,-42,-3246,8781,35,179,881
114610,5351440,5622200,5353426,5648338,802,3800,879,-2149,-2277,2915,963,8251,53,166,880
115611,5351632,5623124,5353623,5648535,829,3800,1069,-2759,-2512,3770,-456,4229,53,166,880
116612,5351856,5624128,5353820,5648732,618,3800,1557,-3006,-2536,4593,-4320,9495,34,174,883
117613,5352000,5625236,5354017,5648929,1142,3800,2044,-2075,-2129,3012,185,11993,34,174,883
118614,5352160,5626280,5354214,5649126,1058,3800,2095,-678,-1473,2170,-2014,8264,53,177,884
119615,5352328,5627344,5354411,5649323,1021,3800,1746,-347,-1416,9316,-1732,3118,53,177,884
120616,5352476,5628284,5354608,5649520,1168,3800,1548,165,-1716,10162,313,9659,34,202,884
121617,5352636,5629376,5354805,5649717,1110,3800,1704,1291,-1350,4255,-2861,11273,34,202,884
122605,5352832,5630620,5355002,5649914,886,2941,1950,1351,-740,6771,-3795,4545,55,214,885
123606,5353000,5631916,5355199,5650111,1074,2136,2208,795,-306,6477,-865,6169,55,214,885
124607,5353160,5633040,5355396,5650308,1141,2808,2502,816,296,3506,28,9840,38,225,884
125608,5353312,5634088,5355593,5650505,1211,2912,2793,1684,1199,2169,-1776,10935,38,225,884
126609,5353508,5635068,5355790,5650702,936,2996,2958,2280,1928,3077,339,8184,37,224,890
127610,5353640,5635964,5355987,5650899,1366,3217,2660,1768,2239,3919,578,690,37,224,890
128611,5353780,5636832,5356184,5651096,1341,3100,2147,931,2366,4047,-575,2356,34,184,887
129612,5353968,5637560,5356381,5651293,1046,3745,1666,744,2510,3365,1175,5900,34,184,887
130625,5354124,5638208,5356578,5651490,1264,3800,756,700,2413,2101,1110,228,50,149,883
131626,5354264,5638836,5356775,5651687,1390,3800,-136,1360,2322,471,-2788,8520,50,149,883
132628,5354396,5639428,5356972,5651884,1469,3800,-641,2249,2318,-2190,-1357,11808,25,121,880
133629,5354544,5639944,5357169,5652081,1391,3800,-1093,1194,2342,-5988,-899,2198,25,121,880
134630,5354664,5640440,5357366,5652278,1600,3800,-1189,-650,2385,-6604,-4606,11170,30,112,876
135630,5354784,5640848,5357563,5652475,1635,3800,-990,-2203,2057,-3210,-5506,12324,30,112,876
136632,5354896,5641216,5357760,5652672,1722,3800,-1251,-3240,1289,-2227,-714,8045,34,76,874
137633,5355016,5641548,5357957,5652869,1707,3800,-1827,-3075,376,-1583,3527,10864,34,76,874
138634,5355128,5641860,5358154,5653066,1794,3800,-2235,-2694,-499,-1400,5056,10512,21,65,873
139635,5355272,5642160,5358351,5653263,1619,3800,-2373,-3119,-1154,-1494,2607,6882,21,65,873
140636,5355400,5642400,5358548,5653460,1749,3800,-2283,-3909,-1362,-1533,462,7272,18,57,871
141637,5355508,5642600,5358745,5653657,1914,3800,-2132,-4501,-1207,-615,76,6041,18,57,871
142638,5355640,5642780,5358942,5653854,1794,3800,-1844,-5002,-941,95,1167,5862,22,46,871
143639,5355732,5642956,5359139,5654051,2090,3800,-1380,-5270,-706,1076,-359,8244,22,46,871
144640,5355848,5643084,5359336,5654248,1976,3800,-1051,-5213,-627,3432,-1678,8323,15,39,868
145641,5355984,5643284,5359533,5654445,1879,3800,-928,-5192,-583,3188,-181,6758,15,39,868
146641,5356080,5643444,5359730,5654642,2174,3800,-875,-5339,-413,1692,121,5971,34,29,867
147643,5356212,5643620,5359927,5654839,1978,3800,-772,-5177,-230,1374,1612,7662,34,29,867
148644,5356336,5643796,5360124,5655036,2061,3800,-739,-4918,-124,1777,581,5127,22,38,869
149645,5356448,5643988,5360321,5655233,2174,3800,-780,-4763,36,1192,239,3675,22,38,869
150646,5356580,5644204,5360518,5655430,2078,3800,-729,-4669,310,969,-73,4102,16,47,869
151646,5356708,5644416,5360715,5655627,2134,3800,-525,-4580,544,2301,377,4810,16,47,869
152648,5356872,5644684,5360912,5655824,1925,3800,-237,-4411,777,1935,1234,5138,43,43,868
153649,5357012,5644920,5361109,5656021,2100,3800,22,-4392,1009,1242,762,4059,43,43,868
154650,5357180,5645192,5361306,5656218,1939,3800,269,-4593,1140,1434,1251,3451,45,59,868
155651,5357328,5645464,5361503,5656415,2086,3800,557,-4791,1276,1642,3132,4186,45,59,868
156652,5357464,5645780,5361700,5656612,2189,3800,818,-4811,1509,2005,3237,4502,26,61,868
157653,5357628,5646084,5361897,5656809,2030,3800,953,-4914,1770,2150,1833,2934,26,61,868
158654,5357788,5646400,5362094,5657006,2071,3800,988,-5101,1989,1913,-1234,2801,36,54,869
159655,5357960,5646684,5362291,5657203,2008,3800,1045,-5012,2186,1079,-1697,4104,36,54,869
160656,5358128,5646988,5362488,5657400,2047,3800,1161,-4810,2275,2144,1856,4505,33,56,869
161657,5358312,5647288,5362685,5657597,1953,3800,1120,-4967,2332,1847,1318,986,33,56,869
162658,5358468,5647628,5362882,5657794,2147,3800,1024,-5072,2563,83,844,3209,46,55,870
163659,5358612,5647932,5363079,5657991,2247,3800,1016,-4728,2761,982,1084,4928,46,55,870
164660,5358788,5648224,5363276,5658188,2056,3800,1003,-4185,2817,1089,1365,4118,36,66,870
165661,5358948,5648480,5363473,5658385,2173,3800,820,-3866,2926,-456,672,2290,36,66,870
166662,5359084,5648756,5363670,5658582,2351,3800,534,-3546,3053,-575,430,3212,24,57,868
167663,5359276,5649080,5363867,5658779,2004,3800,202,-2949,3180,-782,-130,4110,24,57,868
168664,5359428,5649340,5364064,5658976,2275,3800,-199,-2215,3266,-588,-723,3271,24,61,867
169665,5359576,5649596,5364261,5659173,2322,3800,-684,-1643,3293,-1469,-696,2520,24,61,867
170666,5359728,5649872,5364458,5659370,2318,3800,-1147,-1134,3278,-3615,-93,2994,35,58,870
171667,5359864,5650148,5364655,5659567,2446,3800,-1600,-455,3211,-3814,-146,4198,35,58,870
172668,5359976,5650420,5364852,5659764,2633,3800,-2089,253,3069,-2812,-751,3268,23,48,868
173669,5360100,5650728,5365049,5659961,2591,3800,-2524,624,2876,-2060,-171,2201,23,48,868
174670,5360248,5651000,5365246,5660158,2464,3800,-2777,609,2786,-2429,-478,1092,40,46,866
175678,5360384,5651260,5365476,5660388,2581,3800,-2855,217,2969,-3365,-7027,-276,40,46,866
176672,5360564,5651548,5365673,5660585,2315,3800,-2494,-333,2879,15,-2481,2271,30,48,866
177673,5360756,5651896,5365870,5660782,2243,3800,-1962,-1039,2907,-2770,-830,738,30,48,866
178674,5360960,5652260,5366067,5660979,2166,3800,-1482,-1686,3069,-2055,-87,824,50,68,865
179675,5361148,5652596,5366264,5661176,2271,3800,-1093,-1877,3186,271,-1485,3068,50,68,865
180663,5361356,5653020,5366461,5661373,2142,3383,-842,-1906,3200,1298,-1589,1491,34,68,868
181664,5361560,5653468,5366658,5661570,2165,3125,-741,-1968,3147,976,-137,1542,34,68,868
182665,5361728,5653904,5366855,5661767,2404,3097,-608,-1722,3154,-586,1521,3848,53,80,870
183666,5361976,5654408,5367052,5661964,1882,2538,-493,-1629,3204,-124,465,1380,53,80,870
184667,5362212,5654968,5367249,5662161,1941,2029,-479,-1626,3240,597,-1316,1236,47,85,876
185668,5362424,5655420,5367446,5662358,2085,2594,-467,-1270,3371,-426,-3261,3605,47,85,876
186669,5362672,5655936,5367643,5662555,1839,2055,-458,-680,3423,370,-2634,2788,61,88,881
187670,5362888,5656452,5367840,5662752,2032,1916,-495,-445,3392,763,-1892,534,61,88,881
188671,5363136,5656924,5368037,5662949,1810,2072,-427,-209,3366,479,208,2971,40,102,880
189672,5363396,5657512,5368234,5663146,1709,1176,-322,119,3427,136,186,2427,40,102,880
190673,5363636,5658004,5368431,5663343,1816,1648,-328,82,3412,1115,-1208,-748,62,104,882
191674,5363876,5658528,5368628,5663540,1798,1305,-212,284,3376,-204,102,3265,62,104,882
192675,5364140,5659048,5368825,5663737,1618,1189,-62,565,3326,300,-479,2462,56,104,889
193676,5364348,5659488,5369022,5663934,1965,1583,9,748,3111,2058,812,1282,56,104,889
194677,5364608,5660008,5369219,5664131,1613,942,43,912,3037,-145,795,2519,61,93,888
195678,5364832,5660528,5369416,5664328,1827,800,68,948,3039,392,-704,757,61,93,888
196679,5365080,5660944,5369613,5664525,1656,1355,79,936,2919,1412,338,1376,49,93,886
197680,5365312,5661428,5369810,5664722,1741,805,114,1104,2833,835,-203,2306,49,93,886
198681,5365528,5661916,5370007,5664919,1834,652,80,1307,2872,852,-1158,1265,41,91,889
199682,5365776,5662328,5370204,5665116,1612,1034,4,1420,2842,2045,469,927,41,91,889
200683,5366020,5662852,5370401,5665313,1617,190,-31,1682,2860,1096,422,2541,59,83,889
201684,5366284,5663348,5370598,5665510,1463,235,-1,1951,2888,930,-215,1795,59,83,889
202685,5366556,5663728,5370795,5665707,1381,879,91,2051,2856,1150,93,1415,62,84,888
203686,5366792,5664164,5370992,5665904,1590,425,199,2214,2709,1975,807,2076,62,84,888
204687,5367020,5664596,5371189,5666101,1628,347,186,2411,2552,2456,507,1466,46,77,893
205688,5367232,5665000,5371386,5666298,1721,431,153,2673,2485,1584,851,1536,46,77,893
206689,5367460,5665336,5371583,5666495,1608,796,124,2839,2541,682,-597,1637,44,71,892
207690,5367700,5665744,5371780,5666692,1515,253,195,2961,2514,2017,-1317,1289,44,71,892
208691,5367940,5666104,5371977,5666889,1498,481,365,3135,2465,1479,-999,2539,56,64,891
209692,5368140,5666384,5372174,5667086,1747,945,542,3321,2473,1400,136,1714,56,64,891
210693,5368360,5666664,5372371,5667283,1612,909,547,3256,2587,560,-755,27,56,58,893
211694,5368604,5666984,5372568,5667480,1442,604,561,3230,2678,46,-1171,1216,56,58,893
212695,5368844,5667272,5372765,5667677,1450,764,705,3300,2726,-565,-1281,2451,57,59,888
213696,5369128,5667504,5372962,5667874,1137,1100,929,3231,2779,-1167,-560,2001,57,59,888
214697,5369404,5667720,5373159,5668071,1153,1192,1112,2717,2797,-811,-1658,147,44,38,892
215698,5369692,5667924,5373356,5668268,1039,1264,1363,2197,2733,-566,-1588,2891,44,38,892
216699,5369940,5668172,5373553,5668465,1267,966,1656,1898,2546,-620,-1077,3623,62,36,892
217700,5370172,5668440,5373750,5668662,1352,810,1743,1271,2367,-1327,-775,1313,62,36,892
218701,5370504,5668652,5373947,5668859,669,1153,1761,704,2267,-2359,-941,3331,55,38,892
219702,5370752,5668864,5374144,5669056,1172,1147,1727,247,2117,-2253,-2336,3530,55,38,892
220703,5371024,5669052,5374341,5669253,989,1301,1547,-47,1938,-3130,-3547,3438,50,48,892
221704,5371268,5669240,5374538,5669450,1145,1305,1320,-42,1569,-2983,409,5777,50,48,892
222705,5371524,5669424,5374735,5669647,1045,1335,1002,-148,1057,-2950,719,4531,41,39,890
223706,5371772,5669640,5374932,5669844,1072,1127,783,-561,559,-3606,-1400,5014,41,39,890
224707,5372028,5669896,5375129,5670041,997,851,593,-829,92,-2579,-1439,6786,58,47,890
225708,5372228,5670092,5375326,5670238,1346,1227,331,-931,-504,-1342,2545,5387,58,47,890
226709,5372436,5670296,5375523,5670435,1292,1174,132,-1355,-1109,-1471,1794,5421,36,30,892
227710,5372680,5670464,5375720,5670632,1047,1411,66,-1961,-1641,-527,-1308,6419,36,30,892
228711,5372908,5670636,5375917,5670829,1134,1397,42,-2616,-2123,621,-1363,5969,34,27,890
229712,5373120,5670784,5376114,5671026,1228,1569,-140,-2935,-2494,585,-1152,5894,34,27,890
230713,5373340,5670948,5376311,5671223,1168,1483,-480,-2651,-2772,745,22,6325,36,30,891
231714,5373536,5671120,5376508,5671420,1320,1444,-866,-1961,-2989,659,1542,6414,36,30,891
232715,5373756,5671280,5376705,5671617,1160,1536,-1130,-1557,-3157,670,237,4983,48,26,889
233716,5373920,5671464,5376902,5671814,1525,1391,-1299,-1824,-3215,757,-1231,3989,48,26,889
234717,5374168,5671624,5377099,5672011,979,1559,-1322,-2282,-3149,1213,-1597,4881,45,25,887
235718,5374376,5671724,5377296,5672208,1224,1976,-1226,-2708,-2946,1018,-1307,5496,45,25,887
236719,5374536,5671840,5377493,5672405,1541,1912,-1049,-3472,-2691,1070,-1956,3096,31,24,888
237720,5374752,5671964,5377690,5672602,1183,1894,-805,-4313,-2540,2522,-2358,4430,31,24,888
238721,5374956,5672076,5377887,5672799,1256,2006,-560,-4743,-2500,3224,-1639,5372,31,31,886
239722,5375148,5672196,5378084,5672996,1333,1990,-604,-4869,-2418,1903,228,3615,31,31,886
240723,5375320,5672304,5378281,5673193,1470,2104,-980,-4762,-2125,419,-1981,2416,34,17,887
241724,5375492,5672460,5378478,5673390,1482,1822,-1299,-4282,-1920,1899,-548,5266,34,17,887
242725,5375616,5672640,5378675,5673587,1814,1681,-1390,-3840,-1909,3028,-678,4930,39,37,886
243726,5375768,5672772,5378872,5673784,1660,2009,-1169,-3171,-2285,7224,-2927,8276,39,37,886
244727,5375876,5672960,5379069,5673981,1974,1663,-744,-2407,-2695,7536,-417,8594,29,23,884
245728,5376008,5673088,5379266,5674178,1853,2069,-415,-2047,-2813,5532,2593,6402,29,23,884
246729,5376192,5673220,5379463,5674375,1535,2072,-215,-2250,-2541,2825,2501,4566,33,20,883
247730,5376336,5673352,5379660,5674572,1808,2102,-184,-2818,-1987,1484,-4329,1951,33,20,883
248731,5376520,5673484,5379857,5674769,1565,2130,-208,-2965,-1322,2000,-5792,4054,37,29,882
249732,5376668,5673592,5380054,5674966,1811,2319,37,-2001,-768,4194,2002,11426,37,29,882
250733,5376848,5673768,5380251,5675163,1620,1904,220,-916,-395,4711,-245,7136,22,19,882
251734,5376992,5673864,5380448,5675360,1869,2449,68,-574,-117,4262,-2716,3665,22,19,882
252735,5377148,5673980,5380645,5675557,1812,2360,-150,-370,102,3694,-2952,5201,26,31,881
253736,5377292,5674096,5380842,5675754,1912,2395,-100,208,404,3428,-660,8119,26,31,881
254737,5377416,5674196,5381039,5675951,2070,2538,71,921,813,4555,-1900,6950,38,14,878
255738,5377592,5674300,5381236,5676148,1754,2555,201,1415,1191,4395,-1770,5967,38,14,878
256739,5377756,5674404,5381433,5676345,1844,2595,359,1618,1579,2665,-1896,6050,20,27,878
257740,5377920,5674516,5381630,5676542,1860,2583,595,1640,1934,2424,-1839,6034,20,27,878
258750,5378096,5674592,5381860,5676772,1810,2877,845,1556,2245,2217,-1396,5635,23,23,879
259742,5378288,5674696,5382057,5676969,1712,2742,994,1447,2504,1829,-1573,5014,23,23,879
260743,5378484,5674812,5382254,5677166,1688,2704,1058,1451,2700,1782,-1384,5510,40,12,879
261744,5378688,5674920,5382451,5677363,1636,2793,1001,1268,2884,1345,-1957,3735,40,12,879
262745,5378892,5675032,5382648,5677560,1633,2806,928,890,3086,1106,-2337,4008,43,32,878
263746,5379080,5675160,5382845,5677757,1738,2737,1009,564,3245,1200,-1447,5191,43,32,878
264747,5379276,5675260,5383042,5677954,1689,2955,1108,226,3269,1550,-587,3960,32,19,878
265748,5379476,5675420,5383239,5678151,1664,2597,1212,37,3209,604,-1570,5374,32,19,878
266749,5379692,5675552,5383436,5678348,1556,2801,1213,73,3189,148,-1297,5387,46,34,877
267750,5379904,5675700,5383633,5678545,1575,2723,1102,179,3147,487,192,4224,46,34,877
268751,5380140,5675844,5383830,5678742,1409,2772,1022,-57,2985,223,8,4115,30,24,878
269752,5380340,5675980,5384027,5678939,1633,2849,1024,-634,2709,-62,-435,3892,30,24,878
270753,5380584,5676140,5384224,5679136,1338,2716,1075,-1234,2350,53,-251,4336,49,39,879
271754,5380832,5676308,5384421,5679333,1292,2679,1005,-1685,2001,-293,1342,3223,49,39,879
272755,5381092,5676540,5384618,5679530,1189,2264,788,-2002,1706,488,1769,1678,55,48,878
273756,5381320,5676760,5384815,5679727,1376,2330,498,-1976,1408,1906,749,2545,55,48,878
274757,5381576,5676972,5385012,5679924,1176,2374,194,-1634,1136,1538,795,2542,38,35,881
275758,5381820,5677224,5385209,5680121,1231,2101,-33,-1231,947,642,167,3037,38,35,881
276759,5382044,5677460,5385406,5680318,1345,2183,-95,-861,996,-716,-395,3984,38,55,883
277760,5382276,5677668,5385603,5680515,1281,2355,-133,-929,1132,204,-446,1422,38,55,883
278761,5382508,5677956,5385800,5680712,1265,1815,-101,-1273,1240,945,-1144,2795,48,56,884
279762,5382716,5678216,5385997,5680909,1411,1963,-4,-1841,1227,1711,-1401,2627,48,56,884
280763,5382928,5678488,5386194,5681106,1381,1855,94,-2463,1032,2618,-1075,2173,54,61,884
281764,5383148,5678752,5386391,5681303,1321,1877,165,-2953,789,2307,-534,3148,54,61,884
282765,5383336,5679016,5386588,5681500,1526,1847,187,-3152,725,876,-574,3690,44,64,886
283767,5383512,5679320,5386785,5681697,1610,1551,88,-3157,640,1923,-692,3156,44,64,886
284767,5383668,5679572,5386982,5681894,1754,1852,-161,-2945,521,1457,-533,3055,33,55,887
285768,5383844,5679852,5387179,5682091,1639,1641,-367,-2352,541,58,-217,4822,33,55,887
286769,5383984,5680104,5387376,5682288,1889,1792,-539,-1868,535,1652,-579,3482,38,42,887
287770,5384128,5680336,5387573,5682485,1888,1903,-646,-1722,434,2603,-494,2542,38,42,887
288771,5384296,5680608,5387770,5682682,1752,1620,-561,-1717,358,2793,674,3593,29,61,884
289772,5384456,5680904,5387967,5682879,1818,1426,-419,-1764,379,2022,-1208,2742,29,61,884
290773,5384608,5681172,5388164,5683076,1889,1571,-326,-1770,327,2037,-327,2450,24,61,883
291774,5384776,5681412,5388361,5683273,1803,1727,-238,-1648,269,844,810,3515,24,61,883
292775,5384924,5681648,5388558,5683470,1949,1735,-113,-1433,333,223,-246,3931,35,54,886
293776,5385068,5681892,5388755,5683667,1999,1666,-18,-1396,425,1682,-173,2919,35,54,886
294777,5385244,5682184,5388952,5683864,1809,1324,20,-1500,539,1675,-545,2809,21,57,885
295778,5385396,5682424,5389149,5684061,1979,1630,80,-1605,608,2111,-713,3464,21,57,885
296779,5385568,5682616,5389346,5684258,1866,1933,229,-1514,646,2485,15,4938,33,52,884
297780,5385720,5682816,5389543,5684455,2012,1882,417,-1223,785,1821,-1187,5410,33,52,884
298781,5385880,5682992,5389740,5684652,1979,2041,504,-897,871,2984,-705,4681,26,47,884
299782,5386012,5683208,5389937,5684849,2182,1784,443,-516,919,2680,-793,4446,26,47,884
300783,5386160,5683400,5390134,5685046,2105,1936,325,-170,911,2794,-1116,4225,38,31,882
301784,5386340,5683592,5390331,5685243,1913,1938,323,195,899,2671,-80,4914,38,31,882
302785,5386504,5683784,5390528,5685440,2029,1941,413,581,979,2125,-544,4591,20,38,881
303786,5386652,5683992,5390725,5685637,2150,1836,500,790,1119,1584,-1008,3363,20,38,881
304787,5386844,5684164,5390922,5685834,1879,2072,540,896,1284,750,-69,3326,44,42,882
305788,5386988,5684344,5391119,5686031,2203,2031,498,917,1340,1316,-776,2564,44,42,882
306789,5387172,5684504,5391316,5686228,1960,2172,482,1042,1398,827,-778,3680,27,41,882
307790,5387388,5684724,5391513,5686425,1751,1787,557,1319,1463,1214,-324,4235,27,41,882
308791,5387568,5684956,5391710,5686622,1985,1698,578,1564,1508,1116,-644,3519,34,47,881
309792,5387736,5685176,5391907,5686819,2073,1763,492,1841,1593,179,-889,3342,34,47,881
310793,5387932,5685400,5392104,5687016,1900,1726,391,2176,1679,678,-78,4034,46,40,883
311794,5388104,5685660,5392301,5687213,2062,1473,353,2594,1737,1238,37,4495,46,40,883
312795,5388296,5685868,5392498,5687410,1939,1794,352,2984,1771,1033,378,4124,34,45,882
313796,5388492,5686128,5392695,5687607,1916,1441,365,3276,1887,155,-264,3888,34,45,882
314797,5388728,5686388,5392892,5687804,1649,1414,400,3427,2013,589,-633,3610,34,52,884
315798,5388912,5686672,5393089,5688001,1981,1227,423,3512,2066,924,342,3940,34,52,884
316799,5389116,5687036,5393286,5688198,1854,653,455,3686,2112,188,352,4419,29,42,886
317800,5389300,5687268,5393483,5688395,1985,1463,499,3691,2164,-321,-1002,3698,29,42,886
318801,5389476,5687440,5393680,5688592,2045,1849,577,3501,2168,-482,-387,3560,49,59,887
319802,5389628,5687620,5393877,5688789,2216,1806,562,3087,2167,-842,-132,2297,49,59,887
320803,5389824,5687828,5394074,5688986,1942,1627,465,2445,2162,-447,741,736,38,36,885
321804,5389944,5688032,5394271,5689183,2452,1649,525,2210,2185,45,1632,4778,38,36,885
322805,5390136,5688316,5394468,5689380,2004,1111,685,2038,2283,-1220,66,3242,37,42,881
323806,5390356,5688568,5394665,5689577,1820,1287,807,1753,2299,-952,1335,3230,37,42,881
324807,5390568,5688796,5394862,5689774,1865,1424,950,1662,2247,-1260,811,5063,40,52,881
325808,5390756,5689020,5395059,5689971,2019,1437,1013,1613,2209,-1448,507,4109,40,52,881
326809,5390948,5689320,5395256,5690168,1998,917,939,1535,2232,-1632,194,2957,47,49,887
327810,5391120,5689632,5395453,5690365,2135,792,866,1477,2248,-1464,-128,4314,47,49,887
328811,5391300,5689880,5395650,5690562,2092,1169,791,1406,2204,-1508,-602,3933,47,50,885
329812,5391492,5690132,5395847,5690759,2020,1120,633,1070,2122,-1845,1,2097,47,50,885
330813,5391660,5690388,5396044,5690956,2184,1069,432,811,2011,-2049,175,3922,41,51,887
331814,5391828,5690644,5396241,5691153,2198,1044,218,789,1809,-1652,188,4758,41,51,887
332815,5391992,5690864,5396438,5691350,2238,1259,-44,738,1467,-1415,734,3795,27,44,886
333816,5392160,5691080,5396635,5691547,2227,1276,-289,957,1083,-1194,411,6171,27,44,886
334817,5392296,5691308,5396832,5691744,2454,1187,-522,1213,727,-727,941,6134,31,37,884
335818,5392456,5691564,5397029,5691941,2321,986,-759,1377,441,-352,1027,5455,31,37,884
336819,5392608,5691816,5397226,5692138,2392,987,-924,1455,262,19,335,6256,26,46,884
337820,5392768,5692060,5397423,5692335,2359,1016,-978,1549,188,37,179,6246,26,46,884
338821,5392936,5692296,5397620,5692532,2323,1049,-1010,1491,181,227,881,4853,38,55,885
339822,5393104,5692548,5397817,5692729,2337,925,-1020,1348,234,361,444,4398,38,55,885
340823,5393268,5692772,5398014,5692926,2377,1088,-976,1416,293,871,616,5284,26,55,884
341831,5393436,5692992,5398244,5693156,2380,1118,-1023,1511,317,1129,1561,3324,26,55,884
342825,5393588,5693196,5398441,5693353,2501,1214,-1100,1506,375,188,11,3477,29,38,885
343826,5393756,5693388,5398638,5693550,2414,1292,-979,1564,420,229,-1736,5732,29,38,885
344827,5393912,5693560,5398835,5693747,2508,1428,-761,1450,427,68,-1744,4705,25,43,883
345828,5394088,5693724,5399032,5693944,2393,1492,-574,1226,435,-663,-1502,4926,25,43,883
346829,5394256,5693872,5399229,5694141,2457,1614,-388,1080,454,-1546,-1953,6292,35,24,882
347830,5394424,5694012,5399426,5694338,2471,1689,-259,966,308,-1488,-1503,5813,35,24,882
348832,5394576,5694196,5399623,5694535,2591,1419,-217,744,-99,-1128,580,5719,40,36,882
349832,5394736,5694404,5399820,5694732,2559,1266,-239,403,-579,-1365,1059,5946,40,36,882
350833,5394908,5694608,5400017,5694929,2496,1288,-266,-103,-985,-837,-365,5770,47,29,881
351834,5395088,5694824,5400214,5695126,2454,1204,-305,-587,-1301,-19,143,6241,47,29,881
352835,5395224,5695000,5400411,5695323,2757,1463,-423,-877,-1477,-557,280,5496,42,27,882
353836,5395368,5695204,5400608,5695520,2731,1285,-574,-811,-1452,-883,-342,6242,42,27,882
354837,5395520,5695404,5400805,5695717,2702,1309,-675,-454,-1304,-727,-997,6166,36,46,882
355838,5395664,5695596,5401002,5695914,2776,1361,-729,-161,-1265,1205,-1801,5252,36,46,882
356839,5395812,5695820,5401199,5696111,2774,1149,-688,37,-1293,1506,-2807,5787,36,36,879
357840,5395940,5696060,5401396,5696308,2930,1030,-519,26,-1343,817,-2650,5436,36,36,879
358841,5396104,5696224,5401593,5696505,2721,1520,-348,-212,-1386,125,-2292,4184,38,31,880
359842,5396240,5696404,5401790,5696702,2923,1427,-264,-422,-1391,-523,-2304,4065,38,31,880
360843,5396412,5696552,5401987,5696899,2710,1649,-285,-444,-1421,-486,-2023,4188,30,40,880
361844,5396592,5696696,5402184,5697096,2669,1697,-370,-245,-1497,-652,-1500,4265,30,40,880
362845,5396788,5696832,5402381,5697293,2570,1774,-487,1,-1600,-981,-914,4752,45,21,878
363846,5396964,5696940,5402578,5697490,2706,1988,-586,244,-1733,-639,-2042,5492,45,21,878
364847,5397152,5697072,5402775,5697687,2636,1867,-600,337,-1917,142,-1587,6116,27,17,879
365848,5397336,5697196,5402972,5697884,2668,1950,-596,137,-2060,15,-1784,4827,27,17,879
366849,5397512,5697332,5403169,5698081,2728,1902,-558,-237,-2191,841,-1604,5085,47,22,875
367850,5397720,5697488,5403366,5698278,2525,1795,-490,-489,-2316,1455,-1173,5653,47,22,875
368851,5397892,5697620,5403563,5698475,2762,1973,-488,-661,-2299,363,-1343,4269,40,30,878
369852,5398096,5697732,5403760,5698672,2560,2136,-489,-595,-2222,942,-955,5576,40,30,878
370853,5398320,5697860,5403957,5698869,2424,2066,-520,-426,-2131,560,-524,4301,48,29,879
371854,5398516,5697956,5404154,5699066,2600,2311,-597,-380,-2044,248,-809,3278,48,29,879
372855,5398736,5698044,5404351,5699263,2441,2409,-581,-222,-2009,390,-1231,5049,53,22,877
373856,5398976,5698148,5404548,5699460,2298,2350,-473,-148,-2029,421,-853,3960,53,22,877
374857,5399196,5698248,5404745,5699657,2414,2418,-372,-360,-2115,1011,-312,3054,33,16,875
375858,5399412,5698372,5404942,5699854,2432,2301,-263,-549,-2277,2045,-936,3861,33,16,875
376859,5399628,5698492,5405139,5700051,2424,2360,-169,-667,-2287,477,-1212,3590,35,21,876
377860,5399876,5698612,5405336,5700248,2203,2393,-141,-758,-2177,6,-442,2575,35,21,876
378861,5400132,5698736,5405533,5700445,2128,2401,-197,-781,-2136,1276,-57,2737,41,20,875
379862,5400368,5698856,5405730,5700642,2237,2460,-300,-556,-2095,749,-180,3107,41,20,875
380863,5400632,5698980,5405927,5700839,2033,2467,-397,-352,-2012,192,-644,2980,39,24,878
381864,5400864,5699096,5406124,5701036,2219,2553,-455,-149,-1960,423,-983,3172,39,24,878
382865,5401128,5699224,5406321,5701233,1991,2509,-450,-75,-1935,242,-1781,3088,52,24,878
383866,5401412,5699324,5406518,5701430,1828,2727,-386,-173,-1994,1217,-987,3006,52,24,878
384867,5401680,5699448,5406715,5701627,1898,2610,-305,-380,-2057,1080,-1063,2574,60,36,877
385868,5401936,5699568,5406912,5701824,1948,2669,-217,-627,-2025,612,-1105,2846,60,36,877
386869,5402244,5699712,5407109,5702021,1575,2542,-146,-752,-1966,912,-555,2463,53,29,878
387870,5402520,5699832,5407306,5702218,1742,2727,-183,-957,-1860,37,63,1588,53,29,878
388871,5402792,5699968,5407503,5702415,1735,2654,-214,-917,-1759,220,-608,2756,54,33,876
389872,5403112,5700096,5407700,5702612,1382,2735,-219,-704,-1694,383,-263,3425,54,33,876
390873,5403412,5700220,5407897,5702809,1462,2792,-224,-697,-1655,72,-18,1485,47,25,878
391874,5403672,5700344,5408094,5703006,1686,2825,-205,-901,-1645,147,-532,1877,47,25,878
392875,5403968,5700472,5408291,5703203,1418,2831,-113,-1056,-1687,434,-999,3241,69,35,879
393876,5404292,5700600,5408488,5703400,1187,2862,-31,-1250,-1728,563,-596,2069,69,35,879
394877,5404580,5700740,5408685,5703597,1373,2812,4,-1464,-1712,577,-525,2006,55,27,878
395878,5404852,5700880,5408882,5703794,1441,2838,5,-1518,-1645,365,-636,2857,55,27,878
396879,5405180,5701036,5409079,5703991,1035,2756,-16,-1536,-1508,-306,-604,2019,50,27,879
397880,5405456,5701188,5409276,5704188,1326,2802,-39,-1616,-1425,368,-437,2111,50,27,879
398881,5405720,5701336,5409473,5704385,1372,2849,-4,-1655,-1425,752,-96,2741,49,25,878
399882,5406020,5701512,5409670,5704582,1103,2684,64,-1767,-1381,9,-564,1981,49,25,878
400883,5406296,5701648,5409867,5704779,1219,2961,138,-1950,-1309,106,-411,2322,50,30,879
401884,5406572,5701800,5410064,5704976,1184,2881,191,-2130,-1271,283,-837,2041,50,30,879
402885,5406864,5701960,5410261,5705173,1043,2848,219,-2236,-1283,466,-736,2334,65,27,881
403886,5407100,5702124,5410458,5705370,1377,2839,251,-2266,-1297,160,-398,2665,65,27,881
404887,5407392,5702292,5410655,5705567,985,2827,277,-2373,-1320,378,-302,2033,49,40,879
405888,5407672,5702460,5410852,5705764,1025,2840,274,-2472,-1274,148,-482,2339,49,40,879
406889,5407936,5702632,5411049,5705961,1097,2826,295,-2564,-1167,342,-461,2514,60,42,879
407890,5408176,5702784,5411246,5706158,1228,2972,285,-2773,-1091,810,-110,1768,60,42,879
408891,5408408,5702960,5411443,5706355,1263,2832,292,-2990,-1008,577,-378,2141,55,31,881
409892,5408648,5703116,5411640,5706552,1194,2975,314,-3092,-899,409,-780,2925,55,31,881
410893,5408880,5703300,5411837,5706749,1230,2807,286,-3067,-781,438,-371,2583,61,45,878
411894,5409104,5703452,5412034,5706946,1268,3028,205,-3077,-680,700,110,2288,61,45,878
412895,5409384,5703624,5412231,5707143,883,2914,153,-3075,-640,1057,169,3168,55,28,879
413896,5409636,5703800,5412428,5707340,1034,2899,141,-3112,-634,1249,-198,3029,55,28,879
414897,5409860,5703972,5412625,5707537,1198,2936,169,-3215,-614,1017,386,3359,59,27,878
415898,5410100,5704128,5412822,5707734,1080,3054,194,-3467,-505,345,269,2686,59,27,878
416899,5410348,5704300,5413019,5707931,1007,2966,208,-3764,-413,771,685,2927,36,38,880
417900,5410576,5704448,5413216,5708128,1120,3139,174,-3945,-334,489,639,3081,36,38,880
418901,5410840,5704588,5413413,5708325,865,3214,105,-4021,-262,493,799,3006,38,26,878
419902,5411080,5704756,5413610,5708522,997,3052,7,-4016,-227,1013,298,3287,38,26,878
420903,5411304,5704944,5413807,5708719,1085,2932,-70,-3901,-224,1105,226,3621,49,44,876
421904,5411556,5705128,5414004,5708916,887,2964,-130,-3817,-163,660,90,3911,49,44,876
422905,5411792,5705316,5414201,5709113,970,2943,-133,-3780,-29,477,204,3986,37,30,878
423906,5411992,5705488,5414398,5709310,1194,3055,-104,-3648,11,2038,-76,5198,37,30,878
424914,5412256,5705660,5414628,5709540,780,3082,-144,-3447,-19,2031,-130,4062,56,40,880
425908,5412460,5705800,5414825,5709737,1152,3307,-280,-3345,113,546,563,3557,56,40,880
426909,5412672,5705940,5415022,5709934,1096,3333,-365,-3111,238,1875,-52,5246,53,26,878
427910,5412904,5706124,5415219,5710131,956,3064,-387,-2879,275,2227,-328,4722,53,26,878
428911,5413080,5706292,5415416,5710328,1316,3178,-448,-2862,345,1880,852,3663,47,45,877
429912,5413260,5706476,5415613,5710525,1299,3084,-485,-2837,463,1964,90,4843,47,45,877
430913,5413420,5706628,5415810,5710722,1441,3305,-437,-2736,585,1781,-262,5337,43,43,879
431914,5413604,5706796,5416007,5710919,1297,3218,-372,-2673,622,2698,-932,5007,43,43,879
432915,5413772,5706956,5416204,5711116,1410,3286,-341,-2585,670,2466,-774,5253,29,42,874
433916,5413940,5707156,5416401,5711313,1423,3035,-320,-2382,736,2494,-1168,5713,29,42,874
434917,5414132,5707304,5416598,5711510,1275,3382,-301,-2138,765,2692,-1161,5770,25,42,876
435918,5414308,5707492,5416795,5711707,1385,3137,-297,-1938,828,2179,-747,5491,25,42,876
436919,5414452,5707644,5416992,5711904,1609,3383,-316,-1781,957,1831,-754,5283,24,28,877
437920,5414628,5707824,5417189,5712101,1419,3216,-267,-1597,1057,1942,-1474,6277,24,28,877
438921,5414772,5707992,5417386,5712298,1642,3305,-150,-1516,1070,1923,-1417,5800,45,37,876
439922,5414936,5708144,5417583,5712495,1533,3425,-41,-1530,1061,1681,-649,5550,45,37,876
440923,5415112,5708300,5417780,5712692,1467,3419,35,-1548,1055,1585,-1396,5535,46,33,876
441924,5415292,5708424,5417977,5712889,1450,3652,113,-1464,1009,1680,-899,6256,46,33,876
442925,5415420,5708564,5418174,5713086,1806,3578,130,-1377,995,894,-1308,5303,29,25,872
443926,5415596,5708720,5418371,5713283,1516,3497,95,-1215,1012,802,-951,5726,29,25,872
444927,5415740,5708888,5418568,5713480,1739,3435,58,-1075,1051,477,-1317,5593,19,39,871
445928,5415880,5709036,5418765,5713677,1790,3583,82,-982,1070,513,-1280,5814,19,39,871
446929,5416072,5709176,5418962,5713874,1469,3658,168,-1053,1084,289,-1533,5971,23,24,873
447930,5416232,5709320,5419159,5714071,1685,3657,267,-1238,1048,670,-1516,5668,23,24,873
448944,5416384,5709444,5419356,5714268,1756,3800,362,-1434,1013,495,-564,5985,31,35,871
449932,5416536,5709608,5419553,5714465,1775,3581,443,-1580,1049,-40,-1180,5629,31,35,871
450933,5416716,5709744,5419750,5714662,1609,3784,476,-1748,1061,141,-707,5280,23,23,870
451947,5416868,5709856,5419947,5714859,1804,3800,506,-1832,994,726,-388,5908,23,23,870
452935,5417064,5710000,5420144,5715056,1530,3796,521,-1768,1013,-544,-888,5861,27,26,870
453949,5417244,5710136,5420341,5715253,1638,3800,487,-1783,1022,-16,-319,5204,27,26,870
454937,5417424,5710288,5420538,5715450,1646,3795,450,-1805,1049,-552,-556,5280,26,20,868
455938,5417592,5710452,5420735,5715647,1735,3735,439,-1835,1074,-476,-74,5631,26,20,868
456939,5417808,5710612,5420932,5715844,1426,3778,459,-1866,1008,797,-701,5198,33,28,869
457940,5417968,5710772,5421129,5716041,1794,3795,476,-1926,895,1244,-101,5581,33,28,869
458954,5418144,5710912,5421326,5716238,1704,3800,485,-2006,913,144,-260,5016,44,32,869
459955,5418356,5711048,5421523,5716435,1472,3800,418,-2153,1008,-134,-273,4471,44,32,869
460956,5418556,5711208,5421720,5716632,1547,3800,384,-2150,1106,-317,-107,5402,42,21,869
461957,5418760,5711360,5421917,5716829,1519,3800,307,-2119,1122,189,-725,4635,42,21,869
462945,5418956,5711548,5422114,5717026,1570,3717,208,-2075,1105,238,236,4555,30,22,870
463959,5419144,5711720,5422311,5717223,1625,3800,106,-1997,1074,526,79,4811,30,22,870
464947,5419336,5711900,5422508,5717420,1602,3787,28,-1875,1090,-165,87,4894,51,30,868
465948,5419552,5712080,5422705,5717617,1445,3796,-34,-1861,1129,-138,-8,4527,51,30,868
466949,5419748,5712292,5422902,5717814,1571,3590,-79,-1873,1143,-200,409,4606,41,42,868
467963,5419932,5712468,5423099,5718011,1652,3800,-108,-1821,1153,-144,248,4849,41,42,868
468951,5420144,5712664,5423296,5718208,1472,3702,-130,-1806,1211,-387,-409,4265,38,30,870
469952,5420320,5712872,5423493,5718405,1706,3623,-109,-1953,1261,-411,45,4014,38,30,870
470953,5420492,5713116,5423690,5718602,1743,3378,-124,-2167,1290,-263,252,3331,49,43,870
471954,5420668,5713368,5423887,5718799,1727,3305,-173,-2204,1308,128,544,4166,49,43,870
472955,5420872,5713576,5424084,5718996,1550,3576,-220,-1999,1282,586,733,4942,47,54,871
473956,5421052,5713764,5424281,5719193,1708,3707,-298,-1755,1271,310,360,4046,47,54,871
474957,5421216,5713964,5424478,5719390,1823,3632,-432,-1656,1299,234,2,3372,49,49,874
475958,5421384,5714152,5424675,5719587,1812,3712,-513,-1631,1356,422,-374,3947,49,49,874
476959,5421564,5714368,5424872,5719784,1744,3530,-532,-1624,1470,1,-997,3892,43,45,868
477960,5421716,5714596,5425069,5719981,1940,3442,-480,-1600,1691,-1157,-910,3779,43,45,868
478961,5421892,5714808,5425266,5720178,1800,3536,-356,-1549,2010,-2231,-345,4425,46,32,870
479962,5422040,5714996,5425463,5720375,1997,3691,-402,-1694,2132,416,-66,1720,46,32,870
480963,5422180,5715176,5425660,5720572,2073,3750,-537,-1879,1675,5078,72,1932,23,32,871
481964,5422312,5715376,5425857,5720769,2152,3624,-503,-1501,1412,1083,-1534,6977,23,32,871
482965,5422512,5715608,5426054,5720966,1726,3410,-453,-1186,1458,-260,3,3115,30,49,869
483966,5422660,5715828,5426251,5721163,2074,3476,-561,-1256,1578,116,196,1306,30,49,869
484968,5422832,5716024,5426448,5721360,1936,3627,-655,-1209,1634,738,-124,4041,44,30,869
485968,5422984,5716224,5426645,5721557,2080,3602,-628,-917,1724,135,-1770,4562,44,30,869
486969,5423140,5716452,5426842,5721754,2074,3414,-582,-773,1781,355,-506,2964,38,35,866
487970,5423304,5716656,5427039,5721951,2040,3562,-545,-941,1801,347,-176,2118,38,35,866
488971,5423496,5716860,5427236,5722148,1867,3560,-461,-1075,1901,-242,-1281,3765,28,42,866
489972,5423644,5717104,5427433,5722345,2165,3291,-376,-1053,1927,1270,-935,3638,28,42,866
490973,5423792,5717392,5427630,5722542,2187,2977,-341,-1096,1913,945,-1380,2650,47,49,869
491974,5423956,5717664,5427827,5722739,2103,3045,-275,-1110,1904,632,-578,3766,27,62,872
492975,5424084,5717904,5428024,5722936,2358,3227,-185,-971,1963,-12,336,4382,27,62,872
493976,5424216,5718212,5428221,5723133,2363,2754,-198,-1018,2023,408,93,1805,41,63,874
494977,5424360,5718540,5428418,5723330,2312,2572,-285,-1130,2031,1038,-973,2415,41,63,874
495978,5424488,5718868,5428615,5723527,2443,2516,-257,-1051,2115,-60,-2104,4343,33,55,875
496979,5424616,5719168,5428812,5723724,2473,2647,-165,-893,2152,332,-1199,3546,33,55,875
497980,5424788,5719496,5429009,5723921,2210,2414,-126,-935,2142,521,-885,2050,28,73,875
498981,5424936,5719844,5429206,5724118,2383,2224,-62,-871,2091,1111,-375,3992,28,73,875
499982,5425064,5720220,5429403,5724315,2539,1971,8,-757,1991,1831,-776,3190,46,58,878
500983,5425224,5720540,5429600,5724512,2357,2268,79,-725,1961,704,-567,2765,46,58,878
501984,5425364,5720820,5429797,5724709,2508,2483,127,-844,2105,-673,-580,2646,31,53,878
502985,5425512,5721156,5429994,5724906,2479,2071,105,-1112,2223,596,-421,1070,31,53,878
503986,5425656,5721504,5430191,5725103,2528,1931,111,-1230,2274,673,-633,2866,35,65,876
504987,5425804,5721876,5430388,5725300,2526,1705,159,-1191,2341,28,-677,2805,35,65,876
505988,5425964,5722152,5430585,5725497,2468,2270,217,-1103,2414,-65,422,2736,35,71,879
506989,5426172,5722476,5430782,5725694,2164,1916,247,-1125,2386,1180,810,1814,35,71,879
507997,5426364,5722836,5431012,5725924,2282,1635,256,-1120,2325,963,-129,2499,32,68,877
508991,5426556,5723148,5431209,5726121,2285,1884,313,-907,2362,-80,84,3496,32,68,877
509992,5426748,5723436,5431406,5726318,2287,1995,337,-702,2471,-1255,1218,2709,32,54,881
510993,5426940,5723768,5431603,5726515,2291,1661,234,-671,2561,-313,1016,1155,32,54,881
511994,5427144,5724120,5431800,5726712,2214,1469,164,-522,2497,1700,480,2914,39,68,881
512995,5427336,5724456,5431997,5726909,2292,1507,227,-123,2355,2150,202,3963,39,68,881
513996,5427568,5724736,5432194,5727106,2027,1822,340,136,2314,1035,381,2541,57,51,883
514997,5427796,5725016,5432391,5727303,2040,1786,425,198,2390,634,591,1910,57,51,883
515998,5428000,5725392,5432588,5727500,2188,1108,502,306,2487,926,254,2964,38,68,883
516999,5428240,5725720,5432785,5727697,1945,1350,635,614,2538,1341,-8,3746,38,68,883
518000,5428448,5726012,5432982,5727894,2141,1534,743,822,2570,956,-56,2191,36,51,885
519001,5428660,5726304,5433179,5728091,2109,1493,826,912,2617,615,592,2188,36,51,885
520002,5428908,5726580,5433376,5728288,1863,1558,829,914,2599,1363,1012,1371,51,67,882
521003,5429132,5726940,5433573,5728485,2002,961,828,962,2544,1264,453,1678,51,67,882
522004,5429368,5727296,5433770,5728682,1911,918,882,1236,2525,211,312,2827,41,54,885
523005,5429600,5727616,5433967,5728879,1922,1089,931,1475,2563,-90,93,2333,41,54,885
524006,5429828,5727900,5434164,5729076,1934,1275,941,1725,2555,795,377,2458,39,56,887
525007,5430080,5728236,5434361,5729273,1760,890,891,1910,2496,633,287,1987,39,56,887
526008,5430300,5728588,5434558,5729470,1951,722,815,2079,2451,32,-5,2060,59,66,886
527009,5430532,5728880,5434755,5729667,1861,1055,699,2393,2392,195,-526,2607,59,66,886
528010,5430764,5729212,5434952,5729864,1847,746,570,2750,2365,140,-2118,2471,48,52,888
529011,5431000,5729500,5435149,5730061,1806,981,531,2995,2243,1023,-3226,2907,48,52,888
530012,5431248,5729820,5435346,5730258,1708,727,538,3060,2105,942,-781,3151,57,58,888
531013,5431504,5730156,5435543,5730455,1633,566,450,2945,2083,-112,47,2071,57,58,888
532014,5431760,5730440,5435740,5730652,1609,853,413,2637,2047,443,-75,2498,49,65,889
533015,5432008,5730676,5435937,5730849,1637,1136,523,2114,1894,711,-850,1925,49,65,889
534016,5432252,5730944,5436134,5731046,1642,904,718,1530,1719,-311,-546,2213,52,57,889
535017,5432472,5731240,5436331,5731243,1782,686,818,1120,1467,911,746,2960,52,57,889
536018,5432680,5731468,5436528,5731440,1854,1097,729,844,1308,-189,565,2242,33,51,889
537019,5432908,5731708,5436725,5731637,1716,1003,507,981,1252,105,-162,4794,33,51,889
538020,5433144,5731884,5436922,5731834,1649,1413,233,1490,1330,576,-449,5690,53,33,887
539021,5433352,5732068,5437119,5732031,1820,1368,-77,1957,1375,886,-695,5542,53,33,887
540022,5433556,5732288,5437316,5732228,1843,1133,-336,2402,1353,359,-1870,6629,45,33,887
541023,5433760,5732500,5437513,5732425,1841,1177,-589,2607,1151,740,1652,5398,45,33,887
542024,5433964,5732696,5437710,5732622,1838,1277,-770,2095,861,360,1052,3052,31,37,886
543025,5434172,5732884,5437907,5732819,1809,1331,-670,1169,654,-656,-472,5145,31,37,886
544026,5434412,5733068,5438104,5733016,1591,1362,-397,-126,517,-768,-1081,3518,54,40,886
545027,5434668,5733224,5438301,5733213,1465,1555,-182,-1416,405,-8,-1304,4157,54,40,886
546028,5434880,5733380,5438498,5733410,1734,1573,-106,-2176,336,-323,-1614,5437,38,34,887
547029,5435136,5733600,5438695,5733607,1435,1163,-183,-2482,223,46,-1304,4999,38,34,887
548030,5435336,5733816,5438892,5733804,1784,1179,-400,-2568,104,139,-800,5106,58,31,885
549031,5435572,5734044,5439089,5734001,1542,1091,-741,-2356,-44,458,-1375,5322,58,31,885
550032,5435820,5734260,5439286,5734198,1446,1157,-1125,-1919,-189,325,-1889,6063,40,47,887
551033,5436048,5734448,5439483,5734395,1558,1336,-1458,-1741,-322,355,-1480,4755,40,47,887
552034,5436316,5734624,5439680,5734592,1277,1420,-1607,-1876,-463,247,-2154,4867,42,32,888
553035,5436540,5734784,5439877,5734789,1541,1537,-1584,-2238,-574,209,-2265,5489,42,32,888
554036,5436748,5734988,5440074,5734986,1636,1259,-1527,-2790,-703,1010,-984,4347,50,35,887
555037,5437004,5735272,5440271,5735183,1311,720,-1524,-3426,-866,1512,-1145,4693,50,35,887
556038,5437244,5735496,5440468,5735380,1393,1084,-1508,-3812,-1015,1111,-1200,4933,41,36,887
557039,5437460,5735720,5440665,5735577,1535,1072,-1558,-4152,-1202,1890,-970,3925,41,36,887
558040,5437700,5735936,5440862,5735774,1367,1113,-1689,-4155,-1445,2199,-893,4665,55,49,890
559041,5437908,5736128,5441059,5735971,1563,1266,-1729,-4001,-1563,2516,-780,3996,55,49,890
560042,5438080,5736316,5441256,5736168,1799,1294,-1745,-3858,-1686,2368,119,3861,55,40,890
561043,5438344,5736580,5441453,5736365,1196,790,-1777,-3683,-1769,2407,-1142,4049,55,40,890
562044,5438564,5736800,5441650,5736562,1461,1055,-1765,-3422,-1859,3058,-2022,4122,43,31,887
563045,5438756,5737000,5441847,5736759,1639,1179,-1701,-3262,-2003,3471,-1216,3467,43,31,887
564046,5438964,5737152,5442044,5736956,1534,1498,-1589,-3168,-2086,2373,-650,3389,47,34,889
565047,5439132,5737308,5442241,5737153,1798,1491,-1463,-3077,-2098,2400,-613,3714,47,34,889
566048,5439296,5737476,5442438,5737350,1838,1429,-1397,-3088,-2170,3838,575,2433,25,30,887
567049,5439416,5737596,5442635,5737547,2147,1763,-1399,-3076,-2288,4778,-567,3145,25,30,887
568050,5439576,5737732,5442832,5737744,1914,1690,-1385,-2573,-2223,4323,-4478,5738,31,22,885
569051,5439716,5737908,5443029,5737941,2065,1449,-1286,-1633,-2291,7218,-808,7277,31,22,885
570052,5439812,5738084,5443226,5738138,2385,1458,-1251,-1033,-2380,6151,-1509,3784,21,37,883
571053,5439972,5738236,5443423,5738335,2002,1628,-1160,-993,-2409,5419,-1728,3459,21,37,883
572054,5440088,5738404,5443620,5738532,2313,1541,-860,-836,-2385,4651,-290,6315,26,20,881
573055,5440248,5738540,5443817,5738729,2055,1768,-491,-468,-2259,3560,1740,5910,26,20,881
574056,5440416,5738652,5444014,5738926,2019,1955,-355,-137,-1902,2449,-623,3560,20,16,881
575057,5440564,5738772,5444211,5739123,2165,1939,-410,219,-1467,3772,-2331,4240,20,16,881
576058,5440712,5738892,5444408,5739320,2188,1973,-283,994,-1251,6327,-1527,7487,35,17,879
577059,5440912,5739012,5444605,5739517,1862,2006,-69,1676,-1170,5990,-1929,5471,35,17,879
578060,5441100,5739148,5444802,5739714,1942,1933,114,1930,-986,3891,-748,4548,25,28,879
579061,5441300,5739288,5444999,5739911,1866,1933,159,1900,-557,2122,-2610,3570,25,28,879
580062,5441508,5739400,5445196,5740108,1812,2147,205,1923,-118,2383,-1940,4763,36,29,882
581063,5441720,5739500,5445393,5740305,1782,2264,357,2155,268,1868,-3112,5737,36,29,882
582064,5441952,5739612,5445590,5740502,1641,2227,611,2275,536,1853,-3115,5644,42,11,880
583065,5442236,5739728,5445787,5740699,1279,2237,895,2102,693,1731,-2117,5307,42,11,880
584066,5442456,5739844,5445984,5740896,1670,2273,968,1706,781,1283,-2117,3119,55,13,881
585067,5442660,5739948,5446181,5741093,1767,2389,855,1348,816,1391,-2236,3587,55,13,881
586068,5442896,5740064,5446378,5741290,1551,2350,824,1018,847,1210,-2713,4491,50,22,879
587069,5443168,5740172,5446575,5741487,1294,2439,901,638,893,686,-2661,4414,50,22,879
588070,5443412,5740284,5446772,5741684,1448,2452,957,292,887,978,-2719,4749,46,25,880
589071,5443636,5740400,5446969,5741881,1562,2462,851,-62,808,866,-1786,3756,46,25,880
590072,5443928,5740528,5447166,5742078,1096,2419,607,-358,719,518,-897,3578,48,36,881
591082,5444196,5740664,5447396,5742308,1230,2410,281,-400,650,266,-941,3865,48,36,881
592074,5444420,5740832,5447593,5742505,1494,2223,-90,-85,618,-107,-960,3712,56,21,883
593075,5444716,5740996,5447790,5742702,1001,2263,-479,496,551,180,924,3955,56,21,883
594076,5444980,5741160,5447987,5742899,1172,2278,-776,924,392,775,1689,2985,57,31,883
595077,5445232,5741328,5448184,5743096,1224,2265,-905,941,281,562,-209,2918,57,31,883
596078,5445472,5741480,5448381,5743293,1280,2386,-706,710,203,1533,-896,4472,38,26,883
597079,5445708,5741648,5448578,5743490,1289,2299,-359,-35,112,1567,-740,2468,38,26,883
598080,5445920,5741796,5448775,5743687,1432,2446,67,-965,61,871,-833,3016,54,41,880
599081,5446188,5741988,5448972,5743884,1052,2174,418,-1718,53,679,-560,3449,54,41,880
600082,5446428,5742156,5449169,5744081,1208,2336,527,-2211,44,1028,-14,1697,54,30,882
601083,5446656,5742356,5449366,5744278,1270,2135,438,-2137,-81,2310,771,3631,54,30,882
602084,5446896,5742548,5449563,5744475,1177,2188,239,-1618,-139,988,432,3385,34,45,884
603085,5447140,5742748,5449760,5744672,1132,2137,19,-1034,-68,86,903,3451,34,45,884
604086,5447376,5742952,5449957,5744869,1165,2109,-154,-692,102,-615,901,2457,35,34,884
605087,5447628,5743140,5450154,5745066,1042,2214,-268,-621,290,-510,142,2718,35,34,884
606088,5447852,5743328,5450351,5745263,1205,2218,-256,-634,422,185,-575,3370,32,34,885
607089,5448036,5743552,5450548,5745460,1461,1981,-183,-877,490,180,109,2494,32,34,885
608090,5448240,5743780,5450745,5745657,1333,1943,-35,-1155,426,1331,-402,3223,31,51,883
609091,5448476,5744008,5450942,5745854,1117,1930,215,-1484,255,2056,-446,3834,31,51,883
610092,5448648,5744236,5451139,5746051,1528,1917,454,-1790,215,1150,-418,3483,27,50,885
611093,5448804,5744456,5451336,5746248,1647,1957,617,-2039,289,1395,-279,3716,27,50,885
612094,5449016,5744700,5451533,5746445,1291,1786,654,-2040,363,1655,-288,3883,30,39,884
613095,5449180,5744920,5451730,5746642,1606,1927,479,-1981,566,-179,-221,1829,30,39,884
614096,5449340,5745140,5451927,5746839,1647,1917,269,-1534,787,231,730,4479,21,43,886
615097,5449492,5745384,5452124,5747036,1718,1746,59,-868,935,877,360,4337,21,43,886
616098,5449664,5745636,5452321,5747233,1604,1673,-121,-480,996,1363,798,3280,35,46,883
617099,5449804,5745844,5452518,5747430,1830,1943,-161,-274,1053,1951,-119,4688,35,46,883
618100,5449980,5746076,5452715,5747627,1614,1778,-30,-258,1157,1558,-818,4560,42,39,884
619101,5450124,5746288,5452912,5747824,1839,1897,105,-362,1314,-216,-836,4251,42,39,884
620102,5450280,5746504,5453109,5748021,1782,1864,224,-453,1249,384,-84,4999,21,51,882
621103,5450452,5746752,5453306,5748218,1694,1642,348,-574,1135,-507,-367,4765,21,51,882
622104,5450596,5746972,5453503,5748415,1892,1807,451,-909,1116,-798,-555,3482,24,42,883
623105,5450760,5747172,5453700,5748612,1782,1931,532,-1301,1117,-75,-206,4183,24,42,883
624106,5450896,5747408,5453897,5748809,1984,1689,568,-1340,1106,720,-1064,5422,21,49,883
625107,5451104,5747640,5454094,5749006,1530,1699,548,-1185,1196,249,-1297,4807,21,49,883
626108,5451248,5747828,5454291,5749203,1955,1978,514,-858,1293,1277,-960,5207,35,30,883
627109,5451392,5748056,5454488,5749400,1978,1715,460,-423,1415,582,-761,5033,35,30,883
628110,5451572,5748236,5454685,5749597,1762,2023,338,8,1479,1121,-171,4783,25,32,882
629111,5451732,5748412,5454882,5749794,1903,2057,228,389,1466,1791,-1198,4838,25,32,882
630112,5451876,5748576,5455079,5749991,2027,2146,258,604,1611,698,-1573,4853,22,35,881
631113,5452064,5748764,5455276,5750188,1757,2001,386,501,1921,661,-2253,3573,22,35,881
632114,5452260,5748924,5455473,5750385,1707,2193,616,245,2208,1148,-1577,3770,26,33,880
633115,5452408,5749112,5455670,5750582,2030,2021,836,168,2432,699,-300,4497,26,33,880
634116,5452612,5749280,5455867,5750779,1677,2159,850,182,2599,103,-870,2821,48,23,881
635117,5452816,5749456,5456064,5750976,1675,2119,758,469,2681,604,-194,4664,48,23,881
636118,5452992,5749616,5456261,5751173,1860,2236,619,938,2701,324,-484,4571,42,24,882
637119,5453172,5749788,5456458,5751370,1843,2172,477,1253,2660,7,357,3897,42,24,882
638120,5453352,5749956,5456655,5751567,1851,2210,398,1491,2680,-246,-268,4396,25,36,879
639121,5453512,5750116,5456852,5751764,1993,2277,432,1535,2746,-81,-610,3730,25,36,879
640122,5453700,5750328,5457049,5751961,1822,1945,534,1445,2861,-631,-490,4076,26,32,879
641123,5453892,5750536,5457246,5752158,1800,1966,680,1260,2908,-279,-193,3984,26,32,879
642124,5454064,5750752,5457443,5752355,1936,1908,820,1156,2909,-487,360,4707,32,51,880
643125,5454268,5750960,5457640,5752552,1734,1953,876,963,2949,-815,-355,3342,32,51,880
644126,5454452,5751204,5457837,5752749,1866,1708,942,820,2954,509,453,4410,44,52,882
645127,5454640,5751444,5458034,5752946,1845,1715,1011,848,2973,452,-155,4799,44,52,882
646128,5454780,5751704,5458231,5753143,2171,1562,1041,762,3051,-709,-627,3910,41,42,883
647129,5454952,5751956,5458428,5753340,1983,1588,1005,620,3004,-278,-195,4232,41,42,883
648130,5455100,5752216,5458625,5753537,2155,1511,932,546,2902,-1533,362,4334,32,52,882
649131,5455248,5752568,5458822,5753734,2177,868,820,428,2857,-2451,-597,4477,32,52,882
650132,5455396,5752784,5459019,5753931,2200,1710,713,479,2780,-1095,-145,4866,26,42,883
651133,5455512,5752932,5459216,5754128,2435,2156,559,571,2705,-1016,-111,4344,26,42,883
652134,5455672,5753084,5459413,5754325,2177,2152,407,581,2705,-1565,-98,4341,27,25,881
653135,5455880,5753240,5459610,5754522,1874,2145,385,537,2581,-404,1635,5099,27,25,881
654136,5456052,5753400,5459807,5754719,2111,2136,373,303,2405,-1066,616,4304,39,31,878
655137,5456224,5753592,5460004,5754916,2122,1938,342,2,2239,-1086,562,4403,39,31,878
656138,5456400,5753800,5460201,5755113,2107,1835,323,-203,2142,-1014,-137,5374,47,30,879
657139,5456560,5754044,5460398,5755310,2224,1589,340,-247,2105,-797,-720,5341,47,30,879
658140,5456712,5754256,5460595,5755507,2294,1782,382,-241,2055,126,271,5472,31,43,881
659141,5456864,5754500,5460792,5755704,2315,1562,434,-253,2092,-287,230,4615,31,43,881
660142,5457016,5754836,5460989,5755901,2335,926,494,-371,2139,499,-891,3890,27,69,881
661143,5457160,5755144,5461186,5756098,2410,1053,581,-454,2081,1024,-1136,4315,27,69,881
662144,5457288,5755408,5461383,5756295,2540,1298,611,-448,2034,7,-653,4032,36,60,882
663145,5457452,5755668,5461580,5756492,2331,1296,497,-381,2022,-577,104,3376,36,60,882
664146,5457564,5755948,5461777,5756689,2694,1134,342,-166,1936,-30,-69,4098,21,45,880
665147,5457684,5756212,5461974,5756886,2679,1205,119,134,1730,222,-538,3926,21,45,880
666148,5457816,5756472,5462171,5757083,2633,1202,-105,518,1492,137,-786,4713,31,43,881
667149,5457956,5756680,5462368,5757280,2608,1523,-228,956,1212,849,-878,5775,31,43,881
668150,5458084,5756928,5462565,5757477,2715,1251,-270,1192,870,725,509,5130,22,59,881
669151,5458224,5757204,5462762,5757674,2666,1041,-270,1197,539,-6,1082,5204,22,59,881
670152,5458384,5757488,5462959,5757871,2558,953,-268,1091,298,223,104,5572,34,49,879
671153,5458520,5757776,5463156,5758068,2736,888,-267,1030,136,721,-24,4964,34,49,879
672154,5458656,5758032,5463353,5758265,2764,1062,-327,914,52,746,-200,3642,42,59,882
673155,5458808,5758304,5463550,5758462,2684,929,-388,1248,33,1087,1066,5172,42,59,882
674163,5458968,5758616,5463780,5758692,2666,643,-450,1815,42,800,2073,4406,39,48,879
675156,5459136,5758900,5463977,5758889,2629,780,-507,2038,70,536,24,2055,39,48,879
676158,5459312,5759148,5464174,5759086,2589,982,-428,1983,-24,2330,-472,3285,28,60,882
677160,5459480,5759384,5464371,5759283,2653,1040,-324,1837,-176,2452,-296,2643,28,60,882
678160,5459660,5759568,5464568,5759480,2586,1371,-367,1643,-291,1697,-666,1736,34,38,882
679161,5459840,5759788,5464765,5759677,2595,1136,-393,1775,-358,1021,-1231,4799,34,38,882
680162,5460036,5760020,5464962,5759874,2496,1045,-400,2112,-452,-301,-1823,5045,48,34,881
681163,5460228,5760224,5465159,5760071,2524,1217,-452,2321,-593,-1186,-1304,4489,48,34,881
682164,5460416,5760460,5465356,5760268,2554,1000,-530,2568,-765,-707,-466,5677,31,42,882
683165,5460616,5760668,5465553,5760465,2479,1170,-589,2591,-935,-479,416,4630,31,42,882
684166,5460788,5760852,5465750,5760662,2666,1326,-554,2177,-1099,-151,-237,4009,38,34,881
685168,5460968,5761068,5465947,5760859,2625,1118,-404,1395,-1276,-163,-746,4058,38,34,881
686168,5461128,5761292,5466144,5761056,2767,1056,-309,857,-1470,129,-1247,4541,48,52,879
687169,5461296,5761508,5466341,5761253,2731,1097,-495,1024,-1704,356,1310,4531,48,52,879
688170,5461472,5761744,5466538,5761450,2691,955,-774,1698,-1936,-75,1697,5937,30,45,880
689171,5461632,5761948,5466735,5761647,2808,1152,-932,2067,-2073,-68,-1520,4507,30,45,880
690172,5461784,5762120,5466932,5761844,2879,1363,-872,1800,-2120,422,-2346,4529,47,45,881
691173,5461980,5762268,5467129,5762041,2605,1535,-617,1380,-2121,70,-2050,6080,47,45,881
692174,5462168,5762400,5467326,5762238,2660,1662,-357,660,-2087,-40,-1160,4000,41,28,878
693176,5462352,5762548,5467523,5762435,2692,1584,-191,-69,-2078,87,-1696,4413,41,28,878
694176,5462552,5762672,5467720,5762632,2592,1766,-174,-470,-2146,491,-1601,5491,29,34,879
695177,5462724,5762780,5467917,5762829,2779,1905,-345,-532,-2158,-476,-2294,4696,29,34,879
696178,5462912,5762896,5468114,5763026,2684,1891,-565,-313,-2158,-224,-1766,5571,27,30,877
697179,5463080,5763000,5468311,5763223,2822,2006,-747,-15,-2192,-112,-1546,5453,27,30,877
698180,5463280,5763108,5468508,5763420,2622,2021,-854,52,-2184,-466,-1918,4485,25,26,876
699181,5463452,5763208,5468705,5763617,2808,2114,-777,-99,-2123,-272,-1565,5283,25,26,876
700182,5463640,5763308,5468902,5763814,2713,2157,-595,-418,-2076,154,-1921,4426,28,13,876
701183,5463852,5763396,5469099,5764011,2558,2280,-454,-843,-2059,409,-893,3843,28,13,876
702184,5464048,5763480,5469296,5764208,2659,2354,-384,-1105,-2023,-20,-1016,3940,32,14,875
703185,5464260,5763560,5469493,5764405,2553,2431,-343,-1139,-1991,11,-1343,4277,32,14,875
704186,5464496,5763660,5469690,5764602,2387,2348,-330,-991,-2030,1217,-423,4200,53,27,875
705187,5464708,5763772,5469887,5764799,2531,2311,-376,-803,-2015,725,-794,3288,53,27,875
706188,5464900,5763860,5470084,5764996,2660,2509,-413,-629,-1965,440,-723,3960,41,32,875
707189,5465116,5763980,5470281,5765193,2502,2344,-370,-376,-1876,235,-1361,4059,41,32,875
708190,5465336,5764116,5470478,5765390,2468,2270,-299,-397,-1784,392,-739,2773,33,31,872
709191,5465560,5764224,5470675,5765587,2432,2484,-208,-618,-1776,1323,-401,2922,33,31,872
710192,5465808,5764344,5470872,5765784,2261,2443,-68,-858,-1727,372,-883,3178,42,30,875
711193,5466036,5764452,5471069,5765981,2373,2558,32,-1183,-1631,86,-296,2113,42,30,875
712194,5466284,5764564,5471266,5766178,2227,2571,47,-1392,-1552,614,-167,2086,36,17,874
713195,5466536,5764680,5471463,5766375,2179,2581,-19,-1324,-1448,821,-625,2861,36,17,874
714196,5466784,5764788,5471660,5766572,2182,2671,-126,-965,-1417,2159,-400,2985,40,24,876
715197,5467064,5764908,5471857,5766769,1947,2630,-206,-561,-1402,1736,-676,3357,40,24,876
716198,5467328,5765020,5472054,5766966,2018,2718,-254,-214,-1314,1013,-1223,3226,52,18,876
717199,5467624,5765140,5472251,5767163,1776,2703,-209,-53,-1244,1376,-1081,3094,52,18,876
718200,5467912,5765256,5472448,5767360,1787,2763,-118,-212,-1173,964,-519,2554,65,16,875
719201,5468204,5765372,5472645,5767557,1721,2799,23,-505,-1077,508,-307,2310,65,16,875
720202,5468492,5765492,5472842,5767754,1707,2809,127,-877,-1020,615,-5,2664,59,17,876
721203,5468768,5765616,5473039,5767951,1747,2816,155,-1120,-976,-36,-325,2109,59,17,876
722204,5469052,5765728,5473236,5768148,1660,2929,130,-1286,-988,387,225,2431,62,15,876
723205,5469372,5765852,5473433,5768345,1382,2886,83,-1292,-1054,561,-584,2936,62,15,876
724206,5469660,5765948,5473630,5768542,1543,3106,23,-1200,-1137,450,-273,3374,56,23,876
725207,5469924,5766080,5473827,5768739,1665,2910,5,-1110,-1149,146,-390,3299,56,23,876
726208,5470216,5766196,5474024,5768936,1448,3047,-3,-1201,-1140,643,-566,2570,61,27,875
727209,5470488,5766308,5474221,5769133,1541,3109,40,-1398,-1100,731,-544,2868,61,27,875
728210,5470764,5766412,5474418,5769330,1482,3201,141,-1565,-1031,758,-617,2995,50,21,875
729211,5471080,5766548,5474615,5769527,1180,3028,160,-1747,-984,831,-9,2458,50,21,875
730212,5471356,5766684,5474812,5769724,1396,3055,147,-1832,-930,401,57,2352,58,25,873
731213,5471616,5766816,5475009,5769921,1470,3109,93,-1874,-851,20,-6,2403,58,25,873
732214,5471904,5767000,5475206,5770118,1255,2791,23,-1901,-821,364,-1091,2540,57,23,876
733215,5472176,5767128,5475403,5770315,1323,3172,9,-1841,-869,616,-266,3149,57,23,876
734216,5472460,5767272,5475600,5770512,1210,3095,3,-1964,-890,117,-632,2266,67,38,878
735217,5472720,5767412,5475797,5770709,1333,3146,18,-2140,-929,525,-466,2917,67,38,878
736218,5473000,5767544,5475994,5770906,1172,3225,49,-2365,-930,205,-637,2725,43,29,875
737219,5473264,5767696,5476191,5771103,1243,3121,100,-2518,-908,596,-461,2941,43,29,875
738220,5473516,5767864,5476388,5771300,1295,3034,78,-2747,-883,905,203,2694,41,30,876
739221,5473776,5768012,5476585,5771497,1217,3181,87,-2854,-788,319,-262,2815,41,30,876
740222,5473988,5768156,5476782,5771694,1511,3230,37,-2942,-683,194,-359,3550,36,25,876
741223,5474232,5768304,5476979,5771891,1292,3228,14,-2968,-622,382,-503,2643,36,25,876
742224,5474476,5768460,5477176,5772088,1271,3196,-50,-3072,-605,669,-353,2899,43,29,875
743225,5474716,5768624,5477373,5772285,1278,3161,-30,-3097,-604,566,-395,3639,43,29,875
744226,5474952,5768788,5477570,5772482,1286,3177,16,-3290,-597,513,165,2922,53,38,874
745227,5475212,5768908,5477767,5772679,1109,3487,53,-3539,-615,1121,138,3100,53,38,874
746228,5475432,5769080,5477964,5772876,1349,3173,72,-3655,-542,398,-292,3470,56,25,876
747229,5475672,5769244,5478161,5773073,1206,3238,35,-3811,-467,682,-144,2898,56,25,876
748230,5475952,5769436,5478358,5773270,920,3066,-29,-3801,-401,461,99,3454,38,35,873
749231,5476208,5769596,5478555,5773467,1044,3283,-86,-3767,-333,537,-224,3229,38,35,873
750233,5476436,5769772,5478752,5773664,1206,3193,-114,-3681,-309,1413,-287,3934,47,29,876
751233,5476716,5769924,5478949,5773861,845,3364,-125,-3691,-313,1604,-445,3621,47,29,876
752235,5476968,5770088,5479146,5774058,997,3304,-132,-3732,-252,889,-674,3705,41,31,875
753235,5477196,5770264,5479343,5774255,1133,3238,-112,-3765,-99,343,-778,4201,41,31,875
754236,5477436,5770472,5479540,5774452,1040,3035,-67,-3560,-64,2010,-306,5139,49,35,874
755237,5477692,5770676,5479737,5774649,914,3057,-134,-3385,-58,1479,-266,3771,49,35,874
756238,5477904,5770868,5479934,5774846,1183,3136,-242,-3205,113,117,804,4137,36,45,876
757246,5478140,5771048,5480164,5775076,1031,3233,-267,-3024,246,1341,-143,5310,36,45,876
758240,5478396,5771216,5480361,5775273,880,3321,-230,-2944,242,1761,165,4928,36,46,879
759241,5478596,5771388,5480558,5775470,1230,3308,-276,-3052,223,1617,587,3550,36,46,879
760242,5478784,5771580,5480755,5775667,1309,3187,-319,-3069,221,1955,-379,5027,52,36,877
761243,5478984,5771780,5480952,5775864,1232,3136,-284,-2927,231,1744,-707,5538,52,36,877
762244,5479164,5771976,5481149,5776061,1366,3162,-247,-2885,259,1649,-320,4444,40,47,872
763245,5479344,5772156,5481346,5776258,1373,3270,-213,-2739,312,2042,-790,5479,40,47,872
764246,5479556,5772336,5481543,5776455,1167,3279,-173,-2561,377,2042,-907,5805,46,32,876
765247,5479736,5772524,5481740,5776652,1375,3234,-111,-2339,422,2142,-783,5369,46,32,876
766248,5479892,5772728,5481937,5776849,1543,3130,-83,-2285,536,1569,-898,4966,26,42,875
767249,5480096,5772912,5482134,5777046,1241,3262,-78,-2158,671,2024,-1037,5355,26,42,875
768250,5480256,5773108,5482331,5777243,1532,3189,-15,-1985,772,2027,-742,6010,32,43,875
769251,5480428,5773272,5482528,5777440,1468,3404,16,-1890,840,1613,-394,5094,32,43,875
770252,5480624,5773412,5482725,5777637,1320,3580,28,-1876,896,1739,-1026,5092,35,23,875
771253,5480780,5773592,5482922,5777834,1588,3338,40,-1751,949,1301,-579,6227,35,23,875
772254,5480952,5773752,5483119,5778031,1500,3480,24,-1664,1037,298,-1204,4716,38,29,874
773255,5481096,5773896,5483316,5778228,1698,3604,25,-1633,1080,688,-438,5702,38,29,874
774256,5481272,5774044,5483513,5778425,1507,3602,56,-1503,1074,858,-1309,5911,29,24,871
775257,5481408,5774192,5483710,5778622,1785,3624,69,-1432,1040,1033,-918,5481,29,24,871
776258,5481572,5774368,5483907,5778819,1625,3460,129,-1348,1023,803,-1764,6250,35,34,870
777259,5481752,5774516,5484104,5779016,1533,3656,185,-1237,1023,593,-904,6300,35,34,870
778260,5481928,5774660,5484301,5779213,1567,3705,219,-1317,1083,305,-1019,4938,43,38,867
779261,5482076,5774820,5484498,5779410,1765,3623,276,-1325,1118,755,-971,6281,43,38,867
780262,5482268,5774980,5484695,5779607,1492,3640,350,-1531,1163,102,-612,4896,26,39,871
781263,5482440,5775124,5484892,5779804,1628,3764,413,-1728,1220,195,-664,5417,26,39,871
782264,5482628,5775288,5485089,5780001,1533,3655,438,-1919,1196,915,-500,4973,34,34,870
783278,5482836,5775420,5485286,5780198,1403,3800,447,-1970,1228,-156,-819,5418,34,34,870
784266,5483024,5775580,5485483,5780395,1533,3726,447,-1896,1256,79,-491,5856,47,39,868
785267,5483192,5775756,5485680,5780592,1671,3636,401,-1828,1265,93,-524,4979,47,39,868
786281,5483380,5775896,5485877,5780789,1551,3800,350,-1594,1272,-77,351,6014,47,21,868
787282,5483548,5776048,5486074,5780986,1689,3800,335,-1510,1244,305,-251,5671,47,21,868
788270,5483736,5776216,5486271,5781183,1569,3746,337,-1572,1223,-22,158,5135,33,23,870
789284,5483924,5776372,5486468,5781380,1572,3800,313,-1792,1269,-583,-310,4793,33,23,870
790285,5484128,5776528,5486665,5781577,1470,3800,289,-1823,1263,13,-442,5609,29,25,869
791286,5484324,5776684,5486862,5781774,1521,3800,245,-1846,1251,-463,62,4706,29,25,869
792287,5484500,5776852,5487059,5781971,1656,3800,151,-1861,1266,-348,-381,4649,48,23,869
793275,5484724,5777032,5487256,5782168,1344,3751,102,-1722,1275,-354,-241,5575,48,23,869
794289,5484912,5777204,5487453,5782365,1574,3800,99,-1655,1279,-697,-267,4967,50,24,870
795290,5485092,5777376,5487650,5782562,1632,3800,78,-1694,1286,-500,433,4598,50,24,870
796291,5485292,5777548,5487847,5782759,1506,3800,13,-1856,1287,-145,-69,4145,47,23,870
797292,5485484,5777708,5488044,5782956,1559,3800,-46,-1916,1288,-508,-130,4512,47,23,870
798280,5485668,5777892,5488241,5783153,1615,3785,-61,-2068,1272,-374,224,3905,45,30,869
799293,5485860,5778036,5488438,5783350,1567,3800,-49,-2190,1260,-167,429,4095,45,30,869
800295,5486036,5778212,5488635,5783547,1678,3800,-99,-2229,1306,-150,401,3786,47,36,869
801283,5486212,5778408,5488832,5783744,1687,3746,-211,-2114,1385,-22,189,3989,47,36,869
802284,5486408,5778620,5489029,5783941,1563,3641,-315,-1918,1391,682,58,4353,39,37,870
803285,5486592,5778832,5489226,5784138,1644,3635,-305,-1612,1321,1203,-192,5661,39,37,870
804286,5486764,5779068,5489423,5784335,1731,3469,-267,-1530,1349,14,-847,4390,50,32,870
805287,5486924,5779256,5489620,5784532,1822,3774,-208,-1741,1389,287,14,3651,50,32,870
806288,5487092,5779444,5489817,5784729,1786,3779,-162,-1927,1391,690,-750,4585,48,47,869
807289,5487248,5779636,5490014,5784926,1879,3757,-184,-1979,1328,676,196,3659,48,47,869
808290,5487404,5779880,5490211,5785123,1898,3413,-310,-2034,1347,-67,299,2986,25,48,868
809291,5487536,5780104,5490408,5785320,2077,3527,-418,-1877,1385,-48,378,4393,25,48,868
810292,5487688,5780316,5490605,5785517,1972,3596,-459,-1592,1417,-186,492,4381,31,34,868
811293,5487816,5780516,5490802,5785714,2153,3671,-527,-1478,1437,106,-97,3138,31,34,868
812294,5487988,5780720,5490999,5785911,1890,3644,-541,-1351,1442,92,-777,4252,28,32,869
813295,5488152,5780908,5491196,5786108,1954,3749,-523,-1308,1437,-53,-1291,3595,28,32,869
814296,5488308,5781120,5491393,5786305,2023,3593,-516,-1340,1429,-27,-1394,3103,37,35,868
815297,5488464,5781352,5491590,5786502,2042,3454,-505,-1397,1417,278,-791,3927,37,35,868
816298,5488616,5781564,5491787,5786699,2087,3573,-483,-1407,1453,-255,-768,3507,27,41,867
817299,5488768,5781744,5491984,5786896,2108,3782,-477,-1532,1466,119,-729,2782,27,41,867
818300,5488936,5781940,5492181,5787093,2021,3683,-423,-1625,1444,61,-685,3479,45,40,868
819301,5489104,5782144,5492378,5787290,2034,3631,-350,-1605,1428,103,-1146,3653,45,40,868
820302,5489236,5782340,5492575,5787487,2289,3682,-317,-1576,1401,402,-1002,2824,25,45,867
821303,5489396,5782548,5492772,5787684,2130,3604,-309,-1554,1442,-163,-1562,3181,25,45,867
822304,5489528,5782812,5492969,5787881,2335,3225,-285,-1388,1507,133,-1153,4037,41,56,869
823305,5489664,5783088,5493166,5788078,2337,3116,-242,-1154,1522,567,-30,3829,41,56,869
824306,5489804,5783348,5493363,5788275,2338,3190,-190,-1076,1599,-231,303,3333,22,43,869
825307,5489940,5783588,5493560,5788472,2390,3297,-184,-1341,1686,459,-790,1630,22,43,869
826308,5490060,5783904,5493757,5788669,2525,2770,-133,-1493,1672,1837,-1742,3026,20,63,871
827309,5490188,5784220,5493954,5788866,2505,2719,13,-1456,1683,804,-1210,3907,20,63,871
828310,5490344,5784528,5494151,5789063,2349,2720,183,-1412,1789,-165,-223,3256,42,50,868
829311,5490484,5784832,5494348,5789260,2476,2699,278,-1566,1871,538,-258,1891,42,50,868
830312,5490636,5785192,5494545,5789457,2421,2279,297,-1741,1875,1181,-691,2380,46,57,873
831313,5490784,5785596,5494742,5789654,2468,1914,331,-1711,1860,713,-983,3430,46,57,873
832314,5490928,5785936,5494939,5789851,2517,2252,343,-1681,1870,-186,-354,2358,25,71,874
833315,5491064,5786264,5495136,5790048,2595,2270,315,-1743,1936,-564,-23,2022,25,71,874
834316,5491220,5786580,5495333,5790245,2489,2293,219,-1822,1981,376,-310,1898,44,56,878
835317,5491364,5786968,5495530,5790442,2587,1760,163,-1632,2024,-46,-297,3327,44,56,878
836318,5491520,5787332,5495727,5790639,2531,1838,136,-1459,2007,311,429,2319,35,74,876
837319,5491716,5787688,5495924,5790836,2283,1818,147,-1217,1955,187,596,3324,35,74,876
838320,5491916,5788032,5496121,5791033,2257,1829,147,-989,2016,-755,234,2817,48,59,879
839321,5492112,5788400,5496318,5791230,2284,1604,119,-836,2029,784,-439,2528,48,59,879
840329,5492308,5788744,5496548,5791460,2299,1705,168,-532,1943,970,-406,4139,48,67,879
841324,5492468,5789048,5496745,5791657,2541,1908,259,-255,1885,412,64,3233,48,67,879
842324,5492664,5789448,5496942,5791854,2317,1220,291,-229,1827,1626,305,1735,52,65,881
843325,5492880,5789824,5497139,5792051,2185,1291,353,-169,1766,2016,902,2908,52,65,881
844326,5493084,5790148,5497336,5792248,2258,1561,465,-73,1805,829,720,2767,39,63,878
845327,5493300,5790432,5497533,5792445,2175,1773,616,-109,1971,-75,532,1766,39,63,878
846328,5493524,5790784,5497730,5792642,2114,1281,759,-175,2134,562,406,2192,58,63,883
847329,5493748,5791128,5497927,5792839,2103,1266,901,-15,2196,1189,248,3309,58,63,883
848330,5493952,5791460,5498124,5793036,2226,1282,1057,197,2203,1178,420,3098,52,72,882
849331,5494160,5791768,5498321,5793233,2197,1384,1138,254,2139,1769,678,1592,52,72,882
850332,5494408,5792068,5498518,5793430,1925,1389,1127,171,2067,1546,283,825,57,69,883
851333,5494632,5792416,5498715,5793627,2064,1023,1146,314,2115,229,71,3006,57,69,883
852334,5494844,5792744,5498912,5793824,2133,1090,1209,650,2246,-702,144,2811,44,54,882
853335,5495096,5793112,5499109,5794021,1860,766,1210,865,2292,392,-70,1658,44,54,882
854336,5495316,5793384,5499306,5794218,2050,1333,1164,1156,2215,1085,0,2745,48,60,886
855337,5495540,5793696,5499503,5794415,2014,1032,1089,1435,2104,634,293,2210,48,60,886
856338,5495788,5794052,5499700,5794612,1843,688,943,1591,1992,292,499,1192,43,65,887
857339,5496004,5794364,5499897,5794809,2035,912,836,1851,1912,310,507,2402,43,65,887
858340,5496252,5794656,5500094,5795006,1813,995,793,2332,1868,290,287,3200,38,61,886
859341,5496492,5794956,5500291,5795203,1845,900,724,2737,1874,554,-2030,2402,38,61,886
860342,5496724,5795312,5500488,5795400,1881,480,556,3101,1956,1521,-5255,2817,47,54,886
861343,5496964,5795640,5500685,5795597,1813,598,475,3442,1957,1248,-181,3988,47,54,886
862344,5497244,5795940,5500882,5795794,1526,727,514,3148,1884,234,503,681,60,67,886
863345,5497484,5796204,5501079,5795991,1758,923,701,2455,1740,67,-185,1153,60,67,886
864346,5497716,5796504,5501276,5796188,1794,653,982,2020,1564,367,353,3110,52,56,888
865347,5497960,5796800,5501473,5796385,1698,634,1092,2000,1376,1113,1720,3094,52,56,888
866348,5498176,5797072,5501670,5796582,1866,751,892,2194,1245,1352,851,2403,53,53,888
867349,5498392,5797320,5501867,5796779,1859,879,605,2543,1158,1096,-26,3502,53,53,888
868350,5498644,5797516,5502064,5796976,1609,1204,235,3095,1203,949,-610,4182,56,54,889
869351,5498880,5797720,5502261,5797173,1693,1151,-68,3706,1327,2024,-1158,5378,56,54,889
870352,5499108,5797972,5502458,5797370,1731,827,-237,3902,1464,1334,-691,4384,47,50,887
871353,5499304,5798184,5502655,5797567,1931,1070,-272,3462,1521,870,-217,3094,47,50,887
872354,5499516,5798396,5502852,5797764,1826,1063,-126,2893,1498,211,-626,4913,46,42,886
873355,5499720,5798576,5503049,5797961,1873,1270,27,2250,1475,-1225,-366,2891,46,42,886
874356,5499984,5798744,5503246,5798158,1469,1358,89,1806,1336,-1167,2253,3603,38,29,885
875357,5500244,5798932,5503443,5798355,1467,1237,122,1505,1171,-758,197,3813,38,29,885
876358,5500488,5799200,5503640,5798552,1547,706,138,1076,949,-388,-1891,4019,39,47,886
877359,5500724,5799416,5503837,5798749,1581,1022,227,411,794,-1666,-983,4299,39,47,886
878360,5500952,5799648,5504034,5798946,1618,907,207,-601,600,-350,-465,3111,39,33,888
879361,5501164,5799868,5504231,5799143,1711,972,118,-1218,411,-122,-1481,5684,39,33,888
880362,5501424,5800072,5504428,5799340,1385,1068,-43,-1630,341,-671,-2068,5108,57,48,889
881363,5501680,5800264,5504625,5799537,1384,1145,-237,-1943,251,-326,-1147,5504,57,48,889
882364,5501920,5800452,5504822,5799734,1466,1174,-448,-2136,178,-741,-1416,6169,40,44,888
883365,5502156,5800716,5505019,5799931,1475,670,-774,-2155,111,-755,-1876,5799,40,44,888
884366,5502396,5800944,5505216,5800128,1431,881,-1156,-1888,-83,670,-1131,6243,40,49,888
885367,5502668,5801180,5505413,5800325,1199,814,-1627,-1443,-316,566,-948,6032,40,49,888
886368,5502904,5801388,5505610,5800522,1407,984,-2040,-1082,-570,960,-475,5253,50,34,890
887369,5503136,5801632,5505807,5800719,1417,737,-2231,-1260,-777,1079,-1454,4879,50,34,890
888370,5503388,5801820,5506004,5800916,1268,1091,-2114,-1864,-952,1444,-950,5397,49,39,891
889371,5503600,5802044,5506201,5801113,1513,854,-1787,-2911,-1067,1778,-609,4461,49,39,891
890372,5503828,5802296,5506398,5801310,1399,655,-1455,-4034,-1133,2106,-874,4341,56,38,890
891373,5504076,5802524,5506595,5801507,1252,792,-1194,-4817,-1192,1980,-571,4762,56,38,890
892374,5504292,5802736,5506792,5801704,1444,885,-1132,-5134,-1263,2077,-466,3789,45,34,889
893375,5504484,5802924,5506989,5801901,1597,1038,-1246,-5087,-1334,2213,146,3760,45,34,889
894376,5504664,5803064,5507186,5802098,1680,1363,-1450,-4645,-1395,2527,-1586,4150,26,22,889
895377,5504848,5803204,5507383,5802295,1662,1388,-1625,-4044,-1457,2567,-228,4802,26,22,889
896378,5504984,5803340,5507580,5802492,1988,1440,-1709,-3591,-1579,3232,1404,4368,41,38,887
897379,5505180,5803524,5507777,5802689,1614,1146,-1834,-3411,-1731,3737,-206,3442,41,38,887
898380,5505340,5803716,5507974,5802886,1856,1097,-1985,-3176,-1837,4093,-1348,3886,38,23,886
899381,5505488,5803876,5508171,5803083,1953,1313,-2114,-2897,-1885,3968,80,4014,38,23,886
900382,5505628,5804004,5508368,5803280,2029,1543,-2059,-2668,-1907,4113,700,4407,32,29,887
901383,5505796,5804132,5508565,5803477,1867,1574,-1921,-2480,-1830,4013,-450,4591,32,29,887
902384,5505948,5804264,5508762,5803674,1987,1577,-1784,-2324,-1627,3105,622,4441,25,16,884
903385,5506100,5804392,5508959,5803871,2008,1633,-1732,-2428,-1350,2795,-258,2564,25,16,884
904386,5506244,5804496,5509156,5804068,2081,1823,-1652,-2539,-1148,4488,-1808,3920,22,28,883
905387,5506384,5804640,5509353,5804265,2132,1597,-1450,-2331,-1060,5328,-2219,5643,22,28,883
906388,5506528,5804752,5509550,5804462,2131,1833,-1163,-1822,-1116,6436,-1419,6028,28,31,881
907389,5506696,5804856,5509747,5804659,1994,1924,-858,-1250,-1214,6358,-785,6525,28,31,881
908390,5506864,5804984,5509944,5804856,2007,1804,-633,-947,-1145,4733,317,4997,23,13,882
909391,5507004,5805100,5510141,5805053,2208,1915,-667,-1092,-754,2606,-1192,1673,23,13,882
910392,5507232,5805204,5510338,5805250,1645,2031,-789,-1018,-204,2611,-2961,3740,45,16,880
911393,5507416,5805300,5510535,5805447,1926,2125,-688,-145,178,4043,-1272,8402,45,16,880
912394,5507616,5805412,5510732,5805644,1826,2062,-520,902,314,4832,-3041,6040,28,20,880
913395,5507812,5805508,5510929,5805841,1851,2207,-422,1565,363,4368,-1574,4983,28,20,880
914396,5508032,5805616,5511126,5806038,1692,2171,-354,1772,484,3788,-1944,4054,31,22,879
915397,5508240,5805744,5511323,5806235,1763,2077,-181,1765,722,2471,-2599,4816,31,22,879
916398,5508468,5805848,5511520,5806432,1625,2268,138,1660,991,2078,-3347,4779,32,30,879
917399,5508704,5805952,5511717,5806629,1559,2309,421,1556,1204,1558,-3073,4654,32,30,879
918400,5508928,5806092,5511914,5806826,1622,2109,514,1446,1416,222,-2749,3589,35,26,879
919401,5509148,5806232,5512111,5807023,1638,2134,353,1284,1669,-594,-2998,2495,35,26,879
920402,5509380,5806396,5512308,5807220,1547,1999,68,951,1710,963,-1822,2015,47,18,881
921403,5509604,5806540,5512505,5807417,1586,2147,1,982,1630,1348,-2632,6261,47,18,881
922404,5509828,5806636,5512702,5807614,1575,2492,132,1064,1516,1577,-2907,5738,52,32,882
923414,5510068,5806776,5512932,5807844,1471,2257,283,715,1390,1400,-2338,4187,52,32,882
924406,5510300,5806868,5513129,5808041,1507,2603,440,393,1343,708,-1694,6111,51,21,882
925407,5510540,5807016,5513326,5808238,1438,2275,500,147,1361,507,-1446,4491,51,21,882
926408,5510828,5807148,5513523,5808435,1099,2403,469,-132,1362,402,-334,3450,51,22,881
927409,5511068,5807292,5513720,5808632,1380,2352,495,-207,1301,590,389,5235,51,22,881
928410,5511324,5807432,5513917,5808829,1255,2402,533,-212,1122,1267,-90,3860,60,23,880
929411,5511580,5807600,5514114,5809026,1229,2240,517,-414,919,1167,219,2936,60,23,880
930412,5511836,5807796,5514311,5809223,1204,2066,462,-543,763,978,-71,3225,40,32,882
931413,5512088,5807980,5514508,5809420,1205,2147,357,-679,696,219,-57,2683,40,32,882
932414,5512340,5808188,5514705,5809617,1182,1992,176,-678,661,491,209,2068,43,31,883
933415,5512596,5808352,5514902,5809814,1131,2282,-71,-653,583,1326,137,1841,43,31,883
934416,5512824,5808528,5515099,5810011,1293,2216,-229,-492,494,1880,-772,3035,36,42,884
935417,5513060,5808700,5515296,5810208,1226,2253,-228,-253,469,1426,-86,3797,36,42,884
936418,5513280,5808896,5515493,5810405,1316,2104,-199,-305,496,1871,-154,2135,40,34,883
937419,5513492,5809116,5515690,5810602,1360,1944,-104,-477,582,1562,-35,3123,40,34,883
938420,5513704,5809332,5515887,5810799,1354,1961,46,-664,700,1373,-1039,3619,35,41,882
939421,5513960,5809540,5516084,5810996,1054,2006,171,-906,790,1106,-718,2145,35,41,882
940422,5514188,5809752,5516281,5811193,1215,1975,223,-1196,872,707,686,2733,41,33,883
941423,5514368,5809968,5516478,5811390,1523,1941,270,-1317,940,775,-23,2946,41,33,883
942424,5514576,5810228,5516675,5811587,1344,1640,319,-1472,872,1782,788,2567,31,53,886
943425,5514760,5810416,5516872,5811784,1500,2094,313,-1605,835,813,0,2106,31,53,886
944426,5514932,5810636,5517069,5811981,1587,1884,269,-1611,918,662,-1076,2509,27,41,884
945427,5515124,5810852,5517266,5812178,1464,1900,254,-1450,999,1082,-595,2822,27,41,884
946428,5515312,5811060,5517463,5812375,1493,1946,247,-1299,1043,939,125,2005,24,32,883
947429,5515468,5811280,5517660,5812572,1712,1861,279,-985,1063,1444,380,3398,24,32,883
948430,5515656,5811472,5517857,5812769,1516,2038,275,-589,1064,2221,-1170,3374,27,40,884
949431,5515808,5811648,5518054,5812966,1762,2148,245,-164,1014,1775,-287,3365,27,40,884
950432,5515988,5811848,5518251,5813163,1594,1997,189,33,1089,-368,-841,3192,25,34,881
951433,5516160,5812068,5518448,5813360,1656,1862,264,152,1126,735,-1013,4487,25,34,881
952434,5516320,5812272,5518645,5813557,1747,1959,398,73,1037,1320,181,4061,41,35,881
953435,5516492,5812496,5518842,5813754,1683,1822,481,-359,1074,-392,-617,2080,41,35,881
954436,5516692,5812664,5519039,5813951,1508,2186,541,-794,1138,380,-629,4064,41,36,883
955437,5516836,5812864,5519236,5814148,1881,1985,660,-889,1179,545,-1222,5589,41,36,883
956438,5516996,5813060,5519433,5814345,1798,2010,699,-904,1234,611,-880,4360,25,41,883
957439,5517148,5813256,5519630,5814542,1868,2011,639,-709,1325,934,-1139,4784,25,41,883
958440,5517320,5813452,5519827,5814739,1755,2012,615,-304,1350,1356,-599,5911,32,34,880
959441,5517472,5813628,5520024,5814936,1900,2146,622,-71,1391,235,-486,5051,32,34,880
960442,5517624,5813792,5520221,5815133,1921,2236,598,39,1397,1294,19,4710,35,29,879
961443,5517784,5813952,5520418,5815330,1887,2277,571,117,1393,1959,-1207,4381,35,29,879
962444,5517940,5814112,5520615,5815527,1931,2294,617,219,1471,1283,-642,4715,32,32,879
963445,5518108,5814288,5520812,5815724,1869,2204,685,158,1662,330,-1969,3605,32,32,879
964446,5518308,5814476,5521009,5815921,1668,2133,823,223,1893,-277,-1771,5239,25,41,879
965447,5518488,5814640,5521206,5816118,1801,2298,920,412,2052,19,-166,4807,25,41,879
966448,5518636,5814800,5521403,5816315,2023,2339,819,557,2148,264,-1009,3150,25,22,879
967449,5518804,5814984,5521600,5816512,1911,2195,737,810,2193,106,-322,5260,25,22,879
968450,5518964,5815156,5521797,5816709,1978,2281,719,934,2168,197,271,4200,25,40,879
969451,5519120,5815328,5521994,5816906,2021,2293,688,1034,2145,651,-450,4365,25,40,879
970452,5519276,5815480,5522191,5817103,2041,2438,706,1284,2150,1197,-496,5117,26,25,879
971453,5519444,5815656,5522388,5817300,1978,2297,707,1275,2231,49,-145,3162,26,25,879
972454,5519600,5815812,5522585,5817497,2072,2441,721,1128,2332,-624,656,4277,39,25,877
973455,5519784,5816016,5522782,5817694,1904,2138,739,1174,2380,-504,-778,5250,39,25,877
974456,5519956,5816184,5522979,5817891,1990,2376,681,1189,2366,-765,764,4040,30,26,879
975457,5520128,5816368,5523176,5818088,2002,2282,556,1014,2316,-1474,942,3666,30,26,879
976458,5520280,5816528,5523373,5818285,2147,2449,466,787,2211,-1069,585,5038,41,28,880
977459,5520424,5816704,5523570,5818482,2221,2358,396,751,2010,-170,742,5541,41,28,880
978460,5520556,5816880,5523767,5818679,2325,2368,191,814,1640,-717,1624,4676,38,38,879
979461,5520684,5817076,5523964,5818876,2381,2244,-71,1133,1119,-2192,1276,6726,38,38,879
980462,5520844,5817328,5524161,5819073,2198,1869,-257,1688,683,-1332,1182,7866,33,52,877
981463,5520960,5817560,5524358,5819270,2509,1980,-426,2145,433,-701,1712,6485,33,52,877
982464,5521080,5817808,5524555,5819467,2519,1858,-484,2162,400,-627,791,6303,29,39,875
983465,5521268,5818104,5524752,5819664,2099,1514,-427,1552,452,-531,998,3896,29,39,875
984466,5521456,5818280,5524949,5819861,2103,2273,-233,680,497,-554,754,4695,43,34,877
985467,5521608,5818416,5525146,5820058,2348,2551,70,63,557,-215,257,5991,43,34,877
986468,5521788,5818540,5525343,5820255,2182,2658,164,-319,632,35,523,3524,45,22,883
987469,5521924,5818656,5525540,5820452,2484,2744,1,-378,755,180,723,4074,45,22,883
988470,5522108,5818784,5525737,5820649,2190,2700,-141,66,920,-74,-277,7035,48,29,873
989471,5522256,5818936,5525934,5820846,2438,2570,-214,398,1088,-809,-870,5192,48,29,873
990472,5522384,5819112,5526131,5821043,2593,2429,-310,413,1200,-684,-451,4388,41,23,872
991473,5522524,5819340,5526328,5821240,2544,2091,-372,389,1246,100,-594,5739,41,23,872
992474,5522680,5819600,5526525,5821437,2463,1864,-400,431,1226,283,-57,5712,21,37,874
993475,5522812,5819840,5526722,5821634,2643,1971,-359,577,1234,-158,-817,5546,21,37,874
994476,5522948,5820108,5526919,5821831,2645,1765,-279,781,1209,541,211,5916,31,64,876
995477,5523084,5820436,5527116,5822028,2672,1332,-345,763,1241,-453,-1872,2573,31,64,876
996478,5523216,5820760,5527313,5822225,2727,1302,-383,803,1216,386,-1626,4508,39,69,877
997479,5523344,5821080,5527510,5822422,2783,1273,-260,1127,1286,-652,-2282,5946,39,69,877
998480,5523464,5821436,5527707,5822619,2867,978,-204,1199,1386,128,-1171,2439,43,76,879
999481,5523648,5821764,5527904,5822816,2474,1096,-282,1187,1480,1123,-1149,2852,43,76,879
1000482,5523816,5822060,5528101,5823013,2588,1252,-327,1529,1510,1047,-1199,4700,37,65,879
1001483,5523980,5822304,5528298,5823210,2628,1558,-385,1915,1439,-323,-877,3943,37,65,879
1002484,5524144,5822604,5528495,5823407,2644,1162,-509,2111,1213,-622,243,3208,31,55,882
1003485,5524312,5822904,5528692,5823604,2631,1117,-621,2279,841,-492,914,4328,31,55,882
1004486,5524504,5823180,5528889,5823801,2485,1232,-730,2366,494,-927,14,3696,47,59,878
1005487,5524704,5823416,5529086,5823998,2434,1465,-756,2423,232,-391,510,4534,47,59,878
1006495,5524884,5823676,5529316,5824228,2582,1302,-599,2424,98,-1187,29,5007,32,48,880
1007489,5525068,5823972,5529513,5824425,2564,1034,-342,2219,42,-1405,-411,4475,32,48,880
1008490,5525292,5824296,5529710,5824622,2303,804,-89,1912,84,-1302,-1209,4570,43,64,881
1009491,5525500,5824588,5529907,5824819,2399,962,192,1585,228,-1325,-1108,4897,43,64,881
1010492,5525680,5824860,5530104,5825016,2582,1054,476,1155,392,-802,-1049,4185,39,48,882
1011493,5525908,5825100,5530301,5825213,2269,1235,680,548,360,949,-1137,3416,39,48,882
1012494,5526132,5825364,5530498,5825410,2283,1056,843,71,117,1378,-1032,4901,38,62,884
1013495,5526316,5825652,5530695,5825607,2540,866,844,-292,-226,432,-1018,3481,38,62,884
1014496,5526524,5825940,5530892,5825804,2386,826,603,-268,-633,176,-946,4204,33,59,883
1015497,5526708,5826176,5531089,5826001,2543,1134,181,311,-926,-840,-532,5075,33,59,883
1016498,5526892,5826416,5531286,5826198,2548,1090,-355,947,-1028,-2090,-521,3729,34,54,882
1017499,5527092,5826604,5531483,5826395,2448,1419,-658,1390,-1085,-1660,-869,5410,34,54,882
1018500,5527284,5826816,5531680,5826592,2501,1262,-638,1424,-1201,-769,-921,5635,40,34,882
1019501,5527484,5827016,5531877,5826789,2451,1335,-557,837,-1314,-505,-1428,3629,40,34,882
1020502,5527680,5827188,5532074,5826986,2477,1521,-368,189,-1343,-457,-1876,6932,34,26,881
1021503,5527916,5827332,5532271,5827183,2211,1719,-230,-371,-1427,553,-1404,5080,34,26,881
1022504,5528108,5827496,5532468,5827380,2489,1609,-296,-866,-1557,314,-332,3767,54,34,882
1023505,5528300,5827620,5532665,5827577,2492,1891,-428,-818,-1675,445,492,6239,54,34,882
1024506,5528508,5827748,5532862,5827774,2388,1896,-624,-614,-1662,-204,-339,4152,38,24,880
1025507,5528704,5827880,5533059,5827971,2464,1899,-770,-539,-1670,1033,-1283,3583,38,24,880
1026508,5528864,5827992,5533256,5828168,2707,2062,-729,-542,-1754,1550,-2005,4721,43,15,876
1027509,5529064,5828100,5533453,5828365,2456,2126,-569,-679,-1781,262,-1526,4105,43,15,876
1028510,5529240,5828204,5533650,5828562,2615,2192,-414,-915,-1711,131,-1973,3448,42,32,877
1029511,5529412,5828332,5533847,5828759,2652,2073,-308,-1118,-1671,765,-763,3286,42,32,877
1030512,5529620,5828452,5534044,5828956,2424,2157,-270,-1261,-1600,-437,-745,2728,48,19,877
1031513,5529824,5828596,5534241,5829153,2447,2030,-294,-1400,-1569,-263,-1058,2341,48,19,877
1032514,5530016,5828692,5534438,5829350,2525,2375,-302,-1211,-1644,748,-973,4032,51,18,876
1033515,5530208,5828820,5534635,5829547,2528,2205,-334,-865,-1801,1025,-695,3870,51,18,876
1034516,5530416,5828916,5534832,5829744,2423,2449,-418,-621,-2004,1484,-985,2754,46,29,877
1035517,5530616,5829012,5535029,5829941,2473,2494,-439,-483,-2115,1352,-1429,3972,46,29,877
1036518,5530844,5829144,5535226,5830138,2285,2297,-358,-471,-2111,814,-909,3546,35,16,876
1037519,5531080,5829232,5535423,5830335,2219,2621,-305,-696,-2095,1397,-306,2048,35,16,876
1038520,5531304,5829352,5535620,5830532,2283,2455,-268,-823,-2014,864,-597,2853,50,29,873
1039521,5531528,5829484,5535817,5830729,2272,2409,-226,-826,-1887,659,-613,3239,50,29,873
1040522,5531756,5829600,5536014,5830926,2234,2544,-202,-724,-1825,1036,-301,2501,42,25,875
1041523,5531992,5829740,5536211,5831123,2168,2419,-185,-577,-1821,1067,-806,2852,42,25,875
1042524,5532216,5829868,5536408,5831320,2232,2526,-132,-381,-1816,937,-1034,3428,39,21,877
1043525,5532492,5829988,5536605,5831517,1873,2609,-65,-242,-1859,1872,-248,3160,39,21,877
1044526,5532748,5830092,5536802,5831714,1973,2750,-5,-228,-1857,1095,-293,2798,58,24,876
1045527,5532984,5830204,5536999,5831911,2081,2739,47,-308,-1828,876,278,2649,58,24,876
1046528,5533268,5830292,5537196,5832108,1744,2937,80,-402,-1785,1077,-582,2601,61,29,876
1047529,5533540,5830420,5537393,5832305,1787,2717,103,-463,-1747,1195,18,2801,61,29,876
1048530,5533796,5830552,5537590,5832502,1862,2721,111,-533,-1701,1145,-56,2405,58,32,874
1049531,5534064,5830676,5537787,5832699,1756,2804,129,-515,-1665,1005,-1082,3080,58,32,874
1050532,5534356,5830784,5537984,5832896,1565,2943,218,-369,-1580,20,-649,3783,44,18,875
1051533,5534624,5830892,5538181,5833093,1685,2983,257,-496,-1508,40,-238,1736,44,18,875
1052534,5534892,5831008,5538378,5833290,1653,2968,232,-694,-1439,214,-656,2341,48,21,876
1053535,5535212,5831124,5538575,5833487,1275,3005,264,-720,-1420,936,-1085,3566,48,21,876
1054536,5535476,5831212,5538772,5833684,1597,3228,277,-819,-1383,471,-742,2924,46,13,875
1055537,5535732,5831324,5538969,5833881,1621,3116,300,-973,-1396,1034,-284,2690,46,13,875
1056538,5536012,5831436,5539166,5834078,1436,3154,288,-1170,-1391,669,-1425,3420,48,19,876
1057539,5536288,5831540,5539363,5834275,1427,3245,286,-1225,-1301,87,-879,3462,48,19,876
1058540,5536568,5831672,5539560,5834472,1365,3099,249,-1377,-1211,352,-88,2492,57,29,871
1059541,5536856,5831764,5539757,5834669,1276,3396,172,-1540,-1170,389,12,2622,57,29,871
1060542,5537096,5831908,5539954,5834866,1557,3094,159,-1606,-1115,-43,-713,3378,66,19,873
1061543,5537352,5832024,5540151,5835063,1433,3306,156,-1652,-1045,293,-895,3029,66,19,873
1062544,5537648,5832144,5540348,5835260,1139,3315,172,-1821,-1026,570,-500,2322,50,25,874
1063545,5537912,5832300,5540545,5835457,1311,3109,227,-2104,-958,-134,-756,2728,50,25,874
1064546,5538148,5832448,5540742,5835654,1468,3180,252,-2294,-876,-129,-785,3099,64,30,872
1065547,5538424,5832588,5540939,5835851,1185,3256,247,-2424,-846,174,-878,2546,64,30,872
1066548,5538680,5832732,5541136,5836048,1284,3256,225,-2475,-873,355,-228,3180,39,29,876
1067549,5538920,5832856,5541333,5836245,1366,3413,184,-2568,-895,413,-634,3140,39,29,876
1068550,5539152,5832996,5541530,5836442,1401,3339,175,-2621,-886,424,-560,3449,45,22,875
1069551,5539408,5833160,5541727,5836639,1226,3204,138,-2767,-839,532,-323,3353,45,22,875
1070552,5539624,5833324,5541924,5836836,1467,3219,107,-2983,-780,732,-272,2932,47,36,872
1071553,5539840,5833492,5542121,5837033,1460,3208,69,-3189,-732,812,-169,3426,47,36,872
1072554,5540080,5833644,5542318,5837230,1291,3328,67,-3247,-681,649,-419,3735,36,24,872
1073555,5540344,5833792,5542515,5837427,1112,3375,57,-3375,-668,885,244,3218,36,24,872
1074556,5540576,5833952,5542712,5837624,1297,3317,36,-3450,-652,923,409,3459,40,36,875
1075557,5540824,5834116,5542909,5837821,1175,3308,31,-3540,-638,827,277,3609,40,36,875
1076558,5541044,5834280,5543106,5838018,1341,3322,35,-3609,-583,194,-352,3459,49,28,875
1077559,5541284,5834440,5543303,5838215,1197,3364,44,-3694,-530,725,-34,3641,49,28,875
1078560,5541548,5834624,5543500,5838412,1017,3221,25,-3771,-518,1091,275,3242,39,31,875
1079561,5541808,5834792,5543697,5838609,1016,3335,-34,-3889,-487,732,-124,3067,39,31,875
1080562,5542032,5835004,5543894,5838806,1229,3053,-26,-3853,-470,928,272,4560,64,29,875
1081563,5542268,5835172,5544091,5839003,1138,3342,-38,-3817,-446,856,148,3554,64,29,875
1082564,5542528,5835324,5544288,5839200,960,3463,-103,-3903,-364,646,-452,3275,59,42,874
1083565,5542756,5835452,5544485,5839397,1146,3644,-91,-3783,-258,818,93,5462,59,42,874
1084566,5543004,5835624,5544682,5839594,1000,3380,-121,-3559,-292,2176,-579,4647,52,38,875
1085567,5543228,5835820,5544879,5839791,1138,3232,-248,-3406,-284,1089,371,3457,52,38,875
1086568,5543452,5836008,5545076,5839988,1126,3287,-380,-3161,-118,495,485,4812,40,44,872
1087569,5543688,5836208,5545273,5840185,1034,3211,-384,-2915,2,1300,57,5420,40,44,872
1088570,5543928,5836368,5545470,5840382,991,3477,-340,-2863,77,1392,314,4363,43,45,874
1089578,5544128,5836556,5545700,5840612,1254,3322,-327,-2967,112,2077,412,4058,43,45,874
1090572,5544332,5836728,5545897,5840809,1226,3434,-284,-2963,126,2158,-130,5691,47,27,877
1091573,5544532,5836912,5546094,5841006,1251,3366,-276,-2940,181,1248,-520,4325,47,27,877
1092574,5544696,5837064,5546291,5841203,1490,3585,-282,-2897,253,1462,-591,4885,42,29,873
1093575,5544872,5837252,5546488,5841400,1425,3365,-291,-2579,252,2686,-886,6009,42,29,873
1094576,5545052,5837448,5546685,5841597,1408,3317,-329,-2277,273,2043,-709,4995,47,46,873
1095577,5545260,5837648,5546882,5841794,1228,3291,-328,-2020,376,1657,-215,5810,47,46,873
1096578,5545448,5837852,5547079,5841991,1357,3264,-277,-1938,511,1771,-628,5070,48,35,874
1097579,5545628,5838024,5547276,5842188,1415,3475,-246,-1934,700,1095,-293,4921,48,35,874
1098580,5545800,5838180,5547473,5842385,1477,3594,-211,-1924,865,1454,-1148,5214,45,30,875
1099581,5545964,5838368,5547670,5842582,1541,3399,-131,-1834,961,1207,-1093,6032,45,30,875
1100582,5546164,5838552,5547867,5842779,1315,3431,-75,-1796,1003,745,-853,4800,42,36,873
1101583,5546316,5838712,5548064,5842976,1636,3598,-59,-1845,1077,-89,-172,5044,42,36,873
1102584,5546504,5838904,5548261,5843173,1415,3401,-65,-1807,1111,604,-553,5472,26,26,872
1103585,5546660,5839064,5548458,5843370,1633,3618,-66,-1696,1059,1162,-645,5259,26,26,872
1104586,5546832,5839220,5548655,5843567,1545,3662,-60,-1490,1067,217,-975,6082,22,29,869
1105587,5547000,5839364,5548852,5843764,1582,3761,-42,-1378,1115,483,-1159,5302,22,29,869
1106588,5547156,5839528,5549049,5843961,1675,3652,-4,-1357,1175,504,-955,5807,24,26,869
1107589,5547348,5839692,5549246,5844158,1454,3666,107,-1363,1227,622,-1182,6078,24,26,869
1108590,5547524,5839860,5549443,5844355,1563,3655,204,-1602,1293,200,-896,4924,46,25,869
1109591,5547676,5840032,5549640,5844552,1734,3642,311,-1878,1387,-279,-237,4967,46,25,869
1110592,5547856,5840184,5549837,5844749,1566,3788,421,-2184,1450,-251,-751,5201,25,28,871
1111593,5548032,5840352,5550034,5844946,1600,3701,495,-2343,1438,244,-193,5315,25,28,871
1112607,5548208,5840504,5550231,5845143,1611,3800,461,-2384,1339,894,-78,4904,49,29,870
1113595,5548416,5840680,5550428,5845340,1406,3682,375,-2241,1329,-411,-571,5654,49,29,870
1114608,5548584,5840836,5550625,5845537,1668,3800,284,-2031,1358,-550,-1220,5450,49,40,868
1115597,5548764,5841000,5550822,5845734,1602,3791,259,-1820,1324,190,-680,6259,49,40,868
1116611,5548936,5841144,5551019,5845931,1663,3800,240,-1684,1292,206,-1019,5665,49,30,869
1117599,5549132,5841340,5551216,5846128,1514,3617,292,-1789,1271,161,-182,5443,49,30,869
1118600,5549320,5841516,5551413,5846325,1568,3752,375,-2079,1264,-81,-612,5249,48,34,866
1119601,5549524,5841724,5551610,5846522,1465,3548,450,-2374,1282,-346,-349,5131,48,34,866
1120602,5549708,5841916,5551807,5846719,1597,3651,419,-2483,1255,638,-335,5124,28,28,871
1121603,5549924,5842088,5552004,5846916,1389,3788,311,-2357,1278,-18,-462,5287,28,28,871
1122604,5550104,5842280,5552201,5847113,1622,3666,213,-2121,1311,201,-408,5412,29,31,872
1123605,5550304,5842488,5552398,5847310,1496,3563,141,-1913,1326,269,-80,4954,29,31,872
1124606,5550500,5842716,5552595,5847507,1521,3425,82,-1919,1334,17,54,3838,36,44,870
1125607,5550696,5842928,5552792,5847704,1523,3519,66,-1960,1395,-751,368,4406,36,44,870
1126608,5550900,5843104,5552989,5847901,1470,3755,83,-1885,1441,-218,206,4841,53,44,870
1127609,5551080,5843304,5553186,5848098,1628,3603,41,-1818,1453,-345,-621,3998,53,44,870
1128610,5551276,5843476,5553383,5848295,1528,3790,12,-1730,1438,-598,-202,4901,31,34,871
1129611,5551452,5843660,5553580,5848492,1663,3722,32,-1623,1431,-844,-486,4891,31,34,871
1130612,5551624,5843860,5553777,5848689,1700,3622,97,-1606,1444,-931,12,4744,47,32,871
1131613,5551816,5844100,5553974,5848886,1577,3354,114,-1773,1523,-1066,252,3895,47,32,871
1132614,5552004,5844324,5554171,5849083,1607,3443,67,-1874,1661,-1315,413,3934,38,45,870
1133615,5552168,5844556,5554368,5849280,1771,3378,6,-1874,1758,-905,581,4551,38,45,870
1134616,5552332,5844764,5554565,5849477,1786,3525,-99,-1813,1762,-291,60,3764,43,40,873
1135617,5552504,5844976,5554762,5849674,1748,3494,-212,-1686,1752,-184,-350,3968,43,40,873
1136618,5552660,5845160,5554959,5849871,1866,3676,-260,-1544,1788,-440,-563,4635,30,45,871
1137619,5552812,5845368,5555156,5850068,1912,3521,-197,-1378,1942,-1338,-898,4779,30,45,871
1138620,5552976,5845560,5555353,5850265,1851,3624,-207,-1448,2068,-296,-212,2933,38,30,869
1139621,5553120,5845772,5555550,5850462,2000,3494,-346,-1787,1559,6049,1956,861,38,30,869
1140622,5553244,5845964,5555747,5850659,2157,3622,-311,-1520,1299,1425,-1241,7569,28,29,869
1141623,5553384,5846168,5555944,5850856,2084,3545,-162,-1105,1457,-864,-578,4502,28,29,869
1142624,5553568,5846352,5556141,5851053,1814,3676,-209,-1265,1590,143,21,771,29,30,870
1143625,5553720,5846556,5556338,5851250,2035,3549,-258,-1387,1578,549,155,3909,29,30,870
1144626,5553880,5846764,5556535,5851447,2001,3520,-247,-1187,1606,142,-1072,4393,31,31,869
1145627,5554040,5846956,5556732,5851644,2019,3624,-221,-1119,1679,7,-172,2697,31,31,869
1146628,5554184,5847168,5556929,5851841,2142,3493,-203,-1193,1807,-991,-440,3193,32,36,868
1147629,5554332,5847360,5557126,5852038,2139,3620,-180,-1182,1868,-635,-640,3630,32,36,868
1148630,5554516,5847552,5557323,5852235,1920,3623,-175,-1059,1806,-86,-548,3582,45,45,867
1149631,5554664,5847744,5557520,5852432,2168,3627,-210,-994,1727,-196,-773,2987,45,45,867
1150632,5554816,5847924,5557717,5852629,2162,3710,-221,-1089,1648,236,-234,2783,36,40,867
1151633,5554964,5848144,5557914,5852826,2210,3451,-193,-1242,1658,-241,-1077,2570,36,40,867
1152634,5555096,5848424,5558111,5853023,2338,3041,-108,-1316,1740,-435,-1042,3660,23,42,867
1153635,5555228,5848704,5558308,5853220,2368,3005,29,-1371,1798,191,-465,3321,23,42,867
1154636,5555368,5848944,5558505,5853417,2343,3237,125,-1497,1900,-234,74,2886,31,58,869
1155637,5555504,5849212,5558702,5853614,2396,3031,144,-1821,2051,-554,-102,1642,31,58,869
1156638,5555624,5849508,5558899,5853811,2531,2813,157,-2166,2119,173,130,2265,19,63,871
1157639,5555772,5849872,5559096,5854008,2377,2316,203,-2269,2102,232,-686,2962,19,63,871
1158640,5555924,5850172,5559293,5854205,2373,2672,269,-2075,2085,-131,-2826,4012,37,55,870
1159641,5556068,5850468,5559490,5854402,2447,2654,301,-1670,2028,123,120,4569,37,55,870
1160642,5556228,5850836,5559687,5854599,2364,2129,95,-1537,2009,417,-124,1743,42,55,875
1161643,5556364,5851188,5559884,5854796,2541,2162,-217,-1356,2007,744,-210,3719,42,55,875
1162644,5556520,5851500,5560081,5854993,2435,2363,-403,-1080,2074,-782,316,4132,42,66,874
1163645,5556668,5851832,5560278,5855190,2507,2179,-490,-1014,2182,-1443,793,2389,42,66,874
1164646,5556836,5852132,5560475,5855387,2396,2334,-558,-1182,2273,-42,20,2153,25,62,876
1165647,5556980,5852500,5560672,5855584,2570,1835,-540,-1115,2280,1370,-132,3970,25,62,876
1166648,5557152,5852840,5560869,5855781,2406,1947,-435,-1043,2217,1881,-224,3038,38,71,877
1167649,5557356,5853144,5561066,5855978,2204,2126,-250,-1006,2219,722,-341,3434,38,71,877
1168650,5557552,5853468,5561263,5856175,2255,1945,-65,-955,2356,102,236,3476,34,68,878
1169651,5557732,5853816,5561460,5856372,2363,1730,7,-1008,2444,1246,544,2275,34,68,878
1170652,5557932,5854164,5561657,5856569,2237,1663,24,-1029,2462,1252,-176,2747,40,72,878
1171653,5558132,5854464,5561854,5856766,2237,1919,134,-935,2493,483,121,3691,40,72,878
1172661,5558296,5854760,5562084,5856996,2492,1915,260,-864,2551,212,864,2442,38,69,880
1173655,5558532,5855120,5562281,5857193,2025,1444,323,-951,2556,1351,789,1477,38,69,880
1174656,5558744,5855488,5562478,5857390,2169,1319,396,-882,2522,1447,-179,3153,57,61,880
1175657,5558940,5855784,5562675,5857587,2271,1727,547,-646,2563,37,-373,3429,57,61,880
1176658,5559164,5856052,5562872,5857784,2084,1871,641,-504,2602,-32,183,1815,41,62,883
1177659,5559352,5856384,5563069,5857981,2314,1411,613,-449,2532,996,388,1537,41,62,883
1178660,5559552,5856708,5563266,5858178,2239,1406,589,-181,2408,1304,-39,3195,53,59,881
1179661,5559760,5857036,5563463,5858375,2185,1324,585,221,2305,720,8,2808,53,59,881
1180662,5559992,5857328,5563660,5858572,2019,1507,548,429,2282,-419,291,1144,40,61,881
1181663,5560212,5857616,5563857,5858769,2085,1492,502,586,2290,-20,246,1856,40,61,881
1182664,5560420,5857976,5564054,5858966,2156,971,522,995,2282,-62,64,3288,38,53,882
1183665,5560652,5858316,5564251,5859163,1991,1034,591,1450,2214,552,-254,3027,38,53,882
1184666,5560864,5858632,5564448,5859360,2111,1131,620,1738,2095,1045,-216,2216,54,59,883
1185667,5561100,5858944,5564645,5859557,1944,1106,574,1814,1982,1043,-166,1084,54,59,883
1186668,5561348,5859308,5564842,5859754,1847,707,496,1822,1902,722,-50,1369,51,65,885
1187669,5561576,5859648,5565039,5859951,1959,795,534,2051,1824,777,263,3026,51,65,885
1188670,5561808,5859972,5565236,5860148,1920,839,623,2279,1796,159,-1936,2286,37,52,885
1189671,5562056,5860252,5565433,5860345,1798,1077,798,2400,1762,634,-3059,2961,37,52,885
1190672,5562288,5860580,5565630,5860542,1883,720,977,2399,1690,1096,-527,3122,60,52,887
1191673,5562524,5860928,5565827,5860739,1842,528,1018,2212,1619,770,-239,1457,60,52,887
1192674,5562808,5861260,5566024,5860936,1504,569,943,2278,1650,1428,-621,3777,52,69,885
1193675,5563040,5861540,5566221,5861133,1814,858,732,2571,1661,1460,163,2768,52,69,885
1194676,5563268,5861776,5566418,5861330,1826,1116,535,2714,1681,796,448,2297,39,64,888
1195677,5563540,5862064,5566615,5861527,1519,751,617,2853,1544,2538,1094,4689,39,64,888
1196678,5563732,5862392,5566812,5861724,2022,443,789,2708,1361,1553,172,2941,36,61,888
1197679,5563972,5862668,5567009,5861921,1703,733,809,2443,1284,551,317,1744,36,61,888
1198680,5564212,5862884,5567206,5862118,1685,1100,579,2512,1314,1362,-804,3145,53,43,889
1199680,5564444,5863076,5567403,5862315,1720,1251,340,2849,1386,1943,-1906,4244,53,43,889
1200682,5564656,5863308,5567600,5862512,1839,986,287,3134,1388,1218,-1080,5678,38,37,888
1201683,5564852,5863532,5567797,5862709,1941,1024,279,2880,1382,507,584,3096,38,37,888
1202684,5565080,5863732,5567994,5862906,1727,1173,242,2125,1356,-196,-93,2869,42,48,884
1203685,5565264,5863940,5568191,5863103,2009,1118,314,1289,1169,-319,378,4586,42,48,884
1204686,5565532,5864136,5568388,5863300,1453,1193,341,554,964,-1595,-178,3639,34,31,884
1205687,5565776,5864304,5568585,5863497,1583,1381,249,168,807,-874,-862,5312,34,31,884
1206688,5566016,5864500,5568782,5863694,1589,1205,29,79,701,-184,-1647,5398,56,45,885
1207689,5566256,5864728,5568979,5863891,1571,992,-257,-45,592,-577,-1346,5131,56,45,885
1208690,5566476,5864960,5569176,5864088,1686,951,-473,-380,438,-355,-764,5045,39,47,886
1209691,5566708,5865180,5569373,5864285,1597,1016,-679,-823,252,-54,-1213,4814,39,47,886
1210692,5566968,5865396,5569570,5864482,1394,1033,-849,-1177,76,14,-1713,5733,50,48,888
1211693,5567232,5865584,5569767,5864679,1341,1212,-1001,-1623,-76,-135,-1421,5054,50,48,888
1212694,5567460,5865756,5569964,5864876,1552,1322,-1126,-2124,-156,-57,-1840,5150,39,44,888
1213695,5567696,5865932,5570161,5865073,1486,1306,-1189,-2593,-232,119,-943,5286,39,44,888
1214696,5567944,5866180,5570358,5865270,1388,834,-1256,-3049,-377,629,-628,4605,34,36,887
1215697,5568168,5866420,5570555,5865467,1527,865,-1315,-3488,-513,537,-1148,4898,34,36,887
1216698,5568396,5866656,5570752,5865664,1489,873,-1416,-3688,-657,1105,-966,5019,59,35,887
1217699,5568624,5866852,5570949,5865861,1476,1122,-1550,-3836,-851,1965,-1061,4112,59,35,887
1218700,5568860,5867076,5571146,5866058,1409,935,-1650,-3961,-1006,1954,-1003,4725,38,47,889
1219701,5569052,5867264,5571343,5866255,1686,1164,-1642,-4154,-1145,2245,-815,4156,38,47,889
1220702,5569268,5867456,5571540,5866452,1529,1141,-1535,-4317,-1289,2434,-482,4333,40,34,887
1221703,5569504,5867696,5571737,5866649,1387,822,-1438,-4356,-1417,2566,-1131,4193,40,34,887
1222704,5569720,5867892,5571934,5866846,1504,1098,-1400,-4325,-1514,2499,-908,3800,34,29,887
1223705,5569900,5868084,5572131,5867043,1737,1124,-1426,-4155,-1612,3074,-1262,3637,34,29,887
1224706,5570064,5868280,5572328,5867240,1852,1099,-1451,-3882,-1706,2920,-987,3792,28,39,888
1225707,5570212,5868424,5572525,5867437,1974,1448,-1449,-3588,-1802,2990,-109,3670,28,39,888
1226708,5570380,5868592,5572722,5867634,1862,1311,-1452,-3450,-1918,3268,309,2808,21,35,886
1227709,5570520,5868732,5572919,5867831,2063,1511,-1426,-3212,-2124,4423,1532,4250,21,35,886
1228710,5570700,5868852,5573116,5868028,1820,1668,-1365,-2841,-2329,4601,1310,4918,23,21,882
1229711,5570852,5869012,5573313,5868225,2016,1435,-1390,-2618,-2386,3792,-935,3386,23,21,882
1230712,5571012,5869184,5573510,5868422,1982,1371,-1485,-2628,-2293,3656,-2358,2364,34,22,882
1231713,5571156,5869352,5573707,5868619,2107,1408,-1473,-2597,-2230,4143,425,3963,34,22,882
1232714,5571336,5869492,5573904,5868816,1889,1608,-1397,-2454,-2161,4211,-322,3908,21,24,883
1233715,5571500,5869612,5574101,5869013,2005,1767,-1270,-2142,-2017,4352,264,4917,21,24,883
1234716,5571668,5869728,5574298,5869210,1992,1828,-1239,-1862,-1703,3767,359,4413,28,32,883
1235717,5571804,5869840,5574495,5869407,2220,1889,-1396,-1767,-1379,4894,-1431,2305,28,32,883
1236718,5571944,5869956,5574692,5869604,2220,1900,-1490,-1620,-1169,5155,-1769,4173,37,21,879
1237719,5572112,5870052,5574889,5869801,2059,2069,-1361,-1347,-1135,5987,-1897,5348,37,21,879
1238720,5572264,5870188,5575086,5869998,2179,1846,-1015,-870,-1206,6303,-1823,6745,18,14,879
1239721,5572436,5870304,5575283,5870195,2066,2007,-688,-405,-1127,5144,-2226,6048,18,14,879
1240722,5572620,5870416,5575480,5870392,1996,2069,-603,-179,-805,3705,-216,4248,34,16,879
1241723,5572816,5870532,5575677,5870589,1923,2080,-720,-128,-341,3115,-1845,2940,34,16,879
1242724,5572988,5870632,5575874,5870786,2084,2222,-780,288,36,3491,-2596,5458,29,27,879
1243725,5573192,5870732,5576071,5870983,1882,2265,-663,1023,226,3813,-2888,6720,29,27,879
1244726,5573392,5870820,5576268,5871180,1906,2388,-476,1747,246,4298,-1879,6254,41,27,880
1245727,5573616,5870944,5576465,5871377,1745,2195,-367,2084,269,3772,-2365,4510,41,27,880
1246728,5573844,5871048,5576662,5871574,1707,2361,-296,2175,361,3125,-2325,4775,46,14,877
1247729,5574060,5871164,5576859,5871771,1774,2321,-152,2099,537,2387,-3005,4950,46,14,877
1248730,5574320,5871264,5577056,5871968,1472,2465,90,2041,739,1720,-2534,5570,39,14,879
1249731,5574572,5871376,5577253,5872165,1498,2427,237,1435,1248,-631,-2277,2187,39,14,879
1250732,5574804,5871492,5577450,5872362,1608,2438,170,858,1389,217,-1322,3317,60,14,879
1251733,5575076,5871624,5577647,5872559,1325,2366,229,672,1400,580,-2079,6197,60,14,879
1252734,5575340,5871752,5577844,5872756,1347,2422,259,628,1410,-200,-3210,4439,53,25,879
1253735,5575556,5871872,5578041,5872953,1639,2506,180,797,1363,353,-1029,5277,53,25,879
1254736,5575788,5871988,5578238,5873150,1524,2567,151,994,1270,439,-181,5717,52,22,881
1255746,5576048,5872104,5578468,5873380,1336,2617,225,847,1185,528,-1820,4755,52,22,881
1256738,5576316,5872240,5578665,5873577,1256,2519,455,446,1194,-176,-2247,5270,55,28,879
1257739,5576568,5872380,5578862,5873774,1332,2519,723,-93,1187,220,-1507,4660,55,28,879
1258740,5576820,5872508,5579059,5873971,1308,2625,892,-811,1095,353,-919,3053,45,17,876
1259741,5577108,5872644,5579256,5874168,1043,2602,987,-1233,1027,-83,-1201,4624,45,17,876
1260742,5577332,5872772,5579453,5874365,1432,2683,1042,-1165,1004,-188,-1475,4912,49,35,880
1261743,5577596,5872916,5579650,5874562,1153,2606,988,-1048,958,-149,-1235,3529,49,35,880
1262744,5577884,5873092,5579847,5874759,963,2416,917,-807,960,-736,-1252,4525,41,40,881
1263745,5578124,5873236,5580044,5874956,1245,2639,741,-743,983,-482,-268,2647,41,40,881
1264746,5578364,5873420,5580241,5875153,1226,2395,433,-873,942,504,1010,942,52,42,880
1265747,5578620,5873596,5580438,5875350,1100,2455,120,-862,857,1340,252,2894,52,42,880
1266748,5578836,5873800,5580635,5875547,1343,2277,-53,-651,744,1631,828,3192,53,30,878
1267749,5579072,5873996,5580832,5875744,1201,2328,-244,-579,602,1945,1491,1310,53,30,878
1268750,5579316,5874204,5581029,5875941,1130,2249,-401,-525,519,1452,91,2160,49,46,881
1269751,5579544,5874404,5581226,5876138,1218,2298,-247,-271,640,459,-1478,5812,49,46,881
1270752,5579760,5874636,5581423,5876335,1284,2082,87,-435,846,589,-855,2651,35,52,881
1271753,5579976,5874872,5581620,5876532,1276,2041,400,-1177,978,1233,-625,1529,35,52,881
1272754,5580196,5875120,5581817,5876729,1242,1944,689,-1915,993,1484,-230,2985,31,38,881
1273755,5580408,5875404,5582014,5876926,1285,1680,856,-2391,1045,424,-386,2385,31,38,881
1274756,5580592,5875620,5582211,5877123,1466,2098,870,-2641,1032,1422,402,2094,49,58,884
1275757,5580808,5875880,5582408,5877320,1258,1795,742,-2604,959,1345,528,1904,49,58,884
1276758,5580996,5876124,5582605,5877517,1438,1875,572,-2207,958,245,216,3193,27,56,886
1277759,5581176,5876344,5582802,5877714,1495,2015,474,-1673,1016,198,-600,3843,27,56,886
1278760,5581344,5876572,5582999,5877911,1583,1952,461,-1158,1081,487,-767,3945,34,36,885
1279761,5581520,5876828,5583196,5878108,1543,1751,487,-972,1021,1550,343,2463,34,36,885
1280762,5581664,5877064,5583393,5878305,1766,1859,508,-976,925,825,662,3362,30,45,881
1281763,5581840,5877252,5583590,5878502,1576,2163,522,-1011,850,720,-295,3586,30,45,881
1282764,5581984,5877484,5583787,5878699,1800,1873,497,-1036,662,1944,-714,3534,40,45,883
1283765,5582140,5877716,5583984,5878896,1743,1858,500,-1031,554,401,-174,3786,40,45,883
1284766,5582316,5877948,5584181,5879093,1627,1843,556,-1016,564,-216,310,4213,31,38,882
1285767,5582472,5878168,5584378,5879290,1771,1908,555,-1089,607,11,-142,2668,31,38,882
1286768,5582620,5878364,5584575,5879487,1843,2059,462,-1097,711,-172,-727,3184,40,35,882
1287769,5582764,5878560,5584772,5879684,1891,2059,415,-816,829,321,48,5120,40,35,882
1288770,5582924,5878760,5584969,5879881,1808,2033,401,-527,905,1272,139,4088,41,36,882
1289771,5583056,5878972,5585166,5880078,2012,1952,407,-206,1030,1320,-374,5132,41,36,882
1290772,5583212,5879196,5585363,5880275,1881,1865,492,-67,1196,1832,-487,4564,29,30,878
1291773,5583364,5879368,5585560,5880472,1926,2202,595,-83,1325,2197,110,4429,29,30,878
1292774,5583524,5879532,5585757,5880669,1892,2266,671,-3,1427,2262,-670,4965,25,29,879
1293775,5583680,5879716,5585954,5880866,1936,2147,747,53,1583,2078,-843,4426,25,29,879
1294776,5583876,5879888,5586151,5881063,1686,2233,803,64,1784,1823,-836,3994,32,39,879
1295777,5584032,5880068,5586348,5881260,1955,2191,863,252,1907,1309,-920,4922,32,39,879
1296778,5584188,5880236,5586545,5881457,1973,2279,880,700,1988,486,82,5378,31,23,879
1297779,5584372,5880400,5586742,5881654,1805,2319,765,922,2047,829,-517,2910,31,23,879
1298780,5584500,5880596,5586939,5881851,2185,2119,681,1216,2096,956,210,5144,34,29,879
1299781,5584640,5880764,5587136,5882048,2136,2307,638,1453,2144,354,-495,4266,34,29,879
1300782,5584796,5880900,5587333,5882245,2054,2535,605,1578,2129,278,4,3992,18,37,879
1301783,5584968,5881088,5587530,5882442,1966,2214,592,1581,2171,-732,-128,4112,18,37,879
1302784,5585116,5881284,5587727,5882639,2138,2164,574,1620,2210,-108,256,4329,35,29,876
1303785,5585320,5881508,5587924,5882836,1785,1977,523,1780,2216,173,-400,4532,35,29,876
1304786,5585468,5881724,5588121,5883033,2157,2020,462,1969,2143,505,414,4480,43,34,879
1305787,5585624,5881944,5588318,5883230,2125,1985,412,1986,2141,-369,133,3914,43,34,879
1306788,5585784,5882168,5588515,5883427,2118,1948,396,1835,2199,-364,-164,3852,23,46,881
1307789,5585944,5882372,5588712,5883624,2135,2070,435,1802,2187,63,403,5151,23,46,881
1308790,5586088,5882580,5588909,5883821,2258,2041,384,1630,2138,-786,673,3157,43,47,879
1309791,5586224,5882788,5589106,5884018,2336,2036,236,1417,2043,-1053,1032,3728,43,47,879
1310792,5586376,5882980,5589303,5884215,2256,2138,89,1340,1881,-1545,883,4959,37,40,879
1311793,5586512,5883200,5589500,5884412,2384,1953,-108,1525,1552,-1517,1056,5250,37,40,879
1312794,5586632,5883440,5589697,5884609,2517,1810,-474,2047,1122,-803,2123,5973,25,46,877
1313795,5586832,5883692,5589894,5884806,2017,1711,-864,2707,821,-1067,1800,6281,25,46,877
1314796,5587016,5883868,5590091,5885003,2123,2195,-969,3017,788,-2145,-786,7095,30,47,877
1315797,5587184,5883996,5590288,5885200,2237,2526,-781,2695,779,-811,595,5866,30,47,877
1316798,5587356,5884140,5590485,5885397,2224,2449,-539,1718,768,-395,470,3231,29,40,882
1317799,5587528,5884324,5590682,5885594,2235,2206,-281,881,789,82,537,5550,29,40,882
1318800,5587672,5884496,5590879,5885791,2434,2292,-135,184,862,106,684,3696,34,27,875
1319801,5587844,5884680,5591076,5885988,2270,2222,-153,-139,940,112,1056,3964,34,27,875
1320802,5587996,5884924,5591273,5886185,2416,1827,-191,115,1047,-329,-98,6839,23,34,877
1321803,5588132,5885184,5591470,5886382,2543,1700,-175,622,1187,-481,-687,6422,23,34,877
1322804,5588280,5885400,5591667,5886579,2490,1967,-168,727,1318,-115,148,4081,37,55,876
1323805,5588424,5885688,5591864,5886776,2539,1477,-144,600,1488,-187,-1090,4173,37,55,876
1324806,5588564,5886004,5592061,5886973,2590,1249,-28,633,1585,943,-2477,4974,23,60,878
1325807,5588688,5886308,5592258,5887170,2722,1278,98,762,1599,475,-1433,5033,23,60,878
1326808,5588820,5886576,5592455,5887367,2702,1472,70,692,1654,-686,-1515,3143,25,58,879
1327809,5588956,5886900,5592652,5887564,2705,1066,-75,790,1687,29,-540,4560,25,58,879
1328810,5589096,5887240,5592849,5887761,2705,903,-276,1090,1619,1138,-965,4231,29,50,879
1329811,5589268,5887536,5593046,5887958,2517,1135,-480,1399,1493,-13,-910,4091,29,50,879
1330812,5589424,5887764,5593243,5888155,2636,1546,-619,1747,1351,-579,-1955,5171,44,69,880
1331813,5589560,5888052,5593440,5888352,2788,1131,-656,2034,1117,282,-757,5089,44,69,880
1332814,5589736,5888336,5593637,5888549,2548,1118,-645,2176,825,-417,344,4785,46,57,882
1333815,5589888,5888640,5593834,5888746,2719,946,-618,2183,522,-492,1122,4557,46,57,882
1334816,5590040,5888956,5594031,5888943,2739,819,-617,2234,244,-7,1838,4280,47,53,878
1335817,5590224,5889204,5594228,5889140,2545,1221,-691,2151,78,-420,1301,2766,47,53,878
1336818,5590404,5889484,5594425,5889337,2579,985,-632,2177,101,-1196,12,5269,30,47,879
1337819,5590572,5889784,5594622,5889534,2667,815,-353,2000,251,-1696,-1152,4780,30,47,879
1338827,5590768,5890064,5594852,5889764,2508,918,-58,1342,382,-1180,-1603,3144,30,58,881
1339821,5590948,5890356,5595049,5889961,2617,801,248,761,419,451,-2227,5050,30,58,881
1340822,5591148,5890564,5595246,5890158,2490,1321,449,400,349,749,-1968,4892,33,53,881
1341823,5591348,5890828,5595443,5890355,2490,942,522,175,173,398,-1473,3980,33,53,881
1342824,5591544,5891084,5595640,5890552,2517,966,480,120,-132,59,-1538,4843,55,57,882
1343825,5591724,5891328,5595837,5890749,2625,1020,297,340,-589,194,-563,5288,55,57,882
1344826,5591916,5891552,5596034,5890946,2552,1133,-25,719,-975,-1099,29,4742,42,38,882
1345827,5592092,5891784,5596231,5891143,2662,1068,-414,838,-1128,-2482,77,3363,42,38,882
1346828,5592264,5891976,5596428,5891340,2699,1319,-666,774,-1189,-1901,-56,4455,45,42,880
1347829,5592432,5892172,5596625,5891537,2738,1294,-636,644,-1253,-850,-736,6206,45,42,880
1348830,5592616,5892380,5596822,5891734,2645,1215,-531,194,-1403,129,-963,4530,45,48,881
1349831,5592796,5892592,5597019,5891931,2677,1183,-405,-362,-1528,-584,-1602,5377,45,48,881
1350832,5592960,5892832,5597216,5892128,2793,989,-257,-570,-1634,-221,-1497,7095,47,45,879
1351833,5593164,5893016,5597413,5892325,2541,1345,-250,-593,-1772,728,-1047,5104,47,45,879
1352834,5593376,5893180,5597610,5892522,2485,1484,-357,-535,-1935,933,56,5195,35,34,879
1353835,5593576,5893332,5597807,5892719,2560,1579,-468,-312,-2067,815,401,5653,35,34,879
1354836,5593768,5893480,5598004,5892916,2612,1625,-555,-299,-2059,468,-1753,3537,30,36,880
1355837,5593936,5893596,5598201,5893113,2776,1860,-533,-535,-1999,623,-1534,4054,30,36,880
1356838,5594104,5893752,5598398,5893310,2790,1628,-430,-939,-2000,913,-1288,4084,35,36,877
1357839,5594292,5893884,5598595,5893507,2669,1807,-359,-1318,-1936,85,-1706,3371,35,36,877
1358840,5594456,5894008,5598792,5893704,2835,1889,-357,-1497,-1847,-80,-1177,3752,35,21,874
1359841,5594624,5894140,5598989,5893901,2824,1867,-421,-1446,-1801,-30,-1532,4027,35,21,874
1360842,5594812,5894268,5599186,5894098,2703,1923,-520,-1211,-1889,646,-674,4176,38,34,877
1361843,5594992,5894396,5599383,5894295,2761,1953,-609,-872,-2052,500,-976,4688,38,34,877
1362844,5595176,5894504,5599580,5894492,2743,2117,-673,-541,-2225,1028,-379,4674,38,30,875
