"Data file recorded 2014/9/22  15:35:55"
"%  Right Stride Frequency         = 3.0"
"%  Left Stride Frequency         = 3.0"
"%  Phase (Fractional)         = 32768.0"
"%  Experiment.py "
"%  Motor Gains    = [1800, 200, 100, 0, 0, 1800, 200, 100, 0, 0]
"% Columns: "
"% time | Right Leg Pos | Left Leg Pos | Commanded Right Leg Pos | Commanded Left Leg Pos | DCR | DCL | GyroX | GryoY | GryoZ | AX | AY | AZ | RBEMF | LBEMF | VBatt "
11950,4147328,4323168,4169718,4333558,3800,3800,1,134,235,-1,-402,4051,3,-6,887
12945,4147344,4323164,4169915,4333755,3800,3800,0,133,234,3,-413,4069,3,-6,887
13946,4147412,4323172,4170112,4333952,3800,3800,-2,137,234,-10,-398,4058,18,18,856
14947,4147524,4323252,4170309,4334149,3800,3800,-3,158,240,-4,-412,4072,18,18,856
15948,4147716,4323404,4170506,4334346,3800,3800,-1,175,241,36,-403,4141,46,38,846
16949,4147924,4323572,4170703,4334543,3800,3800,-8,153,220,50,-368,4196,46,38,846
17950,4148144,4323724,4170900,4334740,3800,3800,-18,169,186,142,-188,4126,43,31,847
18951,4148464,4323912,4171097,4334937,3800,3800,-36,186,142,209,72,4126,43,31,847
19952,4148760,4324104,4171294,4335134,3800,3800,-55,224,68,301,307,4108,61,42,848
20953,4149080,4324272,4171491,4335331,3800,3800,-92,298,-20,377,213,4270,61,42,848
21954,4149476,4324464,4171688,4335528,3800,3800,-150,446,-96,217,80,4345,90,43,849
22954,4149828,4324644,4171885,4335725,3800,3800,-215,543,-167,86,-152,4377,90,43,849
23955,4150172,4324836,4172082,4335922,3800,3800,-304,726,-235,8,-565,4719,88,35,849
24957,4150532,4324996,4172279,4336119,3800,3800,-395,970,-281,-140,-900,4934,88,35,849
25958,4150848,4325140,4172476,4336316,3800,3800,-481,1307,-316,-243,-1275,5058,67,38,847
26959,4151140,4325252,4172673,4336513,3800,3800,-537,1556,-350,-199,-1344,4720,67,38,847
27960,4151448,4325360,4172870,4336710,3800,3800,-546,1633,-382,-45,-1117,4332,74,27,847
28961,4151732,4325440,4173067,4336907,3800,3800,-515,1586,-479,56,-836,4120,74,27,847
29962,4151948,4325524,4173264,4337104,3800,3800,-451,1428,-618,171,-953,3862,57,31,846
30963,4152124,4325608,4173461,4337301,3800,3800,-380,1366,-746,165,-1165,4154,57,31,846
31964,4152280,4325696,4173658,4337498,3800,3800,-314,1277,-861,295,-1282,3991,38,31,845
32965,4152396,4325784,4173855,4337695,3800,3800,-258,1227,-967,593,-1479,4185,38,31,845
33966,4152456,4325856,4174052,4337892,3800,3800,-203,1174,-1060,658,-1526,4259,30,27,843
34967,4152504,4325956,4174249,4338089,3800,3800,-118,992,-1167,799,-1466,3938,30,27,843
35968,4152544,4326040,4174446,4338286,3800,3800,-23,781,-1293,1074,-1203,4184,21,22,843
36969,4152572,4326140,4174643,4338483,3800,3800,82,640,-1397,1255,-740,4285,21,22,843
37970,4152600,4326232,4174840,4338680,3800,3800,191,495,-1500,1455,-229,4419,19,32,842
38971,4152632,4326324,4175037,4338877,3800,3800,410,415,-1619,1751,420,5262,19,32,842
39971,4152684,4326432,4175234,4339074,3800,3800,1358,1265,-1681,1992,1157,16331,22,16,843
40973,4152748,4326528,4175431,4339271,3800,3800,2526,2374,-1715,2090,1525,13356,22,16,843
41974,4152800,4326616,4175628,4339468,3800,3800,2947,2423,-1771,2444,2022,4273,20,20,843
42975,4152872,4326712,4175825,4339665,3800,3800,2767,1918,-1812,2558,2493,4180,20,20,843
43976,4152968,4326804,4176022,4339862,3800,3800,2443,1545,-1805,2748,2660,4649,30,24,843
44977,4153100,4326908,4176219,4340059,3800,3800,2158,1570,-1764,2608,2913,5097,30,24,843
45978,4153248,4327012,4176416,4340256,3800,3800,1936,1684,-1693,2283,3182,4976,39,17,844
46979,4153464,4327120,4176613,4340453,3800,3800,1715,1700,-1645,2157,3306,4628,39,17,844
47980,4153728,4327220,4176810,4340650,3800,3800,1480,1500,-1607,1862,3434,4045,53,32,844
48981,4154060,4327340,4177007,4340847,3800,3800,1274,1089,-1525,1474,3286,3647,53,32,844
49982,4154388,4327448,4177204,4341044,3800,3800,1089,646,-1384,1156,2348,3657,64,28,845
50983,4154812,4327592,4177401,4341241,3800,3800,885,427,-1168,241,734,4334,64,28,845
51984,4155224,4327740,4177598,4341438,3800,3800,654,578,-864,-745,-560,5031,91,40,847
52985,4155652,4327880,4177795,4341635,3800,3800,442,693,-506,-1219,-1448,4704,91,40,847
53986,4156108,4328044,4177992,4341832,3800,3800,244,844,-157,-1553,-2055,4860,81,48,848
54987,4156572,4328200,4178189,4342029,3800,3800,39,916,100,-2112,-1780,4398,81,48,848
55988,4156972,4328392,4178386,4342226,3800,3800,-126,672,239,-2146,-1158,3463,99,54,849
56989,4157432,4328640,4178583,4342423,3800,3800,-285,422,350,-2108,-1391,3766,99,54,849
57990,4157820,4328864,4178780,4342620,3800,3800,-415,257,525,-2339,-1623,3598,95,59,849
58991,4158200,4329104,4178977,4342817,3800,3800,-473,-118,761,-2370,-1807,2968,95,59,849
59992,4158556,4329340,4179174,4343014,3800,3800,-473,-577,1016,-2360,-2160,2699,84,48,847
60993,4158864,4329584,4179371,4343211,3800,3800,-423,-1054,1240,-2626,-2299,2666,84,48,847
61994,4159120,4329872,4179568,4343408,3800,3800,-317,-1623,1421,-2528,-2387,2215,67,57,847
62995,4159380,4330196,4179765,4343605,3800,3800,-163,-2260,1546,-2121,-2080,2062,67,57,847
63996,4159616,4330504,4179962,4343802,3800,3800,18,-2746,1615,-1971,-1417,2495,58,71,847
64997,4159864,4330824,4180159,4343999,3800,3800,233,-3255,1535,-1771,-605,2290,58,71,847
65998,4160104,4331164,4180356,4344196,3800,3800,465,-3695,1302,-1335,111,2550,53,65,846
66999,4160348,4331508,4180553,4344393,3800,3800,712,-4133,1046,-1006,766,2636,53,65,846
68000,4160552,4331856,4180750,4344590,3800,3800,931,-4659,875,-374,939,2737,63,62,847
69001,4160784,4332156,4180947,4344787,3800,3800,1073,-4734,739,-203,482,4012,63,62,847
70002,4160980,4332448,4181144,4344984,3800,3800,1186,-4606,585,-434,1216,4047,43,62,846
71003,4161188,4332736,4181341,4345181,3800,3800,1332,-4803,344,163,2324,3148,43,62,846
72004,4161364,4333008,4181538,4345378,3800,3800,1439,-4889,23,868,2996,3673,54,48,846
73005,4161544,4333220,4181735,4345575,3800,3800,1508,-5026,-306,491,3807,3414,54,48,846
74006,4161716,4333452,4181932,4345772,3800,3800,1562,-5218,-645,668,4280,3525,46,44,847
75007,4161864,4333632,4182129,4345969,3800,3800,1548,-5154,-936,1246,4394,4022,46,44,847
76008,4162020,4333792,4182326,4346166,3800,3800,1456,-5033,-1061,1433,4427,4322,26,49,845
77009,4162132,4333932,4182523,4346363,3800,3800,1272,-4646,-1122,1824,4982,4912,26,49,845
78010,4162288,4334056,4182720,4346560,3800,3800,1084,-4375,-1215,1733,5412,4404,18,37,844
79011,4162428,4334172,4182917,4346757,3800,3800,919,-4166,-1277,1807,5366,4407,18,37,844
80012,4162520,4334260,4183114,4346954,3800,3800,756,-3949,-1308,1910,5272,4170,35,30,844
81013,4162672,4334324,4183311,4347151,3800,3800,613,-3892,-1303,1694,5133,3759,35,30,844
82014,4162804,4334412,4183508,4347348,3800,3800,409,-3551,-1248,1557,4984,5038,28,27,843
83015,4162936,4334464,4183705,4347545,3800,3800,28,-2713,-1103,1478,4271,6200,28,27,843
84016,4163068,4334560,4183902,4347742,3800,3800,-438,-1744,-940,945,4049,6183,18,12,842
85016,4163208,4334636,4184099,4347939,3800,3800,-866,-788,-835,349,3996,6081,18,12,842
86017,4163372,4334728,4184296,4348136,3800,3800,-1204,-61,-764,-72,3646,5565,41,29,844
87018,4163528,4334816,4184493,4348333,3800,3800,-1509,606,-683,-452,3191,5497,41,29,844
88019,4163736,4334932,4184690,4348530,3800,3800,-1779,1171,-573,-1062,2722,4874,35,26,844
89021,4163944,4335052,4184887,4348727,3800,3800,-1976,1540,-440,-1541,2026,4294,35,26,844
90021,4164156,4335200,4185084,4348924,3800,3800,-2082,1797,-301,-1911,1425,3822,33,35,845
91023,4164372,4335344,4185281,4349121,3800,3800,-2093,1863,-144,-2361,1062,3123,33,35,845
92024,4164596,4335484,4185478,4349318,3800,3800,-2040,1786,-5,-2720,781,2710,40,38,842
93025,4164824,4335640,4185675,4349515,3800,3800,-1920,1484,99,-3037,439,2027,40,38,842
94033,4165088,4335792,4186102,4349942,3800,3800,-1754,1151,225,-3276,-133,1973,45,43,844
95027,4165376,4335992,4186299,4350139,3800,3800,-1575,923,405,-3473,-724,2301,45,43,844
96028,4165660,4336184,4186496,4350336,3800,3800,-1376,734,626,-3710,-1153,2312,69,37,847
97029,4165972,4336364,4186693,4350533,3800,3800,-1178,654,861,-3791,-1339,2853,69,37,847
98030,4166336,4336580,4186890,4350730,3800,3800,-958,677,1081,-3825,-1249,2978,73,42,847
99031,4166680,4336824,4187087,4350927,3800,3800,-710,649,1241,-3893,-926,3005,73,42,847
100032,4167024,4337096,4187284,4351124,3800,3800,-419,635,1308,-3862,-456,3055,80,44,847
101033,4167444,4337384,4187481,4351321,3800,3800,-106,527,1296,-3666,164,2877,80,44,847
102034,4167824,4337636,4187678,4351518,3800,3800,188,498,1244,-3464,527,3160,87,52,848
103035,4168232,4337920,4187875,4351715,3800,3800,444,512,1176,-3418,701,3434,87,52,848
104036,4168684,4338232,4188072,4351912,3800,3800,671,534,1074,-3225,891,3538,91,63,847
105037,4169116,4338548,4188269,4352109,3800,3800,857,575,903,-2913,1404,3600,91,63,847
106038,4169548,4338876,4188466,4352306,3800,3800,1036,477,666,-2689,1804,3153,95,60,850
107039,4170044,4339192,4188663,4352503,3800,3800,1207,241,377,-2432,2060,2950,95,60,850
108040,4170568,4339532,4188860,4352700,3800,3800,1353,-112,101,-1899,2288,2774,107,64,850
109041,4171024,4339836,4189057,4352897,3800,3800,1443,-419,-122,-1377,2180,2920,107,64,850
110042,4171580,4340144,4189254,4353094,3800,3800,1508,-751,-320,-1046,2104,2654,113,72,850
111043,4172108,4340412,4189451,4353291,3800,3800,1568,-1329,-499,-480,2093,2073,113,72,850
112043,4172668,4340692,4189648,4353488,3800,3800,1610,-2005,-636,92,1629,2217,123,66,851
113045,4173300,4341016,4189845,4353685,3800,3800,1620,-2600,-690,35,856,2272,123,66,851
114046,4173840,4341336,4190042,4353882,3800,3800,1629,-3205,-658,-281,66,2214,118,59,850
115047,4174484,4341620,4190239,4354079,3800,3800,1618,-3833,-573,-380,-125,2144,118,59,850
116048,4175156,4341908,4190436,4354276,3800,3800,1637,-4468,-516,-177,-44,2161,140,62,849
117036,4175856,4342248,4190633,4354473,3767,3800,1623,-5106,-469,-52,-287,2154,140,62,849
118050,4176500,4342576,4190830,4354670,3800,3800,1605,-5755,-396,-15,-764,2426,129,67,852
119038,4177156,4342876,4191027,4354867,3650,3800,1540,-6251,-220,100,-1341,2881,129,67,852
120039,4177836,4343172,4191224,4355064,3290,3800,1475,-6583,73,363,-1658,3191,127,59,852
121040,4178496,4343564,4191421,4355261,3214,3800,1397,-6815,426,587,-2037,3433,127,59,852
122041,4179044,4343976,4191618,4355458,3762,3800,1304,-6996,813,537,-2522,3671,149,73,854
123030,4179684,4344436,4191815,4355655,2996,3555,1226,-7130,1224,159,-3253,3872,149,73,854
124043,4180156,4344888,4192012,4355852,3800,3495,1142,-7143,1634,-295,-4292,4256,109,101,856
125044,4180612,4345444,4192209,4356049,3800,2689,1084,-7219,1978,-609,-5337,3830,109,101,856
126045,4181068,4345932,4192406,4356246,3800,2988,1082,-7370,2355,-264,-5747,3707,107,105,857
127046,4181504,4346500,4192603,4356443,3800,2327,880,-7302,2871,663,-6883,4525,107,105,857
128047,4181912,4347104,4192800,4356640,3800,1925,-309,-6090,3785,1320,-10966,8563,98,125,858
129035,4182348,4347660,4192997,4356837,3632,2069,-1847,-4522,5045,1546,-12253,7088,98,125,858
130036,4182764,4348232,4193194,4357034,3663,1806,-2822,-4239,6078,2255,-9377,2842,100,114,860
131037,4183184,4348740,4193391,4357231,3542,2071,-2803,-5274,6436,2905,-5583,-79,100,114,860
132038,4183656,4349332,4193588,4357428,3098,1374,-2320,-6841,6410,3174,-3383,-829,77,122,862
133039,4184072,4349868,4193785,4357625,3354,1576,-2084,-8022,6312,4063,-2680,1090,77,122,862
134040,4184500,4350368,4193982,4357822,3179,1670,-2073,-8571,6305,4680,-2512,1863,87,94,863
135041,4184968,4350876,4194179,4358019,2811,1485,-2007,-8591,6556,4894,-2928,2696,87,94,863
136042,4185392,4351360,4194376,4358216,2989,1509,-1848,-8738,6966,5316,-3670,2650,103,101,864
137043,4185812,4351768,4194573,4358413,2918,1894,-1749,-8432,7267,5530,-2449,4716,103,101,864
138044,4186228,4352264,4194770,4358610,2847,1213,-1862,-7195,7443,5170,-584,7667,94,90,868
139045,4186704,4352728,4194967,4358807,2352,1297,-2142,-5548,7285,5325,1541,8516,94,90,868
140046,4187116,4353204,4195164,4359004,2659,1100,-2230,-3854,6970,4958,932,7504,98,83,867
141047,4187492,4353684,4195361,4359201,2807,952,-1996,-2524,6731,4411,1654,6889,98,83,867
142048,4187992,4354184,4195558,4359398,1900,695,-1582,-1248,6557,4500,1029,7396,72,98,872
143049,4188400,4354568,4195755,4359595,2384,1339,-1098,350,6207,4328,2070,7685,72,98,872
144050,4188772,4355012,4195952,4359792,2534,856,-712,2481,5642,3570,3155,9658,87,102,871
145051,4189228,4355492,4196149,4359989,1896,508,-398,4779,4962,4021,3039,9309,87,102,871
146052,4189724,4355848,4196346,4360186,1516,1214,-74,7079,4368,4353,1989,9566,84,96,872
147053,4190120,4356268,4196543,4360383,2054,717,299,9390,3968,4834,2114,10144,84,96,872
148054,4190580,4356696,4196740,4360580,1541,566,705,11460,3460,5126,1882,8354,98,76,876
149055,4191048,4357068,4196937,4360777,1372,840,1219,12678,2772,4859,1371,5730,98,76,876
150056,4191516,4357484,4197134,4360974,1254,469,1714,13657,1988,4486,1508,6130,81,71,876
151057,4191980,4357812,4197331,4361171,1163,963,2079,14542,1131,4656,1216,5250,81,71,876
152058,4192428,4358140,4197528,4361368,1154,906,2419,15070,322,4816,405,4109,97,73,878
153059,4192836,4358416,4197725,4361565,1312,1196,2691,15742,-276,4772,-1090,4948,97,73,878
154060,4193340,4358628,4197922,4361762,578,1591,2815,16368,-797,4734,-2137,4371,79,60,879
155061,4193756,4358836,4198119,4361959,1033,1611,2782,16747,-1327,4375,-3304,3578,79,60,879
156063,4194196,4359104,4198316,4362156,777,1206,2651,16799,-1813,3954,-4046,2593,79,45,877
157064,4194632,4359304,4198513,4362353,697,1630,2523,16232,-2309,3835,-3789,592,79,45,877
158065,4195000,4359504,4198710,4362550,1048,1629,2415,15332,-2842,3577,-3456,32,93,48,875
159066,4195348,4359660,4198907,4362747,1108,1923,2332,14376,-3308,2971,-3410,-298,93,48,875
160066,4195676,4359816,4199104,4362944,1176,1941,2205,13356,-3724,2505,-3608,-485,70,44,877
161068,4196096,4359984,4199301,4363141,503,1880,2034,12395,-4096,2158,-3630,-354,70,44,877
162069,4196400,4360140,4199498,4363338,1182,1973,1839,11412,-4397,1413,-3208,-346,62,29,874
163069,4196724,4360300,4199695,4363535,1001,1965,1674,10380,-4721,456,-2560,-678,62,29,874
164071,4197060,4360496,4199892,4363732,866,1742,1566,9222,-5088,-571,-2186,-1084,57,44,876
165072,4197392,4360664,4200089,4363929,833,1929,1483,8201,-5383,-1501,-2310,-430,57,44,876
166073,4197728,4360836,4200286,4364126,747,1916,1266,7552,-5376,-2232,-4144,702,72,26,874
167073,4198108,4360996,4200483,4364323,392,2009,742,7388,-4834,-3225,-6989,2298,72,26,874
168074,4198428,4361140,4200680,4364520,713,2132,107,7527,-4093,-4205,-6245,2650,68,34,875
169076,4198696,4361316,4200877,4364717,1007,1942,-321,7404,-3617,-4797,-3948,1572,68,34,875
170077,4198976,4361456,4201074,4364914,896,2193,-561,6822,-3534,-5285,-1947,742,62,46,874
171078,4199324,4361636,4201271,4365111,405,1951,-693,5958,-3681,-5903,-559,208,62,46,874
172079,4199624,4361868,4201468,4365308,661,1611,-713,4904,-3892,-6100,454,-458,52,34,875
173080,4199964,4362076,4201665,4365505,348,1756,-773,3888,-3971,-6110,131,186,52,34,875
174080,4200324,4362316,4201862,4365702,151,1538,-876,2989,-3904,-6153,307,375,52,52,876
175081,4200664,4362500,4202059,4365899,215,1895,-1056,2233,-3754,-5861,245,1113,52,52,876
176082,4200864,4362728,4202256,4366096,1088,1607,-1387,1880,-3419,-5075,191,2825,63,52,878
177090,4201112,4362968,4202486,4366326,780,1528,-1880,1860,-2867,-4201,154,3874,63,52,878
178084,4201376,4363188,4202683,4366523,651,1644,-2408,1875,-2273,-3455,597,3805,45,44,877
179085,4201732,4363432,4202880,4366720,7,1473,-2895,1635,-1829,-2866,938,3210,45,44,877
180086,4202016,4363656,4203077,4366917,419,1588,-3252,703,-1571,-2486,625,1242,62,55,876
181087,4202264,4363848,4203274,4367114,621,1791,-3376,-1008,-1425,-2065,-370,-1140,62,55,876
182088,4202444,4364060,4203471,4367311,1054,1659,-3329,-3174,-1299,-1629,-978,-2232,45,35,879
183089,4202668,4364312,4203668,4367508,767,1386,-3229,-5549,-1183,-900,-1507,-2405,45,35,879
184090,4202868,4364528,4203865,4367705,917,1603,-3224,-7651,-1099,-38,-2626,-1517,54,52,877
185091,4203088,4364732,4204062,4367902,782,1676,-3337,-9204,-971,439,-3626,-17,54,52,877
186092,4203292,4364936,4204259,4368099,878,1673,-3517,-10469,-812,970,-4279,918,33,45,878
187093,4203488,4365136,4204456,4368296,929,1697,-3629,-11647,-698,1722,-4618,1014,33,45,878
188094,4203640,4365368,4204653,4368493,1224,1483,-3625,-12674,-627,1952,-5015,1781,42,38,876
189096,4203828,4365560,4204850,4368690,1004,1735,-3559,-13396,-597,2244,-5443,2835,42,38,876
190096,4203992,4365744,4205047,4368887,1168,1792,-3454,-13893,-619,2581,-5326,3214,27,52,875
191097,4204164,4365940,4205244,4369084,1129,1718,-3297,-14253,-630,2932,-4832,3763,27,52,875
192098,4204324,4366132,4205441,4369281,1220,1745,-3121,-14356,-690,3344,-3841,4574,22,36,874
193100,4204504,4366316,4205638,4369478,1103,1802,-3028,-14243,-870,3723,-2415,5200,22,36,874
194101,4204648,4366496,4205835,4369675,1352,1835,-2927,-14046,-1021,3977,-1994,5402,22,26,875
195101,4204820,4366656,4206032,4369872,1188,1977,-2708,-13762,-1075,4122,-2010,5493,22,26,875
196102,4204964,4366804,4206229,4370069,1386,2074,-2403,-13398,-1107,4088,-1836,5759,40,25,874
197103,4205096,4366948,4206426,4370266,1490,2123,-2114,-12850,-1098,4046,-1570,6331,40,25,874
198104,4205264,4367100,4206623,4370463,1279,2093,-1841,-12233,-996,4040,-928,6262,39,36,873
199105,4205392,4367312,4206820,4370660,1559,1713,-1598,-11574,-788,4102,-467,6206,39,36,873
200106,4205544,4367476,4207017,4370857,1429,2027,-1427,-10851,-534,3875,-304,6527,40,30,871
201108,4205696,4367640,4207214,4371054,1449,2043,-1190,-10149,-314,3468,-384,6086,40,30,871
202108,4205848,4367796,4207411,4371251,1469,2111,-884,-9516,-172,3135,-366,5801,27,31,872
203109,4206008,4367940,4207608,4371448,1436,2210,-536,-8923,-46,2761,-444,5606,27,31,872
204110,4206180,4368100,4207805,4371645,1372,2127,-232,-8320,115,2470,-644,5828,25,38,870
205112,4206332,4368260,4208002,4371842,1517,2144,865,-6256,398,2724,-1714,18280,25,38,870
206112,4206464,4368448,4208199,4372039,1671,1974,3383,-819,795,2953,-2490,32767,32,27,871
207113,4206612,4368600,4208396,4372236,1592,2219,4861,2033,1104,1964,-734,7731,32,27,871
208114,4206760,4368760,4208593,4372433,1615,2187,4809,2557,1430,1845,-1693,4956,20,40,870
209116,4206928,4368916,4208790,4372630,1503,2230,4211,1785,1799,1693,-2196,2631,20,40,870
210116,4207080,4369096,4208987,4372827,1623,2088,3899,1438,2169,1813,-2332,2867,39,38,870
211117,4207260,4369268,4209184,4373024,1456,2150,3719,1416,2558,1531,-2176,2812,39,38,870
212118,4207436,4369448,4209381,4373221,1490,2108,3330,1644,2921,1826,-2041,3452,26,38,869
213119,4207604,4369600,4209578,4373418,1553,2303,2724,1969,3235,1824,-1723,3372,26,38,869
214120,4207788,4369772,4209775,4373615,1460,2190,2302,1830,3466,1673,-397,1889,31,31,870
215121,4207932,4369948,4209972,4373812,1733,2176,2014,1632,3620,1999,-256,2929,31,31,870
216122,4208092,4370144,4210169,4374009,1649,2051,1689,1719,3725,1732,-342,3530,25,45,869
217124,4208252,4370324,4210366,4374206,1667,2159,1370,1824,3796,872,-526,3200,25,45,869
218124,4208420,4370500,4210563,4374403,1629,2195,1112,1947,3803,286,-1017,3062,27,31,869
219125,4208544,4370716,4210760,4374600,1937,1936,975,1819,3796,-52,-1409,2617,27,31,869
220126,4208728,4370888,4210957,4374797,1568,2223,950,1826,3848,-259,-1839,3315,42,48,870
221127,4208880,4371112,4211154,4374994,1788,1887,1027,1918,3935,-312,-1954,3002,42,48,870
222128,4209060,4371312,4211351,4375191,1621,2037,1170,1951,4016,-469,-1961,2974,39,37,870
223129,4209224,4371508,4211548,4375388,1736,2063,1327,2165,4153,-508,-2178,3630,39,37,870
224130,4209340,4371716,4211745,4375585,2072,1984,1489,2417,4315,-512,-2069,3538,19,39,869
225131,4209464,4371900,4211942,4375782,2054,2140,1603,2778,4410,-797,-1957,4274,19,39,869
226133,4209612,4372100,4212139,4375979,1927,2040,1648,3326,4455,-1101,-1883,5113,33,50,869
227133,4209716,4372312,4212336,4376176,2243,1959,1633,4048,4435,-1061,-1635,5678,33,50,869
228134,4209824,4372528,4212533,4376373,2258,1926,1653,4961,4465,-692,-1455,6266,24,48,867
229135,4209928,4372716,4212730,4376570,2324,2106,1688,5970,4419,-805,-645,6639,24,48,867
230136,4210048,4372892,4212927,4376767,2259,2191,1694,6903,4154,-623,322,6708,33,43,867
231137,4210152,4373084,4213124,4376964,2400,2094,1685,7734,3755,-280,971,6443,33,43,867
232138,4210244,4373296,4213321,4377161,2522,1963,1644,8428,3371,72,1164,6222,38,45,866
233139,4210356,4373500,4213518,4377358,2434,2011,1601,9065,3065,483,1296,6136,38,45,866
234140,4210480,4373660,4213715,4377555,2392,2303,1589,9560,2836,843,1079,5945,27,41,866
235141,4210632,4373856,4213912,4377752,2238,2079,1640,9910,2673,1063,794,5365,27,41,866
236142,4210772,4374064,4214109,4377949,2338,2000,1769,9953,2486,1176,1126,4518,39,42,865
237143,4210900,4374304,4214306,4378146,2444,1782,1930,9681,2214,1165,1674,3972,39,42,865
238144,4211020,4374544,4214503,4378343,2529,1764,2101,9162,1893,1138,1962,3303,41,52,867
239146,4211136,4374756,4214700,4378540,2590,1932,2271,8602,1576,1020,1872,2930,41,52,867
240146,4211232,4374956,4214897,4378737,2760,2007,2388,8022,1322,899,1580,3041,19,38,867
241147,4211340,4375172,4215094,4378934,2725,1900,2439,7472,1144,744,1381,3370,19,38,867
242148,4211464,4375412,4215291,4379131,2657,1731,2447,6982,1023,527,1148,3450,35,53,866
243149,4211540,4375688,4215488,4379328,3011,1472,2443,6469,919,131,1022,3285,35,53,866
244150,4211632,4375940,4215685,4379525,2959,1599,2449,5888,824,-428,780,3158,20,47,865
245151,4211732,4376232,4215882,4379722,2952,1307,2457,5249,750,-1035,517,3111,20,47,865
246152,4211824,4376420,4216079,4379919,3048,1962,2470,4641,699,-1633,243,3239,34,40,863
247153,4211916,4376564,4216276,4380116,3096,2261,2507,4145,680,-2266,-20,3343,34,40,863
248154,4212004,4376696,4216473,4380313,3169,2365,2564,3679,661,-2689,146,3348,28,27,864
249155,4212096,4376844,4216670,4380510,3192,2288,2620,3234,585,-3125,411,3636,28,27,864
250156,4212184,4377016,4216867,4380707,3265,2150,2644,2937,500,-3557,344,3903,16,35,860
251157,4212252,4377216,4217064,4380904,3448,1974,2638,2724,480,-3773,151,4057,16,35,860
252158,4212332,4377452,4217261,4381101,3426,1732,2607,2535,550,-3984,184,4088,30,51,859
253159,4212412,4377716,4217458,4381298,3477,1529,2557,2295,668,-4252,306,3987,30,51,859
254160,4212500,4378036,4217655,4381495,3476,1126,2514,2024,779,-4349,490,3512,33,64,859
255161,4212600,4378284,4217852,4381692,3445,1553,2486,1630,870,-4423,740,3086,33,64,859
256162,4212676,4378608,4218049,4381889,3649,1023,2477,1038,941,-4436,1160,2617,26,58,859
257163,4212780,4378896,4218246,4382086,3516,1209,2466,335,999,-4329,1343,2223,26,58,859
258165,4212884,4379176,4218443,4382283,3557,1223,2444,-349,1063,-4147,1167,2045,29,66,860
259165,4212964,4379464,4218640,4382480,3761,1134,2407,-1041,1151,-3897,974,1991,29,66,860
260175,4213060,4379768,4218870,4382710,3721,1001,2339,-1699,1268,-3599,661,1993,22,71,862
261167,4213172,4380056,4219067,4382907,3659,1062,2244,-2264,1408,-3296,127,2047,22,71,862
262168,4213276,4380356,4219264,4383104,3751,942,2113,-2779,1531,-2938,258,2181,34,55,860
263169,4213384,4380648,4219461,4383301,3766,951,1955,-3297,1591,-2519,983,2064,34,55,860
264170,4213512,4380988,4219658,4383498,3672,589,1798,-3945,1582,-2033,1803,1722,31,72,860
265184,4213608,4381340,4219855,4383695,3800,446,1641,-4592,1526,-1517,2254,1685,31,72,860
266172,4213736,4381648,4220052,4383892,3750,673,1456,-5177,1439,-1050,2471,1829,38,57,861
267186,4213840,4381916,4220249,4384089,3800,892,1217,-5569,1307,-636,2848,2508,38,57,861
268187,4213960,4382240,4220446,4384286,3800,487,862,-5687,1101,-88,3180,3292,37,58,861
269188,4214084,4382568,4220643,4384483,3800,405,431,-5627,886,707,2823,3545,37,58,861
270189,4214192,4382876,4220840,4384680,3800,481,-59,-5513,649,1344,3001,3984,35,66,860
271177,4214340,4383104,4221037,4384877,3799,968,-622,-5293,358,1848,2994,4408,35,66,860
272191,4214480,4383344,4221234,4385074,3800,875,-1244,-4905,52,2428,2896,4822,29,50,863
273192,4214604,4383596,4221431,4385271,3800,776,-1894,-4415,-214,2947,2822,4840,29,50,863
274193,4214760,4383840,4221628,4385468,3800,805,-2523,-4014,-462,3446,2889,4711,25,42,860
275194,4214884,4384072,4221825,4385665,3800,866,-3144,-3564,-726,3829,2901,5048,25,42,860
276195,4214996,4384300,4222022,4385862,3800,877,-3742,-3072,-1039,3947,2847,4845,40,55,862
277196,4215124,4384508,4222219,4386059,3800,997,-4273,-2688,-1353,4041,2234,4492,40,55,862
278197,4215228,4384672,4222416,4386256,3800,1288,-4689,-2491,-1609,4058,1367,3996,19,49,861
279198,4215304,4384848,4222613,4386453,3800,1222,-4996,-2345,-1801,3978,446,3940,19,49,861
280199,4215388,4385056,4222810,4386650,3800,1017,-5212,-2165,-1969,3882,-252,3803,22,48,858
281200,4215436,4385276,4223007,4386847,3800,932,-5320,-2101,-2107,3810,-722,3387,22,48,858
282201,4215488,4385468,4223204,4387044,3800,1110,-5333,-2053,-2215,3687,-1055,3478,25,42,858
283202,4215544,4385648,4223401,4387241,3800,1193,-5276,-1963,-2321,3612,-1110,3687,25,42,858
284203,4215592,4385840,4223598,4387438,3800,1120,-5146,-1759,-2446,3506,-916,3744,25,48,860
285204,4215636,4385992,4223795,4387635,3800,1391,-4947,-1493,-2596,3320,-519,3926,25,48,860
286205,4215660,4386200,4223992,4387832,3800,1036,-4684,-1173,-2787,3124,-37,4087,2,47,858
287206,4215684,4386380,4224189,4388029,3800,1218,-4393,-725,-3009,2967,394,4598,2,47,858
288207,4215720,4386564,4224386,4388226,3800,1200,-4106,-103,-3229,2750,612,5017,19,47,857
289208,4215756,4386748,4224583,4388423,3800,1206,-3796,516,-3390,2597,751,5065,19,47,857
290209,4215800,4386928,4224780,4388620,3800,1238,-3480,1232,-3533,2218,860,5433,2,29,857
291210,4215852,4387104,4224977,4388817,3800,1273,-3160,2002,-3657,1824,673,5645,2,29,857
292211,4215904,4387272,4225174,4389014,3800,1336,-2836,2835,-3726,1520,270,5711,13,39,857
293212,4215944,4387432,4225371,4389211,3800,1402,-2509,3635,-3749,960,-338,5733,13,39,857
294213,4215976,4387628,4225568,4389408,3800,1179,-2161,4353,-3714,450,-938,5614,21,34,856
295214,4216008,4387792,4225765,4389605,3800,1393,-1827,5016,-3636,40,-1418,5616,21,34,856
296215,4216024,4387960,4225962,4389802,3800,1381,-1506,5558,-3513,-383,-1710,5269,5,39,857
297216,4216060,4388168,4226159,4389999,3800,1127,-1182,5939,-3368,-700,-1799,4881,5,39,857
298217,4216092,4388348,4226356,4390196,3800,1310,-863,6198,-3255,-978,-1705,4556,8,49,857
299218,4216136,4388516,4226553,4390393,3800,1397,-559,6377,-3172,-1171,-1655,4375,8,49,857
300219,4216192,4388676,4226750,4390590,3800,1465,-287,6449,-3088,-1316,-1805,4235,18,35,858
301220,4216260,4388880,4226947,4390787,3800,1187,-35,6405,-2949,-1406,-2326,4032,18,35,858
302221,4216344,4389056,4227144,4390984,3800,1371,184,6239,-2760,-1608,-2838,3899,28,46,857
303222,4216444,4389240,4227341,4391181,3800,1327,351,6030,-2570,-1920,-3110,3857,28,46,857
304223,4216560,4389428,4227538,4391378,3800,1306,475,5757,-2357,-2027,-3303,3658,21,45,859
305224,4216720,4389576,4227735,4391575,3800,1578,595,5379,-2116,-1986,-3290,3202,21,45,859
306225,4216856,4389744,4227932,4391772,3800,1467,731,4784,-1873,-1744,-2908,2735,32,31,859
307226,4217008,4389872,4228129,4391969,3800,1747,860,4127,-1651,-1508,-2284,2664,32,31,859
308227,4217144,4389980,4228326,4392166,3800,1912,963,3338,-1467,-1297,-1721,2468,43,24,857
309228,4217280,4390100,4228523,4392363,3800,1871,1021,2545,-1315,-973,-1411,2625,43,24,857
310229,4217412,4390200,4228720,4392560,3800,2039,1033,1834,-1165,-680,-1257,2925,32,27,857
311230,4217520,4390300,4228917,4392757,3800,2082,1011,1204,-1008,-459,-1147,3232,32,27,857
312231,4217620,4390404,4229114,4392954,3800,2098,964,621,-850,-160,-1121,3666,26,19,855
313232,4217688,4390480,4229311,4393151,3800,2327,923,135,-671,211,-1308,4386,26,19,855
314233,4217756,4390584,4229508,4393348,3800,2193,942,-146,-460,600,-1455,5574,28,18,853
315234,4217816,4390672,4229705,4393545,3800,2342,1035,-268,-283,859,-1217,6260,28,18,853
316235,4217880,4390736,4229902,4393742,3800,2550,1136,-415,-182,960,-773,5834,7,28,852
317236,4217900,4390812,4230099,4393939,3800,2530,1159,-596,-155,1063,-385,5242,7,28,852
318237,4217924,4390880,4230296,4394136,3800,2637,1094,-786,-148,1200,-215,5025,19,13,852
319238,4217944,4390952,4230493,4394333,3800,2667,969,-934,-111,1327,-301,5235,19,13,852
320239,4217968,4391028,4230690,4394530,3800,2696,803,-928,-21,1486,-468,5534,17,26,850
321240,4217988,4391088,4230887,4394727,3800,2858,624,-851,101,1601,-352,5553,17,26,850
322241,4218020,4391160,4231084,4394924,3800,2838,462,-777,200,1582,-105,5363,8,10,850
323242,4218052,4391236,4231281,4395121,3800,2867,330,-825,259,1438,62,4979,8,10,850
324243,4218084,4391336,4231478,4395318,3800,2760,224,-972,299,1279,145,4608,21,31,847
325244,4218136,4391432,4231675,4395515,3800,2830,135,-1186,342,1112,70,4403,21,31,847
326245,4218184,4391512,4231872,4395712,3800,2982,58,-1417,412,922,-166,4172,24,31,848
327246,4218228,4391616,4232069,4395909,3800,2874,-24,-1665,521,756,-387,4219,24,31,848
328247,4218264,4391728,4232266,4396106,3800,2862,-111,-1869,657,658,-449,4228,17,17,849
329248,4218288,4391828,4232463,4396303,3800,2981,-198,-2017,803,534,-389,4207,17,17,849
330249,4218324,4391952,4232660,4396500,3800,2864,-279,-2107,934,302,-300,4265,14,19,848
331250,4218348,4392068,4232857,4396697,3800,2950,-341,-2252,1043,-17,-343,4018,14,19,848
332251,4218392,4392188,4233054,4396894,3800,2960,-366,-2414,1134,-314,-484,3845,17,20,848
333252,4218428,4392304,4233251,4397091,3800,3021,-366,-2605,1217,-633,-764,3667,17,20,848
334253,4218460,4392412,4233448,4397288,3800,3111,-350,-2776,1306,-921,-1087,3727,8,27,846
335254,4218500,4392540,4233645,4397485,3800,3018,-348,-2772,1389,-1308,-1232,4304,8,27,846
336255,4218552,4392700,4233842,4397682,3800,2835,-351,-2609,1468,-1387,-1253,4585,16,23,847
337256,4218588,4392820,4234039,4397879,3800,3120,-330,-2373,1560,-1402,-1427,4560,16,23,847
338257,4218624,4392980,4234236,4398076,3800,2887,-265,-2182,1643,-1474,-1449,4385,14,28,848
339258,4218652,4393124,4234433,4398273,3800,3011,-159,-2060,1708,-1557,-1404,4150,14,28,848
340259,4218684,4393300,4234630,4398470,3800,2821,-28,-2040,1730,-1664,-1401,3906,4,39,847
341260,4218720,4393484,4234827,4398667,3800,2778,133,-2066,1749,-1752,-1672,3607,4,39,847
342261,4218756,4393636,4235024,4398864,3800,2999,310,-2079,1785,-1654,-1776,3760,2,34,848
343269,4218784,4393816,4235254,4399094,3800,2847,448,-1894,1803,-1571,-1825,4365,2,34,848
344263,4218832,4394004,4235451,4399291,3800,2802,543,-1668,1807,-1258,-1721,4367,4,37,850
345264,4218880,4394192,4235648,4399488,3800,2807,625,-1469,1798,-970,-1495,4127,4,37,850
346265,4218928,4394396,4235845,4399685,3800,2705,687,-1367,1736,-700,-1105,3999,17,37,848
347266,4218952,4394608,4236042,4399882,3800,2649,721,-1251,1607,-411,-737,4087,17,37,848
348267,4218972,4394808,4236239,4400079,3800,2724,729,-1164,1423,-151,-542,3894,2,47,849
349268,4218984,4394988,4236436,4400276,3800,2857,746,-1189,1234,224,-474,3558,2,47,849
350269,4218992,4395180,4236633,4400473,3800,2786,751,-1223,1069,698,-356,3640,8,37,850
351270,4219008,4395360,4236830,4400670,3800,2869,729,-1242,942,1120,-148,3794,8,37,850
352270,4219000,4395600,4237027,4400867,3800,2476,694,-1244,828,1437,-100,3829,12,48,849
353272,4219000,4395824,4237224,4401064,3800,2565,662,-1255,703,1639,-237,3771,12,48,849
354273,4219012,4396020,4237421,4401261,3800,2742,632,-1260,582,1851,-337,3825,-5,55,848
355274,4219008,4396252,4237618,4401458,3800,2502,584,-1240,487,2097,-366,4039,-5,55,848
356275,4219012,4396476,4237815,4401655,3800,2541,527,-1168,406,2188,-254,4125,-4,55,850
357276,4219020,4396700,4238012,4401852,3800,2531,473,-1062,316,2127,-247,4209,-4,55,850
358277,4219028,4396952,4238209,4402049,3800,2332,415,-915,205,2066,-188,4417,-4,56,850
359278,4219040,4397156,4238406,4402246,3800,2630,347,-720,91,1976,-94,4686,-4,56,850
360279,4219048,4397380,4238603,4402443,3800,2494,259,-430,-9,1828,-133,4970,-5,53,851
361280,4219068,4397560,4238800,4402640,3800,2778,178,-93,-100,1611,-186,4967,-5,53,851
362281,4219092,4397760,4238997,4402837,3800,2653,110,230,-199,1377,-70,4957,-1,47,851
363282,4219108,4397932,4239194,4403034,3800,2840,43,514,-293,1195,175,4958,-1,47,851
364283,4219116,4398144,4239391,4403231,3800,2584,-11,787,-376,969,348,4906,12,49,849
365284,4219136,4398320,4239588,4403428,3800,2819,-59,1067,-438,744,405,4992,12,49,849
366285,4219156,4398500,4239785,4403625,3800,2803,-104,1354,-468,524,450,4936,-3,34,849
367286,4219168,4398656,4239982,4403822,3800,2972,-163,1622,-462,401,673,4944,-3,34,849
368287,4219196,4398860,4240179,4404019,3800,2669,-230,1858,-416,283,807,4799,1,31,847
369288,4219204,4399020,4240376,4404216,3800,2961,-281,1980,-339,40,842,4389,1,31,847
370289,4219204,4399188,4240573,4404413,3800,2925,-294,1942,-250,-247,945,3885,-1,29,847
371290,4219212,4399348,4240770,4404610,3800,2992,-256,1739,-151,-661,749,3477,-1,29,847
372291,4219192,4399548,4240967,4404807,3800,2742,-207,1487,-34,-1219,80,3495,8,44,847
373292,4219212,4399708,4241164,4405004,3800,3009,-165,1294,114,-1789,-569,3543,8,44,847
374293,4219200,4399916,4241361,4405201,3800,2705,-112,1085,281,-2258,-681,3307,14,43,847
375294,4219204,4400100,4241558,4405398,3800,2862,-43,882,440,-2509,-505,3327,14,43,847
376295,4219204,4400236,4241755,4405595,3800,3190,14,706,618,-2656,-446,3528,1,29,847
377296,4219208,4400376,4241952,4405792,3800,3192,71,549,837,-2879,-531,3424,1,29,847
378297,4219208,4400508,4242149,4405989,3800,3271,123,396,1097,-3039,-719,3612,8,41,847
379298,4219196,4400680,4242346,4406186,3800,3033,168,319,1373,-3203,-761,3798,8,41,847
380299,4219200,4400812,4242543,4406383,3800,3313,242,243,1634,-3360,-538,3548,-1,40,845
381300,4219200,4400976,4242740,4406580,3800,3128,339,106,1842,-3488,-235,3416,-1,40,845
382301,4219208,4401104,4242937,4406777,3800,3385,419,-41,2006,-3524,-54,3538,10,34,845
383302,4219208,4401248,4243134,4406974,3800,3309,472,-93,2157,-3358,65,3653,10,34,845
384303,4219212,4401388,4243331,4407171,3800,3360,509,-126,2284,-3207,125,3820,13,30,846
385304,4219208,4401552,4243528,4407368,3800,3225,520,-103,2412,-3107,-113,4053,13,30,846
386305,4219208,4401712,4243725,4407565,3800,3268,530,-62,2553,-2994,-481,4025,16,28,845
387306,4219224,4401824,4243922,4407762,3800,3606,562,-57,2625,-2848,-279,3769,16,28,845
388307,4219216,4401960,4244119,4407959,3800,3484,618,-145,2594,-2541,243,3537,10,26,846
389308,4219224,4402080,4244316,4408156,3800,3620,660,-284,2509,-2091,585,3406,10,26,846
390309,4219236,4402244,4244513,4408353,3800,3360,666,-482,2442,-1622,590,3352,3,24,842
391310,4219236,4402380,4244710,4408550,3800,3563,661,-703,2404,-1267,513,3285,3,24,842
392311,4219248,4402488,4244907,4408747,3800,3778,660,-923,2368,-1048,256,3210,17,34,843
393312,4219288,4402616,4245104,4408944,3800,3684,654,-1172,2302,-738,81,3132,17,34,843
394326,4219324,4402712,4245301,4409141,3800,3800,653,-1481,2177,-492,155,2873,17,29,843
395327,4219384,4402824,4245498,4409338,3800,3800,650,-1827,1996,-202,144,2806,17,29,843
396327,4219468,4402916,4245695,4409535,3800,3800,647,-2186,1803,248,260,2813,25,25,843
397328,4219572,4403012,4245892,4409732,3800,3800,634,-2552,1646,681,393,2966,25,25,843
398329,4219676,4403136,4246089,4409929,3800,3800,597,-2817,1503,992,477,3111,17,20,840
399330,4219804,4403268,4246286,4410126,3800,3800,550,-3085,1361,1236,504,3004,17,20,840
400331,4219944,4403416,4246483,4410323,3800,3800,503,-3315,1218,1404,326,3084,30,36,842
401320,4220076,4403580,4246680,4410520,3800,3738,428,-3494,1049,1448,-77,3406,30,36,842
402321,4220212,4403780,4246877,4410717,3800,3514,309,-3512,857,1337,-868,3858,21,37,842
403322,4220344,4403976,4247074,4410914,3800,3540,145,-3398,689,1166,-1393,4318,21,37,842
404323,4220452,4404160,4247271,4411111,3800,3622,14,-3300,544,1143,-1158,3766,38,54,844
405324,4220568,4404328,4247468,4411308,3800,3737,19,-3496,347,1265,-114,2678,38,54,844
406338,4220696,4404488,4247665,4411505,3800,3800,91,-3678,136,1332,14,3347,36,32,846
407326,4220796,4404676,4247862,4411702,3800,3634,17,-3296,99,1795,-810,5340,36,32,846
408327,4220904,4404864,4248059,4411899,3800,3640,-183,-2626,212,1991,-996,5380,37,34,844
409328,4221008,4405068,4248256,4412096,3800,3538,-277,-2161,273,1601,-415,4461,37,34,844
410329,4221092,4405264,4248453,4412293,3800,3589,-140,-1899,4,1078,572,3882,29,31,844
411330,4221188,4405456,4248650,4412490,3800,3619,-79,-1746,-118,868,751,4276,29,31,844
412331,4221272,4405664,4248847,4412687,3800,3515,-96,-1309,-167,1022,1038,5003,24,35,843
413332,4221348,4405868,4249044,4412884,3800,3538,-158,-701,-105,1230,1128,5175,24,35,843
414333,4221412,4406056,4249241,4413081,3800,3644,-177,-245,10,1276,1699,4669,28,51,844
415334,4221508,4406232,4249438,4413278,3800,3729,-203,123,71,1215,2306,4715,28,51,844
416335,4221568,4406488,4249635,4413475,3800,3204,-217,385,52,1054,2808,4243,18,45,845
417336,4221640,4406756,4249832,4413672,3800,3100,-235,602,-6,710,2530,4264,18,45,845
418338,4221728,4407024,4250029,4413869,3800,3070,-280,936,8,588,1885,4631,28,43,844
419338,4221808,4407252,4250226,4414066,3800,3307,-346,1264,112,551,1743,4525,28,43,844
420339,4221900,4407512,4250423,4414263,3800,3081,-425,1626,227,332,1354,4562,16,56,847
421340,4221984,4407796,4250620,4414460,3800,2894,-503,1862,309,21,977,4211,16,56,847
422341,4222092,4408084,4250817,4414657,3800,2830,-567,1949,361,-53,801,3834,31,60,846
423342,4222212,4408400,4251014,4414854,3800,2604,-606,1950,433,54,584,3624,31,60,846
424343,4222324,4408648,4251211,4415051,3800,3008,-607,1827,513,12,503,3045,18,52,849
425344,4222444,4408980,4251408,4415248,3800,2425,-595,1633,592,78,408,2976,18,52,849
426352,4222580,4409304,4251638,4415478,3800,2435,-575,1353,656,90,342,2898,23,70,852
427346,4222700,4409644,4251835,4415675,3800,2273,-586,1109,705,44,-13,3297,23,70,852
428347,4222860,4409972,4252032,4415872,3800,2291,-639,1071,743,86,-392,3759,39,69,854
429348,4222976,4410304,4252229,4416069,3800,2209,-705,1015,762,100,-406,3630,39,69,854
430349,4223120,4410704,4252426,4416266,3800,1696,-748,945,730,276,-344,3578,26,72,855
431350,4223260,4411096,4252623,4416463,3800,1661,-770,814,669,558,-306,3401,26,72,855
432351,4223376,4411436,4252820,4416660,3800,1924,-767,552,597,880,-111,3205,34,69,854
433352,4223508,4411812,4253017,4416857,3800,1622,-743,308,504,1131,-91,3284,34,69,854
434354,4223632,4412284,4253214,4417054,3800,902,-702,37,383,1206,-518,3318,33,74,856
435354,4223772,4412696,4253411,4417251,3800,1183,-661,-177,271,1479,-867,3479,33,74,856
436355,4223896,4413068,4253608,4417448,3800,1356,-616,-387,174,1787,-1057,3435,41,89,857
437356,4224016,4413512,4253805,4417645,3800,799,-563,-550,91,2083,-1421,3726,41,89,857
438357,4224148,4413956,4254002,4417842,3800,691,-518,-589,-22,2460,-1507,4153,39,82,859
439358,4224316,4414356,4254199,4418039,3800,878,-455,-594,-191,2700,-1276,3991,39,82,859
440359,4224496,4414788,4254396,4418236,3800,575,-361,-649,-412,3046,-704,4061,36,77,860
441360,4224664,4415228,4254593,4418433,3800,419,-231,-689,-654,3502,-227,4082,36,77,860
442361,4224872,4415588,4254790,4418630,3800,848,-70,-816,-936,3826,270,3781,42,68,860
443362,4225120,4415924,4254987,4418827,3800,937,136,-866,-1222,4101,482,3913,42,68,860
444363,4225384,4416320,4255184,4419024,3800,476,340,-877,-1514,4042,573,4055,49,63,861
445364,4225648,4416696,4255381,4419221,3800,522,522,-733,-1773,3947,40,4562,49,63,861
446365,4225900,4417044,4255578,4419418,3800,632,701,-433,-1980,3744,-192,4662,59,65,860
447366,4226180,4417300,4255775,4419615,3800,1181,914,-157,-2188,3574,-179,4551,59,65,860
448367,4226456,4417576,4255972,4419812,3800,1022,1145,195,-2397,3375,-647,4909,50,63,863
449368,4226732,4417904,4256169,4420009,3800,640,1345,677,-2584,2941,-1224,5077,50,63,863
450369,4227044,4418216,4256366,4420206,3800,690,1547,1212,-2737,2668,-1384,4942,50,66,860
451370,4227328,4418500,4256563,4420403,3800,827,1770,1695,-2878,2630,-1077,4686,50,66,860
452371,4227608,4418724,4256760,4420600,3800,1190,2046,2070,-3039,2414,-848,4331,49,53,863
453372,4227952,4418984,4256957,4420797,3800,938,2342,2483,-3189,2264,-1151,4488,49,53,863
454373,4228256,4419288,4257154,4420994,3800,616,2604,2987,-3286,2205,-1260,4525,61,57,862
455374,4228560,4419568,4257351,4421191,3800,730,2839,3473,-3328,2034,-1288,4240,61,57,862
456375,4228896,4419848,4257548,4421388,3800,694,3083,3971,-3334,1755,-1505,3873,73,63,860
457376,4229192,4420088,4257745,4421585,3800,925,3351,4376,-3294,1319,-1871,3427,73,63,860
458377,4229544,4420296,4257942,4421782,3800,1121,3637,4658,-3215,955,-2033,3000,64,45,863
459378,4229904,4420568,4258139,4421979,3800,689,3917,4810,-3120,648,-2210,2495,64,45,863
460379,4230228,4420820,4258336,4422176,3800,789,4198,4887,-3055,283,-2194,2022,56,61,862
461380,4230576,4421060,4258533,4422373,3800,846,4460,4955,-3021,4,-2034,1804,56,61,862
462381,4230972,4421284,4258730,4422570,3800,934,4700,5035,-2970,-411,-2126,1766,68,59,864
463382,4231376,4421492,4258927,4422767,3800,1030,4890,5324,-2872,-911,-2411,2317,68,59,864
464383,4231788,4421712,4259124,4422964,3800,945,5038,5774,-2751,-1478,-2453,2421,85,56,864
465384,4232240,4421960,4259321,4423161,3800,747,5110,6250,-2732,-2068,-2347,2591,85,56,864
466385,4232684,4422180,4259518,4423358,3800,912,5106,6828,-2853,-2647,-2253,2765,82,57,861
467386,4233128,4422396,4259715,4423555,3800,929,5055,7274,-3108,-3381,-1921,2075,82,57,861
468387,4233580,4422592,4259912,4423752,3800,1055,4988,7635,-3458,-3932,-1446,1879,82,51,862
469388,4234096,4422748,4260109,4423949,3800,1323,4905,7925,-3808,-4371,-1100,1592,82,51,862
470389,4234604,4422952,4260306,4424146,3800,1020,4847,8135,-4111,-4574,-887,1390,80,35,864
471390,4235104,4423128,4260503,4424343,3800,1204,4797,8310,-4370,-4741,-657,1198,80,35,864
472391,4235712,4423304,4260700,4424540,3800,1215,4743,8353,-4598,-4909,-198,898,104,32,863
473392,4236208,4423460,4260897,4424737,3800,1358,4652,8318,-4807,-4772,286,824,104,32,863
474393,4236804,4423604,4261094,4424934,3800,1456,4519,8172,-4983,-4584,816,630,100,42,863
475394,4237448,4423748,4261291,4425131,3800,1479,4330,8027,-5085,-4402,1074,670,100,42,863
476395,4238012,4423856,4261488,4425328,3800,1744,4070,7653,-5090,-4055,1335,134,111,39,863
477396,4238608,4423956,4261685,4425525,3800,1837,3817,7034,-4975,-3680,1663,-364,111,39,863
478397,4239316,4424080,4261882,4425722,3800,1719,3520,6235,-4717,-3459,2114,-449,109,28,862
479398,4239972,4424180,4262079,4425919,3800,1912,3246,5292,-4353,-3562,2583,-1046,109,28,862
480399,4240656,4424276,4262276,4426116,3800,1982,2991,4175,-3935,-3714,2669,-1076,124,42,862
481400,4241396,4424388,4262473,4426313,3800,1919,2647,3045,-3449,-3696,3174,-1081,124,42,862
482401,4242112,4424548,4262670,4426510,3800,1637,2209,1727,-2923,-3422,3914,-1632,136,45,862
483403,4242788,4424760,4262867,4426707,3800,1305,1778,212,-2381,-2955,4387,-1922,136,45,862
484404,4243564,4424936,4263064,4426904,3800,1539,1279,-1399,-1870,-2442,4787,-1679,130,52,863
485404,4244284,4425112,4263261,4427101,3800,1550,573,-2732,-1336,-1887,4763,-296,130,52,863
486405,4244956,4425268,4263458,4427298,3800,1693,-1628,-1995,-317,-668,2218,8105,148,41,866
487406,4245660,4425440,4263655,4427495,3800,1604,-4785,-249,1012,-993,341,8029,148,41,866
488407,4246288,4425588,4263852,4427692,3800,1776,-7374,65,2178,-2107,-1650,2371,142,46,862
489408,4246852,4425780,4264049,4427889,3800,1503,-8286,-2252,2789,-1966,-149,-4296,142,46,862
490409,4247420,4425944,4264246,4428086,3800,1694,-7951,-6783,2733,-1309,901,-8771,116,49,861
491410,4247932,4426116,4264443,4428283,3800,1655,-7778,-10990,2575,-363,-2279,-5568,116,49,861
492411,4248384,4426260,4264640,4428480,3800,1853,-8631,-13180,2712,585,-6266,51,109,38,862
493412,4248788,4426392,4264837,4428677,3800,1958,-10000,-13829,3094,1475,-8756,2746,109,38,862
494413,4249184,4426512,4265034,4428874,3800,2066,-11048,-14279,3675,2500,-10177,2758,62,36,860
495414,4249500,4426616,4265231,4429071,3800,2208,-11560,-15460,4283,3433,-11646,2055,62,36,860
496415,4249812,4426764,4265428,4429268,3800,1955,-11630,-16832,4594,5948,-14744,3604,80,34,858
497416,4250116,4426880,4265625,4429465,3800,2191,-9323,-20999,2666,18041,-26674,15427,80,34,858
498417,4250476,4426984,4265822,4429662,3800,2307,-8193,-22960,1372,7941,-12370,11781,42,36,855
499418,4250728,4427084,4266019,4429859,3800,2376,-8233,-22440,1204,3311,-4697,6785,42,36,855
500419,4251088,4427196,4266216,4430056,3800,2338,-8766,-21210,1323,2504,-2126,8928,57,26,856
501420,4251404,4427312,4266413,4430253,3800,2350,-6705,-16813,1329,4004,225,20436,57,26,856
502421,4251756,4427428,4266610,4430450,3800,2386,-526,-3564,517,8819,4807,32767,60,37,855
503422,4252112,4427532,4266807,4430647,3800,2502,4126,4772,-228,561,2757,11558,60,37,855
504423,4252448,4427660,4267004,4430844,3800,2383,4567,5241,-518,-581,2994,5844,70,34,855
505424,4252732,4427812,4267201,4431041,3800,2253,3649,2968,-781,531,3479,2800,70,34,855
506425,4253096,4427940,4267398,4431238,3800,2435,3101,1463,-853,1399,2179,4834,64,29,854
507426,4253388,4428076,4267595,4431435,3800,2412,3262,1436,-676,1005,1817,4435,64,29,854
508427,4253684,4428208,4267792,4431632,3800,2466,3639,1213,-473,2119,983,2667,66,25,855
509435,4253996,4428328,4268022,4431862,3800,2591,3955,708,-457,2144,1334,1784,66,25,855
510429,4254304,4428472,4268219,4432059,3800,2464,4088,-930,-528,802,1399,-1123,46,27,853
511430,4254608,4428632,4268416,4432256,3800,2381,4292,-2917,-680,1217,426,-1692,46,27,853
512431,4254960,4428744,4268613,4432453,3800,2719,4447,-4627,-913,1215,930,-1939,79,25,852
513432,4255344,4428852,4268810,4432650,3800,2784,4640,-5651,-924,590,-657,979,79,25,852
514433,4255728,4428984,4269007,4432847,3800,2663,4308,-5008,-500,1407,-3149,6468,71,21,854
515434,4256068,4429084,4269204,4433044,3800,2907,3797,-3733,278,1599,-4090,6697,71,21,854
516435,4256496,4429220,4269401,4433241,3800,2710,3283,-1492,1034,1394,-2755,10018,73,22,853
517436,4256888,4429360,4269598,4433438,3800,2710,2832,408,1398,792,-1421,7508,73,22,853
518437,4257320,4429492,4269795,4433635,3800,2789,2739,873,1267,-401,-679,3662,88,41,852
519438,4257800,4429632,4269992,4433832,3800,2765,2807,1026,961,-1478,-1143,3423,88,41,852
520439,4258272,4429768,4270189,4434029,3800,2818,2880,1229,567,-1711,-277,2945,93,29,854
521440,4258732,4429892,4270386,4434226,3800,2925,2732,1473,119,-1330,-149,3367,93,29,854
522441,4259240,4430004,4270583,4434423,3800,3038,2555,2012,-265,-1205,-249,3707,102,41,853
523430,4259848,4430132,4270780,4434620,3724,2970,2335,2862,-375,-488,-886,4329,102,41,853
524443,4260268,4430236,4270977,4434817,3800,3162,2124,3520,-325,412,-1340,3607,107,25,853
525432,4260948,4430384,4271174,4435014,2967,2909,1886,3917,-219,291,-1691,3449,107,25,853
526432,4261536,4430548,4271371,4435211,3373,2825,1694,4425,-53,465,-1838,3369,99,45,854
527433,4262184,4430744,4271568,4435408,2801,2626,1578,4245,73,1196,-2035,1019,99,45,854
528434,4262824,4430912,4271765,4435605,2659,2815,1568,3777,145,1168,-1770,434,115,38,859
529435,4263448,4431064,4271962,4435802,2573,2935,1645,2874,144,1059,-950,-879,115,38,859
530436,4264144,4431212,4272159,4435999,1905,2982,1694,1749,134,2384,-1037,-1300,129,54,862
531437,4264836,4431352,4272356,4436196,1714,3058,1685,906,147,3078,-558,-400,129,54,862
532438,4265548,4431552,4272553,4436393,1364,2683,1570,196,206,3428,-474,183,125,34,861
533439,4266200,4431704,4272750,4436590,1541,3004,1325,-320,174,4263,-151,743,125,34,861
534440,4266900,4431916,4272947,4436787,1021,2623,1023,-824,51,4240,250,545,137,40,862
535441,4267556,4432116,4273144,4436984,1095,2698,790,-1451,-139,4200,760,32,137,40,862
536442,4268208,4432336,4273341,4437181,921,2564,694,-2282,-383,4508,911,-917,108,38,865
537444,4268768,4432512,4273538,4437378,1338,2849,690,-3308,-655,4049,1190,-1223,108,38,865
538444,4269460,4432700,4273735,4437575,296,2779,716,-4013,-933,3680,1195,-122,116,58,868
539445,4270028,4432908,4273932,4437772,909,2650,650,-4230,-1211,3816,1343,1001,116,58,868
540446,4270572,4433092,4274129,4437969,908,2807,445,-3949,-1413,3697,1665,2574,99,51,867
541447,4271092,4433304,4274326,4438166,916,2626,155,-3134,-1492,3352,1687,3883,99,51,867
542448,4271636,4433500,4274523,4438363,614,2727,-137,-2228,-1542,2970,1625,3909,116,55,869
543449,4272068,4433736,4274720,4438560,1211,2460,-394,-1261,-1639,2450,2267,4268,116,55,869
544450,4272552,4433960,4274917,4438757,761,2525,-606,-346,-1781,1968,2734,4056,93,59,868
545451,4272976,4434168,4275114,4438954,1036,2621,-757,313,-1980,1849,2903,3190,93,59,868
546452,4273356,4434392,4275311,4439151,1232,2510,-895,903,-2192,1832,3225,3021,81,52,869
547453,4273720,4434612,4275508,4439348,1258,2526,-1027,1537,-2344,1592,3229,3139,81,52,869
548454,4274064,4434844,4275705,4439545,1319,2436,-1196,2146,-2410,1421,2718,3088,62,43,868
549456,4274404,4435100,4275902,4439742,1282,2261,-1340,2726,-2380,1133,2594,2869,62,43,868
550457,4274736,4435324,4276099,4439939,1272,2451,-1549,3126,-2327,1098,2976,2319,56,51,869
551457,4275056,4435584,4276296,4440136,1293,2199,-1814,3397,-2318,1404,3196,1802,56,51,869
552458,4275304,4435856,4276493,4440333,1722,2091,-2098,3365,-2303,1233,3029,948,68,50,870
553460,4275508,4436120,4276690,4440530,1994,2112,-2358,3117,-2251,1230,2675,309,68,50,870
554460,4275676,4436396,4276887,4440727,2232,2004,-2595,2601,-2188,1434,2440,-376,59,62,869
555462,4275828,4436632,4277084,4440924,2351,2238,-2808,1937,-2108,1324,2245,-743,59,62,869
556462,4276008,4436868,4277281,4441121,2184,2221,-2993,1231,-2007,1325,1798,-906,51,54,866
557464,4276232,4437120,4277478,4441318,1898,2098,-3165,436,-1868,1330,1050,-1053,51,54,866
558464,4276412,4437368,4277675,4441515,2181,2101,-3317,-296,-1677,1205,308,-615,33,51,865
559466,4276584,4437592,4277872,4441712,2242,2240,-3463,-799,-1457,1111,-674,-8,33,51,865
560466,4276740,4437868,4278069,4441909,2360,1881,-3598,-1190,-1243,872,-1494,614,29,43,868
561468,4276904,4438128,4278266,4442106,2325,1955,-3752,-1342,-1063,578,-1996,1536,29,43,868
562469,4277036,4438368,4278463,4442303,2554,2061,-3920,-1268,-944,359,-2188,2074,41,49,865
563469,4277188,4438604,4278660,4442500,2448,2070,-4088,-1077,-918,242,-2255,2514,41,49,865
564470,4277316,4438868,4278857,4442697,2629,1866,-4210,-740,-969,122,-2314,3177,28,47,866
565472,4277448,4439104,4279054,4442894,2633,2025,-4317,-206,-1052,47,-2168,4054,28,47,866
566473,4277604,4439336,4279251,4443091,2501,2035,-4456,520,-1154,134,-1692,4633,41,48,863
567474,4277748,4439576,4279448,4443288,2600,1967,-4586,1215,-1248,174,-1338,4555,41,48,863
568474,4277876,4439832,4279645,4443485,2731,1842,-4691,1906,-1323,314,-910,4926,43,51,864
569476,4278028,4440064,4279842,4443682,2601,1977,-4808,2696,-1411,434,-307,5557,43,51,864
570477,4278168,4440284,4280039,4443879,2701,2042,-4917,3517,-1502,591,166,5681,21,52,864
571478,4278316,4440540,4280236,4444076,2673,1792,-4970,4216,-1575,610,271,5432,21,52,864
572478,4278484,4440760,4280433,4444273,2561,2008,-4920,4721,-1630,724,551,5032,47,55,864
573480,4278680,4441012,4280630,4444470,2387,1784,-4782,5043,-1681,915,840,4727,47,55,864
574480,4278872,4441292,4280827,4444667,2415,1574,-4588,5293,-1728,769,548,4735,48,51,865
575481,4279092,4441548,4281024,4444864,2230,1699,-4359,5580,-1763,240,-71,4880,48,51,865
576482,4279296,4441872,4281221,4445061,2327,1218,-4082,5785,-1777,-228,-487,4639,39,51,866
577483,4279516,4442040,4281418,4445258,2217,2207,-3774,5905,-1762,-561,-777,4697,39,51,866
578484,4279728,4442164,4281615,4445455,2261,2514,-3436,6091,-1746,-933,-1081,4933,56,45,867
579485,4279960,4442292,4281812,4445652,2121,2520,-3061,6218,-1748,-1335,-1451,5041,56,45,867
580486,4280164,4442444,4282009,4445849,2293,2391,-2356,6776,-1733,-1832,-2240,8340,41,39,865
581487,4280364,4442648,4282206,4446046,2317,2063,-852,9150,-1513,-2980,-3898,24035,41,39,865
582489,4280592,4442880,4282403,4446243,2129,1873,431,10570,-1372,-1848,-2440,8015,42,41,864
583489,4280788,4443144,4282600,4446440,2330,1645,910,10328,-1371,-1571,-1963,3408,42,41,864
584490,4280996,4443440,4282797,4446637,2250,1401,1030,9316,-1402,-1674,-1918,2579,58,55,865
585492,4281212,4443648,4282994,4446834,2193,1948,1175,8583,-1397,-1741,-2132,3353,58,55,865
586492,4281384,4443988,4283191,4447031,2479,1060,1359,8190,-1345,-1996,-2048,3590,55,64,868
587493,4281564,4444320,4283388,4447228,2436,1051,1545,7838,-1312,-1950,-1506,3574,55,64,868
588494,4281756,4444588,4283585,4447425,2364,1421,1652,7517,-1369,-1799,-861,3788,30,58,866
589495,4281896,4444824,4283782,4447622,2714,1604,1704,7116,-1468,-1749,-446,3435,30,58,866
590496,4282044,4445124,4283979,4447819,2687,1160,1731,6620,-1587,-1617,-106,3265,46,64,869
591497,4282176,4445416,4284176,4448016,2815,1168,1721,6042,-1685,-1488,98,3156,46,64,869
592507,4282340,4445700,4284406,4448246,2644,1195,1712,5468,-1726,-1452,81,3299,48,69,866
593499,4282480,4445952,4284603,4448443,2820,1371,1683,5082,-1730,-1404,-44,3714,48,69,866
594501,4282628,4446256,4284800,4448640,2792,1000,1646,4677,-1738,-1548,21,3593,46,60,867
595501,4282760,4446600,4284997,4448837,2921,686,1581,4273,-1764,-1551,65,3744,46,60,867
596502,4282892,4446944,4285194,4449034,2950,622,1487,3906,-1801,-1515,-15,3861,42,58,865
597503,4282996,4447248,4285391,4449231,3166,825,1375,3479,-1831,-1717,-106,3822,42,58,865
598504,4283100,4447568,4285588,4449428,3208,671,1251,3047,-1874,-1855,-119,3961,32,73,866
599505,4283200,4447900,4285785,4449625,3275,538,1102,2596,-1935,-1910,-228,4018,32,73,866
600506,4283288,4448264,4285982,4449822,3399,264,911,2217,-1984,-1851,-559,4431,14,68,864
601508,4283380,4448520,4286179,4450019,3421,913,726,1929,-1995,-1774,-617,4450,14,68,864
602508,4283452,4448756,4286376,4450216,3601,1022,564,1657,-1970,-1663,-654,4616,12,56,865
603509,4283540,4449068,4286573,4450413,3549,497,397,1456,-1924,-1687,-612,4780,12,56,865
604510,4283640,4449336,4286770,4450610,3518,740,240,1253,-1876,-1668,-415,4520,16,57,863
605511,4283712,4449580,4286967,4450807,3749,870,117,952,-1834,-1742,-280,4205,16,57,863
606512,4283804,4449792,4287164,4451004,3670,1064,15,594,-1798,-1827,-353,4058,30,51,862
607513,4283912,4449988,4287361,4451201,3610,1165,-83,297,-1753,-1945,-768,4113,30,51,862
608514,4284008,4450152,4287558,4451398,3730,1379,-168,80,-1673,-2068,-1428,4247,18,35,859
609515,4284128,4450320,4287755,4451595,3614,1367,-218,-99,-1554,-2201,-1927,4320,18,35,859
610516,4284240,4450492,4287952,4451792,3703,1353,-234,-276,-1414,-2398,-1953,4224,36,39,859
611517,4284360,4450688,4288149,4451989,3688,1204,-235,-533,-1272,-2571,-1735,3993,36,39,859
612518,4284472,4450848,4288346,4452186,3775,1445,-240,-865,-1141,-2699,-1536,3808,30,29,857
613519,4284604,4451008,4288543,4452383,3680,1462,-249,-1182,-1029,-2942,-1407,3931,30,29,857
614521,4284724,4451204,4288740,4452580,3789,1237,-249,-1442,-936,-3215,-1160,3903,19,39,859
615534,4284836,4451364,4288937,4452777,3800,1479,-241,-1687,-837,-3272,-915,3978,19,39,859
616535,4284920,4451488,4289134,4452974,3800,1737,-219,-1958,-713,-3212,-631,3960,16,45,858
617536,4285000,4451672,4289331,4453171,3800,1367,-222,-2203,-608,-3054,120,4292,16,45,858
618537,4285056,4451852,4289528,4453368,3800,1401,-273,-2377,-550,-2793,835,4398,22,34,857
619538,4285124,4452028,4289725,4453565,3800,1435,-357,-2593,-504,-2503,1186,4129,22,34,857
620539,4285200,4452200,4289922,4453762,3800,1471,-474,-2825,-425,-2132,1382,4204,27,45,855
621540,4285256,4452364,4290119,4453959,3800,1535,-616,-3057,-306,-1733,1517,4230,27,45,855
622541,4285304,4452536,4290316,4454156,3800,1497,-754,-3327,-177,-1441,1501,4110,9,27,854
623542,4285372,4452676,4290513,4454353,3800,1722,-880,-3625,-63,-1042,1442,4088,9,27,854
624543,4285412,4452820,4290710,4454550,3800,1721,-1006,-3925,65,-529,1366,4288,19,33,856
625544,4285472,4452972,4290907,4454747,3800,1692,-1115,-4122,227,46,1169,4705,19,33,856
626545,4285524,4453144,4291104,4454944,3800,1578,-1175,-4173,376,582,1137,5632,17,42,855
627546,4285564,4453308,4291301,4455141,3800,1642,-799,-3781,461,1711,812,11036,17,42,855
628547,4285596,4453476,4291498,4455338,3800,1631,173,-2596,456,2913,314,18192,16,47,855
629548,4285620,4453672,4291695,4455535,3800,1456,850,-1662,471,2071,554,10376,16,47,855
630549,4285660,4453824,4291892,4455732,3800,1751,826,-1535,537,1507,791,5430,-1,32,855
631550,4285680,4453972,4292089,4455929,3800,1799,513,-1831,592,1580,610,4645,-1,32,855
632551,4285716,4454084,4292286,4456126,3800,2061,267,-2155,627,1707,171,4416,17,33,854
633552,4285744,4454196,4292483,4456323,3800,2099,144,-2291,643,1693,-276,4440,17,33,854
634553,4285768,4454316,4292680,4456520,3800,2083,93,-2365,638,1613,-562,4261,12,29,854
635554,4285788,4454440,4292877,4456717,3800,2090,75,-2502,604,1507,-750,4107,12,29,854
636555,4285784,4454556,4293074,4456914,3800,2177,67,-2654,572,1434,-1043,4237,15,22,852
637556,4285776,4454664,4293271,4457111,3800,2266,73,-2699,554,1323,-1395,4380,15,22,852
638557,4285780,4454764,4293468,4457308,3800,2359,107,-2671,520,1192,-1502,4344,4,20,851
639558,4285780,4454872,4293665,4457505,3800,2349,155,-2586,466,1132,-1386,4555,4,20,851
640559,4285788,4454976,4293862,4457702,3800,2415,204,-2369,407,1244,-1176,4887,2,19,851
641560,4285776,4455084,4294059,4457899,3800,2430,241,-2051,362,1349,-1005,5057,2,19,851
642561,4285792,4455168,4294256,4458096,3800,2630,274,-1657,323,1372,-834,5156,11,15,849
643562,4285796,4455272,4294453,4458293,3800,2546,313,-1282,284,1377,-509,5056,11,15,849
644563,4285800,4455336,4294650,4458490,3800,2856,376,-928,235,1472,-215,4890,8,30,848
645564,4285796,4455432,4294847,4458687,3800,2701,472,-611,178,1379,-104,4660,8,30,848
646565,4285796,4455524,4295044,4458884,3800,2772,600,-360,117,1187,-113,4285,14,17,849
647566,4285796,4455636,4295241,4459081,3800,2685,760,-180,61,1085,-291,4045,14,17,849
648567,4285812,4455724,4295438,4459278,3800,2883,950,21,27,967,-583,3957,13,31,848
649568,4285800,4455824,4295635,4459475,3800,2852,1158,208,18,774,-891,3855,13,31,848
650569,4285808,4455916,4295832,4459672,3800,2949,1383,384,15,566,-1074,3686,12,19,848
651570,4285832,4456008,4296029,4459869,3800,2996,1620,555,25,355,-1217,3583,12,19,848
652571,4285832,4456104,4296226,4460066,3800,3016,1843,787,42,190,-1239,3636,11,14,847
653572,4285832,4456196,4296423,4460263,3800,3088,2043,1057,46,28,-1302,3652,11,14,847
654573,4285860,4456276,4296620,4460460,3800,3215,2221,1372,23,-190,-1381,3727,-2,28,843
655574,4285884,4456376,4296817,4460657,3800,3134,2366,1703,-17,-275,-1454,3734,-2,28,843
656575,4285924,4456464,4297014,4460854,3800,3257,2462,2016,-45,-302,-1430,3528,19,14,846
657576,4285976,4456576,4297211,4461051,3800,3145,2524,2263,-44,-383,-1528,3263,19,14,846
658577,4286064,4456660,4297408,4461248,3800,3371,2577,2413,-25,-483,-1613,2859,12,14,846
659578,4286144,4456764,4297605,4461445,3800,3288,2637,2447,-8,-560,-1567,2426,12,14,846
660579,4286232,4456856,4297802,4461642,3800,3410,2687,2413,3,-585,-1423,2126,31,17,846
661580,4286340,4456956,4297999,4461839,3800,3403,2704,2331,13,-588,-1390,1954,31,17,846
662581,4286424,4457056,4298196,4462036,3800,3447,2668,2224,17,-535,-1406,1969,30,23,843
663581,4286536,4457220,4298393,4462233,3800,3062,2583,2098,21,-490,-1359,1797,30,23,843
664583,4286652,4457328,4298590,4462430,3800,3453,2466,1924,33,-361,-1301,1600,30,20,844
665584,4286752,4457432,4298787,4462627,3800,3519,2322,1751,53,-175,-1202,1640,30,20,844
666585,4286844,4457572,4298984,4462824,3800,3321,2138,1557,76,-4,-1124,1575,33,22,846
667586,4286940,4457696,4299181,4463021,3800,3454,1930,1377,91,149,-1056,1525,33,22,846
668587,4287016,4457844,4299378,4463218,3800,3326,1713,1111,77,246,-931,1357,27,23,844
669588,4287096,4457968,4299575,4463415,3800,3509,1490,770,25,375,-853,1275,27,23,844
670589,4287156,4458072,4299772,4463612,3800,3676,1242,442,-47,518,-837,1358,31,38,844
671590,4287208,4458192,4299969,4463809,3800,3611,976,176,-117,667,-847,1461,31,38,844
672591,4287252,4458324,4300166,4464006,3800,3565,685,-65,-180,818,-842,1682,23,27,844
673592,4287308,4458484,4300363,4464203,3800,3408,382,-248,-237,978,-729,1874,23,27,844
674593,4287340,4458660,4300560,4464400,3800,3318,66,-383,-295,1138,-543,2058,24,43,843
675601,4287400,4458848,4300790,4464630,3800,3262,-247,-546,-366,1266,-278,2153,24,43,843
676595,4287432,4458984,4300987,4464827,3800,3615,-547,-721,-457,1352,30,2215,23,41,843
677596,4287496,4459156,4301184,4465024,3800,3402,-829,-862,-560,1432,378,2252,23,41,843
678597,4287528,4459304,4301381,4465221,3800,3575,-1099,-1044,-666,1496,690,2249,19,38,846
679598,4287564,4459512,4301578,4465418,3800,3196,-1355,-1231,-771,1562,884,2330,19,38,846
680599,4287612,4459692,4301775,4465615,3800,3380,-1608,-1346,-865,1525,1037,2558,16,40,844
681600,4287648,4459872,4301972,4465812,3800,3389,-1867,-1449,-946,1521,1161,2762,16,40,844
682601,4287716,4460060,4302169,4466009,3800,3344,-2125,-1517,-1013,1514,1283,2946,24,30,844
683602,4287780,4460212,4302366,4466206,3800,3590,-2370,-1570,-1056,1395,1294,2989,24,30,844
684603,4287876,4460384,4302563,4466403,3800,3477,-2586,-1614,-1072,1230,1256,3053,19,35,844
685604,4287948,4460528,4302760,4466600,3800,3676,-2780,-1650,-1073,1038,1165,3151,19,35,844
686605,4288028,4460716,4302957,4466797,3800,3406,-2956,-1668,-1060,732,1064,3285,10,31,842
687606,4288108,4460860,4303154,4466994,3800,3706,-3103,-1713,-1025,449,777,3385,10,31,842
688607,4288196,4461044,4303351,4467191,3800,3463,-3218,-1731,-953,112,415,3555,27,39,842
689608,4288272,4461240,4303548,4467388,3800,3389,-3300,-1701,-844,-260,150,3708,27,39,842
690609,4288340,4461464,4303745,4467585,3800,3203,-3357,-1638,-733,-564,-37,3895,29,37,843
691610,4288408,4461672,4303942,4467782,3800,3300,-3385,-1554,-614,-829,-199,4003,29,37,843
692611,4288472,4461852,4304139,4467979,3800,3483,-3379,-1513,-472,-1111,-343,4077,29,39,845
693612,4288536,4462044,4304336,4468176,3800,3412,-3354,-1478,-323,-1240,-415,4253,29,39,845
694613,4288580,4462244,4304533,4468373,3800,3362,-3315,-1416,-153,-1348,-510,4351,24,33,846
695614,4288624,4462428,4304730,4468570,3800,3469,-3262,-1353,34,-1415,-484,4537,24,33,846
696615,4288656,4462660,4304927,4468767,3800,3154,-3201,-1311,221,-1372,-440,4649,18,39,844
697616,4288700,4462852,4305124,4468964,3800,3407,-3123,-1296,397,-1345,-226,4699,18,39,844
698617,4288740,4463052,4305321,4469161,3800,3357,-3033,-1250,559,-1247,-66,5049,14,51,843
699618,4288784,4463224,4305518,4469358,3800,3545,-2166,-550,686,-252,34,14013,14,51,843
700619,4288816,4463408,4305715,4469555,3800,3477,713,2559,679,2066,338,32767,22,37,842
701620,4288848,4463628,4305912,4469752,3800,3243,3330,4734,710,457,-127,18772,22,37,842
702621,4288888,4463800,4306109,4469949,3800,3555,3956,4513,846,-614,578,3564,21,35,844
703622,4288868,4463996,4306306,4470146,3800,3406,3464,3139,997,-502,924,2273,21,35,844
704623,4288896,4464176,4306503,4470343,3800,3515,2980,2014,1119,-360,940,2546,10,44,845
705624,4288968,4464344,4306700,4470540,3800,3604,2770,1247,1214,-641,1183,2450,10,44,845
706625,4289072,4464536,4306897,4470737,3800,3458,2665,616,1208,-663,1299,2519,19,32,844
707626,4289224,4464748,4307094,4470934,3800,3327,2499,-30,1120,-441,1341,2542,19,32,844
708627,4289488,4464936,4307291,4471131,3800,3482,2273,-883,1058,-311,1102,2322,22,40,843
709628,4289760,4465140,4307488,4471328,3800,3380,2024,-1647,1058,-467,-128,2829,22,40,843
710629,4290092,4465336,4307685,4471525,3800,3432,1723,-2059,1086,-910,-1541,3804,53,47,846
711630,4290476,4465500,4307882,4471722,3800,3648,1374,-2149,1142,-1101,-2292,4678,53,47,846
712631,4290840,4465676,4308079,4471919,3800,3583,992,-1967,1224,-887,-2437,5307,83,48,847
713632,4291232,4465868,4308276,4472116,3800,3486,649,-1991,1226,-549,-2063,4297,83,48,847
714633,4291620,4466024,4308473,4472313,3800,3730,330,-2101,1099,-156,-1567,4606,83,43,847
715634,4292040,4466204,4308670,4472510,3800,3589,68,-2318,883,-308,-1109,4173,83,43,847
716635,4292412,4466368,4308867,4472707,3800,3705,-84,-2675,630,-424,-663,3508,92,45,847
717636,4292768,4466560,4309064,4472904,3800,3533,-148,-3202,353,-89,-50,3061,92,45,847
718637,4293160,4466720,4309261,4473101,3800,3751,-226,-3744,100,526,783,3229,91,30,845
719638,4293524,4466876,4309458,4473298,3800,3795,-370,-4143,-89,1083,1634,3578,91,30,845
720639,4293860,4467084,4309655,4473495,3800,3467,-546,-4483,-219,1496,2192,3592,61,30,846
721640,4294212,4467276,4309852,4473692,3800,3570,-689,-4701,-318,1762,2575,4010,61,30,846
722641,4294512,4467476,4310049,4473889,3800,3520,-753,-4979,-457,1623,2457,3624,74,36,845
723642,4294812,4467704,4310246,4474086,3800,3332,-761,-5252,-667,1211,1889,3635,74,36,845
724643,4295168,4467948,4310443,4474283,3800,3212,-702,-5580,-955,844,2480,3096,78,58,847
725644,4295472,4468184,4310640,4474480,3800,3247,-642,-5981,-1205,1215,3185,3549,78,58,847
726645,4295780,4468416,4310837,4474677,3800,3258,-712,-5802,-1380,1491,3068,5242,64,54,847
727646,4296108,4468648,4311034,4474874,3800,3244,-774,-5508,-1553,739,3499,4642,64,54,847
728647,4296480,4468880,4311231,4475071,3800,3229,-711,-5414,-1804,244,3670,4185,55,50,849
729649,4296904,4469104,4311428,4475268,3800,3268,-626,-5181,-2077,145,3334,4994,55,50,849
730649,4297452,4469356,4311625,4475465,3800,3071,-569,-4661,-2220,-313,2576,5505,86,49,847
731650,4297928,4469624,4311822,4475662,3800,2941,-469,-4319,-2327,-844,2233,4543,86,49,847
732651,4298432,4469876,4312019,4475859,3800,3018,-289,-4377,-2447,-985,1664,3835,100,67,849
733652,4299044,4470096,4312216,4476056,3800,3209,-103,-4216,-2472,-1387,387,4941,100,67,849
734653,4299660,4470372,4312413,4476253,3800,2825,86,-3855,-2417,-2199,-996,4475,134,59,854
735654,4300392,4470652,4312610,4476450,3800,2764,333,-3808,-2330,-2894,-1716,3341,134,59,854
736655,4301020,4470940,4312807,4476647,3800,2675,563,-3477,-2150,-2975,-1811,4494,131,63,852
737644,4301796,4471216,4313004,4476844,3135,2717,731,-3229,-1901,-2525,-1382,3751,131,63,852
738644,4302516,4471496,4313201,4477041,3257,2657,836,-3017,-1590,-2052,-1276,4295,132,69,856
739645,4303316,4471800,4313398,4477238,2494,2461,913,-2503,-1216,-2897,-1647,4779,132,69,856
740646,4304148,4472136,4313595,4477435,2017,2201,1099,-2251,-863,-3199,-1357,3149,144,76,861
741647,4304892,4472488,4313792,4477632,2329,2034,1279,-2376,-571,-2839,-1042,2731,144,76,861
742648,4305632,4472820,4313989,4477829,2116,2101,1436,-2396,-132,-3019,-1136,3249,137,68,864
743649,4306424,4473156,4314186,4478026,1532,2016,1452,-2181,449,-3527,-2016,3849,137,68,864
744650,4307136,4473528,4314383,4478223,1806,1714,1534,-2141,1002,-4290,-2772,2769,147,83,868
745652,4307756,4473944,4314580,4478420,2197,1343,1614,-2127,1546,-4690,-2972,3153,147,83,868
746653,4308392,4474268,4314777,4478617,1905,1864,1713,-2057,2001,-4397,-2728,2891,134,74,871
747654,4308912,4474636,4314974,4478814,2489,1515,1738,-2425,2381,-3750,-2919,1803,134,74,871
748654,4309448,4474988,4315171,4479011,2241,1547,1826,-2890,2781,-3213,-3112,1614,133,87,871
749656,4309892,4475320,4315368,4479208,2709,1614,1902,-3418,3167,-2421,-2859,1410,133,87,871
750656,4310284,4475656,4315565,4479405,2950,1528,1983,-4042,3462,-1182,-2542,954,105,68,869
751658,4310604,4475984,4315762,4479602,3347,1521,2054,-4718,3755,5,-2541,883,105,68,869
752658,4310972,4476340,4315959,4479799,2972,1278,2139,-5507,4001,1579,-2486,557,60,62,866
753659,4311240,4476640,4316156,4479996,3567,1582,2118,-6134,4140,3015,-3042,1190,60,62,866
754660,4311488,4476924,4316353,4480193,3670,1645,2057,-6468,4215,3073,-3561,1825,58,71,861
755661,4311760,4477196,4316550,4480390,3488,1688,2000,-6851,4230,3450,-3694,1618,58,71,861
756662,4312036,4477528,4316747,4480587,3430,1254,1960,-7028,4127,4306,-3766,2308,51,70,859
757663,4312316,4477812,4316944,4480784,3369,1517,1923,-7008,3964,4557,-3795,2794,51,70,859
758671,4312600,4478076,4317174,4481014,3322,1627,1855,-6853,3759,5248,-3938,3236,63,62,860
759665,4312864,4478288,4317371,4481211,3418,1946,1723,-6400,3504,5718,-4052,3956,63,62,860
760666,4313128,4478524,4317568,4481408,3390,1780,1559,-5603,3317,5285,-4170,5272,53,58,861
761667,4313424,4478812,4317765,4481605,3147,1415,1394,-4420,3161,5145,-3974,5908,53,58,861
762669,4313752,4479040,4317962,4481802,2890,1777,1215,-3186,2930,5521,-3360,5669,53,49,860
763669,4314024,4479264,4318159,4481999,3208,1790,1104,-2029,2688,5729,-2624,5709,53,49,860
764670,4314304,4479464,4318356,4482196,3122,1940,1014,-747,2462,5558,-1897,6117,69,44,862
765671,4314628,4479644,4318553,4482393,2792,2073,1000,386,2230,4853,-1309,5392,69,44,862
766672,4314924,4479836,4318750,4482590,2925,2001,1027,1488,1992,4570,-454,5309,69,52,860
767673,4315208,4480072,4318947,4482787,2962,1709,1054,2570,1726,4946,355,4762,69,52,860
768674,4315512,4480268,4319144,4482984,2791,1960,1068,3359,1471,5138,740,3731,56,37,862
769675,4315820,4480456,4319341,4483181,2718,2014,1077,4096,1267,4385,896,3839,56,37,862
770676,4316124,4480616,4319538,4483378,2696,2206,1098,4667,1116,3685,955,3193,66,46,863
771677,4316484,4480776,4319735,4483575,2275,2223,1109,5088,942,3844,1215,2580,66,46,863
772678,4316796,4480948,4319932,4483772,2526,2160,1108,5423,806,3987,1254,2093,61,39,863
773679,4317104,4481096,4320129,4483969,2502,2331,1119,5607,744,3186,1122,1587,61,39,863
774680,4317432,4481248,4320326,4484166,2320,2327,1091,5715,773,2325,468,1606,53,44,864
775681,4317720,4481432,4320523,4484363,2530,2133,993,5955,719,1705,1359,2391,53,44,864
776682,4317964,4481632,4320720,4484560,2786,2032,816,6608,710,1807,697,3285,52,38,862
777683,4318176,4481828,4320917,4484757,2979,2059,771,6892,837,1917,708,1307,52,38,862
778684,4318400,4482016,4321114,4484954,2893,2113,820,6916,971,1071,1257,1675,37,32,864
779686,4318624,4482180,4321311,4485151,2881,2278,769,7142,968,926,2610,2370,37,32,864
780686,4318904,4482344,4321508,4485348,2496,2293,666,7309,842,1208,2837,1478,45,37,860
781687,4319180,4482488,4321705,4485545,2486,2442,525,7332,734,495,2064,1249,45,37,860
782688,4319452,4482652,4321902,4485742,2479,2331,346,7474,730,-536,1532,2322,52,41,860
783689,4319716,4482860,4322099,4485939,2500,2053,103,7817,724,-1084,1198,2964,52,41,860
784690,4320008,4483072,4322296,4486136,2284,2022,-123,8179,633,-937,1314,2445,49,47,862
785691,4320324,4483268,4322493,4486333,2082,2122,-319,8411,559,-567,1100,2301,49,47,862
786692,4320660,4483464,4322690,4486530,1897,2124,-618,8532,521,-465,905,2939,56,35,862
787693,4320992,4483648,4322887,4486727,1862,2205,-1016,8852,537,-1025,575,3527,56,35,862
788694,4321264,4483852,4323084,4486924,2204,2078,-1378,8963,600,-1445,383,2589,60,37,866
789695,4321572,4484032,4323281,4487121,1932,2236,-1666,8669,566,-1071,553,1536,60,37,866
790696,4321944,4484224,4323478,4487318,1455,2163,-1941,8108,439,-528,952,1141,70,53,867
791697,4322280,4484476,4323675,4487515,1619,1765,-2223,7443,351,-319,837,1091,70,53,867
792698,4322600,4484744,4323872,4487712,1665,1634,-2510,6750,360,-434,208,1228,73,53,867
793699,4322988,4484972,4324069,4487909,1157,1871,-2771,6049,468,-771,-344,1410,73,53,867
794701,4323320,4485228,4324266,4488106,1447,1670,-3008,5367,570,-767,-388,1493,57,57,870
795702,4323640,4485436,4324463,4488303,1468,1966,-3182,4531,612,-346,-356,950,57,57,870
796702,4324008,4485696,4324660,4488500,1093,1614,-3295,3500,647,-103,-507,823,64,44,871
797703,4324328,4485984,4324857,4488697,1340,1400,-3380,2569,701,39,-685,1503,64,44,871
798704,4324680,4486232,4325054,4488894,1072,1628,-3447,1859,768,157,-958,2082,77,63,869
799705,4325000,4486512,4325251,4489091,1218,1392,-3482,1200,815,185,-766,2246,77,63,869
800706,4325352,4486732,4325448,4489288,950,1758,-3468,491,827,344,-275,2282,55,47,874
801707,4325672,4486948,4325645,4489485,1096,1774,-3420,-242,774,561,177,2557,55,47,874
802708,4325972,4487224,4325842,4489682,1175,1366,-3349,-850,664,632,425,2881,67,46,875
803709,4326268,4487468,4326039,4489879,1157,1545,-3252,-1364,521,481,520,3242,67,46,875
804710,4326532,4487728,4326236,4490076,1327,1417,-3171,-1700,376,375,398,4046,47,60,873
805711,4326768,4487968,4326433,4490273,1485,1524,-3114,-1729,255,178,221,4898,47,60,873
806712,4327088,4488168,4326630,4490470,906,1773,-3085,-1495,173,71,26,5637,54,57,874
807713,4327316,4488440,4326827,4490667,1467,1291,-3077,-1180,107,106,170,6162,54,57,874
808714,4327588,4488660,4327024,4490864,1159,1606,-3071,-781,44,131,503,6416,44,50,871
809715,4327840,4488896,4327221,4491061,1259,1490,-3045,-328,-35,31,847,6656,44,50,871
810716,4328076,4489104,4327418,4491258,1342,1660,-3004,126,-149,-131,1225,6612,44,36,873
811718,4328356,4489300,4327615,4491455,1031,1736,-2943,479,-293,-320,1462,6406,44,36,873
812718,4328620,4489476,4327812,4491652,1101,1871,-2857,761,-429,-405,1456,6184,53,39,873
813720,4328840,4489616,4328009,4491849,1366,2121,-2760,988,-539,-457,1274,6124,53,39,873
814720,4329128,4489768,4328206,4492046,901,2067,-2637,1107,-625,-651,933,5845,60,38,873
815722,4329404,4489980,4328403,4492243,941,1685,-2497,1156,-703,-766,570,5632,60,38,873
816722,4329692,4490232,4328600,4492440,826,1412,-2321,1145,-757,-821,-42,5354,63,49,870
817724,4329980,4490420,4328797,4492637,786,1816,-2111,1026,-762,-1044,-940,4963,63,49,870
818725,4330288,4490592,4328994,4492834,612,1927,-1865,772,-719,-1362,-2162,4693,44,50,873
819725,4330572,4490796,4329191,4493031,724,1725,-1605,371,-638,-1612,-3262,4228,44,50,873
820726,4330852,4490980,4329388,4493228,711,1855,-1312,-145,-540,-1706,-3829,3686,46,42,872
821727,4331156,4491192,4329585,4493425,514,1675,-976,-775,-455,-1751,-4267,3328,46,42,872
822728,4331440,4491428,4329782,4493622,601,1508,-640,-1467,-372,-1889,-4724,3273,61,46,874
823729,4331684,4491652,4329979,4493819,829,1571,-318,-2109,-280,-1970,-4905,3271,61,46,874
824730,4331948,4491872,4330176,4494016,675,1587,-41,-2696,-200,-2006,-4549,3329,52,37,875
825731,4332256,4492060,4330373,4494213,351,1791,196,-3170,-137,-2028,-4098,3641,63,33,875
826732,4332356,4492260,4330570,4494410,1693,1715,376,-3621,-82,-2095,-3607,3922,63,33,875
827734,4332664,4492436,4330767,4494607,344,1875,523,-3921,-26,-2204,-3060,4272,57,34,875
828734,4332940,4492616,4330964,4494804,509,1858,631,-4127,43,-2423,-2609,4516,57,34,875
829736,4333156,4492872,4331161,4495001,875,1357,731,-4343,113,-2388,-2028,4331,55,46,873
830736,4333372,4493092,4331358,4495198,866,1572,804,-4703,137,-1957,-1454,3914,55,46,873
831737,4333556,4493320,4331555,4495395,1071,1509,822,-5013,120,-1386,-1123,4227,49,33,875
832738,4333740,4493528,4331752,4495592,1077,1630,786,-5348,103,-444,-641,3996,49,33,875
833739,4333916,4493744,4331949,4495789,1136,1572,702,-5674,89,591,-392,4098,29,32,874
834740,4334100,4493948,4332146,4495986,1091,1644,601,-5961,95,1000,-596,4162,29,32,874
835741,4334252,4494156,4332343,4496183,1311,1614,485,-6229,154,1051,-1240,4162,42,38,873
836742,4334396,4494368,4332540,4496380,1384,1584,374,-6386,241,1237,-2086,4364,42,38,873
837743,4334552,4494556,4332737,4496577,1326,1738,293,-6593,326,1521,-2626,4241,37,30,872
838744,4334676,4494772,4332934,4496774,1558,1554,221,-6617,411,2303,-2909,4971,37,30,872
839745,4334808,4494924,4333131,4496971,1537,1975,-258,-5833,627,2946,-4044,7851,29,43,871
840746,4334936,4495072,4333328,4497168,1591,2022,-486,-5485,693,2960,-2654,4454,29,43,871
841754,4335052,4495236,4333558,4497398,1716,1952,-472,-5327,549,3056,-2425,5662,17,32,868
842748,4335212,4495396,4333755,4497595,1457,1993,-145,-4534,505,3054,-4602,10022,17,32,868
843749,4335332,4495528,4333952,4497792,1740,2196,1344,-341,748,3671,-6992,32767,20,23,868
844750,4335520,4495644,4334149,4497989,1319,2333,2891,2807,940,3363,-3676,14102,20,23,868
845751,4335668,4495760,4334346,4498186,1591,2369,2893,3251,996,3290,-2321,5305,37,24,867
846752,4335836,4495876,4334543,4498383,1478,2405,2385,2561,996,3490,-2030,3595,37,24,867
847753,4336024,4495976,4334740,4498580,1356,2548,1924,1681,988,3606,-1282,3294,45,18,866
848754,4336192,4496108,4334937,4498777,1494,2377,1853,1457,1022,3259,-748,3671,45,18,866
849755,4336376,4496248,4335134,4498974,1400,2352,1862,1312,1114,3001,-395,3877,44,36,866
850756,4336564,4496412,4335331,4499171,1379,2218,1877,1365,1179,2509,-16,4049,44,36,866
851757,4336740,4496576,4335528,4499368,1462,2232,1870,1270,1269,1731,168,3665,47,29,866
852758,4336908,4496736,4335725,4499565,1525,2275,1852,1109,1377,1287,272,3454,47,29,866
853759,4337136,4496908,4335922,4499762,1136,2211,1833,1073,1484,1148,522,3714,28,33,868
854760,4337340,4497108,4336119,4499959,1283,2035,1830,1148,1577,616,1067,3891,28,33,868
855761,4337524,4497308,4336316,4500156,1413,2034,1850,1445,1594,202,1572,4079,43,46,869
856762,4337724,4497488,4336513,4500353,1311,2168,1866,1844,1520,-245,1715,4525,43,46,869
857763,4337904,4497700,4336710,4500550,1444,1962,1916,2482,1447,-845,1698,4926,47,45,870
858764,4338100,4497900,4336907,4500747,1344,2036,1971,3209,1449,-1135,1340,5125,47,45,870
859765,4338292,4498088,4337104,4500944,1371,2116,2032,3900,1524,-1584,612,4883,32,51,870
860766,4338520,4498244,4337301,4501141,1132,2334,2065,4537,1676,-2025,-87,4908,32,51,870
861767,4338720,4498428,4337498,4501338,1305,2165,2116,5035,1746,-2376,22,4062,52,47,867
862768,4338900,4498584,4337695,4501535,1438,2358,2203,5090,1513,-2604,170,2718,52,47,867
863769,4339104,4498756,4337892,4501732,1285,2270,2371,4924,1176,-2287,-120,2151,28,39,868
864770,4339276,4498912,4338089,4501929,1495,2388,2530,4652,901,-1733,3,2019,28,39,868
865771,4339444,4499104,4338286,4502126,1533,2167,2636,4334,722,-939,548,1879,32,30,869
866772,4339612,4499260,4338483,4502323,1545,2411,2669,3982,645,-170,724,1794,32,30,869
867773,4339792,4499444,4338680,4502520,1478,2241,2658,3512,670,657,726,1296,47,34,868
868774,4339940,4499616,4338877,4502717,1698,2328,2601,2794,704,1408,1209,809,47,34,868
869775,4340132,4499812,4339074,4502914,1426,2179,2474,1849,614,1804,2217,266,37,42,868
870776,4340280,4500004,4339271,4503111,1722,2207,2336,665,418,2314,2897,-453,37,42,868
871777,4340416,4500200,4339468,4503308,1824,2183,2205,-619,163,2740,3177,-707,37,41,868
872778,4340560,4500368,4339665,4503505,1797,2371,2051,-1816,-142,2768,3242,-231,37,41,868
873779,4340676,4500572,4339862,4503702,2008,2144,1798,-2673,-442,2924,3148,823,33,47,866
874780,4340804,4500732,4340059,4503899,1962,2435,1441,-3079,-677,2997,2978,1937,33,47,866
875781,4340928,4500904,4340256,4504096,2019,2372,994,-3153,-791,2999,2527,3103,26,46,866
876782,4341040,4501100,4340453,4504293,2132,2224,481,-2918,-774,3044,2131,4035,26,46,866
877784,4341160,4501284,4340650,4504490,2115,2304,-46,-2591,-681,2974,2070,4419,36,30,864
878784,4341272,4501464,4340847,4504687,2203,2338,-551,-2154,-648,2806,2255,4776,36,30,864
879785,4341360,4501676,4341044,4504884,2401,2131,-1051,-1660,-752,2548,2190,5063,22,45,865
880786,4341492,4501880,4341241,4505081,2154,2179,-1542,-1014,-880,2378,1597,5531,22,45,865
881787,4341680,4502064,4341438,4505278,1808,2311,-2024,-320,-957,2276,1242,5679,45,42,864
882789,4341816,4502228,4341635,4505475,2160,2450,-2446,323,-977,2058,875,5403,45,42,864
883789,4341932,4502408,4341832,4505672,2321,2359,-2777,791,-961,1926,408,5085,22,42,864
884791,4342080,4502560,4342029,4505869,2142,2554,-3005,1108,-940,1792,217,4437,22,42,864
885791,4342212,4502752,4342226,4506066,2271,2307,-3153,1216,-881,1665,170,3739,22,45,862
886792,4342328,4502944,4342423,4506263,2406,2310,-3225,1126,-781,1556,159,3166,22,45,862
887793,4342468,4503128,4342620,4506460,2281,2366,-3226,912,-652,1429,38,3044,29,35,864
888794,4342596,4503312,4342817,4506657,2387,2372,-3141,731,-520,1142,11,3011,29,35,864
889795,4342728,4503500,4343014,4506854,2390,2352,-2969,529,-406,737,86,2952,19,43,863
890796,4342832,4503692,4343211,4507051,2606,2330,-2717,360,-305,257,-28,3053,19,43,863
891797,4342952,4503872,4343408,4507248,2540,2413,-2403,206,-211,-341,-83,3084,38,44,862
892798,4343064,4504080,4343605,4507445,2627,2234,-2067,100,-110,-933,-109,3212,38,44,862
893799,4343172,4504300,4343802,4507642,2691,2149,-1728,36,4,-1479,21,3329,27,35,861
894800,4343328,4504500,4343999,4507839,2409,2274,-1374,35,126,-1952,162,3699,27,35,861
895801,4343440,4504692,4344196,4508036,2722,2326,-1013,234,257,-2274,299,4309,38,54,860
896802,4343544,4504904,4344393,4508233,2813,2195,-669,620,389,-2611,500,4841,38,54,860
897803,4343664,4505136,4344590,4508430,2747,2056,-357,1172,509,-2976,521,5163,17,41,861
898804,4343784,4505396,4344787,4508627,2781,1853,-58,1769,624,-3331,135,5273,17,41,861
899805,4343912,4505644,4344984,4508824,2762,1907,227,2357,746,-3625,-551,5263,21,39,862
900806,4344044,4505868,4345181,4509021,2765,2046,474,2877,850,-3863,-1085,5268,21,39,862
901807,4344184,4506068,4345378,4509218,2740,2195,672,3386,920,-3901,-1483,5263,39,40,863
902808,4344308,4506320,4345575,4509415,2873,1847,839,3836,996,-3773,-2130,4858,39,40,863
903809,4344448,4506600,4345772,4509612,2798,1635,985,4179,1106,-3542,-2808,4592,40,59,861
904810,4344576,4506844,4345969,4509809,2904,1840,1091,4426,1239,-3208,-3417,4465,40,59,861
905811,4344704,4507100,4346166,4510006,2934,1740,1165,4657,1396,-2755,-3818,4316,35,44,862
906812,4344824,4507376,4346363,4510203,3019,1581,1208,4814,1562,-2358,-4058,3848,35,44,862
907813,4344968,4507532,4346560,4510400,2892,2350,1223,4642,1701,-1831,-3780,2970,32,49,861
908814,4345100,4507668,4346757,4510597,2996,2502,1198,4228,1789,-1133,-2936,2425,32,49,861
909815,4345244,4507780,4346954,4510794,2944,2690,1136,3620,1850,-542,-2222,1889,23,30,860
910816,4345388,4507908,4347151,4510991,2968,2620,1029,2936,1878,85,-1719,1867,23,30,860
911817,4345536,4508064,4347348,4511188,2965,2464,877,2327,1888,475,-1236,2122,32,25,857
912818,4345660,4508248,4347545,4511385,3147,2295,695,1749,1864,915,-809,2070,32,25,857
913819,4345828,4508448,4347742,4511582,2886,2195,492,1172,1784,1453,-411,2245,40,51,858
914820,4345968,4508740,4347939,4511779,3086,1579,288,648,1676,1693,-232,2398,40,51,858
915821,4346088,4509036,4348136,4511976,3246,1510,90,200,1531,1733,-279,2659,26,70,860
916822,4346232,4509264,4348333,4512173,3119,1923,-124,-80,1333,1766,-686,3249,26,70,860
917823,4346352,4509608,4348530,4512370,3303,1133,-347,-262,1079,1763,-969,3718,28,60,860
918824,4346496,4509916,4348727,4512567,3177,1310,-577,-277,763,1712,-947,4181,28,60,860
919825,4346616,4510240,4348924,4512764,3361,1155,-784,-148,388,1636,-1158,4635,18,63,861
920826,4346728,4510504,4349121,4512961,3449,1501,-946,177,27,1489,-1567,5142,18,63,861
921827,4346844,4510788,4349318,4513158,3460,1338,-1047,578,-289,1431,-1735,5430,33,69,860
922828,4346968,4511100,4349515,4513355,3443,1113,-1122,1033,-622,1364,-1257,5603,33,69,860
923829,4347096,4511384,4349712,4513552,3448,1250,-1177,1516,-1001,1159,-645,5706,29,70,860
924839,4347212,4511656,4349942,4513782,3574,1308,-1202,1933,-1395,1063,-214,5375,29,70,860
925844,4347296,4512020,4350139,4513979,3800,659,-1196,2235,-1742,1042,20,5156,30,74,860
926832,4347428,4512356,4350336,4514176,3553,773,-1137,2451,-2035,855,346,4848,30,74,860
927833,4347548,4512656,4350533,4514373,3662,954,-1028,2577,-2269,641,523,4649,39,67,858
928834,4347692,4512932,4350730,4514570,3537,1069,-887,2614,-2428,520,579,4447,39,67,858
929836,4347832,4513252,4350927,4514767,3587,740,-735,2608,-2514,328,853,4304,42,68,859
930836,4347972,4513628,4351124,4514964,3613,313,-589,2498,-2565,217,1297,3919,42,68,859
931837,4348120,4513960,4351321,4515161,3584,528,-429,2260,-2612,64,1691,3520,25,66,861
932838,4348264,4514188,4351518,4515358,3633,1165,-260,1993,-2646,-133,1860,3461,25,66,861
933839,4348400,4514468,4351715,4515555,3711,803,-114,1730,-2650,-348,1828,3585,20,59,862
934853,4348496,4514768,4351912,4515752,3800,634,-19,1632,-2579,-463,1687,4250,20,59,862
935854,4348616,4515000,4352109,4515949,3800,1044,38,1718,-2433,-760,1400,4632,37,52,859
936855,4348712,4515256,4352306,4516146,3800,868,92,1838,-2278,-1221,1077,4672,37,52,859
937856,4348776,4515472,4352503,4516343,3800,1109,142,1990,-2162,-1640,901,4763,28,50,858
938857,4348844,4515644,4352700,4516540,3800,1395,180,2158,-2053,-2043,739,4909,28,50,858
939858,4348908,4515804,4352897,4516737,3800,1487,193,2419,-1946,-2345,646,5237,8,46,857
940859,4348964,4515980,4353094,4516934,3800,1397,162,2779,-1836,-2611,671,5579,8,46,857
941860,4349000,4516204,4353291,4517131,3800,1085,110,3131,-1712,-2788,887,5538,10,45,855
942861,4349020,4516384,4353488,4517328,3800,1367,56,3410,-1591,-2741,1176,5269,10,45,855
943862,4349048,4516568,4353685,4517525,3800,1348,6,3564,-1472,-2767,1257,4833,-1,28,856
944863,4349056,4516728,4353882,4517722,3800,1514,-33,3546,-1328,-2828,1051,4394,-1,28,856
945864,4349088,4516896,4354079,4517919,3800,1477,-60,3339,-1156,-2684,845,3923,13,30,855
946865,4349104,4517060,4354276,4518116,3800,1518,-72,2980,-979,-2523,731,3479,13,30,855
947866,4349120,4517252,4354473,4518313,3800,1345,-97,2538,-801,-2282,666,3430,13,34,855
948867,4349160,4517412,4354670,4518510,3800,1561,-155,2078,-626,-1944,595,3363,13,34,855
949868,4349196,4517608,4354867,4518707,3800,1336,-265,1652,-455,-1601,506,3580,-1,34,854
950869,4349236,4517808,4355064,4518904,3800,1310,-424,1328,-295,-1305,410,3905,-1,34,854
951870,4349272,4517988,4355261,4519101,3800,1444,-596,991,-137,-1048,232,3983,2,33,854
952871,4349308,4518192,4355458,4519298,3800,1291,-770,666,13,-838,51,4093,2,33,854
953872,4349348,4518336,4355655,4519495,3800,1689,-937,275,132,-675,-77,4067,19,45,855
954873,4349356,4518480,4355852,4519692,3800,1712,-1084,-146,188,-461,-89,4110,19,45,855
955874,4349368,4518644,4356049,4519889,3800,1603,-1133,-563,180,-150,-197,5171,11,32,854
956875,4349384,4518836,4356246,4520086,3800,1430,-796,-844,92,684,-511,9163,11,32,854
957876,4349400,4519040,4356443,4520283,3800,1352,-220,-918,-15,1059,-996,10633,15,37,854
958877,4349424,4519256,4356640,4520480,3800,1268,-3,-922,-39,694,-1087,7165,15,37,854
959878,4349444,4519428,4356837,4520677,3800,1554,-210,-881,10,552,-941,5984,7,36,855
960879,4349476,4519596,4357034,4520874,3800,1593,-537,-811,42,639,-908,5627,7,36,855
961880,4349524,4519748,4357231,4521071,3800,1713,-788,-875,1,692,-887,5197,19,30,854
962881,4349572,4519912,4357428,4521268,3800,1652,-945,-1053,-118,686,-792,4811,19,30,854
963882,4349636,4520116,4357625,4521465,3800,1399,-1061,-1294,-280,734,-730,4445,24,31,854
964883,4349704,4520260,4357822,4521662,3800,1799,-1175,-1581,-431,814,-862,4439,24,31,854
965884,4349776,4520420,4358019,4521859,3800,1715,-1288,-1842,-544,876,-1108,4541,18,28,855
966885,4349848,4520560,4358216,4522056,3800,1865,-1362,-2049,-620,962,-1402,4548,18,28,855
967886,4349932,4520672,4358413,4522253,3800,2078,-1378,-2263,-663,964,-1672,4421,13,29,854
968887,4350028,4520804,4358610,4522450,3800,1982,-1329,-2529,-698,931,-1754,4266,13,29,854
969888,4350128,4520892,4358807,4522647,3800,2305,-1219,-2809,-746,893,-1689,4005,30,35,853
970889,4350224,4520992,4359004,4522844,3800,2272,-1062,-3158,-823,838,-1557,3730,30,35,853
971890,4350308,4521084,4359201,4523041,3800,2370,-878,-3508,-911,756,-1574,3748,19,18,850
972891,4350380,4521176,4359398,4523238,3800,2416,-686,-3755,-960,721,-1782,4178,19,18,850
973892,4350448,4521260,4359595,4523435,3800,2516,-474,-3812,-945,598,-1984,4521,5,25,850
974893,4350520,4521388,4359792,4523632,3800,2272,-224,-3762,-909,361,-1993,4666,5,25,850
975894,4350560,4521500,4359989,4523829,3800,2409,60,-3609,-874,152,-1931,4790,24,26,849
976895,4350648,4521588,4360186,4524026,3800,2608,365,-3445,-846,14,-1808,4848,24,26,849
977896,4350708,4521692,4360383,4524223,3800,2549,673,-3176,-831,-105,-1590,5093,26,18,850
978897,4350776,4521804,4360580,4524420,3800,2537,975,-2850,-817,-180,-1386,5212,26,18,850
979898,4350864,4521900,4360777,4524617,3800,2681,1272,-2441,-796,-158,-1154,5283,20,17,849
980899,4350924,4521988,4360974,4524814,3800,2780,1550,-1966,-757,-98,-856,5321,20,17,849
981900,4351016,4522084,4361171,4525011,3800,2775,1804,-1514,-690,-22,-641,5184,30,25,849
982901,4351096,4522184,4361368,4525208,3800,2793,2019,-1076,-600,116,-436,5032,30,25,849
983902,4351172,4522288,4361565,4525405,3800,2810,2209,-677,-501,164,-174,4764,29,32,847
984903,4351252,4522420,4361762,4525602,3800,2664,2377,-298,-395,216,64,4562,29,32,847
985904,4351348,4522528,4361959,4525799,3800,2854,2522,7,-284,248,208,4345,21,35,847
986905,4351416,4522636,4362156,4525996,3800,2893,2639,294,-164,257,261,4180,21,35,847
987906,4351476,4522752,4362353,4526193,3800,2880,2710,594,-55,368,470,4219,22,37,847
988907,4351532,4522872,4362550,4526390,3800,2889,2753,870,40,522,518,3905,22,37,847
989908,4351600,4523000,4362747,4526587,3800,2870,2782,1040,137,670,395,3550,24,37,846
990909,4351672,4523132,4362944,4526784,3800,2874,2776,1219,241,723,220,3616,24,37,846
991910,4351728,4523260,4363141,4526981,3800,2931,2715,1375,323,757,103,3656,8,22,847
992911,4351808,4523392,4363338,4527178,3800,2934,2612,1559,356,719,-33,3522,8,22,847
993912,4351868,4523520,4363535,4527375,3800,2991,2494,1671,337,601,-194,3136,28,35,844
994913,4351940,4523652,4363732,4527572,3800,2995,2367,1692,284,628,-256,2884,28,35,844
995914,4352040,4523784,4363929,4527769,3800,3025,2212,1674,207,712,-286,2814,23,35,846
996915,4352104,4523948,4364126,4527966,3800,2839,2019,1649,117,767,-456,2809,23,35,846
997916,4352184,4524120,4364323,4528163,3800,2801,1804,1598,42,847,-791,2624,30,37,847
998917,4352252,4524288,4364520,4528360,3800,2840,1579,1485,-15,923,-1001,2396,30,37,847
999918,4352328,4524428,4364717,4528557,3800,3041,1360,1321,-82,1034,-1036,2211,17,43,847
1000919,4352400,4524604,4364914,4528754,3800,2825,1145,1082,-152,1173,-1008,2058,17,43,847
1001920,4352456,4524776,4365111,4528951,3800,2862,942,833,-221,1233,-941,1905,26,43,847
1002921,4352504,4524936,4365308,4529148,3800,2954,743,561,-288,1288,-815,1920,26,43,847
1003922,4352560,4525120,4365505,4529345,3800,2811,549,321,-338,1295,-689,2034,24,39,847
1004923,4352624,4525304,4365702,4529542,3800,2818,361,78,-392,1234,-502,2126,24,39,847
1005924,4352684,4525488,4365899,4529739,3800,2824,182,-117,-462,1208,-295,2114,21,48,844
1006925,4352724,4525668,4366096,4529936,3800,2857,12,-312,-534,1227,-9,2241,21,48,844
1007933,4352744,4525836,4366326,4530166,3800,2960,-167,-383,-614,1137,287,2602,15,44,847
1008927,4352780,4526008,4366523,4530363,3800,2947,-351,-384,-706,992,515,2848,15,44,847
1009928,4352804,4526164,4366720,4530560,3800,3066,-530,-315,-803,881,684,3073,16,45,846
1010929,4352828,4526336,4366917,4530757,3800,2978,-706,-204,-891,747,807,3292,16,45,846
1011930,4352864,4526508,4367114,4530954,3800,2989,-880,-59,-969,607,869,3395,21,51,846
1012931,4352896,4526712,4367311,4531151,3800,2787,-1053,77,-1032,443,808,3488,21,51,846
1013932,4352936,4526908,4367508,4531348,3800,2839,-1212,239,-1068,263,639,3495,20,49,846
1014933,4352984,4527088,4367705,4531545,3800,2947,-1351,380,-1072,72,453,3501,20,49,846
1015934,4353036,4527300,4367902,4531742,3800,2742,-1462,487,-1052,-111,359,3457,4,39,847
1016935,4353080,4527492,4368099,4531939,3800,2870,-1548,559,-1004,-277,206,3415,4,39,847
1017936,4353112,4527688,4368296,4532136,3800,2845,-1615,558,-929,-382,64,3324,14,38,846
1018937,4353180,4527908,4368493,4532333,3800,2686,-1664,513,-821,-465,-102,3208,14,38,846
1019938,4353228,4528092,4368690,4532530,3800,2918,-1701,402,-688,-539,-228,3097,25,34,847
1020939,4353296,4528292,4368887,4532727,3800,2817,-1722,256,-538,-558,-284,3010,25,34,847
1021940,4353388,4528464,4369084,4532924,3800,3004,-1727,45,-364,-601,-401,2980,30,48,847
1022941,4353456,4528636,4369281,4533121,3800,3016,-1739,-152,-166,-670,-540,3069,30,48,847
1023942,4353548,4528832,4369478,4533318,3800,2868,-1746,-386,44,-784,-582,3038,17,35,847
1024943,4353636,4529004,4369675,4533515,3800,3029,-1743,-635,250,-927,-647,3031,17,35,847
1025944,4353736,4529192,4369872,4533712,3800,2934,-1726,-895,448,-1007,-671,3150,22,45,847
1026945,4353836,4529368,4370069,4533909,3800,3019,-1705,-1100,647,-1058,-761,3259,22,45,847
1027946,4353924,4529556,4370266,4534106,3800,2949,-1694,-1278,846,-1133,-784,3529,10,34,846
1028947,4353996,4529708,4370463,4534303,3800,3195,-1698,-1386,1040,-1165,-775,3794,10,34,846
1029948,4354088,4529880,4370660,4534500,3800,3082,-1720,-1475,1224,-1145,-691,4002,32,41,846
1030949,4354160,4530024,4370857,4534697,3800,3281,-1736,-1525,1391,-1097,-565,4110,32,41,846
1031950,4354236,4530204,4371054,4534894,3800,3065,-1739,-1633,1523,-1044,-392,4092,26,45,846
1032951,4354300,4530352,4371251,4535091,3800,3286,-1735,-1725,1629,-953,-441,4257,26,45,846
1033952,4354400,4530528,4371448,4535288,3800,3121,-1726,-1829,1719,-843,-355,4258,29,46,845
1034953,4354476,4530680,4371645,4535485,3800,3292,-1702,-1921,1784,-671,-169,4354,29,46,845
1035954,4354540,4530824,4371842,4535682,3800,3366,-1679,-2010,1793,-528,191,4606,27,25,845
1036955,4354604,4530976,4372039,4535879,3800,3337,-1678,-2030,1704,-334,855,4982,27,25,845
1037956,4354668,4531108,4372236,4536076,3800,3492,-1663,-2030,1559,-10,1126,5047,21,33,843
1038957,4354768,4531228,4372433,4536273,3800,3602,-1333,-1803,1397,803,1282,8165,21,33,843
1039958,4354840,4531368,4372630,4536470,3800,3503,158,-19,1080,3269,1884,25597,7,35,842
1040959,4354908,4531476,4372827,4536667,3800,3743,1773,1741,719,2430,1743,16712,7,35,842
1041960,4355000,4531592,4373024,4536864,3800,3729,2251,1900,508,781,1491,4306,21,37,842
1042974,4355100,4531700,4373221,4537061,3800,3800,1976,995,410,867,1723,3106,21,37,842
1043975,4355192,4531816,4373418,4537258,3800,3800,1644,124,342,1010,1793,3233,18,19,841
1044963,4355284,4531956,4373615,4537455,3800,3682,1442,-365,240,761,2018,3546,18,19,841
1045977,4355376,4532060,4373812,4537652,3800,3800,1310,-613,94,575,2021,3606,32,30,838
1046978,4355480,4532176,4374009,4537849,3800,3800,1177,-887,-73,442,1900,3514,32,30,838
1047978,4355588,4532288,4374206,4538046,3800,3800,1026,-1244,-234,169,1916,3370,24,31,841
1048980,4355696,4532416,4374403,4538243,3800,3800,889,-1642,-372,-102,1665,3429,24,31,841
1049981,4355796,4532536,4374600,4538440,3800,3800,762,-1963,-487,-294,1174,3490,19,38,839
1050982,4355948,4532684,4374797,4538637,3800,3800,655,-2165,-552,-591,846,3762,19,38,839
1051983,4356076,4532808,4374994,4538834,3800,3800,569,-2180,-579,-895,635,3994,33,33,838
1052984,4356236,4532932,4375191,4539031,3800,3800,511,-2164,-596,-1168,422,3984,33,33,838
1053985,4356396,4533048,4375388,4539228,3800,3800,478,-2100,-578,-1375,296,4187,29,36,841
1054986,4356568,4533184,4375585,4539425,3800,3800,461,-1992,-509,-1510,245,4179,29,36,841
1055987,4356728,4533304,4375782,4539622,3800,3800,469,-1923,-411,-1620,251,4007,39,25,841
1056988,4356892,4533456,4375979,4539819,3800,3800,509,-1843,-289,-1698,281,3978,39,25,841
1057989,4357036,4533568,4376176,4540016,3800,3800,563,-1708,-143,-1632,347,4096,25,27,840
1058990,4357220,4533684,4376373,4540213,3800,3800,631,-1534,7,-1522,506,3988,25,27,840
1059991,4357356,4533800,4376570,4540410,3800,3800,715,-1359,142,-1554,759,4057,42,20,841
1060992,4357504,4533904,4376767,4540607,3800,3800,798,-1128,249,-1464,998,4178,42,20,841
1061993,4357668,4534036,4376964,4540804,3800,3800,870,-929,341,-1145,1283,4105,25,34,840
1062994,4357816,4534184,4377161,4541001,3800,3800,935,-687,429,-888,1514,4109,25,34,840
1063994,4357968,4534320,4377358,4541198,3800,3800,1003,-498,504,-711,1628,3900,39,27,841
1064995,4358132,4534488,4377555,4541395,3800,3800,1052,-332,562,-459,1650,3725,39,27,841
1065997,4358292,4534668,4377752,4541592,3800,3800,1087,-232,612,-339,1566,3554,45,43,842
1066997,4358448,4534880,4377949,4541789,3800,3800,1113,-150,639,-345,1469,3426,45,43,842
1067986,4358620,4535128,4378146,4541986,3800,3632,1160,-210,590,-456,1338,2965,26,54,840
1068999,4358780,4535328,4378343,4542183,3800,3800,1230,-381,425,-590,1438,2584,26,54,840
1070001,4358964,4535544,4378540,4542380,3800,3800,1237,-499,231,-347,1344,2905,34,39,841
1071001,4359140,4535744,4378737,4542577,3800,3800,1129,-456,147,80,1051,3280,34,39,841
1071990,4359292,4535972,4378934,4542774,3800,3738,993,-427,144,283,1160,2810,33,41,841
1072990,4359480,4536224,4379131,4542971,3800,3564,922,-617,104,298,1302,2166,33,41,841
1073992,4359668,4536448,4379328,4543168,3800,3729,864,-899,6,387,1045,2305,36,51,841
1075006,4359868,4536656,4379525,4543365,3800,3800,760,-1154,-70,487,645,2350,36,51,841
1075994,4360064,4536884,4379722,4543562,3800,3688,655,-1468,-134,455,528,1859,57,48,843
1076995,4360276,4537136,4379919,4543759,3800,3515,589,-1852,-208,432,223,1786,57,48,843
1077996,4360532,4537392,4380116,4543956,3800,3465,494,-2073,-224,415,-353,2353,43,61,843
1078997,4360792,4537712,4380313,4544153,3800,3013,346,-2140,-152,435,-762,2687,43,61,843
1079998,4361036,4538048,4380510,4544350,3800,2853,176,-2172,-69,468,-503,2568,50,72,845
1080999,4361292,4538392,4380707,4544547,3800,2739,40,-2239,-3,521,-226,2656,50,72,845
1082000,4361572,4538720,4380904,4544744,3800,2783,-131,-2182,29,603,103,3229,58,67,849
1083001,4361876,4539096,4381101,4544941,3800,2405,-328,-2063,23,370,305,3186,58,67,849
1084002,4362216,4539504,4381298,4545138,3800,2114,-503,-1830,-13,-18,526,3338,54,85,850
1085003,4362532,4539816,4381495,4545335,3800,2665,-680,-1569,-56,-12,894,3552,54,85,850
1086004,4362892,4540192,4381692,4545532,3800,2187,-840,-1360,-100,40,1464,3350,75,70,854
1087005,4363252,4540540,4381889,4545729,3800,2297,-960,-1210,-162,-249,1827,3163,75,70,854
1088006,4363628,4540884,4382086,4545926,3800,2258,-1045,-1127,-216,-228,1817,2874,76,67,852
1089007,4364004,4541236,4382283,4546123,3800,2141,-1124,-1186,-228,12,1759,2574,76,67,852
1090008,4364436,4541588,4382480,4546320,3800,2074,-1194,-1449,-98,-181,624,2538,70,72,854
1091016,4364820,4541964,4382710,4546550,3800,1860,-1209,-1485,32,-228,8,2581,70,72,854
1092010,4365244,4542300,4382907,4546747,3800,2050,-1187,-1565,185,-397,-203,2573,82,74,856
1093011,4365724,4542580,4383104,4546944,3800,2364,-1112,-1684,335,-319,-276,2518,82,74,856
1094012,4366172,4542924,4383301,4547141,3800,1901,-995,-1798,476,-196,-363,2354,93,69,857
1095013,4366636,4543284,4383498,4547338,3800,1730,-829,-1954,578,-345,-261,2300,93,69,857
1096014,4367156,4543596,4383695,4547535,3800,1981,-639,-2104,627,-410,-328,2445,89,80,856
1097015,4367692,4543872,4383892,4547732,3800,2171,-435,-2167,683,-244,-517,2743,89,80,856
1098016,4368232,4544160,4384089,4547929,3800,2057,-224,-2135,763,-245,-402,2969,95,65,859
1099017,4368772,4544500,4384286,4548126,3800,1670,-12,-1984,847,-284,-629,3420,95,65,859
1100018,4369388,4544816,4384483,4548323,3800,1768,170,-1725,942,-365,-684,3687,108,57,857
1101019,4369988,4545096,4384680,4548520,3800,1957,375,-1408,1055,-579,-530,3722,108,57,857
1102020,4370612,4545336,4384877,4548717,3800,2189,555,-1111,1141,-962,-505,3703,119,63,860
1103021,4371308,4545648,4385074,4548914,3800,1689,767,-803,1216,-1361,-748,3662,119,63,860
1104022,4371936,4545948,4385271,4549111,3800,1719,977,-527,1324,-1594,-894,3783,136,60,860
1105023,4372608,4546232,4385468,4549308,3800,1782,1157,-220,1477,-1662,-1023,3936,136,60,860
1106024,4373336,4546508,4385665,4549505,3800,1798,1331,26,1662,-1679,-992,3757,138,64,859
1107025,4373988,4546752,4385862,4549702,3800,1978,1522,197,1868,-1624,-964,3472,138,64,859
1108026,4374636,4546996,4386059,4549899,3800,1957,1704,231,2081,-1434,-921,3254,123,56,861
1109027,4375348,4547296,4386256,4550096,3800,1563,1892,68,2320,-1481,-1370,3068,123,56,861
1110028,4375956,4547580,4386453,4550293,3800,1625,2023,-23,2616,-1647,-2213,3568,141,56,860
1111029,4376504,4547876,4386650,4550490,3800,1507,2190,-133,2969,-2028,-3096,3241,141,56,860
1112030,4377048,4548120,4386847,4550687,3800,1812,2308,-470,3303,-1565,-3746,3021,117,69,860
1113031,4377544,4548392,4387044,4550884,3800,1605,2443,-830,3592,-515,-4159,2689,117,69,860
1114032,4377992,4548724,4387241,4551081,3800,1170,2542,-1632,3776,996,-3920,1244,104,66,860
1115033,4378464,4549012,4387438,4551278,3800,1406,2645,-2642,3861,2119,-4045,1030,104,66,860
1116034,4378888,4549308,4387635,4551475,3800,1313,2629,-3367,3938,2614,-4296,2195,98,66,858
1117035,4379276,4549656,4387832,4551672,3800,922,2524,-4137,3989,3376,-4254,1736,98,66,858
1118036,4379676,4549952,4388029,4551869,3800,1204,2364,-4684,3967,4352,-3727,2377,93,58,859
1119037,4380140,4550272,4388226,4552066,3800,1000,2152,-5062,3942,4672,-2785,2802,93,58,859
1120038,4380500,4550584,4388423,4552263,3800,1000,1934,-5602,3838,5382,-1639,2511,86,72,861
1121039,4380888,4550888,4388620,4552460,3800,1003,1674,-5800,3618,5667,-878,3541,86,72,861
1122040,4381324,4551156,4388817,4552657,3800,1197,1327,-5649,3424,5563,-35,4485,79,61,861
1123041,4381696,4551496,4389014,4552854,3800,685,910,-5448,3152,6184,1383,4395,79,61,861
1124042,4382072,4551784,4389211,4553051,3800,970,182,-4472,2607,5997,2622,7803,93,71,861
1125043,4382472,4552056,4389408,4553248,3800,1037,-693,-2838,2023,5553,2907,8778,93,71,861
1126044,4382864,4552304,4389605,4553445,3800,1165,-1268,-1737,1574,6055,2868,6178,77,55,862
1127045,4383216,4552596,4389802,4553642,3800,849,-1688,-826,1146,5393,2485,7032,77,55,862
1128033,4383636,4552888,4389999,4553839,3759,807,-2138,312,903,4552,1401,8208,82,61,860
1129047,4384000,4553188,4390196,4554036,3800,712,-2629,1812,599,4119,1678,8353,82,61,860
1130048,4384356,4553416,4390393,4554233,3800,1149,-3118,3172,50,3159,2087,7784,78,57,861
1131036,4384768,4553628,4390590,4554430,3575,1242,-3316,3945,-668,2791,3495,5584,78,57,861
1132050,4385128,4553868,4390787,4554627,3800,1049,-3237,4078,-1325,3184,2042,3834,83,42,862
1133038,4385520,4554088,4390984,4554824,3545,1164,-3081,3927,-1849,3010,470,3679,83,42,862
1134052,4385860,4554304,4391181,4555021,3800,1181,-3023,4155,-2384,2414,893,4916,80,42,861
1135040,4386208,4554492,4391378,4555218,3692,1360,-3154,4598,-2936,1500,-1026,5159,80,42,861
1136041,4386564,4554676,4391575,4555415,3574,1390,-3225,4736,-3337,1882,-2887,3485,58,31,862
1137042,4386960,4554832,4391772,4555612,3237,1583,-3372,4701,-3597,1941,-3419,4331,58,31,862
1138043,4387280,4554984,4391969,4555809,3659,1628,-3480,4830,-3834,1640,-3862,4602,83,37,859
1139045,4387668,4555148,4392166,4556006,3151,1568,-3560,4661,-4067,1237,-4681,3307,83,37,859
1140045,4388032,4555264,4392363,4556203,3229,1904,-3341,4237,-4276,733,-4845,2179,81,29,860
1141046,4388448,4555408,4392560,4556400,2809,1752,-3069,3525,-4473,469,-4508,2284,81,29,860
1142047,4388844,4555576,4392757,4556597,2846,1615,-2806,3105,-4629,443,-4534,3148,99,38,862
1143048,4389228,4555768,4392954,4556794,2840,1467,-2655,2779,-4682,236,-4432,3232,99,38,862
1144049,4389696,4555912,4393151,4556991,2197,1791,-2461,2496,-4669,354,-3967,2987,81,41,864
1145050,4389992,4556040,4393348,4557188,3228,1922,-2310,2187,-4647,263,-3476,3399,81,41,864
1146051,4390368,4556168,4393545,4557385,2651,1952,-2130,1926,-4614,-147,-3699,3524,90,21,865
1147053,4390804,4556284,4393742,4557582,2172,2063,-1935,1496,-4589,-353,-3390,2893,90,21,865
1148053,4391164,4556380,4393939,4557779,2575,2232,-1747,1004,-4587,-608,-3199,3175,66,26,860
1149054,4391512,4556504,4394136,4557976,2585,2090,-1535,693,-4552,-1003,-3065,3751,66,26,860
1150055,4391912,4556620,4394333,4558173,2170,2176,-1396,503,-4482,-1255,-3314,4412,66,38,864
1151056,4392328,4556728,4394530,4558370,1975,2265,-1189,406,-4404,-1412,-3213,4173,66,38,864
1152057,4392616,4556872,4394727,4558567,2735,2063,-1020,195,-4302,-1372,-2814,4349,80,21,862
1153058,4392984,4557004,4394924,4558764,2161,2168,-840,-10,-4208,-1198,-2517,4648,80,21,862
1154059,4393352,4557148,4395121,4558961,2086,2116,-720,-283,-4075,-1060,-2453,4544,80,33,865
1155060,4393760,4557284,4395318,4559158,1743,2193,-632,-466,-3867,-931,-2718,4811,80,33,865
1156061,4394048,4557420,4395515,4559355,2454,2221,-609,-729,-3675,-513,-1942,4630,61,23,865
1157062,4394460,4557592,4395712,4559552,1585,2007,-565,-1085,-3536,179,-862,4434,61,23,865
1158063,4394856,4557744,4395909,4559749,1597,2153,-670,-1127,-3347,1010,-893,5903,62,29,866
1159064,4395240,4557896,4396106,4559946,1590,2172,-1169,-682,-3010,1654,-1450,7346,62,29,866
1160065,4395712,4558040,4396303,4560143,919,2246,-1369,-862,-2805,2048,120,3904,67,41,868
1161066,4396108,4558180,4396500,4560340,1307,2297,-1530,-1221,-2622,2875,-71,5332,67,41,868
1162067,4396492,4558352,4396697,4560537,1301,2108,-768,-204,-2498,5093,-380,18738,80,36,866
1163068,4396896,4558540,4396894,4560734,1085,2013,619,1706,-2448,6035,-308,20791,80,36,866
1164069,4397284,4558724,4397091,4560931,1101,2043,1068,1925,-2259,4132,204,3875,60,46,867
1165070,4397608,4558884,4397288,4561128,1445,2210,501,1128,-1956,4384,-569,3929,60,46,867
1166071,4397964,4559032,4397485,4561325,1174,2307,-114,27,-1693,5037,-559,2800,78,25,869
1167072,4398348,4559204,4397682,4561522,917,2168,-438,-926,-1520,5196,-285,2988,78,25,869
1168073,4398716,4559340,4397879,4561719,942,2421,-562,-1618,-1380,5228,-231,3061,58,27,868
1169074,4399076,4559484,4398076,4561916,920,2394,-662,-2096,-1298,5393,-412,3419,58,27,868
1170075,4399388,4559652,4398273,4562113,1170,2258,-789,-2393,-1259,5212,-649,4069,53,44,870
1171076,4399680,4559808,4398470,4562310,1253,2351,-824,-2664,-1244,4575,-995,4031,53,44,870
1172077,4400000,4559972,4398667,4562507,1023,2317,-716,-2800,-1242,3853,-1633,4284,62,41,867
1173078,4400308,4560116,4398864,4562704,1049,2465,-530,-2735,-1195,3106,-2230,4848,62,41,867
1174086,4400600,4560268,4399094,4562934,1122,2450,-362,-2371,-1128,2754,-2218,5756,51,28,866
1175080,4400868,4560428,4399291,4563131,1240,2416,-217,-1757,-1135,2669,-1895,5946,51,28,866
1176081,4401152,4560608,4399488,4563328,1101,2300,-70,-1099,-1253,2359,-1439,5760,53,26,868
1177082,4401392,4560776,4399685,4563525,1357,2388,90,-344,-1451,1876,-1008,5932,53,26,868
1178083,4401628,4560916,4399882,4563722,1365,2589,239,492,-1648,1185,-1208,6227,61,37,867
1179084,4401888,4561060,4400079,4563919,1187,2587,351,1554,-1800,439,-1491,6877,61,37,867
1180085,4402124,4561220,4400276,4564116,1319,2504,422,2886,-1911,-338,-1364,7212,60,36,867
1181086,4402352,4561372,4400473,4564313,1356,2574,525,4092,-1970,-572,-999,6505,60,36,867
1182087,4402612,4561536,4400670,4564510,1127,2514,677,5121,-1967,-580,-613,5978,39,32,864
1183088,4402848,4561704,4400867,4564707,1260,2502,865,5972,-1904,-612,31,5284,39,32,864
1184089,4403064,4561880,4401064,4564904,1377,2462,1023,6580,-1819,-442,656,4289,35,41,865
1185090,4403272,4562060,4401261,4565101,1421,2445,1224,6838,-1752,-343,1155,2946,35,41,865
1186091,4403468,4562208,4401458,4565298,1496,2667,1431,6801,-1701,-511,1273,2287,36,48,867
1187092,4403680,4562360,4401655,4565495,1389,2663,1636,6650,-1654,-544,1232,1863,36,48,867
1188093,4403880,4562524,4401852,4565692,1462,2603,1814,6411,-1551,-461,1087,1325,53,43,866
1189094,4404096,4562708,4402049,4565889,1354,2484,1965,6093,-1361,-342,746,1249,53,43,866
1190095,4404292,4562864,4402246,4566086,1478,2677,2029,5835,-1096,-121,290,1404,34,41,865
1191096,4404480,4563072,4402443,4566283,1532,2349,1988,5644,-802,-194,30,1577,34,41,865
1192097,4404668,4563256,4402640,4566480,1535,2505,1850,5590,-532,-464,-3,1874,27,43,865
1193098,4404836,4563456,4402837,4566677,1673,2404,1687,5375,-311,-565,26,1323,27,43,865
1194099,4405016,4563600,4403034,4566874,1606,2778,1559,4973,-118,-439,-52,820,49,47,865
1195100,4405172,4563752,4403231,4567071,1773,2749,1454,4519,40,-721,-141,815,49,47,865
1196101,4405376,4563928,4403428,4567268,1469,2608,1370,4041,156,-1017,-254,687,26,37,865
1197102,4405524,4564108,4403625,4567465,1841,2592,1260,3643,217,-1101,-440,1067,26,37,865
1198103,4405700,4564320,4403822,4567662,1674,2385,1095,3424,292,-1145,-807,1747,45,32,863
1199104,4405864,4564508,4404019,4567859,1764,2540,850,3463,417,-1113,-1391,2552,45,32,863
1200105,4406024,4564716,4404216,4568056,1804,2411,564,3645,557,-1173,-1894,2843,22,44,864
1201106,4406164,4564900,4404413,4568253,1954,2567,265,3816,658,-1324,-2090,3113,22,44,864
1202107,4406272,4565076,4404610,4568450,2193,2627,-39,4037,691,-1220,-2314,3404,18,34,864
1203108,4406400,4565284,4404807,4568647,2097,2423,-322,4176,662,-1180,-2304,3058,18,34,864
1204109,4406512,4565488,4405004,4568844,2235,2445,-579,4193,606,-1173,-2051,3050,24,31,862
1205110,4406636,4565676,4405201,4569041,2192,2550,-789,4129,545,-1065,-1775,2812,24,31,862
1206111,4406736,4565860,4405398,4569238,2385,2582,-973,4001,513,-833,-1913,2857,19,49,861
1207112,4406844,4566068,4405595,4569435,2373,2427,-1137,3961,537,-695,-2207,3072,19,49,861
1208113,4406964,4566268,4405792,4569632,2331,2477,-1285,3840,579,-681,-2290,2944,22,46,862
1209114,4407104,4566456,4405989,4569829,2232,2556,-1418,3638,602,-573,-2402,2880,22,46,862
1210115,4407276,4566684,4406186,4570026,2042,2293,-1538,3278,623,-490,-2500,2534,39,37,862
1211116,4407400,4566864,4406383,4570223,2374,2602,-1650,2867,633,-490,-2192,2439,39,37,862
1212117,4407552,4567064,4406580,4570420,2218,2475,-1752,2366,630,-610,-1630,2398,37,30,861
1213118,4407696,4567272,4406777,4570617,2292,2421,-1835,1815,647,-617,-1264,2435,37,30,861
1214120,4407824,4567448,4406974,4570814,2422,2632,-1912,1377,713,-610,-1333,2739,29,51,860
1215120,4407952,4567680,4407171,4571011,2452,2266,-1984,980,821,-767,-1554,2874,29,51,860
1216121,4408084,4567928,4407368,4571208,2456,2145,-2016,569,934,-978,-1803,3082,24,36,861
1217122,4408212,4568136,4407565,4571405,2510,2391,-2012,158,1011,-1108,-1950,3228,24,36,861
1218123,4408312,4568356,4407762,4571602,2728,2306,-1983,-196,1054,-1106,-2121,3460,20,42,861
1219124,4408396,4568588,4407959,4571799,2877,2217,-1928,-528,1085,-1186,-2034,3566,20,42,861
1220125,4408512,4568804,4408156,4571996,2713,2308,-1876,-780,1134,-1314,-1885,3815,31,40,860
1221126,4408612,4569080,4408353,4572193,2856,1900,-1822,-994,1218,-1428,-1895,4083,31,40,860
1222127,4408700,4569296,4408550,4572390,2979,2267,-1747,-1192,1332,-1571,-1957,4010,26,40,859
1223128,4408796,4569520,4408747,4572587,2973,2205,-1660,-1464,1443,-1736,-1972,3975,26,40,859
1224129,4408884,4569756,4408944,4572784,3071,2114,-1551,-1773,1522,-1890,-1862,3976,12,38,860
1225130,4408960,4569964,4409141,4572981,3199,2284,-1425,-2082,1578,-1950,-1934,4067,12,38,860
1226131,4409048,4570208,4409338,4573178,3172,2040,-1287,-2289,1642,-1929,-2213,4274,11,49,856
1227132,4409152,4570420,4409535,4573375,3113,2234,-1134,-2485,1724,-1910,-2508,4410,11,49,856
1228133,4409248,4570644,4409732,4573572,3207,2147,-961,-2664,1815,-1825,-2511,4503,31,54,855
1229134,4409328,4570868,4409929,4573769,3359,2136,-770,-2829,1901,-1741,-2345,4600,31,54,855
1230135,4409432,4571128,4410126,4573966,3249,1884,-560,-3017,1942,-1662,-1932,4520,17,46,857
1231136,4409548,4571380,4410323,4574163,3210,1910,-346,-3237,1941,-1489,-1387,4453,17,46,857
1232137,4409676,4571584,4410520,4574360,3166,2207,-116,-3509,1933,-1194,-993,4592,30,54,855
1233138,4409788,4571832,4410717,4574557,3304,1911,492,-3412,1902,-290,-724,8976,30,54,855
1234139,4409904,4572108,4410914,4574754,3314,1701,1956,-2074,1728,1552,-306,20973,19,49,858
1235140,4410024,4572388,4411111,4574951,3323,1641,3257,-984,1562,527,-231,11100,19,49,858
1236141,4410160,4572656,4411308,4575148,3250,1685,3615,-994,1498,-445,-282,4357,29,65,857
1237143,4410280,4572968,4411505,4575345,3385,1360,3492,-1511,1442,-287,-49,3906,29,65,857
1238143,4410448,4573132,4411702,4575542,3098,2300,3365,-1956,1379,90,181,3927,31,56,857
1239145,4410612,4573268,4411899,4575739,3137,2502,3357,-2140,1326,350,231,4245,31,56,857
1240145,4410776,4573384,4412096,4575936,3152,2663,3383,-2294,1293,581,-22,4090,44,27,860
1241146,4410944,4573524,4412293,4576133,3140,2539,3369,-2265,1252,384,-323,4332,44,27,860
1242148,4411136,4573712,4412490,4576330,2993,2243,3352,-2399,1212,-4,-359,3765,32,37,854
1243148,4411328,4573936,4412687,4576527,2995,2007,3332,-2522,1168,-118,-242,3960,32,37,854
1244149,4411492,4574180,4412884,4576724,3184,1861,3294,-2432,1055,88,368,4253,53,56,856
1245150,4411676,4574468,4413081,4576921,3066,1547,3233,-2249,868,304,1344,4411,53,56,856
1246151,4411836,4574696,4413278,4577118,3232,1909,3135,-1859,693,598,1082,5172,41,60,860
1247152,4411988,4575032,4413475,4577315,3302,1174,3037,-1450,581,641,494,4866,41,60,860
1248153,4412140,4575384,4413672,4577512,3322,1006,2965,-1016,461,304,341,4986,42,61,860
1249154,4412264,4575708,4413869,4577709,3530,1125,2881,-430,312,326,223,5356,42,61,860
1250155,4412388,4575988,4414066,4577906,3562,1364,2812,83,186,570,108,4837,42,59,860
1251156,4412524,4576304,4414263,4578103,3514,1087,2785,465,79,690,268,4420,42,59,860
1252157,4412660,4576612,4414460,4578300,3542,1088,2781,774,-87,969,871,4153,42,74,859
1253171,4412752,4576916,4414657,4578497,3800,1067,2752,1081,-352,1336,1595,4177,42,74,859
1254172,4412856,4577188,4414854,4578694,3800,1234,2711,1427,-595,1569,1747,3990,21,64,859
1255160,4412972,4577524,4415051,4578891,3790,773,2699,1635,-752,1725,1707,3360,21,64,859
1256161,4413112,4577836,4415248,4579088,3665,874,2687,1759,-852,1891,2065,3277,25,72,857
1257171,4413256,4578128,4415478,4579318,3679,971,2634,1942,-946,1898,2507,3519,25,72,857
1258163,4413428,4578416,4415675,4579515,3515,956,2534,2179,-1058,2063,2694,3404,46,75,859
1259164,4413624,4578776,4415872,4579712,3365,435,2417,2418,-1120,2228,2392,3446,46,75,859
1260165,4413828,4579128,4416069,4579909,3313,417,2261,2783,-1097,2167,1805,4137,42,72,859
1261166,4414020,4579460,4416266,4580106,3391,483,2046,3359,-1062,1960,1396,4428,42,72,859
1262167,4414188,4579712,4416463,4580303,3554,959,1811,3918,-1092,1721,1321,4095,44,63,863
1263168,4414360,4579976,4416660,4580500,3540,855,1574,4331,-1171,1806,1559,3920,44,63,863
1264169,4414512,4580276,4416857,4580697,3686,585,1347,4664,-1281,2046,1576,3633,31,61,864
1265182,4414640,4580496,4417054,4580894,3800,1074,1156,4957,-1431,2023,1495,3357,31,61,864
1266184,4414752,4580724,4417251,4581091,3800,1011,1005,5064,-1647,1978,1709,2789,16,48,860
1267185,4414876,4580912,4417448,4581288,3800,1265,875,5053,-1949,2150,1931,2523,16,48,860
1268186,4415000,4581104,4417645,4581485,3800,1242,735,4962,-2254,2336,1999,2176,36,50,857
1269187,4415120,4581296,4417842,4581682,3800,1244,569,4812,-2516,2290,1897,2136,36,50,857
1270188,4415256,4581516,4418039,4581879,3800,1059,341,4715,-2739,2243,1763,2596,33,49,855
1271189,4415392,4581756,4418236,4582076,3800,915,82,4722,-2918,2088,1883,2692,33,49,855
1272190,4415524,4581948,4418433,4582273,3800,1217,-204,4794,-3098,1881,2240,2935,35,39,853
1273191,4415652,4582144,4418630,4582470,3800,1194,-518,4928,-3358,1634,2868,2865,35,39,853
1274192,4415776,4582352,4418827,4582667,3800,1114,-836,4869,-3708,1541,3415,2395,30,47,858
1275193,4415900,4582552,4419024,4582864,3800,1163,-1119,4607,-4067,1547,3374,1983,30,47,858
1276194,4415988,4582724,4419221,4583061,3800,1349,-1390,4168,-4352,1698,2682,1472,33,49,856
1277195,4416092,4582924,4419418,4583258,3800,1172,-1653,3695,-4537,1609,2466,1328,33,49,856
1278196,4416168,4583120,4419615,4583455,3800,1198,-1926,3238,-4624,1343,2222,1502,28,40,857
1279197,4416284,4583356,4419812,4583652,3800,931,-2220,2782,-4646,1224,1829,1504,28,40,857
1280198,4416392,4583560,4420009,4583849,3800,1128,-2529,2382,-4651,1010,1311,1859,34,41,856
1281199,4416496,4583768,4420206,4584046,3800,1098,-2834,2184,-4662,442,789,2386,34,41,856
1282200,4416636,4583932,4420403,4584243,3800,1387,-3132,2032,-4673,-189,245,2593,36,41,856
1283201,4416748,4584120,4420600,4584440,3800,1241,-3416,1926,-4660,-466,-543,3044,36,41,856
1284202,4416884,4584296,4420797,4584637,3800,1325,-3668,1991,-4630,-832,-1270,3388,26,34,856
1285203,4417048,4584512,4420994,4584834,3800,1067,-3864,1996,-4623,-1255,-1443,3064,26,34,856
1286204,4417232,4584748,4421191,4585031,3800,925,-4014,1779,-4649,-1537,-1354,2592,35,45,856
1287205,4417456,4584940,4421388,4585228,3800,1202,-4140,1394,-4660,-1690,-1607,2508,35,45,856
1288193,4417716,4585152,4421585,4585425,3695,1070,-4236,1023,-4588,-1725,-2203,2527,51,55,858
1289194,4418040,4585336,4421782,4585622,3240,1251,-4314,652,-4444,-2088,-2713,2740,51,55,858
1290195,4418368,4585528,4421979,4585819,3158,1204,-4358,252,-4250,-2544,-3066,2770,66,43,859
1291196,4418728,4585704,4422176,4586016,2887,1314,-4342,-107,-4050,-2650,-3634,2965,66,43,859
1292197,4419076,4585916,4422373,4586213,2896,1082,-4268,-343,-3844,-2804,-4252,3305,63,52,862
1293198,4419432,4586108,4422570,4586410,2778,1209,-4154,-618,-3634,-3019,-4397,3346,63,52,862
1294199,4419760,4586260,4422767,4586607,2895,1479,-4008,-877,-3387,-2854,-4369,3487,80,44,863
1295200,4420124,4586432,4422964,4586804,2598,1365,-3811,-1111,-3058,-2875,-4507,3849,80,44,863
1296201,4420452,4586576,4423161,4587001,2765,1563,-3570,-1258,-2693,-3190,-4702,4172,58,30,865
1297202,4420744,4586732,4423358,4587198,2949,1506,-3288,-1369,-2362,-3442,-4929,4387,58,30,865
1298203,4421080,4586864,4423555,4587395,2613,1685,-2700,-1375,-2055,-3377,-5315,6904,65,32,866
1299204,4421352,4587028,4423752,4587592,2981,1499,-224,-325,-1826,-1445,-5881,29420,65,32,866
1300205,4421584,4587180,4423949,4587789,3216,1594,3508,1596,-1663,-893,-6806,32767,58,41,863
1301206,4421856,4587320,4424146,4587986,2934,1694,5413,2386,-1379,-2664,-4787,9469,58,41,863
1302207,4422108,4587472,4424343,4588183,3035,1640,5436,2063,-1080,-2441,-2672,4349,62,26,862
1303208,4422364,4587608,4424540,4588380,2985,1767,5010,1508,-874,-1838,-1507,3946,62,26,862
1304209,4422588,4587728,4424737,4588577,3173,1901,4912,869,-745,-1827,-510,3048,54,25,861
1305210,4422796,4587848,4424934,4588774,3268,1934,5050,341,-657,-1403,-37,3094,54,25,861
1306211,4422976,4587980,4425131,4588971,3452,1888,5168,-185,-584,-913,185,2790,31,26,861
1307212,4423172,4588108,4425328,4589168,3352,1943,5168,-716,-456,-572,250,3023,31,26,861
1308213,4423376,4588252,4425525,4589365,3300,1868,5057,-1094,-288,-107,397,3304,48,39,857
1309214,4423552,4588388,4425722,4589562,3484,1944,4940,-1635,-148,317,969,2596,48,39,857
1310215,4423760,4588512,4425919,4589759,3279,2051,4812,-2106,-54,730,1519,3047,34,29,858
1311216,4423956,4588656,4426116,4589956,3356,1950,4664,-2613,13,720,1332,2667,34,29,858
1312217,4424144,4588792,4426313,4590153,3410,2027,4460,-3113,62,449,478,2870,33,36,856
1313218,4424348,4588940,4426510,4590350,3308,1974,4203,-3327,129,404,229,3353,33,36,856
1314219,4424540,4589040,4426707,4590547,3385,2317,3950,-3656,228,516,592,2807,31,35,856
1315220,4424708,4589188,4426904,4590744,3549,2038,3666,-3874,326,954,849,3229,31,35,856
1316221,4424888,4589308,4427101,4590941,3481,2248,3335,-3957,390,892,1532,3241,45,39,856
1317222,4425048,4589436,4427298,4591138,3622,2228,2993,-4076,405,958,2168,3094,45,39,856
1318223,4425228,4589580,4427495,4591335,3506,2152,2602,-4038,367,1443,2658,3618,27,24,855
1319224,4425396,4589740,4427692,4591532,3593,2069,2190,-4002,277,1633,3278,3347,27,24,855
1320225,4425584,4589884,4427889,4591729,3473,2192,1803,-4106,173,1606,2895,2882,51,38,853
1321226,4425804,4590028,4428086,4591926,3263,2216,1457,-4298,45,1552,2412,2346,51,38,853
1322227,4426024,4590168,4428283,4592123,3254,2267,1130,-4640,-66,1546,2211,1926,39,30,855
1323228,4426292,4590304,4428480,4592320,2923,2318,795,-4933,-208,1713,2579,1990,39,30,855
1324229,4426520,4590496,4428677,4592517,3159,1971,442,-5191,-369,1935,2605,1904,55,45,855
1325230,4426700,4590636,4428874,4592714,3468,2322,105,-5413,-511,2096,2627,1740,55,45,855
1326231,4426928,4590816,4429071,4592911,3154,2079,-236,-5615,-623,2280,2468,1867,51,44,857
1327232,4427132,4590992,4429268,4593108,3302,2113,-570,-5848,-703,2416,2174,1771,51,44,857
1328233,4427372,4591164,4429465,4593305,3058,2150,-901,-5967,-758,2464,1820,1862,40,30,854
1329234,4427648,4591332,4429662,4593502,2799,2188,-1198,-6134,-777,2390,1512,1495,40,30,854
1330235,4427900,4591524,4429859,4593699,2925,2041,-1449,-6332,-767,2483,1358,1502,46,42,857
1331236,4428160,4591688,4430056,4593896,2848,2231,-1661,-6493,-745,2483,1246,1656,46,42,857
1332237,4428432,4591868,4430253,4594093,2740,2139,-1819,-6543,-740,2314,1174,1647,43,49,860
1333238,4428732,4592068,4430450,4594290,2520,2013,-1928,-6581,-763,2141,1023,1715,43,49,860
1334239,4429000,4592288,4430647,4594487,2689,1878,-1990,-6533,-805,2048,897,1878,44,40,860
1335240,4429272,4592548,4430844,4594684,2631,1601,-2018,-6391,-854,1927,864,2063,44,40,860
1336241,4429540,4592760,4431041,4594881,2626,1895,-2015,-6164,-917,1743,837,2259,54,45,862
1337242,4429816,4592984,4431238,4595078,2541,1809,-1981,-5898,-943,1649,607,2283,54,45,862
1338243,4430076,4593212,4431435,4595275,2614,1770,-1933,-5695,-918,1672,361,2249,46,42,864
1339244,4430360,4593456,4431632,4595472,2426,1649,-1887,-5344,-880,1568,85,2777,46,42,864
1340252,4430640,4593684,4431862,4595702,2430,1751,-1886,-4781,-859,1252,-337,3549,63,41,864
1341246,4430908,4593928,4432059,4595899,2473,1631,-1905,-4061,-849,1316,-239,3854,63,41,864
1342247,4431204,4594148,4432256,4596096,2255,1772,-1928,-3329,-833,1681,116,3810,59,49,865
1343248,4431468,4594332,4432453,4596293,2425,2002,-1921,-2687,-849,1848,507,3662,59,49,865
1344249,4431728,4594540,4432650,4596490,2424,1847,-1925,-2083,-952,1755,877,3562,58,39,865
1345250,4432004,4594732,4432847,4596687,2289,1951,-1888,-1674,-1086,1598,722,3105,58,39,865
1346251,4432256,4594976,4433044,4596884,2415,1605,-1857,-1275,-1176,1710,2,3538,44,54,864
1347252,4432520,4595164,4433241,4597081,2310,1959,-1850,-847,-1196,1929,-530,3514,44,54,864
1348253,4432812,4595348,4433438,4597278,2094,1991,-1852,-490,-1193,1831,-1072,3389,54,39,863
1349254,4433068,4595500,4433635,4597475,2293,2210,-1843,-216,-1194,1596,-1397,3397,54,39,863
