"Data file recorded 2014/9/22  16:12:39"
"%  Right Stride Frequency         = 3.0"
"%  Left Stride Frequency         = 3.0"
"%  Phase (Fractional)         = 32768.0"
"%  Experiment.py "
"%  Motor Gains    = [1800, 200, 100, 0, 0, 1800, 200, 100, 0, 0]
"% Columns: "
"% time | Right Leg Pos | Left Leg Pos | Commanded Right Leg Pos | Commanded Left Leg Pos | DCR | DCL | GyroX | GryoY | GryoZ | AX | AY | AZ | RBEMF | LBEMF | VBatt "
11314,8219136,8780516,8237682,8794738,3800,3800,-36,194,-238,-220,-162,4099,10,3,764
12308,8219224,8780272,8237879,8794935,3800,3800,-36,194,-236,-222,-156,4115,-11,0,764
13309,8219180,8780428,8238076,8795132,3800,3800,-36,191,-236,-233,-156,4103,-11,0,764
14311,8219264,8780628,8238273,8795329,3800,3800,-35,204,-232,-231,-161,4126,39,47,724
15311,8219512,8780856,8238470,8795526,3800,3800,-31,193,-248,-260,119,4092,39,47,724
16313,8219824,8781052,8238667,8795723,3800,3800,-24,204,-297,-281,293,4059,69,41,723
17313,8219976,8781140,8238864,8795920,3800,3800,-21,176,-365,-351,594,4049,69,41,723
18314,8220184,8781176,8239061,8796117,3800,3800,-17,178,-432,-375,680,4094,69,46,726
19315,8220692,8781188,8239258,8796314,3800,3800,-12,185,-487,-421,687,4079,69,46,726
20317,8221004,8781196,8239455,8796511,3800,3800,8,223,-541,-548,657,4133,86,67,727
21318,8221256,8781376,8239652,8796708,3800,3800,43,222,-625,-696,510,4030,86,67,727
22319,8221568,8781652,8239849,8796905,3800,3800,101,236,-738,-774,445,4131,85,70,727
23320,8222180,8781956,8240046,8797102,3800,3800,194,249,-862,-869,520,4132,85,70,727
24321,8222600,8782256,8240243,8797299,3800,3800,307,199,-1003,-851,719,3979,96,62,728
25322,8222916,8782516,8240440,8797496,3800,3800,426,133,-1181,-855,931,3933,96,62,728
26323,8223396,8782652,8240637,8797693,3800,3800,553,25,-1396,-846,995,3801,126,65,730
27324,8224076,8782744,8240834,8797890,3800,3800,682,-67,-1630,-834,959,3829,126,65,730
28325,8224576,8782792,8241031,8798087,3800,3800,803,-207,-1831,-818,845,3809,111,60,729
29325,8224984,8782868,8241228,8798284,3800,3800,883,-341,-1967,-656,805,3848,111,60,729
30327,8225604,8783124,8241425,8798481,3800,3800,925,-560,-2034,-527,792,3617,146,79,730
31315,8226352,8783444,8241622,8798678,3334,3800,917,-776,-2040,-543,644,3659,146,79,730
32329,8226904,8783744,8241819,8798875,3800,3800,922,-1056,-2029,-738,613,3385,137,80,730
33330,8227368,8784100,8242016,8799072,3800,3800,944,-1370,-2016,-836,395,3354,137,80,730
34318,8228088,8784344,8242213,8799269,3015,3800,989,-1697,-1994,-880,-6,3180,139,73,732
35319,8228900,8784512,8242410,8799466,2172,3800,1034,-2035,-1964,-975,-338,3275,139,73,732
36320,8229528,8784540,8242607,8799663,3135,3800,1059,-2280,-1944,-1172,-690,3546,154,81,732
37321,8230060,8784660,8242804,8799860,3590,3800,1058,-2523,-1955,-1358,-901,3562,154,81,732
38322,8230912,8784908,8243001,8800057,1305,3800,1002,-2607,-1978,-1401,-1221,4111,154,68,737
39323,8231736,8785224,8243198,8800254,1207,3800,903,-2605,-1970,-1525,-1478,4157,154,68,737
40324,8232352,8785508,8243395,8800451,2324,3800,793,-2591,-1924,-1597,-1870,4258,174,65,732
41325,8232928,8785804,8243592,8800648,2410,3800,659,-2564,-1858,-1689,-2091,4197,174,65,732
42326,8233748,8786004,8243789,8800845,613,3800,554,-2660,-1758,-1788,-2214,3851,146,55,738
43327,8234448,8786000,8243986,8801042,1144,3800,457,-2773,-1647,-1883,-2405,3862,146,55,738
44328,8234960,8786080,8244183,8801239,2183,3800,426,-2911,-1500,-2053,-2620,3659,144,50,735
45329,8235556,8786216,8244380,8801436,1484,3800,436,-3152,-1309,-1908,-2768,3359,144,50,735
46330,8236304,8786420,8244577,8801633,294,3800,493,-3460,-1079,-1875,-2904,3239,146,69,738
47331,8236824,8786704,8244774,8801830,1578,3800,535,-3618,-776,-2110,-3187,3840,146,69,738
48332,8237276,8786960,8244971,8802027,1893,3800,614,-3798,-411,-2260,-3309,3457,133,66,738
49333,8237820,8787192,8245168,8802224,1167,3800,688,-3979,25,-2452,-3144,3842,133,66,738
50334,8238412,8787308,8245365,8802421,695,3800,745,-4103,566,-2440,-2772,3977,116,57,736
51335,8238772,8787344,8245562,8802618,2074,3800,793,-4248,1188,-2460,-2375,3922,116,57,736
52335,8239124,8787400,8245759,8802815,2057,3800,887,-4322,1830,-2641,-1833,4185,106,47,737
53337,8239608,8787524,8245956,8803012,1107,3800,1014,-4477,2446,-2613,-1282,3994,106,47,737
54338,8240020,8787736,8246153,8803209,1465,3800,1191,-4572,3014,-2228,-819,4068,101,46,735
55339,8240264,8787972,8246350,8803406,2495,3800,1353,-4818,3544,-1676,-307,3841,101,46,735
56340,8240516,8788188,8246547,8803603,2422,3800,1514,-5095,4029,-995,-58,3761,74,50,737
57341,8240916,8788336,8246744,8803800,1409,3800,1637,-5464,4471,-468,249,3626,74,50,737
58342,8241216,8788368,8246941,8803997,1989,3800,1729,-5720,4869,8,469,4000,86,43,733
59343,8241360,8788348,8247138,8804194,2989,3800,1817,-5870,5239,577,560,4202,86,43,733
60344,8241568,8788312,8247335,8804391,2585,3800,1888,-5961,5590,1116,395,4490,63,46,737
61345,8241904,8788412,8247532,8804588,1726,3800,1938,-6001,5892,1690,258,4663,63,46,737
62346,8242072,8788556,8247729,8804785,2789,3800,1949,-6032,6097,2082,277,4707,79,44,730
63347,8242092,8788752,8247926,8804982,3793,3800,1941,-6001,6173,2287,496,4881,79,44,730
64348,8242264,8789012,8248123,8805179,2855,3800,1908,-5961,6081,2532,808,5102,39,33,734
65349,8242488,8789148,8248320,8805376,2519,3800,1844,-5720,5807,2916,1332,5630,39,33,734
66350,8242540,8789144,8248517,8805573,3659,3800,1720,-5360,5400,3525,1607,5915,49,48,724
67363,8242532,8789108,8248714,8805770,3800,3800,1498,-4817,4889,4125,2085,6527,49,48,724
68352,8242652,8789028,8248911,8805967,3360,3800,1121,-4186,4300,4429,2867,6925,32,39,730
69353,8242884,8789044,8249108,8806164,2647,3800,645,-3357,3606,4132,3036,7617,32,39,730
70354,8242996,8789124,8249305,8806361,3435,3800,91,-2407,2791,3976,3268,7903,60,32,725
71368,8242968,8789200,8249502,8806558,3800,3800,-442,-1434,1952,3974,3011,7899,60,32,725
72356,8243128,8789376,8249699,8806755,3252,3800,-967,-515,1145,4013,3047,7807,61,29,730
73357,8243336,8789512,8249896,8806952,2948,3800,-1417,154,392,4085,2932,6919,61,29,730
74371,8243404,8789704,8250093,8807149,3800,3800,-1729,567,-239,4224,2169,6265,62,36,724
75371,8243392,8789724,8250290,8807346,3800,3800,-1907,737,-764,4390,1692,5317,62,36,724
76360,8243560,8789716,8250487,8807543,3364,3800,-1958,733,-1178,4381,1076,4848,32,48,729
77373,8243664,8789664,8250684,8807740,3800,3800,-1887,693,-1466,4066,593,4584,32,48,729
78362,8243804,8789604,8250881,8807937,3608,3800,-1770,577,-1706,3592,834,4303,39,31,724
79376,8243804,8789656,8251078,8808134,3800,3800,-1673,455,-1925,3225,1278,4376,39,31,724
80364,8243964,8789720,8251275,8808331,3588,3800,-1601,411,-2085,2750,1281,4647,65,33,725
81365,8244208,8789876,8251472,8808528,3044,3800,-1527,526,-2139,1978,911,5074,65,33,725
82366,8244424,8790120,8251669,8808725,3211,3800,-1387,751,-2130,872,713,5231,75,32,726
83380,8244508,8790272,8251866,8808922,3800,3800,-1157,1079,-2106,-283,492,5524,75,32,726
84367,8244704,8790332,8252063,8809119,3389,3800,-851,1505,-2059,-1068,-98,5675,62,47,728
85368,8244888,8790352,8252260,8809316,3472,3800,-475,1899,-1974,-1559,-797,5538,62,47,728
86370,8245100,8790340,8252457,8809513,3292,3800,-79,2318,-1853,-1845,-1211,5623,51,37,723
87383,8245156,8790312,8252654,8809710,3800,3800,277,2779,-1678,-2122,-1540,5803,51,37,723
88372,8245320,8790308,8252851,8809907,3671,3800,585,3386,-1437,-2656,-1825,6169,72,32,727
89373,8245612,8790360,8253048,8810104,2830,3800,859,4044,-1180,-3382,-1467,6269,72,32,727
90374,8245860,8790524,8253245,8810301,3085,3800,1091,4769,-904,-3772,-1367,6456,80,51,726
91375,8246016,8790772,8253442,8810498,3679,3800,1297,5477,-590,-3908,-1589,6264,80,51,726
92376,8246168,8790964,8253639,8810695,3726,3800,1511,6011,-299,-3766,-1561,5507,65,31,731
93383,8246444,8791044,8254066,8811122,3018,3800,1765,6165,-77,-3262,-1523,4416,65,31,731
94378,8246748,8791088,8254263,8811319,2797,3800,2035,6001,93,-2538,-1613,3369,65,51,726
95379,8246924,8791092,8254460,8811516,3608,3800,2309,5540,231,-2173,-1445,2444,65,51,726
96380,8247124,8791044,8254657,8811713,3458,3800,2558,4960,373,-2291,-1308,2177,71,41,728
97381,8247460,8791060,8254854,8811910,2549,3800,2751,4308,551,-2200,-1229,1941,71,41,728
98382,8247732,8791140,8255051,8812107,2917,3800,2870,3572,725,-1559,-945,1625,72,41,727
99383,8247940,8791356,8255248,8812304,3314,3800,2928,2784,829,-650,-524,1352,72,41,727
100384,8248244,8791548,8255445,8812501,2668,3800,2938,1897,844,114,-191,1149,87,43,731
101384,8248556,8791680,8255642,8812698,2568,3800,2906,984,821,298,-92,1316,87,43,731
102386,8248856,8791800,8255839,8812895,2600,3800,2787,276,798,38,-70,1891,78,46,729
103387,8249076,8791880,8256036,8813092,3091,3800,2595,-348,727,39,254,1839,78,46,729
104388,8249384,8791900,8256233,8813289,2493,3800,2373,-1097,570,640,793,1305,69,37,733
105389,8249764,8791896,8256430,8813486,1965,3800,2155,-1968,362,1263,818,959,69,37,733
106390,8250024,8791956,8256627,8813683,2688,3800,1927,-2771,184,1209,188,1463,88,33,729
107391,8250232,8792072,8256824,8813880,3009,3800,1663,-3210,59,685,-59,2612,88,33,729
108392,8250560,8792276,8257021,8814077,2203,3800,1371,-3468,-41,605,514,2813,80,53,734
109392,8250844,8792464,8257218,8814274,2442,3800,1046,-3593,-145,1064,844,3183,80,53,734
110394,8251080,8792652,8257415,8814471,2725,3800,713,-3511,-231,1311,306,3649,77,50,730
111395,8251344,8792800,8257612,8814668,2522,3800,433,-3368,-247,728,-451,3752,77,50,730
112396,8251672,8792904,8257809,8814865,2065,3800,223,-3241,-180,78,-931,3940,69,42,731
113397,8251968,8792960,8258006,8815062,2223,3800,67,-3224,-71,169,-1017,3537,69,42,731
114398,8252164,8793036,8258203,8815259,2850,3800,-63,-3235,5,537,-827,3430,81,55,733
115399,8252456,8793180,8258400,8815456,2210,3800,-184,-3223,27,404,-578,3348,81,55,733
116400,8252864,8793332,8258597,8815653,1393,3800,-269,-3242,20,-109,-434,3430,75,58,733
117400,8253184,8793540,8258794,8815850,1890,3800,-352,-3102,38,-343,-439,3941,75,58,733
118402,8253368,8793752,8258991,8816047,2747,3800,-446,-2890,78,-188,-168,3902,96,50,733
119403,8253676,8793920,8259188,8816244,1924,3800,-555,-2644,96,100,200,3855,96,50,733
120404,8254124,8794068,8259385,8816441,939,3800,-659,-2437,92,78,436,3804,77,49,735
121405,8254428,8794168,8259582,8816638,1793,3800,-739,-2187,78,40,320,4018,77,49,735
122406,8254616,8794264,8259779,8816835,2523,3800,-797,-1818,75,86,-201,4245,78,45,735
123407,8254992,8794428,8259976,8817032,1271,3800,-827,-1428,92,105,-500,4282,78,45,735
124408,8255432,8794676,8260173,8817229,765,3800,-834,-1108,62,189,-451,4024,82,68,735
125409,8255696,8794916,8260370,8817426,1837,3800,-833,-933,-17,355,-376,3762,82,68,735
126410,8255900,8795172,8260567,8817623,2209,3800,-825,-814,-125,550,-491,3677,78,62,738
127411,8256336,8795436,8260764,8817820,655,3800,-798,-756,-228,670,-610,3392,78,62,738
128412,8256736,8795636,8260961,8818017,792,3800,-751,-716,-310,743,-589,3364,72,57,736
129412,8256976,8795864,8261158,8818214,1773,3800,-693,-764,-389,886,-400,3089,72,57,736
130413,8257204,8796100,8261355,8818411,1836,3800,-634,-860,-436,1190,-383,2951,85,57,739
131415,8257664,8796368,8261552,8818608,271,3800,-571,-938,-441,1414,-313,3136,85,57,739
132415,8258000,8796668,8261749,8818805,986,3800,-478,-986,-397,1403,-472,3135,91,64,737
133416,8258124,8796968,8261946,8819002,2343,3800,-365,-1041,-332,1258,-307,3118,91,64,737
134418,8258340,8797256,8262143,8819199,1761,3800,-246,-1140,-260,1276,-137,2873,67,65,741
135419,8258692,8797580,8262340,8819396,844,3800,-116,-1440,-190,1327,97,2282,67,65,741
136420,8258896,8797948,8262537,8819593,1767,3800,25,-1824,-116,1272,435,2180,69,85,734
137421,8258972,8798240,8262734,8819790,2620,3800,140,-2221,-2,1253,885,2204,69,85,734
138422,8259208,8798560,8262931,8819987,1604,3800,230,-2511,187,1313,1045,2555,45,77,739
139423,8259560,8798944,8263128,8820184,811,3800,280,-2598,475,1202,1031,3153,45,77,739
140423,8259668,8799312,8263325,8820381,2376,3800,295,-2440,837,1019,906,3717,54,79,734
141424,8259744,8799644,8263522,8820578,2630,3800,303,-2152,1224,813,891,3883,54,79,734
142426,8260080,8800088,8263719,8820775,945,3800,336,-1856,1590,669,1000,3984,58,94,740
143427,8260452,8800528,8263916,8820972,643,3800,383,-1489,1871,559,1180,4205,58,94,740
144428,8260576,8801000,8264113,8821169,2226,3800,452,-1085,2050,228,1577,4224,65,87,732
145429,8260720,8801452,8264310,8821366,2125,3800,523,-705,2126,37,1843,4113,65,87,732
146430,8261124,8801960,8264507,8821563,409,3800,566,-388,2126,60,2051,3871,68,99,742
147431,8261436,8802388,8264704,8821760,935,3800,569,-47,2087,181,2392,3934,68,99,742
148431,8261548,8802908,8264901,8821957,2223,3800,530,331,2045,402,2443,3901,83,100,737
149433,8261784,8803420,8265098,8822154,1431,3800,459,687,2067,634,2198,3865,83,100,737
150434,8262280,8803996,8265295,8822351,-325,3800,386,1029,2149,815,2158,3903,50,120,742
151435,8262456,8804804,8265492,8822548,1686,3800,300,1391,2232,1020,2101,3859,50,120,742
152436,8262628,8805444,8265689,8822745,1722,3800,215,1765,2304,1040,1789,3840,57,136,741
153437,8262900,8806224,8265886,8822942,1065,3800,135,2088,2375,1010,1327,3719,57,136,741
154438,8263272,8806832,8266083,8823139,363,3800,90,2399,2432,1214,920,3616,68,150,740
155439,8263388,8807520,8266280,8823336,1999,3800,80,2558,2428,1319,1214,3049,68,150,740
156440,8263512,8808152,8266477,8823533,1981,3800,115,2553,2370,1658,814,2617,71,148,742
157428,8263940,8809020,8266674,8823730,-19,2779,209,2387,2277,1887,524,2100,71,148,742
158429,8264124,8809864,8266871,8823927,1512,2648,334,2094,2153,2013,338,1787,64,148,741
159430,8264184,8810700,8267068,8824124,2348,2419,473,1760,1989,2179,141,1556,64,148,741
160431,8264340,8811600,8267265,8824321,1767,1713,606,1415,1783,2186,177,1448,59,152,749
161432,8264684,8812312,8267462,8824518,527,2663,703,1103,1555,2316,98,1585,59,152,749
162433,8264816,8812964,8267659,8824715,1882,2842,746,890,1346,2469,-18,1787,53,159,743
163434,8264836,8813636,8267856,8824912,2660,2510,730,853,1194,2489,-205,2148,53,159,743
164435,8265192,8814476,8268053,8825109,491,1179,652,1004,1122,2550,-724,2758,33,161,749
165436,8265344,8815260,8268250,8825306,1786,1273,501,1459,1135,2294,-1295,3672,33,161,749
166437,8265444,8816100,8268447,8825503,2154,643,379,2027,1113,2021,-893,3442,65,144,741
167438,8265652,8816804,8268644,8825700,1474,1272,309,2512,1012,2061,-657,3232,65,144,741
168439,8265908,8817436,8268841,8825897,1149,1533,251,2994,853,2202,-392,3508,43,130,749
169440,8266068,8817932,8269038,8826094,1767,2252,224,3341,676,2081,-581,2649,43,130,749
170441,8266068,8818352,8269235,8826291,2853,2631,237,3467,529,2065,-858,1976,59,110,750
171442,8266436,8818852,8269432,8826488,479,1999,181,3670,458,2099,-984,2582,59,110,750
172443,8266592,8819424,8269629,8826685,1822,1386,121,3916,399,2066,-910,2018,59,110,745
173444,8266664,8819988,8269826,8826882,2403,1276,97,3942,258,2014,-270,1204,59,110,745
174445,8266840,8820436,8270023,8827079,1762,1892,86,3914,9,1873,272,1102,50,92,750
175446,8267120,8820736,8270220,8827276,1077,2774,7,3848,-302,1938,-247,929,50,92,750
176454,8267236,8820976,8270450,8827506,2153,3145,-136,3820,-614,2066,-1309,938,55,76,745
177448,8267300,8821196,8270647,8827703,2536,3261,-364,3871,-913,1995,-1722,1204,55,76,745
178449,8267624,8821560,8270844,8827900,857,2289,-634,4121,-1209,1732,-2166,1701,50,83,744
179450,8267784,8821932,8271041,8828097,1899,2164,-936,4551,-1486,1445,-2557,2160,50,83,744
180451,8267824,8822296,8271238,8828294,2718,2141,-1256,5029,-1737,1352,-2762,2345,60,67,737
181452,8267972,8822640,8271435,8828491,2065,2203,-1577,5468,-1970,1552,-2832,2427,60,67,737
182453,8268256,8822828,8271632,8828688,1177,3183,-1882,5755,-2210,1737,-2602,1999,51,60,744
183467,8268396,8822916,8271829,8828885,2103,3800,-2181,5784,-2485,1789,-2451,1437,51,60,744
184455,8268380,8823052,8272026,8829082,3173,3584,-2424,5558,-2746,1879,-2365,915,57,59,742
185456,8268696,8823236,8272223,8829279,1045,3291,-2566,5063,-2959,2190,-2415,192,57,59,742
186457,8268916,8823540,8272420,8829476,1636,2496,-2667,4354,-3078,2510,-2760,-216,57,72,734
187458,8269016,8823876,8272617,8829673,2430,2236,-2769,3488,-3088,2556,-2724,-527,57,72,734
188459,8269032,8824244,8272814,8829870,3035,1962,-2865,2456,-3011,2549,-2748,-694,39,60,741
189460,8269352,8824524,8273011,8830067,1081,2476,-2938,1315,-2893,2519,-2456,-714,39,60,741
190461,8269572,8824692,8273208,8830264,1697,3190,-3000,265,-2732,2726,-2222,-407,55,72,742
191462,8269588,8824872,8273405,8830461,3053,3124,-3082,-658,-2488,2897,-2091,99,55,72,742
192463,8269768,8825088,8273602,8830658,2035,2891,-3500,-856,-2033,2932,-2378,3428,52,65,745
193464,8270052,8825356,8273799,8830855,1348,2536,-4222,-341,-1423,2423,-2746,4833,52,65,745
194465,8270236,8825660,8273996,8831052,1980,2265,-4776,-54,-908,2076,-1516,3500,56,63,733
195466,8270224,8825976,8274193,8831249,3297,2139,-5023,-96,-576,1808,-382,3362,56,63,733
196467,8270532,8826272,8274390,8831446,1249,2221,-5210,-351,-361,1309,69,3508,48,72,743
197468,8270784,8826420,8274587,8831643,1576,3169,-5446,-453,-231,641,367,3987,48,72,743
198469,8270952,8826588,8274784,8831840,2114,3058,-5721,-412,-215,151,960,4457,51,66,737
199470,8271032,8826772,8274981,8832037,2716,2964,-5913,-224,-256,-3,1077,4977,51,66,737
200471,8271344,8826984,8275178,8832234,1216,2784,-6013,-2,-280,-465,679,5389,54,63,740
201472,8271576,8827276,8275375,8832431,1702,2243,-6009,279,-300,-926,743,5859,54,63,740
202473,8271640,8827552,8275572,8832628,2811,2309,-5990,692,-336,-1291,985,6717,52,65,737
203474,8271812,8827872,8275769,8832825,2147,1981,-5972,1237,-335,-1588,1097,7325,52,65,737
204475,8272068,8828132,8275966,8833022,1597,2329,-5959,1855,-281,-1714,1146,7690,38,55,743
205476,8272304,8828336,8276163,8833219,1706,2677,-5926,2422,-215,-1955,1174,7707,38,55,743
206477,8272324,8828508,8276360,8833416,3135,2889,-5840,2821,-187,-2186,1333,7557,40,51,743
207478,8272540,8828696,8276557,8833613,1902,2794,-4755,3502,-111,-3100,496,15184,40,51,743
208479,8272788,8828944,8276754,8833810,1680,2398,2155,7794,722,-7302,-3975,32767,36,59,742
209480,8272816,8829192,8276951,8834007,3131,2376,9613,12475,1530,-1867,-3138,32767,36,59,742
210481,8272844,8829460,8277148,8834204,3206,2221,11141,13791,1888,-384,-422,7659,55,52,740
211482,8273088,8829752,8277345,8834401,1835,2031,9450,12655,1893,-155,-954,4074,55,52,740
212483,8273240,8829948,8277542,8834598,2431,2631,7946,10814,1776,424,-689,2036,54,69,738
213484,8273248,8830132,8277739,8834795,3415,2713,7301,8925,1811,349,-790,1017,54,69,738
214485,8273348,8830312,8277936,8834992,2884,2746,7011,7182,1928,850,-962,60,34,58,745
215486,8273556,8830512,8278133,8835189,2205,2621,6490,5067,1841,813,257,-330,34,58,745
216488,8273708,8830756,8278330,8835386,2576,2326,5581,3256,1655,999,1135,1198,59,72,734
217488,8273712,8831000,8278527,8835583,3586,2307,4641,1657,1367,1664,2581,731,59,72,734
218489,8273920,8831328,8278724,8835780,2308,1725,4037,20,961,1566,3244,107,55,54,740
219490,8274120,8831548,8278921,8835977,2356,2391,3761,-1780,598,1444,3129,-282,55,54,740
220491,8274236,8831776,8279118,8836174,2918,2327,3625,-3522,387,1406,2746,157,52,72,734
221492,8274272,8832036,8279315,8836371,3490,2101,3567,-4993,271,881,2697,662,52,72,734
222493,8274500,8832272,8279512,8836568,2277,2234,3536,-6137,148,455,2714,1536,36,74,740
223494,8274696,8832540,8279709,8836765,2478,2004,3493,-6753,34,-16,2489,3084,36,74,740
224495,8274764,8832796,8279906,8836962,3336,2054,3457,-6811,21,-844,2247,4460,62,73,737
225496,8274840,8832956,8280103,8837159,3340,2672,3396,-6447,99,-1504,2088,5455,62,73,737
226497,8275040,8833124,8280300,8837356,2565,2634,3337,-5781,228,-2261,2002,6032,31,48,741
227498,8275188,8833308,8280497,8837553,2913,2541,3316,-4904,411,-2971,1627,6495,31,48,741
228499,8275220,8833496,8280694,8837750,3711,2521,3303,-3856,621,-3578,1097,6769,37,61,734
229500,8275328,8833704,8280891,8837947,3276,2392,3256,-2767,848,-4237,991,6791,37,61,734
230501,8275560,8833920,8281088,8838144,2487,2335,3211,-1596,1033,-4663,924,6803,37,60,737
231502,8275708,8834124,8281285,8838341,3034,2407,3218,-496,1123,-4815,770,6256,37,60,737
232516,8275700,8834372,8281482,8838538,3800,2110,3289,458,1152,-4813,716,5673,58,57,736
233504,8275836,8834584,8281679,8838735,3228,2330,3368,1292,1224,-4528,482,5202,58,57,736
234505,8276048,8834976,8281876,8838932,2749,1120,3475,2006,1425,-4051,105,4704,32,78,738
235506,8276188,8835336,8282073,8839129,3225,1249,3589,2682,1728,-3487,-168,4340,32,78,738
236507,8276248,8835684,8282270,8839326,3786,1258,3656,3182,2055,-2906,-364,3692,59,77,737
237508,8276456,8836020,8282467,8839523,2857,1273,3613,3454,2313,-2391,-295,2808,59,77,737
238509,8276640,8836332,8282664,8839720,3014,1373,3443,3495,2430,-1929,-178,2096,52,83,740
239510,8276772,8836568,8282861,8839917,3368,1831,3181,3376,2455,-1482,-295,1580,52,83,740
240511,8276900,8836784,8283058,8840114,3425,1949,2842,3127,2424,-987,-452,1205,54,84,742
241512,8277140,8837096,8283255,8840311,2708,1299,2423,2888,2363,-412,-515,1128,54,84,742
242513,8277340,8837484,8283452,8840508,2957,740,1954,2698,2275,74,-424,1063,54,72,738
243514,8277448,8837924,8283649,8840705,3573,310,1477,2530,2134,361,-11,1163,54,72,738
244515,8277644,8838348,8283846,8840902,3024,310,992,2283,1905,599,533,866,62,70,743
245516,8277852,8838680,8284043,8841099,2945,827,484,1929,1540,942,1294,501,62,70,743
246517,8278028,8838984,8284240,8841296,3155,955,-14,1475,1055,1252,1857,154,46,77,742
247518,8278180,8839240,8284437,8841493,3327,1230,-465,937,509,1435,2073,-19,46,77,742
248519,8278396,8839504,8284634,8841690,2920,1150,-847,441,-40,1533,2050,113,44,79,743
249520,8278640,8839880,8284831,8841887,2725,371,-1144,-1,-551,1580,1964,284,44,79,743
250521,8278764,8840244,8285028,8842084,3508,374,-1392,-312,-1039,1701,2048,618,46,80,740
251522,8278964,8840612,8285225,8842281,3033,274,-1617,-514,-1518,1757,2244,860,46,80,740
252523,8279184,8840844,8285422,8842478,2900,1109,-1868,-627,-1970,1758,2347,1096,57,63,745
253524,8279392,8840984,8285619,8842675,2971,1710,-2141,-718,-2347,1779,2202,1258,57,63,745
254525,8279540,8841052,8285816,8842872,3369,2216,-2424,-741,-2643,1654,2066,1388,55,59,744
255526,8279740,8841112,8286013,8843069,3043,2327,-2737,-657,-2886,1432,1719,1646,55,59,744
256527,8279952,8841344,8286210,8843266,2963,1237,-3071,-484,-3063,1123,1225,1936,47,56,741
257528,8280088,8841616,8286407,8843463,3466,954,-3429,-131,-3173,948,401,2527,47,56,741
258529,8280264,8841908,8286604,8843660,3227,788,-3786,412,-3251,507,-143,3004,66,51,737
259539,8280484,8842120,8286834,8843890,2957,1296,-4112,1129,-3379,-149,-370,3546,66,51,737
260531,8280696,8842288,8287031,8844087,3001,1584,-4362,1882,-3631,-796,-410,3550,53,46,740
261532,8280816,8842316,8287228,8844284,3611,2534,-4520,2630,-3994,-1226,-613,3551,53,46,740
262533,8281004,8842304,8287425,8844481,3192,2876,-4614,3324,-4413,-1480,-881,3378,42,35,742
263534,8281212,8842424,8287622,8844678,3063,2085,-4662,3796,-4822,-1600,-1332,2979,42,35,742
264535,8281320,8842692,8287819,8844875,3729,1130,-4688,4191,-5129,-1625,-2054,2927,49,50,733
265536,8281428,8843020,8288016,8845072,3769,697,-4681,4511,-5272,-1522,-2845,2728,49,50,733
266537,8281644,8843296,8288213,8845269,3087,989,-4669,4766,-5275,-1332,-3455,2635,47,54,738
267538,8281848,8843496,8288410,8845466,3160,1462,-4680,4901,-5196,-1274,-3887,2464,47,54,738
268539,8281984,8843616,8288607,8845663,3613,1996,-4723,4889,-5086,-1296,-4316,2313,49,36,739
269540,8282148,8843588,8288804,8845860,3454,3021,-4777,4746,-4976,-1342,-4551,2110,49,36,739
270541,8282420,8843560,8289001,8846057,2748,3120,-4808,4494,-4864,-1339,-4721,1941,48,47,740
271542,8282632,8843704,8289198,8846254,3117,2069,-4805,4127,-4725,-1274,-4908,1778,48,47,740
272543,8282768,8843964,8289395,8846451,3620,1316,-4748,3606,-4548,-1313,-4959,1599,70,55,732
273544,8283012,8844276,8289592,8846648,2925,942,-4669,3066,-4327,-1359,-4824,1856,70,55,732
274545,8283296,8844596,8289789,8846845,2639,838,-4584,2516,-4110,-1348,-4459,1981,68,68,738
275546,8283472,8844756,8289986,8847042,3324,1854,-4498,1979,-3928,-1414,-3680,2108,68,39,743
276547,8283664,8844868,8290183,8847239,3227,2192,-4426,1394,-3811,-1488,-2649,2373,68,39,743
277548,8283984,8844872,8290380,8847436,2374,2952,-4334,769,-3742,-1626,-1936,2459,75,38,739
278549,8284280,8844900,8290577,8847633,2483,2878,-4219,167,-3691,-1721,-1329,2641,75,38,739
279550,8284440,8845056,8290774,8847830,3350,2096,-4108,-321,-3639,-1751,-822,3227,75,62,739
280551,8284688,8845316,8290971,8848027,2779,1419,-3999,-685,-3564,-1865,-535,3915,75,62,739
281552,8285092,8845688,8291168,8848224,1714,642,-3924,-875,-3458,-1883,-328,4570,79,46,737
282553,8285356,8845832,8291365,8848421,2560,2091,-3875,-895,-3323,-1833,-170,5312,79,46,737
283554,8285532,8846068,8291562,8848618,3120,1499,-3853,-808,-3150,-1744,-126,5884,61,42,749
284555,8285864,8846080,8291759,8848815,2088,2981,-3822,-680,-2950,-1655,10,6082,61,42,749
285556,8286276,8846084,8291956,8849012,1495,3116,-3800,-580,-2730,-1510,302,6227,66,50,741
286557,8286500,8846180,8292153,8849209,2659,2587,-3736,-521,-2510,-1382,634,6261,66,50,741
287558,8286752,8846336,8292350,8849406,2461,2231,-3623,-512,-2301,-1305,955,6263,73,48,740
288559,8287152,8846668,8292547,8849603,1447,1071,-3435,-510,-2121,-1200,1230,6350,73,48,740
289560,8287556,8846848,8292744,8849800,1332,2030,-3174,-569,-1998,-997,1500,6426,83,55,742
290561,8287828,8847056,8292941,8849997,2125,1850,-2159,-377,-1977,259,1466,13109,83,55,742
291562,8288100,8847180,8293138,8850194,2093,2408,1151,1206,-2281,4484,747,32767,73,32,746
292563,8288624,8847156,8293335,8850391,376,3430,3902,2564,-2439,1992,171,18506,73,32,746
293564,8288848,8847180,8293532,8850588,2240,3207,4383,2561,-2238,216,297,6053,92,48,742
294565,8289112,8847300,8293729,8850785,1961,2642,3836,2004,-1964,274,207,5592,92,48,742
295566,8289504,8847624,8293926,8850982,1077,1311,3418,1402,-1851,157,504,4965,87,58,736
296567,8289924,8847792,8294123,8851179,804,2300,3358,889,-1924,-30,633,4710,87,58,736
297568,8290180,8847996,8294320,8851376,1804,2073,3421,300,-2090,84,310,4199,65,37,750
298569,8290420,8848120,8294517,8851573,1886,2605,3450,-319,-2228,140,3,4034,65,37,750
299570,8290880,8848096,8294714,8851770,396,3628,3429,-894,-2321,159,-162,4047,65,39,745
300571,8291116,8848124,8294911,8851967,1779,3378,3412,-1465,-2379,148,-442,4004,65,39,745
301572,8291284,8848292,8295108,8852164,2218,2516,3418,-1913,-2394,8,-600,4307,62,57,741
302573,8291612,8848532,8295305,8852361,1161,2048,3431,-2271,-2371,5,-766,4421,62,57,741
303574,8292068,8848744,8295502,8852558,249,2218,3442,-2480,-2321,-174,-864,4627,74,37,741
304575,8292248,8848920,8295699,8852755,1981,2452,3485,-2682,-2264,-471,-844,4390,74,37,741
305576,8292388,8849108,8295896,8852952,2257,2382,3565,-2893,-2210,-656,-811,4386,60,33,748
306577,8292880,8849088,8296093,8853149,-72,3778,3672,-3081,-2154,-929,-639,4199,60,33,748
307591,8293084,8849056,8296290,8853346,1725,3800,3789,-3207,-2076,-1243,-608,4204,67,49,741
308579,8293188,8849212,8296487,8853543,2392,2799,3902,-3269,-1965,-1515,-753,4288,67,49,741
309580,8293424,8849472,8296684,8853740,1550,2121,4012,-3242,-1789,-1779,-926,4412,78,62,733
310581,8293916,8849724,8296881,8853937,-179,2148,4118,-3095,-1560,-1928,-945,4522,78,62,733
311582,8294124,8849920,8297078,8854134,1593,2499,4221,-2916,-1321,-2104,-766,4393,69,37,745
312583,8294288,8850164,8297275,8854331,1882,2180,4317,-2639,-1042,-2252,-633,4541,69,37,745
313584,8294684,8850220,8297472,8854528,346,3418,4429,-2398,-716,-2374,-487,4203,69,53,743
314598,8295012,8850184,8297669,8854725,713,3800,4536,-2177,-381,-2504,-365,4087,69,53,743
315586,8295136,8850372,8297866,8854922,2021,2700,4637,-1999,-50,-2554,-267,3691,54,50,742
316587,8295356,8850604,8298063,8855119,1411,2411,4732,-1886,265,-2506,-248,3378,54,50,742
317588,8295816,8850892,8298260,8855316,-203,2022,4810,-1832,571,-2482,-66,2954,78,48,741
318589,8296036,8851104,8298457,8855513,1286,2491,4849,-1884,849,-2342,46,2585,78,48,741
319590,8296176,8851352,8298654,8855710,1812,2245,4833,-1970,1119,-2138,23,2371,44,39,749
320591,8296464,8851484,8298851,8855907,847,2999,4798,-2100,1397,-1944,96,2029,44,39,749
321605,8296792,8851448,8299048,8856104,541,3800,4732,-2342,1636,-1643,191,1554,63,44,743
322593,8296832,8851600,8299245,8856301,2410,2997,4632,-2643,1844,-1330,250,1357,63,44,743
323594,8296904,8851836,8299442,8856498,2266,2456,4490,-2941,2067,-938,218,1218,61,58,740
324595,8297304,8852148,8299639,8856695,127,1932,4301,-3347,2293,-586,79,779,61,58,740
325596,8297492,8852392,8299836,8856892,1456,2337,4073,-3761,2525,-238,59,752,61,54,740
326597,8297568,8852696,8300033,8857089,2210,1916,3809,-4234,2763,114,267,431,61,54,740
327598,8297720,8852892,8300230,8857286,1755,2592,3543,-4682,2989,447,559,462,32,59,744
328612,8298044,8852888,8300427,8857483,625,3800,3252,-5131,3186,611,895,424,32,59,744
329600,8298092,8853060,8300624,8857680,2415,2843,2935,-5522,3336,848,1078,517,39,43,742
330601,8298120,8853272,8300821,8857877,2615,2587,2563,-5836,3439,1107,1261,712,39,43,742
331602,8298408,8853568,8301018,8858074,950,2020,2158,-6051,3492,1287,1423,963,56,47,738
332603,8298628,8853796,8301215,8858271,1366,2432,1721,-6206,3513,1471,1409,1184,56,47,738
333604,8298680,8854048,8301412,8858468,2480,2259,1288,-6276,3525,1734,1223,1465,44,51,748
334605,8298700,8854236,8301609,8858665,2759,2664,838,-6204,3535,1944,1015,1877,44,51,748
335619,8299096,8854176,8301806,8858862,321,3800,373,-5987,3508,2091,880,2171,53,45,740
336607,8299172,8854280,8302003,8859059,2376,3344,-106,-5667,3431,2153,770,2515,53,45,740
337608,8299184,8854388,8302200,8859256,2857,3359,-564,-5320,3337,2346,564,2693,51,47,739
338609,8299360,8854628,8302397,8859453,1842,2516,-991,-4893,3199,2505,524,2835,51,47,739
339610,8299648,8854836,8302594,8859650,1103,2712,-1402,-4463,3011,2643,578,2860,61,54,733
340611,8299768,8855024,8302791,8859847,2187,2842,-1816,-4078,2783,2765,506,2890,61,54,733
341612,8299720,8855244,8302988,8860044,3346,2633,-2231,-3738,2512,2850,537,2847,50,25,743
342633,8300024,8855228,8303218,8860274,1113,3800,-2666,-3391,2215,2899,505,2909,50,25,743
343627,8300280,8855204,8303415,8860471,1388,3800,-3092,-3015,1916,2967,446,3053,43,35,734
344628,8300348,8855268,8303612,8860668,2621,3800,-3475,-2687,1616,3044,455,3029,43,35,734
345629,8300420,8855340,8303809,8860865,2651,3800,-3801,-2323,1306,3125,314,3215,50,48,736
346617,8300764,8855536,8304006,8861062,887,3107,-4078,-1961,988,3164,125,3304,50,48,736
347618,8300996,8855732,8304203,8861259,1572,3108,-4317,-1547,665,3185,-73,3558,56,44,730
348619,8301088,8855944,8304400,8861456,2494,3003,-4508,-1145,382,3127,-292,3678,56,44,730
349620,8301164,8856132,8304597,8861653,2648,3158,-4659,-710,160,3024,-542,3967,59,41,740
350634,8301512,8856144,8304794,8861850,882,3800,-4783,-202,-15,2835,-701,4237,59,41,740
351635,8301700,8856148,8304991,8862047,1887,3800,-4847,288,-174,2640,-670,4283,69,32,735
352636,8301724,8856212,8305188,8862244,2989,3800,-4824,671,-369,2410,-396,4156,69,32,735
353637,8301940,8856328,8305385,8862441,1780,3800,-4729,1011,-594,2247,-277,4167,50,52,734
354625,8302292,8856536,8305582,8862638,863,3294,-4587,1319,-804,2058,-315,4233,50,52,734
355626,8302536,8856756,8305779,8862835,1519,3210,-4410,1611,-981,1787,-375,4250,51,50,735
356627,8302580,8856972,8305976,8863032,2836,3228,-4211,1896,-1121,1475,-455,4428,51,50,735
357628,8302784,8857212,8306173,8863229,1834,3060,-4004,2219,-1220,1107,-293,4734,45,46,739
358642,8303164,8857300,8306370,8863426,653,3800,-3779,2570,-1308,696,-22,4849,45,46,739
359643,8303324,8857332,8306567,8863623,2046,3800,-3539,2920,-1375,295,-55,4940,52,35,739
360644,8303404,8857408,8306764,8863820,2598,3800,-3313,3162,-1402,-50,-215,4942,52,35,739
361632,8303724,8857572,8306961,8864017,1044,3728,-3107,3414,-1390,-413,-277,5100,67,59,734
362633,8303968,8857792,8307158,8864214,1499,3369,-2898,3660,-1343,-822,-265,5079,67,59,734
363634,8304076,8858044,8307355,8864411,2389,3145,-2675,3860,-1251,-1199,-337,5209,47,46,738
364635,8304156,8858280,8307552,8864608,2616,3229,-2459,4055,-1099,-1504,-446,5376,47,46,738
365636,8304476,8858528,8307749,8864805,1063,3134,-2225,4155,-919,-1735,-345,5184,58,49,738
366650,8304752,8858656,8307946,8865002,1303,3800,-1970,4137,-713,-1970,-304,4971,58,49,738
367651,8304820,8858744,8308143,8865199,2661,3800,-1690,4058,-484,-2285,-392,4938,61,39,742
368652,8304956,8858892,8308340,8865396,2264,3800,-1404,3945,-241,-2523,-355,4922,61,39,742
369640,8305256,8859072,8308537,8865593,1193,3671,-1115,3738,1,-2602,-346,4671,51,52,732
370641,8305496,8859292,8308734,8865790,1550,3412,-824,3485,242,-2605,-302,4610,51,52,732
371642,8305524,8859540,8308931,8865987,2951,3216,-550,3154,478,-2677,-267,4637,65,62,738
372643,8305652,8859860,8309128,8866184,2356,2713,-295,2763,688,-2765,-167,4492,65,62,738
373644,8305924,8860048,8309325,8866381,1424,3543,-61,2384,884,-2747,-256,4639,67,71,734
374645,8306140,8860252,8309522,8866578,1766,3441,111,2144,1123,-2660,-737,5267,67,71,734
375646,8306176,8860408,8309719,8866775,2962,3760,321,1825,1587,-2764,-522,5475,44,57,738
376660,8306360,8860560,8309916,8866972,2044,3800,382,1685,1708,-2642,-162,5662,44,57,738
377648,8306584,8860800,8310113,8867169,1782,3238,421,1507,1802,-2540,-64,5544,57,58,732
378649,8306724,8861056,8310310,8867366,2333,3114,464,1215,1915,-2494,-210,5306,57,58,732
379650,8306764,8861336,8310507,8867563,3028,2929,518,744,2025,-2334,-254,4957,60,65,738
380651,8306972,8861704,8310704,8867760,1975,2305,577,210,2129,-1987,-259,4915,60,65,738
381652,8307204,8861944,8310901,8867957,1809,3087,629,-219,2231,-1674,-21,5015,43,56,735
382653,8307320,8862168,8311098,8868154,2571,3176,687,-630,2334,-1448,159,4911,43,56,735
383654,8307348,8862364,8311295,8868351,3196,3353,760,-1091,2431,-1267,-26,4877,50,67,739
384655,8307556,8862520,8311492,8868548,2066,3623,885,-1532,2537,-1172,-372,4925,50,67,739
385656,8307768,8862720,8311689,8868745,2036,3347,1045,-1942,2623,-1066,-323,4940,40,69,732
386657,8307792,8863008,8311886,8868942,3288,2758,1226,-2329,2639,-953,30,4981,40,69,732
387658,8307848,8863332,8312083,8869139,3151,2478,1412,-2723,2608,-828,259,4959,35,57,738
388659,8308068,8863576,8312280,8869336,2116,2959,1582,-3065,2581,-703,179,4970,35,57,738
389660,8308252,8863808,8312477,8869533,2347,3019,1734,-3344,2576,-751,54,5143,43,60,736
390661,8308324,8864064,8312674,8869730,3103,2844,1871,-3488,2573,-895,-310,5543,43,60,736
391662,8308404,8864332,8312871,8869927,3106,2739,2001,-3566,2521,-898,-340,5674,54,62,737
392663,8308636,8864552,8313068,8870124,2141,3030,2123,-3522,2437,-876,-16,5892,54,62,737
393664,8308804,8864740,8313265,8870321,2555,3235,2239,-3454,2355,-758,217,5859,51,68,736
394665,8308844,8864928,8313462,8870518,3425,3240,2342,-3325,2295,-744,185,6046,51,68,736
395666,8308968,8865124,8313659,8870715,2932,3192,2434,-3101,2256,-819,39,6162,61,58,736
396666,8309216,8865376,8313856,8870912,2136,2819,2521,-2878,2218,-753,12,6043,61,58,736
397668,8309376,8865628,8314053,8871109,2703,2796,2602,-2640,2175,-647,41,5989,56,58,734
398669,8309452,8865896,8314250,8871306,3282,2666,2696,-2413,2144,-604,95,5653,56,58,734
399670,8309608,8866140,8314447,8871503,2801,2796,2796,-2219,2133,-675,123,5577,42,57,738
400671,8309908,8866356,8314644,8871700,1857,2964,2898,-2033,2152,-790,67,5556,42,57,738
401672,8310028,8866548,8314841,8871897,3017,3117,2992,-1776,2196,-768,-133,5544,56,64,736
402673,8310148,8866700,8315038,8872094,3051,3388,3085,-1493,2255,-703,-247,5367,56,64,736
403674,8310360,8866908,8315235,8872291,2471,3034,3187,-1292,2300,-574,-202,5041,67,57,734
404675,8310608,8867196,8315432,8872488,2224,2495,3276,-1148,2300,-445,-91,4783,67,57,734
405676,8310760,8867440,8315629,8872685,2844,2750,3341,-1028,2271,-403,-44,4564,58,73,737
406677,8310904,8867732,8315826,8872882,2918,2410,3370,-896,2237,-318,-35,4470,58,73,737
407678,8311136,8868004,8316023,8873079,2354,2503,3360,-696,2224,-235,-60,4522,57,80,737
408679,8311428,8868340,8316220,8873276,1938,2043,3316,-446,2240,-134,-274,4536,57,80,737
409680,8311568,8868676,8316417,8873473,2914,1983,3266,-195,2263,-14,-323,4371,65,65,742
410681,8311744,8868880,8316614,8873670,2700,2805,3223,13,2266,248,-244,4125,65,65,742
411682,8312032,8869100,8316811,8873867,1961,2696,3179,167,2246,580,-189,3766,48,64,740
412683,8312228,8869376,8317008,8874064,2537,2312,3136,206,2204,764,-86,3416,48,64,740
413684,8312400,8869696,8317205,8874261,2699,1984,3083,195,2145,841,10,3234,62,82,741
414685,8312620,8870084,8317402,8874458,2390,1476,3019,204,2075,826,319,3069,62,82,741
415686,8312888,8870464,8317599,8874655,2060,1446,2944,193,1977,852,641,2972,59,79,741
416687,8313072,8870840,8317796,8874852,2591,1394,2864,159,1884,1104,490,2870,59,79,741
417688,8313260,8871188,8317993,8875049,2570,1503,2771,159,1798,1348,282,2807,63,78,746
418689,8313532,8871464,8318190,8875246,2013,1919,2660,123,1703,1485,338,2648,63,78,746
419690,8313744,8871732,8318387,8875443,2383,1938,2533,76,1589,1485,624,2576,62,69,743
420691,8313900,8872000,8318584,8875640,2752,1908,2389,44,1449,1451,606,2535,62,69,743
421692,8314120,8872312,8318781,8875837,2343,1584,2220,20,1309,1449,557,2399,48,82,743
422693,8314380,8872740,8318978,8876034,2066,757,2040,-21,1186,1584,520,2187,48,82,743
423694,8314536,8873220,8319175,8876231,2735,309,1862,-73,1089,1811,370,2116,45,81,743
424695,8314708,8873512,8319372,8876428,2647,1442,1718,-128,1050,1905,119,2100,45,81,743
425703,8314996,8873724,8319602,8876658,1898,1951,1593,-150,1040,1838,81,2162,51,62,746
426697,8315200,8874032,8319799,8876855,2420,1302,1476,-104,1041,1746,269,2204,51,62,746
427698,8315368,8874280,8319996,8877052,2658,1656,1345,-110,1013,1730,640,1945,53,71,743
428699,8315604,8874560,8320193,8877249,2217,1420,1191,-126,950,1840,902,1847,53,71,743
429700,8315852,8874944,8320390,8877446,2121,688,1041,-168,848,1811,1213,1676,57,65,743
430701,8315984,8875384,8320587,8877643,2875,232,924,-206,708,1763,1184,1721,57,65,743
431702,8316152,8875708,8320784,8877840,2664,901,827,-179,599,1765,725,1900,35,58,747
432703,8316408,8875972,8320981,8878037,2089,1247,717,-66,534,1773,668,1952,35,58,747
433704,8316624,8876180,8321178,8878234,2332,1593,578,116,485,1824,612,2177,62,64,745
434705,8316764,8876336,8321375,8878431,2832,1936,429,355,450,1795,405,2409,62,64,745
435706,8316996,8876612,8321572,8878628,2242,1152,286,710,417,1735,234,2675,55,76,744
436707,8317260,8877112,8321769,8878825,2014,-381,140,1122,354,1676,202,2703,55,76,744
437708,8317436,8877440,8321966,8879022,2574,637,-16,1529,262,1771,-11,2792,66,69,744
438709,8317628,8877688,8322163,8879219,2477,1115,-178,1933,158,1845,-86,2754,66,69,744
439710,8317960,8877864,8322360,8879416,1544,1575,-346,2325,13,1745,221,2644,47,55,745
440711,8318224,8878052,8322557,8879613,1941,1503,-523,2692,-193,1670,624,2514,47,55,745
441712,8318392,8878220,8322754,8879810,2553,1641,-695,2954,-435,1728,741,2135,70,60,746
442713,8318708,8878428,8322951,8880007,1577,1387,-871,3194,-662,1925,357,2059,70,60,746
443714,8319016,8878816,8323148,8880204,1579,178,-1044,3407,-858,2018,43,1990,57,57,745
444715,8319228,8879088,8323345,8880401,2174,871,-1216,3616,-1045,1951,-221,2038,57,57,745
445716,8319460,8879356,8323542,8880598,2034,865,-1361,3699,-1265,1830,-177,1730,60,42,750
446717,8319844,8879480,8323739,8880795,1002,1797,-1489,3643,-1533,1772,31,1539,60,42,750
447718,8320152,8879604,8323936,8880992,1429,1829,-1595,3586,-1806,1785,-140,1435,60,33,747
448719,8320292,8879712,8324133,8881189,2505,1969,-1723,3420,-2031,1749,-453,1165,60,33,747
449720,8320708,8879928,8324330,8881386,685,1286,-1875,3257,-2206,1671,-624,1313,65,42,747
450721,8321000,8880148,8324527,8881583,1418,1251,-2014,3096,-2349,1669,-683,1289,65,42,747
451722,8321212,8880388,8324724,8881780,1913,1107,-2150,2993,-2461,1716,-772,1526,53,43,748
452723,8321412,8880532,8324921,8881977,1988,1731,-2289,2932,-2543,1513,-639,1799,53,43,748
453724,8321840,8880560,8325118,8882174,461,2531,-2511,3088,-2625,1450,-147,2824,59,39,748
454725,8322056,8880584,8325315,8882371,1779,2632,-2744,3276,-2715,1309,17,2534,59,39,748
455726,8322204,8880664,8325512,8882568,2226,2333,-2941,3196,-2786,1135,-38,1896,53,46,746
456727,8322584,8880952,8325709,8882765,696,994,-3116,3097,-2821,1136,153,2313,53,46,746
457728,8322868,8881172,8325906,8882962,1259,1409,-3191,2763,-2833,847,99,1218,59,54,741
458729,8323048,8881412,8326103,8883159,1916,1265,-3141,2183,-2844,586,85,682,59,54,741
459730,8323224,8881584,8326300,8883356,1951,1702,-3062,1525,-2847,528,136,748,56,26,749
460731,8323624,8881608,8326497,8883553,463,2703,-3013,1048,-2832,387,47,1475,56,26,749
461732,8323788,8881636,8326694,8883750,1953,2753,-3015,764,-2751,222,-448,1928,46,39,745
462733,8323860,8881704,8326891,8883947,2583,2560,-3076,673,-2587,229,-928,2653,46,39,745
463734,8324196,8881944,8327088,8884144,872,1466,-3179,684,-2386,175,-684,3043,53,41,741
464735,8324400,8882148,8327285,8884341,1695,1689,-3278,671,-2214,74,-293,3009,53,41,741
465736,8324532,8882416,8327482,8884538,2174,1258,-3372,608,-2068,53,8,3045,53,30,747
466737,8324568,8882544,8327679,8884735,2846,2163,-3442,314,-1911,104,309,2491,53,30,747
467738,8324920,8882548,8327876,8884932,803,3024,-3490,-37,-1733,242,730,2502,53,37,745
468739,8325076,8882504,8328073,8885129,2047,3430,-3536,-328,-1550,278,1045,2847,53,37,745
469740,8325124,8882600,8328270,8885326,2788,2600,-3574,-591,-1352,320,989,3101,59,32,741
470741,8325444,8882836,8328467,8885523,1034,1708,-3612,-700,-1102,434,821,3674,59,32,741
471742,8325732,8883056,8328664,8885720,1195,1799,-3637,-710,-852,449,820,3970,51,37,737
472743,8325972,8883284,8328861,8885917,1476,1736,-3646,-732,-654,371,639,4037,51,37,737
473744,8326040,8883460,8329058,8886114,2609,2071,-3646,-800,-513,351,34,4050,46,40,747
474745,8326364,8883484,8329255,8886311,953,3097,-3621,-945,-420,481,-141,3814,46,40,747
475746,8326648,8883424,8329452,8886508,1166,3736,-3570,-1201,-366,718,-98,3680,55,30,742
476747,8326700,8883556,8329649,8886705,2680,2565,-3544,-1426,-345,960,88,3997,55,30,742
477748,8326868,8883748,8329846,8886902,1968,2193,-3548,-1623,-334,1197,349,4169,64,54,739
478750,8327196,8884020,8330043,8887099,912,1661,-3553,-1803,-307,1469,18,4336,64,54,739
479750,8327428,8884296,8330240,8887296,1496,1601,-3552,-1873,-234,1716,-359,4700,43,44,741
480751,8327484,8884516,8330437,8887493,2659,1942,-3576,-1915,-145,1819,-254,4912,43,44,741
481752,8327744,8884668,8330634,8887690,1357,2387,-3632,-1918,-85,1893,88,5105,50,35,747
482753,8328044,8884612,8330831,8887887,1062,3799,-3690,-1932,-73,1870,352,5107,50,35,747
483754,8328148,8884664,8331028,8888084,2328,3188,-3716,-1924,-99,1903,504,5434,39,33,742
484755,8328268,8884848,8331225,8888281,2263,2369,-3727,-1789,-146,1795,532,5897,39,33,742
485756,8328628,8885100,8331422,8888478,691,1921,-3729,-1529,-181,1755,-46,6295,53,49,736
486757,8328880,8885364,8331619,8888675,1343,1818,-3719,-1129,-194,1636,-570,6875,53,49,736
487758,8329016,8885616,8331816,8888872,2096,1868,-3670,-664,-208,1621,-872,6934,50,45,747
488759,8329188,8885804,8332013,8889069,1882,2273,-3568,-278,-251,1740,-969,6683,50,45,747
489760,8329500,8885780,8332210,8889266,957,3695,-3432,43,-337,1865,-983,6663,58,36,744
490761,8329720,8885800,8332407,8889463,1522,3499,-3262,368,-463,1766,-1060,6723,58,36,744
491762,8329744,8885968,8332604,8889660,2824,2588,-3086,687,-599,1513,-1361,6801,65,46,739
492763,8330040,8886124,8332801,8889857,1081,2682,-2925,1136,-696,1261,-1735,7394,65,46,739
493764,8330340,8886404,8332998,8890054,1012,1871,-2771,1657,-768,999,-1661,7506,51,46,737
494765,8330488,8886612,8333195,8890251,1983,2317,-2631,2176,-864,804,-1012,7483,51,46,737
495766,8330492,8886856,8333392,8890448,2969,2072,-2505,2574,-986,763,-581,7164,51,42,746
496767,8330844,8886844,8333589,8890645,726,3764,-2354,2752,-1102,863,-436,6614,51,42,746
497768,8331064,8886896,8333786,8890842,1542,3429,-2171,2799,-1207,1081,-326,6187,41,46,739
498769,8331072,8887024,8333983,8891039,2950,2985,-1953,2710,-1240,1273,-948,5828,41,46,739
499770,8331256,8887228,8334180,8891236,1856,2508,-1706,2537,-1177,1251,-1370,5637,54,63,738
500771,8331580,8887484,8334377,8891433,926,2157,-1462,2365,-1062,1097,-1234,5660,54,63,738
501772,8331788,8887784,8334574,8891630,1647,1838,-1238,2246,-916,930,-1002,5827,60,64,740
502773,8331800,8888100,8334771,8891827,2953,1686,-1004,2117,-730,949,-949,5726,60,64,740
503774,8332032,8888288,8334968,8892024,1564,2490,-765,1925,-518,1101,-946,5660,41,55,746
504775,8332328,8888452,8335165,8892221,1121,2656,-555,1765,-293,1225,-935,5828,41,55,746
505776,8332468,8888588,8335362,8892418,2121,2859,-401,1737,-99,1135,-530,6049,37,57,742
506777,8332468,8888712,8335559,8892615,3084,2967,-263,1800,43,760,-272,6287,37,57,742
507778,8332792,8888936,8335756,8892812,1003,2330,-134,1863,150,375,-398,6407,53,51,739
508786,8332992,8889216,8335986,8893042,1792,1959,-2,1968,199,90,-368,6437,53,51,739
509780,8333004,8889508,8336183,8893239,3049,1843,143,2045,200,-58,-400,6424,50,55,743
510781,8333164,8889792,8336380,8893436,2141,1856,298,2153,172,-175,-753,6442,50,55,743
511782,8333428,8889912,8336577,8893633,1462,2915,434,2261,145,-307,-1216,6454,52,51,740
512783,8333684,8890044,8336774,8893830,1486,2869,558,2347,142,-305,-1390,6358,52,51,740
513784,8333652,8890196,8336971,8894027,3388,2765,662,2437,175,-221,-1626,6381,48,62,741
514785,8333876,8890368,8337168,8894224,1776,2651,778,2524,250,-184,-1885,6178,48,62,741
515786,8334148,8890652,8337365,8894421,1444,1914,904,2502,328,-289,-1686,5927,54,58,735
516787,8334272,8890908,8337562,8894618,2402,2064,1023,2397,379,-294,-1219,5711,54,58,735
517788,8334288,8891224,8337759,8894815,3157,1638,1121,2181,357,-291,-353,5252,32,40,745
518789,8334540,8891340,8337956,8895012,1659,2923,1188,1934,250,-295,165,5106,32,40,745
519790,8334844,8891456,8338153,8895209,1288,2960,1256,1577,131,-200,-102,4865,53,46,741
520791,8334900,8891560,8338350,8895406,2900,3077,1326,1248,88,34,-594,4911,53,46,741
521792,8334944,8891684,8338547,8895603,3043,2984,1391,936,115,149,-227,4807,54,47,742
522793,8335296,8891896,8338744,8895800,1051,2428,1403,637,186,119,79,4801,54,47,742
523794,8335504,8892164,8338941,8895997,1946,2048,1359,333,282,-56,242,4650,50,62,734
524795,8335508,8892472,8339138,8896194,3307,1750,1301,-55,375,-222,237,4511,50,62,734
525796,8335656,8892716,8339335,8896391,2429,2129,1284,-446,484,-189,-353,4359,54,43,745
526797,8335932,8892836,8339532,8896588,1595,2939,1339,-824,642,-297,-759,4315,54,43,745
527798,8336116,8892956,8339729,8896785,2176,2974,1440,-1172,846,-516,-940,4381,58,44,737
528799,8336168,8893092,8339926,8896982,3066,2901,1546,-1451,1077,-708,-942,4582,58,44,737
529800,8336416,8893272,8340123,8897179,1819,2634,1619,-1579,1310,-864,-263,4897,42,49,741
530801,8336664,8893532,8340320,8897376,1797,2108,1685,-1595,1515,-969,20,5194,42,49,741
531802,8336800,8893844,8340517,8897573,2525,1733,1770,-1462,1704,-1110,-186,5403,53,59,736
532803,8336860,8894112,8340714,8897770,3061,1977,1888,-1255,1890,-1363,-402,5572,53,59,736
533804,8337128,8894308,8340911,8897967,1730,2428,2037,-991,2063,-1461,-1031,5724,57,50,745
534805,8337376,8894496,8341108,8898164,1834,2483,2181,-728,2208,-1547,-1434,5581,57,50,745
535806,8337440,8894652,8341305,8898361,3043,2701,2297,-444,2283,-1688,-1361,5543,58,50,740
536807,8337560,8894832,8341502,8898558,2727,2560,2385,-205,2254,-1902,-825,5379,58,50,740
537808,8337848,8895040,8341699,8898755,1638,2381,2437,21,2193,-1925,-825,5293,56,55,743
538809,8338060,8895324,8341896,8898952,2107,1869,2465,183,2185,-1836,-515,5013,56,55,743
539810,8338080,8895552,8342093,8899149,3386,2205,2482,331,2211,-1684,-58,4911,51,57,739
540811,8338192,8895800,8342290,8899346,2848,2059,2481,402,2277,-1421,-491,4611,51,57,739
541812,8338448,8896008,8342487,8899543,1923,2305,2482,448,2404,-1038,-1272,4344,45,73,746
542813,8338600,8896248,8342684,8899740,2594,2086,2500,357,2569,-772,-1671,3873,45,73,746
543814,8338624,8896472,8342881,8899937,3471,2175,2527,190,2754,-619,-1711,3623,51,65,741
544815,8338780,8896668,8343078,8900134,2665,2352,2532,-38,2945,-437,-1472,3341,51,65,741
545816,8339032,8896896,8343275,8900331,2041,2138,2544,-319,3103,-355,-894,3220,57,64,742
546817,8339092,8897148,8343472,8900528,3302,1965,2559,-580,3144,-364,127,3227,57,64,742
547818,8339112,8897420,8343669,8900725,3631,1808,2583,-843,3101,-151,-210,3099,57,63,741
548819,8339384,8897712,8343866,8900922,2024,1641,2617,-989,3059,129,-479,3447,57,63,741
549820,8339632,8897964,8344063,8901119,2153,1868,2650,-1048,3002,127,177,3633,44,63,739
550821,8339732,8898292,8344260,8901316,3121,1335,2671,-937,2924,174,369,3952,44,63,739
551822,8339808,8898476,8344457,8901513,3325,2242,2665,-721,2850,248,-49,4167,55,67,747
552823,8340120,8898600,8344654,8901710,1800,2650,2623,-468,2796,301,-810,4278,55,67,747
553824,8340252,8898732,8344851,8901907,2955,2629,2532,-243,2728,201,-1146,4238,65,56,743
554825,8340264,8898904,8345048,8902104,3787,2391,2439,15,2642,80,-811,4195,65,56,743
555826,8340456,8899128,8345245,8902301,2665,2054,2372,312,2526,-24,230,4207,40,63,742
556827,8340712,8899360,8345442,8902498,2240,1990,2365,615,2384,-60,586,4199,40,63,742
557828,8340836,8899664,8345639,8902695,3098,1493,2425,968,2268,104,-227,4267,40,59,734
558842,8340852,8900004,8345836,8902892,3800,1206,2551,1295,2180,253,-667,4008,40,59,734
559830,8341008,8900324,8346033,8903089,2998,1278,2666,1648,2071,141,228,4042,53,72,745
560831,8341236,8900540,8346230,8903286,2535,1919,2737,1897,1912,56,733,3573,53,72,745
561832,8341308,8900780,8346427,8903483,3566,1751,2753,2021,1716,-55,777,3288,52,68,738
562833,8341372,8901060,8346624,8903680,3676,1465,2718,2111,1531,-59,355,3195,52,68,738
563834,8341612,8901424,8346821,8903877,2558,867,2642,2202,1408,52,116,3138,58,90,744
564835,8341760,8901784,8347018,8904074,3155,821,2538,2447,1348,163,100,3548,58,90,744
565836,8341836,8902164,8347215,8904271,3659,616,2407,2692,1353,230,-309,3445,57,88,738
566837,8341972,8902524,8347412,8904468,3312,670,2233,2979,1394,341,-432,3513,57,88,738
567838,8342224,8902836,8347609,8904665,2564,919,2020,3185,1444,450,-599,3156,56,81,744
568839,8342364,8903160,8347806,8904862,3290,789,1817,3287,1443,422,-210,2818,56,81,744
569840,8342452,8903476,8348003,8905059,3664,787,1639,3324,1358,290,148,2478,61,82,743
570841,8342692,8903868,8348200,8905256,2696,226,1474,3208,1170,113,728,2046,61,82,743
571842,8342904,8904172,8348397,8905453,2865,730,1311,3036,905,80,1028,1920,50,89,743
572843,8343036,8904500,8348594,8905650,3395,523,1169,2800,630,96,1277,1756,50,89,743
573844,8343184,8904932,8348791,8905847,3318,-230,1021,2627,363,136,1551,1887,48,81,748
574845,8343444,8905188,8348988,8906044,2591,844,860,2439,91,145,1761,1844,48,81,748
575846,8343636,8905428,8349185,8906241,3019,925,671,2352,-198,185,1753,2188,54,67,744
576847,8343788,8905596,8349382,8906438,3290,1389,467,2361,-497,154,1641,2328,54,67,744
577848,8344012,8905776,8349579,8906635,2829,1321,251,2423,-791,3,1503,2521,64,63,746
578849,8344256,8906048,8349776,8906832,2684,713,-5,2572,-1080,-21,1565,2840,64,63,746
579850,8344412,8906340,8349973,8907029,3253,546,-318,2738,-1357,-3,1642,2862,46,53,741
580851,8344560,8906652,8350170,8907226,3326,371,-670,2961,-1590,4,1801,3082,46,53,741
581852,8344828,8906800,8350367,8907423,2546,1417,-1029,3118,-1751,100,1866,2883,56,58,746
582853,8345040,8906944,8350564,8907620,2890,1466,-1352,3249,-1823,203,1680,2873,56,58,746
583854,8345196,8906992,8350761,8907817,3259,2132,-1594,3313,-1849,313,1764,2548,50,36,743
584855,8345344,8907044,8350958,8908014,3332,2171,-1772,3250,-1904,391,1859,2214,50,36,743
585856,8345616,8907220,8351155,8908211,2526,1405,-1899,3017,-2020,342,1961,1851,51,43,742
586857,8345800,8907444,8351352,8908408,3082,1093,-2004,2675,-2216,254,2105,1629,51,43,742
587858,8345960,8907768,8351549,8908605,3250,412,-2122,2379,-2488,53,2070,1786,61,41,738
588859,8346208,8907940,8351746,8908802,2678,1373,-2257,2121,-2790,-195,1604,1873,61,41,738
589860,8346416,8908072,8351943,8908999,2924,1653,-2417,1975,-3076,-311,910,2337,41,34,742
590861,8346552,8908108,8352140,8909196,3402,2324,-2583,1929,-3314,-393,394,2543,41,34,742
591871,8346688,8908048,8352370,8909426,3444,3051,-2752,1931,-3526,-535,53,2837,59,31,743
592863,8346932,8908180,8352567,8909623,2750,1880,-2934,2043,-3740,-765,-337,3193,59,31,743
593864,8347044,8908408,8352764,8909820,3613,1267,-3121,2190,-3937,-990,-719,3436,61,51,736
594865,8347176,8908796,8352961,8910017,3518,183,-3305,2451,-4081,-1119,-1095,3825,61,51,736
595866,8347376,8909020,8353158,8910214,3092,1196,-3481,2737,-4163,-1308,-1334,4028,41,43,740
596867,8347592,8909172,8353355,8910411,2985,1666,-3662,3068,-4192,-1403,-1511,4371,41,43,740
597868,8347740,8909276,8353552,8910608,3433,2008,-3809,3292,-4180,-1453,-1603,3917,58,29,743
598869,8347900,8909268,8353749,8910805,3376,2798,-3887,3308,-4138,-1523,-1666,3442,58,29,743
599870,8348172,8909244,8353946,8911002,2644,2995,-3911,3129,-4082,-1490,-1725,3087,66,39,740
600871,8348368,8909348,8354143,8911199,3120,2236,-3891,2789,-4015,-1570,-1820,2735,66,39,740
601872,8348500,8909672,8354340,8911396,3550,806,-3816,2319,-3915,-1722,-1968,2376,66,55,733
602873,8348656,8909972,8354537,8911593,3419,911,-3738,1813,-3762,-1706,-2235,2542,66,55,733
603874,8348964,8910196,8354734,8911790,2421,1374,-3687,1390,-3538,-1731,-2567,2910,51,62,738
604875,8349196,8910356,8354931,8911987,2882,1791,-3640,1003,-3270,-1826,-2917,3134,51,62,738
605876,8349352,8910480,8355128,8912184,3376,2048,-3589,628,-2974,-1944,-3029,3382,44,36,741
606877,8349612,8910472,8355325,8912381,2699,2963,-3541,264,-2674,-2003,-3031,3589,44,36,741
607878,8349928,8910484,8355522,8912578,2298,2921,-3498,-48,-2390,-1966,-3019,3805,53,49,741
608879,8350112,8910652,8355719,8912775,3131,1958,-3417,-407,-2116,-1971,-2898,3924,53,49,741
609880,8350276,8910920,8355916,8912972,3271,1302,-3304,-704,-1855,-1984,-2623,4302,54,52,738
610881,8350616,8911176,8356113,8913169,2109,1352,-3178,-904,-1630,-1942,-2047,4779,54,52,738
611882,8350916,8911356,8356310,8913366,2315,1835,-3060,-944,-1446,-1921,-1643,5376,54,50,739
612883,8351128,8911588,8356507,8913563,2859,1495,-2940,-927,-1286,-1820,-1275,5613,54,50,739
613884,8351324,8911640,8356704,8913760,2961,2684,-2802,-864,-1151,-1683,-867,5828,56,31,746
614885,8351776,8911600,8356901,8913957,1250,3363,-2653,-840,-1066,-1538,-470,5941,56,31,746
615886,8352028,8911628,8357098,8914154,2477,3014,-2473,-853,-1039,-1341,-208,5938,64,36,742
616887,8352216,8911780,8357295,8914351,2881,2258,-2238,-887,-1042,-1108,-12,5967,64,36,742
617888,8352508,8912024,8357492,8914548,2191,1664,-1945,-940,-1064,-846,-43,5937,62,50,740
618889,8352908,8912216,8357689,8914745,1428,1991,-1625,-1025,-1076,-506,-93,6012,62,50,740
619890,8353208,8912408,8357886,8914942,2008,1994,-1303,-1140,-1070,-149,-63,5932,78,41,740
620891,8353440,8912584,8358083,8915139,2418,2103,-980,-1280,-1058,118,95,5949,78,41,740
621892,8353768,8912632,8358280,8915336,1761,2970,-661,-1455,-1056,366,315,5954,84,28,746
622906,8354192,8912528,8358477,8915533,1063,3800,-358,-1623,-1065,643,96,6053,84,28,746
623894,8354380,8912668,8358674,8915730,2543,2553,-48,-1761,-1046,992,-249,6303,70,47,742
624895,8354628,8912832,8358871,8915927,2146,2418,273,-1872,-1009,1255,-272,6488,70,47,742
625896,8355056,8913052,8359068,8916124,921,2059,606,-1949,-1008,1319,-119,6579,83,38,737
626897,8355404,8913200,8359265,8916321,1354,2531,934,-2044,-1024,1374,-74,6347,83,38,737
627898,8355632,8913448,8359462,8916518,2092,1884,1213,-2123,-1069,1347,132,6196,62,39,742
628899,8355904,8913532,8359659,8916715,1785,2959,1449,-2169,-1164,1267,483,6132,62,39,742
629912,8356312,8913404,8359856,8916912,843,3800,1673,-2232,-1296,1143,584,6097,67,29,744
630901,8356556,8913500,8360053,8917109,1847,3072,1898,-2216,-1430,1066,271,6250,67,29,744
631902,8356728,8913636,8360250,8917306,2309,2850,2113,-2113,-1545,909,-124,6445,62,37,741
632903,8357052,8913860,8360447,8917503,1304,2288,2310,-1930,-1631,778,-510,6537,62,37,741
633904,8357456,8914068,8360644,8917700,713,2385,2505,-1717,-1669,676,-888,6477,59,41,739
634905,8357624,8914260,8360841,8917897,2202,2488,2718,-1527,-1656,471,-917,6326,59,41,739
635906,8357740,8914464,8361038,8918094,2563,2411,2915,-1360,-1626,275,-452,6164,62,40,745
636920,8358080,8914364,8361235,8918291,1101,3800,3110,-1237,-1612,91,40,5804,62,40,745
637908,8358428,8914388,8361432,8918488,986,3743,3305,-1203,-1592,-40,158,5545,66,47,741
638909,8358540,8914516,8361629,8918685,2498,3125,3511,-1167,-1554,-264,192,5346,66,47,741
639910,8358740,8914660,8361826,8918882,1948,3049,3731,-1144,-1484,-549,107,5161,58,43,737
640911,8359148,8914944,8362023,8919079,555,2136,3952,-1119,-1382,-776,-98,5083,58,43,737
641912,8359380,8915136,8362220,8919276,1641,2714,4151,-1119,-1245,-831,-184,4871,74,43,736
642913,8359508,8915416,8362417,8919473,2322,2128,4312,-1021,-1077,-939,-215,5001,74,43,736
643914,8359788,8915480,8362614,8919670,1335,3538,4423,-907,-910,-1196,-206,4790,62,50,748
644928,8360224,8915440,8362811,8919867,256,3800,4483,-861,-762,-1413,-159,4568,62,50,748
645916,8360396,8915560,8363008,8920064,1917,3327,4517,-826,-635,-1610,-89,4381,83,52,742
646917,8360556,8915700,8363205,8920261,2010,3228,4542,-834,-501,-1729,-159,4062,83,52,742
647918,8360940,8915980,8363402,8920458,527,2317,4562,-824,-366,-1871,-283,3839,70,55,740
648919,8361292,8916256,8363599,8920655,660,2309,4554,-927,-235,-1948,-300,3520,70,55,740
649920,8361484,8916516,8363796,8920852,1663,2382,4524,-1031,-112,-1909,-260,3363,74,47,738
650921,8361612,8916760,8363993,8921049,2093,2462,4457,-1145,13,-1925,-239,3134,74,47,738
651935,8362016,8916800,8364190,8921246,278,3800,4381,-1236,145,-1926,-239,2938,71,50,747
652936,8362268,8916832,8364387,8921443,1204,3800,4263,-1460,276,-1760,-201,2604,71,50,747
653924,8362308,8916992,8364584,8921640,2599,3147,4131,-1651,419,-1525,-231,2529,74,60,741
654925,8362532,8917184,8364781,8921837,1437,2950,3970,-1907,607,-1267,-386,2244,74,60,741
655926,8362880,8917524,8364978,8922034,596,1963,3799,-2243,829,-1042,-524,1852,63,71,738
656927,8363072,8917796,8365175,8922231,1574,2356,3591,-2619,1082,-814,-442,1746,63,71,738
657928,8363092,8918148,8365372,8922428,2726,1789,3374,-2972,1346,-619,-146,1598,36,51,742
658929,8363324,8918276,8365569,8922625,1387,3220,3137,-3354,1589,-499,154,1390,36,51,742
659930,8363632,8918344,8365766,8922822,863,3652,2901,-3757,1798,-357,381,1371,37,61,744
660931,8363664,8918496,8365963,8923019,2662,3148,2643,-4083,1973,-103,512,1523,37,61,744
661932,8363724,8918688,8366160,8923216,2547,2901,2357,-4361,2123,116,616,1547,42,66,740
662933,8364068,8918968,8366357,8923413,708,2316,2051,-4566,2242,308,629,1768,42,66,740
663934,8364272,8919240,8366554,8923610,1580,2334,1721,-4707,2353,477,463,1988,49,51,737
664935,8364324,8919572,8366751,8923807,2594,1900,1376,-4747,2461,650,273,2224,49,51,737
665936,8364384,8919764,8366948,8924004,2605,2778,1008,-4651,2559,813,172,2645,45,56,747
666937,8364716,8919808,8367145,8924201,846,3771,643,-4485,2617,868,268,2812,45,56,747
667950,8364888,8919828,8367342,8924398,1858,3800,279,-4262,2624,999,315,3052,42,41,740
668939,8364836,8919936,8367539,8924595,3367,3490,-83,-3978,2590,1117,266,3206,42,41,740
669940,8365008,8920116,8367736,8924792,1979,3048,-440,-3647,2515,1261,151,3330,40,48,736
670941,8365324,8920356,8367933,8924989,1027,2655,-770,-3327,2424,1450,100,3264,40,48,736
671942,8365440,8920596,8368130,8925186,2314,2637,-1083,-3057,2294,1563,258,3196,54,52,728
672943,8365472,8920888,8368327,8925383,2911,2271,-1401,-2763,2131,1611,367,3334,54,52,728
673944,8365656,8921004,8368524,8925580,1968,3407,-1731,-2532,1943,1679,353,3222,35,33,744
674964,8365988,8920992,8368754,8925810,998,3800,-2050,-2328,1747,1815,285,3227,35,33,744
675959,8366060,8921004,8368951,8926007,2679,3800,-2344,-2148,1571,1875,214,3293,45,31,739
676960,8366124,8921008,8369148,8926204,2788,3800,-2595,-1912,1386,1951,135,3438,45,31,739
677948,8366420,8921156,8369345,8926401,1295,3505,-2805,-1666,1180,1931,83,3524,65,50,737
678949,8366720,8921352,8369542,8926598,1226,3207,-2965,-1427,979,1860,41,3664,65,50,737
679950,8366812,8921628,8369739,8926795,2572,2673,-3103,-1126,793,1792,4,3970,69,47,731
680951,8366868,8921820,8369936,8926992,2860,3201,-3243,-724,630,1690,4,4477,69,47,731
681952,8367212,8921964,8370133,8927189,995,3526,-3377,-269,484,1459,202,4653,60,38,740
682966,8367504,8921944,8370330,8927386,1279,3800,-3475,180,334,1219,376,4721,60,38,740
683967,8367572,8921956,8370527,8927583,2736,3800,-3540,635,191,1035,266,4906,70,32,734
684968,8367712,8922016,8370724,8927780,2312,3800,-3568,1060,73,862,85,4872,70,32,734
685968,8368028,8922108,8370921,8927977,1161,3800,-3534,1402,-18,567,-27,4698,55,55,737
686957,8368332,8922280,8371118,8928174,1189,3650,-3441,1593,-84,277,67,4553,55,55,737
687958,8368404,8922560,8371315,8928371,2695,2939,-3304,1755,-125,30,353,4579,64,37,734
688959,8368544,8922768,8371512,8928568,2295,3385,-3161,1910,-130,-202,469,4695,64,37,734
689960,8368892,8922916,8371709,8928765,929,3784,-3003,2100,-124,-430,398,4824,56,35,738
690974,8369152,8922952,8371906,8928962,1452,3800,-2827,2278,-91,-728,187,4913,56,35,738
691975,8369228,8923040,8372103,8929159,2656,3800,-2627,2448,-27,-955,-94,5169,70,38,736
692976,8369384,8923072,8372300,8929356,2174,3800,-2430,2589,48,-1293,-8,5217,70,38,736
693977,8369732,8923220,8372497,8929553,909,3800,-2241,2702,151,-1533,-322,5173,66,53,736
694965,8369928,8923416,8372694,8929750,1859,3702,-2065,2749,278,-1614,-679,5179,66,53,736
695966,8370012,8923688,8372891,8929947,2610,3196,-1892,2708,419,-1601,-590,4937,66,57,734
696967,8370172,8923924,8373088,8930144,2152,3405,-1695,2586,555,-1655,-290,4657,66,57,734
697968,8370504,8924104,8373285,8930341,1018,3763,-1481,2316,679,-1692,-277,4451,61,45,737
698982,8370704,8924256,8373482,8930538,1842,3800,-1260,1943,809,-1717,-188,4263,61,45,737
699983,8370772,8924428,8373679,8930735,2724,3800,-1044,1577,924,-1749,-50,4298,67,58,736
700984,8370956,8924556,8373876,8930932,2006,3800,-842,1274,1011,-1814,-48,4545,67,58,736
701985,8371300,8924712,8374073,8931129,941,3800,-658,994,1105,-1932,-202,4728,66,58,735
702973,8371392,8924976,8374270,8931326,2563,3294,-476,726,1212,-1994,-244,4737,66,58,735
703974,8371476,8925216,8374467,8931523,2663,3426,-289,432,1332,-1956,-224,4703,57,57,735
704975,8371644,8925472,8374664,8931720,2152,3301,-116,144,1474,-1908,-428,4897,57,57,735
705976,8371976,8925744,8374861,8931917,1067,3170,22,-68,1668,-1960,-892,5164,64,75,735
706977,8372068,8925976,8375058,8932114,2614,3406,158,-366,1834,-1944,-600,4833,64,75,735
707978,8372100,8926224,8375255,8932311,3063,3284,274,-633,1942,-1770,-128,5165,58,52,738
708979,8372320,8926404,8375452,8932508,1878,3718,375,-775,2021,-1622,91,5376,58,52,738
709980,8372592,8926588,8375649,8932705,1521,3700,487,-992,2094,-1587,188,5099,54,76,736
710981,8372680,8926860,8375846,8932902,2719,3118,605,-1256,2190,-1387,215,5066,54,76,736
711982,8372744,8927136,8376043,8933099,2928,3060,733,-1566,2279,-1147,234,4925,45,69,736
712983,8372948,8927444,8376240,8933296,2051,2812,870,-1856,2349,-1043,204,4915,45,69,736
713984,8373168,8927720,8376437,8933493,1941,2978,1025,-2131,2424,-952,269,4958,41,75,736
714985,8373216,8927968,8376634,8933690,3083,3132,1197,-2314,2490,-915,392,5205,41,75,736
715986,8373248,8928204,8376831,8933887,3255,3191,1376,-2454,2542,-829,509,5121,42,59,740
716987,8373560,8928436,8377028,8934084,1456,3202,1551,-2604,2588,-699,359,5112,42,59,740
717988,8373676,8928704,8377225,8934281,2717,2946,1710,-2714,2640,-654,159,5228,64,81,733
718989,8373736,8928936,8377422,8934478,3127,3157,1856,-2788,2666,-675,100,5214,64,81,733
719990,8373824,8929172,8377619,8934675,3001,3116,1998,-2849,2658,-662,19,5204,39,67,741
720991,8374108,8929456,8377816,8934872,1739,2779,2136,-2891,2645,-665,-13,5175,39,67,741
721992,8374284,8929772,8378013,8935069,2424,2527,2251,-2833,2628,-664,-150,5401,51,68,734
722993,8374356,8930068,8378210,8935266,3129,2610,2336,-2706,2620,-572,-243,5460,51,68,734
723994,8374456,8930356,8378407,8935463,2998,2621,2403,-2525,2645,-482,-412,5489,58,66,742
724995,8374712,8930612,8378604,8935660,1998,2796,2459,-2296,2702,-434,-480,5524,58,66,742
725996,8374872,8930864,8378801,8935857,2615,2798,2513,-2119,2758,-415,-255,5281,52,75,736
726997,8374940,8931124,8378998,8936054,3247,2721,2570,-1982,2799,-330,-116,5067,52,75,736
727998,8375112,8931364,8379195,8936251,2609,2828,2626,-1846,2829,-288,-59,4912,44,66,740
728999,8375336,8931620,8379392,8936448,2273,2703,2676,-1691,2854,-319,18,4914,44,66,740
730000,8375532,8931844,8379589,8936645,2449,2892,2733,-1533,2859,-425,183,4822,62,62,736
731001,8375632,8932084,8379786,8936842,3092,2774,2796,-1328,2842,-412,297,4829,62,62,736
732002,8375848,8932392,8379983,8937039,2360,2302,2858,-1065,2817,-307,171,4800,55,68,741
733003,8376056,8932792,8380180,8937236,2406,1638,2910,-845,2785,-199,-43,4625,55,68,741
734004,8376208,8933064,8380377,8937433,2777,2406,2951,-605,2754,-129,-172,4591,65,66,736
735005,8376328,8933304,8380574,8937630,3011,2588,2979,-377,2709,0,-135,4385,65,66,736
736006,8376640,8933492,8380771,8937827,1761,2918,2995,-152,2668,129,-94,4241,63,68,744
737007,8376872,8933796,8380968,8938024,2247,2147,3000,53,2624,215,64,4089,63,68,744
738008,8377004,8934084,8381165,8938221,2901,2208,2983,287,2561,324,-11,4024,62,73,736
739009,8377232,8934372,8381362,8938418,2288,2169,2944,514,2499,466,-58,3868,62,73,736
740010,8377488,8934784,8381559,8938615,2089,1299,2881,690,2437,662,-20,3576,54,73,743
741011,8377668,8935144,8381756,8938812,2571,1553,2810,813,2353,900,30,3287,54,73,743
742012,8377864,8935532,8381953,8939009,2472,1295,2746,848,2254,1123,23,2931,60,68,743
743013,8378116,8935812,8382150,8939206,2099,1934,2698,868,2157,1286,-175,2786,60,68,743
744014,8378360,8936068,8382347,8939403,2130,2059,2658,882,2086,1287,-293,2750,56,66,743
745015,8378512,8936320,8382544,8939600,2724,2061,2619,853,2015,1263,-233,2499,56,66,743
746016,8378700,8936624,8382741,8939797,2504,1689,2571,771,1906,1333,-120,2222,64,77,744
747017,8378976,8937104,8382938,8939994,1921,466,2513,671,1755,1479,-56,2000,64,77,744
748018,8379184,8937468,8383135,8940191,2342,1118,2445,523,1596,1634,-129,1882,62,80,741
749019,8379356,8937832,8383332,8940388,2578,1045,2367,410,1467,1575,-174,2020,62,80,741
750020,8379612,8938124,8383529,8940585,2028,1454,2278,419,1373,1416,-86,2199,47,69,749
751021,8379840,8938376,8383726,8940782,2190,1680,2157,522,1302,1390,1,2255,47,69,749
752022,8380028,8938628,8383923,8940979,2445,1656,2014,629,1252,1524,70,2281,42,78,746
753023,8380208,8938840,8384120,8941176,2503,1900,1868,803,1230,1639,-2,2353,42,78,746
754024,8380464,8939164,8384317,8941373,2003,1144,1741,975,1213,1597,10,2263,60,65,745
755025,8380724,8939568,8384514,8941570,1951,554,1627,1138,1176,1424,179,2271,60,65,745
756026,8380892,8939912,8384711,8941767,2540,865,1509,1298,1112,1339,541,2174,60,73,743
757027,8381104,8940184,8384908,8941964,2258,1283,1368,1424,1015,1408,997,1907,60,73,743
758035,8381352,8940408,8385138,8942194,2026,1585,1206,1540,905,1545,1409,1824,59,72,749
759029,8381508,8940584,8385335,8942391,2620,1895,1050,1595,779,1565,1629,1643,59,72,749
760030,8381612,8940788,8385532,8942588,2986,1718,910,1664,665,1602,1442,1712,57,61,745
761031,8381852,8941152,8385729,8942785,2118,644,796,1746,609,1654,858,1668,57,61,745
762032,8382088,8941504,8385926,8942982,2127,651,698,1856,584,1753,414,1621,51,72,742
763033,8382244,8941820,8386123,8943179,2646,824,587,1936,542,1721,353,1543,51,72,742
764034,8382440,8942100,8386320,8943376,2397,1013,462,1965,461,1704,191,1376,57,64,749
765035,8382700,8942280,8386517,8943573,1970,1646,313,1965,351,1672,9,1264,57,64,749
766036,8382876,8942480,8386714,8943770,2505,1519,147,1966,221,1541,-127,1270,61,52,745
767037,8382996,8942640,8386911,8943967,2890,1786,-54,2058,65,1459,-210,1548,61,52,745
768038,8383304,8942900,8387108,8944164,1666,1134,-278,2184,-126,1256,171,1679,56,53,745
769039,8383624,8943208,8387305,8944361,1538,785,-542,2390,-359,1131,296,2017,56,53,745
770040,8383812,8943504,8387502,8944558,2368,817,-844,2675,-610,1172,90,2110,56,51,741
771041,8384096,8943808,8387699,8944755,1731,720,-1179,2946,-862,1166,133,2097,56,51,741
772042,8384400,8943972,8387896,8944952,1559,1610,-1528,3209,-1119,1083,440,2025,68,60,750
773043,8384656,8944116,8388093,8945149,1834,1758,-1876,3397,-1388,977,716,1857,68,60,750
774044,8384856,8944240,8388290,8945346,2184,1916,-2201,3600,-1629,919,292,1979,69,52,751
775045,8385192,8944452,8388487,8945543,1272,1359,-2505,3681,-1813,878,-173,1750,69,52,751
776046,8385488,8944760,8388684,8945740,1480,710,-2761,3659,-1990,866,-226,1504,76,49,747
777047,8385704,8945020,8388881,8945937,1972,983,-2961,3516,-2168,810,-475,1228,76,49,747
778048,8385960,8945280,8389078,8946134,1697,956,-3117,3201,-2328,811,-686,800,62,50,749
779049,8386300,8945400,8389275,8946331,1110,1865,-3261,2805,-2474,755,-783,747,62,50,749
780050,8386568,8945460,8389472,8946528,1529,2300,-3376,2373,-2606,674,-852,755,54,36,748
781051,8386724,8945520,8389669,8946725,2248,2360,-3508,2090,-2708,812,-879,1534,54,36,748
782052,8387076,8945712,8389866,8946922,955,1537,-3709,2102,-2733,835,-896,2690,75,45,747
783053,8387380,8945956,8390063,8947119,1209,1193,-3909,2122,-2681,765,-942,2390,75,45,747
784054,8387604,8946168,8390260,8947316,1697,1386,-4122,2229,-2577,820,-813,3128,73,36,741
785055,8387800,8946344,8390457,8947513,1873,1620,-4294,2218,-2470,915,-60,2598,73,36,741
786056,8388136,8946352,8390654,8947710,937,2753,-4329,1819,-2442,558,-43,1338,54,43,751
787057,8388428,8946392,8390851,8947907,1171,2623,-4286,1180,-2457,400,-293,1166,54,43,751
788058,8388544,8946512,8391048,8948104,2307,2157,-4191,529,-2462,331,-404,1326,64,30,746
789059,8388856,8946708,8391245,8948301,1032,1683,-4077,-11,-2446,239,-528,1755,64,30,746
790060,8389152,8946964,8391442,8948498,1089,1283,-4028,-180,-2371,205,-577,3134,70,46,744
791061,8389352,8947184,8391639,8948695,1689,1498,-4044,-44,-2250,158,-760,3862,70,46,744
792062,8389492,8947408,8391836,8948892,2089,1461,-4071,127,-2112,76,-654,4148,56,39,748
793063,8389832,8947408,8392033,8949089,777,2947,-4079,291,-1996,8,-556,4374,56,39,748
794064,8390100,8947408,8392230,8949286,1196,3035,-4006,286,-1908,-68,-612,3975,43,26,747
795065,8390128,8947504,8392427,8949483,2770,2479,-3867,128,-1819,-140,-671,3735,43,26,747
796066,8390376,8947664,8392624,8949680,1373,2095,-3703,-217,-1713,67,-538,3371,60,50,744
797067,8390636,8947944,8392821,8949877,1271,1310,-3567,-597,-1569,338,-344,3498,60,50,744
798067,8390828,8948180,8393018,8950074,1699,1568,-3497,-886,-1396,561,-87,3816,62,42,739
799069,8390852,8948412,8393215,8950271,2825,1578,-3504,-1092,-1179,831,129,4240,62,42,739
800070,8391136,8948444,8393412,8950468,1162,2901,-3566,-1256,-939,917,313,4532,38,29,749
801071,8391392,8948444,8393609,8950665,1312,3188,-3610,-1512,-737,1052,766,4299,38,29,749
802072,8391392,8948536,8393806,8950862,2998,2660,-3594,-1836,-574,1221,818,4133,43,34,741
803073,8391584,8948640,8394003,8951059,1802,2626,-3503,-2214,-423,1381,477,4136,43,34,741
804074,8391928,8948868,8394200,8951256,787,1838,-3388,-2506,-272,1639,-281,4498,59,50,740
805075,8392144,8949092,8394397,8951453,1580,1851,-3297,-2681,-148,1815,-861,4978,59,50,740
806075,8392232,8949332,8394594,8951650,2427,1733,-3257,-2703,-69,2016,-1173,5546,41,49,741
807077,8392476,8949468,8394791,8951847,1433,2410,-3242,-2588,-34,2158,-1482,6005,41,49,741
808078,8392788,8949512,8394988,8952044,957,3052,-3223,-2471,-62,2160,-1365,6150,43,29,747
809079,8392928,8949556,8395185,8952241,2057,3120,-3145,-2289,-161,2211,-1148,6225,43,29,747
810080,8393024,8949640,8395382,8952438,2378,2920,-3059,-2093,-304,2394,-848,6481,59,38,744
811081,8393372,8949864,8395579,8952635,736,2034,-2990,-1856,-475,2553,-370,6838,59,38,744
812082,8393644,8950116,8395776,8952832,1179,1835,-2977,-1454,-632,2714,-202,7273,64,53,738
813083,8393772,8950396,8395973,8953029,2110,1625,-3027,-918,-741,2876,-451,7716,64,53,738
814084,8393908,8950532,8396170,8953226,2088,2551,-3048,-374,-809,2749,-613,7754,56,36,748
815085,8394260,8950580,8396367,8953423,669,3168,-3001,181,-862,2448,-1051,8000,56,36,748
816086,8394536,8950604,8396564,8953620,1110,3395,-2895,749,-919,2117,-1148,8067,42,31,744
817087,8394520,8950724,8396761,8953817,3029,2829,-2728,1210,-988,1937,-909,7793,42,31,744
818088,8394760,8950840,8396958,8954014,1410,2890,-2520,1631,-1075,1863,-790,7681,47,37,743
819089,8395072,8951104,8397155,8954211,911,1936,-2278,1983,-1135,1677,-888,7504,47,37,743
820090,8395260,8951388,8397352,8954408,1690,1774,-1990,2273,-1142,1622,-1335,7382,50,50,736
821091,8395324,8951592,8397549,8954605,2523,2271,-1678,2494,-1085,1826,-1811,7021,50,50,736
822092,8395592,8951660,8397746,8954802,1218,3178,-1337,2532,-1002,1905,-1727,6442,55,28,748
823093,8395924,8951656,8397943,8954999,759,3718,-1016,2508,-953,1679,-1368,6309,55,28,748
824094,8395944,8951724,8398140,8955196,2788,3324,-749,2442,-949,1315,-1138,6078,41,40,740
825095,8396068,8951792,8398337,8955393,2170,3382,-539,2373,-955,958,-902,6268,41,40,740
826096,8396420,8952016,8398534,8955590,677,2396,-342,2360,-964,683,-573,6428,39,44,738
827097,8396652,8952300,8398731,8955787,1412,1983,-152,2493,-970,314,-437,6749,39,44,738
828098,8396704,8952612,8398928,8955984,2601,1758,29,2740,-927,-19,-646,7026,60,48,735
829099,8396808,8952808,8399125,8956181,2318,2485,170,3043,-803,-218,-1133,7281,60,48,735
830100,8397136,8952916,8399322,8956378,860,3074,293,3384,-619,-339,-1447,7278,33,38,747
831101,8397320,8953000,8399519,8956575,1767,3275,483,3569,-450,-517,-1359,6590,33,38,747
832102,8397332,8953092,8399716,8956772,2923,3272,729,3576,-306,-663,-1194,6254,43,43,740
833103,8397572,8953264,8399913,8956969,1479,2783,972,3462,-168,-685,-876,5995,43,43,740
834104,8397848,8953572,8400110,8957166,1221,1885,1177,3360,8,-599,-576,6083,40,56,739
835105,8398028,8953952,8400307,8957363,1828,1355,1312,3406,221,-634,-549,6204,40,56,739
836106,8398060,8954244,8400504,8957560,2827,1864,1433,3462,434,-878,-408,6055,54,43,742
837107,8398276,8954432,8400701,8957757,1668,2519,1570,3367,606,-1038,-243,5670,54,43,742
838108,8398584,8954524,8400898,8957954,1045,3166,1698,3246,713,-1095,66,5694,52,44,747
839109,8398560,8954608,8401095,8958151,3218,3265,1816,3108,771,-1169,237,5472,52,44,747
840110,8398668,8954744,8401292,8958348,2433,2968,1899,2917,781,-1167,42,5274,55,50,744
841118,8398964,8954952,8401522,8958578,1229,2529,1948,2694,763,-1126,-264,5201,55,50,744
842112,8399216,8955336,8401719,8958775,1480,1347,1962,2453,755,-963,-695,5145,66,72,733
843113,8399256,8955592,8401916,8958972,2874,2122,1952,2170,767,-689,-1047,4862,66,72,733
844114,8399328,8955840,8402113,8959169,2730,2150,1952,1820,799,-572,-1119,4542,29,54,744
845115,8399684,8955992,8402310,8959366,886,2770,1978,1363,841,-504,-974,4308,29,54,744
846116,8399768,8956100,8402507,8959563,2636,3085,2016,893,878,-411,-750,4131,52,55,739
847117,8399772,8956212,8402704,8959760,3221,3099,2068,340,892,-390,-320,3875,52,55,739
848118,8399940,8956368,8402901,8959957,2210,2842,2119,-219,871,-317,88,3822,38,53,744
849119,8400304,8956652,8403098,8960154,911,2004,2154,-741,845,-175,271,3726,38,53,744
850120,8400372,8956924,8403295,8960351,2819,2048,2168,-1225,825,-162,393,3849,55,52,733
851121,8400324,8957192,8403492,8960548,3652,2041,2174,-1691,763,-160,331,3931,55,52,733
852122,8400580,8957388,8403689,8960745,1727,2493,2181,-2074,664,-232,131,4103,25,58,748
853123,8400860,8957512,8403886,8960942,1541,2975,2171,-2274,579,-410,-99,4506,25,58,748
854124,8400884,8957660,8404083,8961139,3217,2847,2125,-2407,526,-526,-101,4570,55,53,735
855125,8400948,8957776,8404280,8961336,3027,3084,2049,-2454,530,-717,92,4789,55,53,735
856126,8401328,8957984,8404477,8961533,971,2504,1957,-2512,587,-800,86,4609,55,48,741
857127,8401472,8958244,8404674,8961730,2471,2152,1862,-2592,712,-853,-210,4601,55,48,741
858128,8401484,8958504,8404871,8961927,3378,2126,1781,-2660,912,-954,-544,4461,43,62,734
859129,8401600,8958776,8405068,8962124,2764,2018,1744,-2734,1166,-930,-942,4321,43,62,734
860130,8401952,8958996,8405265,8962321,1221,2334,1760,-2767,1457,-985,-1265,4407,37,51,741
861131,8402144,8959164,8405462,8962518,2224,2672,1838,-2775,1739,-1121,-1222,4421,37,51,741
862132,8402120,8959352,8405659,8962715,3672,2551,1917,-2652,1978,-1190,-1105,4675,39,45,742
863133,8402308,8959488,8405856,8962912,2352,2904,1994,-2459,2186,-1330,-929,4707,39,45,742
864134,8402620,8959720,8406053,8963109,1526,2290,2076,-2184,2360,-1334,-753,4966,58,72,741
865135,8402768,8959980,8406250,8963306,2574,2087,2156,-1849,2504,-1330,-604,4995,58,72,741
866136,8402756,8960224,8406447,8963503,3667,2167,2215,-1487,2607,-1332,-515,5043,39,55,738
867137,8403060,8960512,8406644,8963700,1645,1853,2251,-1114,2651,-1252,-686,4964,39,55,738
868138,8403248,8960724,8406841,8963897,2374,2322,2263,-766,2665,-1174,-959,4948,36,59,740
869139,8403384,8960940,8407038,8964094,2727,2290,2246,-331,2671,-1032,-1131,5010,36,59,740
870140,8403432,8961120,8407235,8964291,3344,2522,2202,24,2675,-852,-1036,4749,47,50,746
871141,8403748,8961288,8407432,8964488,1616,2611,2146,352,2660,-686,-732,4709,47,50,746
872142,8403916,8961508,8407629,8964685,2555,2277,2082,557,2628,-427,-491,4242,58,57,739
873143,8403972,8961760,8407826,8964882,3318,2052,2003,709,2610,-114,-652,4016,58,57,739
874144,8404048,8962028,8408023,8965079,3246,1922,1913,730,2620,193,-502,3573,54,64,743
875145,8404316,8962284,8408220,8965276,2016,1971,1821,647,2653,459,-88,3298,54,64,743
876146,8404480,8962520,8408417,8965473,2682,2080,1754,507,2689,639,475,3149,50,70,737
877147,8404492,8962772,8408614,8965670,3714,1956,1737,336,2698,806,716,2940,50,70,737
878148,8404620,8963024,8408811,8965867,3019,1933,1751,186,2683,1010,132,2940,35,53,744
879149,8404876,8963256,8409008,8966064,2194,2043,1775,-24,2660,1140,-281,2784,35,53,744
880150,8405068,8963504,8409205,8966261,2598,1921,1792,-198,2582,1089,311,2784,68,61,736
881151,8405104,8963792,8409402,8966458,3644,1632,1807,-347,2440,939,1175,2830,68,61,736
882152,8405340,8963980,8409599,8966655,2378,2261,1829,-431,2290,897,1450,2997,62,55,743
883153,8405568,8964152,8409796,8966852,2415,2373,1820,-380,2150,900,1489,3340,62,55,743
884154,8405688,8964324,8409993,8967049,3124,2384,1777,-204,2022,813,1204,3636,64,43,737
885155,8405756,8964536,8410190,8967246,3507,2128,1737,151,1907,711,294,4045,64,43,737
886156,8406012,8964752,8410387,8967443,2307,2095,1719,617,1819,502,64,4355,39,62,740
887157,8406196,8964924,8410584,8967640,2764,2382,1699,1095,1720,170,556,4399,39,62,740
888158,8406288,8965144,8410781,8967837,3386,2072,1684,1588,1563,-13,353,4212,59,57,736
889159,8406388,8965388,8410978,8968034,3379,1902,1696,1981,1377,-53,472,4075,59,57,736
890160,8406612,8965724,8411175,8968231,2593,1266,1705,2363,1195,-77,1243,3967,39,69,739
891161,8406752,8965988,8411372,8968428,3144,1688,1696,2722,1081,-20,1195,3793,39,69,739
892162,8406816,8966312,8411569,8968625,3678,1257,1682,3038,1052,63,1010,3615,38,72,737
893163,8406940,8966724,8411766,8968822,3336,613,1688,3309,1057,24,770,3542,38,72,737
894164,8407152,8967048,8411963,8969019,2781,1108,1710,3585,1115,123,-181,3442,54,82,739
895165,8407316,8967396,8412160,8969216,3096,891,1724,3723,1226,120,-818,2991,54,82,739
896166,8407380,8967656,8412357,8969413,3781,1415,1723,3797,1321,-18,-697,2734,40,85,743
897167,8407584,8967892,8412554,8969610,2904,1547,1686,3692,1317,-229,120,2145,40,85,743
898168,8407764,8968220,8412751,8969807,3062,915,1592,3529,1202,-414,607,2092,41,86,742
899169,8407908,8968580,8412948,8970004,3311,644,1464,3379,1072,-402,476,2029,41,86,742
900170,8408032,8969092,8413145,8970201,3469,-444,1346,3345,990,-324,195,2326,56,74,741
901171,8408236,8969420,8413342,8970398,2966,648,1214,3437,943,-403,-19,2641,56,74,741
902172,8408436,8969728,8413539,8970595,2991,725,1063,3584,883,-447,-11,2799,63,74,742
903173,8408576,8970040,8413736,8970792,3392,650,898,3732,754,-499,208,2826,63,74,742
904174,8408772,8970280,8413933,8970989,3044,1081,744,3839,559,-545,327,2692,63,77,744
905175,8408988,8970512,8414130,8971186,2911,1116,569,3856,279,-583,679,2363,63,77,744
906176,8409196,8970736,8414327,8971383,2957,1154,352,3780,-99,-669,1008,2225,47,58,742
907177,8409352,8971092,8414524,8971580,3301,259,109,3662,-512,-668,981,2184,47,58,742
908178,8409584,8971388,8414721,8971777,2812,590,-166,3560,-888,-545,1066,2302,59,71,744
909179,8409816,8971612,8414918,8971974,2798,1029,-489,3522,-1205,-414,1246,2332,59,71,744
910180,8410000,8971804,8415115,8972171,3104,1231,-842,3509,-1460,-171,1206,2420,65,55,743
911181,8410164,8971936,8415312,8972368,3245,1634,-1185,3479,-1643,22,1121,2448,65,55,743
912182,8410420,8972008,8415509,8972565,2645,2064,-1492,3395,-1755,178,1214,2322,44,55,743
913183,8410612,8972088,8415706,8972762,3048,2067,-1757,3194,-1831,319,1381,1945,44,55,743
914184,8410772,8972332,8415903,8972959,3265,1021,-1989,2840,-1884,390,1738,1628,53,42,739
915185,8410960,8972620,8416100,8973156,3095,706,-2170,2347,-1919,428,2010,1364,53,42,739
916186,8411180,8972872,8416297,8973353,2886,907,-2323,1802,-1920,463,2088,1298,69,62,739
917187,8411372,8973072,8416494,8973550,3064,1231,-2449,1252,-1902,406,2189,1327,69,62,739
918188,8411524,8973216,8416691,8973747,3335,1604,-2571,823,-1898,290,2465,1724,60,45,744
919189,8411732,8973296,8416888,8973944,2981,2055,-2683,541,-1941,151,2595,2125,60,45,744
920190,8411940,8973312,8417085,8974141,2977,2535,-2775,408,-2039,69,2370,2605,59,37,741
921191,8412088,8973408,8417282,8974338,3375,2079,-2872,497,-2164,-78,1889,3337,59,37,741
922192,8412176,8973660,8417479,8974535,3799,1081,-2981,732,-2288,-285,1128,3781,37,46,739
923193,8412396,8973956,8417676,8974732,2965,763,-3125,1091,-2437,-581,585,4242,37,46,739
924203,8412540,8974180,8417906,8974962,3479,1215,-3272,1505,-2663,-917,298,4431,60,50,736
925195,8412680,8974408,8418103,8975159,3530,1177,-3418,1969,-2989,-1226,134,4757,60,50,736
926196,8412856,8974512,8418300,8975356,3315,1992,-3545,2520,-3376,-1494,-187,4986,53,50,743
927197,8413104,8974576,8418497,8975553,2843,2301,-3657,3114,-3725,-1659,-719,5368,53,50,743
928198,8413260,8974520,8418694,8975750,3437,3163,-3753,3733,-3977,-1588,-1344,5523,53,33,740
929199,8413388,8974624,8418891,8975947,3644,2204,-3830,4236,-4120,-1474,-1760,5097,53,33,740
930200,8413632,8974856,8419088,8976144,2899,1389,-3899,4594,-4164,-1396,-2169,4807,50,61,739
931200,8413840,8975108,8419285,8976341,3120,1239,-3926,4646,-4131,-1392,-2429,3986,50,61,739
932202,8414020,8975348,8419482,8976538,3304,1296,-3888,4425,-4059,-1460,-2578,3249,46,59,735
933202,8414128,8975536,8419679,8976735,3794,1625,-3785,3942,-3969,-1530,-2830,2699,46,59,735
934203,8414388,8975656,8419876,8976932,2817,2084,-3655,3352,-3838,-1522,-3440,2606,49,49,741
935205,8414620,8975752,8420073,8977129,2978,2279,-3491,2726,-3636,-1558,-4022,2596,49,49,741
936206,8414736,8975660,8420270,8977326,3739,3581,-3319,2114,-3368,-1627,-4343,2686,46,45,736
937206,8414900,8975744,8420467,8977523,3456,2531,-3177,1521,-3074,-1764,-4472,2896,46,45,736
938208,8415172,8975940,8420664,8977720,2749,1832,-3050,895,-2782,-1864,-4471,2934,64,46,738
939209,8415392,8976180,8420861,8977917,3065,1538,-2924,249,-2503,-1974,-4242,2984,64,46,738
940210,8415520,8976424,8421058,8978114,3671,1493,-2790,-414,-2240,-2128,-3685,3240,74,53,736
941211,8415724,8976636,8421255,8978311,3194,1687,-2663,-971,-1992,-2221,-3163,3737,74,53,736
942212,8416036,8976776,8421452,8978508,2470,2162,-2537,-1378,-1742,-2242,-2873,4200,65,35,740
943213,8416288,8976760,8421649,8978705,2821,3231,-2429,-1621,-1463,-2169,-2646,4859,65,35,740
944214,8416392,8976684,8421846,8978902,3788,3726,-2342,-1752,-1180,-2110,-2251,5354,62,35,739
945215,8416700,8976740,8422043,8979099,2465,2964,-2283,-1791,-926,-2046,-1533,5792,62,35,739
946216,8417044,8976968,8422240,8979296,2177,1876,-2216,-1824,-700,-1930,-939,5855,74,44,734
947217,8417296,8977212,8422437,8979493,2729,1755,-2128,-1864,-514,-1804,-569,5921,74,44,734
948218,8417472,8977468,8422634,8979690,3214,1655,-2016,-1881,-375,-1623,-266,6089,76,53,738
949219,8417760,8977700,8422831,8979887,2475,1790,-1878,-1940,-286,-1461,89,6113,76,53,738
950220,8418160,8977828,8423028,8980084,1687,2471,-1697,-1964,-252,-1224,352,6307,63,48,743
951221,8418424,8977816,8423225,8980281,2508,3438,-1483,-2001,-257,-876,656,6459,63,48,743
952235,8418584,8977688,8423422,8980478,3176,3800,-1183,-1941,-254,-424,621,7157,77,42,744
953223,8419008,8977724,8423619,8980675,1427,3352,-536,-1603,-276,598,837,11169,77,42,744
954224,8419384,8977952,8423816,8980872,1648,2140,512,-845,-365,1623,1160,15258,89,39,734
955225,8419616,8978164,8424013,8981069,2534,2233,1209,-359,-394,1098,1185,9070,89,39,734
956226,8419860,8978392,8424210,8981266,2439,2120,1394,-398,-370,955,1355,6416,70,37,739
957227,8420268,8978592,8424407,8981463,1322,2294,1397,-695,-376,1030,1373,5839,70,37,739
958228,8420636,8978712,8424604,8981660,1498,2829,1465,-1026,-447,1075,1205,5559,84,43,741
959242,8420828,8978664,8424801,8981857,2601,3800,1637,-1288,-554,1113,676,5500,84,43,741
960243,8421116,8978512,8424998,8982054,1961,3800,1862,-1504,-661,1131,149,5435,64,39,745
961231,8421588,8978624,8425195,8982251,692,3179,2104,-1701,-767,1178,-239,5404,64,39,745
962232,8421876,8978812,8425392,8982448,1803,2708,2319,-1848,-871,1246,-572,5389,87,35,733
963233,8422016,8978956,8425589,8982645,2753,3008,2513,-2001,-970,1275,-705,5342,87,35,733
964234,8422320,8979216,8425786,8982842,1682,2256,2697,-2110,-1083,1142,-713,5410,77,47,742
965235,8422716,8979396,8425983,8983039,1020,2764,2877,-2196,-1194,938,-713,5380,77,47,742
966236,8422972,8979448,8426180,8983236,1869,3628,3044,-2214,-1321,678,-498,5462,62,26,736
967250,8423120,8979400,8426377,8983433,2567,3800,3185,-2203,-1446,403,-349,5419,62,26,736
968251,8423452,8979332,8426574,8983630,1358,3800,3316,-2142,-1531,167,-349,5428,55,42,743
969239,8423828,8979452,8426771,8983827,1005,3464,3429,-2042,-1563,-28,-503,5431,55,42,743
970240,8423984,8979632,8426968,8984024,2399,3097,3540,-1937,-1525,-176,-690,5320,65,49,732
971241,8424152,8979812,8427165,8984221,2337,3105,3645,-1791,-1448,-336,-715,5275,65,49,732
972242,8424532,8980056,8427362,8984418,932,2685,3738,-1630,-1357,-555,-548,5110,51,43,741
973243,8424884,8980276,8427559,8984615,1039,2826,3824,-1445,-1255,-822,-464,5070,51,43,741
974244,8425056,8980404,8427756,8984812,2176,3433,3891,-1263,-1130,-1043,-412,4826,75,50,737
975258,8425220,8980416,8427953,8985009,2241,3800,3958,-1097,-977,-1223,-430,4659,75,50,737
976259,8425668,8980376,8428150,8985206,356,3800,3999,-962,-810,-1461,-467,4509,74,40,743
977247,8425984,8980540,8428347,8985403,1129,3410,4035,-821,-635,-1613,-538,4254,74,40,743
978248,8426152,8980708,8428544,8985600,2068,3398,4052,-700,-463,-1635,-592,4105,73,56,734
979249,8426384,8980944,8428741,8985797,1652,2957,4086,-619,-299,-1696,-587,3796,73,56,734
980250,8426832,8981308,8428938,8985994,193,2085,4100,-593,-133,-1740,-542,3607,54,58,739
981251,8427104,8981460,8429135,8986191,1260,3431,4105,-608,19,-1770,-399,3170,54,58,739
982252,8427248,8981676,8429332,8986388,2084,3023,4077,-682,156,-1752,-296,2966,59,52,741
983266,8427516,8981764,8429529,8986585,1278,3800,4031,-799,269,-1765,-309,2653,59,52,741
984267,8427924,8981780,8429726,8986782,310,3800,3978,-994,356,-1697,-292,2348,75,48,741
985255,8428040,8981968,8429923,8986979,2172,3333,3901,-1257,433,-1464,-309,2087,75,48,741
986256,8428168,8982108,8430120,8987176,2127,3659,3793,-1557,517,-1252,-360,1925,75,50,737
987257,8428452,8982396,8430317,8987373,1114,2695,3643,-1842,626,-1022,-433,1691,75,50,737
988258,8428828,8982768,8430514,8987570,461,2094,3478,-2207,763,-833,-369,1393,64,52,737
989259,8428952,8982968,8430711,8987767,2068,3167,3298,-2620,943,-602,-220,1274,64,52,737
990260,8428996,8983216,8430908,8987964,2636,2846,3131,-3053,1150,-400,-78,1021,59,51,743
991274,8429316,8983312,8431105,8988161,858,3800,2957,-3484,1360,-324,-1,943,59,51,743
992275,8429588,8983376,8431302,8988358,1125,3800,2784,-3918,1547,-252,204,927,61,67,737
993263,8429608,8983556,8431499,8988555,2778,3384,2577,-4299,1698,-28,383,1038,61,67,737
994264,8429720,8983744,8431696,8988752,2241,3339,2348,-4567,1818,142,624,1246,61,63,739
995265,8430068,8984200,8431893,8988949,700,1551,2090,-4768,1909,231,668,1450,61,63,739
996266,8430280,8984424,8432090,8989146,1544,2991,1819,-4918,1998,416,528,1607,69,66,735
997267,8430312,8984736,8432287,8989343,2741,2391,1516,-4990,2129,671,321,1897,69,66,735
998268,8430428,8984916,8432484,8989540,2252,3225,1182,-4951,2290,816,122,2152,38,44,750
999282,8430816,8984964,8432681,8989737,469,3800,833,-4784,2454,770,180,2406,38,44,750
1000283,8430876,8984996,8432878,8989934,2579,3800,481,-4545,2594,806,375,2626,55,50,738
1001284,8430892,8985044,8433075,8990131,2934,3800,144,-4283,2675,1004,540,2712,55,50,738
1002272,8431140,8985364,8433272,8990328,1462,2502,-167,-3945,2705,1143,596,2930,31,58,739
1003273,8431476,8985588,8433469,8990525,851,3091,-465,-3626,2692,1228,540,2936,31,58,739
1004274,8431560,8985832,8433666,8990722,2477,2946,-756,-3326,2636,1306,628,2939,70,54,731
1005275,8431596,8986052,8433863,8990919,2848,3087,-1041,-3025,2517,1395,1040,3018,70,54,731
1006289,8431776,8986140,8434060,8991116,1955,3800,-1324,-2744,2333,1558,1151,2978,33,48,743
1007297,8432184,8986112,8434290,8991346,453,3800,-1608,-2491,2144,1667,975,3036,33,48,743
1008291,8432244,8986084,8434487,8991543,2688,3800,-1884,-2197,1965,1731,549,3189,48,45,734
1009292,8432292,8986096,8434684,8991740,2830,3800,-2189,-1897,1803,1846,262,3418,48,45,734
1010280,8432584,8986268,8434881,8991937,1263,3745,-2491,-1539,1664,1955,142,3624,58,35,738
1011281,8432948,8986460,8435078,8992134,741,3623,-2777,-1151,1524,2028,22,3772,58,35,738
1012282,8433040,8986664,8435275,8992331,2487,3546,-3022,-782,1391,2011,-77,3901,71,38,730
1013283,8433096,8986876,8435472,8992528,2774,3490,-3236,-378,1256,1878,-56,4150,71,38,730
1014297,8433532,8987020,8435669,8992725,295,3800,-3414,6,1091,1678,298,4233,53,38,739
1015298,8433724,8987028,8435866,8992922,1822,3800,-3569,392,880,1404,726,4397,53,38,739
1016299,8433828,8987140,8436063,8993119,2414,3800,-3712,735,641,1129,860,4419,66,36,734
1017300,8433916,8987164,8436260,8993316,2562,3800,-3806,1033,392,935,778,4440,66,36,734
1018301,8434340,8987284,8436457,8993513,363,3800,-3866,1279,155,704,654,4443,50,45,736
1019290,8434536,8987532,8436654,8993710,1788,3503,-3890,1503,-27,538,320,4461,50,45,736
1020290,8434664,8987736,8436851,8993907,2244,3776,-3894,1694,-143,425,-49,4590,63,45,732
1021291,8434760,8987968,8437048,8994104,2489,3588,-3845,1838,-199,245,-337,4476,63,45,732
1022304,8435144,8988152,8437245,8994301,607,3800,-3764,1908,-189,30,-301,4513,47,52,737
1023306,8435340,8988260,8437442,8994498,1783,3800,-3664,1949,-119,-172,-166,4547,47,52,737
1024307,8435440,8988416,8437639,8994695,2426,3800,-3562,1969,-20,-371,170,4606,54,54,734
1025308,8435552,8988452,8437836,8994892,2388,3800,-3466,2007,83,-634,350,4829,54,54,734
1026309,8435924,8988524,8438033,8995089,687,3800,-3344,2022,171,-937,553,4819,49,60,735
1027297,8436092,8988780,8438230,8995286,1975,3608,-3200,2009,235,-1187,644,4857,49,60,735
1028311,8436208,8988972,8438427,8995483,2337,3800,-3056,1949,280,-1370,607,4947,54,40,734
1029299,8436320,8989236,8438624,8995680,2399,3532,-2932,1901,331,-1531,464,5082,54,40,734
1030313,8436648,8989452,8438821,8995877,991,3800,-2816,1834,401,-1693,157,5146,65,49,736
1031314,8436824,8989612,8439018,8996074,1952,3800,-2696,1725,501,-1934,-21,5203,65,49,736
1032302,8436860,8989836,8439215,8996271,2897,3782,-2530,1557,635,-2081,-50,4969,49,61,735
1033316,8437020,8990032,8439412,8996468,2140,3800,-2323,1303,796,-2172,-126,4837,49,61,735
1034316,8437320,8990140,8439609,8996665,1219,3800,-2080,1002,974,-2325,-308,4891,45,67,734
1035318,8437464,8990360,8439806,8996862,2219,3800,-1839,701,1146,-2510,-333,5070,45,67,734
1036319,8437496,8990580,8440003,8997059,2991,3800,-1626,517,1304,-2630,-253,5540,51,57,734
1037307,8437672,8990844,8440200,8997256,2101,3528,-1449,419,1435,-2609,-291,5900,51,57,734
1038308,8437896,8991120,8440397,8997453,1790,3420,-1270,344,1545,-2516,-573,5787,52,75,735
1039309,8438084,8991424,8440594,8997650,2020,3200,-1091,191,1663,-2429,-877,5781,52,75,735
1040310,8438160,8991688,8440791,8997847,2773,3421,-932,34,1804,-2166,-1129,5831,65,64,737
1041311,8438304,8991928,8440988,8998044,2372,3553,-740,-284,1963,-1926,-848,5171,65,64,737
1042325,8438532,8992128,8441185,8998241,1833,3800,-512,-731,2092,-1789,-276,5040,45,63,738
1043313,8438636,8992360,8441382,8998438,2650,3588,-279,-1172,2171,-1600,176,5101,45,63,738
1044314,8438656,8992636,8441579,8998635,3253,3280,-42,-1558,2233,-1409,-79,5167,60,64,735
1045315,8438788,8992948,8441776,8998832,2583,3006,189,-1898,2309,-1263,-370,5308,60,64,735
1046316,8439028,8993240,8441973,8999029,1889,3090,415,-2206,2392,-1071,-133,5415,58,65,733
1047317,8439160,8993528,8442170,8999226,2593,3077,642,-2470,2462,-929,385,5495,58,65,733
1048318,8439220,8993780,8442367,8999423,3103,3278,888,-2724,2516,-771,637,5462,39,70,736
1049319,8439384,8994148,8442564,8999620,2469,2479,1152,-2984,2548,-675,261,5551,39,70,736
1050320,8439608,8994444,8442761,8999817,2083,2887,1411,-3184,2577,-668,-349,5618,57,67,737
1051321,8439748,8994684,8442958,9000014,2633,3219,1884,-3305,2625,-539,-315,5970,57,67,737
1052322,8439768,8994888,8443155,9000211,3462,3442,2093,-3276,2636,-525,-100,6000,46,64,740
1053323,8439968,8995152,8443352,9000408,2336,3038,2272,-3161,2637,-523,-162,6234,46,64,740
1054324,8440184,8995432,8443549,9000605,2228,2903,2429,-2982,2624,-407,-24,6241,61,71,736
1055325,8440276,8995720,8443746,9000802,3050,2814,2586,-2821,2600,-319,159,6080,61,71,736
1056326,8440368,8996000,8443943,9000999,3097,2828,2739,-2645,2568,-294,594,6170,51,69,738
1057327,8440588,8996336,8444140,9001196,2287,2418,2882,-2451,2511,-361,880,6065,51,69,738
1058328,8440804,8996648,8444337,9001393,2305,2519,3017,-2199,2444,-398,573,6020,44,66,736
1059329,8440972,8996944,8444534,9001590,2618,2576,3142,-1975,2386,-331,362,5923,44,66,736
1060330,8441084,8997216,8444731,9001787,3006,2694,3256,-1732,2352,-177,127,5866,41,62,741
1061331,8441300,8997432,8444928,9001984,2349,3037,3354,-1461,2322,-208,-95,5630,41,62,741
1062332,8441516,8997628,8445125,9002181,2340,3162,3442,-1226,2281,-227,-166,5376,56,62,739
1063333,8441624,8997880,8445322,9002378,3056,2789,3509,-1000,2230,-108,-303,5280,56,62,739
1064334,8441788,8998156,8445519,9002575,2721,2605,3574,-804,2164,-2,-374,4978,68,64,738
1065335,8442036,8998532,8445716,9002772,2174,1903,3628,-643,2071,113,-288,4749,68,64,738
1066336,8442288,8998860,8445913,9002969,2126,2146,3668,-471,1970,141,-259,4526,74,70,736
1067337,8442476,8999192,8446110,9003166,2530,2063,3694,-270,1894,102,-315,4512,74,70,736
1068338,8442660,8999576,8446307,9003363,2562,1656,3702,-43,1829,116,-456,4407,61,81,744
1069339,8442924,8999880,8446504,9003560,2033,2110,3691,135,1767,304,-511,4130,61,81,744
1070340,8443128,9000136,8446701,9003757,2406,2385,3659,303,1713,589,-584,3898,65,67,742
1071341,8443328,9000344,8446898,9003954,2430,2680,3623,418,1667,782,-652,3613,65,67,742
1072342,8443540,9000656,8447095,9004151,2349,1980,3593,541,1636,773,-794,3474,47,68,744
1073343,8443808,9001024,8447292,9004348,1969,1556,3571,656,1614,725,-854,3301,47,68,744
1074344,8443996,9001420,8447489,9004545,2474,1294,3546,706,1583,804,-837,2957,64,88,740
1075345,8444196,9001820,8447686,9004742,2397,1181,3506,725,1544,936,-810,2821,64,88,740
1076346,8444460,9002200,8447883,9004939,1969,1226,3470,717,1489,1072,-828,2628,65,70,746
1077347,8444688,9002508,8448080,9005136,2181,1627,3432,703,1420,1095,-913,2480,65,70,746
1078348,8444868,9002776,8448277,9005333,2489,1847,3401,702,1355,1033,-853,2405,58,77,745
1079349,8445104,9002972,8448474,9005530,2122,2298,3348,801,1310,1009,-700,2480,58,77,745
1080350,8445372,9003224,8448671,9005727,1892,1924,3269,883,1281,996,-527,2290,54,64,745
1081351,8445536,9003672,8448868,9005924,2557,589,3174,959,1236,1030,-431,2176,54,64,745
1082352,8445744,9004120,8449065,9006121,2278,479,3079,1042,1194,1110,-553,2082,52,77,744
1083353,8445968,9004476,8449262,9006318,2166,985,2994,1121,1170,1094,-617,1983,52,77,744
1084354,8446212,9004756,8449459,9006515,2021,1423,2906,1248,1152,1004,-392,2020,68,76,747
1085355,8446412,9004936,8449656,9006712,2296,2057,2793,1360,1120,964,191,1824,68,76,747
1086356,8446604,9005156,8449853,9006909,2348,1797,2645,1446,1068,1139,449,1706,53,71,746
1087357,8446860,9005408,8450050,9007106,1923,1573,2483,1494,1012,1282,758,1431,53,71,746
1088358,8447016,9005784,8450247,9007303,2567,720,2335,1490,956,1390,890,1335,63,69,743
1089359,8447144,9006152,8450444,9007500,2773,695,2206,1487,893,1385,1075,1306,63,69,743
1090367,8447352,9006548,8450674,9007730,2283,447,2089,1486,846,1408,999,1230,55,74,745
1091361,8447540,9006900,8450871,9007927,2412,654,1962,1554,843,1564,632,1369,55,74,745
1092362,8447720,9007052,8451068,9008124,2471,1924,1834,1603,894,1636,271,1237,42,69,744
1093363,8447920,9007200,8451265,9008321,2345,1971,1683,1634,969,1731,-28,1084,42,69,744
1094364,8448192,9007372,8451462,9008518,1863,1832,1519,1612,1005,1687,7,914,49,67,747
1095365,8448372,9007700,8451659,9008715,2446,800,1356,1539,977,1622,24,782,49,67,747
1096366,8448536,9008128,8451856,9008912,2561,73,1186,1513,889,1576,34,795,49,80,743
1097367,8448792,9008532,8452053,9009109,1961,132,1015,1467,735,1364,553,733,49,80,743
1098368,8449112,9008800,8452250,9009306,1508,952,830,1526,520,1273,731,1061,63,59,746
1099369,8449332,9008988,8452447,9009503,2122,1456,623,1711,267,1093,679,1226,63,59,746
1100370,8449604,9009140,8452644,9009700,1765,1701,381,1952,27,1033,410,1526,51,62,750
1101371,8449912,9009332,8452841,9009897,1493,1453,95,2229,-205,1060,215,1624,51,62,750
1102372,8450184,9009592,8453038,9010094,1685,1000,-225,2516,-431,1068,-161,1731,56,58,746
1103373,8450432,9009920,8453235,9010291,1813,518,-558,2867,-659,1059,-479,1841,56,58,746
1104374,8450740,9010216,8453432,9010488,1390,674,-883,3103,-932,896,198,1483,59,50,749
1105375,8451048,9010540,8453629,9010685,1342,443,-1196,3265,-1233,900,626,1418,59,50,749
1106376,8451296,9010688,8453826,9010882,1694,1565,-1536,3445,-1492,1140,507,1691,53,58,751
1107377,8451552,9010800,8454023,9011079,1619,1827,-1921,3655,-1713,1136,485,1815,53,58,751
1108378,8451928,9010912,8454220,9011276,791,1864,-2280,3763,-1911,1062,513,1313,61,48,751
1109379,8452200,9011108,8454417,9011473,1409,1340,-2635,3750,-2054,1325,267,1492,61,48,751
1110380,8452356,9011340,8454614,9011670,2152,1100,-2927,3550,-2166,1370,266,723,62,50,746
1111381,8452672,9011624,8454811,9011867,1099,736,-3110,3062,-2330,1051,374,-115,62,50,746
1112382,8452976,9011736,8455008,9012064,1128,1850,-3216,2466,-2514,1081,70,-245,55,44,748
1113383,8453188,9011796,8455205,9012261,1697,2235,-3303,1811,-2668,1019,157,-356,55,44,748
1114384,8453416,9011852,8455402,9012458,1584,2322,-3422,1178,-2772,939,-124,6,65,40,751
1115385,8453744,9011940,8455599,9012655,902,2170,-3627,794,-2799,937,-561,973,65,40,751
1116386,8453956,9012140,8455796,9012852,1620,1468,-3885,643,-2759,820,-762,1609,58,42,744
1117387,8454100,9012388,8455993,9013049,2069,1146,-4132,597,-2705,680,-472,1971,58,42,744
1118388,8454364,9012736,8456190,9013246,1290,455,-4363,620,-2683,430,-46,2371,49,36,747
1119389,8454624,9012804,8456387,9013443,1287,2261,-4563,652,-2690,278,112,2345,49,36,747
1120390,8454760,9012884,8456584,9013640,2090,2238,-4675,559,-2692,206,58,2140,48,41,747
1121391,8454944,9012880,8456781,9013837,1796,2852,-4736,454,-2662,145,-172,2441,48,41,747
1122392,8455336,9012912,8456978,9014034,410,2700,-4774,324,-2615,63,-146,2437,57,33,745
1123393,8455552,9013168,8457175,9014231,1503,1274,-4793,260,-2558,-20,-101,2754,57,33,745
1124394,8455684,9013384,8457372,9014428,2056,1515,-4805,310,-2463,-13,-280,3316,65,40,740
1125395,8455868,9013796,8457569,9014625,1737,196,-4799,311,-2325,-5,-526,3250,65,40,740
1126396,8456104,9013856,8457766,9014822,1396,2457,-4783,236,-2156,156,-567,3276,46,43,749
1127397,8456272,9013948,8457963,9015019,1834,2303,-4766,66,-1958,310,-478,3010,46,43,749
1128398,8456360,9013980,8458160,9015216,2382,2751,-4755,-306,-1748,491,-186,2681,40,23,751
1129399,8456688,9013964,8458357,9015413,825,3144,-4755,-756,-1515,635,46,2787,40,23,751
1130400,8456944,9014176,8458554,9015610,1249,1713,-4767,-1225,-1263,676,324,2907,37,43,743
1131401,8457044,9014368,8458751,9015807,2267,1841,-4782,-1628,-1017,709,542,3225,37,43,743
1132402,8457156,9014752,8458948,9016004,2230,559,-4788,-1882,-785,797,257,3791,58,37,742
1133403,8457480,9014884,8459145,9016201,849,2162,-4800,-1980,-568,933,-295,4324,58,37,742
1134404,8457760,9015020,8459342,9016398,1088,2164,-4809,-2057,-375,1203,-1115,4453,49,36,743
1135405,8457836,9015080,8459539,9016595,2417,2700,-4801,-2176,-224,1567,-1563,4507,49,36,743
1136406,8458084,9015060,8459736,9016792,1319,3296,-4739,-2348,-151,1741,-1607,4452,39,33,747
1137407,8458444,9015220,8459933,9016989,548,2187,-4611,-2536,-164,1727,-1618,4614,39,33,747
1138408,8458572,9015440,8460130,9017186,2029,1803,-4438,-2579,-217,1773,-1613,5095,47,41,739
1139409,8458628,9015776,8460327,9017383,2541,1017,-4281,-2482,-284,2001,-1386,5622,47,41,739
1140410,8458948,9015984,8460524,9017580,837,1812,-4183,-2221,-405,2163,-706,6290,36,52,747
1141411,8459248,9016136,8460721,9017777,917,2183,-4214,-1760,-557,2261,-411,7233,36,52,747
1142412,8459332,9016188,8460918,9017974,2317,2871,-4297,-1165,-661,2414,-658,7483,39,32,745
1143413,8459440,9016200,8461115,9018171,2207,3203,-4298,-706,-707,2552,-730,7016,39,32,745
1144414,8459912,9016272,8461312,9018368,-189,2884,-4210,-355,-686,2579,-1342,7272,50,37,746
1145415,8459996,9016612,8461509,9018565,2286,1146,-4131,86,-649,2454,-1634,7708,50,37,746
1146416,8460032,9016832,8461706,9018762,2657,1886,-4048,543,-645,2327,-1536,7616,61,56,737
1147417,8460196,9017112,8461903,9018959,1872,1475,-3928,914,-650,2330,-1664,7615,61,56,737
1148418,8460532,9017220,8462100,9019156,737,2589,-3743,1187,-662,2282,-1717,7329,41,39,746
1149419,8460636,9017248,8462297,9019353,2227,3164,-3501,1369,-667,2303,-1916,7053,41,39,746
1150420,8460684,9017260,8462494,9019550,2643,3346,-3223,1448,-630,2391,-2153,6893,50,32,747
1151421,8460956,9017316,8462691,9019747,1211,3133,-2954,1532,-562,2360,-2073,7085,50,32,747
1152422,8461296,9017496,8462888,9019944,723,2366,-2693,1754,-518,2062,-1532,7333,41,36,737
1153423,8461372,9017732,8463085,9020141,2426,1999,-2449,2052,-514,1610,-1142,7669,41,36,737
1154424,8461416,9017980,8463282,9020338,2694,1903,-2221,2471,-489,1018,-1343,8555,47,49,741
1155425,8461844,9018212,8463479,9020535,193,1987,-1353,3918,-327,-419,-2328,17978,47,49,741
1156426,8462056,9018252,8463676,9020732,1536,3257,567,7074,42,-1851,-3194,30697,42,39,742
1157427,8462108,9018316,8463873,9020929,2600,3166,2155,9163,212,-775,-685,15328,42,39,742
1158428,8462264,9018344,8464070,9021126,1969,3466,2633,9140,35,-182,766,6452,34,28,749
1159429,8462708,9018448,8464267,9021323,61,3032,2569,8204,-242,112,772,5451,34,28,749
1160430,8462820,9018728,8464464,9021520,2173,1896,2481,7503,-365,220,222,5700,67,47,737
1161431,8462876,9018964,8464661,9021717,2586,2154,2560,6993,-347,409,-229,5001,67,47,737
1162432,8463064,9019312,8464858,9021914,1765,1389,2738,6437,-256,997,-971,4576,56,50,745
1163433,8463444,9019532,8465055,9022111,484,2179,2918,5672,-139,1560,-1198,3925,56,50,745
1164434,8463572,9019732,8465252,9022308,2091,2304,3048,4719,-40,1650,-1160,3454,52,43,740
1165435,8463588,9019884,8465449,9022505,2870,2623,3116,3683,-11,1146,-612,3278,52,43,740
1166435,8463924,9019952,8465646,9022702,809,3206,3164,2621,-48,514,-37,3298,33,49,748
1167437,8464132,9020140,8465843,9022899,1605,2460,3208,1740,-97,290,-138,3532,33,49,748
1168438,8464144,9020372,8466040,9023096,2912,2171,3222,1014,-121,-4,-246,3898,60,47,737
1169439,8464152,9020712,8466237,9023293,3020,1433,3161,460,-126,-368,-504,4415,60,47,737
1170440,8464520,9020968,8466434,9023490,696,1933,2987,126,-103,-702,-1209,5055,38,60,744
1171441,8464664,9021164,8466631,9023687,2119,2308,2791,-17,-67,-908,-1412,5221,38,60,744
1172442,8464652,9021352,8466828,9023884,3187,2363,2634,-123,-60,-1035,-1351,5252,39,46,741
1173450,8464836,9021452,8467058,9024114,1982,2970,2516,-251,-68,-1254,-1524,5197,39,46,741
1174444,8465080,9021556,8467255,9024311,1586,2987,2416,-369,-73,-1650,-1177,5207,44,61,742
1175445,8465208,9021764,8467452,9024508,2343,2332,2337,-443,-62,-1855,-711,5154,44,61,742
1176446,8465180,9021992,8467649,9024705,3417,2195,2284,-486,6,-1816,-789,5032,41,62,739
1177447,8465392,9022324,8467846,9024902,1911,1485,2263,-543,152,-1878,-608,4977,41,62,739
1178448,8465604,9022512,8468043,9025099,1904,2390,2300,-637,314,-1880,-394,4831,49,67,741
1179449,8465752,9022736,8468240,9025296,2327,2154,2386,-767,469,-1796,-316,4673,49,67,741
1180450,8465752,9022872,8468437,9025493,3338,2731,2491,-890,648,-1677,-212,4453,44,40,746
1181451,8466040,9022912,8468634,9025690,1499,3400,2606,-1052,836,-1638,-191,4187,44,40,746
1182452,8466240,9023084,8468831,9025887,2048,2587,2716,-1245,1043,-1686,-63,4085,30,50,742
1183453,8466308,9023272,8469028,9026084,2931,2491,2806,-1413,1264,-1733,121,4083,30,50,742
1184454,8466380,9023500,8469225,9026281,2961,2229,2886,-1619,1475,-1616,185,3810,38,61,738
1185455,8466628,9023760,8469422,9026478,1839,2001,2933,-1811,1690,-1604,93,3749,38,61,738
1186456,8466860,9023944,8469619,9026675,1924,2483,2943,-2001,1908,-1645,-19,3608,40,54,737
1187457,8466900,9024200,8469816,9026872,3194,2007,2892,-2146,2132,-1554,-300,3771,40,54,737
1188458,8467008,9024332,8470013,9027069,2808,2811,2811,-2254,2333,-1511,-97,3680,36,57,744
1189459,8467308,9024492,8470210,9027266,1564,2653,2718,-2293,2466,-1457,139,3848,36,57,744
1190460,8467504,9024676,8470407,9027463,2214,2509,2655,-2242,2540,-1414,161,3955,57,45,738
1191461,8467544,9024876,8470604,9027660,3259,2408,2614,-2170,2601,-1335,-6,3958,57,45,738
1192462,8467696,9025092,8470801,9027857,2580,2301,2574,-1978,2672,-1117,-379,4200,37,62,743
1193463,8467968,9025340,8470998,9028054,1797,2078,2534,-1817,2761,-997,-512,4003,37,62,743
1194464,8468144,9025580,8471195,9028251,2407,2110,2468,-1590,2819,-834,-458,4127,51,54,737
1195465,8468120,9025820,8471392,9028448,3754,2092,2393,-1436,2817,-688,-702,3808,51,54,737
1196466,8468336,9026024,8471589,9028645,2247,2314,2314,-1319,2748,-565,-737,3834,39,50,744
1197467,8468600,9026220,8471786,9028842,1919,2366,2237,-1226,2646,-458,-718,3605,39,50,744
1198467,8468760,9026428,8471983,9029039,2585,2286,2163,-1198,2528,-390,-190,3450,65,60,734
1199469,8468796,9026592,8472180,9029236,3432,2576,2093,-1140,2408,-235,296,3420,65,60,734
1200470,8469068,9026776,8472377,9029433,1924,2457,2033,-1102,2297,-63,596,3299,57,57,743
1201471,8469272,9027016,8472574,9029630,2347,2089,1978,-1056,2221,174,234,3258,57,57,743
1202472,8469388,9027284,8472771,9029827,2933,1883,1929,-1075,2197,390,-202,3046,61,56,734
1203486,8469348,9027608,8472968,9030024,3800,1477,1865,-1064,2219,599,-593,3134,61,56,734
1204474,8469624,9027832,8473165,9030221,2004,2091,1791,-1107,2272,690,-850,2954,31,57,743
1205475,8469788,9028048,8473362,9030418,2719,2133,1724,-1087,2328,633,-389,3121,31,57,743
1206476,8469880,9028264,8473559,9030615,3215,2126,1666,-1071,2332,539,435,2926,53,68,736
1207477,8469940,9028480,8473756,9030812,3476,2117,1604,-1049,2319,622,219,2966,53,68,736
1208478,8470156,9028700,8473953,9031009,2494,2083,1531,-982,2305,688,432,3074,54,63,739
1209479,8470296,9028956,8474150,9031206,2994,1832,1441,-921,2247,601,1124,2987,54,63,739
1210480,8470352,9029264,8474347,9031403,3582,1459,1348,-807,2147,510,1424,3162,45,58,736
1211481,8470544,9029524,8474544,9031600,2735,1732,1264,-632,2036,438,1617,3224,45,58,736
1212482,8470812,9029692,8474741,9031797,2230,2320,1161,-332,1904,286,1826,3516,53,63,740
1213483,8471024,9029808,8474938,9031994,2574,2681,1058,37,1717,109,1856,3650,53,63,740
1214497,8471044,9029948,8475135,9032191,3800,2556,970,459,1477,3,1682,3849,57,43,742
1215485,8471232,9030052,8475332,9032388,2807,2823,879,938,1223,-138,1699,3966,57,43,742
1216486,8471464,9030188,8475529,9032585,2518,2650,753,1423,967,-379,1809,3970,42,48,737
1217487,8471600,9030352,8475726,9032782,3146,2490,607,1924,706,-468,1190,4013,42,48,737
1218501,8471576,9030632,8475923,9032979,3800,1729,530,2350,498,-380,-248,3786,47,58,736
1219489,8471792,9030940,8476120,9033176,2735,1505,493,2791,332,-311,-118,3840,47,58,736
1220490,8471964,9031272,8476317,9033373,3022,1297,428,3133,182,-305,961,3440,53,67,736
1221491,8472072,9031556,8476514,9033570,3463,1559,309,3352,99,-104,1072,3189,53,67,736
1222505,8472116,9031892,8476711,9033767,3800,1173,144,3498,115,63,746,2931,48,84,742
1223493,8472276,9032160,8476908,9033964,3223,1567,-45,3515,150,109,1029,2603,48,84,742
1224494,8472464,9032396,8477105,9034161,3052,1750,-219,3446,177,217,352,2337,41,76,738
1225508,8472536,9032652,8477302,9034358,3800,1600,-328,3274,187,84,81,2035,41,76,738
1226496,8472628,9032944,8477499,9034555,3755,1333,-394,3097,148,-38,300,1974,57,81,740
1227497,8472840,9033264,8477696,9034752,2999,1104,-448,2847,22,-222,1131,1729,57,81,740
1228498,8473036,9033608,8477893,9034949,3101,891,-513,2622,-166,-308,1176,1815,57,71,736
1229512,8473120,9034016,8478090,9035146,3800,398,-588,2458,-361,-403,1092,1964,57,71,736
1230500,8473288,9034400,8478287,9035343,3340,466,-676,2406,-512,-497,752,2395,48,82,742
1231501,8473476,9034684,8478484,9035540,3220,1053,-774,2473,-601,-565,381,2716,48,82,742
1232502,8473664,9034944,8478681,9035737,3225,1175,-884,2606,-644,-559,263,2963,57,85,739
1233503,8473788,9035180,8478878,9035934,3658,1309,-991,2824,-677,-579,371,3290,57,85,739
1234504,8474004,9035524,8479075,9036131,3076,569,-1079,3078,-737,-636,698,3362,44,88,742
1235505,8474212,9035888,8479272,9036328,3122,371,-1167,3311,-882,-707,824,3364,44,88,742
1236506,8474400,9036220,8479469,9036525,3252,512,-1240,3482,-1109,-685,573,3272,54,74,739
1237507,8474572,9036536,8479666,9036722,3364,559,-1281,3630,-1372,-641,586,3262,54,74,739
1238508,8474804,9036808,8479863,9036919,2975,801,-1291,3692,-1651,-535,945,3054,50,56,745
1239509,8475048,9037004,8480060,9037116,2880,1277,-1366,3668,-1950,-403,1533,2783,50,56,745
1240510,8475244,9037064,8480257,9037313,3181,2187,-1551,3585,-2243,-231,1865,2670,64,46,742
1241511,8475400,9037156,8480454,9037510,3450,2033,-1775,3496,-2472,-88,1853,2716,64,46,742
1242512,8475688,9037372,8480651,9037707,2586,1250,-1970,3413,-2592,111,1649,2861,56,47,742
1243513,8475916,9037608,8480848,9037904,2948,1108,-2126,3346,-2624,276,1459,2897,56,47,742
1244514,8476056,9037896,8481045,9038101,3524,743,-2271,3289,-2596,420,1465,2995,67,51,737
1245515,8476288,9038188,8481242,9038298,2935,676,-2412,3210,-2567,401,1591,2947,67,51,737
1246516,8476504,9038364,8481439,9038495,3027,1410,-2523,3072,-2623,234,1877,2847,56,44,743
1247517,8476728,9038456,8481636,9038692,2966,1981,-2621,2928,-2769,174,1609,2908,56,44,743
1248518,8476912,9038468,8481833,9038889,3223,2563,-2708,2768,-2955,35,1065,2927,63,52,745
1249519,8477204,9038516,8482030,9039086,2507,2403,-2805,2758,-3149,-117,459,3353,63,52,745
1250520,8477416,9038716,8482227,9039283,3002,1453,-2905,2726,-3354,-329,154,3352,68,52,739
1251521,8477580,9038988,8482424,9039480,3317,970,-3017,2798,-3559,-481,-42,3829,68,52,739
1252522,8477796,9039256,8482621,9039677,2985,964,-3146,2933,-3748,-726,-207,3959,49,47,740
1253523,8478020,9039476,8482818,9039874,2924,1253,-3281,3168,-3934,-1090,-444,4305,49,47,740
1254524,8478212,9039660,8483015,9040071,3127,1484,-3446,3462,-4105,-1460,-764,4741,51,46,741
1255525,8478340,9039700,8483212,9040268,3559,2453,-3626,3736,-4263,-1632,-1154,4848,51,46,741
1256535,8478568,9039636,8483442,9040498,2934,3232,-3787,4065,-4392,-1843,-1541,4924,41,37,742
1257527,8478796,9039676,8483639,9040695,2922,2651,-3904,4311,-4461,-2203,-1943,4844,41,37,742
1258528,8478964,9039888,8483836,9040892,3311,1570,-3981,4468,-4481,-2417,-2224,4700,53,40,735
1259529,8479120,9040124,8484033,9041089,3405,1404,-3971,4421,-4459,-2515,-2292,4031,53,40,735
1260530,8479320,9040352,8484230,9041286,3129,1440,-3890,4240,-4368,-2451,-2790,3769,47,41,737
1261531,8479560,9040548,8484427,9041483,2861,1640,-3774,3931,-4154,-2521,-3804,3632,47,41,737
1262532,8479676,9040728,8484624,9041680,3673,1748,-3633,3525,-3823,-2671,-4355,3583,42,33,739
1263533,8479824,9040696,8484821,9041877,3495,3173,-3485,3030,-3434,-2655,-4361,3503,42,33,739
1264534,8480212,9040616,8485018,9042074,1913,3596,-3341,2511,-3046,-2627,-4053,3419,52,41,741
1265548,8480300,9040700,8485215,9042271,3800,2621,-3208,1911,-2705,-2735,-3801,3167,52,41,741
1266536,8480420,9040800,8485412,9042468,3671,2564,-3060,1131,-2388,-2800,-3757,3019,52,43,731
1267537,8480612,9041052,8485609,9042665,3224,1589,-2885,345,-2071,-2719,-3769,3254,52,43,731
1268538,8480896,9041316,8485806,9042862,2612,1486,-2694,-345,-1725,-2619,-3735,3585,67,48,732
1269539,8481132,9041548,8486003,9043059,2896,1671,-2523,-889,-1372,-2594,-3453,4093,67,48,732
1270540,8481280,9041836,8486200,9043256,3469,1281,-2371,-1333,-1079,-2530,-2711,4445,53,46,740
1271541,8481496,9041888,8486397,9043453,3036,2820,-2209,-1695,-847,-2340,-2161,4956,53,46,740
1272542,8481860,9041876,8486594,9043650,2038,3312,-2037,-1931,-647,-2031,-1880,5303,68,43,741
1273543,8482092,9041844,8486791,9043847,2848,3538,-1849,-2157,-451,-1761,-1667,5472,68,43,741
1274544,8482256,9041920,8486988,9044044,3289,2917,-1666,-2379,-252,-1507,-1387,5698,56,51,736
1275545,8482540,9042092,8487185,9044241,2502,2328,-1473,-2613,-93,-1194,-982,5680,56,51,736
1276546,8482940,9042372,8487382,9044438,1689,1616,-1249,-2842,-1,-852,-507,5977,75,60,732
1277547,8483224,9042664,8487579,9044635,2376,1501,-549,-2932,-45,153,-87,10305,66,39,740
1278548,8483448,9042876,8487776,9044832,2740,1994,948,-2524,-320,1642,439,18740,66,39,740
1279549,8483764,9043008,8487973,9045029,2114,2524,1967,-2244,-565,494,623,9113,62,41,746
1280550,8484204,9042976,8488170,9045226,1232,3649,2128,-2329,-659,359,657,6341,62,41,746
1281564,8484384,9042880,8488367,9045423,2866,3800,2019,-2464,-662,629,369,6219,85,30,742
1282552,8484612,9042868,8488564,9045620,2553,3746,2030,-2610,-683,820,591,6112,85,30,742
1283553,8485028,9043024,8488761,9045817,1283,2714,2168,-2619,-763,1079,657,6252,79,60,731
1284554,8485436,9043268,8488958,9046014,1240,2144,2326,-2640,-838,1439,72,5994,79,60,731
1285555,8485680,9043556,8489155,9046211,2246,1829,2480,-2663,-874,1647,-127,6006,76,48,743
1286556,8485908,9043752,8489352,9046408,2333,2406,2629,-2702,-912,1626,93,5804,76,48,743
1287557,8486324,9043868,8489549,9046605,1062,2941,2777,-2776,-975,1646,228,5629,67,24,743
1288570,8486664,9043812,8489746,9046802,1475,3800,2926,-2882,-1041,1673,394,5416,67,24,743
1289571,8486812,9043708,8489943,9046999,2696,3800,3070,-3001,-1112,1659,522,5169,79,37,742
1290572,8487128,9043688,8490140,9047196,1595,3800,3211,-3097,-1220,1446,719,5160,79,37,742
1291561,8487588,9043852,8490337,9047393,581,2998,3350,-3188,-1348,1312,659,5054,88,35,732
1292562,8487804,9044148,8490534,9047590,2097,2130,3470,-3166,-1481,1167,226,5198,88,35,732
1293563,8487976,9044332,8490731,9047787,2384,2836,3582,-3065,-1582,872,-468,5270,63,36,743
1294564,8488172,9044580,8490928,9047984,2235,2414,3692,-2897,-1638,525,-862,5320,63,36,743
1295565,8488648,9044668,8491125,9048181,363,3463,3791,-2713,-1668,228,-900,5226,74,39,738
1296579,8488764,9044584,8491322,9048378,2649,3800,3889,-2448,-1686,-44,-872,5211,74,39,738
1297579,8488864,9044524,8491519,9048575,2792,3800,3974,-2142,-1708,-430,-888,5125,60,28,741
1298581,8489200,9044540,8491716,9048772,1256,3800,4092,-1893,-1751,-829,-702,4784,60,28,741
1299569,8489656,9044708,8491913,9048969,393,3294,4190,-1639,-1766,-976,-773,4824,66,52,731
1300570,8489808,9045000,8492110,9049166,2313,2478,4290,-1328,-1698,-1018,-1016,4661,66,52,731
1301571,8489940,9045192,8492307,9049363,2468,3106,4357,-953,-1551,-1163,-988,4760,70,39,743
1302572,8490228,9045448,8492504,9049560,1453,2682,4411,-598,-1339,-1195,-934,4445,70,39,743
1303573,8490688,9045544,8492701,9049757,262,3727,4430,-300,-1057,-1097,-908,4265,77,50,737
1304587,8490796,9045524,8492898,9049954,2502,3800,4431,6,-735,-1022,-854,3988,77,50,737
1305588,8490964,9045536,8493095,9050151,2140,3800,4431,150,-388,-1059,-784,3463,70,50,739
1306589,8491500,9045532,8493292,9050348,-308,3800,4438,197,-58,-1073,-560,3097,70,50,739
1307577,8491788,9045684,8493489,9050545,1202,3665,4446,120,219,-1004,-157,2504,64,59,734
1308578,8491956,9045964,8493686,9050742,1965,2829,4411,-12,434,-903,80,2238,64,59,734
1309579,8492140,9046196,8493883,9050939,1871,3115,4368,-236,583,-967,244,1708,80,46,738
1310580,8492656,9046480,8494080,9051136,-344,2753,4300,-565,665,-999,402,1488,80,46,738
1311581,8492912,9046616,8494277,9051333,1255,3705,4206,-865,710,-879,461,1379,63,53,739
1312582,8493036,9046760,8494474,9051530,2112,3680,4047,-1121,748,-626,578,1451,63,53,739
1313595,8493288,9046820,8494671,9051727,1289,3800,3828,-1362,780,-495,608,1399,61,58,739
1314597,8493700,9046872,8494868,9051924,195,3800,3571,-1599,848,-339,456,1400,61,58,739
1315585,8493888,9047096,8495065,9052121,1599,3294,3299,-1788,938,-77,442,1325,72,64,737
1316586,8493972,9047292,8495262,9052318,2298,3470,3014,-2103,1021,106,473,880,72,64,737
1317587,8494268,9047616,8495459,9052515,931,2615,2740,-2410,1096,82,522,875,66,63,739
1318588,8494576,9047832,8495656,9052712,807,3283,2491,-2847,1171,112,646,398,66,63,739
1319589,8494720,9048100,8495853,9052909,1855,2928,2247,-3285,1239,240,827,486,42,37,744
1320590,8494744,9048296,8496050,9053106,2681,3379,1986,-3674,1313,285,1020,525,42,37,744
1321603,8495060,9048328,8496247,9053303,805,3800,1698,-3967,1378,410,1111,744,48,48,740
1322605,8495340,9048380,8496444,9053500,994,3800,1384,-4217,1428,512,1171,876,48,48,740
1323606,8495388,9048524,8496641,9053697,2509,3800,1055,-4362,1487,718,1113,1274,62,47,740
1324594,8495380,9048752,8496838,9053894,2949,3329,699,-4419,1538,932,898,1434,62,47,740
1325595,8495720,9049076,8497035,9054091,712,2674,311,-4429,1607,1014,485,1587,43,66,734
1326596,8495960,9049328,8497232,9054288,1318,3101,-99,-4407,1705,1131,319,1771,43,66,734
1327597,8496036,9049628,8497429,9054485,2397,2757,-506,-4322,1804,1271,310,2043,41,51,744
1328598,8496032,9049868,8497626,9054682,2985,3114,-905,-4120,1888,1241,335,2356,41,51,744
1329599,8496368,9050012,8497823,9054879,800,3738,-1277,-3850,1922,1218,371,2446,40,44,739
1330613,8496588,9049960,8498020,9055076,1515,3800,-1622,-3632,1894,1278,430,2461,40,44,739
1331614,8496616,9050072,8498217,9055273,2789,3800,-1945,-3410,1843,1376,388,2608,49,48,738
1332602,8496708,9050272,8498414,9055470,2435,3537,-2248,-3168,1757,1460,428,2629,49,48,738
1333603,8497036,9050532,8498611,9055667,904,3135,-2519,-2954,1642,1484,383,2698,42,67,731
1334604,8497200,9050792,8498808,9055864,1943,3108,-2772,-2770,1517,1572,437,2738,42,67,731
1335605,8497300,9051052,8499005,9056061,2386,3082,-3018,-2603,1392,1864,343,2800,39,44,742
1336606,8497372,9051296,8499202,9056258,2617,3161,-3258,-2431,1275,1958,264,2912,39,44,742
1337620,8497736,9051424,8499399,9056455,718,3800,-3492,-2240,1158,1856,175,3146,49,48,737
1338620,8497928,9051388,8499596,9056652,1796,3800,-3720,-1984,1043,1765,99,3489,49,48,737
1339629,8497996,9051464,8499826,9056882,2643,3800,-3929,-1721,944,1791,49,3667,47,53,736
1340623,8498152,9051588,8500023,9057079,2111,3800,-4130,-1356,862,1860,-25,4050,47,53,736
1341611,8498496,9051836,8500220,9057276,871,3351,-4301,-955,809,1713,-116,4330,64,61,732
1342612,8498692,9052084,8500417,9057473,1798,3330,-4461,-486,765,1412,-121,4887,64,61,732
1343613,8498756,9052300,8500614,9057670,2681,3523,-4596,43,694,1110,164,5070,57,41,740
1344614,8498948,9052580,8500811,9057867,1883,3088,-4694,546,570,839,616,5134,57,41,740
1345628,8499276,9052736,8501008,9058064,977,3800,-4749,1033,406,610,645,5319,67,62,734
1346628,8499484,9052768,8501205,9058261,1722,3800,-4763,1467,248,304,281,5376,67,62,734
1347630,8499576,9052872,8501402,9058458,2493,3800,-4726,1831,122,10,-165,5319,63,57,739
1348631,8499752,9052972,8501599,9058655,1978,3800,-4649,2114,16,-271,-232,5255,63,57,739
1349619,8500124,9053200,8501796,9058852,676,3578,-4543,2334,-57,-466,-331,5311,66,47,733
1350620,8500280,9053416,8501993,9059049,2044,3646,-4426,2492,-100,-650,-465,5349,66,47,733
1351621,8500332,9053672,8502190,9059246,2759,3371,-4278,2610,-104,-802,-651,5349,47,48,740
1352622,8500556,9053948,8502387,9059443,1672,3212,-4088,2667,-69,-959,-724,5231,47,48,740
1353636,8500884,9054120,8502584,9059640,965,3800,-3879,2652,-16,-1210,-608,5218,61,57,734
