"Data file recorded 2014/9/24  14:23:9"
"%  Right Stride Frequency         = 11.0"
"%  Left Stride Frequency         = 11.0"
"%  Phase (Fractional)         = 32768.0"
"%  Experiment.py "
"%  Motor Gains    = [1800, 200, 100, 0, 0, 1800, 200, 100, 0, 0]
"% Columns: "
"% time | Right Leg Pos | Left Leg Pos | Commanded Right Leg Pos | Commanded Left Leg Pos | DCR | DCL | GyroX | GryoY | GryoZ | AX | AY | AZ | RBEMF | LBEMF | VBatt "
10709,50382688,47836048,50371674,47848538,-3800,3800,510,751,-1138,37,-365,4090,-14,-9,844
11697,50382672,47836100,50372418,47849282,-3779,3800,511,751,-1139,24,-351,4064,-14,-9,844
12698,50382656,47836088,50373162,47850026,-3447,3800,511,750,-1139,34,-358,4066,7,-2,844
13699,50382576,47836140,50373906,47850770,-2686,3800,511,745,-1137,29,-363,4065,7,-2,844
14700,50382396,47836384,50374650,47851514,-1657,3800,513,731,-1138,30,-318,4123,-5,19,844
15701,50382208,47836652,50375394,47852258,-1199,3800,511,761,-1147,76,-77,4141,-5,19,844
16702,50382028,47837024,50376138,47853002,-844,3800,478,793,-1180,218,-115,4100,-21,46,805
17703,50381852,47837400,50376882,47853746,-466,3800,420,791,-1244,501,-16,3996,-21,46,805
18704,50381720,47837756,50377626,47854490,-357,3800,328,782,-1369,546,682,4112,-46,61,813
19705,50381628,47838128,50378370,47855234,-240,3800,198,859,-1482,657,-336,4439,-46,61,813
20706,50381524,47838492,50379114,47855978,207,3800,106,1006,-1527,656,-990,4466,-41,72,821
21707,50381460,47838896,50379858,47856722,311,3800,33,1178,-1553,490,-1129,4535,-41,72,821
22708,50381432,47839216,50380602,47857466,426,3800,-27,1306,-1610,439,-1048,4300,-12,81,823
23709,50381436,47839556,50381346,47858210,551,3800,-64,1362,-1670,422,-1358,4209,-12,81,823
24710,50381436,47839844,50382090,47858954,903,3800,-93,1391,-1689,220,-1631,4139,-7,74,825
25711,50381444,47840100,50382834,47859698,1176,3800,-110,1348,-1690,41,-1685,3960,-7,74,825
26712,50381460,47840312,50383578,47860442,1446,3800,-96,1238,-1689,-157,-1445,3723,-7,65,823
27713,50381484,47840496,50384322,47861186,1714,3800,-63,1018,-1682,-412,-880,3488,-7,65,823
28714,50381500,47840636,50385066,47861930,2084,3800,-40,817,-1652,-533,-675,3520,17,39,821
29715,50381516,47840724,50385810,47862674,2405,3800,-23,648,-1585,-711,-920,3677,17,39,821
30716,50381600,47840892,50386554,47863418,2271,3800,7,490,-1510,-959,-1095,3731,19,26,819
31717,50381692,47840968,50387298,47864162,2508,3800,54,282,-1446,-1064,-1052,3714,19,26,819
32718,50381772,47841020,50388042,47864906,2876,3800,100,115,-1361,-1076,-1529,3907,23,23,815
33719,50381952,47841052,50388786,47865650,2500,3800,138,11,-1242,-1178,-2162,4121,23,23,815
34719,50382100,47841112,50389530,47866394,2963,3800,175,-14,-1117,-1348,-2342,4305,32,10,812
35721,50382260,47841212,50390274,47867138,3146,3800,219,-87,-1014,-1332,-2086,4169,32,10,812
36741,50382532,47841304,50387314,47864178,3800,3800,265,-262,-947,-1256,-1629,3973,42,10,811
37736,50382760,47841348,50388058,47864922,3800,3800,295,-477,-895,-1211,-1484,4052,42,10,811
38737,50383004,47841376,50388802,47865666,3800,3800,311,-658,-798,-1157,-1716,4248,32,20,810
39737,50383348,47841488,50389546,47866410,3800,3800,324,-832,-666,-1032,-1876,4388,32,20,810
40738,50383684,47841568,50390290,47867154,3800,3800,381,-1084,-543,-851,-1757,4093,62,24,808
41739,50384076,47841692,50391034,47867898,3800,3800,498,-1446,-449,-770,-1734,3780,62,24,808
42740,50384508,47841792,50391778,47868642,3800,3800,652,-1910,-362,-843,-1846,3698,65,18,804
43742,50384956,47841856,50392522,47869386,3800,3800,793,-2403,-246,-893,-1937,3902,65,18,804
44742,50385424,47841888,50393266,47870130,3800,3800,921,-2808,-75,-879,-1912,4188,73,18,805
45743,50385868,47842048,50394010,47870874,3800,3800,1040,-3205,127,-701,-1612,4410,73,18,805
46744,50386432,47842176,50394754,47871618,3800,3800,1215,-3653,300,-166,-1289,4977,100,36,805
47746,50386852,47842320,50395498,47872362,3800,3800,1360,-3960,429,654,-773,5729,100,36,805
48746,50387344,47842480,50396242,47873106,3800,3800,1554,-4367,462,1683,53,5448,104,37,805
49748,50387816,47842600,50396986,47873850,3800,3800,1705,-4892,428,2771,336,5444,104,37,805
50748,50388276,47842704,50397730,47874594,3800,3800,1875,-5464,354,3667,1065,4689,109,30,806
51750,50388684,47842868,50398474,47875338,3800,3800,1974,-6132,260,4447,988,4480,109,30,806
52751,50389072,47843024,50399218,47876082,3800,3800,2038,-6419,226,5039,1025,5307,89,36,807
53752,50389420,47843208,50399962,47876826,3800,3800,2020,-6550,215,4663,584,4845,89,36,807
54753,50389744,47843412,50400706,47877570,3800,3800,1945,-6322,116,4161,-359,5954,84,34,806
55754,50390076,47843544,50401450,47878314,3800,3800,1921,-6000,-29,4113,-423,5910,84,34,806
56755,50390328,47843696,50402194,47879058,3800,3800,1914,-5686,-245,4514,-1001,6195,76,50,806
57756,50390708,47843900,50402938,47879802,3800,3800,1881,-4989,-477,4186,-2010,7177,76,50,806
58764,50391124,47844100,50403698,47880562,3800,3800,1817,-4179,-792,2929,-2287,7340,64,48,805
59758,50391680,47844308,50404442,47881306,3800,3800,1806,-3235,-1198,1957,-2718,7628,64,48,805
60759,50392108,47844540,50405186,47882050,3800,3800,1895,-2326,-1631,1242,-1739,7467,77,41,804
61760,50392660,47844748,50405930,47882794,3800,3800,2006,-1457,-2112,1458,-538,7379,77,41,804
62761,50393304,47844956,50406674,47883538,3800,3800,2076,-724,-2658,2206,771,6845,100,50,807
63762,50393912,47845152,50407418,47884282,3800,3800,2095,-138,-3263,2202,1509,6753,100,50,807
64763,50394448,47845376,50408162,47885026,3800,3800,2126,384,-3647,2451,479,6112,124,58,808
65764,50395068,47845564,50408906,47885770,3800,3800,2328,355,-3809,2175,1159,4031,124,58,808
66765,50395636,47845772,50409650,47886514,3800,3800,2671,-38,-3947,1590,1962,3254,116,57,808
67766,50396076,47846004,50410394,47887258,3800,3800,3039,-488,-4186,1185,2742,3133,116,57,808
68767,50396680,47846236,50411138,47888002,3800,3800,3241,-594,-4412,1639,2582,4528,113,59,808
69768,50397424,47846472,50411882,47888746,3800,3800,3209,121,-4497,1898,2149,6955,113,59,808
70769,50397972,47846708,50412626,47889490,3800,3800,3039,1175,-4594,1411,2492,7295,118,54,807
71770,50398788,47846960,50413370,47890234,3800,3800,2855,2236,-4798,895,2080,7185,118,54,807
72771,50399600,47847284,50414114,47890978,3800,3800,2708,3014,-5157,511,3021,6280,130,67,808
73772,50400324,47847548,50414858,47891722,3800,3800,2693,3377,-5514,801,3226,4893,130,67,808
74773,50401236,47847796,50415602,47892466,3800,3800,2817,3312,-5636,886,2203,3833,140,66,810
75774,50402100,47848072,50416346,47893210,3800,3800,3093,2954,-5544,148,1751,2746,140,66,810
76775,50402968,47848328,50417090,47893954,3800,3800,3476,2358,-5453,-577,1971,1508,158,70,810
77776,50403832,47848640,50417834,47894698,3800,3800,3897,1441,-5458,-569,2281,486,158,70,810
78776,50404820,47848960,50418578,47895442,3800,3800,4195,711,-5456,411,2587,1466,160,74,812
79777,50405708,47849240,50419322,47896186,3800,3800,4194,662,-5346,1703,3015,3334,160,74,812
80785,50406736,47849528,50420082,47896946,3800,3800,3962,1202,-5239,2647,3792,4545,155,75,813
81779,50407784,47849792,50420826,47897690,3800,3800,3611,1924,-5210,3106,4295,4676,155,75,813
82780,50408764,47850076,50421570,47898434,3800,3800,3342,2399,-5174,2614,4222,3641,164,59,811
83781,50409684,47850384,50422314,47899178,3800,3800,3170,2619,-5093,2035,4194,2978,164,59,811
84770,50410712,47850644,50423058,47899922,3749,3800,3113,2680,-4980,1815,4536,2437,185,74,812
85784,50411660,47850900,50423802,47900666,3800,3800,3025,2903,-4839,1734,4717,3141,185,74,812
86785,50412644,47851124,50424546,47901410,3800,3800,2810,3716,-4650,1255,4093,4639,173,72,813
87786,50413460,47851384,50425290,47902154,3800,3800,2507,4614,-4416,128,4059,4414,173,72,813
88787,50414356,47851596,50426034,47902898,3800,3800,2190,5259,-4199,-522,4329,3938,184,51,813
89787,50415180,47851824,50426778,47903642,3800,3800,1924,5697,-3988,-691,4689,3245,184,51,813
90789,50416056,47852000,50427522,47904386,3800,3800,1688,5985,-3694,-969,4309,2806,177,62,811
91789,50416832,47852140,50428266,47905130,3800,3800,1377,6276,-3396,-1754,3558,2929,177,62,811
92791,50417584,47852248,50429010,47905874,3800,3800,991,6685,-3080,-2350,2644,3327,168,57,811
93792,50418368,47852356,50429754,47906618,3800,3800,573,7277,-2745,-2409,2500,3391,168,57,811
94793,50419132,47852456,50430498,47907362,3800,3800,166,7933,-2434,-2611,1752,3340,169,32,809
95794,50419764,47852544,50431242,47908106,3800,3800,-219,8491,-2116,-3012,811,3109,169,32,809
96795,50420424,47852584,50431986,47908850,3800,3800,-612,8885,-1872,-3055,239,2625,164,27,810
97796,50421124,47852560,50432730,47909594,3800,3800,-974,8911,-1784,-2496,100,1380,164,27,810
98797,50421704,47852536,50433474,47910338,3800,3800,-1288,8658,-1775,-2343,-290,670,141,12,808
99798,50422292,47852552,50434218,47911082,3800,3800,-1615,8159,-1706,-2548,-1238,131,141,12,808
100798,50422900,47852556,50434962,47911826,3800,3800,-1968,7343,-1602,-2637,-2253,-635,126,10,806
101800,50423412,47852584,50435706,47912570,3800,3800,-2313,6420,-1390,-2170,-3510,-615,126,10,806
102810,50423920,47852588,50436466,47913330,3800,3800,-2601,5600,-1074,-1683,-5142,-296,129,19,806
103801,50424476,47852564,50437210,47914074,3800,3800,-2841,4751,-804,-1684,-5906,-292,129,19,806
104803,50424936,47852564,50437954,47914818,3800,3800,-2949,3753,-604,-1695,-6251,-692,102,6,804
105803,50425356,47852580,50438698,47915562,3800,3800,-2964,2595,-533,-1270,-6049,-993,102,6,804
106805,50425900,47852640,50439442,47916306,3800,3800,-2950,1372,-592,-1128,-5693,-980,87,15,805
107805,50426316,47852680,50440186,47917050,3800,3800,-2845,161,-730,-1416,-5256,-762,87,15,805
108807,50426728,47852728,50440930,47917794,3800,3800,-2697,-975,-885,-1296,-4917,-150,97,5,804
109808,50427200,47852744,50441674,47918538,3800,3800,-2561,-1741,-996,-1009,-4247,1181,97,5,804
110809,50427764,47852768,50442418,47919282,3800,3800,-2477,-2154,-1089,-746,-2660,1988,79,10,805
111810,50428176,47852872,50443162,47920026,3800,3800,-2314,-2679,-1282,-625,-1000,1674,79,10,805
112810,50428696,47852944,50443906,47920770,3800,3800,-2096,-3347,-1537,-306,143,2102,84,11,804
113812,50429296,47853048,50444650,47921514,3800,3800,-1881,-3765,-1769,88,972,3290,84,11,804
114812,50429816,47853128,50445394,47922258,3800,3800,-1745,-3827,-1911,129,652,4281,104,13,801
115813,50430324,47853240,50446138,47923002,3800,3800,-1662,-3584,-1933,87,738,5211,104,13,801
116815,50430932,47853360,50446882,47923746,3800,3800,-1583,-3345,-1916,305,1768,5220,117,18,804
117816,50431476,47853520,50447626,47924490,3800,3800,-1432,-3016,-1920,524,2490,5641,117,18,804
118817,50431948,47853668,50448370,47925234,3800,3800,-1261,-2601,-1928,205,2877,6368,113,32,807
119818,50432560,47853896,50449114,47925978,3800,3800,-368,-1306,-1834,437,2961,15783,113,32,807
120819,50433084,47854104,50449858,47926722,3800,3800,2129,2484,-1594,1422,3463,32767,100,41,806
121820,50433600,47854304,50450602,47927466,3800,3800,4376,5309,-1296,758,3389,18892,100,41,806
122821,50434152,47854484,50451346,47928210,3800,3800,5017,5599,-1035,315,3077,5090,111,55,807
123821,50434788,47854708,50452090,47928954,3800,3800,4704,4529,-814,306,2733,3416,111,55,807
124829,50435376,47854920,50452850,47929714,3800,3800,4390,3610,-638,529,3000,3264,106,44,807
125824,50435920,47855168,50453594,47930458,3800,3800,4223,2883,-549,237,3725,2519,106,44,807
126825,50436592,47855416,50454338,47931202,3800,3800,4209,2159,-597,-117,3798,2040,98,57,806
127826,50437208,47855640,50455082,47931946,3800,3800,4147,1275,-760,-424,3934,1914,98,57,806
128826,50437840,47855864,50455826,47932690,3800,3800,3977,460,-920,-640,3389,2225,115,60,807
129828,50438640,47856096,50456570,47933434,3800,3800,3740,-249,-1031,-688,2811,2173,115,60,807
130828,50439336,47856292,50457314,47934178,3800,3800,3482,-1099,-1138,-1031,2665,1664,118,60,808
131829,50440000,47856480,50458058,47934922,3800,3800,3288,-2033,-1350,-1633,2653,1425,118,60,808
132830,50440884,47856720,50458802,47935666,3800,3800,3126,-3011,-1651,-2098,2408,1443,122,54,809
133832,50441684,47856952,50459546,47936410,3800,3800,2951,-3832,-1883,-2331,1464,1601,122,54,809
134833,50442512,47857168,50460290,47937154,3800,3800,2743,-4570,-1901,-2474,199,1721,151,49,810
135834,50443420,47857364,50461034,47937898,3800,3800,2594,-5280,-1703,-2714,69,1454,151,49,810
136835,50444288,47857520,50461778,47938642,3800,3800,2523,-5868,-1305,-3255,-190,2045,143,58,809
137836,50445116,47857696,50462522,47939386,3800,3800,2479,-6375,-823,-3860,-641,2269,143,58,809
138837,50446020,47857884,50463266,47940130,3800,3800,2412,-6580,-327,-4904,-1138,3476,171,54,810
139837,50446852,47858064,50464010,47940874,3800,3800,2351,-6381,356,-6241,-2114,4562,171,54,810
140838,50447612,47858220,50464754,47941618,3800,3800,2255,-5900,1170,-7361,-2424,5309,181,42,811
141840,50448428,47858376,50465498,47942362,3800,3800,2221,-5388,1931,-8306,-1525,5245,181,42,811
142841,50449228,47858512,50466242,47943106,3800,3800,2264,-4976,2613,-8548,-842,4826,158,34,811
143842,50449976,47858660,50466986,47943850,3800,3800,2365,-4859,3215,-8005,-29,3916,158,34,811
144842,50450700,47858800,50467730,47944594,3800,3800,2515,-5075,3806,-7135,620,3123,166,36,810
145843,50451452,47858944,50468474,47945338,3800,3800,2661,-5413,4418,-6065,601,2943,166,36,810
146851,50452136,47859100,50469234,47946098,3800,3800,2726,-5672,5081,-4745,290,2904,153,45,810
147845,50452752,47859292,50469978,47946842,3800,3800,2745,-5887,5783,-3520,47,2725,153,45,810
148846,50453460,47859496,50470722,47947586,3800,3800,2741,-6251,6426,-1985,125,1997,133,46,807
149848,50454052,47859684,50471466,47948330,3800,3800,2745,-6746,6918,-327,175,1517,133,46,807
150849,50454632,47859916,50472210,47949074,3800,3800,2729,-7346,7262,843,477,1108,143,49,809
151850,50455308,47860132,50472954,47949818,3800,3800,2736,-8019,7561,1785,22,958,143,49,809
152851,50455888,47860344,50473698,47950562,3800,3800,2706,-8498,7834,2556,19,1497,133,55,808
153852,50456456,47860556,50474442,47951306,3800,3800,2653,-8637,8028,3141,406,2370,133,55,808
154853,50457104,47860844,50475186,47952050,3800,3800,2452,-8195,8061,3822,855,3815,122,58,807
155853,50457512,47861136,50475930,47952794,3800,3800,2062,-7363,7931,3908,1049,4639,122,58,807
156854,50458104,47861472,50476674,47953538,3800,3800,1557,-6326,7653,3281,729,5420,129,55,808
157856,50458556,47861724,50477418,47954282,3800,3800,1089,-5295,7101,2784,724,5276,129,55,808
158857,50459116,47862000,50478162,47955026,3800,3800,569,-3935,6380,1825,38,7237,113,70,807
159858,50459592,47862332,50478906,47955770,3800,3800,-241,-1731,5689,2344,-1141,9741,113,70,807
160859,50460100,47862660,50479650,47956514,3800,3800,-1145,686,4979,3522,157,8935,93,69,806
161860,50460640,47862956,50480394,47957258,3800,3800,-1625,2434,4204,4544,1523,6189,93,69,806
162860,50461136,47863296,50481138,47958002,3800,3800,-1776,3169,3199,4750,2257,4009,98,62,808
163862,50461588,47863680,50481882,47958746,3800,3800,-1747,3435,1949,4364,2984,2908,98,62,808
164862,50462160,47864028,50482626,47959490,3800,3800,-1698,3528,671,4539,2964,2460,92,71,808
165864,50462612,47864360,50483370,47960234,3800,3800,-1623,3747,-572,4905,2176,2520,92,71,808
166865,50463092,47864680,50484114,47960978,3800,3800,-1524,3870,-1710,4925,1871,2124,97,66,808
167865,50463640,47865140,50484858,47961722,3800,3800,-1365,4006,-2739,5189,1676,2063,97,66,808
168873,50464104,47865544,50485618,47962482,3800,3800,-1178,3954,-3666,5264,1204,1537,89,74,806
169867,50464640,47865928,50486362,47963226,3800,3800,-929,3709,-4495,5191,1372,1003,89,74,806
170868,50465164,47866296,50487106,47963970,3800,3800,-573,3164,-5264,5217,2031,8,99,73,807
171869,50465724,47866772,50487850,47964714,3800,3800,-88,2308,-5975,5019,2083,-740,99,73,807
172870,50466204,47867216,50488594,47965458,3800,3800,493,1458,-6506,4738,1047,-470,103,85,808
173871,50466784,47867668,50489338,47966202,3800,3800,981,857,-6770,4747,189,446,103,85,808
174873,50467380,47868208,50490082,47966946,3800,3800,1351,563,-6829,4766,6,1151,105,92,809
175873,50467940,47868728,50490826,47967690,3800,3800,1538,623,-6845,4437,572,2499,105,92,809
176874,50468460,47869204,50491570,47968434,3800,3800,1730,882,-6864,4119,746,2745,116,102,809
177875,50469120,47869832,50492314,47969178,3800,3800,2010,909,-6952,3570,1333,2088,116,102,809
178876,50469732,47870332,50493058,47969922,3800,3800,2469,805,-7016,3207,1395,1844,103,91,810
179877,50470336,47870984,50493802,47970666,3800,3800,2887,796,-6959,2881,1419,2612,103,91,810
180878,50471032,47871576,50494546,47971410,3800,3800,3242,1327,-6768,2629,1135,3805,114,109,810
181879,50471716,47872196,50495290,47972154,3800,3800,3416,2089,-6474,2344,1367,4444,114,109,810
182881,50472392,47872852,50496034,47972898,3800,3800,3369,3300,-5998,2698,1325,5804,123,123,810
183882,50473152,47873596,50496778,47973642,3800,3800,2876,4900,-5107,2689,-754,6976,123,123,810
184883,50473816,47874392,50497522,47974386,3800,3800,2456,6245,-3943,2144,-1976,5027,136,123,813
185884,50474528,47875148,50498266,47975130,3800,3800,2269,6987,-2750,2277,-1053,3806,136,123,813
186885,50475284,47875932,50499010,47975874,3800,3800,2280,7414,-1835,2232,1351,3454,140,147,812
187886,50475972,47876784,50499754,47976618,3800,3800,2332,7938,-1207,1724,2562,3711,140,147,812
188887,50476680,47877552,50500498,47977362,3800,3800,2345,8385,-790,1382,3808,3088,137,150,814
189887,50477412,47878384,50501242,47978106,3800,3800,2396,8799,-577,1796,5714,3256,137,150,814
190898,50478172,47879272,50502002,47978866,3800,3800,2391,9600,-294,2339,4977,4695,151,149,815
191890,50478740,47880068,50502746,47979610,3800,3800,2311,10551,77,2319,3365,4576,151,149,815
192891,50479416,47880860,50503490,47980354,3800,3800,2217,11449,318,1878,2735,4243,142,165,814
193892,50480152,47881620,50504234,47981098,3800,3800,2116,11887,246,1536,3213,2811,142,165,814
194893,50480820,47882492,50504978,47981842,3800,3800,1855,12332,-19,1898,2793,3396,141,169,816
195894,50481484,47883288,50505722,47982586,3800,3800,1363,13025,-321,1925,1855,3992,141,169,816
196895,50482212,47884088,50506466,47983330,3800,3800,740,13873,-562,1838,303,4283,140,182,816
197896,50482896,47884884,50507210,47984074,3800,3800,83,14707,-820,1837,-404,4035,140,182,816
198897,50483624,47885628,50507954,47984818,3800,3800,-591,15117,-1270,1757,354,2651,157,174,816
199898,50484416,47886436,50508698,47985562,3800,3800,-1248,15050,-2005,1711,1472,1182,157,174,816
200899,50485156,47887172,50509442,47986306,3800,3800,-1912,14441,-2928,1640,2384,-285,158,168,816
201900,50485928,47888044,50510186,47987050,3800,3800,-2616,13562,-3939,1512,3149,-758,158,168,816
202901,50486744,47888732,50510930,47987794,3800,3800,-3347,12461,-4991,1429,3099,-1468,164,160,816
203902,50487500,47889444,50511674,47988538,3800,3800,-4007,11238,-6060,1323,2130,-1734,164,160,816
204903,50488228,47890116,50512418,47989282,3800,3800,-4636,10087,-7179,1187,1994,-1536,167,143,816
205904,50488980,47890812,50513162,47990026,3800,3800,-5231,9122,-8334,827,2672,-1251,167,143,816
206905,50489672,47891600,50513906,47990770,3800,3800,-5783,8204,-9461,408,3633,-1355,147,161,815
207906,50490312,47892400,50514650,47991514,3800,3800,-6292,7106,-10432,229,3497,-1892,147,161,815
208907,50490928,47892996,50515394,47992258,3800,3800,-6758,5650,-11130,465,2024,-2557,155,135,814
209908,50491532,47893668,50516138,47993002,3800,3800,-7223,4031,-11377,686,-1048,-2671,155,135,814
210909,50492060,47894452,50516882,47993746,3800,3800,-7609,2463,-11138,269,-3931,-2171,139,136,814
211910,50492588,47895332,50517626,47994490,3800,3800,-7917,1146,-10592,-426,-5809,-1374,139,136,814
212917,50493132,47896252,50518386,47995250,3800,3800,-8109,103,-9880,-1217,-6530,-763,132,133,814
213911,50493576,47897084,50519130,47995994,3800,3800,-8216,-902,-9101,-1818,-6078,-471,132,133,814
214912,50494028,47897880,50519874,47996738,3800,3800,-8257,-1906,-8318,-2148,-6178,-102,111,167,811
215914,50494500,47898772,50520618,47997482,3800,3800,-8252,-2882,-7481,-2737,-6840,264,111,167,811
216915,50494928,47899752,50521362,47998226,3800,3800,-8268,-3900,-6572,-3178,-7684,685,100,185,814
217916,50495360,47900756,50522106,47998970,3800,3800,-8247,-4735,-5616,-3568,-8024,1208,100,185,814
218917,50495808,47901736,50522850,47999714,3800,3800,-8069,-5512,-4734,-4650,-7402,1889,95,191,815
219918,50496260,47902760,50523594,48000458,3800,3800,-3237,-6570,-3907,-4676,-7603,32767,95,191,815
220919,50496712,47903756,50524338,48001202,3800,3800,6953,-6227,-3688,1360,-8909,32767,105,194,815
221920,50497180,47904728,50525082,48001946,3800,3800,11161,-2946,-3072,-1818,-7303,23026,105,194,815
222921,50497608,47905756,50525826,48002690,3800,3800,8341,1879,-2015,-2910,-4526,19646,92,193,814
223922,50498080,47906824,50526570,48003434,3800,3800,4688,5668,-1367,-4377,-3560,12222,92,193,814
224923,50498592,47907828,50527314,48004178,3800,3800,3511,6201,-1260,-5677,-2186,4757,82,198,814
225924,50499092,47908704,50528058,48004922,3800,3800,3789,5758,-1536,-4644,-1089,4735,82,198,814
226924,50499588,47909668,50528802,48005666,3800,3800,3928,5185,-1928,-4299,544,3839,96,209,815
227926,50500184,47910612,50529546,48006410,3800,3800,3770,4880,-2150,-3476,-30,3405,96,209,815
228926,50500772,47911568,50530290,48007154,3800,3800,3521,4488,-2155,-1776,-1835,2023,111,197,816
229928,50501396,47912376,50531034,48007898,3800,3800,3409,3511,-1949,-1119,-2697,940,111,197,816
230929,50502008,47913220,50531778,48008642,3800,3800,3361,2513,-1684,-510,-2815,1157,117,184,816
231930,50502696,47913956,50532522,48009386,3800,3800,3424,1193,-1508,533,-2604,-51,117,184,816
232931,50503372,47914692,50533266,48010130,3800,3800,3460,-6,-1450,1012,-1394,854,125,176,815
233932,50504052,47915344,50534010,48010874,3800,3800,3468,-1026,-1585,716,-63,860,125,176,815
234939,50504808,47916028,50534770,48011634,3800,3800,3525,-2388,-2011,343,1433,-180,129,161,815
235933,50505544,47916556,50535514,48012378,3800,3800,3698,-3966,-2681,59,2538,-471,129,161,815
236934,50506328,47917080,50536258,48013122,3800,3800,3986,-5528,-3453,-144,2955,-376,148,139,812
237936,50507140,47917548,50537002,48013866,3800,3800,4251,-6967,-4163,-255,2422,-70,148,139,812
238937,50507952,47917936,50537746,48014610,3800,3800,4295,-8215,-4661,-582,2442,820,151,110,813
239938,50508796,47918364,50538490,48015354,3800,3800,4108,-9093,-4969,-733,2623,1911,151,110,813
240938,50509652,47918708,50539234,48016098,3800,3800,3846,-9728,-5173,-1188,2298,2615,160,104,812
241940,50510472,47918996,50539978,48016842,3800,3800,3668,-10136,-5223,-2344,1872,3518,160,104,812
242940,50511244,47919284,50540722,48017586,3800,3800,3524,-10226,-5027,-3402,1067,4486,156,84,810
243942,50512080,47919600,50541466,48018330,3800,3800,3387,-10219,-4602,-4226,1263,4602,156,84,810
244942,50512872,47919912,50542210,48019074,3800,3800,3207,-9992,-4076,-5077,2065,5536,174,80,811
245943,50513596,47920200,50542954,48019818,3800,3800,2953,-9728,-3467,-5707,2381,5740,174,80,811
246944,50514284,47920444,50543698,48020562,3800,3800,2691,-9536,-2756,-5670,2448,5552,156,68,810
247946,50514980,47920704,50544442,48021306,3800,3800,1935,-8810,-1626,-4215,859,8213,156,68,810
248947,50515592,47920956,50545186,48022050,3800,3800,25,-7006,828,-2741,-5918,11229,140,65,809
249948,50516140,47921192,50545930,48022794,3800,3800,-2466,-5166,4129,-2617,-7687,9421,140,65,809
250949,50516664,47921396,50546674,48023538,3800,3800,-4062,-5106,6471,-3355,-2381,3175,147,58,809
251950,50517112,47921576,50547418,48024282,3800,3800,-4301,-7367,7327,-3007,1318,-2514,147,58,809
252951,50517548,47921728,50548162,48025026,3800,3800,-3687,-10808,7453,-1199,2547,-4562,116,56,808
253952,50518032,47921904,50548906,48025770,3800,3800,-3187,-13858,7563,961,1993,-2614,116,56,808
254953,50518560,47922056,50549650,48026514,3800,3800,-3058,-15817,7983,2984,342,-217,83,49,807
255954,50519084,47922260,50550394,48027258,3800,3800,-3104,-16512,8799,3621,-1948,2606,83,49,807
256961,50519660,47922504,50551154,48028018,3800,3800,-2933,-16833,9758,3509,-2747,3094,98,49,806
257955,50520264,47922712,50551898,48028762,3800,3800,-2687,-16657,10637,4111,-2942,5711,98,49,806
258956,50520912,47922920,50552642,48029506,3800,3800,-2540,-16050,11341,4968,-3049,6894,105,54,803
259957,50521576,47923108,50553386,48030250,3800,3800,-2240,-15572,11619,5706,-1102,5373,105,54,803
260958,50522248,47923312,50554130,48030994,3800,3800,-1790,-15044,11221,5038,1149,6155,136,54,808
261959,50522748,47923568,50554874,48031738,3800,3800,-1415,-13981,10290,4030,2150,8172,136,54,808
262961,50523344,47923820,50555618,48032482,3800,3800,-872,-12570,9390,3870,-508,8655,130,57,807
263961,50523972,47924080,50556362,48033226,3800,3800,17,-10685,8752,3979,-2288,9827,130,57,807
264963,50524496,47924304,50557106,48033970,3800,3800,778,-7686,8304,4474,-1762,14095,109,60,807
265964,50525160,47924528,50557850,48034714,3800,3800,1091,-3411,7854,4003,-3103,17370,109,60,807
266965,50525944,47924776,50558594,48035458,3800,3800,1104,1348,6971,2276,-2389,17745,106,61,807
267965,50526688,47925072,50559338,48036202,3800,3800,1299,5454,5300,1114,313,14780,106,61,807
268966,50527364,47925312,50560082,48036946,3800,3800,1668,8709,3332,2461,1201,12784,129,55,806
269968,50528280,47925556,50560826,48037690,3800,3800,2091,11280,1634,4453,1325,10701,129,55,806
270969,50529056,47925800,50561570,48038434,3800,3800,2498,13286,306,5453,435,8656,154,49,808
271970,50529864,47926020,50562314,48039178,3800,3800,3004,14625,-858,5778,-208,5819,154,49,808
272971,50530736,47926256,50563058,48039922,3800,3800,3606,15060,-1911,5744,-1062,3036,151,58,809
273972,50531524,47926576,50563802,48040666,3800,3800,4206,14745,-2926,5871,-1007,1216,151,58,809
274973,50532344,47926860,50564546,48041410,3800,3800,4710,14158,-3780,6174,-1306,215,159,68,810
275973,50533368,47927116,50565290,48042154,3800,3800,5066,13365,-4385,6591,-1259,-837,159,68,810
276974,50534132,47927340,50566034,48042898,3800,3800,5328,12304,-4856,7216,-995,-2201,150,51,809
277976,50535080,47927604,50566778,48043642,3800,3800,5599,10739,-5307,7374,-1420,-3788,150,51,809
278986,50535976,47927920,50567538,48044402,3800,3800,5965,8829,-5701,7018,-2447,-4673,154,51,810
279977,50536936,47928216,50568282,48045146,3800,3800,6333,6953,-5909,6430,-3605,-4265,154,51,810
280979,50537920,47928520,50569026,48045890,3800,3800,6626,5550,-5961,5160,-4151,-3264,167,60,810
281980,50538780,47928796,50569770,48046634,3800,3800,6845,4660,-5979,4121,-3774,-2457,167,60,810
282981,50539784,47929124,50570514,48047378,3800,3800,7067,3851,-6076,3932,-3175,-2548,176,57,811
283981,50540696,47929484,50571258,48048122,3800,3800,7269,3307,-6151,3527,-3489,-1581,176,57,811
284983,50541560,47929872,50572002,48048866,3800,3800,7474,2851,-6087,2217,-4016,-1397,159,61,811
285984,50542484,47930188,50572746,48049610,3800,3800,7535,2514,-6048,1187,-3988,-568,159,61,811
286985,50543464,47930608,50573490,48050354,3800,3800,7515,2635,-6056,459,-3503,403,174,67,811
287986,50544264,47931008,50574234,48051098,3800,3800,7369,3134,-6066,-143,-3156,1392,174,67,811
288987,50545212,47931420,50574978,48051842,3800,3800,7140,4005,-6003,-618,-3397,2375,177,85,812
289988,50546096,47931784,50575722,48052586,3800,3800,6900,5260,-5842,-1335,-3410,3525,177,85,812
290988,50546996,47932220,50576466,48053330,3800,3800,6750,6689,-5591,-1312,-3332,3447,170,83,811
291989,50547916,47932656,50577210,48054074,3800,3800,6611,8986,-5000,-1334,-2889,3011,170,83,811
292990,50548852,47933044,50577954,48054818,3800,3800,6487,10458,-4584,-1342,-2044,3516,177,90,811
293992,50549756,47933472,50578698,48055562,3800,3800,6352,11872,-4209,-1399,-756,2684,177,90,811
294993,50550748,47933956,50579442,48056306,3800,3800,6345,12700,-3871,-1154,123,463,182,86,814
295993,50551628,47934420,50580186,48057050,3800,3800,6400,12831,-3581,-578,1316,-1017,182,86,814
296995,50552496,47934884,50580930,48057794,3800,3800,6485,12609,-3260,-167,2006,-1708,176,92,814
297996,50553344,47935404,50581674,48058538,3800,3800,6565,12196,-2929,28,2737,-2277,176,92,814
298997,50554156,47935876,50582418,48059282,3800,3800,6535,11863,-2628,261,3052,-2115,178,88,814
299998,50554832,47936424,50583162,48060026,3800,3800,6379,11759,-2319,547,3965,-1796,178,88,814
301005,50555424,47936992,50583922,48060786,3800,3800,5981,11662,-2009,1226,4730,-1726,179,97,814
301999,50556040,47937556,50584666,48061530,3800,3800,5470,11389,-1733,1913,5419,-2074,179,97,814
303000,50556544,47938164,50585410,48062274,3800,3800,5015,10837,-1512,2293,5993,-2829,139,106,811
304001,50556980,47938772,50586154,48063018,3800,3800,4679,9941,-1287,2526,5734,-3737,139,106,811
305002,50557456,47939528,50586898,48063762,3800,3800,4344,8883,-1058,2641,5519,-3949,106,112,811
306004,50557840,47940184,50587642,48064506,3800,3800,3906,7991,-827,2674,5508,-3443,106,112,811
307004,50558188,47940952,50588386,48065250,3800,3800,3298,7350,-612,2883,5205,-2665,113,121,811
308005,50558592,47941620,50589130,48065994,3800,3800,2539,6903,-431,3130,4856,-2122,113,121,811
309006,50558892,47942356,50589874,48066738,3800,3800,1756,6257,-340,3032,4892,-2985,73,123,809
310007,50559188,47943012,50590618,48067482,3800,3800,984,5295,-556,2614,4873,-3704,73,123,809
311008,50559552,47943704,50591362,48068226,3800,3800,194,4238,-1111,1856,4507,-3533,65,134,810
312009,50559852,47944376,50592106,48068970,3800,3800,-748,3645,-1896,1238,4470,-1967,65,134,810
313010,50560152,47945016,50592850,48069714,3800,3800,-1802,3637,-2776,667,3810,-609,60,130,808
314012,50560464,47945532,50593594,48070458,3800,3800,-2786,3772,-3734,125,3479,-758,60,130,808
315013,50560912,47946024,50594338,48071202,3800,3800,-3641,3831,-4779,-234,3311,-875,65,114,807
316014,50561284,47946460,50595082,48071946,3800,3800,-4435,3719,-5925,-609,3310,-1189,65,114,807
317015,50561660,47946948,50595826,48072690,3800,3800,-5219,3676,-7106,-1014,3139,-642,61,113,808
318016,50562132,47947324,50596570,48073434,3800,3800,-6085,3856,-8285,-1271,2603,83,61,113,808
319017,50562580,47947804,50597314,48074178,3800,3800,-6979,4016,-9368,-1104,1591,-245,72,89,808
320018,50563004,47948304,50598058,48074922,3800,3800,-7603,3660,-10366,-1130,1442,-2154,72,89,808
321019,50563540,47948776,50598802,48075666,3800,3800,-7908,2674,-11179,-1028,962,-3464,92,105,808
322020,50564048,47949336,50599546,48076410,3800,3800,-8118,1228,-11629,-634,387,-3994,92,105,808
323027,50564548,47949820,50600306,48077170,3800,3800,-8330,-251,-11681,-298,62,-3940,85,97,809
324021,50565132,47950364,50601050,48077914,3800,3800,-8581,-1509,-11365,-506,-1350,-3171,85,97,809
325022,50565724,47950808,50601794,48078658,3800,3800,-8855,-2647,-10806,-907,-2490,-2920,90,102,808
326024,50566284,47951216,50602538,48079402,3800,3800,-9108,-3971,-10186,-1181,-2310,-3482,90,102,808
327025,50566936,47951612,50603282,48080146,3800,3800,-9301,-5545,-9617,-1276,-2170,-3804,119,102,810
328026,50567544,47952100,50604026,48080890,3800,3800,-9380,-7150,-9121,-1906,-1887,-3391,119,102,810
329026,50568196,47952652,50604770,48081634,3800,3800,-9453,-8605,-8641,-2708,-1857,-2279,118,101,810
330028,50568832,47953184,50605514,48082378,3800,3800,-9555,-9714,-8089,-3305,-2174,-1279,118,101,810
331029,50569564,47953728,50606258,48083122,3800,3800,-9697,-10497,-7387,-3517,-3057,-93,114,93,810
332030,50570224,47954320,50607002,48083866,3800,3800,-9862,-10999,-6552,-3711,-3799,1081,114,93,810
333031,50570884,47954864,50607746,48084610,3800,3800,-10048,-11331,-5600,-4017,-4636,2279,111,104,809
334032,50571680,47955404,50608490,48085354,3800,3800,-10234,-11495,-4590,-4351,-5080,3394,111,104,809
335033,50572376,47956116,50609234,48086098,3800,3800,-10401,-11537,-3633,-4349,-5325,4138,132,114,810
336034,50573120,47956700,50609978,48086842,3800,3800,-10559,-11517,-2794,-4193,-5402,4894,132,114,810
337034,50573928,47957380,50610722,48087586,3800,3800,-8979,-11790,-2010,-1666,-6324,13064,154,122,810
338036,50574688,47958104,50611466,48088330,3800,3800,934,-12356,-2927,14910,-8430,32767,154,122,810
339037,50575488,47958676,50612210,48089074,3800,3800,6713,-6424,-2523,6368,-11274,32767,152,126,813
340038,50576288,47959412,50612954,48089818,3800,3800,3266,2324,-339,-3048,-9031,29561,152,126,813
341038,50577028,47960120,50613698,48090562,3800,3800,-1504,6431,1059,-6226,-3962,12514,147,128,814
342040,50577788,47960752,50614442,48091306,3800,3800,-2499,4938,1280,-5974,-454,649,147,128,814
343041,50578556,47961436,50615186,48092050,3800,3800,-1314,538,1179,-4095,-177,-1358,158,125,813
344042,50579288,47962336,50615930,48092794,3800,3800,-131,-2326,1427,-3319,-743,2817,158,125,813
345050,50579916,47963140,50616690,48093554,3800,3800,243,-3950,1971,-1941,-1034,4661,175,145,814
346043,50580576,47964152,50617434,48094298,3800,3800,433,-5242,2670,-1355,-2382,4974,175,145,814
347045,50581148,47964984,50618178,48095042,3800,3800,905,-6987,3364,-1101,-3103,4587,156,164,815
348045,50581676,47965936,50618922,48095786,3800,3800,1496,-9013,3958,-407,-3934,4820,156,164,815
349046,50582132,47966808,50619666,48096530,3800,3800,1967,-10663,4501,351,-3802,4014,146,186,816
350047,50582620,47967748,50620410,48097274,3800,3800,2189,-12265,5032,906,-4902,1556,146,186,816
351049,50583012,47968748,50621154,48098018,3800,3800,2200,-13702,5610,1692,-5839,2125,132,175,815
352049,50583368,47969640,50621898,48098762,3800,3800,2083,-14507,6265,2552,-6450,4378,132,175,815
353050,50583708,47970548,50622642,48099506,3800,3800,2023,-14624,6754,3329,-6148,4830,87,197,814
354051,50583956,47971360,50623386,48100250,3800,3800,2056,-14734,6930,3639,-4983,5145,87,197,814
355053,50584240,47972284,50624130,48100994,3800,3800,1806,-13804,6802,4324,-3414,9815,90,195,813
356054,50584544,47973176,50624874,48101738,3800,3800,1553,-12768,6490,5200,-3427,7609,90,195,813
357054,50584920,47974096,50625618,48102482,3800,3800,1582,-11862,6094,5432,-4292,7223,57,190,810
358055,50585368,47974964,50626362,48103226,3800,3800,1668,-10879,5889,5066,-4873,8265,57,190,810
359057,50585868,47975792,50627106,48103970,3800,3800,1793,-9581,5890,4859,-4752,9183,72,185,810
360057,50586308,47976592,50627850,48104714,3800,3800,1935,-8096,5852,5597,-2640,8961,72,185,810
361058,50586832,47977336,50628594,48105458,3800,3800,2169,-6907,5515,7186,-293,6958,77,191,812
362059,50587440,47978060,50629338,48106202,3800,3800,2427,-6263,4868,7814,361,5079,77,191,812
363061,50587972,47978764,50630082,48106946,3800,3800,2914,-6122,4170,6002,-667,4040,123,160,813
364061,50588432,47979304,50630826,48107690,3800,3800,3499,-5591,3630,4053,-2207,5865,123,160,813
365063,50588968,47979828,50631570,48108434,3800,3800,4069,-4493,3271,2930,-3117,6875,129,137,813
366064,50589420,47980312,50632314,48109178,3800,3800,4544,-2662,2967,1658,-3220,8658,129,137,813
367074,50589780,47980748,50633074,48109938,3800,3800,4855,-524,2672,877,-2796,8973,104,121,810
368066,50590280,47981176,50633818,48110682,3800,3800,4913,1287,1915,-810,-1240,7814,104,121,810
369066,50590820,47981456,50634562,48111426,3800,3800,4706,3507,799,-2369,-422,9386,98,102,808
370067,50591316,47981696,50635306,48112170,3800,3800,4420,5491,-132,-2483,-1720,7614,98,102,808
371068,50591848,47981888,50636050,48112914,3800,3800,4033,7010,-1051,-3240,-547,6716,98,85,808
372069,50592576,47982064,50636794,48113658,3800,3800,3623,8362,-2003,-3862,1300,6092,98,85,808
373070,50593116,47982196,50637538,48114402,3800,3800,3139,9350,-2870,-2580,1112,4394,96,62,807
374071,50593760,47982344,50638282,48115146,3800,3800,2773,9292,-3696,-2008,1454,992,96,62,807
375073,50594412,47982416,50639026,48115890,3800,3800,2513,8851,-4281,-1593,394,616,125,47,806
376073,50595092,47982496,50639770,48116634,3800,3800,2394,7892,-4611,-1109,-815,-1323,125,47,806
377074,50595668,47982608,50640514,48117378,3800,3800,2243,6799,-4613,-786,-2136,-991,134,20,805
378075,50596416,47982728,50641258,48118122,3800,3800,2099,5632,-4367,-54,-1799,-1629,134,20,805
379077,50597188,47982872,50642002,48118866,3800,3800,1838,4312,-4105,520,-1341,-2116,132,28,805
380078,50597996,47982992,50642746,48119610,3800,3800,1765,2459,-4210,-210,621,-4247,132,28,805
381079,50598868,47983132,50643490,48120354,3800,3800,1721,314,-4507,-219,839,-3927,141,36,806
382080,50599764,47983268,50644234,48121098,3800,3800,1360,-925,-4419,1652,-632,-317,141,36,806
383081,50600624,47983424,50644978,48121842,3800,3800,740,-1253,-3918,2773,-141,1225,153,34,807
384082,50601512,47983616,50645722,48122586,3800,3800,387,-2005,-3713,2470,1584,-1554,153,34,807
385083,50602560,47983832,50646466,48123330,3800,3800,303,-3434,-3827,2680,1479,-2225,164,44,808
386084,50603568,47984064,50647210,48124074,3800,3800,281,-4757,-3998,3272,1583,-932,164,44,808
387085,50604472,47984244,50647954,48124818,3800,3800,111,-5373,-4125,4042,1843,763,154,57,810
388086,50605548,47984452,50648698,48125562,3800,3800,-124,-5511,-4220,3963,1806,1288,154,57,810
389094,50606492,47984628,50649458,48126322,3800,3800,-285,-5382,-4241,3462,1718,2131,176,47,810
390087,50607476,47984852,50650202,48127066,3800,3800,-275,-4839,-4111,3009,1748,3402,176,47,810
391088,50608508,47985080,50650946,48127810,3800,3800,-267,-3604,-3888,2917,1900,5876,170,51,809
392089,50609468,47985300,50651690,48128554,3800,3800,-366,-1567,-3623,2974,1713,8095,170,51,809
393090,50610296,47985524,50652434,48129298,3800,3800,-526,1109,-3340,2595,1757,9414,194,63,812
394091,50611224,47985708,50653178,48130042,3800,3800,-585,3812,-3145,1555,2211,9192,194,63,812
395092,50612112,47985892,50653922,48130786,3800,3800,-614,6351,-3083,1141,2643,9569,189,51,812
396093,50612956,47986072,50654666,48131530,3800,3800,-699,9074,-3126,1407,2528,10397,189,51,812
397094,50613860,47986244,50655410,48132274,3800,3800,-673,11877,-3037,1607,1473,9872,192,55,811
398096,50614700,47986392,50656154,48133018,3800,3800,-535,14143,-2959,1020,1541,8085,192,55,811
399096,50615528,47986512,50656898,48133762,3800,3800,-324,15723,-3017,617,1597,6490,177,56,810
400098,50616316,47986620,50657642,48134506,3800,3800,-105,16845,-3192,867,1595,5182,177,56,810
401098,50617152,47986740,50658386,48135250,3800,3800,89,17519,-3473,1076,1478,3581,198,47,809
402099,50617932,47986840,50659130,48135994,3800,3800,290,17626,-3859,950,2057,1949,198,47,809
403100,50618668,47986928,50659874,48136738,3800,3800,555,16997,-4369,797,2358,-169,158,37,807
404101,50619468,47987008,50660618,48137482,3800,3800,826,15922,-4795,1093,1006,-1212,158,37,807
405102,50620228,47987080,50661362,48138226,3800,3800,1099,14635,-5003,1266,342,-1723,143,21,808
406103,50620900,47987164,50662106,48138970,3800,3800,1297,13306,-5078,1280,-50,-1761,143,21,808
407104,50621660,47987260,50662850,48139714,3800,3800,1416,12025,-5155,1020,11,-1783,138,22,807
408105,50622292,47987360,50663594,48140458,3800,3800,1511,10691,-5313,693,644,-2183,138,22,807
409106,50622888,47987464,50664338,48141202,3800,3800,1621,9198,-5580,267,1039,-2564,160,22,807
410107,50623532,47987564,50665082,48141946,3800,3800,1742,7481,-5866,-39,869,-2846,160,22,807
411115,50624044,47987680,50665842,48142706,3800,3800,1804,5891,-6057,-198,360,-2188,146,24,807
412110,50624524,47987832,50666586,48143450,3800,3800,1786,4520,-6102,-612,-46,-1415,146,24,807
413110,50625084,47988032,50667330,48144194,3800,3800,1677,3582,-6020,-1076,-675,-16,107,29,805
414111,50625572,47988180,50668074,48144938,3800,3800,1521,3008,-5830,-1605,-856,994,107,29,805
415112,50625996,47988352,50668818,48145682,3800,3800,1374,2533,-5621,-1984,-381,1272,100,48,805
416114,50626488,47988484,50669562,48146426,3800,3800,1281,2002,-5441,-2201,37,1269,100,48,805
417114,50627004,47988644,50670306,48147170,3800,3800,1212,1432,-5195,-2400,-371,1844,94,46,805
418115,50627416,47988832,50671050,48147914,3800,3800,1133,1211,-4821,-2580,-705,3089,94,46,805
419116,50627872,47989068,50671794,48148658,3800,3800,970,1251,-4320,-2917,-714,3822,91,43,805
420118,50628376,47989284,50672538,48149402,3800,3800,789,1388,-3776,-3181,-366,3965,91,43,805
421118,50628748,47989520,50673282,48150146,3800,3800,593,1433,-3244,-3271,151,4008,78,42,805
422120,50629188,47989776,50674026,48150890,3800,3800,470,1342,-2736,-3323,744,3835,78,42,805
423121,50629676,47989988,50674770,48151634,3800,3800,357,560,-2208,-4481,1159,2658,90,47,804
424121,50630104,47990256,50675514,48152378,3800,3800,369,-2122,-1626,-6178,1376,-292,90,47,804
425122,50630516,47990556,50676258,48153122,3800,3800,385,-5663,-1059,-5543,1223,140,75,62,804
426123,50631096,47990836,50677002,48153866,3800,3800,232,-7709,-540,-3329,1098,3412,75,62,804
427124,50631572,47991120,50677746,48154610,3800,3800,-57,-7570,83,-1848,1522,6445,92,53,805
428126,50632032,47991392,50678490,48155354,3800,3800,-287,-6233,800,-1750,2189,7662,92,53,805
429126,50632592,47991656,50679234,48156098,3800,3800,-405,-5104,1317,-1640,2942,6765,94,66,805
430128,50633096,47992032,50679978,48156842,3800,3800,-419,-4649,1574,-1575,3767,6138,94,66,805
431129,50633620,47992392,50680722,48157586,3800,3800,-371,-4375,1689,-1311,4546,6095,89,68,806
432130,50634160,47992704,50681466,48158330,3800,3800,-311,-4377,1711,-807,4778,4813,89,68,806
433137,50634800,47992996,50682226,48159090,3800,3800,-173,-4552,1732,-399,4915,4482,108,68,807
434132,50635360,47993408,50682970,48159834,3800,3800,-36,-4765,1773,160,5084,4387,108,68,807
435132,50635940,47993820,50683714,48160578,3800,3800,135,-5016,1768,990,4915,3992,112,76,805
436133,50636620,47994156,50684458,48161322,3800,3800,257,-5366,1732,1218,4547,3903,112,76,805
437134,50637220,47994512,50685202,48162066,3800,3800,535,-5931,1589,1256,4671,2807,126,86,808
438135,50637820,47994920,50685946,48162810,3800,3800,804,-6724,1312,1458,4260,2595,126,86,808
439136,50638532,47995312,50686690,48163554,3800,3800,1111,-7353,1063,1260,3041,2882,104,71,808
440137,50639204,47995680,50687434,48164298,3800,3800,1398,-7942,914,1085,2242,3120,104,71,808
441138,50639896,47996192,50688178,48165042,3800,3800,1729,-8373,781,910,1936,3493,115,84,809
442139,50640656,47996620,50688922,48165786,3800,3800,2004,-8609,734,691,1082,4293,115,84,809
443140,50641368,47997040,50689666,48166530,3800,3800,2240,-8574,769,591,319,4974,124,88,810
444141,50642076,47997416,50690410,48167274,3800,3800,2408,-8418,823,465,454,5312,124,88,810
445143,50642820,47997896,50691154,48168018,3800,3800,2573,-8075,915,197,392,5946,141,90,808
446144,50643560,47998380,50691898,48168762,3800,3800,2701,-7633,1028,-188,-118,6142,141,90,808
447145,50644248,47998808,50692642,48169506,3800,3800,2838,-7243,1132,-741,-26,6035,137,83,810
448146,50644976,47999320,50693386,48170250,3800,3800,2988,-6765,1240,-1109,34,6489,137,83,810
449147,50645720,47999828,50694130,48170994,3800,3800,3072,-6245,1373,-744,61,6503,165,85,811
450148,50646396,48000312,50694874,48171738,3800,3800,3125,-5749,1531,-11,763,6136,165,85,811
451149,50647068,48000896,50695618,48172482,3800,3800,3167,-5337,1708,1122,1598,5741,160,93,811
452150,50647760,48001440,50696362,48173226,3800,3800,3197,-5055,1890,2156,1866,5264,160,93,811
453151,50648400,48002100,50697106,48173970,3800,3800,3206,-4686,2027,2889,2768,5353,156,114,811
454152,50649036,48002696,50697850,48174714,3800,3800,3083,-3989,2363,3442,685,6937,156,114,811
455162,50649684,48003356,50698610,48175474,3800,3800,2811,-2634,2820,3734,-98,8688,154,110,811
456154,50650288,48004036,50699354,48176218,3800,3800,2513,-705,3427,4224,-654,9557,154,110,811
457155,50650944,48004812,50700098,48176962,3800,3800,2220,1406,4018,5441,830,9609,140,116,810
458155,50651596,48005620,50700842,48177706,3800,3800,2207,2794,4520,5536,403,6682,140,116,810
459157,50652288,48006448,50701586,48178450,3800,3800,2508,3446,4580,4222,1870,4463,119,142,812
460157,50652928,48007196,50702330,48179194,3800,3800,3077,3315,4190,3861,2843,2220,119,142,812
461159,50653740,48008020,50703074,48179938,3800,3800,3620,3469,3628,3557,2069,3485,144,139,813
462160,50654380,48008704,50703818,48180682,3800,3800,3924,4344,3094,3498,1366,5569,144,139,813
463161,50655156,48009592,50704562,48181426,3800,3800,3844,6259,2742,4074,-323,7763,134,158,813
464162,50655868,48010348,50705306,48182170,3800,3800,3593,8304,2304,3464,679,6958,134,158,813
465163,50656652,48011052,50706050,48182914,3800,3800,3346,9938,1574,2821,1480,6091,149,164,814
466164,50657420,48011696,50706794,48183658,3800,3800,3126,11108,591,2658,620,4640,149,164,814
467165,50658184,48012332,50707538,48184402,3800,3800,2892,11908,-477,2621,-922,3637,152,144,813
468166,50659076,48012904,50708282,48185146,3800,3800,2473,12832,-1733,2701,-511,3988,152,144,813
469167,50659932,48013564,50709026,48185890,3800,3800,1873,13718,-2960,3045,-1299,3138,146,136,813
470168,50660724,48014120,50709770,48186634,3800,3800,1243,14492,-4032,3563,-1057,2270,146,136,813
471169,50661704,48014680,50710514,48187378,3800,3800,743,15046,-4959,4075,-559,1343,163,132,814
472170,50662576,48015216,50711258,48188122,3800,3800,322,15197,-5857,4150,657,-1,163,132,814
473171,50663500,48015696,50712002,48188866,3800,3800,-41,14860,-6770,3819,1447,-1694,168,120,814
474172,50664548,48016168,50712746,48189610,3800,3800,-261,13882,-7647,3675,1601,-3873,168,120,814
475173,50665532,48016508,50713490,48190354,3800,3800,-450,12694,-8381,4280,1079,-3919,180,117,814
476173,50666524,48016764,50714234,48191098,3800,3800,-756,11771,-8853,4939,-55,-3150,180,117,814
477182,50667676,48016972,50714994,48191858,3800,3800,-1311,11364,-9020,5553,-1616,-1690,184,88,814
478176,50668696,48017120,50715738,48192602,3800,3800,-2037,11398,-9035,4932,-3148,-730,184,88,814
479177,50669684,48017204,50716482,48193346,3800,3800,-2714,11248,-9311,2920,-2007,-1758,184,80,810
480178,50670744,48017224,50717226,48194090,3800,3800,-3223,10691,-10028,1007,-128,-2701,184,80,810
481178,50671676,48017228,50717970,48194834,3800,3800,-3733,10028,-10938,399,98,-2374,187,44,810
482180,50672576,48017248,50718714,48195578,3800,3800,-4231,9548,-11823,262,589,-2555,187,44,810
483180,50673576,48017252,50719458,48196322,3800,3800,-4725,9095,-12546,-57,55,-2466,174,27,809
484182,50674532,48017252,50720202,48197066,3800,3800,-5153,8801,-13080,-842,-1139,-1803,174,27,809
485182,50675292,48017216,50720946,48197810,3800,3800,-5546,8683,-13367,-1609,-2022,-1154,197,14,805
486184,50676092,48017216,50721690,48198554,3800,3800,-5917,8591,-13543,-2114,-2174,-1213,197,14,805
487185,50676952,48017228,50722434,48199298,3800,3800,-6283,8605,-13713,-3046,-3018,-762,159,22,804
488186,50677740,48017240,50723178,48200042,3800,3800,-6591,8677,-13839,-4531,-4803,-591,159,22,804
489187,50678456,48017424,50723922,48200786,3800,3800,-6809,8659,-13984,-5746,-5735,-868,166,22,803
490188,50679208,48017860,50724666,48201530,3800,3800,-6886,8565,-14145,-6080,-6564,-1138,166,22,803
491188,50679872,48018188,50725410,48202274,3800,3800,-6839,8245,-14132,-5843,-7893,-1776,153,23,803
492189,50680468,48018472,50726154,48203018,3800,3800,-6689,7285,-13793,-5146,-9525,-2922,153,23,803
493190,50681032,48018976,50726898,48203762,3800,3800,-6610,5891,-13108,-4420,-10238,-3130,159,51,809
494192,50681468,48019484,50727642,48204506,3800,3800,-6525,4218,-12165,-4274,-10677,-3927,159,51,809
495193,50681804,48019964,50728386,48205250,3800,3800,-6447,2242,-10996,-4134,-11118,-4441,142,85,809
496194,50682128,48020436,50729130,48205994,3800,3800,-6332,190,-9563,-4289,-12081,-3998,142,85,809
497194,50682340,48020912,50729874,48206738,3800,3800,-6288,-1644,-8019,-4375,-12585,-2695,90,100,809
498196,50682480,48021428,50730618,48207482,3800,3800,-6327,-3339,-6488,-4271,-12872,-2024,90,100,809
499203,50682604,48021964,50731378,48208242,3800,3800,-6412,-5959,-4890,-5962,-13385,-3040,64,109,807
500198,50682688,48022544,50732122,48208986,3800,3800,-6480,-9593,-3247,-6307,-13707,-2746,64,109,807
501198,50682764,48023244,50732866,48209730,3800,3800,-2492,-12634,-1739,-3589,-12473,21864,36,100,805
502199,50682844,48023948,50733610,48210474,3800,3800,6493,-7137,-790,7912,-10854,32767,36,100,805
503201,50682984,48024596,50734354,48211218,3800,3800,7525,2443,2037,2242,-20981,32239,32,123,804
504201,50683136,48025360,50735098,48211962,3800,3800,4047,5382,4537,-1627,-7025,4798,32,123,804
505202,50683340,48026116,50735842,48212706,3800,3800,1946,3307,4875,-3617,697,-623,33,126,806
506204,50683648,48026912,50736586,48213450,3800,3800,2126,-470,4416,-3958,1383,-2108,33,126,806
507204,50684000,48027736,50737330,48214194,3800,3800,2755,-2515,4349,-1824,1938,1062,22,133,806
508205,50684404,48028632,50738074,48214938,3800,3800,2716,-2757,4809,-863,3136,4394,22,133,806
509206,50684820,48029516,50738818,48215682,3800,3800,2342,-2235,5388,-527,1886,4689,70,153,808
510208,50685268,48030256,50739562,48216426,3800,3800,2068,-2191,5844,-53,-263,3193,70,153,808
511209,50685740,48031316,50740306,48217170,3800,3800,2266,-2594,6190,-433,-965,3303,88,173,810
512210,50686240,48032236,50741050,48217914,3800,3800,2482,-2360,6461,-634,-1367,5628,88,173,810
513211,50686708,48033288,50741794,48218658,3800,3800,2725,-1834,6504,-996,-1208,5513,90,192,812
514212,50687172,48034300,50742538,48219402,3800,3800,3116,-1475,6349,-863,-519,4047,90,192,812
515213,50687744,48035236,50743282,48220146,3800,3800,3664,-1286,5978,-686,414,3599,108,189,814
516214,50688272,48036112,50744026,48220890,3800,3800,4195,-1320,5501,-752,-459,3690,108,189,814
517215,50688792,48037040,50744770,48221634,3800,3800,4775,-1269,4860,-1292,-406,3721,96,185,814
518216,50689352,48037948,50745514,48222378,3800,3800,5428,-1395,4044,-1118,333,2682,96,185,814
519217,50690040,48038952,50746258,48223122,3800,3800,5925,-1371,3068,-705,1346,3344,105,186,814
520218,50690696,48039808,50747002,48223866,3800,3800,6259,-1216,2019,-725,2900,3371,105,186,814
521226,50691376,48040720,50747762,48224626,3800,3800,6550,-1164,1028,-294,2729,2986,132,185,814
522220,50692172,48041620,50748506,48225370,3800,3800,6989,-1097,346,838,-583,2673,132,185,814
523221,50692924,48042392,50749250,48226114,3800,3800,7425,-1107,10,2067,-1677,2791,134,198,815
524221,50693740,48043252,50749994,48226858,3800,3800,7737,-994,-271,2167,911,2692,134,198,815
525222,50694612,48043996,50750738,48227602,3800,3800,7791,-1185,-678,1501,2013,1498,149,196,816
526223,50695492,48044676,50751482,48228346,3800,3800,7796,-1591,-1236,1050,2539,289,149,196,816
527225,50696408,48045308,50752226,48229090,3800,3800,7818,-2193,-1871,286,3358,-322,150,179,815
528226,50697420,48045920,50752970,48229834,3800,3800,7779,-2605,-2419,-823,2566,481,150,179,815
529226,50698356,48046472,50753714,48230578,3800,3800,7538,-2868,-2924,-1826,1784,675,168,154,815
530227,50699316,48047044,50754458,48231322,3800,3800,7202,-3108,-3526,-2364,1404,370,168,154,815
531229,50700396,48047528,50755202,48232066,3800,3800,6842,-3437,-4247,-2665,1320,-223,179,125,815
532229,50701500,48047984,50755946,48232810,3800,3800,6442,-4006,-4897,-2847,540,-540,179,125,815
533230,50702560,48048380,50756690,48233554,3800,3800,5990,-4302,-5290,-3196,-205,413,211,116,815
534231,50703620,48048764,50757434,48234298,3800,3800,5544,-4300,-5366,-4005,-683,919,211,116,815
535233,50704740,48049156,50758178,48235042,3800,3800,5061,-4048,-5189,-4814,-1570,1651,218,87,813
536233,50705864,48049492,50758922,48235786,3800,3800,4504,-3381,-4617,-5760,-3198,3321,218,87,813
537235,50706888,48049820,50759666,48236530,3800,3800,3892,-2399,-3703,-6671,-3808,4022,216,89,814
538235,50707940,48050056,50760410,48237274,3800,3800,3431,-1837,-2857,-7456,-2887,1842,216,89,814
539237,50708900,48050308,50761154,48238018,3800,3800,3223,-2163,-2179,-8388,-1987,-122,223,70,813
540237,50709812,48050588,50761898,48238762,3800,3800,3137,-2923,-1499,-8790,-1899,-613,223,70,813
541238,50710728,48050840,50762642,48239506,3800,3800,3001,-3920,-723,-8781,-1675,-1341,198,58,813
542239,50711520,48051060,50763386,48240250,3800,3800,2817,-5008,160,-8200,-1081,-1442,198,58,813
543250,50712216,48051244,50764146,48241010,3800,3800,2560,-6178,1075,-6866,-498,-1461,192,71,812
544242,50712916,48051380,50764890,48241754,3800,3800,2303,-7441,2135,-5643,-1187,-1708,192,71,812
545243,50713500,48051496,50765634,48242498,3800,3800,2054,-8799,3348,-4003,-1758,-1912,164,59,809
546244,50714044,48051568,50766378,48243242,3800,3800,1855,-10587,4468,-2304,-1338,-3395,164,59,809
547244,50714516,48051596,50767122,48243986,3800,3800,1511,-12295,5401,-424,-331,-2184,129,31,807
548245,50714932,48051616,50767866,48244730,3800,3800,157,-12688,6028,1105,702,2934,129,31,807
549246,50715272,48051640,50768610,48245474,3800,3800,-1303,-13194,6641,1664,-1358,-422,108,17,806
550247,50715596,48051652,50769354,48246218,3800,3800,-2605,-14113,7474,3268,-2098,104,108,17,806
551249,50716000,48051664,50770098,48246962,3800,3800,-3425,-15245,8256,4602,-984,-241,82,10,803
552249,50716348,48051644,50770842,48247706,3800,3800,-3722,-16517,8788,4991,-305,-887,82,10,803
553251,50716764,48051620,50771586,48248450,3800,3800,-3636,-17799,9289,5076,-695,-658,59,18,801
554251,50717248,48051640,50772330,48249194,3800,3800,-3500,-18566,9566,5376,732,1447,59,18,801
555253,50717704,48051668,50773074,48249938,3800,3800,-3404,-18789,9500,6524,2687,2310,85,6,800
556253,50718148,48051696,50773818,48250682,3800,3800,-3252,-18795,9107,7951,4187,2684,85,6,800
557254,50718728,48051732,50774562,48251426,3800,3800,-3074,-18401,8509,8549,4303,4522,95,5,801
558255,50719192,48051756,50775306,48252170,3800,3800,-3016,-17008,7878,7512,3903,8208,95,5,801
559257,50719560,48051784,50776050,48252914,3800,3800,-3056,-14427,7271,6496,3081,11637,95,13,803
560258,50720180,48051832,50776794,48253658,3800,3800,-3144,-11083,6742,6227,1789,13315,95,13,803
561259,50720668,48051920,50777538,48254402,3800,3800,-3214,-7231,6146,5486,1863,14982,84,10,803
562260,50721140,48051980,50778282,48255146,3800,3800,-3261,-3123,5233,4952,3214,16015,84,10,803
563261,50721876,48052060,50779026,48255890,3800,3800,-3283,1094,4134,5352,3788,16223,101,13,803
564262,50722484,48052160,50779770,48256634,3800,3800,-3216,5229,3136,5194,3946,15270,101,13,803
565269,50723196,48052264,50780530,48257394,3800,3800,-2976,8907,2257,5234,4044,13480,115,16,804
566263,50723880,48052364,50781274,48258138,3800,3800,-2584,11942,1288,5874,4746,11511,115,16,804
567265,50724684,48052504,50782018,48258882,3800,3800,-2178,14428,301,6756,4459,10131,132,35,804
568265,50725412,48052636,50782762,48259626,3800,3800,-1837,16377,-688,7313,3998,8260,132,35,804
569266,50726116,48052780,50783506,48260370,3800,3800,-1441,17304,-1649,7228,3553,4877,151,38,806
570267,50726900,48052940,50784250,48261114,3800,3800,-1003,17304,-2577,7334,3899,2548,151,38,806
571268,50727612,48053056,50784994,48261858,3800,3800,-591,16731,-3498,7631,3851,629,139,31,807
572269,50728308,48053208,50785738,48262602,3800,3800,-252,15722,-4403,7738,3312,-876,139,31,807
573270,50729192,48053420,50786482,48263346,3800,3800,112,14296,-5199,7728,2519,-2209,131,45,807
574271,50729984,48053620,50787226,48264090,3800,3800,513,12564,-5866,7609,1831,-2790,131,45,807
575272,50730832,48053812,50787970,48264834,3800,3800,940,10801,-6360,7031,457,-3006,139,51,807
576274,50731720,48054012,50788714,48265578,3800,3800,1353,9308,-6615,5935,-989,-2347,139,51,807
577275,50732548,48054184,50789458,48266322,3800,3800,1680,8295,-6606,4844,-2481,-1028,137,38,807
578276,50733384,48054356,50790202,48267066,3800,3800,1894,7496,-6523,3755,-3319,-409,137,38,807
579277,50734292,48054584,50790946,48267810,3800,3800,2059,6920,-6564,2898,-3336,-68,169,42,806
580278,50735236,48054800,50791690,48268554,3800,3800,2238,6090,-6772,2016,-2863,-1040,169,42,806
581278,50736072,48055048,50792434,48269298,3800,3800,2402,5159,-6999,1177,-3058,-749,153,53,808
582280,50736948,48055256,50793178,48270042,3800,3800,2449,4633,-7085,368,-3043,452,153,53,808
583281,50737908,48055464,50793922,48270786,3800,3800,2424,4412,-6985,-34,-3295,909,176,41,809
584282,50738756,48055676,50794666,48271530,3800,3800,2449,4196,-6771,-150,-3116,635,176,41,809
585283,50739656,48055912,50795410,48272274,3800,3800,2601,3942,-6476,-777,-2358,505,171,56,810
586284,50740588,48056172,50796154,48273018,3800,3800,2787,3838,-5986,-1368,-2319,1248,171,56,810
587292,50741416,48056388,50796914,48273778,3800,3800,2949,4141,-5263,-2233,-2866,2497,161,48,810
588286,50742232,48056612,50797658,48274522,3800,3800,3083,4866,-4356,-3354,-2882,3493,177,45,809
589287,50743176,48056804,50798402,48275266,3800,3800,3221,5795,-3465,-4356,-2174,3525,177,45,809
590288,50744016,48056980,50799146,48276010,3800,3800,3341,6723,-2679,-5370,-1305,3477,188,55,809
591288,50744840,48057176,50799890,48276754,3800,3800,3454,7600,-1952,-6083,-645,3314,188,55,809
592290,50745712,48057424,50800634,48277498,3800,3800,3509,8437,-1274,-6484,73,3118,198,43,811
593291,50746492,48057672,50801378,48278242,3800,3800,3460,9294,-607,-6972,741,3435,198,43,811
594292,50747208,48057940,50802122,48278986,3800,3800,3269,10384,1,-7052,2147,4108,185,66,810
595293,50747888,48058188,50802866,48279730,3800,3800,3023,11487,466,-6917,3423,3416,185,66,810
596294,50748536,48058412,50803610,48280474,3800,3800,2974,12347,898,-6606,3370,2135,149,46,809
597294,50749044,48058664,50804354,48281218,3800,3800,3106,12434,1352,-5423,3217,168,149,46,809
598296,50749500,48058976,50805098,48281962,3800,3800,3143,11897,1822,-3774,3080,-828,138,51,808
599297,50749908,48059296,50805842,48282706,3800,3800,2993,11114,2351,-2010,2584,-956,138,51,808
600298,50750160,48059600,50806586,48283450,3800,3800,2653,10118,2934,-357,1223,-1424,96,71,804
601299,50750396,48059860,50807330,48284194,3800,3800,2223,8916,3478,999,841,-1764,96,71,804
602299,50750568,48060168,50808074,48284938,3800,3800,1914,7379,3849,2388,1897,-3041,55,55,805
603300,50750692,48060508,50808818,48285682,3800,3800,1636,5304,3963,3824,2959,-4130,55,55,805
604301,50750772,48060828,50809562,48286426,3800,3800,1353,2918,3949,4674,3379,-4164,31,62,803
605302,50750884,48061156,50810306,48287170,3800,3800,1026,460,3938,5271,2861,-3805,31,62,803
606304,50750968,48061556,50811050,48287914,3800,3800,656,-1797,3864,5598,2312,-3057,20,66,802
607304,50751068,48061976,50811794,48288658,3800,3800,225,-3600,3657,5768,2587,-1499,20,66,802
608306,50751212,48062332,50812538,48289402,3800,3800,-324,-4820,3279,6062,2567,227,22,78,802
609314,50751380,48062704,50813298,48290162,3800,3800,-1001,-5476,2756,6149,2219,2060,22,78,802
610308,50751552,48063112,50814042,48290906,3800,3800,-1724,-5739,2129,6132,3205,3299,21,79,801
611309,50751768,48063560,50814786,48291650,3800,3800,-2536,-5748,1363,6440,4836,4099,21,79,801
612310,50752024,48063984,50815530,48292394,3800,3800,-3392,-5406,576,6820,5094,5646,29,93,803
613310,50752280,48064408,50816274,48293138,3800,3800,-4136,-4684,-106,6905,5160,6654,29,93,803
614311,50752560,48064920,50817018,48293882,3800,3800,-4769,-3768,-727,6735,5270,6863,49,81,804
615313,50752872,48065440,50817762,48294626,3800,3800,-5426,-2886,-1285,6350,5040,6868,49,81,804
616313,50753168,48065928,50818506,48295370,3800,3800,-6084,-1838,-1738,6106,4634,7790,70,87,805
617315,50753476,48066520,50819250,48296114,3800,3800,-6731,-696,-2071,5697,4366,8105,70,87,805
618315,50753840,48067044,50819994,48296858,3800,3800,-7237,276,-2285,5095,4284,7590,63,109,806
619316,50754176,48067740,50820738,48297602,3800,3800,-7482,960,-2450,4210,4230,6606,63,109,806
620317,50754552,48068404,50821482,48298346,3800,3800,-7489,1237,-2527,3484,3574,5414,71,109,806
621318,50755024,48069132,50822226,48299090,3800,3800,-7325,1280,-2459,2996,3150,4828,71,109,806
622319,50755412,48069816,50822970,48299834,3800,3800,-7046,1088,-2334,2380,3009,3942,72,117,806
623321,50755820,48070660,50823714,48300578,3800,3800,-6684,759,-2190,1506,2252,3899,72,117,806
624321,50756300,48071336,50824458,48301322,3800,3800,-4659,3302,-1694,-791,-1037,29332,93,136,808
625322,50756804,48072168,50825202,48302066,3800,3800,-1110,9054,-894,-2529,-2171,32767,93,136,808
626324,50757308,48073012,50825946,48302810,3800,3800,1008,10454,-777,-1206,2928,1964,96,135,811
627324,50757816,48073820,50826690,48303554,3800,3800,1446,8261,-1223,-1817,3775,-1138,96,135,811
628325,50758368,48074572,50827434,48304298,3800,3800,1470,5856,-1841,-2037,3284,-535,113,153,811
629326,50758940,48075308,50828178,48305042,3800,3800,1651,4189,-2353,-2857,2683,-456,113,153,811
630327,50759448,48076084,50828922,48305786,3800,3800,2118,3066,-2842,-3846,1626,-353,98,151,811
631338,50760008,48076844,50829682,48306546,3800,3800,2545,1982,-3374,-4298,579,-323,98,151,811
632329,50760536,48077528,50830426,48307290,3800,3800,2905,980,-3905,-4618,274,-148,120,145,810
633331,50761084,48078212,50831170,48308034,3800,3800,3134,266,-4290,-4872,-1363,1182,120,145,810
634332,50761644,48078892,50831914,48308778,3800,3800,3222,249,-4455,-5151,-3230,3097,98,143,811
635332,50762272,48079560,50832658,48309522,3800,3800,3277,636,-4444,-5348,-4140,3960,98,143,811
636333,50762840,48080244,50833402,48310266,3800,3800,3361,1051,-4381,-5326,-4193,3562,104,134,811
637334,50763500,48081020,50834146,48311010,3800,3800,3513,1234,-4414,-5441,-3910,3151,104,134,811
638335,50764104,48081736,50834890,48311754,3800,3800,3745,1116,-4551,-5421,-3438,2298,110,152,810
639336,50764760,48082412,50835634,48312498,3800,3800,4036,786,-4727,-4875,-3165,1778,110,152,810
640337,50765484,48083180,50836378,48313242,3800,3800,4183,524,-4985,-4516,-2990,2159,128,149,812
641339,50766144,48083864,50837122,48313986,3800,3800,4045,516,-5341,-4304,-3489,3035,128,149,812
642340,50766840,48084592,50837866,48314730,3800,3800,3683,478,-5744,-3517,-3001,2881,125,149,811
643341,50767516,48085324,50838610,48315474,3800,3800,3118,505,-6128,-2258,-2119,3595,125,149,811
644342,50768344,48086048,50839354,48316218,3800,3800,2518,421,-6392,-1038,-1959,2859,139,149,811
645343,50769036,48086752,50840098,48316962,3800,3800,1969,-46,-6530,-329,-1615,1807,139,149,811
646344,50769840,48087528,50840842,48317706,3800,3800,1507,-820,-6593,-16,-1198,1185,147,140,812
647345,50770700,48088316,50841586,48318450,3800,3800,1085,-1903,-6578,643,-973,412,147,140,812
648345,50771496,48089216,50842330,48319194,3800,3800,646,-3052,-6416,1135,-681,602,141,155,814
649347,50772280,48089892,50843074,48319938,3800,3800,90,-3828,-6017,1266,-1495,2375,141,155,814
650348,50773132,48090628,50843818,48320682,3800,3800,-861,-3827,-5012,1643,-4131,4766,153,157,816
651349,50773892,48091504,50844562,48321426,3800,3800,-1933,-3865,-3443,1509,-5090,3799,153,157,816
652349,50774684,48092112,50845306,48322170,3800,3800,-3129,-3777,-1633,1601,-4476,5167,163,152,815
653357,50775480,48092952,50846066,48322930,3800,3800,-4310,-3996,-154,1353,-1963,4047,163,152,815
654352,50776168,48094088,50846810,48323674,3800,3800,-4897,-5433,599,548,940,512,173,157,813
655353,50776812,48094940,50847554,48324418,3800,3800,-4800,-7734,1023,944,2008,868,173,157,813
656354,50777460,48095852,50848298,48325162,3800,3800,-4591,-9834,1355,2536,1434,4594,150,189,815
657354,50778000,48096860,50849042,48325906,3800,3800,-4683,-10873,1743,4258,-234,8939,150,189,815
658355,50778468,48097772,50849786,48326650,3800,3800,-4964,-11241,2290,6698,-1931,11966,150,207,816
659356,50778904,48098836,50850530,48327394,3800,3800,-5090,-11021,2958,8023,-2622,13966,150,207,816
660357,50779236,48099824,50851274,48328138,3800,3800,-4952,-10961,3510,8246,-3308,13861,122,194,815
661358,50779536,48100704,50852018,48328882,3800,3800,-4601,-10893,3838,8522,-3767,13865,122,194,815
662359,50779808,48101560,50852762,48329626,3800,3800,-3946,-11203,4064,6911,-3637,11623,78,190,813
663360,50780036,48102464,50853506,48330370,3800,3800,-3335,-11202,4147,5259,-2372,10915,78,190,813
664361,50780192,48103320,50854250,48331114,3800,3800,-2874,-10993,4149,3542,-1574,8630,81,186,810
665362,50780288,48104264,50854994,48331858,3800,3800,-1832,-9968,4070,5085,-4218,16559,81,186,810
666363,50780332,48105100,50855738,48332602,3800,3800,792,-4937,3649,10036,-5215,32767,54,182,810
667364,50780344,48105968,50856482,48333346,3800,3800,2669,-1677,3410,3562,-4933,11846,54,182,810
668365,50780344,48106764,50857226,48334090,3800,3800,3204,-1471,3338,3086,-4955,4545,14,189,808
669366,50780344,48107568,50857970,48334834,3800,3800,3303,-2737,3431,2308,-4842,3985,14,189,808
670367,50780352,48108316,50858714,48335578,3800,3800,3629,-3053,3490,2825,-5644,4980,-1,181,807
671368,50780344,48108956,50859458,48336322,3800,3800,4177,-3115,3519,2921,-5710,3748,-1,181,807
672369,50780352,48109544,50860202,48337066,3800,3800,4739,-2605,3624,2581,-5307,5553,14,150,807
673370,50780368,48110108,50860946,48337810,3800,3800,5198,-1859,3741,2742,-5380,5239,14,150,807
674372,50780372,48110600,50861690,48338554,3800,3800,5691,-1694,3683,1193,-3368,3396,11,132,805
675379,50780372,48111104,50862450,48339314,3800,3800,5994,-872,3492,-745,-2582,6648,11,132,805
676374,50780380,48111568,50863194,48340058,3800,3800,5929,609,3233,-2615,-3110,8502,20,104,802
677374,50780396,48111904,50863938,48340802,3800,3800,5424,3268,2794,-4114,-2046,12316,20,104,802
678376,50780376,48112196,50864682,48341546,3800,3800,4700,6564,2386,-4102,-2436,12873,10,92,802
679377,50780380,48112444,50865426,48342290,3800,3800,4021,9596,2231,-3286,-3889,11882,10,92,802
680377,50780400,48112712,50866170,48343034,3800,3800,3359,12285,2357,-3068,-5520,11626,0,65,801
681378,50780384,48112928,50866914,48343778,3800,3800,2684,14202,2400,-3727,-4561,8765,0,65,801
682379,50780372,48113136,50867658,48344522,3800,3800,2080,14933,1881,-4308,-876,5041,18,59,800
683380,50780400,48113260,50868402,48345266,3800,3800,1625,14581,1152,-4031,-493,1958,18,59,800
684381,50780400,48113380,50869146,48346010,3800,3800,1214,13492,619,-2856,-979,-141,7,36,799
685382,50780372,48113504,50869890,48346754,3800,3800,872,11893,328,-1526,-1222,-1658,7,36,799
686383,50780388,48113692,50870634,48347498,3800,3800,519,10154,337,-662,-2027,-1724,10,41,797
687384,50780396,48113904,50871378,48348242,3800,3800,210,8244,591,15,-3254,-2629,10,41,797
688385,50780400,48114180,50872122,48348986,3800,3800,38,5822,882,319,-2931,-4209,8,31,797
689386,50780400,48114360,50872866,48349730,3800,3800,28,2937,1108,530,-2243,-5316,8,31,797
690388,50780416,48114540,50873610,48350474,3800,3800,91,-125,1268,818,-2003,-5591,-2,44,797
691388,50780408,48114804,50874354,48351218,3800,3800,88,-2868,1482,1005,-2376,-4165,-2,44,797
692389,50780392,48115104,50875098,48351962,3800,3800,-23,-4820,1966,1114,-3415,-1518,10,65,799
693390,50780408,48115420,50875842,48352706,3800,3800,-254,-5999,2541,773,-3642,679,10,65,799
694391,50780424,48115760,50876586,48353450,3800,3800,-589,-6476,3062,556,-3307,3047,-2,65,799
695393,50780400,48116048,50877330,48354194,3800,3800,-932,-6652,3390,244,-2151,3796,-2,65,799
696393,50780424,48116364,50878074,48354938,3800,3800,-1140,-6756,3527,-223,-1296,4076,4,70,800
697401,50780476,48116692,50878834,48355698,3800,3800,-1230,-6783,3514,-976,-639,4556,4,70,800
698396,50780548,48117036,50879578,48356442,3800,3800,-1268,-6508,3440,-1525,-652,5910,13,76,799
699397,50780756,48117468,50880322,48357186,3800,3800,-1340,-5590,3364,-2305,-915,8019,13,76,799
700397,50781036,48117996,50881066,48357930,3800,3800,-1452,-4050,3257,-3290,-633,9614,8,69,801
701398,50781356,48118472,50881810,48358674,3800,3800,-1474,-2359,3126,-3703,-2,9427,8,69,801
702399,50781744,48118968,50882554,48359418,3800,3800,-1362,-832,3039,-3349,428,9002,51,88,803
703400,50782116,48119548,50883298,48360162,3800,3800,-1189,503,2996,-2224,684,8574,51,88,803
704401,50782660,48120144,50884042,48360906,3800,3800,-935,1570,2960,-1240,801,7535,65,111,806
705402,50783252,48120876,50884786,48361650,3800,3800,-525,2063,2859,-1121,1062,5596,65,111,806
706403,50783804,48121520,50885530,48362394,3800,3800,-13,2114,2745,-987,974,4759,96,133,808
707405,50784428,48122240,50886274,48363138,3800,3800,530,2049,2723,-836,848,4483,96,133,808
708406,50784996,48122904,50887018,48363882,3800,3800,1099,1830,2757,-593,1210,3642,119,134,809
709407,50785616,48123704,50887762,48364626,3800,3800,1709,1288,2695,-80,1705,2394,119,134,809
710408,50786252,48124480,50888506,48365370,3800,3800,2381,530,2566,358,1783,1607,110,137,810
711409,50786920,48125376,50889250,48366114,3800,3800,3099,-371,2435,842,1264,981,110,137,810
712410,50787652,48126300,50889994,48366858,3800,3800,3790,-1285,2350,1381,613,886,132,159,811
713411,50788352,48127184,50890738,48367602,3800,3800,4370,-2083,2363,2132,865,1103,132,159,811
714411,50789156,48128152,50891482,48368346,3800,3800,4889,-2660,2409,2854,1176,1078,143,174,813
715413,50790020,48129108,50892226,48369090,3800,3800,5344,-3195,2366,2902,1502,784,143,174,813
716413,50790820,48130132,50892970,48369834,3800,3800,5835,-3598,2297,2717,1099,1081,170,175,815
717415,50791572,48131104,50893714,48370578,3800,3800,6309,-3708,2276,2665,794,2188,170,175,815
718416,50792412,48132148,50894458,48371322,3800,3800,6742,-3321,2325,2714,744,3495,171,187,816
719426,50793168,48133184,50895218,48372082,3800,3800,7115,-2455,2372,2029,430,4192,171,187,816
720418,50793916,48134136,50895962,48372826,3800,3800,7505,-1466,2331,1417,281,3850,141,200,814
721419,50794744,48135184,50896706,48373570,3800,3800,7888,-579,2217,1105,-460,3757,141,200,814
722420,50795592,48136404,50897450,48374314,3800,3800,8175,752,2116,854,-2087,5074,154,193,815
723421,50796408,48137404,50898194,48375058,3800,3800,8412,2209,2073,691,-3241,4428,154,193,815
724422,50797404,48138360,50898938,48375802,3800,3800,8739,3476,1964,412,-3497,3365,151,202,816
725422,50798228,48139384,50899682,48376546,3800,3800,9095,4780,1782,-263,-4145,3712,151,202,816
726423,50799048,48140424,50900426,48377290,3800,3800,9357,6293,1572,-418,-4982,3926,178,201,816
727425,50800008,48141500,50901170,48378034,3800,3800,9500,7875,1358,-326,-5616,3403,178,201,816
728426,50800884,48142452,50901914,48378778,3800,3800,9648,9228,1145,-393,-5733,2168,163,214,817
729427,50801764,48143520,50902658,48379522,3800,3800,9768,10292,941,-104,-6254,1471,163,214,817
730427,50802700,48144676,50903402,48380266,3800,3800,9791,11315,757,-59,-6375,1177,184,217,816
731429,50803584,48145672,50904146,48381010,3800,3800,9759,12195,548,195,-5760,80,184,217,816
732429,50804504,48146636,50904890,48381754,3800,3800,9691,12702,367,952,-5553,-1153,162,208,817
733431,50805432,48147744,50905634,48382498,3800,3800,9604,12694,263,1663,-4791,-2524,162,208,817
734432,50806324,48148688,50906378,48383242,3800,3800,9484,12231,254,2403,-4311,-3668,165,219,818
735433,50807152,48149716,50907122,48383986,3800,3800,9408,11184,281,2619,-4059,-5365,165,219,818
736433,50808012,48150708,50907866,48384730,3800,3800,9338,9906,294,2741,-3878,-5379,195,212,818
737434,50808932,48151668,50908610,48385474,3800,3800,9211,8930,387,2785,-3466,-4261,195,212,818
738435,50809792,48152760,50909354,48386218,3800,3800,8881,8248,365,2353,-2294,-3287,187,201,817
739437,50810684,48153696,50910098,48386962,3800,3800,8360,7681,-107,1464,-655,-3327,187,201,817
740438,50811592,48154656,50910842,48387706,3800,3800,7730,6782,-962,1058,1098,-4453,210,204,818
741445,50812432,48155484,50911602,48388466,3800,3800,7207,5684,-1843,1255,1765,-4564,210,204,818
742440,50813260,48156492,50912346,48389210,3800,3800,6588,4534,-2688,1404,2593,-4420,190,199,817
743441,50814064,48157468,50913090,48389954,3800,3800,5840,3576,-3309,1286,2566,-3977,190,199,817
744442,50814752,48158512,50913834,48390698,3800,3800,5046,3057,-3694,1213,2130,-2794,158,194,816
745443,50815352,48159540,50914578,48391442,3800,3800,4134,2768,-3951,1304,2739,-2358,158,194,816
746443,50815876,48160552,50915322,48392186,3800,3800,3189,2464,-4148,1762,3791,-2312,147,205,816
747444,50816256,48161568,50916066,48392930,3800,3800,2163,2216,-4312,2189,4119,-1753,147,205,816
748445,50816528,48162504,50916810,48393674,3800,3800,1155,2080,-4407,2359,4215,-1737,128,211,815
749446,50816692,48163596,50917554,48394418,3800,3800,247,1853,-4404,2170,4964,-2008,128,211,815
750447,50816792,48164832,50918298,48395162,3800,3800,-642,1606,-4359,1969,6241,-1638,82,215,813
751448,50816840,48165928,50919042,48395906,3800,3800,-1557,1453,-4344,2323,7922,-1304,82,215,813
752450,50816832,48166948,50919786,48396650,3800,3800,-3258,2318,-4217,3464,8352,2937,25,227,811
753450,50816832,48167992,50920530,48397394,3800,3800,-5560,3590,-4010,3352,8897,2442,25,227,811
754451,50816836,48168964,50921274,48398138,3800,3800,-7271,3337,-4061,2433,9899,-3481,22,222,808
755452,50816840,48169984,50922018,48398882,3800,3800,-8340,1638,-4473,2176,11562,-5242,22,222,808
756454,50816840,48170808,50922762,48399626,3800,3800,-9251,-33,-5041,2247,12789,-3930,14,203,808
757454,50816848,48171668,50923506,48400370,3800,3800,-10226,-1082,-5568,2590,12312,-2326,14,203,808
758455,50816848,48172508,50924250,48401114,3800,3800,-11049,-1468,-5770,2757,9701,-682,9,190,807
759456,50816868,48173296,50924994,48401858,3800,3800,-11611,-1573,-5694,2748,8404,188,9,190,807
760457,50816860,48174020,50925738,48402602,3800,3800,-12075,-1636,-5587,2912,8208,868,1,184,807
761458,50816892,48174660,50926482,48403346,3800,3800,-12487,-2023,-5525,2984,7558,61,1,184,807
762459,50816888,48175232,50927226,48404090,3800,3800,-12898,-2675,-5532,2808,6530,-134,21,165,806
763467,50816916,48175748,50927986,48404850,3800,3800,-13315,-3415,-5572,2630,4858,-185,21,165,806
764461,50816976,48176224,50928730,48405594,3800,3800,-13625,-4191,-5613,2428,3480,-252,18,113,804
765462,50817016,48176636,50929474,48406338,3800,3800,-13818,-4730,-5636,1894,2335,1108,18,113,804
766463,50817088,48176952,50930218,48407082,3800,3800,-14019,-4755,-5596,1396,531,3001,23,109,803
767464,50817208,48177164,50930962,48407826,3800,3800,-14234,-4444,-5669,907,-323,3890,23,109,803
768466,50817348,48177340,50931706,48408570,3800,3800,-14350,-3818,-5898,109,-1211,5334,14,82,802
769466,50817456,48177496,50932450,48409314,3800,3800,-14312,-3266,-6221,-593,-1844,5138,14,82,802
770467,50817620,48177612,50933194,48410058,3800,3800,-14125,-2823,-6458,-1127,-3939,5679,18,60,801
771468,50817844,48177732,50933938,48410802,3800,3800,-13462,-1989,-6292,-1997,-6143,8622,18,60,801
772470,50818028,48177800,50934682,48411546,3800,3800,-3825,9242,-4073,-12545,-28873,32767,34,37,800
773471,50818204,48177752,50935426,48412290,3800,3800,13755,23474,-789,-13601,-32768,32767,34,37,800
774472,50818448,48177716,50936170,48413034,3800,3800,21842,27398,485,916,-7666,9719,34,26,799
775473,50818648,48177720,50936914,48413778,3800,3800,20352,24092,533,3040,-3581,-13,34,26,799
776474,50818840,48177768,50937658,48414522,3800,3800,16805,19725,227,4577,-3182,-2799,47,18,798
777475,50819096,48177856,50938402,48415266,3800,3800,14067,17795,519,4903,-3810,2434,47,18,798
778476,50819304,48177980,50939146,48416010,3800,3800,11060,19034,1430,6923,-1962,8072,61,21,799
779477,50819496,48178048,50939890,48416754,3800,3800,8267,18203,1178,5730,5529,-3618,61,21,799
780477,50819708,48178132,50940634,48417498,3800,3800,6133,13529,122,2796,4765,-10928,57,31,800
781478,50819932,48178280,50941378,48418242,3800,3800,4546,6942,-738,2018,3472,-12998,57,31,800
782480,50820140,48178480,50942122,48418986,3800,3800,3284,746,-1169,1584,3024,-11840,33,40,800
783481,50820344,48178704,50942866,48419730,3800,3800,1922,-3983,-1503,1506,3773,-8667,33,40,800
784482,50820620,48179016,50943610,48420474,3800,3800,554,-7257,-1924,1102,4037,-5916,42,50,800
785489,50820852,48179236,50944370,48421234,3800,3800,-642,-9757,-2435,175,3825,-4334,42,50,800
786484,50821072,48179492,50945114,48421978,3800,3800,-1434,-11356,-2888,-678,2970,-1630,58,59,800
787484,50821344,48179752,50945858,48422722,3800,3800,-1795,-12017,-3127,-1714,1689,1110,58,59,800
788486,50821664,48180036,50946602,48423466,3800,3800,-1944,-12044,-3298,-3268,1298,3024,48,64,801
789487,50821948,48180380,50947346,48424210,3800,3800,-1988,-11500,-3506,-4882,1474,4795,48,64,801
790488,50822232,48180780,50948090,48424954,3800,3800,-1974,-10365,-3753,-5816,1559,6101,51,62,802
791489,50822576,48181092,50948834,48425698,3800,3800,-1937,-8582,-4092,-6799,1745,7524,51,62,802
792489,50822904,48181380,50949578,48426442,3800,3800,-1932,-6429,-4384,-8148,1214,8707,68,63,803
793490,50823208,48181704,50950322,48427186,3800,3800,-1855,-4318,-4486,-8793,266,8573,68,63,803
794491,50823568,48182052,50951066,48427930,3800,3800,-1639,-2206,-4457,-8845,316,8495,57,82,803
795492,50823920,48182384,50951810,48428674,3800,3800,-1351,-206,-4357,-8983,445,7891,57,82,803
796493,50824248,48182724,50952554,48429418,3800,3800,-1094,1527,-4192,-8657,378,7019,66,84,803
797494,50824620,48183048,50953298,48430162,3800,3800,-789,2769,-3902,-8087,252,5440,66,84,803
798495,50824992,48183332,50954042,48430906,3800,3800,-370,3532,-3476,-7398,-383,3655,67,79,802
799496,50825312,48183592,50954786,48431650,3800,3800,163,3651,-2941,-6650,-702,1853,67,79,802
800497,50825700,48183852,50955530,48432394,3800,3800,767,3313,-2307,-5779,-698,841,78,73,803
801498,50826116,48184096,50956274,48433138,3800,3800,1366,2686,-1612,-4568,-405,17,78,73,803
802499,50826508,48184328,50957018,48433882,3800,3800,1952,1861,-960,-3587,195,-777,69,67,803
803500,50826888,48184600,50957762,48434626,3800,3800,2528,855,-457,-3169,851,-1327,69,67,803
804501,50827368,48184836,50958506,48435370,3800,3800,3117,-407,-111,-2649,1172,-2097,86,67,803
805502,50827888,48185040,50959250,48436114,3800,3800,3669,-1771,164,-1798,1307,-2217,86,67,803
806504,50828308,48185224,50959994,48436858,3800,3800,4214,-3123,409,-1358,1508,-2296,88,54,803
807514,50828844,48185468,50960754,48437618,3800,3800,4753,-4502,543,-1234,1479,-2336,88,54,803
808505,50829452,48185704,50961498,48438362,3800,3800,5269,-5851,546,-999,1365,-2242,90,50,802
809507,50829980,48185912,50962242,48439106,3800,3800,5736,-7020,460,-679,1482,-1784,90,50,802
810507,50830544,48186132,50962986,48439850,3800,3800,6048,-7874,318,-564,1613,-1126,109,55,803
811509,50831228,48186336,50963730,48440594,3800,3800,6154,-8442,140,-852,2134,-378,109,55,803
812509,50831812,48186520,50964474,48441338,3800,3800,6163,-8697,-79,-986,2917,386,100,58,804
813510,50832428,48186744,50965218,48442082,3800,3800,6092,-8783,-372,-915,3361,743,100,58,804
814511,50833164,48186976,50965962,48442826,3800,3800,6053,-8637,-683,-1160,3198,1234,125,58,804
815512,50833820,48187228,50966706,48443570,3800,3800,5889,-8400,-968,-1457,2508,1725,125,58,804
816513,50834500,48187460,50967450,48444314,3800,3800,5746,-8000,-1198,-1501,2074,1838,124,60,805
817514,50835216,48187700,50968194,48445058,3800,3800,5524,-7584,-1304,-1469,1502,2004,124,60,805
818515,50836060,48187948,50968938,48445802,3800,3800,5332,-6871,-1283,-1678,1062,2527,130,61,806
819516,50836804,48188168,50969682,48446546,3800,3800,5102,-6342,-1159,-1998,1109,2024,130,61,806
820517,50837576,48188440,50970426,48447290,3800,3800,4877,-5970,-998,-1962,1147,1731,146,52,803
821518,50838432,48188772,50971170,48448034,3800,3800,4662,-5618,-764,-1973,1373,1549,146,52,803
822519,50839164,48189084,50971914,48448778,3800,3800,4474,-5377,-490,-1970,1775,1046,152,73,807
823521,50839892,48189368,50972658,48449522,3800,3800,4225,-5048,-213,-2149,2073,1232,152,73,807
824521,50840744,48189736,50973402,48450266,3800,3800,3982,-4884,145,-2387,1862,539,152,74,808
825522,50841480,48190136,50974146,48451010,3800,3800,3727,-4745,607,-2376,898,528,152,74,808
826523,50842160,48190508,50974890,48451754,3800,3800,3455,-4821,1155,-2745,420,84,155,79,809
827524,50842908,48190856,50975634,48452498,3800,3800,3141,-5002,1777,-2566,-131,-118,155,79,809
828525,50843568,48191300,50976378,48453242,3800,3800,2738,-5426,2439,-1865,-588,-754,170,77,809
829533,50844168,48191784,50977138,48454002,3800,3800,2295,-6058,3138,-845,-779,-1318,170,77,809
830527,50844812,48192196,50977882,48454746,3800,3800,1816,-6979,3830,419,-893,-2178,126,92,807
831528,50845372,48192660,50978626,48455490,3800,3800,1385,-8210,4459,1558,-925,-3054,126,92,807
832529,50845896,48193152,50979370,48456234,3800,3800,787,-9170,5237,2736,-1665,-1325,126,97,808
833530,50846464,48193600,50980114,48456978,3800,3800,-388,-9170,6362,3853,-3725,1613,126,97,808
834531,50847048,48194084,50980858,48457722,3800,3800,-1548,-8889,7614,3734,-3700,688,128,89,808
835532,50847668,48194704,50981602,48458466,3800,3800,-2050,-9073,8739,3586,-2467,-688,128,89,808
836533,50848276,48195208,50982346,48459210,3800,3800,-1973,-9252,9461,3713,-548,195,115,104,808
837534,50849024,48195848,50983090,48459954,3800,3800,-1875,-9189,9919,4039,21,831,115,104,808
838536,50849700,48196492,50983834,48460698,3800,3800,-1750,-9339,10293,4574,574,-549,115,101,809
839537,50850448,48197172,50984578,48461442,3800,3800,-1679,-9299,10559,4951,815,805,115,101,809
840538,50851152,48197920,50985322,48462186,3800,3800,-1577,-8845,10794,4781,45,1989,130,119,810
841538,50851848,48198796,50986066,48462930,3800,3800,-1581,-7646,11116,4372,-1319,4322,130,119,810
842539,50852500,48199564,50986810,48463674,3800,3800,-1740,-5924,11284,3324,-1499,5330,149,150,811
843541,50853260,48200476,50987554,48464418,3800,3800,-2020,-3756,11022,2570,-655,7205,149,150,811
844541,50854004,48201436,50988298,48465162,3800,3800,-2449,-958,10154,2868,1411,9068,152,170,812
845542,50854748,48202356,50989042,48465906,3800,3800,-2866,1632,9064,3297,1718,7598,152,170,812
846544,50855592,48203356,50989786,48466650,3800,3800,-3103,4160,7706,3657,3256,7937,142,166,813
847544,50856424,48204320,50990530,48467394,3800,3800,-3404,6981,6277,4577,4532,9351,142,166,813
848546,50857220,48205192,50991274,48468138,3800,3800,-3788,9941,5168,5459,3389,8832,142,196,815
849546,50858116,48206048,50992018,48468882,3800,3800,-4108,12334,4121,6088,3806,6469,142,196,815
850548,50858908,48206864,50992762,48469626,3800,3800,-4176,13156,2865,7590,3587,1962,155,181,815
851555,50859688,48207676,50993522,48470386,3800,3800,-4043,13059,1409,9550,3477,103,155,181,815
852549,50860584,48208504,50994266,48471130,3800,3800,-3852,12580,-20,10062,3041,-1135,162,168,814
853550,50861480,48209264,50995010,48471874,3800,3800,-3518,11668,-1336,9729,2168,-2653,162,168,814
854552,50862324,48210072,50995754,48472618,3800,3800,-3140,10510,-2406,9818,1033,-2338,163,162,814
855553,50863200,48210700,50996498,48473362,3800,3800,-2810,9871,-3171,10466,180,-756,163,162,814
856554,50864120,48211392,50997242,48474106,3800,3800,-2664,10261,-3766,10904,-461,1277,150,157,814
857555,50864984,48212012,50997986,48474850,3800,3800,-2528,10750,-4493,9815,-1134,675,150,157,814
858555,50865896,48212516,50998730,48475594,3800,3800,-2384,10910,-5511,9101,-1391,268,171,149,812
859556,50866804,48212956,50999474,48476338,3800,3800,-2212,10888,-6675,8342,-1977,-272,171,149,812
860557,50867636,48213284,51000218,48477082,3800,3800,-2173,11037,-7903,6348,-2091,574,171,107,813
861558,50868416,48213492,51000962,48477826,3800,3800,-2305,11939,-9087,3982,-2661,2537,171,107,813
862560,50869324,48213700,51001706,48478570,3800,3800,-2653,13351,-10101,2900,-3463,3912,167,97,811
863560,50870132,48213996,51002450,48479314,3800,3800,-3059,14788,-11000,2771,-3434,3351,167,97,811
864561,50871016,48214504,51003194,48480058,3800,3800,-3436,15877,-11964,2192,-2739,2404,150,72,808
865562,50871888,48214844,51003938,48480802,3800,3800,-3641,16259,-12953,520,-2555,656,150,72,808
866564,50872704,48215448,51004682,48481546,3800,3800,-3682,15841,-13948,-659,-1547,-1116,151,86,809
867564,50873516,48216044,51005426,48482290,3800,3800,-3664,15170,-14794,-71,-879,-1824,151,86,809
868565,50874356,48216636,51006170,48483034,3800,3800,-3687,14273,-15334,1077,-1423,-2697,162,102,811
869566,50875272,48217160,51006914,48483778,3800,3800,-3738,13025,-15542,646,-2185,-3132,162,102,811
870568,50876088,48217616,51007658,48484522,3800,3800,-3817,12119,-15507,-1503,-2610,-1556,181,121,813
871569,50876932,48218200,51008402,48485266,3800,3800,-3931,11866,-15284,-2921,-3662,20,181,121,813
872570,50877800,48218712,51009146,48486010,3800,3800,-4079,11983,-14976,-3458,-4192,580,176,109,812
873577,50878524,48219404,51009906,48486770,3800,3800,-4207,12210,-14646,-4135,-4528,859,176,109,812
874572,50879232,48220184,51010650,48487514,3800,3800,-4296,12226,-14218,-4888,-6428,473,167,113,811
875573,50879908,48220840,51011394,48488258,3800,3800,-4365,11815,-13620,-5536,-7735,123,167,113,811
876573,50880492,48221556,51012138,48489002,3800,3800,-4432,11181,-12843,-5714,-8562,-49,168,136,812
877574,50880996,48222228,51012882,48489746,3800,3800,-4492,10554,-11898,-6336,-9196,61,168,136,812
878576,50881480,48222960,51013626,48490490,3800,3800,-4534,9813,-10834,-7609,-9109,-160,146,135,812
879577,50881848,48223816,51014370,48491234,3800,3800,-4626,8635,-9599,-8687,-9488,-782,146,135,812
880578,50882196,48224636,51015114,48491978,3800,3800,-4575,5071,-7727,-15598,-8875,-4031,108,143,812
881578,50882528,48225444,51015858,48492722,3800,3800,-4203,-2051,-4863,-23068,-7740,-5646,108,143,812
882579,50882828,48226324,51016602,48493466,3800,3800,-3933,-8941,-1345,-22650,-9220,4246,79,164,810
883580,50883128,48227176,51017346,48494210,3800,3800,3557,-11818,961,408,-15853,32767,79,164,810
884581,50883432,48228056,51018090,48494954,3800,3800,7796,-5334,3641,-648,-20839,32767,58,182,808
885582,50883796,48229076,51018834,48495698,3800,3800,4594,3736,6257,-7485,-7117,26043,58,182,808
886583,50884128,48229984,51019578,48496442,3800,3800,1468,6883,7146,-9374,-1410,6856,58,184,808
887585,50884504,48230940,51020322,48497186,3800,3800,1105,4299,7093,-9905,-2237,-738,58,184,808
888585,50884912,48231928,51021066,48497930,3800,3800,1924,1177,6858,-6628,-678,880,71,202,810
889586,50885316,48232884,51021810,48498674,3800,3800,1970,260,6756,-3449,890,4195,71,202,810
890587,50885724,48233840,51022554,48499418,3800,3800,1551,572,6704,-2565,1225,4666,76,206,811
891588,50886200,48234912,51023298,48500162,3800,3800,1244,692,6496,-1730,649,3417,76,206,811
892589,50886624,48235852,51024042,48500906,3800,3800,1190,30,6116,-362,1035,2477,82,200,812
893590,50887132,48236680,51024786,48501650,3800,3800,1348,-508,5885,1065,-400,4197,82,200,812
894591,50887692,48237492,51025530,48502394,3800,3800,1465,-636,5887,2706,-1906,4576,105,205,812
895602,50888284,48238296,51026290,48503154,3800,3800,1781,-932,5935,3520,-1801,3419,105,205,812
896593,50888872,48239004,51027034,48503898,3800,3800,2097,-1369,5739,3860,1193,3613,113,178,811
897594,50889576,48239628,51027778,48504642,3800,3800,2285,-1990,5036,4118,4068,2696,113,178,811
898595,50890276,48240184,51028522,48505386,3800,3800,2339,-2954,3757,3067,6436,1582,111,142,810
899596,50890956,48240716,51029266,48506130,3800,3800,2428,-4180,2010,1634,8037,775,111,142,810
900597,50891724,48241180,51030010,48506874,3800,3800,2574,-5580,-17,1377,7578,719,122,117,811
901598,50892432,48241616,51030754,48507618,3800,3800,2657,-6460,-1936,1855,4140,2553,122,117,811
902599,50893232,48242072,51031498,48508362,3800,3800,2710,-6764,-3439,2164,556,3793,153,102,811
903601,50894068,48242460,51032242,48509106,3800,3800,2687,-6640,-4603,2357,-851,4829,153,102,811
904601,50895044,48242804,51032986,48509850,3800,3800,2515,-6378,-5616,1833,1290,5166,159,99,811
905603,50895892,48243180,51033730,48510594,3800,3800,2271,-6170,-6652,962,3337,4401,159,99,811
906603,50896788,48243532,51034474,48511338,3800,3800,2059,-6565,-7751,223,3892,2372,165,86,810
907605,50897864,48243904,51035218,48512082,3800,3800,2002,-7506,-8814,-367,3461,1265,165,86,810
908605,50898716,48244272,51035962,48512826,3800,3800,2057,-8539,-9611,-692,1600,1252,174,77,810
909606,50899684,48244644,51036706,48513570,3800,3800,2163,-9407,-9906,-937,-1812,1743,174,77,810
910607,50900688,48245012,51037450,48514314,3800,3800,2214,-9795,-9594,-1452,-4584,3195,166,73,811
911609,50901676,48245372,51038194,48515058,3800,3800,2221,-10061,-9012,-2443,-4767,2846,166,73,811
912610,50902616,48245728,51038938,48515802,3800,3800,2227,-10552,-8423,-3108,-4461,2120,172,73,811
913610,50903636,48246160,51039682,48516546,3800,3800,2356,-11371,-7819,-3956,-4254,1207,172,73,811
914611,50904568,48246536,51040426,48517290,3800,3800,2430,-12186,-7105,-4783,-4966,2159,192,95,810
915612,50905444,48246856,51041170,48518034,3800,3800,2502,-12586,-6134,-5345,-5150,2750,192,95,810
916613,50906392,48247228,51041914,48518778,3800,3800,2605,-13030,-5038,-5838,-4390,2378,205,86,812
917621,50907244,48247624,51042674,48519538,3800,3800,2812,-13372,-3888,-6396,-3732,2840,205,86,812
918615,50907972,48247988,51043418,48520282,3800,3800,2984,-13438,-2621,-7361,-3879,4076,184,95,811
919617,50908772,48248316,51044162,48521026,3800,3800,3105,-13236,-1220,-7845,-4406,4664,184,95,811
920618,50909460,48248664,51044906,48521770,3800,3800,3326,-13051,200,-7373,-3569,4321,165,87,810
921619,50910072,48248964,51045650,48522514,3800,3800,3601,-12944,1581,-5833,-2626,4526,165,87,810
922619,50910716,48249216,51046394,48523258,3800,3800,3673,-12465,3107,-3858,-2902,5443,160,79,809
923621,50911316,48249424,51047138,48524002,3800,3800,3689,-12247,4633,-3150,-2934,3895,160,79,809
924621,50911920,48249616,51047882,48524746,3800,3800,3950,-12407,5750,-2521,-1508,2526,136,56,807
925622,50912532,48249800,51048626,48525490,3800,3800,3967,-12289,6375,-1936,-835,4919,136,56,807
926623,50913196,48250012,51049370,48526234,3800,3800,3942,-11649,6878,-1186,-919,4982,130,54,807
927624,50913824,48250184,51050114,48526978,3800,3800,4212,-11495,7481,315,-148,3243,130,54,807
928625,50914504,48250308,51050858,48527722,3800,3800,4638,-11374,8135,1794,538,3890,134,42,806
929626,50915192,48250416,51051602,48528466,3800,3800,5075,-11190,8730,2882,1277,3738,134,42,806
930627,50915872,48250512,51052346,48529210,3800,3800,5395,-10637,9207,3892,1648,5152,138,44,803
931628,50916508,48250592,51053090,48529954,3800,3800,5663,-9710,9517,4407,1839,5580,138,44,803
932629,50917240,48250692,51053834,48530698,3800,3800,5943,-8631,9721,4750,1762,5996,130,34,804
933630,50917828,48250776,51054578,48531442,3800,3800,6458,-7665,9922,4841,708,5026,130,34,804
934631,50918568,48250868,51055322,48532186,3800,3800,7224,-6888,9997,4071,665,4420,123,18,805
935632,50919300,48250992,51056066,48532930,3800,3800,7674,-5391,9713,3502,1369,7968,123,18,805
936633,50919980,48251116,51056810,48533674,3800,3800,6903,-1502,9022,3933,2041,15964,143,37,805
937634,50920776,48251264,51057554,48534418,3800,3800,6260,2177,8288,4558,2305,10471,143,37,805
938635,50921548,48251408,51058298,48535162,3800,3800,5768,5778,7677,5363,2527,13295,149,24,805
939643,50922428,48251576,51059058,48535922,3800,3800,5374,8804,7038,5653,4132,11551,149,24,805
940637,50923248,48251760,51059802,48536666,3800,3800,4903,12235,6332,6904,5700,13734,158,28,805
941638,50924100,48251940,51060546,48537410,3800,3800,4435,15353,5625,7655,5000,10769,158,28,805
942639,50925064,48252132,51061290,48538154,3800,3800,4085,17224,4874,8731,4518,6289,163,36,805
943640,50925956,48252312,51062034,48538898,3800,3800,3908,17750,3917,9620,5305,2367,163,36,805
944642,50926900,48252516,51062778,48539642,3800,3800,3812,17251,2811,9779,5455,-407,149,40,807
945642,50927976,48252756,51063522,48540386,3800,3800,3545,16236,1680,9352,4523,-1672,149,40,807
946644,50928884,48252988,51064266,48541130,3800,3800,3220,15010,691,9203,3521,-2575,178,54,809
947644,50929860,48253212,51065010,48541874,3800,3800,2912,13853,-71,9232,2888,-2891,178,54,809
948645,50931000,48253408,51065754,48542618,3800,3800,2679,12688,-831,8552,2515,-3672,181,56,808
949646,50931888,48253592,51066498,48543362,3800,3800,2444,11633,-1541,7825,758,-3008,181,56,808
950647,50932808,48253772,51067242,48544106,3800,3800,2113,10871,-2105,7198,656,-2242,201,59,809
951648,50933828,48254000,51067986,48544850,3800,3800,1798,10160,-2493,6696,469,-2723,201,59,809
952649,50934724,48254280,51068730,48545594,3800,3800,1623,9470,-2896,5453,260,-2597,187,62,807
953650,50935612,48254528,51069474,48546338,3800,3800,1534,9089,-3307,4265,-7,-1459,187,62,807
954651,50936672,48254752,51070218,48547082,3800,3800,1364,9118,-3601,3231,-666,-381,168,60,809
955652,50937472,48254956,51070962,48547826,3800,3800,1038,9379,-3972,1673,28,-107,168,60,809
956653,50938324,48255168,51071706,48548570,3800,3800,658,9668,-4412,482,-21,-228,157,63,807
957654,50939168,48255516,51072450,48549314,3800,3800,432,9681,-4937,-267,268,-1390,157,63,807
958655,50940124,48255824,51073194,48550058,3800,3800,232,9628,-5446,-1082,256,-848,190,66,809
959656,50940948,48256104,51073938,48550802,3800,3800,142,9688,-5787,-1334,-301,-1001,190,66,809
960657,50941836,48256396,51074682,48551546,3800,3800,91,9805,-6056,-1699,-87,-1246,171,62,810
961665,50942828,48256700,51075442,48552306,3800,3800,30,9994,-6276,-2260,-119,-1001,171,62,810
962659,50943704,48257048,51076186,48553050,3800,3800,-211,11228,-6038,-2693,-2002,985,190,68,810
963660,50944592,48257420,51076930,48553794,3800,3800,-322,12197,-5576,-3432,-2408,1191,190,68,810
964661,50945480,48257748,51077674,48554538,3800,3800,-357,13121,-5109,-3715,-2430,1179,182,78,810
965662,50946240,48258056,51078418,48555282,3800,3800,-275,13924,-4706,-3441,-2155,460,182,78,810
966663,50946932,48258468,51079162,48556026,3800,3800,-72,14054,-4367,-2427,-1414,-1645,176,67,811
967664,50947644,48258820,51079906,48556770,3800,3800,201,13426,-4059,-1260,-887,-3443,176,67,811
968666,50948252,48259196,51080650,48557514,3800,3800,462,12047,-3694,-777,-720,-5139,159,85,810
969667,50948864,48259512,51081394,48558258,3800,3800,751,10155,-3214,-886,-629,-6019,159,85,810
970668,50949508,48259952,51082138,48559002,3800,3800,1061,8081,-2680,-695,-322,-6373,141,83,807
971669,50950084,48260344,51082882,48559746,3800,3800,1350,5937,-2125,-279,80,-6361,141,83,807
972669,50950668,48260700,51083626,48560490,3800,3800,1523,4227,-1577,184,1106,-4710,106,90,807
973671,50951292,48261080,51084370,48561234,3800,3800,1404,3225,-1103,369,1812,-2333,106,90,807
974672,50951936,48261568,51085114,48561978,3800,3800,1230,2344,-625,232,880,-2970,136,87,807
975673,50952468,48262028,51085858,48562722,3800,3800,1175,1252,-56,345,596,-3451,136,87,807
976674,50953048,48262456,51086602,48563466,3800,3800,1236,208,577,237,72,-2723,116,78,808
977675,50953680,48262996,51087346,48564210,3800,3800,1206,-456,1170,-268,100,-1293,116,78,808
978676,50954288,48263524,51088090,48564954,3800,3800,1016,-405,1682,-793,755,600,130,96,808
979677,50954904,48264120,51088834,48565698,3800,3800,677,235,2064,-1193,1371,2101,130,96,808
980678,50955660,48264740,51089578,48566442,3800,3800,379,1352,2345,-1593,1443,3205,120,94,808
981678,50956300,48265392,51090322,48567186,3800,3800,189,2568,2557,-2243,1352,3486,120,94,808
982680,50957060,48266072,51091066,48567930,3800,3800,-15,3906,2690,-2727,1063,4374,124,119,809
983690,50957856,48266828,51091826,48568690,3800,3800,-321,5687,2793,-3002,491,6265,124,119,809
984682,50958688,48267600,51092570,48569434,3800,3800,-734,7734,2928,-3162,-202,6592,116,122,809
985683,50959508,48268416,51093314,48570178,3800,3800,-1105,9587,2980,-3229,-42,5664,116,122,809
986684,50960460,48269204,51094058,48570922,3800,3800,-1417,10818,2771,-3073,795,4093,157,142,811
987685,50961344,48270044,51094802,48571666,3800,3800,-1651,11511,2283,-2688,1666,2707,157,142,811
988686,50962164,48270760,51095546,48572410,3800,3800,-1942,11716,1562,-2685,2313,1400,165,157,813
989687,50963220,48271516,51096290,48573154,3800,3800,-2305,11479,715,-2926,2095,281,165,157,813
990688,50964292,48272332,51097034,48573898,3800,3800,-2732,11066,-75,-3345,1218,248,191,160,814
991689,50965216,48273080,51097778,48574642,3800,3800,-3234,10868,-730,-4053,466,1093,191,160,814
992689,50966256,48273684,51098522,48575386,3800,3800,-3736,10713,-1408,-5207,564,742,192,143,816
993691,50967364,48274356,51099266,48576130,3800,3800,-4093,10184,-2246,-6401,353,-378,192,143,816
994692,50968412,48274912,51100010,48576874,3800,3800,-4400,9209,-3161,-7210,-3,-1105,195,144,816
995693,50969416,48275516,51100754,48577618,3800,3800,-4572,8176,-3915,-7690,-793,-876,195,144,816
996694,50970452,48276148,51101498,48578362,3800,3800,-4642,7087,-4317,-7876,-2102,-1038,210,126,814
997694,50971472,48276752,51102242,48579106,3800,3800,-4564,4214,-4177,-11607,-3087,-4866,210,126,814
998696,50972392,48277340,51102986,48579850,3800,3800,-4398,-1328,-3579,-11489,-4503,-8103,189,117,815
999697,50973392,48277904,51103730,48580594,3800,3800,-4427,-6762,-2860,-9790,-4969,-5883,189,117,815
1000697,50974276,48278508,51104474,48581338,3800,3800,-4541,-10394,-2164,-7909,-4532,-3797,209,127,815
1001699,50975124,48279036,51105218,48582082,3800,3800,-4666,-12540,-1543,-6678,-4482,-2451,209,127,815
1002700,50976000,48279668,51105962,48582826,3800,3800,-4738,-14070,-989,-5608,-4325,-1593,184,116,814
1003701,50976676,48280156,51106706,48583570,3800,3800,-4796,-15426,-467,-5410,-3773,-311,184,116,814
1004702,50977376,48280720,51107450,48584314,3800,3800,-4843,-16814,-125,-4025,-3386,-186,175,127,813
1005710,50977968,48281244,51108210,48585074,3800,3800,-5024,-18191,274,-2442,-4378,920,175,127,813
1006704,50978544,48281816,51108954,48585818,3800,3800,-5213,-19649,896,-596,-5472,472,156,105,811
1007705,50978940,48282452,51109698,48586562,3800,3800,-6245,-19664,1660,1666,-5617,7270,156,105,811
1008706,50979380,48282956,51110442,48587306,3800,3800,-8045,-18235,2441,1768,-6591,9872,126,113,809
1009707,50979648,48283604,51111186,48588050,3800,3800,-9323,-17640,3084,2390,-6004,5234,126,113,809
1010708,50979864,48284204,51111930,48588794,3800,3800,-10109,-17706,3553,5234,-5471,8614,100,128,808
1011709,50979988,48284932,51112674,48589538,3800,3800,-10889,-17470,3929,7988,-4750,11973,100,128,808
1012710,50980036,48285696,51113418,48590282,3800,3800,-11385,-17185,4112,9507,-2323,10333,45,113,807
1013710,50980076,48286312,51114162,48591026,3800,3800,-6566,-9113,3471,24230,-6274,31786,45,113,807
1014711,50980064,48286960,51114906,48591770,3800,3800,3852,11671,2013,32767,-9002,32767,41,138,805
1015712,50980024,48287508,51115650,48592514,3800,3800,8972,17579,1632,9577,-4749,9881,41,138,805
1016713,50980032,48288348,51116394,48593258,3800,3800,8169,11877,2008,8000,-4788,-943,21,128,804
1017714,50980056,48288984,51117138,48594002,3800,3800,6265,4960,2524,8402,-5298,-5139,21,128,804
1018716,50980044,48289936,51117882,48594746,3800,3800,4584,107,3181,9579,-7705,-4947,17,137,803
1019717,50980048,48290708,51118626,48595490,3800,3800,3481,-1896,3108,13672,-14833,-2437,17,137,803
1020717,50980040,48291556,51119370,48596234,3800,3800,2531,-3778,1751,17200,-21364,-4682,-1,169,804
1021718,50980040,48292420,51120114,48596978,3800,3800,2058,-6119,1172,9758,-4618,-2831,-1,169,804
1022720,50980032,48293384,51120858,48597722,3800,3800,1816,-8967,1133,9741,-2051,-2237,2,176,806
1023721,50980056,48294168,51121602,48598466,3800,3800,1727,-11314,1300,7906,-1677,-708,2,176,806
1024722,50980056,48295200,51122346,48599210,3800,3800,1716,-12909,1374,6590,-3226,579,0,164,805
1025722,50980040,48296184,51123090,48599954,3800,3800,1964,-14310,1261,5184,-4109,701,0,164,805
1026724,50980052,48297032,51123834,48600698,3800,3800,2203,-14943,1117,3794,-3490,4341,2,179,806
1027731,50980064,48297920,51124594,48601458,3800,3800,2124,-14252,736,3174,-2184,7677,2,179,806
1028725,50980076,48298868,51125338,48602202,3800,3800,1578,-12385,-23,1100,-917,10849,13,179,806
1029726,50980164,48299680,51126082,48602946,3800,3800,1464,-10753,-788,-1465,-1426,9077,13,179,806
1030728,50980332,48300620,51126826,48603690,3800,3800,1443,-8667,-1445,-2240,-2204,11801,6,195,806
1031729,50980616,48301464,51127570,48604434,3800,3800,1443,-5643,-1841,-4273,-3272,13665,6,195,806
1032729,50980936,48302200,51128314,48605178,3800,3800,1468,-1927,-1965,-7411,-3404,15355,36,167,807
1033730,50981324,48302952,51129058,48605922,3800,3800,1579,1947,-2046,-9153,-2338,15525,36,167,807
1034732,50981752,48303688,51129802,48606666,3800,3800,1831,5138,-2231,-9179,115,13109,57,174,809
1035733,50982220,48304408,51130546,48607410,3800,3800,2162,7464,-2505,-8324,644,10250,57,174,809
1036733,50982764,48305036,51131290,48608154,3800,3800,2582,8801,-2707,-7986,5,7626,76,172,810
1037734,50983276,48305648,51132034,48608898,3800,3800,2962,9567,-2742,-8126,-245,6127,76,172,810
1038736,50983736,48306268,51132778,48609642,3800,3800,3144,9951,-2600,-7559,-426,4415,98,132,809
1039737,50984212,48306836,51133522,48610386,3800,3800,3385,9739,-2234,-6438,34,2090,98,132,809
1040738,50984768,48307376,51134266,48611130,3800,3800,3708,8724,-1724,-5014,598,87,95,129,808
1041738,50985228,48307888,51135010,48611874,3800,3800,4035,7479,-1047,-3347,603,-398,95,129,808
1042740,50985892,48308340,51135754,48612618,3800,3800,4434,5985,-84,-1549,508,-1597,102,119,807
1043741,50986364,48308788,51136498,48613362,3800,3800,4897,4133,895,-636,758,-3068,102,119,807
1044742,50987192,48309200,51137242,48614106,3800,3800,5296,2262,1874,-158,203,-1966,101,102,808
1045742,50987912,48309588,51137986,48614850,3800,3800,5474,603,2671,496,1552,-1770,101,102,808
1046744,50988568,48310016,51138730,48615594,3800,3800,5458,-1246,3193,1418,2770,-2803,127,101,808
1047745,50989416,48310364,51139474,48616338,3800,3800,5309,-3016,3613,2065,2933,-1680,127,101,808
1048746,50990252,48310708,51140218,48617082,3800,3800,4808,-4495,4102,2639,2767,-809,150,91,808
1049753,50991096,48311004,51140978,48617842,3800,3800,4522,-6416,4513,2375,3456,-3496,150,91,808
1050748,50992124,48311292,51141722,48618586,3800,3800,4151,-7611,4732,2793,4684,450,162,83,807
1051749,50993048,48311596,51142466,48619330,3800,3800,3748,-8504,4798,2725,4258,-137,162,83,807
1052750,50993980,48311868,51143210,48620074,3800,3800,3399,-9252,4708,2645,4264,449,172,79,807
1053751,50995084,48312116,51143954,48620818,3800,3800,3006,-9556,4486,2694,4662,2645,172,79,807
1054752,50996084,48312304,51144698,48621562,3800,3800,2651,-9073,3983,2674,4817,4811,183,52,809
1055753,50997144,48312488,51145442,48622306,3800,3800,2052,-7460,3314,2696,4064,8349,183,52,809
1056754,50998260,48312684,51146186,48623050,3800,3800,1398,-5365,2677,2848,4672,8468,166,63,809
1057755,50999260,48312888,51146930,48623794,3800,3800,766,-3323,1987,2596,4892,8633,166,63,809
1058756,51000184,48313052,51147674,48624538,3800,3800,443,-1766,1248,1744,4591,6979,187,62,809
1059756,51001240,48313192,51148418,48625282,3800,3800,251,-308,513,1816,5080,7645,187,62,809
1060757,51002276,48313324,51149162,48626026,3800,3800,74,1286,-160,2409,5559,7397,186,50,809
1061758,51003080,48313432,51149906,48626770,3800,3800,-81,2933,-730,2491,5745,7045,186,50,809
1062759,51003972,48313540,51150650,48627514,3800,3800,-79,4358,-1176,2085,5416,5750,174,42,808
1063761,51004920,48313644,51151394,48628258,3800,3800,69,5214,-1576,1388,4741,4134,174,42,808
1064761,51005748,48313724,51152138,48629002,3800,3800,296,5684,-1842,1309,3673,3452,175,25,809
1065762,51006528,48313796,51152882,48629746,3800,3800,541,6093,-1828,1763,2875,2823,175,25,809
1066763,51007372,48313844,51153626,48630490,3800,3800,809,6293,-1718,1229,2970,1484,172,37,808
1067765,51008144,48313892,51154370,48631234,3800,3800,1067,6151,-1658,305,3211,554,172,37,808
1068766,51008868,48313920,51155114,48631978,3800,3800,1279,5722,-1685,-296,3603,-161,151,15,807
1069767,51009548,48313924,51155858,48632722,3800,3800,1425,5469,-1720,-553,3445,507,151,15,807
1070767,51010156,48313936,51156602,48633466,3800,3800,1514,5672,-1700,-1207,2928,1182,166,11,806
1071778,51010716,48313948,51157362,48634226,3800,3800,1611,5851,-1655,-1645,2128,863,166,11,806
1072770,51011268,48313984,51158106,48634970,3800,3800,1680,5929,-1581,-1448,1021,793,142,20,803
1073770,51011664,48314040,51158850,48635714,3800,3800,1725,5971,-1479,-1078,638,348,142,20,803
1074772,51012048,48314096,51159594,48636458,3800,3800,1820,5807,-1402,-1090,544,-506,110,9,802
1075773,51012388,48314132,51160338,48637202,3800,3800,1980,5505,-1354,-1460,368,-527,110,9,802
1076774,51012604,48314168,51161082,48637946,3800,3800,2142,5351,-1320,-1315,555,20,95,26,799
1077774,51012820,48314224,51161826,48638690,3800,3800,2063,5496,-1391,-575,1969,1012,95,26,799
1078775,51012992,48314312,51162570,48639434,3800,3800,1762,6003,-1704,-54,3458,2162,55,23,799
1079777,51013104,48314436,51163314,48640178,3800,3800,1425,6414,-2034,-208,1805,1438,55,23,799
1080777,51013180,48314596,51164058,48640922,3800,3800,1200,6300,-2418,-218,1581,-10,54,20,799
1081778,51013256,48314716,51164802,48641666,3800,3800,1021,5990,-2876,-213,1600,145,54,20,799
1082779,51013296,48314840,51165546,48642410,3800,3800,715,5808,-3309,-19,1146,812,19,22,799
1083781,51013316,48314980,51166290,48643154,3800,3800,326,5661,-3641,126,927,711,19,22,799
1084781,51013360,48315152,51167034,48643898,3800,3800,-31,5302,-3904,252,1832,109,10,48,795
1085783,51013392,48315300,51167778,48644642,3800,3800,-298,4639,-4187,575,2827,-732,10,48,795
1086783,51013380,48315556,51168522,48645386,3800,3800,-537,3802,-4405,846,2783,-702,4,38,798
1087785,51013420,48315780,51169266,48646130,3800,3800,-782,3091,-4423,1060,1946,-63,4,38,798
1088786,51013468,48315972,51170010,48646874,3800,3800,-1066,2573,-4233,1367,994,623,17,43,799
1089786,51013468,48316148,51170754,48647618,3800,3800,-1360,2215,-3892,1416,877,1134,17,43,799
1090787,51013460,48316320,51171498,48648362,3800,3800,-1568,1803,-3481,1259,1225,1076,14,48,799
1091789,51013516,48316520,51172242,48649106,3800,3800,-1710,1314,-3090,1069,1584,1239,14,48,799
1092789,51013516,48316796,51172986,48649850,3800,3800,-1850,923,-2731,785,1740,1927,16,49,798
1093797,51013496,48317024,51173746,48650610,3800,3800,-1999,767,-2361,570,1745,2586,16,49,798
1094791,51013532,48317276,51174490,48651354,3800,3800,-2120,667,-1984,240,1569,2627,9,57,797
1095793,51013584,48317472,51175234,48652098,3800,3800,-2269,574,-1605,-298,1233,3118,9,57,797
1096793,51013604,48317664,51175978,48652842,3800,3800,-2401,570,-1240,-751,1152,3650,7,59,797
1097794,51013656,48317904,51176722,48653586,3800,3800,-2483,602,-874,-1173,1339,3831,7,59,797
1098795,51013772,48318172,51177466,48654330,3800,3800,-2474,641,-520,-1585,1815,3889,20,56,799
1099797,51013892,48318440,51178210,48655074,3800,3800,-2418,652,-191,-1783,2127,3930,20,56,799
1100798,51014024,48318716,51178954,48655818,3800,3800,-2364,706,126,-1900,2255,4231,17,61,799
1101799,51014200,48318976,51179698,48656562,3800,3800,-2331,891,439,-1954,2699,4881,17,61,799
1102800,51014444,48319220,51180442,48657306,3800,3800,-2282,1145,748,-2011,2779,5036,35,55,799
1103800,51014656,48319436,51181186,48658050,3800,3800,-2188,1299,1092,-2130,2659,4843,35,55,799
1104802,51014888,48319824,51181930,48658794,3800,3800,-2053,1412,1447,-2289,2706,4964,33,57,799
1105802,51015212,48320168,51182674,48659538,3800,3800,-1918,1547,1771,-2321,2672,5137,33,57,799
1106804,51015516,48320492,51183418,48660282,3800,3800,-1774,1697,2076,-2321,2170,5106,60,68,801
1107804,51015812,48320836,51184162,48661026,3800,3800,-1609,1786,2385,-2347,1548,4997,60,68,801
1108806,51016196,48321240,51184906,48661770,3800,3800,-1435,1749,2660,-2320,1247,4610,61,64,800
1109806,51016492,48321688,51185650,48662514,3800,3800,-1251,1559,2872,-2222,1104,4284,61,64,800
1110808,51016824,48322052,51186394,48663258,3800,3800,-1065,1274,3030,-1903,914,4056,61,87,803
1111809,51017168,48322520,51187138,48664002,3800,3800,-877,957,3143,-1455,863,3916,61,87,803
1112810,51017528,48323000,51187882,48664746,3800,3800,-670,598,3195,-909,1265,3606,65,91,804
1113811,51017840,48323456,51188626,48665490,3800,3800,-461,166,3198,-312,1262,3271,65,91,804
1114811,51018180,48323992,51189370,48666234,3800,3800,-250,-356,3193,296,1177,3129,59,88,804
1115819,51018576,48324540,51190130,48666994,3800,3800,13,-887,3152,850,1630,3118,59,88,804
1116814,51018876,48324976,51190874,48667738,3800,3800,359,-1364,3055,1396,1829,3150,69,98,804
1117815,51019188,48325552,51191618,48668482,3800,3800,742,-1793,2932,1921,1977,3248,69,98,804
1118816,51019580,48326104,51192362,48669226,3800,3800,1082,-2034,2781,2325,2268,3988,65,97,803
1119817,51019896,48326644,51193106,48669970,3800,3800,1301,-1835,2517,2374,2335,5500,65,97,803
1120818,51020200,48327336,51193850,48670714,3800,3800,1450,-1351,2239,2744,2230,5950,72,103,805
1121819,51020588,48327864,51194594,48671458,3800,3800,1636,-917,1864,2587,2649,5417,72,103,805
1122820,51020928,48328540,51195338,48672202,3800,3800,1839,-553,1270,2138,2815,5618,72,102,806
1123820,51021240,48329132,51196082,48672946,3800,3800,1995,34,510,1619,2588,6517,72,102,806
1124822,51021624,48329892,51196826,48673690,3800,3800,2104,936,-226,1447,2050,7114,59,117,806
1125822,51021980,48330564,51197570,48674434,3800,3800,2230,1928,-780,1615,1553,6881,59,117,806
1126823,51022372,48331428,51198314,48675178,3800,3800,2428,2776,-1243,1542,1859,6205,62,124,807
1127825,51022760,48332220,51199058,48675922,3800,3800,2709,3359,-1725,1284,1656,5333,62,124,807
1128825,51023228,48333112,51199802,48676666,3800,3800,3045,3642,-2135,1175,592,4511,80,138,807
1129826,51023668,48333936,51200546,48677410,3800,3800,3380,3742,-2353,1325,-247,3888,80,138,807
1130827,51024136,48334776,51201290,48678154,3800,3800,3711,3718,-2398,1412,-793,3225,91,152,808
1131828,51024712,48335696,51202034,48678898,3800,3800,3993,3707,-2402,1335,-879,3020,91,152,808
1132830,51025204,48336492,51202778,48679642,3800,3800,4214,3697,-2440,856,-640,2767,85,156,809
1133831,51025772,48337380,51203522,48680386,3800,3800,4325,3641,-2570,210,784,2572,85,156,809
1134832,51026356,48338216,51204266,48681130,3800,3800,4329,3632,-2896,-411,1772,2675,99,162,809
1135833,51026984,48338956,51205010,48681874,3800,3800,4180,3918,-3304,-972,1761,3724,99,162,809
1136834,51027616,48339692,51205754,48682618,3800,3800,3922,4395,-3693,-1713,1219,3837,121,152,811
1137841,51028268,48340412,51206514,48683378,3800,3800,3680,4793,-4082,-2932,312,3220,121,152,811
1138836,51028956,48341104,51207258,48684122,3800,3800,3389,5059,-4566,-4000,884,3187,109,145,810
1139836,51029632,48341756,51208002,48684866,3800,3800,3081,5186,-5214,-4553,1475,2337,109,145,810
1140838,51030400,48342356,51208746,48685610,3800,3800,2731,5021,-5926,-4613,1955,1684,136,154,810
1141838,51031124,48343020,51209490,48686354,3800,3800,2438,4723,-6490,-4198,1015,1290,136,154,810
1142840,51031884,48343720,51210234,48687098,3800,3800,2178,4422,-6738,-3526,-435,1564,130,145,811
1143841,51032736,48344404,51210978,48687842,3800,3800,1982,4147,-6677,-3059,-1743,1509,130,145,811
1144842,51033536,48345036,51211722,48688586,3800,3800,1793,3786,-6314,-2534,-2395,1216,155,139,812
1145843,51034368,48345660,51212466,48689330,3800,3800,1606,3022,-5863,-2065,-2347,89,155,139,812
1146844,51035148,48346332,51213210,48690074,3800,3800,1427,1994,-5492,-1894,-2163,-294,169,149,812
1147844,51036024,48346960,51213954,48690818,3800,3800,1174,914,-5268,-2177,-2090,29,169,149,812
1148845,51036852,48347724,51214698,48691562,3800,3800,856,108,-4952,-2362,-2754,950,177,130,813
1149846,51037600,48348360,51215442,48692306,3800,3800,552,-562,-4407,-2836,-2847,1405,177,130,813
1150847,51038352,48349064,51216186,48693050,3800,3800,212,-1111,-3594,-3411,-3765,2083,160,130,812
1151848,51038992,48349760,51216930,48693794,3800,3800,-246,-1677,-2607,-3877,-4173,2306,160,130,812
1152849,51039528,48350508,51217674,48694538,3800,3800,-1394,-1452,-1349,-3443,-6466,6217,167,149,812
1153850,51040100,48351292,51218418,48695282,3800,3800,-3489,-427,290,-2004,-9511,7720,167,149,812
1154851,51040488,48351964,51219162,48696026,3800,3800,-5679,-41,2061,-146,-9672,4045,149,143,812
1155852,51040840,48352604,51219906,48696770,3800,3800,-6912,-1780,3308,1488,-6233,-1788,149,143,812
1156853,51041116,48353356,51220650,48697514,3800,3800,-7561,-4573,3826,2957,-3155,-1840,101,134,811
1157854,51041308,48354220,51221394,48698258,3800,3800,-8137,-7176,4139,3827,-4077,-1155,101,134,811
1158855,51041472,48355024,51222138,48699002,3800,3800,-8815,-9382,4472,5190,-3734,-616,67,145,808
1159865,51041576,48355748,51222898,48699762,3800,3800,-9339,-11343,4857,6948,-3385,4,67,145,808
1160857,51041684,48356588,51223642,48700506,3800,3800,-9515,-13256,5138,8348,-3553,676,53,156,806
1161858,51041772,48357552,51224386,48701250,3800,3800,-9474,-14843,5314,9742,-4176,2274,53,156,806
1162859,51041840,48358464,51225130,48701994,3800,3800,-8210,-15073,5613,12491,-5647,7926,27,156,805
1163860,51041880,48359352,51225874,48702738,3800,3800,-109,273,5051,30707,-8071,32767,27,156,805
1164861,51041904,48360300,51226618,48703482,3800,3800,7972,14173,4041,17345,-4961,18108,16,186,808
1165863,51041916,48361340,51227362,48704226,3800,3800,9843,14614,3559,5881,-3261,-599,16,186,808
1166864,51041960,48362248,51228106,48704970,3800,3800,8572,9237,3306,6194,-3048,-998,24,179,807
1167865,51042020,48363148,51228850,48705714,3800,3800,6996,4609,3135,6673,-4063,-778,24,179,807
1168866,51042116,48364088,51229594,48706458,3800,3800,6192,3167,3085,5922,-5763,2329,15,191,807
1169867,51042364,48365024,51230338,48707202,3800,3800,5912,2378,3041,3971,-5049,1016,15,191,807
1170867,51042636,48366044,51231082,48707946,3800,3800,5778,1429,2965,2904,-3745,1928,18,199,804
1171868,51042972,48366928,51231826,48708690,3800,3800,5384,1174,2874,2978,-1909,5190,18,199,804
1172869,51043364,48367676,51232570,48709434,3800,3800,4613,1697,2431,1440,1202,6407,55,184,807
1173870,51043816,48368468,51233314,48710178,3800,3800,3975,1831,1800,-379,264,3998,55,184,807
1174872,51044292,48369168,51234058,48710922,3800,3800,3678,721,1091,-1614,160,-59,69,182,810
1175873,51044844,48369828,51234802,48711666,3800,3800,3537,-839,402,-2931,1019,-602,69,182,810
1176873,51045340,48370516,51235546,48712410,3800,3800,3130,-1821,-196,-4498,1402,1663,90,157,810
1177875,51045772,48371076,51236290,48713154,3800,3800,2448,-1877,-698,-6067,1266,3234,90,157,810
1178875,51046292,48371660,51237034,48713898,3800,3800,1797,-1411,-1062,-7011,446,3781,111,133,810
1179877,51046792,48372180,51237778,48714642,3800,3800,1285,-583,-1334,-7554,-37,4391,111,133,810
1180877,51047204,48372692,51238522,48715386,3800,3800,847,94,-1537,-8690,-32,4235,106,117,809
1181885,51047808,48373248,51239282,48716146,3800,3800,414,851,-1604,-9138,-614,5175,106,117,809
1182880,51048436,48373704,51240026,48716890,3800,3800,-105,2223,-1297,-8195,-1518,6335,96,110,807
1183881,51049008,48374160,51240770,48717634,3800,3800,-615,3327,-947,-8405,-730,3960,96,110,807
1184882,51049652,48374564,51241514,48718378,3800,3800,-999,3662,-764,-9231,-763,2275,115,102,806
1185883,51050360,48374980,51242258,48719122,3800,3800,-1619,3929,-594,-8599,-872,3528,115,102,806
1186884,51051084,48375348,51243002,48719866,3800,3800,-2148,3735,-421,-7376,-348,334,121,92,808
1187884,51051836,48375756,51243746,48720610,3800,3800,-2328,2871,-155,-6057,85,-1387,121,92,808
1188885,51052664,48376096,51244490,48721354,3800,3800,-2394,1362,284,-4679,166,-2514,140,95,809
1189887,51053432,48376416,51245234,48722098,3800,3800,-2481,-119,906,-2990,-35,-2006,140,95,809
1190888,51054176,48376692,51245978,48722842,3800,3800,-2617,-1557,1653,-1942,128,-2426,158,68,809
1191889,51055012,48377008,51246722,48723586,3800,3800,-2655,-3311,2307,-1534,129,-3654,158,68,809
1192889,51055932,48377320,51247466,48724330,3800,3800,-2540,-5522,2802,-1084,-202,-4518,145,78,808
1193890,51056876,48377620,51248210,48725074,3800,3800,-2338,-7694,3173,-117,-519,-3851,145,78,808
1194891,51057936,48377860,51248954,48725818,3800,3800,-2180,-9441,3426,920,-591,-2984,164,75,807
1195892,51058896,48378100,51249698,48726562,3800,3800,-2042,-10987,3607,1336,-742,-2686,164,75,807
1196893,51059944,48378396,51250442,48727306,3800,3800,-1852,-12344,3699,1651,-873,-2022,169,70,808
1197894,51061008,48378700,51251186,48728050,3800,3800,-1671,-13216,3577,2151,-700,-554,169,70,808
1198896,51062224,48378992,51251930,48728794,3800,3800,-1514,-13458,3309,2452,-1180,1103,189,74,809
1199897,51063268,48379264,51252674,48729538,3800,3800,-1453,-13018,3013,2901,-1610,3422,189,74,809
1200898,51064392,48379572,51253418,48730282,3800,3800,-1348,-11998,2691,2549,-1701,4686,182,60,809
1201898,51065404,48379872,51254162,48731026,3800,3800,-1215,-10503,2261,1885,-1624,6026,182,60,809
1202900,51066484,48380148,51254906,48731770,3800,3800,-1036,-8780,1662,1651,-1347,6515,204,77,810
1203907,51067548,48380432,51255666,48732530,3800,3800,-803,-7029,986,1514,-967,6748,204,77,810
1204901,51068560,48380704,51256410,48733274,3800,3800,-525,-5019,298,1333,-595,7579,210,73,809
1205902,51069500,48380916,51257154,48734018,3800,3800,-178,-3096,-330,1153,-647,6973,210,73,809
1206903,51070416,48381220,51257898,48734762,3800,3800,320,-1597,-856,1222,-762,5769,219,60,808
1207905,51071404,48381520,51258642,48735506,3800,3800,956,-359,-1304,1875,-283,5249,219,60,808
1208905,51072260,48381760,51259386,48736250,3800,3800,1661,414,-1730,2531,253,3721,199,75,811
1209906,51073108,48381992,51260130,48736994,3800,3800,2435,916,-2047,2471,129,2988,199,75,811
1210907,51074008,48382260,51260874,48737738,3800,3800,3152,1378,-2188,2145,48,3319,215,57,809
1211908,51074752,48382540,51261618,48738482,3800,3800,3851,1983,-2093,2541,-277,3316,215,57,809
1212909,51075424,48382796,51262362,48739226,3800,3800,4618,2535,-1853,2926,-207,2753,190,64,809
1213910,51076156,48383032,51263106,48739970,3800,3800,5417,2914,-1660,3156,370,2059,190,64,809
1214911,51076712,48383244,51263850,48740714,3800,3800,6136,2943,-1492,3296,659,1358,145,62,809
1215912,51077232,48383508,51264594,48741458,3800,3800,6686,2881,-1373,2865,1070,1088,145,62,809
1216913,51077736,48383784,51265338,48742202,3800,3800,6980,3035,-1213,2533,626,2043,141,55,805
1217914,51078168,48384060,51266082,48742946,3800,3800,7137,3393,-995,2558,380,2354,141,55,805
1218915,51078536,48384328,51266826,48743690,3800,3800,7193,3909,-790,2848,1418,2618,102,67,806
1219916,51078904,48384592,51267570,48744434,3800,3800,7282,4397,-638,2817,2319,2240,102,67,806
1220917,51079288,48384840,51268314,48745178,3800,3800,7355,4741,-604,3091,3359,2095,77,66,804
1221918,51079576,48385116,51269058,48745922,3800,3800,7385,5142,-614,3112,3582,2548,77,66,804
1222919,51079848,48385428,51269802,48746666,3800,3800,7033,6514,-785,3134,5266,6497,71,62,804
1223921,51080172,48385732,51270546,48747410,3800,3800,5846,9578,-1202,3278,6834,11948,71,62,804
1224921,51080416,48386032,51271290,48748154,3800,3800,4085,13460,-1757,3396,7452,13053,64,72,802
1225929,51080624,48386296,51272050,48748914,3800,3800,2539,16623,-2599,3730,10622,9768,64,72,802
1226923,51080896,48386664,51272794,48749658,3800,3800,1524,18039,-3900,4110,14372,5113,67,59,801
1227924,51081156,48387016,51273538,48750402,3800,3800,817,18142,-5267,4216,14405,2407,67,59,801
1228925,51081356,48387344,51274282,48751146,3800,3800,82,17456,-6116,4185,11732,327,52,69,801
1229926,51081644,48387684,51275026,48751890,3800,3800,-489,16266,-6529,3830,9877,-1552,52,69,801
1230928,51081892,48388144,51275770,48752634,3800,3800,-726,14459,-6728,3013,7018,-3769,49,78,802
1231929,51082152,48388568,51276514,48753378,3800,3800,-557,11879,-6845,2044,4769,-6140,49,78,802
1232930,51082384,48389000,51277258,48754122,3800,3800,-143,8826,-6935,1342,4408,-7079,65,92,802
1233931,51082736,48389468,51278002,48754866,3800,3800,231,6047,-6821,1031,3522,-5709,65,92,802
1234932,51083004,48389944,51278746,48755610,3800,3800,408,3918,-6474,803,2883,-4035,65,94,803
1235933,51083292,48390388,51279490,48756354,3800,3800,392,2605,-5911,444,1948,-1753,65,94,803
1236934,51083684,48390912,51280234,48757098,3800,3800,181,2109,-5106,-261,494,1048,62,87,804
1237934,51084048,48391488,51280978,48757842,3800,3800,-245,2512,-4181,-1274,-822,4070,62,87,804
1238935,51084428,48391960,51281722,48758586,3800,3800,-741,3468,-3296,-2704,-723,5218,60,94,803
1239937,51084892,48392524,51282466,48759330,3800,3800,-1085,4521,-2601,-4340,-123,5482,60,94,803
1240938,51085372,48393100,51283210,48760074,3800,3800,-1265,5541,-2110,-5822,-387,5871,74,108,804
1241939,51085784,48393632,51283954,48760818,3800,3800,-1260,6362,-1699,-6943,-749,5165,74,108,804
1242939,51086340,48394272,51284698,48761562,3800,3800,-1136,7008,-1250,-7326,-590,4751,85,102,806
1243941,51086848,48394912,51285442,48762306,3800,3800,-1019,7689,-732,-7336,-152,5092,85,102,806
1244941,51087372,48395608,51286186,48763050,3800,3800,-997,8381,-207,-7350,352,5074,100,111,807
1245942,51087944,48396244,51286930,48763794,3800,3800,-993,8889,320,-7291,472,4255,100,111,807
1246943,51088516,48397008,51287674,48764538,3800,3800,-841,8900,867,-6819,553,2713,105,122,808
1247954,51089084,48397752,51288434,48765298,3800,3800,-572,8458,1435,-6519,353,1529,105,122,808
1248946,51089752,48398744,51289178,48766042,3800,3800,-274,7900,1981,-6343,521,1677,98,140,808
1249947,51090344,48399508,51289922,48766786,3800,3800,-82,7398,2545,-5728,-308,1942,98,140,808
1250948,51091000,48400340,51290666,48767530,3800,3800,145,6968,3129,-5085,-1098,1887,122,158,809
1251949,51091664,48401236,51291410,48768274,3800,3800,377,6557,3632,-4681,-1012,2177,122,158,809
1252950,51092368,48402064,51292154,48769018,3800,3800,636,6019,3971,-4431,-1343,1889,114,180,811
1253950,51093040,48402936,51292898,48769762,3800,3800,903,5346,4131,-4236,-1690,1688,114,180,811
1254951,51093740,48403860,51293642,48770506,3800,3800,1156,4574,4080,-3916,-1494,1478,129,179,813
1255953,51094544,48404648,51294386,48771250,3800,3800,1401,3716,3890,-3417,-1705,1203,129,179,813
1256954,51095248,48405420,51295130,48771994,3800,3800,1573,2831,3625,-2944,-1497,1536,132,162,812
