"Data file recorded 2014/9/24  16:58:33"
"%  Right Stride Frequency         = 3.0"
"%  Left Stride Frequency         = 3.0"
"%  Phase (Fractional)         = 32768.0"
"%  Experiment.py "
"%  Motor Gains    = [1800, 200, 100, 0, 0, 1800, 200, 100, 0, 0]
"% Columns: "
"% time | Right Leg Pos | Left Leg Pos | Commanded Right Leg Pos | Commanded Left Leg Pos | DCR | DCL | GyroX | GryoY | GryoZ | AX | AY | AZ | RBEMF | LBEMF | VBatt "
11381,26913032,25104160,26877139,25140435,-3800,3800,-420,-475,590,276,-334,4073,-3,4,819
12373,26913048,25104096,26877336,25140632,-3800,3800,-418,-474,591,271,-309,4094,-3,4,819
13375,26912996,25104188,26877533,25140829,-3800,3800,-418,-473,590,262,-330,4064,-17,6,788
14376,26912772,25104272,26877730,25141026,-3800,3800,-417,-466,594,250,-354,4088,-17,6,788
15377,26912572,25104372,26877927,25141223,-3800,3800,-417,-460,589,234,-337,4104,-49,0,786
16377,26912344,25104388,26878124,25141420,-3800,3800,-436,-452,585,211,-314,4157,-49,0,786
17379,26911924,25104460,26878321,25141617,-3800,3800,-469,-423,584,240,-136,4192,-69,8,787
18380,26911540,25104568,26878518,25141814,-3800,3800,-521,-418,583,315,-77,4192,-69,8,787
19381,26911140,25104776,26878715,25142011,-3800,3800,-588,-375,595,389,20,4238,-83,29,788
20381,26910624,25104956,26878912,25142208,-3800,3800,-670,-326,622,518,28,4242,-83,29,788
21383,26910028,25105160,26879109,25142405,-3800,3800,-763,-280,686,737,-304,4142,-99,22,789
22384,26909516,25105288,26879306,25142602,-3800,3800,-864,-333,769,970,-334,3907,-99,22,789
23385,26908968,25105380,26879503,25142799,-3800,3800,-947,-383,870,1275,-446,3999,-93,21,787
24386,26908292,25105512,26879700,25142996,-3800,3800,-1005,-536,960,1533,-118,3772,-93,21,787
25387,26907724,25105648,26879897,25143193,-3800,3800,-1043,-635,1028,1926,12,3942,-100,15,788
26388,26907204,25105824,26880094,25143390,-3800,3800,-1086,-716,1113,2114,14,4120,-100,15,788
27388,26906560,25105912,26880291,25143587,-3800,3800,-1124,-664,1172,2178,-61,4396,-100,9,788
28389,26905996,25105952,26880488,25143784,-3800,3800,-1207,-584,1225,2202,-170,4577,-100,9,788
29390,26905528,25105960,26880685,25143981,-3800,3800,-1311,-435,1276,2205,-406,4821,-89,11,788
30392,26904956,25105996,26880882,25144178,-3800,3800,-1454,-248,1331,2230,-604,5040,-89,11,788
31393,26904472,25106056,26881079,25144375,-3800,3800,-1625,-32,1399,2199,-903,5213,-90,3,787
32394,26904048,25106164,26881276,25144572,-3800,3800,-1817,281,1497,2184,-1141,5510,-90,3,787
33395,26903608,25106216,26881473,25144769,-3800,3800,-2006,659,1627,2040,-1175,5692,-88,-4,786
34396,26903160,25106216,26881670,25144966,-3800,3800,-2218,1125,1784,2079,-1472,5945,-88,-4,786
35397,26902748,25106204,26881867,25145163,-3800,3800,-2404,1533,1970,2091,-1621,5777,-83,11,785
36398,26902432,25106208,26882064,25145360,-3800,3800,-2557,1902,2182,2095,-1797,5954,-83,11,785
37399,26902024,25106264,26882261,25145557,-3800,3800,-2687,2291,2383,1878,-1942,6008,-82,7,785
38400,26901628,25106384,26882458,25145754,-3800,3800,-2297,3476,2668,1473,-3159,13326,-82,7,785
39401,26901296,25106444,26882655,25145951,-3800,3800,-987,6525,3092,1301,-4864,26830,-58,5,783
40402,26900956,25106452,26882852,25146148,-3800,3800,-118,8122,3324,1674,-2469,7926,-58,5,783
41403,26900580,25106396,26883049,25146345,-3800,3800,-102,7835,3401,1923,-1814,3462,-70,5,785
42404,26900220,25106380,26883246,25146542,-3800,3800,-432,6792,3451,2190,-2082,2814,-70,5,785
43404,26899884,25106436,26883443,25146739,-3800,3800,-707,5982,3557,1963,-2887,3101,-52,7,785
44405,26899524,25106532,26883640,25146936,-3800,3800,-870,5519,3712,1596,-3005,3208,-52,7,785
45407,26899136,25106600,26883837,25147133,-3800,3800,-961,5041,3782,1490,-2907,2794,-73,5,785
46408,26898772,25106640,26884034,25147330,-3800,3800,-1018,4535,3762,1142,-3036,2934,-73,5,785
47409,26898396,25106620,26884231,25147527,-3800,3800,-1006,3991,3719,585,-3070,3456,-62,5,784
48397,26897948,25106588,26884428,25147724,-3115,3800,-561,4457,3722,-339,-3787,11574,-62,5,784
49398,26897476,25106628,26884625,25147921,-2673,3800,154,5457,3709,-1213,-3571,12173,-69,-3,785
50399,26896984,25106704,26884822,25148118,-2248,3800,444,5675,3505,-1482,-2485,4411,-69,-3,785
51400,26896460,25106776,26885019,25148315,-1733,3800,341,5228,3157,-1965,-1919,3689,-93,-8,791
52401,26895956,25106824,26885216,25148512,-1552,3800,221,4665,2789,-2476,-1256,3555,-93,-8,791
53402,26895392,25106864,26885413,25148709,-845,3800,141,4378,2465,-3018,-805,4189,-97,-2,792
54403,26894884,25106912,26885610,25148906,-887,3800,81,4242,2141,-3647,111,4156,-97,-2,792
55404,26894412,25106964,26885807,25149103,-820,3800,-44,4117,1734,-4246,816,4281,-86,6,797
56405,26893908,25107028,26886004,25149300,-314,3800,-186,3857,1236,-4546,1588,3836,-86,6,797
57406,26893464,25107120,26886201,25149497,-408,3800,-316,3451,719,-4610,2045,3627,-102,2,797
58407,26893052,25107188,26886398,25149694,-343,3800,-419,2896,223,-4689,2462,3045,-102,2,797
59408,26892648,25107288,26886595,25149891,-130,3800,-529,2148,-176,-4577,2430,2690,-65,4,797
60409,26892288,25107376,26886792,25150088,-161,3800,-615,1389,-461,-4419,1893,2638,-65,4,797
61410,26891932,25107516,26886989,25150285,56,3800,-630,563,-663,-4409,1519,2219,-72,11,799
62411,26891640,25107644,26887186,25150482,-130,3800,-530,-475,-784,-3964,1394,1578,-72,11,799
63412,26891296,25107788,26887383,25150679,432,3800,-353,-1546,-768,-3167,959,1470,-53,22,798
64413,26891028,25107956,26887580,25150876,160,3800,-151,-2619,-591,-2614,819,1552,-53,22,798
65414,26890760,25108132,26887777,25151073,365,3800,9,-3596,-338,-2254,722,1759,-42,22,799
66415,26890480,25108344,26887974,25151270,648,3800,146,-4568,-55,-1968,444,1780,-42,22,799
67416,26890248,25108548,26888171,25151467,537,3800,317,-5573,243,-1642,20,1497,-60,38,800
68417,26890044,25108752,26888368,25151664,537,3800,574,-6709,505,-1390,-254,1031,-60,38,800
69418,26889876,25109000,26888565,25151861,472,3800,885,-7967,721,-1292,-556,703,-45,34,798
70419,26889720,25109248,26888762,25152058,553,3800,1178,-9196,933,-1010,-972,944,-45,34,798
71419,26889604,25109512,26888959,25152255,440,3800,1420,-10162,1189,-687,-1104,1502,-32,43,799
72420,26889508,25109804,26889156,25152452,443,3800,1602,-10865,1513,-535,-1012,2163,-32,43,799
73421,26889432,25110084,26889353,25152649,438,3800,1749,-11239,1880,-500,-793,2826,-6,50,800
74422,26889404,25110372,26889550,25152846,237,3800,1877,-11417,2244,-615,-194,3341,-6,50,800
75423,26889364,25110660,26889747,25153043,416,3800,1951,-11280,2575,-625,684,4128,-8,55,800
76424,26889332,25110920,26889944,25153240,466,3800,1986,-10903,2850,-728,1055,4605,-8,55,800
77426,26889320,25111176,26890141,25153437,434,3800,2059,-10375,3053,-920,1055,4771,8,36,800
78426,26889328,25111408,26890338,25153634,392,3800,2201,-9783,3197,-1031,943,4726,8,36,800
79428,26889336,25111620,26890535,25153831,475,3800,2367,-9209,3283,-1051,1008,4680,13,52,799
80428,26889336,25111844,26890732,25154028,612,3800,2525,-8572,3325,-1060,793,4622,13,52,799
81430,26889336,25112064,26890929,25154225,699,3800,2694,-7961,3346,-1163,834,4324,18,42,797
82430,26889364,25112240,26891126,25154422,599,3800,2891,-7298,3351,-1056,769,4267,18,42,797
83431,26889380,25112432,26891323,25154619,753,3800,3110,-6609,3409,-883,361,4164,14,31,799
84432,26889388,25112596,26891520,25154816,886,3800,3369,-5917,3513,-709,171,3855,14,31,799
85434,26889392,25112752,26891717,25155013,997,3800,3654,-5360,3618,-545,19,3201,1,24,798
86434,26889408,25112896,26891914,25155210,1002,3800,3941,-5003,3714,-320,-104,2483,1,24,798
87436,26889428,25113036,26892111,25155407,1056,3800,4204,-4794,3791,-21,-120,1906,15,35,797
88436,26889448,25113184,26892308,25155604,1133,3800,4429,-4676,3844,231,-141,1432,15,35,797
89438,26889468,25113312,26892505,25155801,1212,3800,4619,-4594,3898,554,-301,1273,16,27,797
90438,26889468,25113424,26892702,25155998,1424,3800,4771,-4513,3948,873,-316,941,16,27,797
91439,26889508,25113516,26892899,25156195,1244,3800,4870,-4486,3994,1107,-371,593,-3,18,794
92440,26889524,25113612,26893096,25156392,1474,3800,4900,-4496,4031,1279,-426,255,-3,18,794
93448,26889552,25113724,26893326,25156622,2513,3800,4894,-4645,4057,1352,-382,-299,17,29,795
94442,26889612,25113852,26893523,25156819,2374,3800,4839,-4755,4078,1371,-609,-97,17,29,795
95444,26889664,25113912,26893720,25157016,2489,3800,4710,-4703,4104,1427,-757,256,14,16,790
96445,26889788,25114012,26893917,25157213,2072,3800,4477,-4444,4117,1440,-482,708,14,16,790
97446,26889948,25114128,26894114,25157410,1863,3800,4142,-3955,4092,1465,-278,1255,18,17,791
98447,26890104,25114216,26894311,25157607,1907,3800,3705,-3345,4010,1422,-38,1446,18,17,791
99448,26890228,25114320,26894508,25157804,2140,3800,3198,-2754,3847,1456,424,1437,27,26,793
100449,26890452,25114408,26894705,25158001,1504,3800,2662,-2195,3621,1605,869,1422,27,26,793
101450,26890652,25114492,26894902,25158198,1654,3800,2094,-1581,3251,1658,1882,1598,47,11,792
102451,26890856,25114548,26895099,25158395,1626,3800,1364,-719,2791,2116,2450,2838,47,11,792
103452,26891052,25114632,26895296,25158592,1678,3800,470,372,2433,3014,2760,3354,46,13,793
104453,26891280,25114716,26895493,25158789,1465,3800,-403,1360,1993,3452,4547,2811,46,13,793
105454,26891480,25114832,26895690,25158986,1640,3800,-1177,2001,1351,3722,5963,1990,37,11,793
106455,26891656,25114928,26895887,25159183,1800,3800,-1863,2203,570,4072,6740,1114,37,11,793
107456,26891880,25115016,26896084,25159380,1488,3800,-2473,2118,-185,4266,6373,455,52,29,794
108457,26892072,25115128,26896281,25159577,1691,3800,-3067,1891,-804,4436,5823,280,52,29,794
109458,26892256,25115228,26896478,25159774,1748,3800,-3579,1496,-1286,4532,5117,-531,42,29,795
110459,26892492,25115340,26896675,25159971,1407,3800,-3921,669,-1660,4451,4474,-1789,42,29,795
111460,26892680,25115480,26896872,25160168,1712,3800,-4109,-430,-1968,4167,3877,-2116,33,23,795
112461,26892856,25115600,26897069,25160365,1796,3800,-4269,-1457,-2225,3783,3106,-1466,33,23,795
113462,26893056,25115748,26897266,25160562,1646,3800,-4480,-2107,-2387,3476,2314,-286,32,35,794
114463,26893252,25115936,26897463,25160759,1672,3800,-4740,-2288,-2437,3146,1719,1105,32,35,794
115464,26893428,25116124,26897660,25160956,1807,3800,-5060,-1967,-2419,2801,1384,2785,50,30,795
116464,26893588,25116312,26897857,25161153,1925,3800,-5436,-1267,-2388,2479,1292,4004,50,30,795
117466,26893792,25116520,26898054,25161350,1646,3800,-5804,-458,-2375,2249,1635,4464,29,43,795
118467,26893972,25116708,26898251,25161547,1805,3800,-6105,297,-2382,2180,2009,4608,29,43,795
119467,26894156,25116912,26898448,25161744,1787,3800,-6321,1022,-2404,2345,2733,4846,49,39,795
120469,26894348,25117176,26898645,25161941,1740,3800,-6473,1725,-2450,2481,3524,4949,49,39,795
121469,26894560,25117444,26898842,25162138,1609,3800,-6584,2509,-2425,2375,3122,5499,33,42,793
122470,26894744,25117744,26899039,25162335,1790,3800,-6634,3318,-2349,2311,3586,5512,33,42,793
123471,26894952,25118016,26899236,25162532,1636,3800,-6631,4033,-2266,2278,4051,5508,51,67,794
124472,26895124,25118360,26899433,25162729,1873,3800,-6601,4607,-2178,2259,4126,5315,51,67,794
125474,26895292,25118736,26899630,25162926,1912,3800,-6540,4975,-2062,2285,3961,4897,44,73,796
126474,26895524,25119100,26899827,25163123,1497,3800,-6427,5240,-1930,2087,3667,4873,44,73,796
127475,26895720,25119452,26900024,25163320,1724,3800,-6303,5481,-1802,1565,3096,4958,34,61,796
128477,26895916,25119888,26900221,25163517,1724,3800,-6134,5733,-1676,903,2697,4887,34,61,796
129478,26896128,25120336,26900418,25163714,1619,3800,-5911,5865,-1522,272,2219,4810,47,90,795
130479,26896324,25120768,26900615,25163911,1720,3800,-5137,6543,-1274,-435,1170,10072,47,90,795
131480,26896524,25121248,26900812,25164108,1695,3800,-1999,12309,-459,-2734,-3062,32767,57,88,797
132480,26896732,25121784,26901009,25164305,1641,3800,1442,17282,233,-1040,9,25309,57,88,797
133482,26896948,25122344,26901206,25164502,1583,3800,2581,17131,341,-100,2907,602,49,98,798
134483,26897176,25122964,26901403,25164699,1495,3800,2478,14281,111,-247,3213,-1242,49,98,798
135484,26897392,25123580,26901600,25164896,1563,3800,2172,11467,-86,101,2507,-863,37,102,798
136485,26897632,25124232,26901797,25165093,1395,3800,2140,9856,-13,-41,2420,435,37,102,798
137486,26897864,25124912,26901994,25165290,1430,3800,2075,8620,183,192,2139,641,61,132,799
138486,26898088,25125616,26902191,25165487,1469,3800,2034,7531,357,79,1172,722,61,132,799
139487,26898340,25126452,26902388,25165684,1270,3800,2062,6050,553,-599,522,291,55,131,801
140488,26898568,25127248,26902585,25165881,1408,3800,2038,4697,619,-770,87,957,55,131,801
141490,26898812,25128032,26902782,25166078,1288,3800,1963,3264,512,-1420,655,417,56,146,802
142491,26899060,25128884,26902979,25166275,1242,3800,1826,1996,313,-1788,763,1127,56,146,802
143491,26899300,25129640,26903176,25166472,1273,3800,1706,805,74,-1761,265,849,47,160,803
144493,26899560,25130612,26903373,25166669,1121,3800,1623,-383,-63,-1900,-357,1399,47,160,803
145494,26899844,25131464,26903570,25166866,934,3800,1496,-1004,-45,-2000,-1133,2995,46,158,802
146495,26900072,25132336,26903767,25167063,1270,3800,1293,-1443,46,-1814,-1516,3389,46,158,802
147496,26900320,25133312,26903964,25167260,1124,3800,990,-1416,312,-1627,-1288,4454,49,171,802
148496,26900608,25134172,26904161,25167457,835,3800,924,-1332,404,-1074,-1138,4795,49,171,802
149498,26900836,25135028,26904358,25167654,1197,3800,857,-1168,475,-801,-1054,4895,67,163,803
150499,26901076,25136048,26904555,25167851,1103,3800,815,-1076,544,-456,-1521,4418,67,163,803
151499,26901376,25136808,26904752,25168048,684,3800,770,-997,609,-24,-1909,4323,52,170,804
152501,26901632,25137712,26904949,25168245,934,3800,749,-1048,655,51,-1834,3831,52,170,804
153502,26901856,25138548,26905146,25168442,1122,3800,747,-1104,646,506,-1902,3663,46,150,805
154503,26902176,25139324,26905343,25168639,469,3800,768,-1205,604,856,-1928,3340,46,150,805
155503,26902432,25140200,26905540,25168836,843,3800,781,-1218,547,962,-1756,3717,56,149,803
156505,26902688,25140940,26905737,25169033,818,3800,830,-1236,417,1014,-1335,3188,56,149,803
157506,26902968,25141764,26905934,25169230,633,3800,946,-1439,171,838,-846,2637,59,148,803
158507,26903244,25142520,26906131,25169427,623,3800,1078,-1578,-157,649,-704,2840,59,148,803
159508,26903484,25143304,26906328,25169624,830,3800,1193,-1694,-507,415,-777,2536,60,144,803
160508,26903712,25144092,26906525,25169821,892,3800,1276,-1774,-873,76,-494,2555,60,144,803
161510,26903980,25144808,26906722,25170018,611,3800,1321,-1935,-1331,-359,1453,2068,45,153,804
162510,26904244,25145580,26906919,25170215,607,3800,1250,-2225,-2017,-611,2397,1543,45,153,804
163512,26904504,25146268,26907116,25170412,605,3800,1078,-2699,-2892,-837,1126,815,61,144,803
164512,26904724,25147000,26907313,25170609,845,3800,838,-3287,-3745,-974,691,556,61,144,803
165514,26905012,25147720,26907510,25170806,381,3800,545,-3833,-4442,-900,1264,526,66,146,803
166515,26905296,25148516,26907707,25171003,368,3800,168,-4348,-4927,-935,1951,458,66,146,803
167516,26905596,25149252,26907904,25171200,224,3800,-313,-4814,-5153,-853,1128,515,68,150,802
168516,26905868,25149976,26908101,25171397,366,3800,-756,-5400,-5115,-909,286,85,68,150,802
169518,26906160,25150756,26908298,25171594,200,3800,-1074,-6010,-4812,-958,-864,19,57,146,804
170519,26906464,25151580,26908495,25171791,78,3800,-1283,-6677,-4309,-959,-2253,-109,57,146,804
171520,26906800,25152332,26908692,25171988,-183,3800,-1456,-7363,-3714,-998,-2594,-99,79,144,805
172521,26907140,25153224,26908889,25172185,-270,3800,-1632,-8050,-3077,-871,-2812,23,79,144,805
173522,26907448,25153940,26909086,25172382,-119,3800,-1781,-8690,-2338,-431,-2705,76,83,153,805
174523,26907792,25154780,26909283,25172579,-408,3800,-1921,-9210,-1482,-86,-2331,282,83,153,805
175524,26908124,25155584,26909480,25172776,-392,3800,-2025,-9925,-516,291,-1946,-73,59,175,806
176519,26908416,25156608,26909710,25173006,-169,3250,-2099,-10608,494,901,-2027,201,59,175,806
177513,26908740,25157620,26909907,25173203,-425,2969,-2186,-11138,1477,745,-2141,370,61,187,806
178514,26909016,25158672,26910104,25173400,-159,2347,-2332,-11484,2461,783,-2783,1467,61,187,806
179515,26909272,25159684,26910301,25173597,-59,2242,-3114,-10498,3493,1482,-3690,6439,57,194,808
180516,26909580,25160636,26910498,25173794,-433,2288,-4177,-8864,4445,1002,-3528,6820,57,194,808
181517,26909844,25161588,26910695,25173991,-188,1958,-4936,-7061,5132,1168,-1957,7243,72,196,811
182518,26910152,25162416,26910892,25174188,-511,2459,-5079,-6293,5685,1097,-2314,4402,72,196,811
183519,26910428,25163296,26911089,25174385,-346,1836,-4772,-6125,6150,1183,-1811,4146,47,163,811
184520,26910652,25164036,26911286,25174582,-33,2474,-4419,-5885,6512,1812,-944,4697,47,163,811
185521,26910820,25164744,26911483,25174779,330,2451,-4210,-5327,6791,2557,-814,5692,37,128,810
186522,26910980,25165412,26911680,25174976,397,2496,-4158,-4314,7066,2841,-850,7225,37,128,810
187523,26911148,25166080,26911877,25175173,360,2291,-4125,-3015,7296,3239,-384,7926,41,135,810
188524,26911320,25166832,26912074,25175370,346,1525,-2967,-110,7235,7633,981,22214,41,135,810
189525,26911492,25167404,26912271,25175567,357,2486,597,7868,6190,17609,3299,32767,49,126,810
190526,26911624,25167964,26912468,25175764,635,2403,3101,12307,5448,7606,156,12459,49,126,810
191527,26911684,25168520,26912665,25175961,1146,2271,3601,12081,5319,4858,-1037,2245,40,115,812
192528,26911800,25168992,26912862,25176158,832,2678,3150,9719,5258,5079,-1576,593,40,115,812
193529,26911976,25169476,26913059,25176355,466,2477,2831,8186,4974,5298,-2045,1347,26,86,809
194530,26912080,25169864,26913256,25176552,957,2995,2682,7451,4548,4323,-1674,1550,26,86,809
195531,26912200,25170200,26913453,25176749,891,3260,2443,7224,3941,3042,-1739,2695,28,68,806
196532,26912280,25170548,26913650,25176946,1193,3120,1951,6950,3186,1571,-1651,2927,28,68,806
197533,26912388,25170840,26913847,25177143,1058,3429,1299,6667,2302,234,-1433,3230,23,63,803
198534,26912528,25171136,26914044,25177340,883,3362,402,6580,1157,-790,-867,3495,23,63,803
199535,26912676,25171488,26914241,25177537,854,2945,-595,6212,-112,-1965,-2003,2653,26,59,803
200536,26912828,25171796,26914438,25177734,850,3173,-1517,5731,-1368,-2950,-3778,2551,26,59,803
201537,26912964,25172108,26914635,25177931,977,3098,-2363,4979,-2531,-3187,-4920,1893,19,53,801
202538,26913108,25172384,26914832,25178128,950,3290,-3147,4268,-3510,-3397,-5445,2115,19,53,801
203539,26913216,25172656,26915029,25178325,1214,3283,-3811,3494,-4300,-3996,-4067,1676,16,57,802
204540,26913304,25172952,26915226,25178522,1388,3090,-4292,2291,-5058,-4580,-1556,271,16,57,802
205541,26913456,25173264,26915423,25178719,1008,2941,-4628,866,-5680,-4550,-1803,132,16,52,802
206542,26913572,25173560,26915620,25178916,1270,2998,-4786,-571,-5915,-4017,-3550,99,16,52,802
207543,26913660,25173864,26915817,25179113,1492,2902,-4871,-1926,-5696,-3307,-5749,647,18,54,802
208543,26913800,25174140,26916014,25179310,1192,3043,-4638,-3319,-5035,-3212,-7498,2550,18,54,802
209545,26913924,25174476,26916211,25179507,1326,2608,-806,-5086,-3448,-7919,-10717,32767,18,56,802
210546,26914028,25174824,26916408,25179704,1491,2468,4108,-5956,-1553,-5866,-9221,32767,18,56,802
211547,26914188,25175148,26916605,25179901,1159,2563,5359,-6408,-266,-1999,-5863,5084,37,64,803
212548,26914324,25175428,26916802,25180098,1335,2803,4194,-6551,447,-1734,-4416,4827,37,64,803
213549,26914428,25175708,26916999,25180295,1577,2767,2245,-6043,1223,-245,-3384,7486,24,57,803
214550,26914560,25175992,26917196,25180492,1431,2705,586,-5500,2320,154,-2769,6235,24,57,803
215551,26914728,25176272,26917393,25180689,1220,2695,62,-6023,3048,-1193,-1965,1511,21,53,803
216552,26914852,25176544,26917590,25180886,1527,2712,257,-7929,3410,-1746,-2286,-137,21,53,803
217553,26914968,25176784,26917787,25181083,1613,2894,401,-9208,3696,-1321,-2191,2585,35,44,803
218554,26915116,25177020,26917984,25181280,1435,2903,354,-9968,3992,-1057,-1378,3011,35,44,803
219555,26915272,25177236,26918181,25181477,1404,3020,346,-10453,4221,-772,-535,3190,20,50,802
220556,26915400,25177476,26918378,25181674,1609,2852,480,-10963,4398,-747,-749,3135,20,50,802
221557,26915588,25177708,26918575,25181871,1239,2887,664,-11196,4619,-337,-1246,4625,18,42,802
222558,26915724,25177924,26918772,25182068,1591,2980,709,-10523,4852,-75,-1129,7473,18,42,802
223559,26915836,25178116,26918969,25182265,1779,3133,689,-9439,5149,-1,-1592,8202,38,34,800
224560,26916020,25178288,26919166,25182462,1336,3270,670,-8051,5398,397,-1438,8789,38,34,800
225561,26916152,25178468,26919363,25182659,1690,3228,793,-6897,5500,271,-434,7922,20,50,800
226562,26916244,25178716,26919560,25182856,1987,2781,1020,-5858,5424,-54,199,8099,20,50,800
227563,26916412,25178928,26919757,25183053,1524,3000,1335,-4884,5216,-398,313,7690,18,38,800
228564,26916580,25179156,26919954,25183250,1538,2888,1727,-4014,4983,-489,441,7317,18,38,800
229565,26916712,25179364,26920151,25183447,1793,3009,2129,-3042,4761,-276,623,7281,18,50,799
230566,26916860,25179576,26920348,25183644,1714,2978,2508,-2214,4540,-137,957,6665,18,50,799
231567,26917024,25179808,26920545,25183841,1630,2838,2842,-1386,4299,-21,1452,6638,25,50,802
232568,26917128,25180060,26920742,25184038,2047,2690,3192,-777,4045,215,1758,5394,25,50,802
233569,26917276,25180292,26920939,25184235,1793,2800,3551,-411,3755,449,2107,4512,33,52,800
234570,26917464,25180548,26921136,25184432,1548,2625,3926,-334,3413,402,2634,3380,33,52,800
235571,26917640,25180764,26921333,25184629,1633,2867,4283,-622,3020,453,2945,2291,33,52,799
236572,26917760,25180976,26921530,25184826,2017,2886,4592,-959,2625,577,2830,1847,33,52,799
237573,26917948,25181220,26921727,25185023,1597,2667,4847,-1349,2323,516,2488,1429,42,44,803
238574,26918080,25181524,26921924,25185220,1977,2245,4992,-1592,2128,537,1870,1673,42,44,803
239575,26918212,25181804,26922121,25185417,2006,2359,5020,-1732,2102,401,1013,1863,43,49,799
240576,26918416,25182064,26922318,25185614,1553,2458,4855,-1381,2307,485,78,3382,43,49,799
241577,26918568,25182328,26922515,25185811,1899,2404,4649,-811,2591,351,610,3126,44,57,803
242578,26918704,25182612,26922712,25186008,2027,2241,4575,-713,2599,-588,1907,1128,44,57,803
243579,26918888,25182948,26922909,25186205,1734,1856,4580,-992,2468,-899,1563,401,26,55,803
244580,26919052,25183212,26923106,25186402,1873,2276,4529,-1349,2358,-957,1428,242,26,55,803
245581,26919192,25183456,26923303,25186599,2049,2382,4385,-1497,2359,-949,1147,563,39,63,802
246582,26919364,25183748,26923500,25186796,1861,2041,4191,-1492,2489,-869,760,684,39,63,802
247583,26919548,25184036,26923697,25186993,1793,2026,3948,-1323,2702,-630,244,993,28,64,802
248584,26919696,25184328,26923894,25187190,2039,1960,3697,-1125,3003,-591,-417,778,28,64,802
249585,26919820,25184608,26924091,25187387,2222,1999,3502,-1124,3286,-721,-411,24,30,43,804
250586,26919988,25184848,26924288,25187584,1961,2231,3369,-1299,3476,-926,-335,-334,30,43,804
251587,26920108,25185064,26924485,25187781,2296,2372,3248,-1431,3634,-908,-433,-290,40,49,803
252588,26920236,25185316,26924682,25187978,2277,2124,3090,-1436,3811,-587,-575,-125,40,49,803
253589,26920400,25185620,26924879,25188175,2068,1752,2911,-1365,4000,-269,-439,-30,37,62,803
254590,26920552,25185908,26925076,25188372,2163,1813,2701,-1179,4166,3,-273,314,37,62,803
255591,26920700,25186144,26925273,25188569,2210,2121,2466,-893,4307,234,-223,435,41,44,802
256592,26920868,25186348,26925470,25188766,2099,2319,2234,-610,4414,345,-136,531,41,44,802
257593,26921004,25186584,26925667,25188963,2327,2102,2026,-345,4443,446,-20,430,31,44,803
258594,26921144,25186884,26925864,25189160,2328,1658,1814,-97,4368,640,34,511,31,44,803
259602,26921332,25187152,26926094,25189390,2047,1841,1569,300,4244,891,139,873,42,45,802
260596,26921504,25187428,26926291,25189587,2159,1757,1305,714,4087,1108,283,883,42,45,802
261597,26921684,25187636,26926488,25189784,2118,2177,1051,1105,3888,1346,803,936,46,58,803
262598,26921884,25187872,26926685,25189981,1992,1985,770,1558,3660,1635,1251,1357,46,58,803
263599,26922072,25188156,26926882,25190178,2072,1648,431,2130,3440,2014,1232,1692,47,45,804
264600,26922276,25188440,26927079,25190375,1969,1610,85,2634,3204,2245,1612,1450,47,45,804
265601,26922468,25188724,26927276,25190572,2047,1573,-220,3008,2934,2532,1974,1161,35,44,804
266602,26922712,25188964,26927473,25190769,1703,1829,-464,3185,2608,2677,2191,564,35,44,804
267603,26922924,25189196,26927670,25190966,1897,1863,-657,3131,2249,2810,2044,97,49,44,805
268604,26923132,25189480,26927867,25191163,1918,1501,-810,2898,1921,3065,1833,-220,49,44,805
269605,26923376,25189748,26928064,25191360,1674,1570,-950,2554,1659,3356,1690,-399,37,54,804
270606,26923612,25190032,26928261,25191557,1708,1432,-1069,2220,1470,3393,1698,-419,37,54,804
271607,26923836,25190332,26928458,25191754,1772,1287,-1148,1945,1316,3162,1811,-281,49,46,807
272608,26924080,25190564,26928655,25191951,1627,1697,-1201,1704,1172,2867,1647,-122,49,46,807
273609,26924304,25190836,26928852,25192148,1740,1414,-1239,1464,1009,2662,1641,-93,37,52,807
274610,26924540,25191136,26929049,25192345,1649,1194,-1287,1254,828,2557,1617,-27,37,52,807
275611,26924796,25191424,26929246,25192542,1499,1230,-1377,1108,653,2330,1479,411,52,47,806
276612,26925004,25191700,26929443,25192739,1795,1270,-1516,1152,494,1761,1387,908,52,47,806
277613,26925240,25191948,26929640,25192936,1604,1423,-1690,1412,355,1174,1137,1408,44,45,809
278614,26925500,25192192,26929837,25193133,1427,1427,-1878,1818,254,800,1042,1695,44,45,809
279615,26925740,25192476,26930034,25193330,1535,1139,-2080,2277,185,702,1051,1797,47,49,807
280616,26925984,25192744,26930231,25193527,1489,1208,-2310,2684,127,607,1104,1683,47,49,807
281617,26926252,25192976,26930428,25193724,1309,1418,-2537,3019,58,305,1128,1668,58,47,808
282618,26926508,25193224,26930625,25193921,1359,1296,-2757,3350,-12,-40,1075,1521,58,47,808
283619,26926736,25193420,26930822,25194118,1521,1621,-2979,3594,-91,-306,1064,1263,57,36,809
284620,26926964,25193616,26931019,25194315,1508,1622,-3230,3834,-162,-438,799,1440,57,36,809
285621,26927244,25193872,26931216,25194512,1147,1221,-3531,4061,-233,-539,599,1388,57,37,809
286622,26927492,25194092,26931413,25194709,1326,1436,-3830,4089,-356,-628,793,798,57,37,809
287623,26927748,25194324,26931610,25194906,1251,1345,-4079,3917,-528,-865,1018,448,43,37,807
288624,26928024,25194536,26931807,25195103,1092,1465,-4328,3719,-709,-1145,770,699,43,37,807
289625,26928264,25194740,26932004,25195300,1298,1512,-4619,3588,-837,-1037,467,1019,51,48,808
290626,26928496,25194924,26932201,25195497,1334,1642,-4930,3433,-914,-861,714,978,51,48,808
291627,26928788,25195144,26932398,25195694,918,1407,-5199,3135,-991,-909,801,447,39,38,808
292628,26929048,25195416,26932595,25195891,1090,1049,-5448,2653,-1097,-1255,467,387,39,38,808
293629,26929312,25195676,26932792,25196088,1037,1097,-5707,2141,-1214,-1382,208,651,43,39,808
294630,26929560,25195900,26932989,25196285,1115,1310,-5954,1630,-1334,-1225,231,785,43,39,808
295631,26929768,25196088,26933186,25196482,1361,1539,-6179,1163,-1438,-1019,171,1120,57,52,811
296632,26930004,25196280,26933383,25196679,1169,1516,-6405,772,-1519,-894,-157,1622,57,52,811
297633,26930332,25196528,26933580,25196876,538,1143,-6676,620,-1557,-884,-767,2806,45,42,810
298634,26930580,25196788,26933777,25197073,1015,1041,-7065,1003,-1483,-908,-1831,4964,45,42,810
299635,26930812,25197068,26933974,25197270,1101,879,-7546,1643,-1398,-995,-2006,5426,42,52,809
300636,26931096,25197260,26934171,25197467,739,1431,-7951,2047,-1405,-960,-1736,4965,42,52,809
301637,26931340,25197472,26934368,25197664,968,1301,-8263,2204,-1467,-796,-1742,4966,48,35,811
302638,26931592,25197688,26934565,25197861,895,1268,-8542,2253,-1629,-682,-1247,5005,48,35,811
303639,26931848,25197928,26934762,25198058,844,1099,-8766,2225,-1840,-594,-1261,4850,42,48,811
304640,26932136,25198216,26934959,25198255,605,759,-8942,2063,-1997,-488,-1667,4924,42,48,811
305641,26932404,25198464,26935156,25198452,699,986,-9052,1850,-2102,-243,-1652,4956,58,35,811
306642,26932712,25198644,26935353,25198649,401,1419,-9079,1562,-2192,-207,-1775,4956,58,35,811
307643,26933052,25198844,26935550,25198846,138,1292,-9023,1217,-2288,-516,-2389,5144,43,44,813
308644,26933292,25198984,26935747,25199043,745,1692,-6771,4150,-2120,-66,-5982,32767,43,44,813
309645,26933568,25199164,26935944,25199240,486,1450,-1457,13600,-1550,692,-9175,32767,53,39,811
310646,26933808,25199376,26936141,25199437,693,1243,1693,17153,-1426,781,-1407,7150,53,39,811
311647,26934008,25199612,26936338,25199634,941,1076,1987,14620,-1656,1081,238,-1110,56,44,808
312648,26934216,25199780,26936535,25199831,888,1514,1335,9877,-1958,2127,-102,-2735,56,44,808
313649,26934504,25199976,26936732,25200028,348,1339,949,6777,-2048,2387,-369,-416,46,30,811
314650,26934744,25200144,26936929,25200225,629,1527,808,4697,-1858,2210,-499,-68,46,30,811
315651,26934976,25200308,26937126,25200422,664,1567,600,3156,-1643,2688,-1448,841,38,33,810
316652,26935288,25200456,26937323,25200619,114,1688,281,1461,-1458,2149,-1712,797,38,33,810
317653,26935504,25200624,26937520,25200816,706,1576,-14,-389,-1391,1398,-2325,1149,45,26,811
318654,26935732,25200800,26937717,25201013,618,1535,-365,-2149,-1550,1026,-2550,1332,45,26,811
319655,26935876,25200984,26937914,25201210,1166,1491,-591,-3989,-1829,90,-1460,1190,34,28,811
320656,26936088,25201180,26938111,25201407,736,1416,-893,-5339,-2086,63,-2034,2804,34,28,811
321657,26936320,25201340,26938308,25201604,595,1658,-1172,-6436,-2247,120,-3519,3307,31,21,811
322658,26936596,25201468,26938505,25201801,286,1888,-1429,-6937,-2238,-108,-4518,5292,31,21,811
323659,26936796,25201604,26938702,25201998,760,1865,-1638,-7080,-2197,77,-4817,5721,39,27,810
324660,26936940,25201740,26938899,25202195,1133,1891,-1867,-7148,-2240,120,-4720,6343,39,27,810
325661,26937120,25201872,26939096,25202392,917,1945,-2142,-6742,-2315,-320,-4329,7890,32,25,810
326662,26937340,25201996,26939293,25202589,657,2027,-2442,-6279,-2392,-537,-3670,7759,32,25,810
327663,26937548,25202160,26939490,25202786,727,1792,-2663,-5746,-2415,-452,-2806,7647,50,39,808
328664,26937756,25202328,26939687,25202983,723,1779,-2738,-5507,-2334,-536,-1912,6569,50,39,808
329665,26938060,25202484,26939884,25203180,76,1873,-2735,-5409,-2247,-676,-1609,6445,44,39,809
330666,26938312,25202656,26940081,25203377,378,1784,-2633,-5326,-2130,-1072,-1283,6009,44,39,809
331667,26938564,25202788,26940278,25203574,354,2063,-2406,-5453,-1937,-1252,-1188,5301,44,30,809
332668,26938828,25202924,26940475,25203771,249,2065,-2111,-5601,-1736,-942,-1204,5032,44,30,809
333669,26938888,25203056,26940672,25203968,1585,2118,-1793,-5849,-1505,-859,-1319,4804,51,23,809
334670,26939100,25203160,26940869,25204165,629,2334,-1453,-5985,-1257,-777,-1660,4991,51,23,809
335671,26939344,25203320,26941066,25204362,408,2001,-1083,-6183,-1019,-771,-1911,4383,38,21,808
336672,26939544,25203468,26941263,25204559,683,2098,-680,-6387,-771,-703,-1881,4611,38,21,808
337673,26939760,25203648,26941460,25204756,575,1905,-317,-6454,-529,-426,-1915,4992,29,21,807
338673,26940024,25203780,26941657,25204953,245,2234,-35,-6320,-285,-335,-2434,5627,29,21,807
339674,26940180,25203920,26941854,25205150,938,2209,203,-5991,9,-321,-2978,5712,29,33,807
340675,26940392,25204052,26942051,25205347,583,2289,467,-5827,304,-131,-3260,4974,29,33,807
341677,26940588,25204172,26942248,25205544,683,2397,751,-5756,553,8,-3249,4838,41,32,808
342687,26940752,25204292,26942478,25205774,912,2446,1009,-5654,775,-42,-3230,5049,41,32,808
343679,26940916,25204420,26942675,25205971,927,2426,1185,-5420,980,76,-3362,5369,31,18,806
344680,26941104,25204544,26942872,25206168,781,2484,1256,-4942,1222,426,-3579,6102,31,18,806
345681,26941260,25204668,26943069,25206365,999,2516,1172,-4034,1445,1098,-2894,7267,39,19,805
346682,26941376,25204808,26943266,25206562,1286,2441,1090,-3163,1583,1659,-2521,6322,39,19,805
347683,26941544,25204996,26943463,25206759,974,2146,1161,-2780,1678,2036,-2563,4833,38,36,806
348684,26941720,25205164,26943660,25206956,933,2284,1321,-2667,1712,2407,-2374,4514,38,36,806
349685,26941920,25205320,26943857,25207153,783,2377,1466,-2512,1682,2691,-2296,4466,20,27,804
350686,26942048,25205488,26944054,25207350,1263,2316,1606,-2276,1658,2833,-2151,4337,20,27,804
351687,26942140,25205664,26944251,25207547,1535,2275,1777,-2088,1603,2830,-1616,4120,33,27,806
352687,26942296,25205848,26944448,25207744,1153,2231,1936,-1879,1476,2864,-897,4162,33,27,806
353689,26942480,25206056,26944645,25207941,984,2077,2053,-1499,1346,2885,-375,4456,28,41,805
354689,26942696,25206240,26944842,25208138,777,2233,2144,-1136,1228,3004,75,4085,28,41,805
355691,26942868,25206452,26945039,25208335,1063,2051,2244,-996,1103,3231,505,3538,22,35,805
356691,26943016,25206660,26945236,25208532,1235,2072,2362,-864,981,3307,539,3395,22,35,805
357693,26943200,25206864,26945433,25208729,1016,2094,2456,-707,875,3395,398,3321,28,36,805
358694,26943352,25207112,26945630,25208926,1237,1798,2503,-519,783,3400,265,3281,28,36,805
359695,26943480,25207312,26945827,25209123,1417,2096,2503,-267,706,3407,121,3514,37,51,807
360696,26943684,25207524,26946024,25209320,939,2015,2472,87,632,3484,-78,3522,37,51,807
361697,26943808,25207740,26946221,25209517,1472,1982,2413,484,568,3533,-375,3546,41,50,807
362698,26943960,25207968,26946418,25209714,1317,1894,2333,923,526,3239,-723,3585,41,50,807
363699,26944136,25208204,26946615,25209911,1177,1827,2227,1346,521,2878,-1153,3448,40,49,808
364700,26944284,25208452,26946812,25210108,1373,1730,2081,1738,545,2632,-1583,3356,40,49,808
365701,26944420,25208672,26947009,25210305,1476,1895,1894,2139,592,2447,-1678,3349,28,39,807
366702,26944536,25208916,26947206,25210502,1637,1724,1664,2535,630,2284,-1599,3144,28,39,807
367703,26944676,25209156,26947403,25210699,1513,1732,1407,2886,655,2127,-1594,2884,13,46,806
368704,26944804,25209356,26947600,25210896,1618,1980,1136,3113,660,1960,-1492,2564,13,46,806
369705,26944924,25209620,26947797,25211093,1703,1551,874,3224,654,1923,-1414,2151,32,50,806
370706,26945084,25209832,26947994,25211290,1469,1869,658,3176,660,1931,-1231,1487,32,50,806
371707,26945204,25210024,26948191,25211487,1754,1997,506,2933,683,1857,-980,975,18,45,805
372707,26945320,25210216,26948388,25211684,1815,2000,388,2577,728,1729,-923,664,18,45,805
373709,26945484,25210396,26948585,25211881,1530,2082,288,2194,778,1706,-1074,584,35,36,806
374710,26945596,25210596,26948782,25212078,1894,1956,208,1885,837,1690,-1400,800,35,36,806
375711,26945716,25210836,26948979,25212275,1877,1688,157,1620,879,1421,-923,773,24,41,804
376712,26945892,25211044,26949176,25212472,1538,1883,119,1294,894,1283,-685,652,24,41,804
377713,26946008,25211240,26949373,25212669,1948,1958,56,1003,886,1200,-670,887,23,35,803
378714,26946144,25211416,26949570,25212866,1851,2094,-1,784,893,997,-809,1023,23,35,803
379715,26946300,25211636,26949767,25213063,1745,1809,-76,621,910,685,-657,1147,17,38,805
380716,26946412,25211872,26949964,25213260,2057,1691,-166,453,969,395,-920,1275,17,38,805
381717,26946568,25212112,26950161,25213457,1801,1648,-277,344,1080,233,-1101,1558,23,43,804
382718,26946708,25212324,26950358,25213654,1928,1817,-392,327,1217,131,-1143,1802,23,43,804
383719,26946876,25212528,26950555,25213851,1765,1864,-476,341,1368,-63,-1041,1996,21,44,804
384720,26947020,25212724,26950752,25214048,1940,1914,-521,397,1521,-183,-951,2196,21,44,804
385721,26947160,25212960,26950949,25214245,1991,1647,-542,490,1678,-198,-846,2272,39,53,805
386722,26947344,25213196,26951146,25214442,1722,1631,-554,592,1861,-199,-853,2409,39,53,805
387723,26947460,25213416,26951343,25214639,2183,1721,-556,634,2071,-256,-848,2316,18,40,804
388723,26947600,25213640,26951540,25214836,2059,1684,-544,578,2277,-261,-791,2167,18,40,804
389725,26947788,25213832,26951737,25215033,1764,1886,-530,510,2472,-239,-694,2243,18,49,805
390726,26947944,25214036,26951934,25215230,1983,1809,-514,410,2641,-221,-525,2230,18,49,805
391727,26948080,25214228,26952131,25215427,2135,1886,-505,305,2803,-212,-480,2252,35,51,804
392728,26948252,25214480,26952328,25215624,1922,1487,-502,227,2975,-201,-380,2422,35,51,804
393729,26948412,25214744,26952525,25215821,2014,1383,-504,159,3149,-117,-254,2591,24,49,804
394730,26948584,25214992,26952722,25216018,1951,1460,-505,106,3314,-62,-120,2645,24,49,804
395731,26948756,25215232,26952919,25216215,1962,1492,-512,48,3468,-97,-76,2764,41,50,806
396732,26948924,25215452,26953116,25216412,2001,1607,-528,9,3614,-91,-23,2873,41,50,806
397733,26949088,25215744,26953313,25216609,2041,1116,-547,-10,3744,-80,133,3085,43,45,806
398734,26949256,25216012,26953510,25216806,2030,1234,-568,56,3851,-90,346,3260,43,45,806
399735,26949428,25216284,26953707,25217003,2017,1176,-583,90,3928,-164,419,3348,25,44,804
400736,26949604,25216568,26953904,25217200,2001,1063,-608,190,3983,-221,431,3665,25,44,804
401737,26949776,25216872,26954101,25217397,2038,892,-635,273,3991,-340,623,3644,46,56,805
402738,26949964,25217088,26954298,25217594,1943,1434,-663,376,3942,-437,793,3780,46,56,805
403739,26950160,25217308,26954495,25217791,1895,1399,-712,491,3862,-503,634,3924,27,38,807
404739,26950316,25217508,26954692,25217988,2164,1522,-764,595,3778,-533,403,3984,27,38,807
405741,26950492,25217724,26954889,25218185,2049,1414,-815,751,3696,-552,360,4154,29,48,806
406742,26950656,25217988,26955086,25218382,2138,1085,-829,850,3579,-506,827,3893,29,48,806
407743,26950808,25218256,26955283,25218579,2234,1028,-839,888,3462,-400,1050,4134,29,54,805
408744,26950968,25218604,26955480,25218776,2201,462,-840,1005,3387,-312,1277,4463,29,54,805
409745,26951140,25218920,26955677,25218973,2138,610,-849,1226,3359,-183,1125,4887,24,55,806
410746,26951244,25219184,26955874,25219170,2605,905,-833,1494,3365,-139,1014,5002,24,55,806
411747,26951416,25219444,26956071,25219367,2192,903,-791,1675,3364,-240,940,4968,40,66,807
412748,26951616,25219708,26956268,25219564,2017,848,167,3277,3409,-298,564,18670,40,66,807
413749,26951800,25219924,26956465,25219761,2123,1140,1955,6383,3503,-554,562,26305,42,46,805
414750,26951992,25220032,26956662,25219958,2076,1854,2951,7359,3460,-488,1230,4232,42,46,805
415751,26952156,25220348,26956859,25220155,2266,502,2943,6381,3299,-410,1589,1867,48,66,808
416752,26952336,25220628,26957056,25220352,2175,690,2628,4865,3093,-149,1559,1324,48,66,808
417753,26952508,25220876,26957253,25220549,2237,868,2353,3853,2985,-76,1091,1901,30,64,804
418754,26952672,25221160,26957450,25220746,2302,605,2092,3240,2988,-296,588,2297,30,64,804
419755,26952824,25221480,26957647,25220943,2398,326,1777,2822,2935,-510,992,2540,47,53,807
420756,26952992,25221776,26957844,25221140,2312,432,1495,2231,2714,-1131,1923,2100,47,53,807
421757,26953172,25222024,26958041,25221337,2245,710,1228,1609,2315,-1577,2246,2247,27,50,806
422758,26953332,25222244,26958238,25221534,2387,874,869,1070,1773,-1849,2470,2786,27,50,806
423759,26953476,25222460,26958435,25221731,2512,890,373,928,1174,-2264,2302,4206,44,40,806
424760,26953628,25222728,26958632,25221928,2483,534,-235,1171,621,-2108,1972,4998,44,40,806
425768,26953764,25222972,26958862,25222158,2624,678,-843,1403,147,-1829,2315,4688,20,39,805
426762,26953936,25223192,26959059,25222355,2411,818,-1452,1647,-225,-1630,2267,5022,20,39,805
427763,26954104,25223380,26959256,25222552,2450,1022,-2033,1780,-515,-1326,2043,4541,35,43,806
428763,26954280,25223540,26959453,25222749,2410,1213,-2530,1703,-750,-1108,1686,3960,35,43,806
429765,26954468,25223652,26959650,25222946,2340,1549,-2927,1513,-918,-1146,1195,3584,42,42,806
430766,26954628,25223804,26959847,25223143,2532,1319,-3273,1192,-1011,-928,150,3509,42,42,806
431767,26954800,25223960,26960044,25223340,2469,1312,-3623,1103,-977,-669,-1065,4243,34,36,805
432768,26954984,25224144,26960241,25223537,2401,1143,-3924,1007,-865,-697,-1986,4064,34,36,805
433769,26955168,25224268,26960438,25223734,2407,1550,-4145,879,-798,-609,-2125,4114,28,22,802
434770,26955344,25224388,26960635,25223931,2468,1609,-3721,1496,-771,-59,-1370,11420,28,22,802
435771,26955536,25224560,26960832,25224128,2371,1295,-1973,4647,-778,834,-1097,31668,37,21,805
436771,26955736,25224692,26961029,25224325,2321,1573,-614,6456,-834,150,-315,9359,37,21,805
437773,26955916,25224860,26961226,25224522,2454,1361,-468,5825,-960,35,1354,1976,33,23,803
438774,26956120,25224996,26961423,25224719,2302,1588,-841,4186,-1066,514,1062,1357,33,23,803
439775,26956336,25225140,26961620,25224916,2220,1560,-1104,2777,-1129,566,624,1492,49,41,804
440776,26956528,25225260,26961817,25225113,2373,1744,-1191,1799,-1213,139,1395,1703,49,41,804
441777,26956736,25225444,26962014,25225310,2269,1350,-1237,991,-1373,0,1015,2037,50,41,804
442778,26956912,25225588,26962211,25225507,2479,1623,-1241,324,-1507,-317,-920,2718,50,41,804
443779,26957120,25225748,26962408,25225704,2275,1539,-862,183,-1509,-1091,-2847,7435,45,31,802
444780,26957308,25225840,26962605,25225901,2405,2010,383,1853,-1335,-2131,-4296,21176,45,31,802
445781,26957504,25225904,26962802,25226098,2357,2244,1491,3041,-1289,-1682,-2242,10072,50,19,802
446782,26957708,25225944,26962999,25226295,2305,2463,1729,2801,-1482,-1346,-452,3435,50,19,802
447783,26957904,25226072,26963196,25226492,2356,1943,1461,1737,-1755,-1119,-210,2784,38,26,801
448784,26958116,25226140,26963393,25226689,2250,2376,1170,892,-1931,-1107,570,3255,38,26,801
449785,26958344,25226224,26963590,25226886,2138,2325,973,447,-1973,-1251,1427,3505,34,9,798
450785,26958544,25226268,26963787,25227083,2313,2643,800,80,-1978,-1146,1439,3481,34,9,798
451787,26958752,25226320,26963984,25227280,2259,2656,619,-196,-1980,-1266,1632,3795,35,11,800
452787,26958956,25226424,26964181,25227477,2282,2372,475,-573,-1988,-1551,1580,3570,35,11,800
453789,26959184,25226548,26964378,25227674,2119,2279,348,-869,-1997,-1634,304,4009,47,15,798
454790,26959384,25226680,26964575,25227871,2294,2259,271,-1094,-1928,-1728,-291,4207,47,15,798
455791,26959608,25226824,26964772,25228068,2133,2207,235,-1212,-1802,-1558,-551,4532,34,22,799
456792,26959844,25226924,26964969,25228265,2042,2525,199,-1258,-1678,-1352,191,4685,34,22,799
457793,26960052,25227032,26965166,25228462,2213,2514,162,-1294,-1540,-1264,972,4699,58,36,800
458794,26960260,25227160,26965363,25228659,2209,2420,109,-1325,-1398,-939,1123,4769,58,36,800
459795,26960520,25227284,26965560,25228856,1857,2477,58,-1391,-1256,-766,1326,4549,38,25,801
460796,26960740,25227416,26965757,25229053,2098,2456,13,-1437,-1110,-736,1552,4637,38,25,801
461797,26960964,25227556,26965954,25229250,2062,2431,-40,-1550,-995,-596,1705,4262,55,25,801
462798,26961220,25227640,26966151,25229447,1837,2832,-91,-1753,-909,-458,1590,4139,55,25,801
463799,26961468,25227712,26966348,25229644,1866,2962,-136,-1862,-830,-281,733,4418,58,30,800
464800,26961712,25227800,26966545,25229841,1871,2909,-149,-1919,-765,-228,-121,4581,58,30,800
465801,26961956,25227912,26966742,25230038,1852,2798,-147,-1844,-739,-289,-428,4946,62,18,798
466802,26962220,25228056,26966939,25230235,1698,2621,-139,-1728,-753,-125,-200,4858,62,18,798
467803,26962460,25228200,26967136,25230432,1830,2645,-130,-1698,-809,92,50,4665,59,24,798
468804,26962708,25228308,26967333,25230629,1759,2909,-99,-1701,-896,158,56,4570,59,24,798
469805,26962980,25228416,26967530,25230826,1577,2950,-48,-1774,-1012,128,96,4311,57,19,801
470806,26963256,25228540,26967727,25231023,1517,2882,-5,-1894,-1169,112,7,4232,57,19,801
471807,26963524,25228664,26967924,25231220,1537,2914,46,-1980,-1326,87,-164,4180,41,26,799
472808,26963780,25228788,26968121,25231417,1587,2947,96,-2073,-1471,114,-70,4134,41,26,799
473809,26964060,25228960,26968318,25231614,1402,2658,157,-2168,-1645,23,103,4049,54,22,801
474810,26964336,25229124,26968515,25231811,1393,2723,230,-2315,-1824,59,87,3823,54,22,801
475810,26964584,25229268,26968712,25232008,1547,2872,337,-2501,-1979,143,95,3585,44,35,800
476812,26964876,25229424,26968909,25232205,1230,2816,462,-2763,-2096,226,283,3409,44,35,800
477813,26965144,25229612,26969106,25232402,1350,2620,594,-3037,-2158,392,353,3361,56,34,801
478813,26965436,25229764,26969303,25232599,1159,2865,715,-3271,-2151,606,188,3358,56,34,801
479815,26965712,25229956,26969500,25232796,1225,2619,817,-3440,-2064,630,71,3475,49,30,802
480816,26965972,25230160,26969697,25232993,1297,2540,914,-3531,-1945,577,189,3477,49,30,802
481817,26966276,25230284,26969894,25233190,976,3074,1034,-3646,-1827,469,311,3347,40,39,802
482817,26966536,25230380,26970091,25233387,1225,3293,1184,-3712,-1720,359,354,3413,40,39,802
483818,26966804,25230520,26970288,25233584,1144,3044,1343,-3706,-1624,263,440,3573,45,39,803
484819,26967088,25230672,26970485,25233781,1006,2989,1465,-3570,-1536,111,193,3928,45,39,803
485821,26967364,25230864,26970682,25233978,1023,2742,1523,-3312,-1446,-83,-252,4427,53,32,799
486822,26967640,25230996,26970879,25234175,988,3147,1513,-2806,-1366,-262,-713,4851,53,32,799
487822,26967900,25231164,26971076,25234372,1061,2934,1480,-2267,-1320,-574,-916,4684,53,33,799
488824,26968128,25231320,26971273,25234569,1249,3028,1477,-1842,-1312,-901,-1115,4294,53,33,799
489825,26968416,25231476,26971470,25234766,834,3046,1489,-1447,-1295,-1076,-1465,4210,47,32,800
490826,26968692,25231628,26971667,25234963,875,3092,1516,-1038,-1231,-1139,-1869,4110,47,32,800
491827,26968928,25231808,26971864,25235160,1108,2926,1537,-680,-1121,-1105,-2040,3897,41,28,801
492828,26969152,25231968,26972061,25235357,1172,3067,1579,-473,-1024,-1049,-1821,3319,41,28,801
493829,26969412,25232144,26972258,25235554,919,2977,1627,-409,-967,-880,-1459,2758,41,29,802
494830,26969648,25232316,26972455,25235751,1053,3014,1655,-502,-940,-696,-1282,2219,41,29,802
495831,26969856,25232480,26972652,25235948,1224,3079,1659,-759,-912,-564,-1127,1612,57,29,801
496832,26970080,25232664,26972849,25236145,1112,2960,1648,-1191,-879,-399,-935,1144,57,29,801
497833,26970320,25232824,26973046,25236342,994,3127,1616,-1665,-845,-382,-858,961,38,44,800
498834,26970552,25232988,26973243,25236539,1029,3117,1551,-2136,-812,-435,-624,924,38,44,800
499835,26970800,25233164,26973440,25236736,908,3052,1447,-2581,-783,-469,-283,789,45,31,801
500836,26971052,25233352,26973637,25236933,858,2982,1321,-3038,-756,-424,-248,771,45,31,801
501837,26971272,25233564,26973834,25237130,1049,2826,1152,-3445,-731,-403,-358,902,55,49,801
502838,26971528,25233792,26974031,25237327,798,2713,961,-3818,-715,-400,-427,1011,55,49,801
503839,26971756,25233988,26974228,25237524,961,2914,741,-4111,-698,-383,-480,1166,46,36,801
504840,26972004,25234192,26974425,25237721,813,2861,498,-4364,-662,-365,-542,1349,46,36,801
505841,26972276,25234416,26974622,25237918,630,2725,235,-4537,-603,-356,-678,1622,49,37,803
506842,26972528,25234644,26974819,25238115,732,2688,-27,-4627,-538,-346,-783,1700,49,37,803
507843,26972780,25234880,26975016,25238312,708,2621,-279,-4711,-459,-330,-674,1731,62,40,803
508851,26973000,25235120,26975246,25238542,914,2592,-529,-4765,-358,-195,-636,1857,62,40,803
509845,26973288,25235368,26975443,25238739,449,2521,-773,-4825,-237,-71,-787,1925,41,53,804
510846,26973516,25235568,26975640,25238936,811,2820,-1006,-4837,-99,22,-752,2080,41,53,804
511847,26973756,25235780,26975837,25239133,717,2739,-1219,-4901,38,147,-544,1915,43,48,804
512848,26974016,25236044,26976034,25239330,564,2385,-1408,-5023,186,432,-836,1868,43,48,804
513849,26974232,25236316,26976231,25239527,832,2303,-1587,-5145,359,609,-831,1873,42,48,804
514850,26974436,25236592,26976428,25239724,904,2244,-1765,-5263,548,801,-765,1931,42,48,804
515851,26974652,25236852,26976625,25239921,822,2316,-1931,-5368,751,888,-625,2024,33,61,806
516851,26974852,25237124,26976822,25240118,920,2209,-2070,-5502,974,886,-532,2127,33,61,806
517853,26975056,25237384,26977019,25240315,892,2257,-2197,-5595,1202,1063,-498,2245,47,49,807
518854,26975220,25237676,26977216,25240512,1158,2016,-2306,-5641,1442,1219,-451,2363,47,49,807
519855,26975432,25237896,26977413,25240709,851,2457,-2418,-5687,1680,1366,-340,2493,28,59,806
520856,26975588,25238172,26977610,25240906,1219,2072,-2514,-5770,1887,1606,-249,2388,28,59,806
521857,26975748,25238432,26977807,25241103,1211,2145,-2593,-5859,2067,1787,-261,2623,26,53,805
522858,26975948,25238688,26978004,25241300,960,2144,-2666,-5842,2209,2008,-287,2961,26,53,805
523859,26976100,25238916,26978201,25241497,1281,2307,-2740,-5807,2313,2268,-436,3100,42,57,806
524860,26976268,25239172,26978398,25241694,1194,2106,-2807,-5628,2395,2467,-389,3513,42,57,806
525861,26976476,25239412,26978595,25241891,939,2188,-2860,-5442,2451,2528,-310,3663,28,57,807
526862,26976636,25239640,26978792,25242088,1256,2249,-2909,-5223,2477,2661,-412,3970,28,57,807
527863,26976796,25239892,26978989,25242285,1272,2076,-2933,-4965,2494,2781,-247,4227,46,52,806
528864,26976980,25240108,26979186,25242482,1129,2293,-2946,-4669,2494,2962,-34,4492,46,52,806
529865,26977148,25240356,26979383,25242679,1242,2070,-2971,-4298,2481,3199,83,4769,20,38,805
530866,26977260,25240560,26979580,25242876,1629,2343,-3002,-3862,2447,3214,320,5099,20,38,805
531867,26977432,25240812,26979777,25243073,1266,2019,-3028,-3387,2390,3245,306,5264,28,51,804
532868,26977584,25240988,26979974,25243270,1411,2504,-3037,-2959,2314,3319,186,5257,28,51,804
533869,26977716,25241196,26980171,25243467,1565,2299,-3042,-2544,2224,3397,349,5403,40,50,803
534870,26977884,25241372,26980368,25243664,1353,2510,-3027,-2152,2112,3456,364,5321,40,50,803
535871,26978036,25241576,26980565,25243861,1474,2332,-2980,-1838,2003,3447,188,5203,19,43,803
536872,26978168,25241744,26980762,25244058,1627,2569,-2471,-935,1919,3766,-217,10491,19,43,803
537873,26978328,25241916,26980959,25244255,1470,2556,-638,2928,1886,4658,-1432,32767,20,23,803
538874,26978492,25242076,26981156,25244452,1459,2648,935,5465,1782,3597,-46,11106,20,23,803
539875,26978644,25242220,26981353,25244649,1555,2772,1289,5264,1593,3151,661,2403,32,20,802
540876,26978776,25242348,26981550,25244846,1709,2902,1077,3764,1415,3131,86,1478,32,20,802
541877,26978976,25242500,26981747,25245043,1283,2773,872,2615,1315,2941,-850,2012,41,34,802
542878,26979148,25242676,26981944,25245240,1469,2632,805,1916,1300,2184,-1196,2026,41,34,802
543879,26979276,25242848,26982141,25245437,1776,2669,744,1436,1258,1827,-1339,2401,44,27,797
544880,26979464,25243020,26982338,25245634,1404,2680,634,986,1157,1343,-1133,2531,44,27,797
545881,26979628,25243184,26982535,25245831,1570,2746,489,453,1042,757,-891,2598,32,33,801
546882,26979776,25243356,26982732,25246028,1693,2707,331,53,895,527,-800,2992,32,33,801
547883,26979980,25243512,26982929,25246225,1339,2826,154,-275,761,73,-699,3260,23,41,802
548884,26980164,25243656,26983126,25246422,1471,2924,-36,-307,656,-342,-590,4172,23,41,802
549885,26980300,25243848,26983323,25246619,1798,2627,-224,-273,547,-642,-486,4073,43,28,801
550886,26980512,25244020,26983520,25246816,1317,2763,-388,-220,452,-1011,-411,4487,43,28,801
551887,26980668,25244208,26983717,25247013,1685,2668,-520,-44,395,-1225,-386,4760,34,34,800
552888,26980840,25244380,26983914,25247210,1597,2779,-607,64,362,-1348,-494,4551,34,34,800
553889,26981020,25244556,26984111,25247407,1556,2764,-642,235,388,-1550,-889,4930,37,41,800
554890,26981204,25244756,26984308,25247604,1537,2613,-637,346,476,-1664,-1209,4735,37,41,800
555891,26981372,25244928,26984505,25247801,1650,2800,-631,528,590,-1591,-1282,5005,30,32,799
556892,26981536,25245108,26984702,25247998,1690,2759,-631,681,742,-1548,-1079,4912,30,32,799
557893,26981716,25245304,26984899,25248195,1598,2659,-606,745,896,-1380,-850,4625,43,31,802
558894,26981868,25245508,26985096,25248392,1793,2607,-557,681,1040,-1032,-636,4312,43,31,802
559895,26982004,25245684,26985293,25248589,1921,2791,-457,494,1203,-729,-427,4015,21,32,801
560896,26982224,25245888,26985490,25248786,1387,2614,-348,293,1379,-407,-313,3930,21,32,801
561897,26982364,25246072,26985687,25248983,1912,2745,-218,33,1567,-428,-368,3725,24,40,801
562898,26982516,25246284,26985884,25249180,1858,2564,-90,-194,1771,-489,-621,3927,24,40,801
563899,26982696,25246468,26986081,25249377,1691,2745,64,-535,1945,-294,-670,3446,23,32,803
564900,26982856,25246632,26986278,25249574,1832,2885,218,-909,2101,-168,-845,3528,23,32,803
565901,26982992,25246840,26986475,25249771,2010,2606,366,-1219,2242,-121,-1048,3663,41,40,800
566902,26983160,25247092,26986672,25249968,1824,2307,499,-1579,2348,5,-1218,3513,41,40,800
567903,26983316,25247320,26986869,25250165,1917,2445,617,-1825,2432,199,-1283,4006,32,54,798
568904,26983432,25247552,26987066,25250362,2203,2404,719,-1958,2535,414,-1330,4178,32,54,798
569905,26983568,25247720,26987263,25250559,2106,2818,811,-2047,2610,579,-1194,4312,20,40,802
570906,26983732,25247952,26987460,25250756,1946,2403,921,-2147,2648,481,-970,4429,20,40,802
571907,26983888,25248176,26987657,25250953,2015,2442,1022,-2185,2674,497,-1126,4659,37,39,800
572908,26984032,25248404,26987854,25251150,2114,2403,1113,-2153,2686,594,-1066,4633,37,39,800
573909,26984208,25248620,26988051,25251347,1923,2471,1221,-2168,2694,722,-657,4515,41,42,801
574910,26984328,25248836,26988248,25251544,2308,2463,1331,-2171,2684,862,-351,4603,41,42,801
575911,26984472,25249004,26988445,25251741,2182,2776,1434,-2203,2665,1005,-123,4484,32,35,799
576912,26984644,25249208,26988642,25251938,2019,2548,1526,-2162,2607,1127,380,4689,32,35,799
577913,26984796,25249416,26988839,25252135,2164,2519,1559,-2077,2537,1264,597,4906,44,36,798
578914,26984920,25249628,26989036,25252332,2372,2488,1533,-1887,2515,1329,216,5175,44,36,798
579915,26985080,25249864,26989233,25252529,2165,2322,1483,-1600,2516,1199,325,5218,43,39,800
580916,26985236,25250040,26989430,25252726,2209,2706,1426,-1323,2507,1038,322,5267,43,39,800
581917,26985360,25250204,26989627,25252923,2442,2796,1363,-1037,2485,986,342,5322,25,33,799
582918,26985472,25250364,26989824,25253120,2554,2838,1302,-799,2462,897,268,5116,25,33,799
583919,26985632,25250532,26990021,25253317,2271,2801,1227,-535,2433,820,-69,5120,27,45,796
584920,26985752,25250708,26990218,25253514,2556,2761,1162,-400,2404,837,-61,4742,27,45,796
585921,26985860,25250988,26990415,25253711,2671,2075,1112,-329,2383,849,172,4443,39,51,796
586922,26986036,25251232,26990612,25253908,2256,2280,1071,-329,2354,765,426,4119,39,51,796
587923,26986184,25251440,26990809,25254105,2454,2501,1027,-356,2305,508,752,4030,41,40,796
588924,26986324,25251644,26991006,25254302,2530,2524,984,-368,2265,242,863,4033,41,40,796
589925,26986480,25251820,26991203,25254499,2448,2708,943,-354,2233,-160,711,3969,31,42,800
590926,26986624,25252068,26991400,25254696,2547,2236,905,-334,2185,-467,585,3868,31,42,800
591934,26986764,25252360,26991630,25254926,2613,1934,890,-341,2133,-773,497,3679,24,50,797
592928,26986896,25252624,26991827,25255123,2692,2081,887,-353,2086,-1049,398,3728,24,50,797
593929,26987076,25252856,26992024,25255320,2401,2265,898,-384,2066,-1177,135,3489,44,46,799
594930,26987192,25253088,26992221,25255517,2838,2251,935,-463,2107,-1144,-142,3370,44,46,799
595931,26987348,25253288,26992418,25255714,2607,2450,987,-597,2193,-1088,-160,3239,27,42,799
596932,26987532,25253616,26992615,25255911,2438,1592,1041,-767,2302,-938,-251,3125,27,42,799
597933,26987704,25253916,26992812,25256108,2525,1723,1079,-870,2450,-716,-546,3234,47,51,797
598934,26987880,25254208,26993009,25256305,2510,1731,1107,-931,2624,-651,-560,3321,47,51,797
599935,26988060,25254448,26993206,25256502,2494,2038,1120,-870,2791,-724,-485,3699,45,59,801
600936,26988236,25254664,26993403,25256699,2529,2180,1144,-824,2930,-773,-410,3596,45,59,801
601937,26988424,25254924,26993600,25256896,2459,1877,1170,-772,3026,-519,-151,3695,50,57,802
602938,26988604,25255248,26993797,25257093,2518,1422,1194,-679,3073,-21,301,3622,50,57,802
603939,26988816,25255504,26993994,25257290,2312,1821,1218,-653,3093,464,595,3431,52,56,800
604940,26989060,25255780,26994191,25257487,2092,1663,1232,-523,3114,740,711,3694,52,56,800
605941,26989256,25256020,26994388,25257684,2394,1869,1212,-322,3136,578,487,3962,50,50,802
606942,26989484,25256256,26994585,25257881,2181,1877,1167,46,3131,499,401,4366,50,50,802
607943,26989728,25256552,26994782,25258078,2061,1458,1153,333,3071,579,676,3916,56,61,804
608944,26989940,25256844,26994979,25258275,2256,1442,1176,541,2970,999,1009,3820,56,61,804
609945,26990188,25257116,26995176,25258472,2009,1534,1208,700,2833,1395,1616,3590,59,55,802
610945,26990448,25257384,26995373,25258669,1908,1528,1244,823,2629,1523,2201,3267,59,55,802
611947,26990720,25257628,26995570,25258866,1801,1659,1273,949,2386,1308,2285,3329,44,47,804
612948,26990976,25257904,26995767,25259063,1875,1424,1297,1167,2196,1118,2109,3513,44,47,804
613949,26991236,25258228,26995964,25259260,1823,1068,1296,1433,2072,1244,1717,3530,45,62,806
614950,26991496,25258492,26996161,25259457,1797,1414,1295,1637,1970,1555,1465,3138,45,62,806
615951,26991760,25258736,26996358,25259654,1743,1518,1284,1743,1826,1909,1629,2830,46,45,806
616952,26992048,25258996,26996555,25259851,1554,1391,1247,1793,1655,1972,1520,2706,46,45,806
617953,26992312,25259248,26996752,25260048,1676,1417,1164,2002,1531,1656,1120,3143,47,59,806
618954,26992560,25259564,26996949,25260245,1754,965,1044,2319,1455,1214,883,3251,47,59,806
619955,26992864,25259836,26997146,25260442,1358,1207,922,2648,1375,1114,1343,3109,65,48,807
620956,26993172,25260080,26997343,25260639,1284,1361,823,2863,1245,1240,1715,2640,65,48,807
621957,26993464,25260300,26997540,25260836,1344,1501,696,3045,1026,1143,1406,2623,57,45,807
622958,26993732,25260528,26997737,25261033,1464,1437,524,3281,822,853,715,2779,57,45,807
623959,26994024,25260832,26997934,25261230,1273,915,369,3458,706,684,522,2434,48,46,809
624960,26994332,25261124,26998131,25261427,1125,949,239,3534,638,494,650,2022,48,46,809
625961,26994616,25261380,26998328,25261624,1237,1149,118,3501,534,-54,661,1616,53,49,808
626962,26994916,25261592,26998525,25261821,1092,1417,-13,3426,345,-681,378,1417,53,49,808
627963,26995212,25261804,26998722,25262018,1075,1411,-222,3414,143,-1329,-50,1711,67,53,811
628964,26995456,25262076,26998919,25262215,1379,1003,-487,3544,14,-1592,-240,2269,67,53,811
629965,26995772,25262376,26999116,25262412,878,782,-814,3859,-70,-1433,-140,2547,50,43,809
630966,26996048,25262652,26999313,25262609,1094,898,-1153,4169,-137,-1514,-69,2299,50,43,809
631967,26996296,25262892,26999510,25262806,1247,1104,-1519,4442,-218,-1657,-2,2300,61,45,808
632968,26996596,25263112,26999707,25263003,878,1219,-1888,4605,-326,-1712,153,2033,61,45,808
633969,26996856,25263384,26999904,25263200,1100,861,-2278,4751,-453,-1662,295,2056,54,42,811
634970,26997132,25263640,27000101,25263397,966,935,-2665,4809,-626,-1695,338,1760,54,42,811
635971,26997388,25263860,27000298,25263594,1066,1150,-3075,4698,-829,-1759,360,1567,44,52,811
636972,26997700,25264096,27000495,25263791,666,1032,-3534,4621,-1041,-1615,482,1861,44,52,811
637973,26998032,25264296,27000692,25263988,482,1255,-4042,4505,-1248,-1395,416,1704,55,50,811
638974,26998252,25264432,27000889,25264185,1172,1682,-4510,4240,-1509,-1450,370,1237,55,50,811
639975,26998588,25264588,27001086,25264382,387,1575,-4882,3620,-1815,-1493,-80,424,54,31,812
640976,26998804,25264812,27001283,25264579,1129,1138,-5215,2818,-2079,-1174,-870,430,54,31,812
641977,26999116,25265040,27001480,25264776,479,1099,-5521,2058,-2270,-1014,-1185,696,66,40,807
642978,26999452,25265228,27001677,25264973,268,1353,-5788,1348,-2413,-938,-1369,859,66,40,807
643979,26999716,25265412,27001874,25265170,689,1384,-6006,686,-2508,-783,-1701,1262,49,43,809
644980,26999940,25265576,27002071,25265367,928,1524,-6200,159,-2533,-607,-2170,1965,49,43,809
645981,27000200,25265760,27002268,25265564,675,1404,-6341,-263,-2550,-693,-2014,2320,38,43,811
646982,27000416,25265928,27002465,25265761,943,1517,-6352,-825,-2632,-936,-1689,1832,38,43,811
647983,27000688,25266092,27002662,25265958,560,1557,-6264,-1540,-2784,-925,-1191,1898,41,37,809
648984,27000940,25266260,27002859,25266155,661,1544,-6145,-2238,-2955,-552,-725,2213,41,37,809
649985,27001156,25266444,27003056,25266352,878,1450,-6007,-2956,-3090,-207,-485,2198,63,41,809
650986,27001408,25266616,27003253,25266549,629,1536,-5825,-3669,-3149,-164,-536,2144,63,41,809
651986,27001708,25266788,27003450,25266746,285,1547,-5641,-4471,-3132,-239,-905,2242,59,25,809
652988,27001972,25266916,27003647,25266943,481,1852,-5488,-5111,-3067,-184,-1372,2888,59,25,809
653989,27002180,25267052,27003844,25267140,826,1829,-5379,-5679,-3006,-354,-1672,3323,56,29,808
654990,27002388,25267200,27004041,25267337,821,1776,-5268,-6101,-2964,-321,-1660,3939,56,29,808
655991,27002576,25267320,27004238,25267534,951,1985,-5156,-6402,-2859,-63,-1674,4475,49,24,809
656992,27002788,25267444,27004435,25267731,794,1992,-5024,-6691,-2660,255,-1968,4586,49,24,809
657993,27003036,25267616,27004632,25267928,547,1703,-4853,-6870,-2389,551,-2539,4775,29,22,808
658994,27003260,25267796,27004829,25268125,686,1660,-4672,-7148,-2100,865,-2916,4746,29,22,808
659995,27003508,25267964,27005026,25268322,514,1748,-4511,-7411,-1898,1458,-2707,5099,47,35,807
660996,27003660,25268136,27005223,25268519,1133,1734,-4386,-7627,-1786,1957,-2644,5291,47,35,807
661997,27003888,25268288,27005420,25268716,646,1879,-4295,-7689,-1660,2276,-2689,5741,28,35,809
662998,27004032,25268432,27005617,25268913,1194,1952,-3078,-5781,-1521,5206,-3464,22940,28,35,809
663999,27004216,25268580,27005814,25269110,950,1948,-107,-48,-1582,8779,-4381,32767,33,37,807
665000,27004420,25268684,27006011,25269307,822,2265,1643,2423,-1585,4054,-1885,7937,33,37,807
666001,27004676,25268820,27006208,25269504,472,2092,1585,1750,-1356,3852,-1637,4076,32,21,806
667002,27004956,25268968,27006405,25269701,285,2039,765,129,-958,4587,-2203,3788,32,21,806
668003,27005200,25269120,27006602,25269898,490,2033,326,-1266,-688,4566,-1554,1780,39,35,806
669004,27005356,25269272,27006799,25270095,1059,2053,234,-2232,-357,4459,-2979,2808,39,35,806
670005,27005532,25269408,27006996,25270292,943,2180,-31,-2394,138,4384,-4620,4705,38,28,809
671006,27005772,25269556,27007193,25270489,524,2127,-297,-2724,484,3956,-3291,3269,38,28,809
672007,27005984,25269692,27007390,25270686,692,2229,-455,-3331,646,3790,-3036,3168,30,22,806
673008,27006148,25269820,27007587,25270883,1008,2310,-663,-3695,744,3885,-3480,4206,30,22,806
674009,27006332,25269964,27007784,25271080,889,2233,-791,-3956,881,3381,-3779,3978,30,24,807
675019,27006536,25270080,27008014,25271310,775,2458,-841,-4032,1039,3036,-3709,4451,30,24,807
676011,27006688,25270216,27008211,25271507,1121,2360,-769,-4077,1156,2971,-3437,4246,44,30,804
677012,27006856,25270360,27008408,25271704,1034,2334,-612,-3991,1240,2926,-3176,4571,44,30,804
678013,27007024,25270488,27008605,25271901,1046,2464,-371,-3861,1297,2626,-2892,4310,38,21,805
679014,27007200,25270624,27008802,25272098,1006,2441,-120,-3646,1285,2366,-2830,4883,38,21,805
680015,27007372,25270756,27008999,25272295,1042,2495,41,-2851,1154,1921,-2435,6458,42,24,805
681016,27007536,25270888,27009196,25272492,1107,2524,155,-1775,927,1425,-2033,6747,42,24,805
682017,27007724,25271028,27009393,25272689,961,2499,303,-519,684,1022,-2498,7008,22,33,804
683018,27007872,25271136,27009590,25272886,1233,2739,507,661,496,354,-2666,6815,22,33,804
684018,27008072,25271260,27009787,25273083,907,2672,752,1832,343,157,-2719,6774,39,30,803
685020,27008212,25271416,27009984,25273280,1307,2490,1034,2943,234,107,-2798,6162,39,30,803
686021,27008340,25271548,27010181,25273477,1414,2668,1381,3730,165,-42,-2254,5002,20,23,801
687022,27008516,25271712,27010378,25273674,1123,2484,1743,4152,113,77,-1501,3809,20,23,801
688023,27008672,25271860,27010575,25273871,1266,2605,2107,4206,91,253,-944,2846,17,38,802
689024,27008844,25272048,27010772,25274068,1178,2360,2457,4123,114,611,-999,2308,17,38,802
690025,27008996,25272180,27010969,25274265,1323,2739,2778,3820,186,927,-1176,1396,17,24,804
691026,27009176,25272324,27011166,25274462,1155,2687,3031,3392,312,1347,-1422,1064,17,24,804
692027,27009340,25272508,27011363,25274659,1271,2444,3174,3004,512,1852,-1728,1228,36,22,804
693028,27009492,25272684,27011560,25274856,1365,2503,3147,2798,770,2153,-2062,1753,36,22,804
694029,27009688,25272864,27011757,25275053,1092,2486,3017,2675,974,1965,-1916,1815,37,27,803
695030,27009860,25273044,27011954,25275250,1253,2494,2873,2398,1058,1578,-1657,1259,37,27,803
696031,27010004,25273244,27012151,25275447,1451,2368,2717,1990,1053,1436,-1390,1014,20,34,803
697032,27010156,25273476,27012348,25275644,1422,2153,2505,1684,1022,1302,-1289,1528,20,34,803
698033,27010312,25273720,27012545,25275841,1415,2058,2227,1555,1054,1387,-1550,1902,38,37,801
699034,27010428,25273944,27012742,25276038,1701,2172,1936,1472,1165,1525,-1656,1850,38,37,801
700035,27010564,25274148,27012939,25276235,1603,2294,1633,1429,1327,1619,-1590,2115,20,38,804
701035,27010708,25274376,27013136,25276432,1577,2130,1292,1470,1511,1628,-1525,2383,20,38,804
702037,27010824,25274572,27013333,25276629,1788,2331,870,1595,1714,1572,-1492,2553,15,38,803
703038,27010976,25274788,27013530,25276826,1583,2198,515,1544,1822,1426,-786,1836,15,38,803
704039,27011116,25275024,27013727,25277023,1684,2057,210,1340,1840,1432,-491,1944,18,35,803
705040,27011236,25275232,27013924,25277220,1843,2227,-86,1172,1862,1635,-311,2068,18,35,803
706041,27011372,25275456,27014121,25277417,1771,2115,-371,1023,1924,1659,-71,1996,25,43,803
707042,27011520,25275648,27014318,25277614,1718,2318,-618,910,1983,1613,181,2103,25,43,803
708043,27011644,25275828,27014515,25277811,1900,2401,-814,847,2013,1568,324,2220,24,37,801
709043,27011772,25276056,27014712,25278008,1906,2087,-958,811,2022,1469,373,2425,24,37,801
710045,27011936,25276268,27014909,25278205,1696,2182,-1056,767,2001,1358,403,2410,27,53,802
711046,27012076,25276500,27015106,25278402,1872,2041,-1116,626,1960,1198,342,2207,27,53,802
712047,27012180,25276716,27015303,25278599,2138,2134,-1166,538,1906,1000,177,2422,39,51,803
713048,27012344,25276924,27015500,25278796,1778,2179,-1235,451,1816,814,544,2373,39,51,803
714049,27012520,25277160,27015697,25278993,1713,1987,-1261,301,1683,544,707,2159,37,38,803
715050,27012632,25277416,27015894,25279190,2151,1837,-1275,88,1534,327,686,2144,37,38,803
716051,27012768,25277676,27016091,25279387,2029,1784,-1283,-155,1416,150,364,2138,17,37,803
717051,27012900,25277904,27016288,25279584,2082,1971,-1317,-271,1351,-30,-6,2637,17,37,803
718053,27013032,25278144,27016485,25279781,2112,1878,-1350,-309,1320,-297,-132,2712,26,41,802
719054,27013176,25278396,27016682,25279978,2061,1779,-1335,-410,1297,-584,-362,2595,26,41,802
720055,27013324,25278648,27016879,25280175,2058,1755,-1281,-537,1271,-684,-505,2653,22,58,801
721056,27013476,25278892,27017076,25280372,2054,1784,-1231,-677,1269,-779,-614,2685,22,58,801
722057,27013608,25279148,27017273,25280569,2208,1684,-1188,-807,1309,-904,-417,2916,37,47,803
723058,27013744,25279376,27017470,25280766,2210,1845,-1147,-944,1363,-1046,135,2957,37,47,803
724059,27013916,25279616,27017667,25280963,1997,1751,-1118,-1110,1438,-1084,231,2978,42,56,803
725060,27014080,25279828,27017864,25281160,2062,1921,-1135,-1273,1540,-998,308,3074,42,56,803
726061,27014256,25280096,27018061,25281357,1998,1540,-1207,-1489,1688,-971,289,2973,42,40,803
727062,27014424,25280348,27018258,25281554,2060,1615,-1273,-1719,1903,-997,-126,3023,42,40,803
728063,27014568,25280628,27018455,25281751,2235,1404,-1295,-1984,2187,-958,-410,3104,26,48,803
729064,27014716,25280900,27018652,25281948,2232,1421,-1278,-2230,2486,-934,-316,3285,26,48,803
730065,27014872,25281196,27018849,25282145,2200,1229,-1231,-2431,2752,-887,-260,3498,22,48,804
731066,27015024,25281508,27019046,25282342,2246,1078,-1168,-2541,2974,-863,-377,3928,22,48,804
732067,27015204,25281776,27019243,25282539,2079,1322,-624,-1942,3203,35,-1170,9622,32,60,803
733068,27015348,25282072,27019440,25282736,2329,1103,1899,2993,3223,4688,-397,32767,32,60,803
734069,27015544,25282420,27019637,25282933,2005,712,4480,7399,3179,2578,154,22539,41,64,805
735070,27015736,25282676,27019834,25283130,2032,1261,5069,7723,3292,44,622,2216,41,64,805
736071,27015884,25282876,27020031,25283327,2330,1610,4613,5776,3445,162,1057,701,40,56,805
737072,27016044,25283132,27020228,25283524,2272,1235,4069,3924,3533,421,1110,868,40,56,805
738073,27016200,25283352,27020425,25283721,2316,1450,3794,2767,3627,237,901,851,40,47,806
739074,27016352,25283620,27020622,25283918,2361,1118,3514,2019,3761,521,598,1579,40,47,806
740074,27016492,25283908,27020819,25284115,2462,953,3109,1612,3909,464,328,2449,31,44,804
741075,27016660,25284196,27021016,25284312,2301,913,2690,1118,4034,52,681,2314,31,44,804
742077,27016776,25284488,27021213,25284509,2662,847,2316,595,4007,-113,1268,2202,28,66,803
743078,27016912,25284796,27021410,25284706,2565,698,2017,-131,3828,-532,1990,1804,28,66,803
744079,27017092,25284984,27021607,25284903,2299,1452,1736,-635,3566,-900,2342,2760,32,66,806
745080,27017300,25285136,27021804,25285100,2120,1697,1442,-888,3279,-1107,2252,3025,32,66,806
746080,27017500,25285460,27022001,25285297,2168,566,1148,-991,3061,-1406,1886,3791,35,48,805
747082,27017660,25285724,27022198,25285494,2436,911,864,-677,2920,-1553,1667,4908,35,48,805
748082,27017848,25285984,27022395,25285691,2266,909,575,-274,2784,-1709,1698,5028,31,48,804
749083,27018020,25286232,27022592,25285888,2378,961,263,250,2603,-1986,1641,5677,31,48,804
750085,27018188,25286468,27022789,25286085,2416,1019,-72,756,2364,-2151,1082,5435,43,52,805
751086,27018356,25286740,27022986,25286282,2430,760,-423,1184,2076,-2298,1263,5306,43,52,805
752087,27018520,25286972,27023183,25286479,2471,995,-769,1611,1776,-2523,1589,5272,39,52,804
753088,27018668,25287228,27023380,25286676,2592,819,-1079,1858,1453,-2529,1790,4703,39,52,804
754089,27018856,25287452,27023577,25286873,2347,1007,-1404,2040,1059,-2403,2109,4488,35,52,804
755090,27018984,25287684,27023774,25287070,2753,942,-1757,2009,623,-2239,2357,3781,35,52,804
756091,27019136,25287932,27023971,25287267,2624,819,-2108,1860,204,-1816,2215,3405,25,49,804
757092,27019288,25288204,27024168,25287464,2645,636,-2387,1565,-79,-1374,1539,2935,25,49,804
758100,27019460,25288448,27024398,25287694,2547,805,-2575,1154,-183,-816,1012,2599,45,53,802
759094,27019616,25288692,27024595,25287891,2666,784,-2723,697,-174,-202,1273,2307,45,53,802
760095,27019812,25288908,27024792,25288088,2417,950,-2840,83,-68,240,974,1860,35,52,804
761096,27019980,25289104,27024989,25288285,2606,1076,-2935,-567,82,800,663,1891,35,52,804
762097,27020160,25289272,27025186,25288482,2539,1263,-2953,-1270,192,1114,919,1538,49,34,804
763098,27020336,25289424,27025383,25288679,2574,1383,-2901,-1957,277,1312,877,1884,49,34,804
764099,27020532,25289568,27025580,25288876,2451,1456,-2818,-2400,349,1239,851,2638,32,27,802
765100,27020712,25289744,27025777,25289073,2559,1266,-2763,-2560,423,852,366,3646,32,27,802
766101,27020900,25289896,27025974,25289270,2514,1435,-2787,-2239,499,446,-313,5298,47,22,802
767102,27021104,25290068,27026171,25289467,2412,1320,-2882,-1540,538,13,-719,6337,47,22,802
768103,27021316,25290192,27026368,25289664,2357,1652,-2643,-189,499,-117,-618,11211,34,37,803
769104,27021508,25290368,27026565,25289861,2485,1337,-1383,3190,330,467,157,27837,34,37,803
770105,27021744,25290512,27026762,25290058,2194,1560,-281,5491,41,-239,1010,10993,31,26,804
771106,27021968,25290668,27026959,25290255,2257,1503,-75,5883,-339,-405,1997,4534,31,26,804
772107,27022152,25290848,27027156,25290452,2514,1360,-286,5190,-701,-216,1773,3234,52,41,803
773108,27022400,25291044,27027353,25290649,2092,1261,-468,4557,-1005,-133,1400,3203,52,41,803
774109,27022612,25291188,27027550,25290846,2312,1609,-511,4110,-1171,-175,347,3007,54,44,802
775110,27022816,25291372,27027747,25291043,2359,1365,-515,3865,-1150,85,-1650,3357,54,44,802
776111,27023032,25291492,27027944,25291240,2277,1799,-500,3609,-1043,-78,-2360,3179,54,27,804
777112,27023224,25291660,27028141,25291437,2430,1512,-452,3110,-997,-623,-2097,2666,54,27,804
778113,27023448,25291760,27028338,25291634,2219,1979,-368,2540,-1071,-765,-1529,2523,51,30,804
779114,27023684,25291832,27028535,25291831,2128,2209,-298,1888,-1192,-940,-821,2459,51,30,804
780115,27023892,25291912,27028732,25292028,2299,2210,-314,1502,-1337,-1030,280,3372,46,15,803
781116,27024088,25292004,27028929,25292225,2376,2182,-417,1222,-1469,-1111,694,3455,46,15,803
782117,27024300,25292100,27029126,25292422,2270,2201,-586,1045,-1569,-1150,702,4014,33,12,801
783118,27024488,25292204,27029323,25292619,2425,2192,-790,998,-1675,-1301,969,4164,33,12,801
784119,27024684,25292272,27029520,25292816,2377,2474,-943,755,-1836,-1444,1489,3489,51,28,799
785120,27024904,25292360,27029717,25293013,2218,2396,-1051,498,-2025,-1852,807,3938,51,28,799
786121,27025120,25292500,27029914,25293210,2234,2097,-785,617,-2053,-2157,-1584,7780,37,18,798
787122,27025340,25292652,27030111,25293407,2200,2041,235,2269,-1832,-2276,-2943,19500,37,18,798
788123,27025552,25292816,27030308,25293604,2245,1981,1091,3272,-1660,-1799,-825,7682,40,30,800
789124,27025800,25292956,27030505,25293801,1998,2156,1258,2764,-1627,-1511,505,2603,40,30,800
790125,27026036,25293072,27030702,25293998,2057,2342,1108,1682,-1620,-975,822,2173,46,27,801
791126,27026260,25293120,27030899,25294195,2121,2833,992,631,-1548,-668,1246,2080,46,27,801
792127,27026492,25293196,27031096,25294392,2057,2711,958,-101,-1420,-601,1240,2397,43,29,801
793128,27026712,25293292,27031293,25294589,2123,2630,931,-761,-1276,-475,887,2392,43,29,801
794129,27026956,25293408,27031490,25294786,1953,2541,866,-1342,-1166,-412,904,2732,55,24,798
795130,27027248,25293560,27031687,25294983,1611,2337,777,-1858,-1141,-496,921,2942,55,24,798
796131,27027452,25293668,27031884,25295180,2159,2651,656,-2277,-1195,-651,436,3350,58,32,797
797132,27027712,25293772,27032081,25295377,1782,2717,544,-2490,-1245,-704,-627,4065,58,32,797
798133,27027960,25293896,27032278,25295574,1836,2625,474,-2549,-1275,-529,-674,4384,60,28,801
799134,27028212,25294052,27032475,25295771,1788,2443,425,-2495,-1356,-377,758,4703,60,28,801
800135,27028484,25294172,27032672,25295968,1631,2702,359,-2374,-1477,-326,1141,4917,48,21,799
801136,27028756,25294328,27032869,25296165,1598,2495,297,-2213,-1540,-74,-42,4976,48,21,799
802137,27029028,25294440,27033066,25296362,1566,2808,279,-2079,-1594,35,373,4770,49,36,801
803138,27029276,25294544,27033263,25296559,1695,2899,263,-1958,-1717,28,1303,4898,49,36,801
804139,27029548,25294648,27033460,25296756,1513,2941,222,-1836,-1837,86,787,4727,59,31,800
805140,27029832,25294764,27033657,25296953,1399,2901,200,-1850,-1910,90,321,4378,59,31,800
806141,27030064,25294908,27033854,25297150,1710,2750,195,-1893,-1977,72,117,4301,60,22,799
807142,27030340,25295096,27034051,25297347,1401,2480,205,-1937,-2015,132,-276,4127,60,22,799
808143,27030648,25295244,27034248,25297544,1154,2751,220,-2001,-2029,52,-414,3998,63,26,799
809144,27030892,25295360,27034445,25297741,1533,2988,258,-2130,-2068,-40,-295,3611,63,26,799
810145,27031168,25295460,27034642,25297938,1299,3130,311,-2351,-2138,-20,366,3331,40,24,802
811146,27031452,25295632,27034839,25298135,1212,2692,350,-2587,-2223,-75,926,3209,40,24,802
812147,27031708,25295752,27035036,25298332,1361,3051,369,-2882,-2240,-141,37,3117,45,28,799
813148,27031940,25295884,27035233,25298529,1497,3006,417,-3097,-2166,-229,-362,3191,45,28,799
814149,27032252,25296000,27035430,25298726,947,3141,452,-3317,-2084,-235,-173,3141,62,21,801
815150,27032496,25296092,27035627,25298923,1351,3339,476,-3477,-1994,-288,-721,3205,62,21,801
816151,27032736,25296200,27035824,25299120,1359,3278,507,-3614,-1867,-486,-1353,3282,60,18,799
817152,27033008,25296340,27036021,25299317,1126,3104,536,-3686,-1756,-707,-1443,3356,60,18,799
818153,27033284,25296512,27036218,25299514,1067,2915,583,-3595,-1558,-898,-1417,3857,64,25,797
819154,27033540,25296640,27036415,25299711,1166,3221,591,-3481,-1483,-1083,-490,3762,64,25,797
820155,27033784,25296780,27036612,25299908,1221,3171,577,-3384,-1477,-1227,307,3518,55,27,799
821156,27034064,25296936,27036809,25300105,961,3090,533,-3258,-1452,-1043,126,3623,55,27,799
822157,27034304,25297076,27037006,25300302,1192,3216,508,-3127,-1332,-840,-719,3704,62,25,799
823158,27034536,25297248,27037203,25300499,1228,3027,532,-3089,-1161,-657,-739,3235,62,25,799
824159,27034800,25297416,27037400,25300696,998,3066,587,-3208,-1026,-422,-364,2674,47,42,800
825160,27035004,25297576,27037597,25300893,1371,3132,639,-3405,-909,-263,-424,2481,47,42,800
826161,27035220,25297720,27037794,25301090,1288,3256,654,-3605,-758,-215,-654,2616,36,43,800
827162,27035488,25297864,27037991,25301287,932,3281,671,-3732,-585,-141,-799,2508,36,43,800
828163,27035660,25298012,27038188,25301484,1543,3277,695,-3816,-410,-18,-684,2597,39,40,798
829164,27035884,25298172,27038385,25301681,1208,3220,710,-3797,-257,83,-548,2916,39,40,798
830165,27036164,25298320,27038582,25301878,821,3317,701,-3735,-123,170,-690,3022,51,43,798
831166,27036380,25298492,27038779,25302075,1213,3178,677,-3639,-21,225,-668,3009,51,43,798
832167,27036608,25298676,27038976,25302272,1125,3110,655,-3579,35,296,-540,2855,56,43,798
833168,27036840,25298840,27039173,25302469,1085,3250,604,-3474,81,348,-881,2925,56,43,798
834169,27037080,25299036,27039370,25302666,1017,3051,513,-3421,133,317,-1013,2825,47,42,799
835170,27037348,25299232,27039567,25302863,811,3052,389,-3359,171,277,-884,2725,47,42,799
836171,27037588,25299428,27039764,25303060,968,3054,239,-3362,166,282,-478,2520,57,45,799
837172,27037808,25299624,27039961,25303257,1083,3055,76,-3377,133,299,-50,2512,57,45,799
838173,27038100,25299828,27040158,25303454,592,3002,-108,-3386,97,300,-70,2581,53,31,802
839174,27038344,25300028,27040355,25303651,871,3027,-285,-3418,60,343,-133,2313,53,31,802
840175,27038584,25300256,27040552,25303848,877,2839,-457,-3513,20,359,-145,2080,60,46,800
841183,27038824,25300492,27040782,25304078,874,2786,-624,-3655,-5,367,-603,1955,60,46,800
842177,27039056,25300704,27040979,25304275,909,2931,-787,-3849,-1,408,-969,1810,56,56,801
843178,27039312,25300924,27041176,25304472,733,2872,-948,-4119,34,486,-1220,1665,56,56,801
844179,27039544,25301144,27041373,25304669,868,2862,-1075,-4406,102,519,-1151,1547,40,47,803
845180,27039764,25301380,27041570,25304866,933,2745,-1216,-4678,207,572,-1192,1731,40,47,803
846181,27039996,25301640,27041767,25305063,843,2569,-1357,-4878,350,545,-1255,1887,51,47,803
847182,27040192,25301896,27041964,25305260,1069,2568,-1498,-5074,523,512,-1267,1986,51,47,803
848183,27040392,25302160,27042161,25305457,1043,2489,-1624,-5217,698,594,-1264,2145,40,44,803
849184,27040584,25302424,27042358,25305654,1095,2461,-1732,-5304,886,677,-1256,2295,40,44,803
850185,27040764,25302708,27042555,25305851,1179,2298,-1822,-5364,1098,766,-1213,2518,40,51,803
851186,27040940,25302996,27042752,25306048,1213,2234,-1900,-5448,1323,997,-1219,2588,40,51,803
852187,27041112,25303280,27042949,25306245,1249,2220,-1970,-5467,1547,1267,-1051,2781,26,63,803
853188,27041292,25303548,27043146,25306442,1207,2290,-2050,-5489,1734,1495,-902,2876,26,63,803
854189,27041468,25303824,27043343,25306639,1241,2206,-2111,-5492,1874,1742,-671,2948,43,48,805
855190,27041644,25304092,27043540,25306836,1252,2225,-2146,-5496,1981,1958,-500,3207,43,48,805
856191,27041824,25304380,27043737,25307033,1234,2061,-2183,-5399,2087,2167,-592,3629,42,61,804
857192,27042024,25304636,27043934,25307230,1108,2235,-2231,-5180,2210,2371,-787,4022,42,61,804
858193,27042184,25304880,27044131,25307427,1375,2291,-2278,-4851,2354,2523,-889,4415,30,59,804
859194,27042360,25305128,27044328,25307624,1284,2243,-2334,-4506,2474,2720,-761,4523,30,59,804
860195,27042520,25305384,27044525,25307821,1401,2167,-2371,-4179,2532,2991,-559,4548,45,42,805
861196,27042652,25305636,27044722,25308018,1605,2169,-2385,-3889,2549,3131,-409,4644,45,42,805
862197,27042804,25305872,27044919,25308215,1500,2252,-2380,-3577,2530,3178,-427,4782,31,40,804
863198,27042968,25306120,27045116,25308412,1440,2156,-2374,-3237,2481,3194,-466,4868,31,40,804
864199,27043140,25306336,27045313,25308609,1401,2347,-2341,-2903,2422,3284,-525,4906,31,46,802
865200,27043280,25306516,27045510,25308806,1626,2581,-2299,-2602,2357,3425,-565,4876,31,46,802
866201,27043448,25306720,27045707,25309003,1465,2428,-2256,-2352,2274,3481,-555,4825,20,41,804
867202,27043604,25306952,27045904,25309200,1558,2238,-2190,-2089,2164,3422,-429,4963,20,41,804
868203,27043748,25307088,27046101,25309397,1658,2865,-2100,-1799,2007,3411,-259,5354,43,46,801
869204,27043948,25307260,27046298,25309594,1306,2651,-1156,70,1853,4134,-401,19406,43,46,801
870205,27044120,25307400,27046495,25309791,1493,2877,281,2771,1737,3732,-481,20213,30,39,803
871206,27044264,25307568,27046692,25309988,1691,2715,941,3602,1561,3113,275,3866,30,39,803
872207,27044452,25307720,27046889,25310185,1420,2836,885,2926,1347,2983,411,2874,29,32,802
873208,27044600,25307848,27047086,25310382,1693,3016,714,2046,1146,2832,-178,2667,29,32,802
874209,27044748,25307960,27047283,25310579,1715,3154,595,1565,1056,2468,-924,3167,23,37,798
875210,27044920,25308116,27047480,25310776,1577,2897,524,1316,1042,2027,-1139,3153,23,37,798
876210,27045108,25308268,27047677,25310973,1480,2943,425,1149,999,1718,-1013,3336,22,21,798
877211,27045280,25308436,27047874,25311170,1592,2856,325,864,930,1066,-891,2935,22,21,798
878213,27045424,25308612,27048071,25311367,1791,2816,222,554,882,540,-1103,3231,28,25,799
879213,27045640,25308764,27048268,25311564,1333,2986,112,315,865,222,-1118,3335,28,25,799
880215,27045800,25308928,27048465,25311761,1700,2926,14,195,884,-121,-975,3753,45,25,799
881215,27045964,25309072,27048662,25311958,1690,3075,-91,242,914,-429,-933,4175,45,25,799
882217,27046172,25309228,27048859,25312155,1410,3019,-175,279,952,-757,-883,4180,47,40,799
883218,27046340,25309404,27049056,25312352,1674,2904,-241,381,1012,-1083,-800,4563,47,40,799
884219,27046504,25309592,27049253,25312549,1714,2833,-271,549,1095,-1357,-734,4575,40,38,797
885220,27046712,25309788,27049450,25312746,1435,2784,-264,709,1194,-1597,-767,4563,40,38,797
886221,27046876,25309992,27049647,25312943,1724,2731,-213,832,1317,-1879,-841,4502,28,41,798
887222,27047036,25310176,27049844,25313140,1766,2863,-135,895,1452,-2026,-822,4504,28,41,798
888223,27047220,25310376,27050041,25313337,1622,2762,-83,1044,1596,-2068,-858,4816,35,29,800
889224,27047392,25310568,27050238,25313534,1709,2815,-40,1129,1756,-1948,-711,4555,35,29,800
890225,27047540,25310780,27050435,25313731,1882,2683,-5,1117,1925,-1643,-653,4394,42,39,799
891226,27047716,25310956,27050632,25313928,1716,2919,42,1040,2098,-1415,-559,4094,42,39,799
892227,27047876,25311172,27050829,25314125,1833,2661,108,938,2286,-1290,-748,4058,41,40,799
893228,27048048,25311376,27051026,25314322,1769,2733,217,781,2468,-1254,-840,3895,41,40,799
894229,27048188,25311580,27051223,25314519,1995,2731,359,485,2622,-1048,-610,3573,43,33,799
895230,27048348,25311828,27051420,25314716,1887,2434,515,189,2762,-711,-661,3591,43,33,799
896231,27048492,25312036,27051617,25314913,2011,2680,664,-190,2876,-417,-660,3207,35,42,798
897232,27048628,25312204,27051814,25315110,2089,2943,815,-684,2958,-95,-632,3010,35,42,798
898233,27048784,25312448,27052011,25315307,1982,2448,942,-1170,3020,245,-579,3131,41,46,800
899234,27048916,25312724,27052208,25315504,2161,2213,1047,-1619,3054,464,-532,3258,41,46,800
900235,27049032,25313016,27052405,25315701,2297,2072,1126,-1961,3053,510,-622,3493,20,49,798
901236,27049180,25313216,27052602,25315898,2119,2646,1182,-2261,3028,536,-519,3673,20,49,798
902237,27049352,25313440,27052799,25316095,1981,2485,1226,-2464,2990,696,-284,4016,32,55,799
903238,27049500,25313696,27052996,25316292,2153,2260,1250,-2550,2960,772,-355,4318,32,55,799
904239,27049652,25313964,27053193,25316489,2149,2154,1271,-2604,2936,777,-456,4446,45,43,799
905240,27049804,25314192,27053390,25316686,2169,2390,1271,-2602,2911,853,-292,4712,45,43,799
906241,27049936,25314448,27053587,25316883,2323,2191,1250,-2517,2872,1067,166,4922,43,55,799
907242,27050076,25314656,27053784,25317080,2299,2486,1205,-2339,2813,1204,488,5045,43,55,799
908243,27050244,25314904,27053981,25317277,2138,2214,1151,-2186,2791,1383,493,5038,27,54,799
909244,27050416,25315140,27054178,25317474,2124,2272,1084,-1978,2800,1412,518,5299,27,54,799
910245,27050528,25315368,27054375,25317671,2537,2310,987,-1700,2800,1395,665,5413,37,53,799
911246,27050688,25315592,27054572,25317868,2254,2323,902,-1413,2796,1253,493,5244,37,53,799
912247,27050820,25315820,27054769,25318065,2459,2285,843,-1198,2807,913,136,5160,38,49,800
913248,27050940,25316020,27054966,25318262,2568,2459,810,-1068,2828,751,-44,4910,38,49,800
914249,27051072,25316220,27055163,25318459,2522,2457,788,-950,2842,704,-102,4869,26,38,799
915250,27051204,25316448,27055360,25318656,2552,2270,790,-896,2850,736,57,4425,26,38,799
916251,27051320,25316704,27055557,25318853,2688,2069,812,-938,2856,754,103,4243,22,44,797
917252,27051432,25316948,27055754,25319050,2752,2124,849,-973,2885,649,89,4216,22,44,797
918253,27051560,25317184,27055951,25319247,2682,2157,890,-1004,2931,445,120,4242,33,44,797
919254,27051704,25317400,27056148,25319444,2606,2275,920,-945,2962,225,126,4257,33,44,797
920255,27051812,25317628,27056345,25319641,2872,2186,939,-887,2985,3,-14,4253,21,41,797
921256,27051960,25317884,27056542,25319838,2644,1985,963,-813,3020,-126,-155,4317,21,41,797
922257,27052092,25318144,27056739,25320035,2774,1934,1001,-754,3068,-172,-166,4220,35,41,798
923258,27052204,25318412,27056936,25320232,2937,1852,1048,-685,3123,-261,-272,4256,35,41,798
924265,27052340,25318660,27057166,25320462,2829,1969,1099,-590,3168,-359,-307,4193,40,57,799
925260,27052492,25318912,27057363,25320659,2750,1921,1165,-551,3188,-409,-375,4012,27,62,798
926261,27052636,25319228,27057560,25320856,2823,1469,1231,-480,3205,-421,-407,4052,27,62,798
927262,27052776,25319508,27057757,25321053,2874,1657,1297,-383,3200,-526,23,4054,23,62,798
928263,27052960,25319816,27057954,25321250,2606,1435,1357,-313,3172,-436,414,3911,23,62,798
929263,27053128,25320068,27058151,25321447,2720,1761,1411,-261,3186,-60,410,3776,48,43,798
930265,27053324,25320320,27058348,25321644,2546,1736,1454,-207,3242,-50,389,3906,48,43,798
931266,27053504,25320664,27058545,25321841,2655,1097,1484,-67,3303,-262,-111,4070,46,68,800
932267,27053704,25320968,27058742,25322038,2529,1301,1531,-14,3344,-324,-294,3587,46,68,800
933268,27053896,25321276,27058939,25322235,2583,1227,1594,-40,3354,58,59,3387,35,69,803
934269,27054092,25321584,27059136,25322432,2559,1178,1640,-80,3322,455,557,3217,35,69,803
935270,27054340,25321872,27059333,25322629,2213,1263,1666,-167,3249,582,942,3033,37,66,802
936271,27054580,25322188,27059530,25322826,2245,1036,1676,-195,3166,506,1258,3187,37,66,802
937272,27054796,25322532,27059727,25323023,2387,796,1671,-142,3123,502,1210,3452,47,52,804
938273,27055052,25322840,27059924,25323220,2113,973,1652,80,3122,601,1054,3734,47,52,804
939274,27055264,25323156,27060121,25323417,2382,871,1644,205,3117,696,996,3273,56,60,804
940274,27055496,25323448,27060318,25323614,2243,979,1635,218,3068,1042,1079,3028,56,60,804
941275,27055752,25323780,27060515,25323811,2068,670,1615,167,2987,1483,1090,2714,56,66,805
942277,27055980,25324088,27060712,25324008,2230,771,1589,140,2899,1647,1098,2679,56,66,805
943278,27056220,25324376,27060909,25324205,2136,856,1570,176,2833,1421,1016,2832,50,45,806
944279,27056444,25324672,27061106,25324402,2225,763,1544,280,2835,1276,750,2971,50,45,806
945279,27056684,25324928,27061303,25324599,2107,987,1494,496,2865,1476,706,3242,44,61,806
946281,27056916,25325164,27061500,25324796,2143,1095,1405,821,2866,1883,750,3313,44,61,806
947282,27057196,25325456,27061697,25324993,1807,702,1310,1090,2824,2105,760,2844,42,54,806
948283,27057436,25325704,27061894,25325190,2040,955,1226,1235,2737,2026,547,2578,42,54,806
949284,27057676,25325912,27062091,25325387,2022,1200,1138,1434,2656,1596,19,2704,41,49,807
950285,27057916,25326168,27062288,25325584,2004,874,1028,1661,2600,1176,-216,2695,41,49,807
951286,27058164,25326460,27062485,25325781,1931,607,921,1915,2495,1169,116,2509,37,40,805
952287,27058440,25326720,27062682,25325978,1723,779,799,2111,2330,1455,98,2334,37,40,805
953288,27058720,25326940,27062879,25326175,1662,1019,638,2406,2138,1736,110,2505,45,58,807
954289,27059000,25327144,27063076,25326372,1627,1116,470,2634,1928,1480,436,1935,45,58,807
955290,27059244,25327360,27063273,25326569,1832,1033,302,2658,1699,915,399,1495,55,42,808
956291,27059468,25327648,27063470,25326766,1945,542,117,2672,1473,351,121,1585,55,42,808
957292,27059736,25327904,27063667,25326963,1640,716,-108,2748,1239,-209,-297,1555,50,42,807
958293,27060020,25328164,27063864,25327160,1503,663,-409,2915,971,-506,-703,1706,50,42,807
959294,27060272,25328404,27064061,25327357,1680,769,-766,3171,703,-1125,-1055,1962,62,55,809
960295,27060512,25328596,27064258,25327554,1736,1072,-1144,3459,447,-1616,-1067,1909,62,55,809
961296,27060760,25328864,27064455,25327751,1664,564,-1498,3670,187,-1690,-614,1679,40,38,807
962297,27060984,25329108,27064652,25327948,1803,694,-1840,3785,-68,-1462,-246,1693,40,38,807
963297,27061260,25329340,27064849,25328145,1444,753,-2208,3891,-330,-1195,-112,1500,54,43,809
964299,27061536,25329552,27065046,25328342,1410,872,-2570,3845,-614,-1198,-122,909,54,43,809
965299,27061776,25329724,27065243,25328539,1617,1133,-2913,3679,-864,-1369,-313,902,41,43,809
966301,27062052,25329924,27065440,25328736,1357,955,-3257,3433,-1065,-1538,-554,834,41,43,809
967302,27062252,25330048,27065637,25328933,1832,1463,-3632,3146,-1256,-1473,-700,769,49,34,808
968303,27062484,25330176,27065834,25329130,1618,1468,-4032,2808,-1427,-1084,-901,804,49,34,808
969304,27062780,25330336,27066031,25329327,1174,1284,-4450,2364,-1576,-679,-1096,722,62,35,806
970305,27063064,25330520,27066228,25329524,1212,1139,-4804,1824,-1739,-628,-906,561,62,35,806
971306,27063340,25330684,27066425,25329721,1228,1278,-5090,1268,-1914,-728,-646,789,59,32,807
972307,27063544,25330824,27066622,25329918,1675,1453,-5351,686,-2099,-871,-927,815,59,32,807
973308,27063836,25330984,27066819,25330115,1084,1345,-5540,-23,-2249,-523,-1419,699,45,26,807
974309,27064096,25331100,27067016,25330312,1257,1655,-5645,-807,-2440,-117,-886,508,45,26,807
975310,27064368,25331248,27067213,25330509,1150,1477,-5694,-1544,-2654,99,-842,1079,42,29,808
976311,27064620,25331384,27067410,25330706,1251,1578,-5719,-2166,-2805,-70,-1193,1695,42,29,808
977311,27064912,25331488,27067607,25330903,960,1818,-5733,-2607,-2901,-541,-1692,2567,47,35,807
978313,27065176,25331616,27067804,25331100,1105,1699,-5725,-2892,-2998,-574,-1673,2969,47,35,807
979313,27065356,25331784,27068001,25331297,1639,1461,-5707,-3139,-3097,-330,-1800,3277,41,22,807
980315,27065636,25331928,27068198,25331494,977,1635,-5654,-3432,-3183,-399,-1848,3433,41,22,807
981316,27065876,25332076,27068395,25331691,1209,1631,-5541,-3720,-3206,-462,-1775,3730,41,29,806
982317,27066108,25332192,27068592,25331888,1244,1867,-5391,-4000,-3204,-318,-1361,4006,41,29,806
983318,27066372,25332300,27068789,25332085,1016,1956,-5226,-4337,-3228,293,-793,4063,50,14,806
984319,27066608,25332420,27068986,25332282,1174,1915,-5024,-4621,-3256,924,-484,4226,50,14,806
985320,27066816,25332552,27069183,25332479,1345,1868,-4798,-4889,-3267,1263,-136,4526,40,15,806
986321,27067004,25332680,27069380,25332676,1474,1924,-4583,-5085,-3242,1258,-407,5107,40,15,806
987322,27067164,25332788,27069577,25332873,1666,2088,-4402,-5167,-3134,1242,-1017,5490,23,16,805
988323,27067348,25332872,27069774,25333070,1522,2288,-4202,-5397,-2987,1535,-1029,5056,23,16,805
989324,27067552,25332984,27069971,25333267,1395,2150,-3432,-4923,-2810,2734,-1915,11192,37,22,803
990325,27067660,25333128,27070168,25333464,2034,1973,-191,1361,-2739,8564,-4948,32767,37,22,803
991326,27067920,25333264,27070365,25333661,1057,2050,3004,6493,-2718,5717,-2176,22997,23,21,804
992327,27068144,25333416,27070562,25333858,1270,1970,3589,6554,-2549,3775,-438,3364,23,21,804
993328,27068340,25333548,27070759,25334055,1446,2123,2853,4213,-2237,4298,-534,1829,49,17,804
994329,27068508,25333652,27070956,25334252,1634,2339,1974,2036,-1826,5053,-1090,2167,49,17,804
995329,27068716,25333784,27071153,25334449,1379,2193,1603,388,-1372,4827,-982,552,37,15,803
996331,27068924,25333900,27071350,25334646,1376,2328,1220,-820,-775,5080,-3584,2331,37,15,803
997332,27069056,25333996,27071547,25334843,1879,2498,537,-1349,-187,4884,-4133,3610,34,22,803
998333,27069272,25334100,27071744,25335040,1347,2490,-93,-2246,235,4227,-2994,2141,34,22,803
999334,27069440,25334188,27071941,25335237,1660,2637,-560,-3169,397,4425,-2041,2780,43,33,800
1000335,27069604,25334284,27072138,25335434,1700,2632,-1115,-3708,430,4237,-2082,4548,43,33,800
1001336,27069808,25334424,27072335,25335631,1447,2382,-1732,-3566,556,3935,-2574,6082,27,33,800
1002337,27070028,25334568,27072532,25335828,1338,2380,-2341,-3105,762,3724,-2909,6314,27,33,800
1003338,27070260,25334664,27072729,25336025,1248,2726,-2734,-2736,947,2973,-2794,6084,33,30,802
1004339,27070508,25334776,27072926,25336222,1126,2663,-2839,-2475,1075,2280,-2645,5648,33,30,802
1005340,27070788,25334868,27073123,25336419,890,2834,-2685,-2413,1148,1757,-2501,4786,56,12,800
1006341,27071056,25334960,27073320,25336616,934,2881,-2387,-2186,1194,693,-2432,5573,56,12,800
1007350,27071252,25335076,27073550,25336846,1399,2781,-2032,-1664,1210,-395,-2350,6152,54,15,801
1008342,27071480,25335196,27073747,25337043,1186,2790,-1622,-1018,1128,-724,-1830,6048,54,15,801
1009343,27071668,25335296,27073944,25337240,1441,2959,-1137,-155,956,-1140,-1298,6511,40,23,800
1010344,27071868,25335424,27074141,25337437,1364,2814,-615,720,742,-1669,-1209,6362,40,23,800
1011345,27072096,25335532,27074338,25337634,1177,2978,-75,1494,494,-1614,-1574,5968,31,28,799
1012346,27072280,25335668,27074535,25337831,1457,2831,517,2213,256,-1577,-1505,5641,31,28,799
1013348,27072500,25335808,27074732,25338028,1223,2831,1127,2893,-11,-1508,-537,5223,29,36,800
1014349,27072688,25335952,27074929,25338225,1427,2830,1686,3328,-327,-1533,-129,4093,29,36,800
1015350,27072900,25336128,27075126,25338422,1271,2640,2155,3461,-555,-1755,-503,3590,43,30,799
1016351,27073092,25336248,27075323,25338619,1399,3023,2536,3570,-678,-1734,-752,3513,43,30,799
1017352,27073308,25336364,27075520,25338816,1241,3085,2839,3587,-746,-1699,-896,2934,28,18,800
1018353,27073500,25336524,27075717,25339013,1394,2826,3108,3439,-749,-1733,-1028,2414,28,18,800
1019354,27073684,25336652,27075914,25339210,1449,3058,3314,3012,-697,-1135,-1248,1716,42,23,799
1020355,27073828,25336780,27076111,25339407,1724,3088,3437,2517,-613,-379,-1259,1389,42,23,799
1021356,27074024,25336948,27076308,25339604,1399,2852,3491,1843,-512,146,-1014,705,22,25,798
1022357,27074196,25337076,27076505,25339801,1560,3132,3479,959,-442,682,-837,168,22,25,798
1023358,27074392,25337236,27076702,25339998,1412,2949,3369,76,-381,1191,-817,377,34,45,799
1024359,27074572,25337448,27076899,25340195,1519,2618,3178,-673,-282,1572,-1206,590,34,45,799
1025360,27074760,25337696,27077096,25340392,1474,2371,2910,-1305,-153,1770,-1482,889,46,36,799
1026361,27074916,25337936,27077293,25340589,1692,2402,2293,-1325,9,1938,-1303,3369,46,36,799
1027362,27075092,25338180,27077490,25340786,1577,2358,1405,-975,243,2009,-1425,3608,37,43,801
1028363,27075260,25338404,27077687,25340983,1640,2471,724,-1183,450,2093,-889,1159,37,43,801
1029364,27075436,25338584,27077884,25341180,1600,2754,192,-1642,637,2311,-972,1714,24,54,802
1030365,27075588,25338832,27078081,25341377,1770,2307,-304,-2199,801,2516,-675,1360,24,54,802
1031366,27075764,25339096,27078278,25341574,1629,2178,-725,-2571,914,2821,161,1752,37,49,800
1032367,27075924,25339380,27078475,25341771,1747,2015,-1147,-2688,1021,2986,746,2702,37,49,800
1033368,27076092,25339596,27078672,25341968,1709,2433,-1581,-2375,1139,3089,918,3713,27,54,802
1034369,27076252,25339824,27078869,25342165,1777,2344,-1901,-2178,1268,2829,1154,3081,27,54,802
1035370,27076420,25340044,27079066,25342362,1739,2385,-2118,-1983,1351,2651,1266,3525,20,57,801
1036371,27076576,25340296,27079263,25342559,1833,2161,-2287,-1716,1398,2538,1056,3730,20,57,801
1037372,27076736,25340544,27079460,25342756,1825,2164,-2401,-1360,1434,2116,840,3913,21,38,800
1038373,27076932,25340776,27079657,25342953,1601,2249,-2495,-934,1472,1666,340,4129,21,38,800
1039374,27077060,25340992,27079854,25343150,2056,2341,-2555,-499,1496,1291,349,4107,26,47,801
1040375,27077220,25341176,27080051,25343347,1874,2548,-2576,-2,1482,1104,823,4161,26,47,801
1041376,27077388,25341384,27080248,25343544,1837,2393,-2553,403,1408,962,952,3827,28,53,800
1042377,27077516,25341596,27080445,25343741,2118,2362,-2463,682,1327,875,312,3680,28,53,800
1043378,27077652,25341812,27080642,25343938,2095,2329,-2291,898,1276,847,-340,3436,39,51,801
1044379,27077836,25342056,27080839,25344135,1801,2133,-2096,1069,1229,807,-388,3128,39,51,801
1045380,27078000,25342268,27081036,25344332,1942,2328,-1883,1144,1133,646,1,2746,25,41,800
1046381,27078156,25342436,27081233,25344529,2010,2615,-1654,1026,1055,604,-378,2470,25,41,800
1047382,27078328,25342672,27081430,25344726,1922,2174,-1453,942,1039,690,-754,2639,24,39,801
1048383,27078472,25342900,27081627,25344923,2121,2211,-1285,858,1070,582,-649,2333,24,39,801
1049384,27078620,25343160,27081824,25345120,2118,1983,-1113,585,1141,404,-1018,1703,31,45,799
1050385,27078800,25343380,27082021,25345317,1926,2224,-935,80,1231,238,-1088,1279,31,45,799
1051386,27078968,25343608,27082218,25345514,2014,2160,-808,-401,1335,36,-1200,1752,45,49,801
1052387,27079104,25343804,27082415,25345711,2242,2361,-730,-627,1491,-113,-1487,2296,45,49,801
1053388,27079268,25344052,27082612,25345908,2082,2014,-663,-700,1702,-355,-1627,2645,46,44,801
1054389,27079464,25344312,27082809,25346105,1882,1911,-608,-734,1921,-523,-1306,2804,46,44,801
1055390,27079644,25344572,27083006,25346302,1991,1885,-592,-812,2105,-513,-622,2914,27,39,801
1056391,27079836,25344824,27083203,25346499,1919,1911,-623,-821,2267,-530,13,3171,27,39,801
1057392,27079992,25345048,27083400,25346696,2162,2074,-662,-816,2429,-612,139,3337,42,47,802
1058393,27080172,25345236,27083597,25346893,2021,2303,-685,-754,2615,-663,-36,3745,42,47,802
1059394,27080332,25345504,27083794,25347090,2162,1772,-684,-542,2815,-601,-150,4134,33,49,801
1060395,27080496,25345804,27083991,25347287,2152,1527,-671,-299,3002,-597,-104,4214,33,49,801
1061396,27080680,25346072,27084188,25347484,2034,1696,-652,-74,3149,-644,57,4375,26,50,801
1062397,27080832,25346340,27084385,25347681,2254,1666,-627,75,3268,-648,104,4280,26,50,801
1063398,27080988,25346596,27084582,25347878,2248,1715,-598,237,3370,-554,128,4484,41,50,802
1064399,27081196,25346888,27084779,25348075,1919,1448,-580,440,3461,-435,47,4528,41,50,802
1065400,27081356,25347168,27084976,25348272,2236,1487,-578,627,3569,-262,-312,4630,24,57,802
1066401,27081508,25347500,27085173,25348469,2306,1103,-590,798,3678,-146,175,4664,24,57,802
1067402,27081664,25347868,27085370,25348666,2300,803,-532,962,3762,111,631,5124,29,69,803
1068403,27081832,25348120,27085567,25348863,2239,1504,534,2991,3734,2343,1349,22167,29,69,803
1069404,27081976,25348356,27085764,25349060,2412,1587,2175,5874,3630,2466,1121,22051,34,58,804
1070405,27082132,25348564,27085961,25349257,2356,1757,2886,6538,3640,537,645,3269,34,58,804
1071406,27082272,25348832,27086158,25349454,2482,1351,2744,5482,3730,550,587,2014,30,37,801
1072407,27082380,25349108,27086355,25349651,2722,1266,2479,4229,3829,875,509,1741,30,37,801
1073408,27082556,25349388,27086552,25349848,2307,1206,2311,3417,3938,737,457,2214,43,61,802
1074409,27082772,25349612,27086749,25350045,2049,1544,2213,2931,4037,574,612,2560,43,61,802
1075410,27082936,25349868,27086946,25350242,2390,1318,2026,2583,4085,657,911,2854,50,50,803
1076411,27083116,25350176,27087143,25350439,2298,944,1837,2046,4118,403,1079,2363,50,50,803
1077411,27083308,25350492,27087340,25350636,2225,842,1660,1461,4130,245,1129,2367,48,55,803
1078413,27083484,25350780,27087537,25350833,2336,977,1478,862,4082,-39,1403,2418,48,55,803
1079414,27083648,25351092,27087734,25351030,2426,776,1271,444,3960,-506,1732,3093,45,70,805
1080415,27083804,25351440,27087931,25351227,2495,485,1012,309,3792,-863,1538,3871,45,70,805
1081416,27083972,25351724,27088128,25351424,2433,847,751,384,3673,-1166,1204,4521,40,72,803
1082417,27084116,25352112,27088325,25351621,2607,113,513,665,3634,-1487,1042,5165,40,72,803
1083418,27084300,25352492,27088522,25351818,2364,82,309,974,3557,-1780,1339,5063,30,67,803
1084419,27084448,25352948,27088719,25352015,2611,-507,118,1192,3362,-2029,1621,5052,30,67,803
1085420,27084588,25353312,27088916,25352212,2687,-6,-70,1421,3062,-2309,1715,5167,37,55,805
1086421,27084732,25353648,27089113,25352409,2686,108,-256,1611,2725,-2240,1756,5109,37,55,805
1087422,27084892,25353912,27089310,25352606,2603,529,-397,1805,2500,-1743,1726,4971,24,60,804
1088423,27085052,25354160,27089507,25352803,2620,606,-515,1914,2434,-1386,1633,4746,24,60,804
1089424,27085212,25354272,27089704,25353000,2638,1493,-611,1879,2455,-1019,2415,4330,34,57,804
1090432,27085384,25354540,27089934,25353230,2589,501,-649,1695,2516,-792,2113,3939,34,57,804
1091426,27085552,25354808,27090131,25353427,2628,470,-526,1592,2525,-508,2167,5326,27,67,802
1092427,27085712,25355088,27090328,25353624,2695,358,-292,1710,2333,-379,2687,6922,27,67,802
1093428,27085900,25355352,27090525,25353821,2524,428,-260,1669,2019,-1008,2417,4100,30,56,803
1094429,27086084,25355580,27090722,25354018,2556,639,-488,1506,1648,-1459,2279,3935,30,56,803
1095430,27086260,25355748,27090919,25354215,2616,1027,-863,1376,1221,-1851,2086,4403,46,42,804
1096431,27086452,25355884,27091116,25354412,2519,1253,-1347,1528,767,-1787,1857,5209,46,42,804
1097432,27086672,25355996,27091313,25354609,2335,1440,-1974,1964,301,-1821,1580,5990,32,36,803
1098433,27086848,25356128,27091510,25354806,2620,1344,-2692,2506,-214,-2009,1120,6056,32,36,803
1099434,27087056,25356280,27091707,25355003,2416,1238,-3410,2815,-812,-2166,571,5152,41,20,803
1100435,27087288,25356392,27091904,25355200,2252,1525,-4038,2763,-1451,-2155,-125,4268,41,20,803
1101436,27087480,25356512,27092101,25355397,2505,1509,-4378,2550,-2065,-1766,-559,5326,53,29,802
1102437,27087680,25356668,27092298,25355594,2454,1302,-3714,3857,-2510,-231,-2321,19994,53,29,802
1103438,27087920,25356816,27092495,25355791,2186,1373,-2662,5442,-2733,-70,-2052,15461,45,25,801
1104439,27088132,25357044,27092692,25355988,2355,859,-2397,5149,-2795,-251,-832,2088,45,25,801
1105440,27088324,25357208,27092889,25356185,2484,1273,-2580,3509,-2709,321,-973,1103,40,39,802
1106441,27088532,25357392,27093086,25356382,2380,1154,-2173,2571,-2480,682,-1719,9258,40,39,802
1107442,27088728,25357536,27093283,25356579,2456,1427,-1017,2711,-2168,706,-1906,13171,48,37,803
1108443,27088920,25357688,27093480,25356776,2484,1397,-111,1916,-1891,1278,-1888,1982,48,37,803
1109443,27089164,25357848,27093677,25356973,2139,1363,233,220,-1619,1566,-2176,51,43,29,802
1110445,27089364,25358036,27093874,25357170,2413,1191,443,-1341,-1337,1363,-2018,2089,43,29,802
1111446,27089576,25358160,27094071,25357367,2333,1623,945,-1741,-1024,666,-2336,8439,53,24,803
1112447,27089820,25358268,27094268,25357564,2113,1762,1513,-1658,-798,428,-1934,6647,53,24,803
1113448,27090016,25358368,27094465,25357761,2415,1855,1774,-1817,-750,179,-739,3955,32,18,802
1114449,27090212,25358460,27094662,25357958,2416,1951,1778,-2107,-910,-454,733,4255,32,18,802
1115450,27090464,25358588,27094859,25358155,2043,1756,1693,-2286,-1212,-1166,1151,4724,50,29,800
1116451,27090692,25358672,27095056,25358352,2179,2081,1627,-2049,-1509,-1849,235,5801,50,29,800
1117452,27090920,25358736,27095253,25358549,2167,2264,1591,-1482,-1719,-2120,-1368,6303,61,24,801
1118453,27091204,25358776,27095450,25358746,1779,2483,1554,-732,-1870,-2396,-1897,6855,61,24,801
1119454,27091460,25358876,27095647,25358943,1929,2151,1503,92,-2016,-2750,-1248,7240,46,22,800
1120455,27091696,25358976,27095844,25359140,2038,2194,1439,987,-2192,-2816,-326,7601,46,22,800
1121456,27091928,25359132,27096041,25359337,2048,1862,1434,1821,-2384,-2549,841,6908,59,22,801
1122457,27092204,25359256,27096238,25359534,1739,2094,1463,2383,-2553,-2202,1378,6035,59,22,801
1123458,27092484,25359364,27096435,25359731,1679,2233,1481,2591,-2685,-1748,1868,5075,62,35,802
1124459,27092744,25359436,27096632,25359928,1777,2513,1487,2485,-2758,-1181,2069,4154,62,35,802
1125460,27093016,25359568,27096829,25360125,1670,2166,1476,2108,-2746,-690,1824,3182,48,18,801
1126461,27093264,25359704,27097026,25360322,1798,2168,1442,1513,-2609,-310,1062,2503,48,18,801
1127462,27093488,25359836,27097223,25360519,1937,2222,1416,736,-2362,78,679,1840,57,33,801
1128463,27093780,25359976,27097420,25360716,1471,2197,1426,-200,-2076,440,510,1269,57,33,801
1129464,27094028,25360056,27097617,25360913,1724,2623,1472,-1176,-1801,546,380,950,58,22,801
1130465,27094268,25360136,27097814,25361110,1756,2676,1509,-2234,-1549,484,234,751,58,22,801
1131466,27094580,25360244,27098011,25361307,1256,2540,1521,-3225,-1339,463,96,1010,45,24,801
1132467,27094836,25360376,27098208,25361504,1580,2418,1485,-4056,-1183,327,720,1366,45,24,801
1133468,27095064,25360504,27098405,25361701,1743,2474,1411,-4667,-1061,19,872,1859,48,35,801
1134469,27095364,25360640,27098602,25361898,1248,2450,1272,-5086,-954,-296,122,2562,48,35,801
1135470,27095612,25360772,27098799,25362095,1551,2505,1110,-5223,-862,-605,-488,3227,59,33,800
1136471,27095872,25360880,27098996,25362292,1449,2694,930,-5141,-813,-878,-494,3730,59,33,800
1137472,27096140,25361000,27099193,25362489,1368,2653,725,-4905,-834,-1082,-668,4192,42,23,799
1138473,27096412,25361120,27099390,25362686,1311,2687,561,-4552,-862,-1214,-985,4442,42,23,799
1139474,27096700,25361288,27099587,25362883,1172,2400,459,-4153,-932,-1141,77,4424,48,19,800
1140475,27096932,25361408,27099784,25363080,1507,2734,354,-3792,-1048,-836,1488,4109,48,19,800
1141475,27097220,25361540,27099981,25363277,1118,2688,212,-3522,-1146,-568,1779,3910,56,19,802
1142477,27097452,25361628,27100178,25363474,1452,3012,108,-3365,-1197,-264,1319,3311,56,19,802
1143477,27097712,25361744,27100375,25363671,1251,2872,78,-3462,-1179,-71,805,2455,58,25,801
1144479,27098008,25361888,27100572,25363868,982,2721,117,-3716,-1096,74,775,2003,58,25,801
1145480,27098280,25362044,27100769,25364065,1100,2665,143,-3993,-973,273,810,2007,64,37,799
1146481,27098516,25362192,27100966,25364262,1308,2736,159,-4155,-837,337,235,2186,64,37,799
1147482,27098780,25362352,27101163,25364459,1105,2677,184,-4243,-707,293,25,2212,47,23,801
1148483,27099040,25362468,27101360,25364656,1102,2989,222,-4317,-634,246,64,2238,47,23,801
1149484,27099288,25362600,27101557,25364853,1156,2918,275,-4344,-607,155,127,2261,43,30,799
1150485,27099512,25362720,27101754,25365050,1294,3027,330,-4312,-583,25,-174,2373,43,30,799
1151486,27099784,25362864,27101951,25365247,961,2901,378,-4248,-557,-64,-586,2398,57,32,799
1152487,27100004,25363016,27102148,25365444,1277,2871,403,-4113,-534,-184,-841,2615,57,32,799
1153488,27100224,25363164,27102345,25365641,1267,2918,409,-3856,-509,-247,-1157,2866,39,31,800
1154489,27100472,25363284,27102542,25365838,1070,3128,396,-3557,-463,-371,-1545,2992,39,31,800
1155490,27100688,25363432,27102739,25366035,1262,2974,376,-3248,-428,-520,-1592,2789,34,38,799
1156491,27100884,25363560,27102936,25366232,1387,3131,368,-3028,-424,-482,-1648,2412,34,38,799
1157492,27101116,25363708,27103133,25366429,1148,3027,361,-2877,-418,-423,-1715,2332,34,27,799
1158493,27101324,25363848,27103330,25366626,1293,3103,357,-2746,-387,-439,-1750,2352,34,27,799
1159494,27101516,25363996,27103527,25366823,1396,3075,333,-2599,-355,-259,-1671,2169,45,41,798
1160495,27101784,25364140,27103724,25367020,890,3124,307,-2546,-322,-54,-1500,1841,45,41,798
1161496,27102012,25364300,27103921,25367217,1126,3040,274,-2587,-288,38,-966,1381,49,37,798
1162497,27102232,25364480,27104118,25367414,1167,2924,217,-2813,-272,112,-117,929,49,37,798
1163498,27102476,25364696,27104315,25367611,997,2691,126,-3103,-240,292,249,782,35,46,799
1164499,27102672,25364896,27104512,25367808,1297,2790,16,-3444,-174,606,417,701,35,46,799
1165500,27102928,25365124,27104709,25368005,897,2602,-107,-3733,-90,839,601,769,56,35,801
1166501,27103196,25365308,27104906,25368202,791,2883,-242,-3984,7,900,711,812,56,35,801
1167502,27103420,25365512,27105103,25368399,1054,2756,-387,-4231,116,976,590,968,58,42,802
1168503,27103668,25365728,27105300,25368596,883,2673,-541,-4377,248,1021,284,1286,58,42,802
1169504,27103924,25365960,27105497,25368793,807,2558,-716,-4357,409,948,-114,1751,54,50,801
1170505,27104176,25366208,27105694,25368990,808,2436,-920,-4239,577,849,-346,2067,54,50,801
1171506,27104396,25366436,27105891,25369187,998,2548,-1152,-4064,715,840,-374,2337,41,47,802
1172507,27104648,25366624,27106088,25369384,774,2802,-1410,-3792,820,891,-711,2659,41,47,802
1173514,27104856,25366836,27106318,25369614,1059,2661,-1664,-3397,908,893,-952,2859,56,51,803
1174509,27105088,25367056,27106515,25369811,895,2601,-1922,-3098,985,924,-1055,2861,56,51,803
1175510,27105340,25367288,27106712,25370008,745,2512,-2174,-2808,1050,1005,-1104,2966,49,49,801
1176511,27105544,25367540,27106909,25370205,1042,2363,-2417,-2544,1109,1059,-988,2780,49,49,801
1177512,27105756,25367780,27107106,25370402,986,2420,-2651,-2422,1137,1051,-914,2424,34,58,802
1178513,27105940,25368012,27107303,25370599,1167,2454,-2869,-2471,1155,1105,-855,2207,34,58,802
1179514,27106120,25368232,27107500,25370796,1200,2520,-3040,-2603,1174,1275,-707,1954,48,57,803
1180515,27106328,25368504,27107697,25370993,1020,2162,-3175,-2781,1171,1469,-469,1860,48,57,803
1181516,27106532,25368772,27107894,25371190,1042,2157,-3266,-3054,1144,1538,-447,1788,38,55,801
1182517,27106720,25368988,27108091,25371387,1147,2474,-3334,-3315,1102,1731,-777,1929,38,55,801
1183518,27106892,25369216,27108288,25371584,1258,2386,-3380,-3612,1059,1967,-1019,1978,43,35,804
1184519,27107092,25369452,27108485,25371781,1082,2319,-3435,-3843,1053,2108,-1203,2336,43,35,804
1185520,27107268,25369684,27108682,25371978,1241,2330,-3519,-4025,1063,2222,-1278,2570,40,49,803
1186521,27107452,25369920,27108879,25372175,1198,2287,-3623,-4180,1061,2258,-1307,2768,40,49,803
1187522,27107628,25370200,27109076,25372372,1257,1976,-3696,-4309,1043,2262,-1160,3023,26,42,804
1188523,27107812,25370432,27109273,25372569,1213,2262,-3750,-4404,998,2410,-1016,3186,26,42,804
1189524,27107968,25370624,27109470,25372766,1406,2514,-3829,-4428,959,2612,-1007,3725,35,54,803
1190525,27108136,25370832,27109667,25372963,1344,2410,-3933,-4300,976,2680,-1012,4362,35,54,803
1191526,27108300,25371064,27109864,25373160,1384,2245,-4054,-4031,1032,2815,-1090,4855,23,54,803
1192527,27108432,25371348,27110061,25373357,1612,1881,-4150,-3667,1104,2823,-1110,5199,23,54,803
1193528,27108620,25371568,27110258,25373554,1267,2272,-4135,-3225,1177,2910,-1006,6268,28,46,802
1194529,27108804,25371764,27110455,25373751,1298,2423,-1972,1199,1316,4613,-2272,32767,28,46,802
1195530,27108920,25371932,27110652,25373948,1759,2611,1383,7596,1520,3849,-3014,32767,31,44,803
1196530,27109092,25372132,27110849,25374145,1421,2410,2861,9349,1489,3261,353,2919,31,44,803
1197532,27109256,25372316,27111046,25374342,1485,2516,2511,7401,1414,3486,-107,612,41,31,802
1198533,27109396,25372552,27111243,25374539,1660,2175,1921,4984,1428,3841,-1245,-31,41,31,802
1199534,27109568,25372700,27111440,25374736,1472,2746,1510,3364,1550,3487,-1366,580,22,31,802
1200535,27109732,25372884,27111637,25374933,1537,2528,1368,2170,1663,3145,-1041,-77,22,31,802
1201536,27109888,25373028,27111834,25375130,1605,2801,1180,1023,1629,3115,-737,180,30,40,801
1202537,27110036,25373212,27112031,25375327,1677,2557,983,-273,1526,2262,-444,26,30,40,801
1203538,27110240,25373384,27112228,25375524,1324,2644,726,-1426,1412,1818,-618,1040,38,33,800
1204539,27110380,25373528,27112425,25375721,1749,2842,418,-2206,1279,1410,-779,1942,38,33,800
1205540,27110520,25373684,27112622,25375918,1775,2786,67,-2623,1214,645,-903,3130,26,30,799
1206541,27110704,25373804,27112819,25376115,1506,3045,-317,-2591,1161,130,-1057,4306,26,30,799
1207542,27110908,25373992,27113016,25376312,1379,2624,-660,-2546,1072,-590,-930,4206,25,29,798
1208542,27111044,25374164,27113213,25376509,1831,2736,-935,-2261,1010,-1165,-849,5304,25,29,798
1209544,27111244,25374376,27113410,25376706,1429,2479,-1124,-1953,971,-1488,-774,4995,45,27,798
1210545,27111432,25374528,27113607,25376903,1509,2875,-1245,-1722,935,-1989,-635,5170,45,27,798
1211546,27111576,25374708,27113804,25377100,1808,2708,-1306,-1389,927,-2555,-628,5358,25,30,798
1212547,27111740,25374820,27114001,25377297,1698,3171,-1332,-1149,979,-2696,-953,5138,25,30,798
1213548,27111952,25374992,27114198,25377494,1392,2807,-1341,-778,1113,-2705,-1139,5690,36,29,799
1214549,27112116,25375196,27114395,25377691,1707,2605,-1331,-437,1308,-2787,-887,5496,36,29,799
1215550,27112276,25375400,27114592,25377888,1748,2602,-1314,-134,1496,-2501,-559,5506,25,32,795
1216551,27112452,25375600,27114789,25378085,1658,2627,-1289,43,1686,-2416,-370,5109,25,32,795
1217552,27112624,25375808,27114986,25378282,1694,2572,-1205,38,1909,-2415,-334,4523,44,30,800
1218553,27112756,25375976,27115183,25378479,1973,2834,-1056,-146,2145,-2321,-308,3947,44,30,800
1219554,27112932,25376132,27115380,25378676,1708,2928,-833,-555,2404,-2142,-294,3462,24,40,800
1220555,27113096,25376360,27115577,25378873,1798,2465,-584,-987,2683,-1762,-327,3414,24,40,800
1221556,27113220,25376588,27115774,25379070,2081,2452,-317,-1519,2967,-1454,-583,3036,42,49,798
1222557,27113388,25376792,27115971,25379267,1819,2599,-64,-1988,3259,-1262,-923,3237,42,49,798
1223558,27113568,25376988,27116168,25379464,1752,2651,169,-2469,3525,-981,-1004,3061,25,44,800
1224559,27113668,25377172,27116365,25379661,2295,2731,391,-2962,3711,-746,-857,3113,25,44,800
1225560,27113820,25377404,27116562,25379858,1990,2417,583,-3391,3810,-694,-934,3450,36,32,798
1226561,27113988,25377604,27116759,25380055,1903,2616,756,-3828,3866,-476,-1075,3398,36,32,798
1227562,27114112,25377776,27116956,25380252,2211,2803,893,-4126,3895,-33,-949,3918,44,44,796
1228563,27114248,25378032,27117153,25380449,2163,2252,1022,-4302,3891,384,-678,4066,44,44,796
1229564,27114412,25378308,27117350,25380646,2004,2093,1129,-4369,3836,719,-683,4426,27,62,799
1230565,27114528,25378536,27117547,25380843,2339,2379,1224,-4397,3766,881,-845,4599,27,62,799
1231566,27114632,25378752,27117744,25381040,2456,2447,1306,-4305,3704,1128,-630,5111,31,57,799
1232567,27114812,25378988,27117941,25381237,1990,2305,1369,-4091,3623,1339,-230,5312,31,57,799
1233567,27114968,25379252,27118138,25381434,2158,2100,1425,-3857,3519,1376,-117,5378,28,45,799
1234569,27115096,25379516,27118335,25381631,2364,2072,1462,-3510,3414,1518,-205,5761,28,45,799
1235569,27115272,25379752,27118532,25381828,2073,2230,1500,-3183,3312,1773,-3,5615,44,57,800
1236571,27115416,25379968,27118729,25382025,2297,2347,1527,-2809,3227,1989,0,5801,44,57,800
1237571,27115556,25380200,27118926,25382222,2348,2232,1566,-2452,3151,2114,113,5540,26,45,798
1238573,27115696,25380444,27119123,25382419,2374,2136,1629,-2240,3052,2237,222,5212,26,45,798
1239574,27115884,25380712,27119320,25382616,2078,1956,1707,-2042,2935,2212,216,5166,30,49,799
1240575,27116024,25380956,27119517,25382813,2405,2086,1791,-1827,2823,2067,114,5150,30,49,799
1241575,27116160,25381152,27119714,25383010,2456,2386,1863,-1506,2726,1968,116,5297,25,37,799
1242577,27116332,25381380,27119911,25383207,2243,2173,1926,-1207,2680,1765,-28,5270,25,37,799
1243578,27116436,25381588,27120108,25383404,2710,2294,1968,-881,2683,1750,-54,5256,32,51,799
1244579,27116540,25381752,27120305,25383601,2751,2584,1997,-582,2677,1603,122,4977,32,51,799
1245580,27116732,25382008,27120502,25383798,2204,1983,2032,-358,2645,1316,260,4716,38,41,799
1246581,27116828,25382272,27120699,25383995,2850,1904,2080,-233,2610,1353,354,4570,38,41,799
1247582,27116936,25382512,27120896,25384192,2815,2036,2110,-45,2576,1306,328,4726,39,45,794
1248583,27117056,25382748,27121093,25384389,2774,2044,2126,276,2606,1141,272,4910,39,45,794
1249584,27117220,25382948,27121290,25384586,2514,2267,2138,575,2644,812,387,4636,31,56,797
1250585,27117324,25383160,27121487,25384783,2931,2186,2139,826,2628,562,479,4580,31,56,797
1251586,27117476,25383440,27121684,25384980,2652,1725,2115,1099,2619,428,214,4577,22,55,797
1252587,27117624,25383708,27121881,25385177,2698,1769,2092,1339,2653,143,-199,4326,22,55,797
1253587,27117752,25383980,27122078,25385374,2855,1711,2081,1522,2693,-234,-233,4090,40,44,795
1254589,27117872,25384236,27122275,25385571,2939,1786,2072,1657,2737,-384,-65,3962,40,44,795
1255590,27118044,25384476,27122472,25385768,2626,1867,2050,1763,2742,-336,204,3680,35,60,799
1256598,27118184,25384744,27122702,25385998,2867,1676,2045,1737,2723,-304,409,3033,35,60,799
1257591,27118316,25385044,27122899,25386195,2947,1430,2051,1627,2703,-221,599,2927,43,56,798
1258593,27118500,25385328,27123096,25386392,2627,1493,2034,1564,2669,-168,737,3012,43,56,798
1259594,27118708,25385632,27123293,25386589,2473,1321,1979,1574,2625,-277,730,3008,49,59,798
1260595,27118904,25385896,27123490,25386786,2550,1542,1915,1520,2594,-409,757,2740,49,59,798
1261596,27119104,25386224,27123687,25386983,2525,1084,1835,1429,2580,-674,343,2773,31,55,800
1262597,27119280,25386508,27123884,25387180,2685,1321,1711,1438,2599,-770,-216,3016,31,55,800
1263598,27119464,25386760,27124081,25387377,2641,1497,1597,1308,2622,-561,339,2336,32,63,801
1264599,27119680,25387036,27124278,25387574,2434,1313,1512,1044,2603,-292,1037,1970,32,63,801
1265599,27119896,25387352,27124475,25387771,2427,1011,1428,717,2588,110,1280,1800,44,47,801
1266601,27120140,25387652,27124672,25387968,2231,1065,1309,518,2605,406,1287,2143,44,47,801
1267602,27120360,25387936,27124869,25388165,2372,1127,1171,410,2673,296,1095,2334,45,65,803
1268603,27120604,25388232,27125066,25388362,2202,1009,1045,413,2758,120,1102,2469,45,65,803
1269603,27120820,25388496,27125263,25388559,2370,1179,958,345,2798,116,1202,2105,46,61,803
1270605,27121048,25388764,27125460,25388756,2282,1123,909,148,2775,295,1103,1839,46,61,803
1271606,27121304,25389084,27125657,25388953,2082,744,846,-34,2768,766,1066,1988,43,63,803
1272607,27121548,25389380,27125854,25389150,2138,850,763,-125,2805,1097,953,2054,43,63,803
1273608,27121796,25389680,27126051,25389347,2090,780,674,-127,2874,1027,837,2153,51,45,804
1274608,27122048,25389988,27126248,25389544,2042,681,602,-70,2938,811,927,2174,51,45,804
1275610,27122284,25390256,27126445,25389741,2126,900,517,-65,2964,722,954,2028,52,55,805
1276611,27122528,25390588,27126642,25389938,2056,441,407,7,2995,1085,650,2262,52,55,805
1277612,27122792,25390896,27126839,25390135,1903,541,281,147,3046,1495,425,2260,61,44,806
1278613,27123068,25391012,27127036,25390332,1793,1777,148,333,3106,1608,170,2368,61,44,806
1279614,27123308,25391168,27127233,25390529,2000,1545,29,616,3146,1415,226,2517,62,41,807
1280615,27123584,25391356,27127430,25390726,1742,1349,-70,853,3176,1136,162,2356,62,41,807
1281616,27123844,25391632,27127627,25390923,1815,764,-183,1158,3152,1050,49,2482,52,56,803
1282617,27124132,25391944,27127824,25391120,1600,488,-313,1493,3080,1179,-138,2404,52,56,803
1283618,27124404,25392224,27128021,25391317,1668,652,-452,1778,2962,1300,-256,2180,45,61,805
1284619,27124672,25392460,27128218,25391514,1663,909,-588,2044,2810,984,-67,2086,45,61,805
1285620,27124920,25392676,27128415,25391711,1765,1025,-703,2197,2598,500,124,1645,62,50,808
1286621,27125164,25392892,27128612,25391908,1771,1017,-838,2318,2317,201,113,1691,62,50,808
1287622,27125464,25393124,27128809,25392105,1376,902,-1042,2580,2052,128,-454,2181,38,49,807
1288623,27125728,25393388,27129006,25392302,1572,672,-1353,2999,1785,30,-981,2522,38,49,807
1289624,27125968,25393664,27129203,25392499,1704,562,-1694,3419,1465,-473,-722,2303,43,43,806
1290625,27126248,25393872,27129400,25392696,1419,982,-1998,3597,1094,-913,-275,1590,43,43,806
1291626,27126472,25394108,27129597,25392893,1757,790,-2263,3584,695,-827,-124,1270,54,44,807
1292627,27126732,25394344,27129794,25393090,1505,772,-2533,3497,334,-560,-201,1256,54,44,807
1293628,27127032,25394592,27129991,25393287,1210,675,-2830,3482,36,-317,-311,1288,53,36,807
1294629,27127288,25394832,27130188,25393484,1460,705,-3132,3436,-234,-238,-271,1148,53,36,807
