"Data file recorded 2014/9/24  14:52:8"
"%  Right Stride Frequency         = 5.0"
"%  Left Stride Frequency         = 5.0"
"%  Phase (Fractional)         = 32768.0"
"%  Experiment.py "
"%  Motor Gains    = [1800, 200, 100, 0, 0, 1800, 200, 100, 0, 0]
"% Columns: "
"% time | Right Leg Pos | Left Leg Pos | Commanded Right Leg Pos | Commanded Left Leg Pos | DCR | DCL | GyroX | GryoY | GryoZ | AX | AY | AZ | RBEMF | LBEMF | VBatt "
12212,3255864,3544488,3220289,3580737,-3800,3800,-316,-2881,779,607,-246,4024,9,-5,879
13213,3255852,3544496,3220616,3581064,-3800,3800,-315,-2879,777,595,-264,4037,-12,-3,880
14214,3255772,3544532,3220943,3581391,-3800,3800,-313,-2879,779,602,-293,4064,-12,-3,880
15215,3255648,3544592,3221270,3581718,-3800,3800,-315,-2878,775,587,-295,4072,-34,0,845
16216,3255448,3544656,3221597,3582045,-3800,3800,-327,-2897,772,588,-258,4103,-34,0,845
17217,3255144,3544716,3221924,3582372,-3800,3800,-355,-2812,789,655,-405,4220,-61,-4,846
18218,3254792,3544752,3222251,3582699,-3800,3800,-389,-2760,809,624,-137,4168,-61,-4,846
19219,3254340,3544800,3222578,3583026,-3800,3800,-421,-2742,815,595,75,4038,-92,-4,846
20220,3253836,3544840,3222905,3583353,-3800,3800,-454,-2795,814,675,116,3941,-92,-4,846
21221,3253276,3544924,3223232,3583680,-3800,3800,-490,-2856,814,841,338,3929,-103,-2,847
22222,3252656,3545004,3223559,3584007,-3800,3800,-542,-2867,849,1242,-285,4140,-103,-2,847
23223,3252020,3545072,3223886,3584334,-3800,3800,-637,-2712,976,1557,-906,4521,-121,-4,848
24224,3251372,3545156,3224213,3584661,-3800,3800,-736,-2609,1129,1756,-486,4255,-121,-4,848
25225,3250600,3545224,3224540,3584988,-3800,3800,-825,-2580,1236,2113,-102,4168,-124,-2,849
26226,3249968,3545316,3224867,3585315,-3800,3800,-897,-2568,1341,2590,104,4207,-124,-2,849
27227,3249296,3545396,3225194,3585642,-3800,3800,-990,-2518,1483,3039,86,4538,-144,-1,848
28228,3248556,3545496,3225521,3585969,-3800,3800,-1131,-2344,1607,3186,20,4781,-144,-1,848
29229,3247960,3545572,3225848,3586296,-3800,3800,-1294,-2063,1680,2972,-174,5136,-131,-4,846
30231,3247380,3545676,3226175,3586623,-3800,3800,-1479,-1657,1731,2935,-589,5382,-131,-4,846
31231,3246804,3545748,3226502,3586950,-3800,3800,-1672,-1242,1799,2984,-1125,5510,-115,-4,849
32233,3246252,3545820,3226829,3587277,-3800,3800,-1846,-828,1866,2801,-1353,5448,-115,-4,849
33233,3245772,3545872,3227156,3587604,-3800,3800,-1970,-550,1875,2808,-1414,5041,-99,0,847
34234,3245312,3545940,3227483,3587931,-3800,3800,-2054,-363,1862,2675,-1662,4921,-99,0,847
35235,3244864,3546032,3227810,3588258,-3800,3800,-2141,-146,1904,2568,-2053,5239,-89,-2,847
36236,3244440,3546076,3228137,3588585,-3800,3800,-2197,98,2010,2503,-2283,4992,-89,-2,847
37237,3244032,3546132,3228464,3588912,-3800,3800,-2205,191,2131,2491,-2327,4722,-86,-7,846
38226,3243588,3546168,3228791,3589239,-3653,3800,-2180,345,2251,2425,-2736,4949,-86,-7,846
39227,3243204,3546232,3229118,3589566,-3719,3800,-2130,499,2384,2140,-2949,5042,-91,-6,846
40228,3242752,3546292,3229445,3589893,-2953,3800,-2090,657,2516,1753,-3116,5235,-91,-6,846
41229,3242312,3546368,3229772,3590220,-2694,3800,-2096,951,2684,1621,-3334,5722,-71,-5,847
42230,3241936,3546420,3230099,3590547,-2787,3800,-2048,1211,2834,1626,-2603,5258,-71,-5,847
43231,3241556,3546480,3230426,3590874,-2455,3800,-1950,1337,2855,1301,-2143,5022,-84,-1,851
44232,3241184,3546548,3230753,3591201,-2199,3800,-1806,1260,2821,1089,-2235,4561,-84,-1,851
45232,3240872,3546588,3231080,3591528,-2296,3800,-924,2416,2893,757,-3396,15557,-54,-6,851
46233,3240524,3546664,3231407,3591855,-1776,3800,795,5400,3094,185,-4221,26454,-54,-6,851
47234,3240172,3546712,3231734,3592182,-1454,3800,1802,6527,3109,186,-2264,5362,-48,-5,853
48235,3239816,3546776,3232061,3592509,-1130,3800,1887,5998,3018,-31,-2284,3391,-48,-5,853
49236,3239444,3546832,3232388,3592836,-724,3800,1638,4990,2952,88,-2540,3003,-69,-2,854
50238,3239096,3546896,3232715,3593163,-580,3800,1492,4288,2906,-106,-2308,3113,-69,-2,854
51238,3238760,3546960,3233042,3593490,-364,3800,1509,3676,2872,-891,-1509,2668,-57,-2,857
52239,3238436,3547032,3233369,3593817,-154,3800,1600,3020,2742,-1357,-523,2440,-57,-2,857
53240,3238152,3547124,3233696,3594144,-137,3800,1679,2282,2521,-1875,557,2269,-67,5,859
54241,3237864,3547176,3234023,3594471,158,3800,1710,1457,2186,-2390,1759,2236,-67,5,859
55242,3237628,3547284,3234350,3594798,79,3800,1609,728,1700,-2534,2734,2317,-63,3,860
56243,3237424,3547388,3234677,3595125,112,3800,1474,-104,1206,-2909,2959,2068,-63,3,860
57244,3237204,3547496,3235004,3595452,452,3800,1305,-883,821,-3209,2636,2363,-33,9,860
58245,3237056,3547636,3235331,3595779,210,3800,1113,-1602,545,-3592,1990,2570,-33,9,860
59246,3236932,3547752,3235658,3596106,258,3800,878,-2222,332,-4171,1724,3022,-24,27,860
60247,3236832,3547936,3235985,3596433,295,3800,608,-2726,114,-4350,2119,3076,-24,27,860
61248,3236764,3548096,3236312,3596760,269,3800,343,-3354,-116,-4364,2738,2644,-26,22,860
62249,3236720,3548308,3236639,3597087,282,3800,142,-4066,-284,-4065,3010,2584,-26,22,860
63250,3236696,3548524,3236966,3597414,311,3800,23,-4873,-338,-3681,2774,2254,1,35,861
64251,3236708,3548756,3237293,3597741,225,3800,-26,-5767,-281,-3388,2383,1959,1,35,861
65252,3236716,3549028,3237620,3598068,390,3800,-50,-6668,-125,-3140,1723,1941,4,54,861
66253,3236712,3549324,3237947,3598395,610,3800,-49,-7596,103,-2932,791,1669,4,54,861
67254,3236704,3549620,3238274,3598722,783,3800,19,-8492,376,-2745,389,1790,-4,46,861
68255,3236708,3549904,3238601,3599049,850,3800,186,-9286,725,-2681,84,1942,-4,46,861
69256,3236740,3550220,3238928,3599376,805,3800,418,-9990,1116,-2605,401,2342,-1,50,859
70257,3236776,3550568,3239255,3599703,909,3800,611,-10480,1488,-2549,1046,2959,-1,50,859
71258,3236844,3550952,3239582,3600030,823,3800,735,-10799,1838,-2491,1161,3475,14,71,860
72259,3236884,3551300,3239909,3600357,1125,3800,822,-10888,2204,-2204,673,4071,14,71,860
73260,3236932,3551652,3240236,3600684,1197,3800,931,-10864,2542,-1934,668,4225,19,63,860
74261,3237000,3552056,3240563,3601011,1187,3800,1067,-10750,2799,-1794,843,4410,19,63,860
75262,3237076,3552452,3240890,3601338,1248,3800,1207,-10605,2970,-1473,661,4217,17,67,859
76263,3237180,3552868,3241217,3601665,1172,3800,1332,-10411,3114,-1132,629,4374,17,67,859
77264,3237284,3553344,3241544,3601992,1271,3800,1455,-10127,3312,-809,656,4639,25,73,860
78265,3237392,3553764,3241871,3602319,1343,3800,1577,-9798,3509,-447,817,4511,25,73,860
79266,3237496,3554160,3242198,3602646,1467,3800,1705,-9461,3664,-59,928,4368,35,70,860
80267,3237624,3554552,3242525,3602973,1405,3800,1837,-9129,3794,268,1092,4188,35,70,860
81268,3237760,3555024,3242852,3603300,1439,3800,1980,-8861,3894,626,1144,3802,34,89,858
82269,3237896,3555468,3243179,3603627,1524,3800,2122,-8645,3932,960,1118,3534,34,89,858
83270,3238040,3555936,3243506,3603954,1556,3800,2280,-8508,3932,1247,1067,3156,46,78,858
84271,3238184,3556396,3243833,3604281,1637,3800,2480,-8422,3959,1616,827,2847,46,78,858
85272,3238344,3556816,3244160,3604608,1612,3800,2693,-8333,3996,1847,801,2738,45,84,859
86273,3238508,3557288,3244487,3604935,1660,3800,2912,-8277,4006,2070,678,2399,45,84,859
87274,3238704,3557732,3244814,3605262,1519,3800,3147,-8174,4004,2248,703,2342,34,79,859
88275,3238872,3558184,3245141,3605589,1764,3800,3360,-7992,3956,2281,668,2478,34,79,859
89277,3239080,3558600,3245468,3605916,1568,3800,3565,-7777,3870,2310,744,2341,50,76,859
90277,3239268,3559068,3245795,3606243,1755,3800,3739,-7434,3721,2170,1067,2880,50,76,859
91278,3239452,3559476,3246122,3606570,1845,3800,3778,-6708,3494,2312,1192,3995,48,82,858
92279,3239672,3559956,3246449,3606897,1668,3800,3704,-5778,3294,2750,1233,4120,48,82,858
93280,3239876,3560496,3246776,3607224,1823,3800,3616,-4803,3071,2837,1977,4042,41,79,856
94289,3240092,3560964,3236346,3596794,-1092,3800,3506,-3833,2770,2828,2227,4058,41,79,856
95282,3240336,3561548,3236673,3597121,-1231,3800,3344,-2898,2414,2893,2385,3983,48,94,859
96283,3240484,3562140,3237000,3597448,-554,3800,3174,-2040,2091,2958,2743,3579,48,94,859
97284,3240592,3562716,3237327,3597775,-208,3800,3037,-1370,1807,2994,2731,2768,45,91,860
98286,3240696,3563388,3237654,3598102,-85,3800,2972,-1023,1563,2874,2298,1702,45,91,860
99286,3240752,3564008,3237981,3598429,333,3800,2984,-922,1379,2646,2116,1225,30,113,864
100287,3240788,3564732,3238308,3598756,586,3800,3019,-883,1197,2592,2019,815,30,113,864
101288,3240816,3565380,3238635,3599083,766,3800,3091,-1016,1028,2505,1888,71,12,126,865
102289,3240864,3566176,3238962,3599410,764,3800,3179,-1153,901,2519,1847,195,12,126,865
103290,3240916,3566880,3239289,3599737,859,3800,3247,-1262,781,2623,1647,194,22,136,863
104291,3240956,3567708,3239616,3600064,1060,3800,3282,-1330,688,2599,1994,433,22,136,863
105292,3241016,3568560,3239943,3600391,1052,3800,3268,-1237,634,2642,2282,825,15,154,864
106293,3241080,3569416,3240270,3600718,1143,3800,3155,-903,611,2808,2449,1481,15,154,864
107294,3241148,3570300,3240597,3601045,1230,3800,2933,-322,625,2975,2522,2344,31,170,863
108295,3241256,3571208,3240924,3601372,1077,3800,2638,489,656,3160,2659,2787,31,170,863
109296,3241348,3572164,3241251,3601699,1280,3800,2279,1300,682,3197,2671,2938,36,172,864
110297,3241456,3573072,3241578,3602026,1276,3800,1866,2168,671,3096,2542,3280,36,172,864
111298,3241600,3573968,3241905,3602353,1132,3800,1416,3030,609,3016,2121,3156,26,170,865
112299,3241728,3574888,3242232,3602680,1319,3800,956,3813,533,2896,1561,2826,26,170,865
113300,3241860,3575656,3242559,3603007,1380,3800,450,4543,437,2872,973,2816,49,167,864
114301,3242036,3576464,3242886,3603334,1172,3800,-86,5189,348,2861,-22,2540,49,167,864
115302,3242192,3577284,3243213,3603661,1372,3800,-619,5669,252,2718,-859,2000,40,161,864
116303,3242400,3578056,3243540,3603988,1099,3800,-1130,5872,37,2675,-767,1071,40,161,864
117304,3242592,3578784,3243867,3604315,1259,3800,-1637,5713,-392,2476,-316,38,39,152,864
118305,3242812,3579452,3244194,3604642,1131,3800,-2146,5384,-984,2282,-476,-322,39,152,864
119306,3243032,3580172,3244521,3604969,1179,3800,-2684,5080,-1622,2013,-1160,-210,59,146,864
120307,3243248,3580756,3244848,3605296,1253,3800,-3324,4943,-2221,1738,-2311,560,59,146,864
121308,3243484,3581412,3245175,3605623,1168,3800,-4021,5001,-2763,1578,-3122,841,60,123,863
122309,3243736,3582136,3245502,3605950,1102,3800,-4659,4778,-3361,1391,-2883,-133,60,123,863
123310,3243956,3582796,3245829,3606277,1349,3800,-5179,4276,-4038,1395,-2772,-768,61,144,862
124311,3244220,3583428,3246156,3606604,1101,3800,-5651,3484,-4697,1389,-2831,-1285,61,144,862
125312,3244440,3584068,3246483,3606931,1424,3800,-6184,2628,-5334,1276,-2954,-1441,63,129,861
126313,3244688,3584736,3246810,3607258,1284,3800,-6660,1532,-5995,1013,-2955,-2344,63,129,861
127314,3244948,3585444,3247137,3607585,1238,3800,-7013,238,-6728,773,-2429,-2664,63,142,862
128315,3245232,3586228,3247464,3607912,1108,3800,-7282,-1164,-7499,595,-1978,-2705,63,142,862
129316,3245440,3586992,3247791,3608239,1636,3800,-7503,-2539,-8190,451,-1280,-2535,65,151,862
130317,3245704,3587664,3248118,3608566,1314,3800,-7701,-3739,-8655,387,-1036,-1774,65,151,862
131318,3245980,3588396,3248445,3608893,1262,3800,-7939,-4511,-8735,332,-2468,-376,64,147,864
132319,3246212,3589096,3248772,3609220,1580,3800,-8161,-5083,-8569,-236,-3458,-105,64,147,864
133320,3246504,3590032,3249099,3609547,1220,3800,-8295,-5767,-8325,-871,-4335,-236,64,148,863
134321,3246804,3590676,3249426,3609874,1183,3800,-8302,-6522,-8014,-1287,-5035,207,64,148,863
135322,3247064,3591456,3249753,3610201,1462,3800,-8262,-7033,-7606,-1631,-5278,1294,54,142,862
136323,3247324,3592388,3250080,3610528,1493,3800,-8216,-7145,-7091,-2153,-5681,2510,54,142,862
137324,3247616,3593284,3250407,3610855,1308,3800,-8101,-7192,-6443,-2685,-6164,2532,53,174,863
138325,3247928,3594120,3250734,3611182,1191,3800,-7908,-7366,-5669,-2927,-6321,2306,53,174,863
139326,3248180,3595056,3251061,3611509,1599,3800,-7672,-7686,-4777,-2873,-6412,2665,78,182,864
140327,3248480,3595980,3251388,3611836,1311,3800,-7429,-7716,-3843,-2834,-6484,3860,78,182,864
141315,3248780,3597044,3251715,3612163,1323,2973,-7193,-7711,-2914,-3050,-6255,3967,76,201,866
142316,3249068,3598072,3252042,3612490,1416,2893,-6905,-7718,-2005,-2997,-6136,4344,76,201,866
143317,3249376,3599160,3252369,3612817,1300,2186,-6557,-7704,-1118,-2781,-5853,4541,68,226,866
144325,3249664,3600288,3252730,3613178,1458,1602,-5920,-7598,-244,-2689,-5354,6590,68,226,866
145319,3249996,3601248,3253057,3613505,1182,2376,-1514,-452,301,4324,-3386,32767,68,203,868
146320,3250296,3602156,3253384,3613832,1394,2448,5508,12038,523,6506,-5229,32767,68,203,868
147321,3250632,3603080,3253711,3614159,1166,2088,8881,16301,1095,-520,-4664,6769,78,187,871
148322,3250928,3603900,3254038,3614486,1429,2524,8701,13459,1882,-922,-2760,-1193,78,187,871
149323,3251204,3604740,3254365,3614813,1578,2175,7770,8545,2548,-69,-2704,-3750,67,185,868
150324,3251528,3605648,3254692,3615140,1280,1497,7305,5270,3209,565,-2718,-2214,67,185,868
151325,3251812,3606444,3255019,3615467,1549,1992,7160,3066,3996,909,-2404,-2168,58,166,869
152326,3252104,3607288,3255346,3615794,1515,1466,6861,1204,4720,1877,-2434,-1568,58,166,869
153327,3252432,3608132,3255673,3616121,1290,1241,6472,-867,5365,1599,-1927,-2011,79,175,872
154328,3252736,3608868,3256000,3616448,1451,1738,6070,-3363,5835,1353,-1222,-2578,79,175,872
155330,3253016,3609660,3256327,3616775,1623,1185,5330,-5420,6001,2285,-1239,-729,74,155,872
156331,3253316,3610384,3256654,3617102,1509,1437,4319,-6999,6009,1923,-1054,-46,74,155,872
157331,3253600,3611040,3256981,3617429,1629,1718,3558,-8394,5800,1388,69,-132,69,146,871
158333,3253856,3611560,3257308,3617756,1836,2485,3028,-9766,5423,1176,147,526,69,146,871
159334,3254164,3612068,3257635,3618083,1520,2482,2444,-10764,5037,482,-188,2725,68,119,870
160335,3254472,3612492,3257962,3618410,1529,2965,1605,-10604,4543,17,756,5499,68,119,870
161336,3254768,3612876,3258289,3618737,1619,3191,618,-10122,3937,-456,2307,5911,56,91,865
162337,3255092,3613232,3258616,3619064,1445,3354,-337,-9364,3086,-972,4063,6746,56,91,865
163338,3255380,3613556,3258943,3619391,1688,3557,-1021,-8743,2180,-1376,3747,5934,63,69,864
164351,3255668,3613816,3259270,3619718,1706,3800,-1542,-8288,1224,-1647,3122,6243,63,69,864
165352,3255960,3614052,3259597,3620045,1697,3800,-2040,-7516,322,-2116,2527,7298,50,61,862
166353,3256264,3614260,3259924,3620372,1633,3800,-2488,-6915,-327,-2415,1867,6369,50,61,862
167355,3256556,3614436,3260251,3620699,1724,3800,-2842,-6605,-741,-2490,1386,5456,51,44,857
168355,3256852,3614568,3260578,3621026,1713,3800,-3046,-6634,-1026,-3313,1745,4772,51,44,857
169356,3257148,3614704,3260905,3621353,1728,3800,-3165,-6933,-1183,-3888,1548,4261,60,37,855
170357,3257436,3614816,3261232,3621680,1796,3800,-3293,-7252,-1075,-3907,164,4356,60,37,855
171358,3257684,3614912,3261559,3622007,2080,3800,-3389,-7622,-605,-3845,-1030,4035,50,30,855
172359,3257964,3615012,3261886,3622334,1902,3800,-3363,-8169,27,-3477,-903,3261,50,30,855
173360,3258244,3615080,3262213,3622661,1924,3800,-3198,-9155,661,-3147,-232,2088,62,10,855
174361,3258508,3615156,3262540,3622988,2052,3800,-2956,-10379,1272,-2865,844,1575,62,10,855
175362,3258772,3615224,3262867,3623315,2080,3800,-2662,-11616,1903,-2687,1054,1497,69,10,854
176363,3259020,3615312,3263194,3623642,2216,3800,-2384,-12643,2620,-2500,644,2224,69,10,854
177364,3259276,3615388,3263521,3623969,2198,3800,-2187,-13329,3431,-2265,598,3532,48,12,854
178365,3259508,3615460,3263848,3624296,2391,3800,-2102,-13548,4191,-2162,949,5156,48,12,854
179366,3259776,3615536,3264175,3624623,2193,3800,-1922,-13188,4773,-1967,1572,7906,47,13,853
180367,3260000,3615620,3264502,3624950,2514,3800,-300,-9545,5033,1664,2166,32767,47,13,853
181368,3260244,3615716,3264829,3625277,2425,3800,1846,-4961,5045,1104,2571,30133,58,17,852
182369,3260512,3615820,3265156,3625604,2302,3800,2459,-3192,5282,-2520,1487,7899,58,17,852
183370,3260776,3615900,3265483,3625931,2356,3800,1992,-3474,5728,-2426,797,6709,43,8,852
184371,3261004,3615968,3265810,3626258,2626,3800,1369,-4075,6189,-1561,-48,6302,43,8,852
185372,3261264,3616072,3266137,3626585,2456,3800,905,-4081,6596,-1137,-280,6840,46,11,853
186373,3261492,3616160,3266464,3626912,2700,3800,650,-3975,6808,-759,282,5848,46,11,853
187374,3261724,3616264,3266791,3627239,2718,3800,491,-4110,6817,-204,153,5235,39,13,851
188375,3261956,3616392,3267118,3627566,2761,3800,454,-4713,6781,55,208,3878,39,13,851
189376,3262200,3616524,3267445,3627893,2723,3800,419,-5557,6693,723,117,3540,56,17,851
190377,3262432,3616664,3267772,3628220,2841,3800,439,-6411,6504,1612,-184,3111,56,17,851
191378,3262656,3616804,3268099,3628547,2937,3800,454,-7253,6308,2202,-707,3321,56,33,850
192379,3262868,3616940,3268426,3628874,3064,3800,465,-7774,6109,2512,-1373,4265,56,33,850
193380,3263080,3617120,3268753,3629201,3116,3800,484,-8208,5824,2499,-1184,4230,61,36,850
194388,3263296,3617312,3269114,3629562,3155,3800,571,-8591,5375,2586,-566,4555,61,36,850
195382,3263536,3617496,3269441,3629889,3044,3800,718,-8892,4768,3229,27,4388,43,39,849
196383,3263792,3617648,3269768,3630216,2977,3800,888,-9238,4081,4079,403,4352,43,39,849
197384,3264032,3617816,3270095,3630543,3116,3800,1064,-9291,3407,4238,581,5186,40,35,849
198385,3264248,3617976,3270422,3630870,3316,3800,1215,-9088,2829,3548,-242,6088,40,35,849
199386,3264476,3618188,3270749,3631197,3286,3800,1361,-8538,2306,3083,-557,6896,60,43,850
200387,3264724,3618400,3271076,3631524,3197,3800,1527,-7874,1808,3235,-341,7012,60,43,850
201388,3265020,3618648,3271403,3631851,2912,3800,1716,-7152,1300,3555,-35,6942,61,51,849
202389,3265308,3618888,3271730,3632178,2980,3800,1917,-6346,781,3411,226,7061,61,51,849
203390,3265576,3619116,3272057,3632505,3133,3800,2127,-5438,332,2462,-71,7156,51,54,849
204391,3265896,3619376,3272384,3632832,2812,3800,2370,-4606,33,1698,-305,6901,51,54,849
205392,3266168,3619644,3272711,3633159,3137,3800,2622,-3852,-149,1372,-163,6435,50,55,850
206393,3266488,3619956,3273038,3633486,2841,3800,2851,-3167,-352,1298,355,5799,50,55,850
207394,3266836,3620304,3273365,3633813,2658,3800,3084,-2661,-571,1174,148,4950,73,60,852
208395,3267176,3620632,3273692,3634140,2704,3800,3304,-2166,-676,632,-467,4874,73,60,852
209396,3267496,3620968,3274019,3634467,2833,3800,3509,-1688,-626,-193,-880,4783,79,63,852
210397,3267864,3621360,3274346,3634794,2516,3800,3714,-1202,-448,-558,-1198,4438,79,63,852
211398,3268212,3621792,3274673,3635121,2633,3800,3944,-816,-203,-527,-1145,3700,63,68,854
212399,3268532,3622176,3275000,3635448,2813,3800,4155,-543,77,-575,-1028,3210,63,68,854
213400,3268912,3622644,3275327,3635775,2416,3800,4321,-342,389,-991,-1320,2952,79,77,854
214401,3269260,3623116,3275654,3636102,2607,3800,4441,-154,770,-1560,-1727,2723,79,77,854
215402,3269584,3623544,3275981,3636429,2760,3800,4524,60,1133,-1768,-1539,2438,66,81,852
216403,3269916,3624068,3276308,3636756,2709,3800,4601,183,1469,-1734,-1313,1793,66,81,852
217404,3270248,3624592,3276635,3637083,2708,3800,4647,143,1772,-1933,-1318,1463,72,94,855
218405,3270580,3625108,3276962,3637410,2707,3800,4622,73,2062,-2084,-1610,1493,72,94,855
219406,3270916,3625708,3277289,3637737,2679,3800,4529,110,2360,-2010,-1790,1503,69,98,855
220407,3271240,3626312,3277616,3638064,2756,3800,4421,114,2646,-2204,-1533,1003,69,98,855
221408,3271540,3626988,3277943,3638391,2920,3800,4325,-76,2913,-2391,-1333,553,77,112,855
222397,3271932,3627724,3278270,3638718,2318,3370,4148,-156,3175,-2052,-1362,1174,77,112,855
223398,3272328,3628464,3278597,3639045,2263,3166,3918,-123,3431,-1597,-842,977,79,136,856
224398,3272652,3629164,3278924,3639372,2716,3254,3693,-144,3649,-1002,-439,589,79,136,856
225399,3273020,3629908,3279251,3639699,2424,2798,3464,-230,3885,-516,-324,659,74,137,860
226400,3273488,3630668,3279578,3640026,1739,2509,3206,-291,4190,87,-247,956,74,137,860
227401,3273872,3631520,3279905,3640353,2240,1705,2899,-218,4468,706,-121,1210,75,154,859
228402,3274280,3632220,3280232,3640680,2055,2493,2602,-191,4638,899,355,838,75,154,859
229403,3274720,3633056,3280559,3641007,1806,1421,2306,-262,4688,1210,628,691,85,154,866
230405,3275136,3633788,3280886,3641334,1918,1895,1997,-399,4646,1657,710,551,85,154,866
231406,3275584,3634636,3281213,3641661,1666,942,1708,-558,4533,1963,703,565,85,148,866
232406,3276068,3635404,3281540,3641988,1373,1250,1400,-634,4338,2285,461,716,85,148,866
233408,3276500,3636240,3281867,3642315,1653,602,1088,-630,4132,2430,68,855,85,164,868
234408,3276980,3637044,3282194,3642642,1287,594,741,-468,3947,2726,-78,1542,85,164,868
235409,3277444,3637744,3282521,3642969,1328,1081,369,-210,3740,3101,32,1580,95,154,871
236410,3277932,3638420,3282848,3643296,1108,1078,24,-35,3486,3058,-80,1214,95,154,871
237411,3278324,3639024,3283175,3643623,1680,1408,-268,192,3181,2827,-325,1351,101,127,873
238413,3278732,3639652,3283502,3643950,1546,1126,-491,340,2827,2666,-490,1131,101,127,873
239414,3279216,3640188,3283829,3644277,1003,1610,-684,484,2468,2753,-762,987,94,113,873
240415,3279628,3640644,3284156,3644604,1416,2055,-860,682,2105,2833,-762,912,94,113,873
241415,3280028,3641144,3284483,3644931,1460,1704,-986,705,1717,2756,-715,343,85,107,871
242417,3280532,3641588,3284810,3645258,733,2003,-1055,641,1289,2653,-692,127,85,107,871
243417,3280992,3642024,3285137,3645585,951,2006,-1089,597,855,2319,-41,23,88,100,869
244427,3281420,3642540,3285498,3645946,1122,1438,-1090,559,421,2230,152,77,88,100,869
245419,3281936,3642956,3285825,3646273,490,2025,-1087,576,-4,2090,149,127,95,75,870
246420,3282340,3643308,3286152,3646600,1157,2415,-1074,577,-419,1819,572,-76,95,75,870
247421,3282724,3643724,3286479,3646927,1258,1976,-1050,523,-836,1626,874,-152,93,85,870
248422,3283160,3644128,3286806,3647254,885,2018,-1028,484,-1219,1462,908,50,93,85,870
249423,3283596,3644460,3287133,3647581,838,2467,-1019,456,-1555,1388,808,-9,81,76,868
250424,3283916,3644800,3287460,3647908,1567,2411,-997,380,-1863,1393,860,-378,81,76,868
251425,3284280,3645128,3287787,3648235,1276,2487,-953,124,-2162,1262,999,-814,84,80,870
252426,3284684,3645456,3288114,3648562,993,2486,-898,-288,-2470,1193,1160,-1250,84,80,870
253428,3285076,3645780,3288441,3648889,1040,2514,-876,-724,-2745,1394,1320,-1372,63,76,866
254429,3285416,3646080,3288768,3649216,1360,2677,-908,-1191,-2959,1582,1598,-1469,63,76,866
255430,3285780,3646420,3289095,3649543,1194,2421,-992,-1821,-3121,1761,1709,-1873,60,59,867
256431,3286120,3646772,3289422,3649870,1340,2336,-1120,-2422,-3219,1709,1603,-1834,60,59,867
257431,3286472,3647108,3289749,3650197,1254,2432,-1279,-3010,-3243,1593,1253,-1800,59,63,864
258433,3286824,3647468,3290076,3650524,1244,2268,-1479,-3599,-3246,1395,1116,-1653,59,63,864
259433,3287120,3647824,3290403,3650851,1607,2281,-1719,-4100,-3205,1113,1156,-1309,52,66,866
260434,3287416,3648204,3290730,3651178,1622,2108,-1994,-4483,-3085,902,1283,-1223,52,66,866
261435,3287736,3648576,3291057,3651505,1476,2140,-2286,-4934,-2872,752,1499,-1083,64,76,867
262437,3287980,3648900,3291384,3651832,1987,2441,-2586,-5289,-2515,738,1269,-563,64,76,867
263438,3288224,3649264,3291711,3652159,2025,2176,-2898,-5534,-2055,996,1241,-533,67,79,867
264438,3288480,3649644,3292038,3652486,1982,2052,-3229,-5816,-1538,1179,1170,-562,67,79,867
265440,3288728,3650028,3292365,3652813,2067,2003,-3577,-6242,-997,1308,1062,-691,57,72,863
266441,3288952,3650428,3292692,3653140,2263,1871,-3967,-6803,-473,1543,902,-723,57,72,863
267442,3289180,3650840,3293019,3653467,2283,1760,-4402,-7377,20,1630,663,-617,40,69,865
268442,3289444,3651192,3293346,3653794,2085,2124,-4894,-7946,477,1716,291,-261,40,69,865
269443,3289656,3651580,3293673,3654121,2462,1873,-5619,-8133,972,1998,-800,1275,55,87,864
270445,3289868,3651956,3294000,3654448,2513,1927,-6862,-7561,1685,2170,-3389,3697,55,87,864
271445,3290196,3652328,3294327,3654775,1789,1933,-8112,-7159,2391,2470,-3263,2003,43,77,865
272446,3290440,3652688,3294654,3655102,2351,1993,-9012,-7491,2795,2880,-1842,708,43,77,865
273447,3290680,3653028,3294981,3655429,2415,2114,-9734,-8252,3002,3157,-1985,579,54,61,864
274448,3290932,3653400,3295308,3655756,2374,1894,-10568,-8719,3239,3501,-2718,2029,54,61,864
275449,3291224,3653772,3295635,3656083,2140,1875,-11379,-8971,3542,3823,-3109,2150,47,81,864
276450,3291472,3654116,3295962,3656410,2451,2043,-11896,-9385,3820,4390,-2888,1692,47,81,864
277451,3291796,3654524,3296289,3656737,1978,1608,-12002,-10096,4039,4957,-2956,1435,62,77,864
278453,3292080,3654968,3296616,3657064,2248,1332,-11846,-10709,4232,5407,-3534,3012,62,77,864
279453,3292348,3655428,3296943,3657391,2374,1173,-11615,-10782,4464,5813,-4429,4906,48,88,863
280454,3292600,3655724,3297270,3657718,2508,2213,-11151,-10094,4696,6886,-5135,7585,48,88,863
281455,3292824,3655992,3297597,3658045,2729,2414,-3625,4845,3747,28031,-4782,32767,47,73,866
282456,3293112,3656280,3297924,3658372,2347,2307,6530,23249,2151,24257,-3709,32767,47,73,866
283457,3293416,3656656,3298251,3658699,2258,1735,10488,26338,1377,7413,-827,736,56,50,862
284458,3293756,3657040,3298578,3659026,2029,1660,9854,20694,1182,7027,-68,-2941,56,50,862
285459,3294080,3657440,3298905,3659353,2131,1529,8544,14315,1148,6858,-954,-6840,62,77,863
286461,3294372,3657764,3299232,3659680,2347,2005,8301,10605,1064,6428,-1687,-4673,62,77,863
287462,3294724,3658112,3299559,3660007,1962,1846,8170,8913,1218,5681,-2880,-2241,79,95,867
288463,3295032,3658540,3299886,3660334,2247,1303,7864,7760,1484,5580,-3023,-1474,79,95,867
289464,3295324,3659088,3300213,3660661,2363,456,7283,6388,1520,4688,-1270,-1350,79,87,865
290465,3295660,3659528,3300540,3660988,2084,1081,6752,4689,1417,3340,-500,-2393,79,87,865
291465,3295972,3660016,3300867,3661315,2242,711,6424,2796,1119,2457,370,-2605,63,97,867
292466,3296256,3660500,3301194,3661642,2437,667,6009,1268,701,1389,1055,-1231,63,97,867
293467,3296612,3660920,3301521,3661969,1975,1026,5581,448,286,-143,1621,543,76,100,869
294476,3296924,3661460,3301882,3662330,2272,198,4901,371,-251,-1611,2453,2373,76,100,869
295470,3297240,3661912,3302209,3662657,2253,694,4066,1066,-840,-3129,2418,4543,71,97,868
296470,3297568,3662396,3302536,3662984,2179,425,3151,2317,-1465,-4070,3206,5546,71,97,868
297472,3297936,3662940,3302863,3663311,1912,-45,2355,3461,-2142,-4746,3586,4300,64,93,870
298473,3298252,3663316,3303190,3663638,2243,983,1804,3946,-2764,-5876,3790,2920,64,93,870
299473,3298568,3663676,3303517,3663965,2248,1069,1433,4133,-3311,-6610,3886,2551,60,90,870
300474,3298896,3663964,3303844,3664292,2174,1536,1108,4541,-3740,-6914,3149,2866,60,90,870
301475,3299192,3664392,3304171,3664619,2389,616,796,5118,-3887,-6840,916,2944,57,87,867
302477,3299496,3664788,3304498,3664946,2350,786,442,5827,-3669,-6518,-2116,3582,57,87,867
303478,3299852,3665104,3304825,3665273,2013,1291,-13,6522,-3162,-6212,-2778,3689,67,79,866
304479,3300196,3665412,3305152,3665600,2081,1349,-519,7108,-2553,-5599,-2569,3293,67,79,866
305479,3300532,3665756,3305479,3665927,2128,1117,-1040,7558,-1935,-4989,-2136,2933,66,70,869
306481,3300856,3666100,3305806,3666254,2206,1109,-1486,7641,-1334,-4736,-1863,1789,66,70,869
307481,3301180,3666368,3306133,3666581,2207,1610,-1859,7389,-786,-4238,-1255,735,60,58,868
308483,3301504,3666588,3306460,3666908,2209,1957,-2195,6681,-257,-3650,-1189,-303,60,58,868
309483,3301876,3666856,3306787,3667235,1891,1683,-2524,5873,288,-3141,-1523,-536,75,55,868
310485,3302204,3667104,3307114,3667562,2166,1843,-2883,4910,778,-2966,-1356,-905,75,55,868
311486,3302508,3667348,3307441,3667889,2327,1904,-3289,3766,1113,-3114,-779,-1147,78,55,865
312486,3302828,3667552,3307768,3668216,2231,2209,-3718,2489,1193,-3210,-80,-1496,78,55,865
313487,3303176,3667740,3308095,3668543,2048,2370,-4134,1067,1010,-3286,698,-1725,74,46,865
314488,3303464,3667940,3308422,3668870,2441,2351,-4514,-311,603,-3408,1554,-1405,74,46,865
315489,3303760,3668152,3308749,3669197,2406,2327,-4846,-1651,67,-3376,1558,-1257,50,37,864
316490,3304068,3668360,3309076,3669524,2340,2404,-5122,-2915,-440,-3025,263,-475,50,37,864
317491,3304392,3668596,3309403,3669851,2243,2269,-5367,-3971,-847,-2653,-512,460,69,36,861
318492,3304688,3668800,3309730,3670178,2432,2524,-5583,-4810,-1173,-2492,-1293,1412,69,36,861
319494,3305004,3668996,3310057,3670505,2313,2632,-5737,-5459,-1434,-2569,-2085,1995,69,46,862
320495,3305312,3669188,3310384,3670832,2372,2716,-5786,-6091,-1647,-2601,-2379,2395,69,46,862
321495,3305620,3669404,3310711,3671159,2382,2616,-5755,-6656,-1817,-2396,-2557,2956,79,53,861
322497,3305964,3669668,3311038,3671486,2150,2343,-5633,-7187,-1915,-2127,-2853,3048,79,53,861
323497,3306300,3669888,3311365,3671813,2197,2665,-5427,-7857,-1909,-1792,-3037,2895,54,60,860
324498,3306636,3670136,3311692,3672140,2194,2526,-5206,-8597,-1772,-1341,-3185,3022,54,60,860
325499,3307012,3670376,3312019,3672467,1924,2614,-5070,-9195,-1527,-1019,-3274,3748,56,50,862
326500,3307332,3670628,3312346,3672794,2278,2572,-4971,-9753,-1210,-632,-3100,3589,56,50,862
327502,3307684,3670876,3312673,3673121,2068,2633,-4825,-10491,-874,-380,-2721,3263,82,62,861
328502,3308064,3671164,3313000,3673448,1870,2400,-4648,-11260,-553,-231,-2316,3493,82,62,861
329503,3308428,3671416,3313327,3673775,1954,2659,-4451,-12010,-264,106,-2055,3540,66,49,862
330504,3308804,3671660,3313654,3674102,1859,2746,-4253,-12708,3,345,-1949,3986,66,49,862
331505,3309180,3671920,3313981,3674429,1838,2676,-4042,-13301,244,562,-1683,4335,66,58,864
332506,3309592,3672208,3314308,3674756,1577,2518,-3800,-13778,451,810,-1288,4589,66,58,864
333507,3310000,3672500,3314635,3675083,1567,2509,-2474,-12561,580,3029,-1239,19895,71,52,862
334509,3310396,3672768,3314962,3675410,1613,2686,1220,-6228,360,7787,-768,32767,71,52,862
335509,3310868,3673048,3315289,3675737,1075,2631,4031,-2483,170,2577,-560,15627,70,52,864
336510,3311256,3673348,3315616,3676064,1575,2519,4510,-3120,169,894,87,2658,70,52,864
337511,3311600,3673608,3315943,3676391,1842,2799,4006,-5512,276,1309,149,1740,85,70,864
338512,3312020,3673928,3316270,3676718,1327,2428,3632,-7438,431,1745,-377,1744,85,70,864
339513,3312432,3674208,3316597,3677045,1341,2699,3572,-8540,641,1539,-447,1916,76,69,865
340514,3312824,3674444,3316924,3677372,1438,3014,3607,-9444,827,1389,-281,1671,76,69,865
341515,3313248,3674748,3317251,3677699,1197,2600,3625,-10411,888,1139,47,1523,90,72,866
342516,3313692,3675064,3317578,3678026,1020,2530,3654,-11404,881,483,65,1595,90,72,866
343518,3314108,3675356,3317905,3678353,1157,2697,3650,-12258,842,118,-164,1935,80,55,863
344525,3314560,3675716,3318266,3678714,893,2272,3577,-12851,810,-168,-484,2726,80,55,863
345519,3314992,3676044,3318593,3679041,973,2473,3496,-13018,820,-845,-556,3634,71,60,866
346520,3315400,3676332,3318920,3679368,1087,2741,3405,-12917,812,-1426,-764,4115,71,60,866
347521,3315804,3676624,3319247,3679695,1080,2731,3290,-12678,728,-2019,-548,4524,72,57,867
348522,3316204,3676892,3319574,3680022,1073,2908,3151,-12209,615,-2493,-186,5167,72,57,867
349523,3316576,3677188,3319901,3680349,1229,2747,2988,-11576,567,-2432,-170,5322,96,67,865
350524,3316944,3677508,3320228,3680676,1237,2601,2842,-10900,603,-2391,212,5337,96,67,865
351526,3317336,3677772,3320555,3681003,1059,2978,2770,-10246,706,-2470,-13,5073,61,57,865
352527,3317664,3678036,3320882,3681330,1459,3007,2780,-9742,851,-2389,-632,4368,61,57,865
353528,3318000,3678316,3321209,3681657,1406,2929,2872,-9353,1010,-2463,-299,3920,79,60,865
354529,3318380,3678608,3321536,3681984,1107,2869,2985,-9113,1179,-2511,-181,3390,79,60,865
355530,3318688,3678904,3321863,3682311,1567,2859,3077,-8910,1405,-2284,-483,3144,60,48,863
356531,3318992,3679196,3322190,3682638,1603,2900,3060,-8426,2139,-1897,-470,2989,60,48,863
357531,3319316,3679448,3322517,3682965,1479,3183,2993,-8247,2553,-1383,-302,2472,59,64,864
358532,3319604,3679708,3322844,3683292,1722,3164,2952,-8205,2962,-982,-31,2081,59,64,864
359533,3319924,3679976,3323171,3683619,1525,3140,2933,-8285,3341,-504,239,1666,56,54,863
360534,3320232,3680224,3323498,3683946,1610,3300,2929,-8353,3697,-75,301,1584,56,54,863
361535,3320508,3680488,3323825,3684273,1833,3229,2867,-8222,4053,225,376,2259,54,56,860
362536,3320800,3680732,3324152,3684600,1749,3391,2703,-7871,4396,538,310,2901,54,56,860
363537,3321072,3680940,3324479,3684927,1899,3669,2459,-7312,4687,770,367,3347,49,49,860
364538,3321388,3681156,3324806,3685254,1630,3668,2184,-6649,4934,819,410,3705,49,49,860
365539,3321692,3681436,3325133,3685581,1715,3290,1890,-5957,5126,946,361,3788,60,49,858
366540,3321992,3681704,3325460,3685908,1753,3392,1579,-5233,5250,1267,394,4099,60,49,858
367541,3322296,3681976,3325787,3686235,1739,3392,1246,-4540,5318,1643,655,4110,72,53,856
368543,3322584,3682220,3326114,3686562,1856,3604,919,-3990,5331,1881,754,3653,72,53,856
369556,3322868,3682436,3326441,3686889,1901,3800,629,-3575,5292,2004,955,3333,64,52,857
370544,3323160,3682680,3326768,3687216,1867,3691,378,-3363,5220,2241,1081,2898,64,52,857
371545,3323428,3682956,3327095,3687543,2043,3514,155,-3270,5131,2657,1082,2605,64,44,857
372546,3323740,3683240,3327422,3687870,1776,3484,-64,-3198,5037,2979,928,2518,64,44,857
373560,3324024,3683464,3327749,3688197,1970,3800,-262,-3268,4909,3214,1132,2257,47,47,856
374548,3324292,3683740,3328076,3688524,2096,3604,-437,-3402,4708,3263,1452,2183,47,47,856
375549,3324552,3683996,3328403,3688851,2177,3761,-613,-3475,4460,3112,1351,2551,69,47,857
376550,3324832,3684256,3328730,3689178,2073,3765,-827,-3443,4192,3044,1201,2951,69,47,857
377551,3325064,3684528,3329057,3689505,2416,3716,-1057,-3343,3892,2957,1193,3075,45,46,856
378552,3325312,3684824,3329384,3689832,2351,3580,-1302,-3143,3587,2827,1003,3362,45,46,856
379566,3325592,3685084,3329711,3690159,2173,3800,-1550,-2923,3301,2705,707,3639,60,52,854
380567,3325844,3685308,3330038,3690486,2382,3800,-1778,-2700,3035,2412,388,3696,60,52,854
381555,3326096,3685624,3330365,3690813,2416,3538,-1948,-2558,2757,2009,219,3424,53,59,855
382556,3326372,3685944,3330692,3691140,2288,3517,-2065,-2524,2474,1700,-42,3240,53,59,855
383557,3326644,3686248,3331019,3691467,2338,3628,-2160,-2535,2225,1531,-125,3315,49,72,854
384559,3326864,3686540,3331346,3691794,2711,3719,-2231,-2589,2021,1289,-288,3144,49,72,854
385559,3327088,3686892,3331673,3692121,2732,3334,-2246,-2744,1875,1002,-369,2845,53,69,856
386561,3327324,3687212,3332000,3692448,2698,3538,-2202,-2987,1772,876,-312,2693,53,69,856
387561,3327528,3687528,3332327,3692775,2953,3569,-2167,-3208,1669,810,-54,3019,46,61,853
388562,3327756,3687856,3332654,3693102,2848,3495,-2138,-3391,1574,873,5,3165,46,61,853
389563,3327988,3688260,3332981,3693429,2866,2987,-2141,-3451,1525,761,-405,3665,50,74,853
390564,3328176,3688624,3333308,3693756,3203,3222,-2181,-3255,1575,193,-1251,4612,50,74,853
391565,3328376,3688960,3333635,3694083,3185,3394,-2220,-2907,1712,-299,-1655,5153,48,64,853
392566,3328572,3689248,3333962,3694410,3268,3712,-2218,-2619,1821,-334,-1090,4849,48,64,853
393567,3328760,3689636,3334289,3694737,3380,3061,-2142,-2563,1802,-4,-110,4105,42,62,852
394575,3328976,3690048,3334650,3695098,3270,2890,-2028,-2690,1704,412,256,3851,42,62,852
395569,3329236,3690440,3334977,3695425,3025,2987,-1904,-2719,1680,490,-363,4372,42,90,850
396570,3329460,3690848,3335304,3695752,3297,2853,-1805,-2604,1826,118,-1080,5022,42,90,850
397571,3329688,3691300,3335631,3696079,3316,2524,-1697,-2295,2029,-349,-1205,5394,46,83,855
398573,3329912,3691712,3335958,3696406,3387,2737,-1530,-2097,2126,-435,-606,4990,46,83,855
399573,3330180,3692124,3336285,3696733,3139,2701,-1306,-2082,2126,36,36,4533,55,82,855
400575,3330436,3692664,3336612,3697060,3247,1808,-1052,-2087,2108,510,429,4624,55,82,855
401575,3330716,3693132,3336939,3697387,3119,2196,-818,-2010,2107,346,216,4900,55,81,854
402576,3331040,3693556,3337266,3697714,2847,2430,-569,-1896,2173,7,8,4851,55,81,854
403577,3331332,3694048,3337593,3698041,3063,1933,-258,-1833,2302,-48,398,4743,72,86,860
404578,3331644,3694520,3337920,3698368,2946,1996,14,-1688,2433,345,583,5442,72,86,860
405579,3332000,3694948,3338247,3698695,2659,2227,255,-1480,2488,839,962,4907,77,95,860
406580,3332344,3695520,3338574,3699022,2727,1219,531,-1416,2521,1018,891,4408,77,95,860
407581,3332704,3696020,3338901,3699349,2615,1594,782,-1309,2581,784,329,5058,85,86,861
408582,3333120,3696500,3339228,3699676,2227,1653,989,-1131,2652,449,35,5095,85,86,861
409583,3333496,3697032,3339555,3700003,2456,1238,1227,-920,2711,738,338,4875,83,106,865
410584,3333888,3697532,3339882,3700330,2329,1363,1487,-662,2784,1157,439,4993,83,106,865
411585,3334296,3698032,3340209,3700657,2194,1287,1731,-367,2835,1286,554,4902,70,90,865
412586,3334688,3698576,3340536,3700984,2266,918,1989,-145,2836,1198,856,4581,70,90,865
413587,3335064,3698988,3340863,3701311,2347,1705,2247,75,2844,1210,715,4872,89,97,866
414588,3335452,3699484,3341190,3701638,2246,1107,2422,608,2836,1186,553,5461,89,97,866
415589,3335828,3699984,3341517,3701965,2301,1006,2563,1115,2760,975,631,5148,72,101,868
416590,3336192,3700428,3341844,3702292,2360,1305,2717,1523,2649,1172,615,4992,72,101,868
417592,3336544,3700912,3342171,3702619,2425,987,2860,1880,2556,1489,402,4696,86,85,867
418593,3336908,3701392,3342498,3702946,2335,944,2986,2104,2445,1310,398,4233,86,85,867
419594,3337264,3701752,3342825,3703273,2373,1680,3089,2323,2320,1171,156,4276,83,87,867
420595,3337664,3702156,3343152,3703600,2067,1372,3119,2532,2239,1111,-380,4047,83,87,867
421596,3338044,3702616,3343479,3703927,2170,964,3068,2732,2169,1343,-348,3833,78,71,868
422597,3338372,3703048,3343806,3704254,2495,1092,3001,2867,2040,1440,100,3162,78,71,868
423598,3338736,3703320,3344133,3704581,2255,2117,2880,2810,1836,1184,40,2974,64,74,867
424598,3339144,3703684,3344460,3704908,1946,1526,2656,2951,1630,889,-572,3694,64,74,867
425600,3339504,3704024,3344787,3705235,2232,1671,2343,3228,1439,859,-644,3662,65,71,867
426601,3339892,3704336,3345114,3705562,2031,1852,1972,3475,1219,1114,-411,3435,65,71,867
427602,3340328,3704616,3345441,3705889,1684,2073,1601,3577,964,1144,87,2851,84,70,867
428603,3340704,3704964,3345768,3706216,2039,1640,1254,3466,679,982,451,2220,84,70,867
429604,3341072,3705232,3346095,3706543,2072,2166,918,3190,366,958,507,1663,91,56,866
430605,3341524,3705500,3346422,3706870,1493,2192,584,2827,35,690,502,1594,91,56,866
431606,3341916,3705724,3346749,3707197,1840,2512,231,2544,-287,456,353,1646,90,47,867
432607,3342304,3705944,3347076,3707524,1840,2585,-132,2134,-600,278,108,1026,90,47,867
433608,3342680,3706156,3347403,3707851,1894,2685,-476,1739,-878,184,-34,1153,96,53,865
434609,3343120,3706400,3347730,3708178,1445,2522,-792,1343,-1161,173,51,1051,96,53,865
435610,3343532,3706660,3348057,3708505,1584,2452,-1078,951,-1477,173,-89,1058,83,51,862
436611,3343972,3706900,3348384,3708832,1360,2616,-1342,714,-1775,-121,-52,1576,83,51,862
437612,3344388,3707144,3348711,3709159,1471,2627,-1613,624,-2014,-413,-25,2059,73,41,864
438613,3344784,3707396,3349038,3709486,1567,2611,-1903,579,-2204,-476,56,2160,73,41,864
439614,3345160,3707672,3349365,3709813,1671,2483,-2165,568,-2384,-659,339,1962,93,49,865
440615,3345616,3707928,3349692,3710140,1116,2641,-2342,438,-2586,-1087,467,1567,93,49,865
441616,3346044,3708160,3350019,3710467,1247,2832,-2432,104,-2789,-1404,30,1134,68,50,864
442617,3346448,3708412,3350346,3710794,1363,2740,-2465,-382,-2909,-1293,-1038,987,68,50,864
443618,3346884,3708684,3350673,3711121,1117,2640,-2444,-856,-2936,-1216,-1369,767,88,43,865
444628,3347248,3708964,3351034,3711482,1566,2626,-2424,-1460,-2914,-1100,-1701,519,88,43,865
445620,3347624,3709252,3351361,3711809,1471,2594,-2427,-2219,-2834,-855,-2085,197,89,61,864
446621,3348036,3709532,3351688,3712136,1208,2665,-2449,-3159,-2724,-524,-1776,-321,89,61,864
447621,3348400,3709824,3352015,3712463,1493,2606,-2495,-4121,-2605,-201,-1272,-356,63,51,864
448622,3348764,3710112,3352342,3712790,1478,2648,-2559,-5178,-2459,-64,-384,-454,63,51,864
449623,3349176,3710388,3352669,3713117,1141,2747,-2639,-6230,-2306,168,44,-418,63,49,865
450625,3349544,3710716,3352996,3713444,1398,2421,-2749,-7130,-2144,495,249,50,63,49,865
451626,3349884,3711048,3353323,3713771,1569,2395,-2851,-7911,-1929,682,564,303,61,56,864
452627,3350200,3711324,3353650,3714098,1724,2768,-2961,-8635,-1678,954,793,591,72,71,866
453627,3350524,3711604,3353977,3714425,1676,2764,-3073,-9251,-1404,1352,875,809,72,71,866
454629,3350828,3711928,3354304,3714752,1812,2491,-3210,-9775,-1090,2171,731,880,68,61,862
455630,3351148,3712268,3354631,3715079,1715,2386,-3388,-10291,-732,3063,483,1036,68,61,862
456631,3351484,3712644,3354958,3715406,1612,2139,-3618,-10757,-323,3166,-148,1607,63,65,863
457631,3351760,3712984,3355285,3715733,2011,2360,-3881,-11002,136,2680,-1025,2340,63,65,863
458633,3352016,3713352,3355612,3716060,2167,2168,-4176,-10994,622,2386,-1617,2932,42,70,866
459634,3352280,3713736,3355939,3716387,2145,2042,-4760,-10506,1247,2483,-3235,4922,42,70,866
460634,3352552,3714056,3356266,3716714,2121,2447,-5414,-9997,1963,2819,-3611,3763,48,81,864
461635,3352764,3714420,3356593,3717041,2546,2155,-5757,-9983,2436,3146,-1747,2461,48,81,864
462637,3353020,3714772,3356920,3717368,2303,2220,-5869,-10449,2648,3179,-1405,2338,53,76,862
463637,3353276,3715140,3357247,3717695,2336,2102,-5938,-10740,2726,3279,-1599,3029,53,76,862
464639,3353532,3715476,3357574,3718022,2368,2299,-6084,-10820,2806,3429,-2208,3158,63,68,863
465639,3353796,3715816,3357901,3718349,2345,2269,-6311,-10770,2949,3764,-3285,3640,63,68,863
466641,3354084,3716220,3358228,3718676,2214,1835,-6678,-10352,3190,4043,-4178,5136,44,65,861
467642,3354380,3716628,3358555,3719003,2178,1775,-6946,-9887,3425,4063,-3819,4726,44,65,861
468643,3354652,3716984,3358882,3719330,2353,2087,-6926,-9761,3546,4194,-3531,4124,46,80,864
469643,3354924,3717352,3359209,3719657,2379,1995,-6796,-9605,3587,4360,-3832,4936,46,80,864
470645,3355220,3717716,3359536,3719984,2242,2004,-6647,-9325,3603,4621,-4016,5371,57,71,864
471646,3355536,3718060,3359863,3720311,2123,2123,-6464,-8819,3587,4896,-3935,6046,57,71,864
472647,3355896,3718388,3360190,3720638,1835,2222,-3273,-3392,3161,13768,-3040,32767,55,68,864
473647,3356212,3718748,3360517,3720965,2115,2009,3228,9192,1839,21286,-1466,32767,55,68,864
474649,3356536,3719100,3360844,3721292,2068,2048,6702,13790,1126,7086,-2188,3958,57,64,865
475650,3356884,3719452,3361171,3721619,1908,2037,6638,11570,1092,5679,-1163,-470,57,64,865
476650,3357268,3719764,3361498,3721946,1659,2294,5897,7352,1208,5723,-907,-3380,84,77,864
477651,3357604,3720160,3361825,3722273,1956,1739,5474,4266,1322,5800,-1831,-2313,84,77,864
478653,3357940,3720540,3362152,3722600,1953,1817,5537,2832,1560,5201,-2522,-1128,59,84,865
479653,3358220,3720980,3362479,3722927,2325,1392,5538,1509,1781,4842,-2149,-1433,59,84,865
480654,3358472,3721252,3362806,3723254,2533,2466,5322,596,1910,4101,-2249,593,59,68,867
481655,3358816,3721496,3363133,3723581,1952,2679,4967,-264,1945,2548,-874,902,59,68,867
482657,3359148,3721772,3363460,3723908,2025,2501,4553,-1113,1669,1984,1003,449,65,53,860
483658,3359476,3722076,3363787,3724235,2051,2337,4273,-1980,1237,1360,1772,130,65,53,860
484659,3359780,3722436,3364114,3724562,2212,1973,3942,-2704,779,568,2611,979,76,68,863
485659,3360128,3722768,3364441,3724889,1929,2146,3587,-2813,362,329,2477,2242,76,68,863
486661,3360436,3723124,3364768,3725216,2187,1984,3134,-2503,149,-794,1772,3562,61,73,865
487662,3360736,3723536,3365095,3725543,2250,1596,2725,-1877,196,-1869,988,4282,61,73,865
488663,3361048,3723920,3365422,3725870,2183,1747,2432,-1061,327,-2388,927,4466,71,97,863
489664,3361344,3724468,3365749,3726197,2297,625,2284,-145,404,-3240,1866,4674,71,97,863
490665,3361636,3724944,3366076,3726524,2339,1010,2215,780,468,-4071,2058,4997,58,95,866
491665,3361968,3725400,3366403,3726851,2087,1079,2200,1732,570,-4601,1858,5074,58,95,866
492666,3362252,3725900,3366730,3727178,2406,728,2238,2733,819,-5011,1716,5195,73,92,868
493667,3362548,3726332,3367057,3727505,2346,1107,2283,3939,1297,-4924,891,6099,73,92,868
494675,3362884,3726856,3367418,3727866,2108,460,2294,5197,1870,-5069,842,5994,79,85,867
495670,3363208,3727376,3367745,3728193,2185,402,2257,6296,2421,-5136,1144,5743,79,85,867
496671,3363524,3727844,3368072,3728520,2241,665,2172,7206,2919,-4581,1564,5126,77,96,869
497671,3363868,3728240,3368399,3728847,2060,1084,2046,7747,3380,-4024,1410,4061,77,96,869
498672,3364176,3728652,3368726,3729174,2294,947,1942,7943,3802,-3671,1510,2982,60,80,867
499674,3364492,3729100,3369053,3729501,2249,669,1889,7733,4195,-3075,1381,1870,60,80,867
500675,3364772,3729524,3369380,3729828,2496,776,1817,7283,4521,-2388,1589,1504,80,93,867
501675,3365112,3729908,3369707,3730155,2116,1001,1724,6750,4766,-1697,1901,960,80,93,867
502676,3365432,3730240,3370034,3730482,2245,1324,1589,5900,4869,-1410,1959,-81,63,80,867
503678,3365732,3730588,3370361,3730809,2383,1215,1357,4808,4796,-1451,1969,-360,63,80,867
504678,3366064,3730912,3370688,3731136,2182,1366,1001,3775,4500,-1538,2109,56,62,66,867
505679,3366340,3731264,3371015,3731463,2555,1180,512,3036,3885,-1444,2445,798,62,66,867
506680,3366628,3731568,3371342,3731790,2498,1490,-115,2525,3217,-1040,1290,1582,63,67,867
507682,3366952,3731824,3371669,3732117,2275,1821,-829,2238,2658,-449,443,2190,63,67,867
508682,3367288,3732064,3371996,3732444,2196,1959,-1576,2030,2166,-48,-340,2624,71,51,865
509683,3367580,3732308,3372323,3732771,2488,1972,-2314,1820,1674,-60,-1028,2747,71,51,865
510685,3367924,3732556,3372650,3733098,2156,1982,-3020,1459,1122,-38,-1235,2278,76,58,864
511686,3368260,3732812,3372977,3733425,2203,1963,-3680,916,489,52,-473,1745,76,58,864
512687,3368568,3733052,3373304,3733752,2388,2101,-4272,87,-211,102,744,1050,78,45,864
513687,3368904,3733248,3373631,3734079,2210,2434,-4807,-821,-943,210,1599,1207,78,45,864
514688,3369224,3733452,3373958,3734406,2314,2438,-5220,-1625,-1638,177,1555,1472,61,54,863
515690,3369520,3733652,3374285,3734733,2478,2519,-5458,-2356,-2180,215,561,1746,61,54,863
516691,3369848,3733892,3374612,3735060,2279,2307,-5580,-3047,-2605,441,293,1988,62,38,861
517691,3370220,3734104,3374939,3735387,1985,2533,-5701,-3707,-2996,582,84,2000,62,38,861
518693,3370556,3734312,3375266,3735714,2206,2611,-5813,-4412,-3302,390,-1492,2116,65,42,862
519694,3370896,3734516,3375593,3736041,2177,2690,-5833,-5129,-3541,-48,-1822,2284,65,42,862
520695,3371260,3734696,3375920,3736368,2011,2905,-5788,-5735,-3698,-448,-2476,2731,84,53,860
521696,3371628,3734920,3376247,3736695,1969,2676,-5669,-6273,-3736,-954,-2964,3114,84,53,860
522697,3371972,3735180,3376574,3737022,2113,2480,-5514,-6750,-3657,-1396,-3460,3330,62,45,860
523698,3372368,3735420,3376901,3737349,1759,2644,-5329,-7192,-3476,-1881,-3735,3710,62,45,860
524698,3372744,3735660,3377228,3737676,1863,2682,-5113,-7543,-3222,-2306,-3565,4095,68,54,863
525699,3373084,3735892,3377555,3738003,2083,2774,-4853,-7869,-2950,-2593,-3342,4037,68,54,863
526701,3373484,3736128,3377882,3738330,1676,2790,-4555,-8196,-2651,-2967,-3455,4430,70,48,862
527702,3373852,3736372,3378209,3738657,1859,2777,-4235,-8437,-2303,-3345,-3570,4922,70,48,862
528703,3374244,3736664,3378536,3738984,1682,2493,-3545,-8223,-1877,-3516,-4276,8637,79,59,862
529703,3374632,3736892,3378863,3739311,1681,2937,-962,-4120,-1145,-3453,-7845,32767,79,59,862
530704,3374996,3737164,3379190,3739638,1816,2686,2058,41,-580,-2430,-4998,26613,77,59,864
531706,3375356,3737420,3379517,3739965,1827,2818,3233,291,-380,-2895,-1290,2778,77,59,864
532707,3375764,3737676,3379844,3740292,1491,2849,3212,-1884,-338,-2389,-707,803,86,52,862
533708,3376160,3738008,3380171,3740619,1537,2373,3114,-4348,-229,-1554,-1056,190,86,52,862
534709,3376540,3738276,3380498,3740946,1615,2799,3238,-6079,61,-1058,-1298,792,78,55,863
535710,3376904,3738560,3380825,3741273,1700,2719,3441,-7394,514,-535,-1775,896,78,55,863
536710,3377328,3738852,3381152,3741600,1282,2684,3532,-8449,961,66,-1836,1462,84,63,863
537711,3377744,3739152,3381479,3741927,1294,2647,3603,-9610,1312,13,-1216,1038,84,63,863
538712,3378088,3739456,3381806,3742254,1737,2632,3676,-10880,1515,57,-787,1103,81,56,864
539713,3378516,3739748,3382133,3742581,1168,2723,3728,-11979,1552,191,-179,1441,81,56,864
540714,3378896,3740040,3382460,3742908,1446,2740,3738,-12819,1509,82,317,2230,68,59,864
541715,3379276,3740356,3382787,3743235,1423,2595,3696,-13201,1458,252,-71,3268,68,59,864
542717,3379720,3740688,3383114,3743562,973,2493,3549,-13304,1456,196,-638,4120,86,76,863
543717,3380112,3741000,3383441,3743889,1269,2625,3392,-12977,1486,-36,-887,5304,86,76,863
544725,3380508,3741396,3383802,3744250,1230,2086,3204,-12506,1452,-234,-842,5322,77,80,866
545719,3380948,3741728,3384129,3744577,905,2484,3049,-12034,1334,-537,-642,5402,77,80,866
546720,3381320,3742032,3384456,3744904,1312,2670,2880,-11445,1228,-530,-860,6031,90,72,867
547721,3381668,3742320,3384783,3745231,1453,2787,2724,-10852,1150,-160,-746,5573,90,72,867
548723,3382052,3742620,3385110,3745558,1203,2725,2601,-10235,1093,45,-187,5497,65,63,865
549723,3382432,3742928,3385437,3745885,1206,2683,2508,-9716,1055,209,276,5033,65,63,865
550725,3382772,3743248,3385764,3746212,1450,2612,2464,-9367,1057,703,594,4388,64,57,864
551726,3383120,3743520,3386091,3746539,1392,2937,2471,-9124,1129,1045,963,4000,64,57,864
552727,3383516,3743780,3386418,3746866,1063,3042,2544,-9006,1256,1255,1070,3322,62,62,864
553728,3383836,3744080,3386745,3747193,1541,2805,2608,-9021,1383,1387,1169,2874,62,62,864
554729,3384164,3744340,3387072,3747520,1491,3084,2664,-9133,1534,1281,1174,2595,57,60,862
555730,3384476,3744640,3387399,3747847,1598,2847,2683,-9279,1682,1416,1315,2332,57,60,862
556731,3384796,3744908,3387726,3748174,1552,3074,2664,-9318,1819,1705,1370,2323,54,50,861
557732,3385084,3745168,3388053,3748501,1769,3153,2603,-9277,1985,1795,1466,2578,54,50,861
558733,3385424,3745432,3388380,3748828,1440,3157,2485,-9035,2168,1821,1335,3173,63,58,861
559733,3385716,3745688,3388707,3749155,1755,3238,2301,-8604,2370,1465,984,3690,63,58,861
560735,3386000,3745936,3389034,3749482,1825,3324,2070,-7873,2578,981,601,4487,53,39,861
561735,3386304,3746188,3389361,3749809,1711,3333,1785,-6970,2813,673,42,4857,53,39,861
562737,3386620,3746392,3389688,3750136,1641,3687,1492,-6024,3033,350,-124,4773,63,41,858
563737,3386896,3746596,3390015,3750463,1914,3742,1236,-5175,3221,177,-145,4437,63,41,858
564739,3387224,3746836,3390342,3750790,1589,3556,1028,-4548,3390,163,-94,3874,65,50,856
565739,3387536,3747072,3390669,3751117,1696,3622,873,-4100,3582,275,2,3524,65,50,856
566741,3387816,3747320,3390996,3751444,1918,3582,780,-3785,3788,383,252,2954,52,38,856
567754,3388092,3747532,3391323,3751771,1965,3800,744,-3603,3998,541,346,2527,52,38,856
568755,3388400,3747728,3391650,3752098,1775,3800,733,-3461,4186,514,392,2598,68,35,856
569756,3388684,3747920,3391977,3752425,1944,3800,722,-3345,4335,470,529,2457,68,35,856
570757,3388968,3748140,3392304,3752752,1964,3800,713,-3295,4414,607,760,2309,67,45,855
571758,3389288,3748384,3392631,3753079,1743,3800,686,-3196,4438,806,928,2566,67,45,855
572747,3389564,3748656,3392958,3753406,2040,3713,592,-3041,4435,1073,953,2970,50,55,854
573760,3389824,3748888,3393285,3753733,2170,3800,440,-2663,4425,1321,947,3525,50,55,854
574762,3390112,3749116,3393612,3754060,2014,3800,261,-2267,4410,1401,1105,3604,51,53,855
575762,3390388,3749388,3393939,3754387,2111,3800,85,-1908,4333,1505,1270,3597,51,53,855
576763,3390620,3749664,3394266,3754714,2429,3800,-117,-1550,4166,1515,1358,3776,46,52,853
577764,3390904,3749944,3394593,3755041,2124,3800,-355,-1209,3953,1547,1442,3742,46,52,853
578765,3391164,3750204,3394920,3755368,2303,3800,-614,-991,3753,1738,1198,3714,66,46,852
579766,3391408,3750464,3395247,3755695,2441,3800,-864,-768,3582,1602,931,3696,66,46,852
580767,3391692,3750720,3395574,3756022,2210,3800,-1093,-693,3394,1464,830,3211,55,50,854
581768,3391968,3750992,3395901,3756349,2283,3800,-1299,-815,3182,1531,444,2750,55,50,854
582757,3392200,3751332,3396228,3756676,2601,3558,-1505,-1031,2966,1426,51,2855,48,61,854
583758,3392452,3751664,3396555,3757003,2510,3607,-1717,-1246,2755,1309,-171,2748,48,61,854
584771,3392656,3751944,3396882,3757330,2865,3800,-1904,-1547,2575,1185,-477,2560,60,66,854
585760,3392876,3752328,3397209,3757657,2813,3279,-2047,-2009,2427,1008,-521,2460,60,66,854
586760,3393080,3752684,3397536,3757984,2967,3443,-2130,-2430,2245,970,-202,2502,55,63,850
587761,3393308,3753028,3397863,3758311,2861,3511,-2174,-2901,2019,1322,-152,2165,55,63,850
588762,3393528,3753356,3398190,3758638,2959,3612,-2199,-3396,1822,1351,-527,2508,43,75,852
589764,3393716,3753804,3398517,3758965,3221,2810,-2274,-3706,1706,818,-1390,3378,43,75,852
590765,3393928,3754204,3398844,3759292,3123,3078,-2408,-3819,1691,142,-1773,3883,45,76,851
591765,3394128,3754536,3399171,3759619,3255,3502,-2518,-3904,1716,-127,-1468,3938,45,76,851
592766,3394308,3754864,3399498,3759946,3445,3528,-2536,-4177,1703,263,-773,3306,39,65,854
593767,3394556,3755300,3399825,3760273,3056,2806,-2520,-4568,1630,665,-296,3234,39,65,854
594775,3394788,3755780,3400186,3760634,3214,2480,-2512,-4785,1540,516,-283,3794,44,79,851
595769,3395016,3756156,3400513,3760961,3283,3109,-2496,-4872,1516,-256,-998,4315,44,79,851
596770,3395264,3756624,3400840,3761288,3194,2473,-2449,-4721,1642,-625,-1365,5162,43,95,856
597771,3395500,3757096,3401167,3761615,3310,2385,-2330,-4500,1827,-713,-778,5254,43,95,856
598773,3395752,3757536,3401494,3761942,3244,2537,-2158,-4325,1949,-514,-286,5125,66,84,856
599774,3396068,3758044,3401821,3762269,2850,2033,-1953,-4332,1996,-5,552,4608,66,84,856
600775,3396332,3758612,3402148,3762596,3203,1552,-1707,-4323,2020,-168,911,4906,67,91,857
601776,3396608,3759092,3402475,3762923,3152,2036,-1457,-4044,2074,-872,461,5947,67,91,857
602776,3396892,3759604,3402802,3763250,3122,1756,-1164,-3629,2218,-1123,450,5955,61,106,860
603777,3397228,3760088,3403129,3763577,2795,1863,-815,-3268,2377,-693,1108,5868,61,106,860
604778,3397556,3760564,3403456,3763904,2845,1847,-440,-2905,2459,28,1541,5658,72,93,860
605779,3397880,3761132,3403783,3764231,2873,1167,-60,-2675,2523,269,1028,5198,72,93,860
606781,3398280,3761648,3404110,3764558,2367,1409,310,-2378,2636,-57,179,5666,82,106,862
607781,3398640,3762104,3404437,3764885,2603,1729,677,-2017,2761,-328,-50,5731,82,106,862
608782,3399012,3762636,3404764,3765212,2509,1164,1071,-1664,2876,-50,16,5435,69,102,865
609783,3399456,3763128,3405091,3765539,2009,1342,1489,-1371,2967,413,99,5148,69,102,865
610784,3399828,3763584,3405418,3765866,2440,1510,1904,-1153,3011,791,429,4839,90,88,864
611785,3400232,3764144,3405745,3766193,2207,759,2299,-990,3001,995,723,4575,90,88,864
612786,3400660,3764552,3406072,3766520,2014,1673,2697,-868,2982,1145,774,4500,80,88,866
613787,3401024,3765044,3406399,3766847,2399,1077,3008,-520,2891,1396,696,5198,80,88,866
614789,3401432,3765592,3406726,3767174,2089,630,3263,-54,2758,1616,628,5213,71,90,867
615790,3401896,3765996,3407053,3767501,1680,1496,3523,367,2604,1760,819,5058,71,90,867
616791,3402280,3766572,3407380,3767828,2156,312,3729,891,2424,1907,631,5568,96,89,869
617792,3402644,3767060,3407707,3768155,2265,792,3863,1476,2271,2056,441,5426,96,89,869
618793,3403116,3767464,3408034,3768482,1528,1283,3923,2141,2174,2213,-84,5639,74,90,869
619794,3403516,3767944,3408361,3768809,1947,741,3896,2779,2110,2408,-512,5291,74,90,869
620794,3403924,3768396,3408688,3769136,1862,861,3832,3244,1987,2600,-397,4617,94,96,869
621796,3404360,3768732,3409015,3769463,1640,1583,3745,3593,1807,2795,-539,4192,94,96,869
622797,3404796,3769088,3409342,3769790,1593,1445,3621,3803,1613,2913,-511,3798,87,80,870
623798,3405196,3769480,3409669,3770117,1787,1191,3413,4130,1488,2846,-904,4343,87,80,870
624799,3405652,3769828,3409996,3770444,1381,1457,3133,4528,1408,2905,-817,4180,85,73,869
625799,3406100,3770148,3410323,3770771,1379,1635,2850,4926,1279,3037,-578,3602,85,73,869
626800,3406456,3770480,3410650,3771098,1942,1558,2568,5116,1092,2898,-257,3062,75,76,869
627801,3406868,3770868,3410977,3771425,1555,1181,2308,5035,860,2788,83,2324,75,76,869
628802,3407336,3771188,3411304,3771752,1144,1609,2069,4804,609,2671,230,1807,90,49,867
629803,3407740,3771432,3411631,3772079,1511,2121,1828,4602,339,2384,466,1801,90,49,867
630805,3408144,3771652,3411958,3772406,1478,2319,1542,4522,18,1971,426,1930,82,45,869
631806,3408564,3771924,3412285,3772733,1338,2018,1208,4518,-326,1333,455,2109,82,45,869
632806,3408948,3772196,3412612,3773060,1539,2042,842,4665,-647,572,282,2443,74,52,864
633807,3409304,3772496,3412939,3773387,1702,1879,495,4841,-1019,-22,506,2315,74,52,864
634809,3409720,3772744,3413266,3773714,1288,2239,189,5029,-1466,-506,982,2206,85,46,866
635809,3410088,3772952,3413593,3774041,1571,2541,-97,5149,-1972,-997,1447,2118,85,46,866
636810,3410468,3773236,3413920,3774368,1473,2086,-388,5146,-2520,-1380,1861,1657,81,42,866
637811,3410844,3773512,3414247,3774695,1477,2158,-736,5165,-3039,-1500,1726,1765,81,42,866
638813,3411248,3773812,3414574,3775022,1269,2020,-1133,5251,-3410,-1328,1262,1780,75,47,865
639813,3411660,3774048,3414901,3775349,1183,2460,-1552,5167,-3636,-1200,958,1392,75,47,865
640815,3412020,3774296,3415228,3775676,1493,2421,-1919,4944,-3797,-1347,816,926,76,62,867
641815,3412448,3774560,3415555,3776003,1025,2349,-2212,4407,-3923,-1470,655,248,76,62,867
642817,3412812,3774840,3415882,3776330,1409,2269,-2408,3540,-4039,-1520,255,-602,79,47,864
643817,3413208,3775088,3416209,3776657,1179,2504,-2494,2383,-4104,-1651,-521,-1453,79,47,864
644827,3413640,3775376,3416570,3777018,924,2287,-2494,1084,-4083,-1662,-896,-1901,85,58,865
645819,3414032,3775628,3416897,3777345,1146,2545,-2495,-319,-3983,-1571,-1063,-2058,85,58,865
646821,3414412,3775880,3417224,3777672,1198,2578,-2483,-1833,-3811,-1479,-1314,-2321,60,64,866
647821,3414832,3776136,3417551,3777999,907,2585,-2476,-3372,-3592,-1246,-1434,-2320,60,64,866
648822,3415188,3776408,3417878,3778326,1296,2509,-2476,-4869,-3331,-1135,-1241,-2080,68,49,865
649823,3415564,3776700,3418205,3778653,1149,2400,-2502,-6225,-3026,-1111,-834,-1737,68,49,865
650825,3415976,3777004,3418532,3778980,888,2336,-2591,-7495,-2702,-938,-205,-1557,70,62,865
651825,3416332,3777264,3418859,3779307,1225,2640,-2751,-8565,-2324,-626,29,-743,70,62,865
652826,3416632,3777596,3419186,3779634,1588,2188,-2986,-9274,-1892,-519,86,370,74,58,866
653827,3416992,3777896,3419513,3779961,1198,2401,-3186,-9787,-1413,-521,-6,406,74,58,866
654829,3417316,3778196,3419840,3780288,1426,2413,-3332,-10342,-927,-223,5,630,58,70,864
655829,3417604,3778536,3420167,3780615,1668,2158,-3505,-10696,-505,430,195,1405,58,70,864
656831,3417884,3778872,3420494,3780942,1739,2179,-3728,-10868,-119,820,-129,1777,47,71,865
657831,3418196,3779220,3420821,3781269,1546,2095,-3969,-10975,273,745,-385,1920,47,71,865
658832,3418472,3779528,3421148,3781596,1794,2354,-4190,-11192,686,638,-628,2007,46,75,864
659833,3418716,3779804,3421475,3781923,2031,2577,-4450,-11342,1118,1134,-914,2469,46,75,864
660834,3418980,3780128,3421802,3782250,1935,2279,-4733,-11367,1566,1765,-1286,2654,49,73,864
661835,3419212,3780500,3422129,3782577,2176,1959,-4980,-11438,2003,2026,-1607,2466,49,73,864
662837,3419488,3780828,3422456,3782904,1925,2234,-5138,-11636,2396,2165,-1753,2398,61,78,863
663838,3419744,3781152,3422783,3783231,2081,2261,-5277,-11961,2755,2558,-2010,2155,61,78,863
664839,3419996,3781520,3423110,3783558,2140,1968,-5408,-12361,3064,3255,-1998,1774,57,73,862
665839,3420228,3781892,3423437,3783885,2307,1924,-5546,-12870,3323,3713,-2041,1816,57,73,862
666841,3420468,3782268,3423764,3784212,2296,1878,-5678,-13404,3568,3874,-2205,1955,54,68,863
667842,3420724,3782620,3424091,3784539,2228,2017,-5780,-13807,3799,3934,-2509,2738,54,68,863
668842,3420956,3782956,3424418,3784866,2420,2114,-5912,-13826,4010,4201,-2886,3822,44,78,864
669843,3421296,3783324,3424745,3785193,1740,1896,-6230,-13399,4254,4646,-3625,5276,44,78,864
670844,3421548,3783640,3425072,3785520,2324,2226,-6546,-12870,4486,4838,-3888,5131,65,73,862
671845,3421808,3783912,3425399,3785847,2304,2526,-6563,-12608,4563,4871,-3388,4655,65,73,862
672846,3422064,3784312,3425726,3786174,2361,1694,-6430,-12292,4514,5118,-3679,5767,68,75,863
673847,3422388,3784660,3426053,3786501,1938,2010,-6197,-11618,4429,5969,-3729,7524,68,75,863
674848,3422728,3784996,3426380,3786828,1832,2082,-1451,-2157,2991,26092,615,32767,56,81,862
675849,3423052,3785300,3426707,3787155,1935,2292,5532,10960,572,27907,838,32767,56,81,862
676850,3423344,3785652,3427034,3787482,2151,1982,8263,14356,-199,6688,-3520,2831,52,67,865
677851,3423612,3786056,3427361,3787809,2328,1623,7450,11550,310,6076,-3294,682,52,67,865
678852,3423820,3786500,3427688,3788136,2755,1321,6331,7337,842,5673,-2029,-3744,72,84,864
679854,3424136,3786772,3428015,3788463,2086,2422,5991,4494,1045,5535,-2796,-2484,72,84,864
680855,3424472,3787036,3428342,3788790,1958,2499,5912,2947,1333,4810,-3446,-1944,59,58,864
681856,3424776,3787308,3428669,3789117,2168,2473,5731,1799,1645,4210,-2931,-1015,59,58,864
682857,3425120,3787588,3428996,3789444,1912,2445,5284,877,1897,3488,-2454,-38,64,51,862
683858,3425416,3788008,3429323,3789771,2226,1529,4816,-132,2005,2182,-1241,-152,64,51,862
684859,3425732,3788396,3429650,3790098,2107,1702,4448,-938,1909,1654,-276,720,61,83,862
685860,3426060,3788708,3429977,3790425,2032,2185,4093,-1403,1693,1139,907,1369,61,83,862
686861,3426324,3789088,3430304,3790752,2461,1737,3813,-1687,1457,406,1625,1725,55,86,864
687862,3426632,3789508,3430631,3791079,2195,1446,3592,-1815,1273,-426,1426,1648,55,86,864
688863,3426940,3790036,3430958,3791406,2204,683,3499,-1880,1232,-1685,898,1879,78,101,862
689864,3427212,3790516,3431285,3791733,2453,916,3478,-1619,1351,-2643,443,3007,78,101,862
690865,3427492,3790968,3431612,3792060,2425,1036,3479,-907,1451,-3399,914,3812,57,108,867
691865,3427764,3791460,3431939,3792387,2500,714,3516,183,1492,-4306,910,4745,57,108,867
692866,3428072,3791952,3432266,3792714,2285,641,3527,1573,1516,-5001,386,5774,76,96,866
693867,3428364,3792396,3432593,3793041,2401,890,3421,3106,1456,-5593,762,6064,76,96,866
694875,3428668,3792940,3432954,3793402,2351,186,3067,4691,1365,-6097,-137,6532,66,84,867
695870,3429000,3793364,3433281,3793729,2175,893,2442,6679,1443,-5765,-2057,8009,66,84,867
696871,3429288,3793780,3433608,3794056,2468,904,1792,8698,1643,-5366,-1870,7502,66,96,867
697872,3429584,3794212,3433935,3794383,2433,758,1339,10178,1758,-5012,-501,5338,66,96,867
698873,3429884,3794620,3434262,3794710,2420,872,1081,10800,1748,-4308,747,3007,73,87,866
699874,3430156,3794928,3434589,3795037,2621,1505,931,10751,1748,-3569,1036,1631,73,87,866
700875,3430456,3795268,3434916,3795364,2457,1300,735,10526,1807,-2727,1306,1326,61,77,866
701876,3430796,3795572,3435243,3795691,2203,1535,394,10107,1785,-2059,2185,275,61,77,866
702877,3431100,3795868,3435570,3796018,2439,1598,-73,9310,1581,-1486,3191,-665,55,51,864
703878,3431400,3796096,3435897,3796345,2477,2067,-576,8215,1238,-820,3390,-1505,55,51,864
704879,3431692,3796336,3436224,3796672,2543,2030,-1066,6848,865,-357,2594,-2120,51,43,864
705879,3431980,3796588,3436551,3796999,2586,1988,-1549,5311,601,96,1252,-1943,51,43,864
706881,3432280,3796836,3436878,3797326,2523,2048,-2067,3887,478,653,863,-1392,71,42,861
707882,3432544,3797064,3437205,3797653,2777,2216,-2664,2709,366,812,1151,-516,71,42,861
708882,3432880,3797284,3437532,3797980,2324,2313,-3281,1602,98,354,2136,-553,57,38,860
709883,3433160,3797492,3437859,3798307,2695,2441,-3840,368,-327,71,2467,-786,57,38,860
710885,3433432,3797688,3438186,3798634,2771,2574,-4346,-959,-832,-10,2614,-637,60,40,859
711886,3433752,3797980,3438513,3798961,2475,1990,-4761,-2338,-1334,-113,2333,-562,60,40,859
712887,3434028,3798224,3438840,3799288,2773,2326,-5055,-3701,-1779,-15,968,-490,69,63,858
713888,3434332,3798476,3439167,3799615,2609,2309,-5263,-4947,-2128,65,-370,205,69,63,858
714888,3434632,3798700,3439494,3799942,2647,2529,-5478,-5838,-2394,8,-1254,1620,66,62,862
715889,3434912,3798928,3439821,3800269,2794,2549,-5744,-6289,-2616,-193,-1952,3048,66,62,862
716890,3435196,3799192,3440148,3800596,2789,2351,-5914,-6582,-2738,-450,-2722,3253,69,50,860
717891,3435540,3799444,3440475,3800923,2406,2459,-5951,-6814,-2753,-580,-2832,3811,69,50,860
718893,3435836,3799656,3440802,3801250,2721,2760,-5929,-6901,-2747,-752,-2688,4550,63,42,858
719893,3436148,3799880,3441129,3801577,2628,2731,-5897,-6864,-2726,-1047,-2805,4980,63,42,858
720895,3436500,3800072,3441456,3801904,2368,2991,-5827,-6844,-2666,-1320,-2945,4911,58,41,859
721895,3436836,3800272,3441783,3802231,2465,2996,-5739,-6888,-2591,-1521,-2731,4964,58,41,859
722897,3437172,3800540,3442110,3802558,2463,2598,-5610,-7019,-2498,-1702,-2506,4869,61,50,858
723897,3437556,3800804,3442437,3802885,2138,2651,-5439,-7164,-2390,-1860,-2588,5110,61,50,858
724898,3437912,3801044,3442764,3803212,2302,2840,-5213,-7359,-2276,-1948,-2552,4967,75,57,858
725899,3438288,3801308,3443091,3803539,2156,2718,-4947,-7563,-2160,-1849,-2313,5037,75,57,858
726900,3438652,3801576,3443418,3803866,2216,2719,-3785,-6674,-2020,-519,-2647,15556,70,51,861
727901,3439092,3801884,3443745,3804193,1692,2478,-110,-529,-1895,2585,-5075,32767,70,51,861
728903,3439500,3802156,3444072,3804520,1858,2727,3095,3738,-1746,-477,-3337,20214,89,70,861
729904,3439884,3802412,3444399,3804847,1984,2860,3849,3338,-1665,-1272,-275,2315,89,70,861
730904,3440356,3802672,3444726,3805174,1370,2864,3495,559,-1619,-863,-89,-64,95,64,863
731905,3440748,3802924,3445053,3805501,1842,2948,3222,-2220,-1535,-459,-732,-545,95,64,863
732906,3441188,3803200,3445380,3805828,1494,2820,3327,-4220,-1326,-595,-1037,-502,84,52,860
733907,3441640,3803508,3445707,3806155,1365,2630,3459,-6019,-1052,-366,-1526,-550,84,52,860
734909,3442028,3803792,3446034,3806482,1739,2799,3464,-7438,-810,-283,-2039,440,93,65,860
735909,3442432,3804060,3446361,3806809,1605,2926,3381,-8854,-547,-678,-2549,748,93,65,860
736910,3442872,3804360,3446688,3807136,1331,2737,3302,-10161,-358,-686,-2656,958,77,65,864
737911,3443308,3804672,3447015,3807463,1310,2670,3263,-11358,-276,-905,-1805,1181,77,65,864
738912,3443712,3804956,3447342,3807790,1477,2864,3246,-12308,-229,-1278,-1378,1951,71,58,862
739913,3444136,3805240,3447669,3808117,1309,2884,3174,-12989,-216,-1456,-1256,2432,71,58,862
740914,3444548,3805512,3447996,3808444,1348,2983,3115,-13486,-183,-1890,-1487,3089,73,58,865
741915,3444956,3805824,3448323,3808771,1338,2741,3031,-13492,-104,-2124,-1460,4589,73,58,865
742916,3445392,3806136,3448650,3809098,1115,2747,2889,-13177,-47,-2176,-1058,5054,81,75,862
743917,3445872,3806444,3448977,3809425,774,2782,2727,-12763,-30,-2429,-854,5502,81,75,862
744926,3446308,3806812,3449338,3809786,1016,2404,2551,-12201,-41,-2506,-551,5786,77,76,864
745920,3446724,3807156,3449665,3810113,1103,2547,2408,-11668,-46,-2321,-274,5576,77,76,864
746921,3447140,3807452,3449992,3810440,1065,2862,2285,-11074,23,-2197,-325,5893,80,67,865
747921,3447556,3807756,3450319,3810767,1026,2822,2246,-10486,188,-2164,-462,5353,80,67,865
748923,3447952,3808040,3450646,3811094,1121,2967,2231,-10019,396,-1776,-226,4990,76,70,865
749923,3448352,3808344,3450973,3811421,1064,2852,2255,-9632,641,-1375,-93,4561,76,70,865
750925,3448716,3808676,3451300,3811748,1274,2676,2306,-9514,928,-1060,14,3666,76,62,864
751926,3449064,3808976,3451627,3812075,1365,2888,2395,-9472,1225,-683,221,3192,76,62,864
752927,3449436,3809228,3451954,3812402,1196,3221,2472,-9581,1574,-334,261,2839,76,63,863
753928,3449756,3809516,3452281,3812729,1524,3014,2556,-9646,1974,96,220,2670,76,63,863
754929,3450076,3809784,3452608,3813056,1528,3165,2638,-9754,2375,111,436,2244,60,57,862
755929,3450428,3810100,3452935,3813383,1317,2871,2713,-9981,2728,162,771,1980,60,57,862
756931,3450708,3810348,3453262,3813710,1789,3332,2766,-10135,3063,543,820,2256,64,49,861
757931,3451024,3810592,3453589,3814037,1569,3393,2806,-10122,3417,781,947,2409,64,49,861
758932,3451348,3810864,3453916,3814364,1521,3244,2814,-10036,3740,967,1283,2704,53,58,863
759933,3451636,3811144,3454243,3814691,1763,3215,2776,-9726,3984,1078,1618,3334,53,58,863
760934,3451908,3811420,3454570,3815018,1888,3263,2661,-9065,4180,989,1595,4238,62,54,859
761935,3452204,3811664,3454897,3815345,1752,3500,2466,-8131,4349,945,1642,5121,62,54,859
762936,3452516,3811880,3455224,3815672,1660,3725,2209,-7046,4492,810,1589,5728,60,54,859
763937,3452820,3812100,3455551,3815999,1720,3747,1894,-5747,4621,610,1543,6190,60,54,859
764938,3453116,3812364,3455878,3816326,1784,3501,1564,-4520,4732,703,1580,5842,52,61,856
765939,3453428,3812616,3456205,3816653,1691,3610,1239,-3556,4741,795,1984,5178,52,61,856
766941,3453724,3812916,3456532,3816980,1805,3322,973,-2923,4684,933,2183,4050,62,60,856
767941,3454004,3813172,3456859,3817307,1926,3629,800,-2710,4636,1132,2107,2839,62,60,856
768955,3454292,3813404,3457186,3817634,1894,3800,656,-2686,4641,1365,1941,2511,65,54,857
769956,3454572,3813636,3457513,3817961,1965,3800,471,-2665,4718,1573,1510,2637,65,54,857
770944,3454864,3813928,3457840,3818288,1906,3506,257,-2671,4764,1674,1333,2496,68,61,856
771945,3455148,3814228,3458167,3818615,1975,3468,43,-2818,4720,1646,1254,2025,68,61,856
772946,3455432,3814536,3458494,3818942,1995,3428,-150,-2941,4632,1753,989,2052,65,67,854
773947,3455672,3814804,3458821,3819269,2309,3704,-356,-3121,4540,1902,994,2112,65,67,854
774948,3455936,3815096,3459148,3819596,2187,3570,-568,-3268,4453,1835,816,2424,47,65,856
775949,3456184,3815388,3459475,3819923,2323,3586,-795,-3281,4336,1684,535,2678,47,65,856
776950,3456436,3815660,3459802,3820250,2331,3737,-1016,-3270,4162,1559,389,2742,59,62,853
777952,3456680,3815968,3460129,3820577,2418,3521,-1219,-3280,3952,1540,414,2898,59,62,853
778965,3456940,3816228,3460456,3820904,2349,3800,-1404,-3200,3733,1309,432,3153,61,70,854
779966,3457208,3816496,3460783,3821231,2325,3800,-1547,-3087,3487,945,496,3174,61,70,854
780954,3457476,3816868,3461110,3821558,2351,3159,-1635,-3060,3198,801,472,3106,47,61,855
781955,3457748,3817188,3461437,3821885,2352,3488,-1702,-3036,2938,858,141,3396,47,61,855
782969,3457956,3817456,3461764,3822212,2804,3800,-1776,-2921,2716,910,149,3555,44,56,854
783957,3458168,3817844,3462091,3822539,2830,3064,-1832,-2856,2539,785,65,3445,44,56,854
784958,3458396,3818204,3462418,3822866,2775,3225,-1862,-2844,2405,632,-9,3460,53,61,855
785959,3458604,3818536,3462745,3823193,2953,3399,-1861,-2891,2277,652,59,3395,53,61,855
786960,3458824,3818836,3463072,3823520,2925,3612,-1834,-2927,2144,935,183,3435,35,57,854
787961,3459048,3819212,3463399,3823847,2947,3116,-1788,-3009,2023,1222,193,3314,35,57,854
788962,3459228,3819592,3463726,3824174,3287,3069,-1758,-2994,1930,1008,-318,3882,53,74,853
789963,3459416,3819964,3464053,3824501,3299,3100,-1760,-2856,1911,390,-949,4384,53,74,853
790965,3459616,3820288,3464380,3824828,3281,3402,-1763,-2697,1960,81,-1212,4409,49,71,855
791965,3459808,3820664,3464707,3825155,3391,3056,-1754,-2606,1983,110,-925,4213,49,71,855
792966,3460016,3821088,3465034,3825482,3345,2714,-1708,-2657,1930,424,-428,3840,51,86,852
793968,3460292,3821488,3465361,3825809,2943,2833,-1647,-2724,1849,728,-328,3839,51,86,852
794975,3460512,3821956,3465722,3826170,3356,2362,-1601,-2702,1858,479,-744,4417,53,90,853
795970,3460752,3822428,3466049,3826497,3270,2275,-1580,-2472,1974,-129,-1214,5070,53,90,853
796970,3460988,3822852,3466376,3826824,3336,2532,-1542,-2215,2062,-651,-1051,4914,43,84,855
797971,3461256,3823316,3466703,3827151,3163,2223,-1413,-2251,2070,-607,-471,3912,43,84,855
798973,3461528,3823840,3467030,3827478,3163,1762,-1194,-2532,2071,60,259,3399,50,99,856
799973,3461816,3824304,3467357,3827805,3082,2078,-963,-2797,2092,356,676,3658,50,99,856
800974,3462152,3824824,3467684,3828132,2779,1643,-761,-2878,2151,-20,224,4323,56,103,858
801976,3462460,3825352,3468011,3828459,2963,1506,-557,-2721,2331,-443,-331,4608,56,103,858
802976,3462776,3825784,3468338,3828786,2919,2060,-329,-2609,2526,-595,119,4780,78,96,859
803977,3463124,3826244,3468665,3829113,2711,1827,-95,-2416,2619,-137,612,4888,78,96,859
804978,3463484,3826764,3468992,3829440,2622,1368,170,-2310,2660,339,715,4072,68,84,862
805979,3463856,3827280,3469319,3829767,2528,1310,439,-2189,2750,258,230,4532,68,84,862
806980,3464260,3827772,3469646,3830094,2295,1388,650,-1861,2860,-52,103,5330,66,109,862
807981,3464644,3828300,3469973,3830421,2396,1076,867,-1471,2958,-108,159,5206,66,109,862
808982,3465024,3828740,3470300,3830748,2399,1576,1120,-1074,2993,179,353,5119,86,101,864
809983,3465404,3829252,3470627,3831075,2377,1046,1395,-681,2988,473,521,4880,86,101,864
810985,3465816,3829768,3470954,3831402,2140,938,1696,-430,2936,583,827,4361,72,96,866
811986,3466208,3830204,3471281,3831729,2238,1390,2013,-347,2861,870,998,4083,72,96,866
812987,3466556,3830712,3471608,3832056,2505,861,2234,-83,2758,1112,842,4816,79,90,867
813987,3467008,3831240,3471935,3832383,1801,648,2379,371,2606,1354,892,5009,79,90,867
814989,3467416,3831684,3472262,3832710,2041,1121,2559,738,2464,1568,934,4411,94,102,865
815989,3467804,3832172,3472589,3833037,2140,776,2761,907,2379,1683,438,3938,94,102,865
816991,3468196,3832716,3472916,3833364,2088,330,2981,963,2291,1508,257,3351,91,100,870
817991,3468612,3833180,3473243,3833691,1900,771,3128,973,2166,1383,-246,3275,91,100,870
818993,3469024,3833680,3473570,3834018,1888,470,3138,1141,2079,1247,-1489,3839,76,85,868
819993,3469476,3834096,3473897,3834345,1583,956,3041,1388,2008,1668,-1485,3804,76,85,868
820995,3469904,3834432,3474224,3834672,1690,1452,2934,1681,1926,2207,-1220,3593,80,88,868
821995,3470292,3834824,3474551,3834999,1914,1073,2790,2011,1809,2211,-1101,3723,80,88,868
822997,3470728,3835248,3474878,3835326,1567,831,2603,2351,1657,2067,-910,3638,78,77,870
823998,3471192,3835572,3475205,3835653,1333,1457,2362,2712,1491,2121,-642,3784,78,77,870
824998,3471600,3835836,3475532,3835980,1647,1860,2095,3150,1312,2390,-284,3754,93,67,869
825999,3472000,3836176,3475859,3836307,1666,1379,1761,3669,1117,2426,-173,3913,93,67,869
827001,3472396,3836464,3476186,3836634,1662,1721,1399,4010,850,2195,108,3266,83,53,869
828001,3472840,3836756,3476513,3836961,1312,1712,1062,4064,465,2122,525,2441,83,53,869
829002,3473252,3837032,3476840,3837288,1474,1834,758,3955,20,2268,824,1866,88,51,869
830003,3473704,3837236,3477167,3837615,1170,2338,439,3763,-392,2233,795,1523,88,51,869
831005,3474104,3837444,3477494,3837942,1464,2365,102,3531,-784,1740,773,1323,72,43,867
832005,3474492,3837688,3477821,3838269,1512,2177,-234,3284,-1181,966,655,1360,72,43,867
833007,3474868,3837936,3478148,3838596,1567,2187,-556,3083,-1609,414,591,1353,73,57,866
834007,3475244,3838164,3478475,3838923,1546,2355,-845,2906,-2077,-21,807,1295,73,57,866
835009,3475584,3838388,3478802,3839250,1766,2426,-1121,2762,-2515,-472,889,1443,70,54,865
836009,3476008,3838616,3479129,3839577,1199,2445,-1419,2660,-2908,-707,920,1314,70,54,865
837010,3476352,3838844,3479456,3839904,1692,2488,-1718,2481,-3295,-904,1082,1076,82,50,864
838011,3476716,3839084,3479783,3840231,1551,2452,-2016,2233,-3661,-1126,964,907,82,50,864
839013,3477152,3839316,3480110,3840558,1054,2543,-2290,1832,-3972,-1214,407,614,66,50,865
840013,3477528,3839596,3480437,3840885,1408,2265,-2502,1403,-4137,-1157,-683,694,66,50,865
841014,3477908,3839816,3480764,3841212,1361,2687,-2622,936,-4142,-1263,-1447,576,79,49,862
842015,3478312,3840064,3481091,3841539,1177,2547,-2716,411,-4082,-1529,-1788,437,79,49,862
843017,3478684,3840324,3481418,3841866,1358,2501,-2820,-124,-4002,-1964,-2239,761,80,53,864
844018,3479056,3840564,3481745,3842193,1338,2665,-2917,-693,-3900,-2137,-2306,600,80,53,864
845028,3479460,3840856,3482106,3842554,1120,2371,-2981,-1359,-3806,-2121,-2012,223,74,43,864
846020,3479832,3841120,3482433,3842881,1301,2573,-2979,-2283,-3707,-1927,-1913,-444,74,43,864
847021,3480164,3841368,3482760,3843208,1549,2709,-2901,-3486,-3608,-1551,-1477,-992,82,58,864
848021,3480532,3841632,3483087,3843535,1306,2637,-2826,-4775,-3474,-1081,-1254,-1055,82,58,864
849022,3480920,3841912,3483414,3843862,1155,2557,-2809,-5934,-3246,-499,-736,-688,77,57,864
850023,3481292,3842200,3483741,3844189,1236,2526,-2861,-6970,-2937,78,-158,-240,77,57,864
851024,3481636,3842484,3484068,3844516,1404,2569,-2941,-7886,-2580,513,343,21,77,55,864
852025,3481980,3842768,3484395,3844843,1397,2589,-3043,-8675,-2168,863,522,468,77,55,864
853026,3482284,3843072,3484722,3845170,1658,2474,-3151,-9333,-1712,1120,571,920,63,59,864
854027,3482624,3843344,3485049,3845497,1427,2699,-3280,-9881,-1253,1361,575,1362,63,59,864
855028,3482964,3843656,3485376,3845824,1422,2456,-3428,-10287,-834,1895,533,1528,55,54,864
856029,3483244,3843992,3485703,3846151,1818,2302,-3645,-10591,-454,2418,246,2083,55,54,864
857030,3483500,3844360,3486030,3846478,2000,2085,-3919,-10753,-90,2574,-92,2591,61,72,863
858031,3483788,3844704,3486357,3846805,1817,2228,-4222,-10994,258,2355,-306,2602,61,72,863
859032,3484040,3845012,3486684,3847132,2075,2461,-4532,-11153,635,2527,-752,3121,42,66,864
860033,3484280,3845328,3487011,3847459,2190,2417,-4860,-11182,1024,3137,-665,3393,42,66,864
861034,3484528,3845632,3487338,3847786,2175,2502,-5135,-11254,1431,3616,-878,3070,42,72,864
862035,3484756,3846000,3487665,3848113,2344,2085,-5331,-11370,1834,3712,-1284,3071,42,72,864
863037,3485012,3846336,3487992,3848440,2201,2281,-5428,-11632,2207,3788,-1510,2929,59,65,860
864037,3485244,3846652,3488319,3848767,2393,2411,-5545,-11755,2495,4109,-1572,3782,59,65,860
865038,3485516,3847004,3488646,3849094,2168,2176,-5707,-11889,2691,4535,-1656,3300,55,65,861
866039,3485752,3847376,3488973,3849421,2433,2031,-6053,-11788,2879,4770,-2281,4373,55,65,861
867040,3485980,3847764,3489300,3849748,2527,1905,-6514,-11518,3090,4644,-2612,4848,44,59,860
868041,3486264,3848096,3489627,3850075,2197,2253,-6783,-11384,3235,4482,-2085,4167,44,59,860
869042,3486528,3848452,3489954,3850402,2350,2090,-6840,-11428,3306,4710,-2223,4593,65,76,861
870043,3486844,3848796,3490281,3850729,2031,2159,-6846,-11236,3394,5160,-2900,5599,65,76,861
871044,3487136,3849116,3490608,3851056,2197,2312,-6697,-10741,3446,5991,-3047,7043,46,68,862
872045,3487408,3849416,3490935,3851383,2346,2449,-2186,-1952,2538,21952,-2780,32767,46,68,862
873046,3487672,3849776,3491262,3851710,2425,2060,4174,9975,1069,21260,-3377,32767,69,62,863
874047,3487988,3850128,3491589,3852037,2106,2099,6586,12878,708,6316,-2367,1233,69,62,863
875048,3488340,3850468,3491916,3852364,1870,2170,5976,9692,916,5877,-538,-1204,54,76,860
876050,3488648,3850768,3492243,3852691,2154,2432,5094,5415,1087,5787,-726,-3852,54,76,860
877050,3488976,3851144,3492570,3853018,2030,1935,4794,2803,1174,5788,-1828,-1376,57,78,864
878051,3489240,3851524,3492897,3853345,2458,1888,4700,1472,1322,5184,-1700,-1157,57,78,864
879053,3489448,3852000,3493224,3853672,2861,1222,4631,521,1467,4937,-1270,-258,61,68,862
880054,3489784,3852284,3493551,3853999,2058,2441,4375,-371,1568,4143,-878,533,61,68,862
881055,3490124,3852540,3493878,3854326,2027,2648,4087,-1345,1614,2672,-453,359,77,61,863
882055,3490444,3852784,3494205,3854653,2156,2760,3784,-1971,1581,1867,-764,1998,77,61,863
883056,3490744,3853088,3494532,3854980,2294,2395,3370,-2054,1549,1178,-965,3114,79,61,862
884057,3491064,3853504,3494859,3855307,2173,1657,3049,-1905,1516,727,-243,3230,79,61,862
885059,3491384,3853884,3495186,3855634,2176,1859,2784,-1751,1408,192,675,2658,77,72,858
886059,3491672,3854148,3495513,3855961,2394,2611,2587,-1596,1228,-943,1320,3099,77,72,858
887060,3491972,3854580,3495840,3856288,2332,1516,2446,-1268,1124,-1725,1336,3619,67,94,865
888062,3492264,3854996,3496167,3856615,2398,1577,2415,-793,1100,-2268,1568,3489,67,94,865
889062,3492548,3855536,3496494,3856942,2468,708,2511,-119,1189,-3036,1102,4086,60,105,861
890063,3492836,3856048,3496821,3857269,2461,803,2572,878,1339,-3791,741,5194,60,105,861
891064,3493124,3856532,3497148,3857596,2479,909,2594,2147,1618,-4110,56,5792,58,101,865
892065,3493420,3857044,3497475,3857923,2443,653,2487,3586,1963,-4625,-27,6606,58,101,865
893066,3493724,3857532,3497802,3858250,2404,732,2263,5251,2294,-4814,59,6969,59,94,867
894067,3494020,3858012,3498129,3858577,2468,715,2013,6731,2542,-4945,36,6164,59,94,867
895075,3494312,3858588,3498490,3858938,2525,20,1833,7867,2727,-4890,-424,5209,58,102,867
896069,3494644,3859064,3498817,3859265,2273,580,1688,8617,2918,-4543,-1335,4415,58,102,867
897070,3494932,3859584,3499144,3859592,2565,221,1556,9134,3106,-4033,-1022,3581,56,90,866
898071,3495236,3859976,3499471,3859919,2477,992,1444,9390,3288,-3547,-387,2613,56,90,866
899072,3495528,3860348,3499798,3860246,2568,1097,1375,9279,3456,-3008,-246,1391,59,93,868
900073,3495836,3860716,3500125,3860573,2477,1104,1297,8861,3644,-2397,-602,941,59,93,868
901074,3496136,3861184,3500452,3860900,2540,417,1186,8318,3808,-1658,-47,602,77,74,866
902075,3496460,3861524,3500779,3861227,2391,1211,1049,7545,3861,-1066,959,-172,77,74,866
903076,3496776,3861828,3501106,3861554,2447,1446,871,6608,3765,-585,1538,-260,78,66,866
904077,3497072,3862140,3501433,3861881,2587,1403,559,5659,3475,-425,1905,-141,78,66,866
905078,3497364,3862408,3501760,3862208,2628,1704,127,4609,2965,-473,2487,-483,56,53,866
906079,3497704,3862692,3502087,3862535,2324,1623,-397,3518,2324,-492,2352,-452,56,53,866
907080,3497992,3862928,3502414,3862862,2667,1962,-1005,2464,1663,-628,1650,-20,74,51,863
908081,3498292,3863136,3502741,3863189,2604,2190,-1665,1549,1025,-773,1256,474,74,51,863
909082,3498628,3863344,3503068,3863516,2376,2242,-2328,695,380,-765,980,607,75,46,864
910083,3498916,3863564,3503395,3863843,2694,2214,-2978,-115,-298,-893,784,923,75,46,864
911085,3499212,3863796,3503722,3864170,2658,2181,-3598,-861,-1013,-1006,667,1292,52,57,860
912085,3499532,3864044,3504049,3864497,2513,2116,-4174,-1645,-1725,-932,701,1119,52,57,860
913087,3499832,3864240,3504376,3864824,2650,2498,-4713,-2530,-2358,-817,747,1269,61,42,859
914087,3500132,3864460,3504703,3865151,2663,2395,-5221,-3399,-2880,-723,1094,1415,61,42,859
915088,3500424,3864704,3505030,3865478,2729,2283,-5687,-4225,-3289,-651,989,1608,59,45,861
916089,3500740,3864940,3505357,3865805,2584,2373,-6033,-5034,-3554,-641,419,1813,59,45,861
917090,3501048,3865220,3505684,3866132,2644,2118,-6202,-5826,-3672,-468,-919,2102,69,60,859
918091,3501380,3865480,3506011,3866459,2493,2273,-6245,-6473,-3657,-267,-2561,2553,69,60,859
919092,3501728,3865708,3506338,3866786,2384,2516,-6216,-7090,-3545,-405,-3332,2769,76,56,859
920093,3502084,3865956,3506665,3867113,2323,2427,-6129,-7769,-3389,-588,-3488,2871,76,56,859
921094,3502420,3866232,3506992,3867440,2445,2274,-5998,-8422,-3226,-648,-3461,3096,82,62,861
922095,3502800,3866496,3507319,3867767,2147,2377,-5847,-8949,-3031,-825,-3499,3661,82,62,861
923096,3503164,3866764,3507646,3868094,2231,2378,-5680,-9328,-2792,-1067,-3721,4129,80,55,861
924097,3503548,3867012,3507973,3868421,2082,2538,-5491,-9619,-2511,-1332,-3903,4561,80,55,861
925098,3503948,3867284,3508300,3868748,1951,2413,-5136,-9669,-2205,-1294,-3849,6131,66,59,862
926099,3504340,3867524,3508627,3869075,1973,2651,-2353,-5393,-1883,1639,-5607,32767,66,59,862
927101,3504720,3867772,3508954,3869402,2026,2636,1968,1598,-1490,1136,-6917,32767,86,64,862
928101,3505144,3868040,3509281,3869729,1710,2538,4073,3556,-1278,-1202,-2052,4626,86,64,862
929102,3505544,3868264,3509608,3870056,1827,2858,4073,1431,-1212,-1056,-805,864,93,59,861
930103,3505944,3868496,3509935,3870383,1796,2850,3751,-1600,-1185,-428,-1302,-585,93,59,861
931104,3506392,3868780,3510262,3870710,1444,2545,3741,-3697,-1005,-212,-1796,273,81,60,862
932105,3506844,3869036,3510589,3871037,1365,2751,3970,-5123,-632,-171,-2112,415,81,60,862
933106,3507248,3869312,3510916,3871364,1631,2648,4090,-6270,-257,143,-2274,966,86,50,861
934107,3507648,3869544,3511243,3871691,1625,2966,4148,-7413,19,-395,-1576,822,86,50,861
935109,3508096,3869828,3511570,3872018,1273,2660,4208,-8689,156,-902,-1067,645,73,51,863
936109,3508476,3870096,3511897,3872345,1675,2787,4222,-9840,116,-979,-773,1128,73,51,863
937110,3508864,3870376,3512224,3872672,1599,2732,4216,-10740,36,-1468,-740,1799,82,65,861
938111,3509276,3870652,3512551,3872999,1413,2780,4162,-11111,-48,-1661,-1123,3125,82,65,861
939112,3509672,3870888,3512878,3873326,1482,3071,4077,-11222,-108,-2096,-1620,3619,68,68,862
940113,3510060,3871204,3513205,3873653,1507,2576,3950,-11014,-101,-2505,-1797,4806,68,68,862
941114,3510500,3871516,3513532,3873980,1133,2608,3817,-10495,-95,-2506,-1663,5177,75,72,862
942116,3510956,3871800,3513859,3874307,976,2802,3685,-10103,-158,-2578,-1015,4722,75,72,862
943117,3511360,3872100,3514186,3874634,1268,2715,3566,-9674,-262,-2717,-569,4979,81,74,863
944118,3511824,3872404,3514513,3874961,833,2700,3436,-9364,-359,-2587,-210,4316,81,74,863
945126,3512192,3872752,3514874,3875322,1431,2432,3304,-9130,-422,-2312,166,4058,91,58,864
946120,3512608,3873048,3515201,3875649,1092,2771,3195,-8881,-373,-2055,116,3908,91,58,864
947121,3513044,3873332,3515528,3875976,920,2865,3151,-8773,-218,-1808,-74,3171,76,59,865
948121,3513432,3873616,3515855,3876303,1193,2884,3155,-8733,20,-1484,-265,3050,76,59,865
949122,3513828,3873916,3516182,3876630,1114,2797,3198,-8903,304,-1184,-213,2184,79,72,864
950123,3514172,3874224,3516509,3876957,1432,2756,3240,-9167,597,-675,-174,1738,79,72,864
951125,3514544,3874524,3516836,3877284,1238,2818,3248,-9406,929,-507,-68,1671,72,59,862
952126,3514876,3874772,3517163,3877611,1486,3178,3233,-9656,1329,-369,-116,1651,72,59,862
953127,3515224,3875048,3517490,3877938,1376,3027,3210,-9799,1760,-111,-149,1645,80,62,862
954128,3515544,3875332,3517817,3878265,1555,2995,3191,-9920,2200,-147,75,1593,80,62,862
955129,3515868,3875608,3518144,3878592,1532,3069,3150,-10007,2606,-175,243,1781,72,58,859
956130,3516164,3875888,3518471,3878919,1721,3064,3084,-10065,2943,-137,529,1683,72,58,859
957130,3516488,3876144,3518798,3879246,1548,3247,2984,-9953,3274,134,731,2126,53,49,861
958132,3516780,3876388,3519125,3879573,1764,3359,2854,-9702,3614,432,975,2535,53,49,861
959133,3517084,3876672,3519452,3879900,1699,3128,2694,-9311,3942,528,1232,2792,74,41,860
960134,3517388,3876928,3519779,3880227,1710,3335,2517,-8765,4239,406,1388,3313,74,41,860
961135,3517672,3877160,3520106,3880554,1854,3528,2269,-7963,4475,267,1570,4263,50,41,858
962135,3517964,3877432,3520433,3880881,1820,3302,1913,-6862,4666,211,1522,5219,50,41,858
963137,3518284,3877652,3520760,3881208,1649,3675,1478,-5542,4863,236,1262,5611,57,52,856
964137,3518572,3877912,3521087,3881535,1866,3455,1005,-4293,4991,378,1739,5447,57,52,856
965138,3518848,3878168,3521414,3881862,1964,3512,556,-3297,5032,604,2130,4758,60,47,858
966139,3519132,3878432,3521741,3882189,1933,3491,136,-2536,5020,990,2563,4241,60,47,858
967141,3519444,3878696,3522068,3882516,1766,3519,-251,-2104,5011,1354,2616,3334,50,58,857
968154,3519732,3878916,3522395,3882843,1933,3800,-612,-1928,4996,1527,2615,2728,50,58,857
969155,3519988,3879120,3522722,3883170,2165,3800,-919,-2020,4946,1652,2672,1859,67,47,856
970144,3520320,3879396,3523049,3883497,1688,3570,-1171,-2394,4843,1868,2560,1014,67,47,856
971144,3520576,3879648,3523376,3883824,2195,3754,-1394,-2949,4714,2114,2373,683,68,44,854
972145,3520832,3879916,3523703,3884151,2226,3680,-1624,-3511,4568,2252,2105,944,68,44,854
973146,3521128,3880180,3524030,3884478,1991,3733,-1891,-3973,4416,2291,1649,1324,69,53,856
974148,3521388,3880452,3524357,3884805,2246,3708,-2119,-4356,4240,2133,1755,1313,69,53,856
975162,3521640,3880708,3524684,3885132,2329,3800,-2320,-4686,3984,1876,1777,1680,60,44,852
976150,3521908,3880988,3525011,3885459,2256,3712,-2545,-4831,3663,1649,1331,2373,60,44,852
977163,3522140,3881244,3525338,3885786,2523,3800,-2785,-4847,3302,1481,1300,2997,57,43,853
978152,3522404,3881520,3525665,3886113,2352,3792,-3030,-4674,2941,1371,1061,3669,57,43,853
979153,3522684,3881800,3525992,3886440,2272,3789,-3273,-4295,2666,1158,623,4369,50,50,853
980154,3522948,3882096,3526319,3886767,2401,3703,-3464,-3893,2450,964,551,4340,50,50,853
981154,3523184,3882448,3526646,3887094,2617,3343,-3600,-3613,2262,931,381,4255,68,66,853
982155,3523432,3882764,3526973,3887421,2577,3574,-3685,-3363,2085,808,231,4318,68,66,853
983157,3523672,3883064,3527300,3887748,2666,3687,-3726,-3201,1941,599,-60,4167,45,75,853
984157,3523892,3883456,3527627,3888075,2839,3084,-3701,-3184,1897,449,-568,3894,45,75,853
985158,3524076,3883828,3527954,3888402,3127,3191,-3619,-3240,1913,245,-674,3911,38,61,852
986159,3524320,3884172,3528281,3888729,2789,3358,-3511,-3325,1926,350,-620,3786,38,61,852
987160,3524536,3884532,3528608,3889056,3014,3245,-3339,-3545,1899,684,-321,3406,51,62,854
988161,3524728,3884912,3528935,3889383,3224,3097,-3135,-3806,1892,825,-637,3628,51,62,854
989162,3524956,3885284,3529262,3889710,3044,3129,-2973,-3827,1933,470,-1244,4662,60,80,853
990163,3525132,3885652,3529589,3890037,3435,3137,-2853,-3672,2055,-61,-1809,5169,60,80,853
991165,3525324,3885988,3529916,3890364,3395,3334,-2714,-3507,2188,-174,-1719,5164,35,77,853
992165,3525540,3886416,3530243,3890691,3295,2715,-2499,-3517,2205,171,-909,4647,35,77,853
993166,3525756,3886840,3530570,3891018,3345,2698,-2270,-3599,2105,609,-479,4608,56,74,851
994167,3525996,3887204,3530897,3891345,3234,3057,-2051,-3628,2024,535,-1031,4971,56,74,851
995175,3526240,3887700,3531258,3891706,3262,2174,-1846,-3552,2100,194,-1930,5549,60,78,854
996169,3526476,3888160,3531585,3892033,3353,2342,-1677,-3176,2290,-88,-2177,6516,60,78,854
997170,3526712,3888580,3531912,3892360,3394,2551,-1504,-2748,2437,-262,-1848,6323,45,93,853
998171,3527004,3889088,3532239,3892687,3060,1922,-1275,-2582,2448,33,-1114,5554,45,93,853
999173,3527304,3889576,3532566,3893014,3023,1977,-983,-2605,2393,684,-160,4987,56,84,856
1000174,3527596,3890032,3532893,3893341,3089,2122,-684,-2694,2349,733,61,5189,56,84,856
1001174,3527864,3890600,3533220,3893668,3266,1316,-400,-2579,2388,244,-401,5579,59,94,858
1002175,3528212,3891088,3533547,3893995,2758,1746,-62,-2575,2500,39,10,5057,59,94,858
1003176,3528528,3891508,3533874,3894322,2964,2130,297,-2593,2567,461,746,5364,54,102,859
1004177,3528844,3892040,3534201,3894649,2970,1341,637,-2474,2536,1039,1133,5275,54,102,859
1005178,3529208,3892532,3534528,3894976,2654,1519,984,-2419,2530,1242,716,4869,81,101,862
1006179,3529576,3893020,3534855,3895303,2612,1474,1309,-2262,2606,1083,261,5524,81,101,862
1007181,3529908,3893556,3535182,3895630,2836,1082,1583,-1947,2705,770,181,6026,82,106,860
1008182,3530320,3894028,3535509,3895957,2300,1419,1845,-1471,2746,844,504,5968,82,106,860
1009183,3530688,3894472,3535836,3896284,2558,1543,2125,-1010,2720,1317,724,5755,67,85,864
1010183,3531076,3894980,3536163,3896611,2407,1063,2409,-645,2629,1532,1139,5588,67,85,864
1011185,3531500,3895492,3536490,3896938,2140,958,2700,-303,2514,1483,1289,5483,87,95,866
1012185,3531900,3895992,3536817,3897265,2259,957,3009,9,2421,1663,1152,5228,87,95,866
1013187,3532256,3896532,3537144,3897592,2523,613,3225,526,2267,1706,836,5963,71,91,866
1014187,3532736,3896988,3537471,3897919,1681,1082,3394,1211,2074,1745,786,5906,71,91,866
1015189,3533116,3897472,3537798,3898246,2284,839,3590,1701,1894,1933,735,5350,74,94,867
1016190,3533492,3897988,3538125,3898573,2287,556,3801,2073,1782,2302,574,5092,74,94,867
1017191,3533920,3898404,3538452,3898900,1919,1141,4025,2389,1704,2038,423,4589,93,92,868
1018191,3534400,3898964,3538779,3899227,1528,139,4151,2757,1593,1527,-557,4801,93,92,868
1019193,3534800,3899440,3539106,3899554,1997,599,4192,3091,1477,1457,-1065,4487,83,94,867
1020194,3535168,3899780,3539433,3899881,2180,1443,4179,3501,1385,1778,-988,4379,83,94,867
1021194,3535636,3900088,3539760,3900208,1494,1651,4134,3841,1308,2179,-1119,3891,78,78,872
1022195,3536064,3900452,3540087,3900535,1699,1285,4063,3998,1203,2159,-835,3384,78,78,872
1023197,3536468,3900828,3540414,3900862,1817,1188,3916,4246,1077,1692,-982,3729,94,62,866
1024198,3536908,3901140,3540741,3901189,1543,1595,3626,4536,903,1671,-924,3628,94,62,866
1025199,3537312,3901404,3541068,3901516,1735,1923,3263,4918,690,1880,-637,3650,77,66,869
1026199,3537724,3901732,3541395,3901843,1648,1522,2875,5276,488,1811,-449,3263,77,66,869
1027200,3538176,3902036,3541722,3902170,1344,1682,2503,5351,239,1856,-221,2222,78,63,868
1028201,3538576,3902296,3542049,3902497,1638,1987,2153,5143,-62,1854,31,1537,78,63,868
1029202,3538972,3902544,3542376,3902824,1632,2097,1817,4811,-405,1622,147,1112,70,44,866
1030203,3539432,3902732,3542703,3903151,1175,2533,1432,4461,-785,1363,95,882,70,44,866
1031204,3539824,3902944,3543030,3903478,1572,2433,1037,4136,-1122,624,-221,966,75,45,866
1032205,3540192,3903188,3543357,3903805,1704,2270,675,3912,-1424,39,-191,1252,75,45,866
1033206,3540592,3903448,3543684,3904132,1473,2199,358,3728,-1774,-131,29,978,65,55,865
1034207,3540960,3903688,3544011,3904459,1655,2363,49,3581,-2138,-440,200,1157,65,55,865
1035208,3541336,3903916,3544338,3904786,1585,2482,-285,3462,-2462,-624,251,1315,70,40,864
1036209,3541684,3904132,3544665,3905113,1752,2606,-644,3265,-2742,-513,368,1106,70,40,864
1037210,3542060,3904376,3544992,3905440,1555,2467,-1039,3117,-2985,-531,717,1004,85,44,864
1038211,3542436,3904620,3545319,3905767,1534,2504,-1430,2889,-3203,-673,804,677,85,44,864
1039212,3542840,3904840,3545646,3906094,1326,2702,-1809,2439,-3407,-924,745,242,83,48,861
1040214,3543280,3905088,3545973,3906421,1052,2561,-2123,1858,-3567,-1201,386,32,83,48,861
1041215,3543712,3905336,3546300,3906748,1056,2596,-2374,1171,-3675,-1275,-446,-433,80,49,862
1042215,3544100,3905556,3546627,3907075,1305,2818,-2548,289,-3748,-1520,-1116,-683,80,49,862
1043216,3544492,3905776,3546954,3907402,1251,2866,-2656,-641,-3788,-1807,-1130,-745,63,60,865
1044217,3544844,3906048,3547281,3907729,1491,2565,-2721,-1647,-3808,-1803,-1193,-1150,63,60,865
1045228,3545188,3906332,3547642,3908090,1549,2524,-2753,-3902,-3584,-1269,-1888,-1321,79,54,863
1046219,3545568,3906596,3547969,3908417,1302,2678,-2755,-5123,-3382,-1049,-1757,-1389,79,54,863
1047221,3545900,3906832,3548296,3908744,1599,2893,-2790,-6273,-3131,-792,-1382,-972,80,55,863
1048222,3546284,3907100,3548623,3909071,1250,2719,-2862,-7221,-2830,-448,-555,-513,80,55,863
1049222,3546696,3907340,3548950,3909398,1038,2933,-2960,-8090,-2520,-167,224,-449,69,47,864
1050223,3547004,3907640,3549277,3909725,1696,2570,-3063,-8941,-2185,-89,386,-127,69,47,864
1051224,3547320,3907936,3549604,3910052,1652,2608,-3185,-9603,-1813,44,462,350,63,67,861
1052225,3547604,3908212,3549931,3910379,1871,2757,-3291,-10190,-1389,338,432,430,63,67,861
1053226,3547988,3908504,3550258,3910706,1222,2672,-3417,-10756,-954,815,609,958,61,67,862
1054227,3548304,3908808,3550585,3911033,1652,2608,-3562,-11193,-554,1585,678,1087,61,67,862
1055228,3548596,3909112,3550912,3911360,1818,2618,-3736,-11587,-187,2078,420,1120,51,61,861
1056230,3548904,3909420,3551239,3911687,1727,2602,-3934,-11911,188,2263,-13,1652,51,61,861
1057231,3549188,3909804,3551566,3912014,1897,2103,-4190,-12189,582,2113,-298,2109,64,78,863
1058231,3549436,3910164,3551893,3912341,2156,2238,-4454,-12366,1016,2212,-852,2375,64,78,863
1059232,3549684,3910504,3552220,3912668,2191,2358,-4742,-12428,1476,2777,-1055,2684,64,62,863
1060233,3549944,3910832,3552547,3912995,2146,2433,-5013,-12525,1941,3207,-1134,2603,64,62,863
1061234,3550176,3911172,3552874,3913322,2363,2353,-5235,-12810,2388,3522,-1280,2115,59,73,862
1062235,3550416,3911528,3553201,3913649,2352,2241,-5405,-13122,2777,3687,-1406,2360,59,73,862
1063236,3550668,3911872,3553528,3913976,2310,2308,-5543,-13291,3055,3902,-1412,2937,52,76,860
1064238,3550924,3912200,3553855,3914303,2318,2409,-5761,-13330,3210,4188,-1568,3296,52,76,860
1065238,3551180,3912572,3554182,3914630,2350,2114,-5977,-13488,3296,4529,-1833,2912,39,62,862
1066239,3551432,3912972,3554509,3914957,2408,1908,-6434,-13119,3467,4680,-2931,5329,39,62,862
1067240,3551684,3913344,3554836,3915284,2442,2063,-6965,-12665,3715,4591,-3376,4699,62,77,861
1068241,3551964,3913740,3555163,3915611,2287,1883,-7246,-12376,3783,4719,-2303,4310,62,77,861
1069242,3552276,3914088,3555490,3915938,2095,2174,-7316,-12138,3701,5099,-2391,5224,54,74,862
1070243,3552560,3914472,3555817,3916265,2290,1924,-7289,-11787,3616,5570,-2973,5632,54,74,862
1071244,3552844,3914800,3556144,3916592,2309,2274,-7252,-11200,3542,5715,-3320,6476,51,67,863
1072245,3553164,3915116,3556471,3916919,2088,2355,-4623,-6855,3181,12960,-2951,29811,51,67,863
1073247,3553472,3915516,3556798,3917246,2171,1798,2420,7539,1330,28661,-969,32767,72,61,862
1074247,3553840,3915868,3557125,3917573,1779,2087,6694,14258,164,9711,-2142,7439,72,61,862
1075249,3554188,3916188,3557452,3917900,1896,2291,7059,12717,45,6437,-1317,-498,79,80,863
1076249,3554492,3916556,3557779,3918227,2181,1973,5953,8135,193,6376,-1037,-3030,79,80,863
1077251,3554764,3916920,3558106,3918554,2406,1982,5399,4706,270,6242,-2161,-3278,73,83,865
1078251,3555020,3917312,3558433,3918881,2538,1779,5412,2626,350,5550,-2021,-2488,73,83,865
1079253,3555340,3917756,3558760,3919208,2141,1403,5483,986,445,4939,-2141,-2696,67,87,864
1080254,3555648,3918028,3559087,3919535,2226,2502,5049,-86,723,4486,-3723,481,67,87,864
1081255,3555972,3918260,3559414,3919862,2128,2795,4319,-709,1099,3016,-2848,1255,72,58,863
1082255,3556300,3918556,3559741,3920189,2103,2408,3864,-1341,1118,1982,-580,560,72,58,863
1083256,3556592,3918880,3560068,3920516,2344,2234,3595,-1783,811,1527,160,1702,61,51,860
1084257,3556912,3919248,3560395,3920843,2173,1941,3262,-1968,524,915,780,2483,61,51,860
1085258,3557200,3919588,3560722,3921170,2390,2112,2958,-1965,358,658,1304,2302,77,63,861
1086259,3557476,3919980,3561049,3921497,2489,1758,2809,-2102,307,-266,1872,1532,77,63,861
1087261,3557752,3920384,3561376,3921824,2512,1649,2853,-2222,397,-1509,1521,2000,68,80,864
1088261,3558068,3920852,3561703,3922151,2267,1188,2966,-1987,543,-2204,1205,2837,68,80,864
1089263,3558352,3921320,3562030,3922478,2487,1126,3040,-1262,634,-3229,1347,4118,63,86,864
1090263,3558632,3921788,3562357,3922805,2533,1064,3160,-8,840,-4027,823,5774,63,86,864
1091265,3558944,3922316,3562684,3923132,2340,601,3216,1726,1097,-4609,873,6907,56,95,866
1092265,3559240,3922768,3563011,3923459,2455,1021,3098,3795,1381,-5260,842,8264,56,95,866
1093266,3559524,3923220,3563338,3923786,2550,967,2740,6129,1692,-5629,296,9174,76,98,865
1094267,3559860,3923760,3563665,3924113,2221,324,2233,8485,2036,-5429,-11,8890,76,98,865
1095275,3560172,3924232,3564026,3924474,2393,700,1837,10319,2283,-5445,434,6784,78,98,865
1096270,3560460,3924800,3564353,3924801,2561,-6,1692,11355,2464,-5049,326,4595,78,98,865
1097271,3560780,3925328,3564680,3925128,2365,156,1618,11943,2701,-4215,-97,3748,55,89,868
1098271,3561088,3925824,3565007,3925455,2449,281,1493,12363,3102,-3417,-321,3357,55,89,868
1099272,3561380,3926244,3565334,3925782,2565,715,1314,12649,3592,-2595,-356,2789,78,100,867
1100273,3561716,3926476,3565661,3926109,2287,1932,1176,12491,4022,-1831,165,919,78,100,867
1101274,3562048,3926940,3565988,3926436,2311,422,1088,11633,4301,-1339,714,-827,63,94,868
1102275,3562340,3927288,3566315,3926763,2576,1137,968,10398,4407,-526,1134,-1546,63,94,868
1103277,3562668,3927676,3566642,3927090,2352,860,787,8942,4368,-48,1610,-2062,76,82,864
1104277,3562972,3928032,3566969,3927417,2513,1047,527,7508,4300,374,1483,-1651,76,82,864
1105279,3563276,3928368,3567296,3927744,2524,1168,133,6178,4127,530,1713,-1155,68,87,864
1106279,3563588,3928652,3567623,3928071,2481,1512,-400,4903,3696,126,2646,-978,68,87,864
1107281,3563956,3928984,3567950,3928398,2114,1210,-1018,3651,3004,-182,3021,-1074,59,66,864
1108281,3564276,3929244,3568277,3928725,2418,1689,-1663,2405,2208,-443,2587,-872,59,66,864
1109283,3564584,3929496,3568604,3929052,2502,1772,-2308,1275,1422,-910,2304,-152,67,64,864
1110283,3564936,3929708,3568931,3929379,2217,2073,-2932,344,623,-1080,1558,251,67,64,864
1111285,3565256,3929896,3569258,3929706,2420,2283,-3567,-488,-187,-1249,629,818,71,51,864
1112286,3565568,3930100,3569585,3930033,2478,2237,-4239,-1099,-992,-1462,539,1715,71,51,864
1113287,3565912,3930272,3569912,3930360,2271,2505,-4941,-1638,-1813,-1618,797,1865,54,35,863
1114288,3566220,3930484,3570239,3930687,2506,2306,-5593,-2177,-2601,-1744,581,1939,54,35,863
1115288,3566556,3930684,3570566,3931014,2327,2437,-6124,-2807,-3238,-1741,293,1928,77,33,860
1116289,3566896,3930860,3570893,3931341,2297,2654,-6497,-3523,-3697,-1759,654,1842,77,33,860
1117290,3567204,3931084,3571220,3931668,2506,2399,-6703,-4309,-4015,-1918,911,1859,56,45,859
1118291,3567532,3931308,3571547,3931995,2382,2444,-6732,-5115,-4227,-1930,18,1911,56,45,859
1119292,3567852,3931572,3571874,3932322,2435,2222,-6617,-5934,-4309,-1765,-1742,1863,78,44,860
1120293,3568200,3931840,3572201,3932649,2252,2223,-6399,-6768,-4251,-1725,-2996,1993,78,44,860
1121294,3568536,3932108,3572528,3932976,2324,2249,-6135,-7640,-4084,-1727,-3556,2085,65,67,860
1122295,3568872,3932380,3572855,3933303,2321,2248,-5863,-8572,-3821,-1648,-3732,2193,65,67,860
1123296,3569248,3932660,3573182,3933630,2049,2220,-5615,-9393,-3444,-1524,-3899,2555,71,70,862
1124297,3569584,3932948,3573509,3933957,2296,2187,-5380,-10182,-3002,-1522,-4214,2867,71,70,862
1125298,3569932,3933196,3573836,3934284,2213,2472,-5146,-10822,-2545,-1769,-4262,3358,84,57,862
1126299,3570348,3933484,3574163,3934611,1750,2239,-4888,-11366,-2117,-1960,-3968,3794,84,57,862
1127300,3570720,3933720,3574490,3934938,2005,2604,-4596,-11772,-1736,-1970,-3663,4228,86,64,861
1128301,3571108,3933952,3574817,3935265,1879,2672,-4277,-12042,-1389,-2024,-3497,4740,86,64,861
1129302,3571552,3934232,3575144,3935592,1479,2392,-3209,-11264,-1086,-881,-3525,13928,68,63,864
1130303,3571948,3934500,3575471,3935919,1749,2493,278,-5355,-1087,3790,-4317,32767,68,63,864
1131304,3572324,3934744,3575798,3936246,1853,2680,3621,-608,-1085,403,-3756,24018,75,64,861
1132305,3572756,3935000,3576125,3936573,1458,2637,4667,-350,-892,-1685,-2380,3463,75,64,861
1133306,3573136,3935252,3576452,3936900,1760,2695,4521,-2448,-663,-1387,-2057,1695,68,56,862
1134307,3573504,3935532,3576779,3937227,1818,2540,4373,-4544,-463,-771,-2375,1379,68,56,862
1135308,3573892,3935832,3577106,3937554,1667,2428,4565,-5845,-236,-532,-1908,1349,72,66,863
1136309,3574344,3936096,3577433,3937881,1212,2681,4848,-7057,1,-369,-1634,589,72,66,863
1137310,3574740,3936344,3577760,3938208,1533,2816,5046,-8120,163,-292,-1476,1036,87,66,863
1138311,3575128,3936612,3578087,3938535,1556,2718,5150,-9239,315,-679,-1444,1180,87,66,863
1139313,3575556,3936892,3578414,3938862,1262,2663,5168,-10161,429,-604,-1664,1678,64,62,863
1140313,3575976,3937248,3578741,3939189,1273,2175,5159,-10898,477,-873,-1627,1804,64,62,863
1141314,3576412,3937536,3579068,3939516,1125,2619,5159,-11434,538,-1239,-1856,2518,71,75,863
1142315,3576840,3937848,3579395,3939843,1131,2475,5168,-11663,589,-1250,-1880,3058,71,75,863
1143316,3577256,3938164,3579722,3940170,1167,2455,5110,-11843,614,-1530,-1565,3301,90,66,866
1144318,3577656,3938480,3580049,3940497,1236,2461,5001,-11636,657,-1536,-1593,4150,90,66,866
1145325,3578072,3938768,3580410,3940858,1112,2668,4820,-11310,609,-1732,-839,4139,84,54,865
1146320,3578432,3939052,3580737,3941185,1447,2713,4635,-10887,512,-1681,-602,4427,84,54,865
1147321,3578812,3939336,3581064,3941512,1300,2732,4438,-10351,477,-1248,-243,4698,82,64,865
1148321,3579216,3939592,3581391,3941839,1116,2938,4242,-9727,504,-820,227,4812,82,64,865
1149322,3579580,3939868,3581718,3942166,1351,2836,3956,-8952,606,-517,232,5053,68,57,862
1150323,3579916,3940116,3582045,3942493,1522,3046,3679,-8342,760,-477,233,4115,68,57,862
1151325,3580292,3940364,3582372,3942820,1252,3082,3463,-8062,873,-481,626,3224,71,47,862
1152325,3580628,3940636,3582699,3943147,1498,2956,3276,-7968,993,-499,509,2759,71,47,862
1153326,3580920,3940876,3583026,3943474,1788,3195,3096,-8063,1208,-346,207,2146,73,61,860
1154327,3581236,3941136,3583353,3943801,1644,3100,2916,-8183,1503,-22,177,1888,73,61,860
1155329,3581556,3941392,3583680,3944128,1622,3157,2776,-8444,1863,218,213,978,72,41,861
1156329,3581860,3941612,3584007,3944455,1733,3429,2660,-8838,2254,594,311,853,72,41,861
1157330,3582172,3941848,3584334,3944782,1690,3370,2517,-9142,2681,709,254,1238,68,47,860
1158331,3582504,3942088,3584661,3945109,1562,3383,2372,-9314,3134,670,308,1521,68,47,860
1159332,3582796,3942296,3584988,3945436,1829,3636,2223,-9214,3553,581,601,2104,67,52,857
1160333,3583076,3942532,3585315,3945763,1924,3501,2031,-8807,3923,277,978,3064,67,52,857
1161334,3583388,3942732,3585642,3946090,1732,3783,1738,-8031,4296,138,956,4281,54,50,857
1162348,3583676,3942932,3585969,3946417,1899,3800,1387,-7047,4655,59,1175,4958,54,50,857
1163336,3583976,3943160,3586296,3946744,1837,3709,1023,-5992,4975,141,1503,5285,57,44,856
1164350,3584292,3943372,3586623,3947071,1742,3800,680,-4927,5249,321,1795,5176,57,44,856
1165338,3584576,3943616,3586950,3947398,1961,3698,387,-4066,5449,392,2206,4637,67,56,854
1166352,3584876,3943840,3587277,3947725,1874,3800,126,-3295,5611,500,2342,4505,67,56,854
1167353,3585192,3944068,3587604,3948052,1778,3800,-132,-2647,5762,693,2386,4287,47,42,855
1168354,3585460,3944312,3587931,3948379,2105,3800,-363,-2171,5903,878,2353,3761,47,42,855
1169355,3585732,3944516,3588258,3948706,2105,3800,-556,-1966,5967,1042,2480,3079,59,43,854
1170356,3586024,3944764,3588585,3949033,1996,3800,-718,-1983,5893,1237,2684,2519,59,43,854
1171344,3586312,3945032,3588912,3949360,2038,3791,-888,-2048,5715,1497,2854,2545,65,45,852
1172358,3586580,3945288,3589239,3949687,2190,3800,-1098,-2050,5477,1599,2922,2611,65,45,852
1173359,3586868,3945536,3589566,3950014,2082,3800,-1348,-2099,5173,1570,2970,2724,54,41,853
1174360,3587120,3945804,3589893,3950341,2341,3800,-1600,-2118,4810,1581,2751,2871,54,41,853
1175349,3587360,3946096,3590220,3950668,2454,3753,-1852,-2205,4412,1698,2452,2863,66,60,851
1176349,3587620,3946384,3590547,3950995,2360,3796,-2111,-2346,3993,1810,2018,2818,66,60,851
1177363,3587892,3946648,3590874,3951322,2309,3800,-2343,-2618,3592,1793,1778,2510,56,63,852
1178364,3588144,3946936,3591201,3951649,2468,3800,-2528,-2918,3226,1589,1403,2546,56,63,852
1179365,3588396,3947224,3591528,3951976,2501,3800,-2694,-3294,2900,1400,914,2501,53,59,852
1180366,3588672,3947452,3591855,3952303,2374,3800,-2836,-3676,2616,1335,536,2518,53,59,852
1181354,3588908,3947776,3592182,3952630,2665,3682,-2976,-4047,2372,1353,180,2726,47,60,852
1182355,3589124,3948120,3592509,3952957,2839,3550,-3122,-4380,2186,1154,-338,3073,47,60,852
1183369,3589356,3948404,3592836,3953284,2782,3800,-3231,-4616,2055,975,-574,3414,42,65,852
1184357,3589576,3948720,3593163,3953611,2905,3751,-3294,-4846,1962,896,-664,3565,42,65,852
1185358,3589780,3949124,3593490,3953938,3059,3168,-3296,-4972,1864,854,-612,3779,34,61,852
1186359,3589992,3949492,3593817,3954265,3060,3376,-3273,-5124,1761,1115,-322,3776,34,61,852
1187361,3590192,3949832,3594144,3954592,3192,3546,-3219,-5214,1698,1064,-604,4253,39,72,850
1188361,3590376,3950228,3594471,3954919,3355,3167,-3158,-5117,1705,391,-1079,5184,39,72,850
1189362,3590568,3950628,3594798,3955246,3365,3110,-3093,-4879,1752,-191,-1277,5672,59,78,852
1190363,3590764,3951000,3595125,3955573,3399,3266,-2986,-4578,1783,-292,-1220,5744,59,78,852
1191365,3590932,3951368,3595452,3955900,3645,3274,-2809,-4376,1790,114,-676,5460,45,71,850
1192365,3591160,3951780,3595779,3956227,3314,2963,-2604,-4193,1792,542,-631,5663,45,71,850
1193366,3591416,3952212,3596106,3956554,3172,2793,-2415,-3906,1796,280,-823,6016,40,89,850
1194367,3591648,3952620,3596433,3956881,3364,2908,-2204,-3651,1820,-194,-962,6039,40,89,850
1195375,3591872,3953084,3596794,3957242,3474,2514,-1945,-3335,1928,-275,-1271,6122,44,92,852
1196369,3592116,3953576,3597121,3957569,3387,2266,-1640,-3168,2049,-352,-791,5783,44,92,852
1197370,3592372,3954036,3597448,3957896,3344,2409,-1338,-3021,2082,-318,-471,5810,61,94,853
1198371,3592660,3954548,3597775,3958223,3162,2003,-1009,-2996,2081,274,-73,4951,61,94,853
1199372,3592964,3955052,3598102,3958550,3073,1977,-657,-3062,2124,400,199,5015,66,87,856
1200373,3593244,3955488,3598429,3958877,3245,2354,-319,-2991,2232,-117,-15,5695,66,87,856
1201374,3593512,3956052,3598756,3959204,3347,1451,62,-2946,2334,-271,578,5058,60,96,858
1202375,3593844,3956588,3599083,3959531,2946,1534,477,-2918,2405,136,921,5216,60,96,858
1203377,3594160,3957028,3599410,3959858,3052,2085,880,-2855,2457,934,1096,5159,73,92,857
1204377,3594464,3957576,3599737,3960185,3138,1314,1205,-2687,2585,1482,571,5466,73,92,857
1205378,3594800,3958080,3600064,3960512,2935,1511,1462,-2204,2814,955,-146,6354,66,87,860
1206379,3595152,3958552,3600391,3960839,2825,1648,1677,-1615,2960,133,-310,6603,66,87,860
1207380,3595476,3959160,3600718,3961166,3002,675,1916,-1053,2938,267,40,6217,61,99,861
1208382,3595800,3959676,3601045,3961493,3004,1167,2215,-565,2889,659,277,5788,61,99,861
1209382,3596132,3960148,3601372,3961820,2953,1379,2510,-184,2889,1092,327,5706,54,99,861
1210383,3596404,3960688,3601699,3962147,3353,861,2770,183,2948,1192,416,5590,54,99,861
1211384,3596732,3961148,3602026,3962474,3004,1302,3055,472,3013,1361,539,5117,64,107,862
1212386,3597060,3961668,3602353,3962801,3005,842,3362,814,3022,1763,451,4852,64,107,862
1213386,3597356,3962232,3602680,3963128,3219,464,3677,1035,2961,1950,783,4350,56,100,861
1214387,3597624,3962656,3603007,3963455,3421,1297,4007,1186,2898,1874,963,4331,56,100,861
1215389,3598008,3963152,3603334,3963782,2672,772,4320,1337,2816,2093,680,4221,73,108,862
1216389,3598360,3963664,3603661,3964109,2862,591,4607,1534,2701,2285,377,3874,73,108,862
1217390,3598704,3964036,3603988,3964436,2906,1446,4812,1906,2540,1902,-212,4506,63,97,858
1218391,3599080,3964516,3604315,3964763,2685,704,4867,2529,2391,1337,-1478,5475,63,97,858
1219392,3599464,3964972,3604642,3965090,2611,797,4844,3255,2265,1309,-1777,5372,84,85,865
1220394,3599852,3965288,3604969,3965417,2560,1677,4803,4019,2103,1391,-1687,4970,84,85,865
1221394,3600248,3965600,3605296,3965744,2481,1709,4702,4698,1876,1195,-1743,4789,87,66,865
1222395,3600608,3965976,3605623,3966071,2692,1287,4482,5292,1638,891,-1923,4803,87,66,865
1223397,3601032,3966312,3605950,3966398,2251,1533,4162,5797,1415,1036,-1844,4353,94,59,862
1224398,3601436,3966644,3606277,3966725,2343,1556,3844,6138,1173,1393,-1475,3113,94,59,862
1225399,3601864,3966916,3606604,3967052,2150,1955,3554,6056,867,1550,-722,1836,73,73,864
1226399,3602312,3967248,3606931,3967379,1972,1578,3254,5552,537,1506,-474,996,73,73,864
1227400,3602688,3967528,3607258,3967706,2402,1925,2871,5022,238,1425,-450,924,98,64,864
1228401,3603100,3967776,3607585,3968033,2140,2159,2447,4469,-62,1175,-139,331,98,64,864
1229402,3603540,3968028,3607912,3968360,1917,2167,2039,3815,-445,868,86,-204,74,44,866
1230403,3603976,3968244,3608239,3968687,1894,2441,1609,3127,-910,602,320,-71,74,44,866
1231405,3604388,3968452,3608566,3969014,2008,2543,1161,2451,-1366,587,305,-168,78,47,862
1232405,3604808,3968704,3608893,3969341,1918,2301,720,1737,-1763,667,162,-341,78,47,862
1233406,3605196,3968976,3609220,3969668,2092,2201,325,1011,-2130,92,148,-515,93,44,862
1234407,3605680,3969204,3609547,3969995,1424,2519,-54,389,-2445,-246,-213,-171,93,44,862
1235408,3606124,3969452,3609874,3970322,1622,2429,-473,-7,-2663,-142,-613,453,87,60,863
1236410,3606508,3969668,3610201,3970649,1973,2678,-952,-231,-2783,-259,-577,1037,87,60,863
1237411,3606936,3969900,3610528,3970976,1655,2620,-1381,-423,-2928,-532,-204,809,77,44,862
1238411,3607324,3970140,3610855,3971303,1878,2609,-1699,-872,-3121,-969,-82,150,77,44,862
1239413,3607764,3970376,3611182,3971630,1505,2674,-1946,-1430,-3311,-1344,-164,62,71,45,860
1240414,3608184,3970612,3611509,3971957,1590,2714,-2152,-1988,-3451,-1491,-232,-165,71,45,860
1241415,3608596,3970876,3611836,3972284,1602,2567,-2374,-2541,-3506,-1458,-270,-100,73,52,861
1242416,3609016,3971092,3612163,3972611,1512,2916,-2595,-3067,-3445,-1529,-473,21,73,52,861
1243416,3609404,3971328,3612490,3972938,1687,2831,-2807,-3629,-3283,-1437,-1317,-139,70,58,861
1244418,3609824,3971564,3612817,3973265,1446,2871,-2974,-4235,-3030,-1219,-1669,-199,70,58,861
1245428,3610224,3971840,3613178,3973626,1555,2659,-3095,-4974,-2736,-1109,-892,-438,82,58,861
1246419,3610604,3972148,3613505,3973953,1656,2468,-3181,-5774,-2418,-782,-649,-611,82,58,861
1247421,3611040,3972372,3613832,3974280,1259,3038,-3283,-6637,-2058,-433,-542,-616,72,64,861
1248421,3611408,3972640,3614159,3974607,1666,2790,-3403,-7484,-1678,-105,-251,-565,72,64,861
1249422,3611792,3972940,3614486,3974934,1542,2602,-3548,-8232,-1311,105,19,-317,73,57,862
1250423,3612188,3973240,3614813,3975261,1437,2614,-3695,-8871,-955,218,351,-2,73,57,862
1251424,3612536,3973520,3615140,3975588,1729,2760,-3835,-9507,-586,575,632,182,74,68,860
1252425,3612856,3973808,3615467,3975915,1907,2727,-3974,-10157,-177,1036,945,307,74,68,860
1253426,3613172,3974108,3615794,3976242,1938,2665,-4134,-10710,238,1617,1169,548,60,54,863
1254427,3613516,3974416,3616121,3976569,1755,2624,-4339,-11096,642,2295,1273,901,60,54,863
1255428,3613828,3974740,3616448,3976896,1963,2525,-4582,-11384,1038,2954,1077,1161,65,69,861
1256429,3614144,3975068,3616775,3977223,1943,2501,-4866,-11651,1444,3256,477,1515,65,69,861
1257430,3614424,3975420,3617102,3977550,2189,2340,-5194,-11798,1861,2969,-259,2158,57,76,862
1258431,3614716,3975808,3617429,3977877,2130,2089,-5543,-11799,2279,2773,-707,2559,57,76,862
1259432,3614976,3976172,3617756,3978204,2360,2222,-5874,-11685,2691,2882,-865,3008,63,78,860
1260433,3615248,3976484,3618083,3978531,2309,2554,-6288,-11335,3132,3341,-1472,3769,63,78,860
1261434,3615524,3976840,3618410,3978858,2308,2267,-6723,-10991,3538,3826,-1612,3425,50,65,861
1262435,3615776,3977196,3618737,3979185,2492,2255,-7026,-10997,3757,4066,-960,2825,50,65,861
1263436,3616088,3977576,3619064,3979512,2123,2082,-7194,-11097,3803,4042,-1156,3239,62,77,860
1264437,3616376,3977912,3619391,3979839,2291,2353,-7326,-11188,3730,4063,-1821,3116,62,77,860
1265438,3616656,3978300,3619718,3980166,2362,2002,-7418,-11314,3612,4248,-2540,2964,47,67,860
1266439,3616956,3978684,3620045,3980493,2250,2002,-7496,-11341,3504,4610,-3406,3848,47,67,860
1267440,3617252,3979028,3620372,3980820,2289,2245,-7570,-11120,3416,5009,-3968,4468,66,64,861
1268441,3617552,3979420,3620699,3981147,2276,1916,-7635,-10837,3333,5202,-4368,4934,66,64,861
1269443,3617916,3979824,3621026,3981474,1861,1809,-7611,-10569,3193,5476,-4224,5138,60,77,862
1270443,3618240,3980192,3621353,3981801,2113,2016,-7486,-10326,2997,5797,-4176,5388,60,77,862
1271444,3618552,3980504,3621680,3982128,2195,2372,-6186,-9003,2786,8546,-4164,11237,56,63,862
1272445,3618856,3980860,3622007,3982455,2255,2085,108,3739,1284,28486,-2375,32767,56,63,862
1273446,3619244,3981228,3622334,3982782,1704,1992,6354,14024,-229,15554,-2956,25091,58,83,864
1274447,3619612,3981612,3622661,3983109,1812,1867,7762,14299,-687,7034,-2275,832,58,83,864
1275448,3619928,3981936,3622988,3983436,2142,2245,6866,10350,-543,6998,-2062,-1736,62,81,863
1276449,3620252,3982316,3623315,3983763,2095,1871,5844,6239,-265,7033,-3310,-3706,62,81,863
1277450,3620472,3982668,3623642,3984090,2792,2035,5530,3843,16,6474,-3643,-2635,68,81,865
1278451,3620812,3983112,3623969,3984417,2037,1409,5463,2128,283,5784,-2576,-2236,68,81,865
1279453,3621180,3983392,3624296,3984744,1845,2456,5344,564,414,5567,-1795,-1999,66,82,864
1280453,3621500,3983660,3624623,3985071,2148,2557,5103,-822,575,4465,-1863,-665,66,82,864
1281455,3621812,3983944,3624950,3985398,2206,2475,4785,-1915,757,3054,-1468,401,71,54,865
1282455,3622140,3984232,3625277,3985725,2105,2468,4437,-2558,748,2233,-923,1289,71,54,865
1283456,3622456,3984600,3625604,3986052,2186,1951,4120,-2992,607,1452,-152,1401,59,70,859
1284457,3622736,3984940,3625931,3986379,2432,2120,3790,-3117,399,847,1065,2315,59,70,859
1285459,3623048,3985288,3626258,3986706,2239,2061,3427,-2878,197,313,1505,3475,56,76,861
1286459,3623324,3985748,3626585,3987033,2488,1303,3133,-2270,133,-728,1531,4212,56,76,861
1287461,3623632,3986184,3626912,3987360,2296,1405,2986,-1335,256,-1530,962,5416,68,81,862
1288461,3623916,3986664,3627239,3987687,2466,1063,2932,118,451,-2283,840,6777,68,81,862
1289463,3624248,3987092,3627566,3988014,2165,1344,2905,1900,662,-3289,1104,7567,69,103,864
1290463,3624540,3987580,3627893,3988341,2430,898,2843,3735,900,-3951,1153,7507,69,103,864
1291465,3624832,3988132,3628220,3988668,2446,400,2715,5500,1112,-4526,1934,7465,79,93,865
1292465,3625160,3988552,3628547,3988995,2222,1184,2631,7244,1333,-5130,2587,7184,79,93,865
1293466,3625464,3989032,3628874,3989322,2382,742,2647,8763,1664,-5253,2398,6264,79,91,865
1294467,3625784,3989552,3629201,3989649,2286,407,2689,10081,2068,-5191,2085,5820,79,91,865
1295475,3626116,3990056,3629562,3990010,2224,444,2728,11186,2497,-4921,2057,5248,58,90,866
1296469,3626400,3990612,3629889,3990337,2544,19,2694,12076,2873,-4222,2221,4495,58,90,866
1297470,3626688,3991100,3630216,3990664,2537,373,2607,12611,3242,-3600,1952,3353,73,95,867
1298471,3626996,3991584,3630543,3990991,2420,329,2493,12610,3495,-3344,2274,1759,73,95,867
1299472,3627304,3991984,3630870,3991318,2430,821,2377,12100,3566,-2842,2469,44,72,89,867
1300473,3627632,3992232,3631197,3991645,2305,1806,2257,11123,3557,-2210,2154,-903,72,89,867
1301474,3627964,3992660,3631524,3991972,2278,636,2098,10018,3625,-1456,703,-1024,66,74,867
1302475,3628296,3993088,3631851,3992299,2277,592,1944,8795,3778,-783,-181,-1597,66,74,867
1303477,3628616,3993484,3632178,3992626,2356,761,1750,7502,3939,-161,-275,-1615,58,89,862
1304477,3628928,3993872,3632505,3992953,2412,785,1435,6264,4004,150,-240,-1103,58,89,862
1305478,3629300,3994136,3632832,3993280,2019,1587,1048,5044,3818,-105,1472,-1314,76,72,867
1306479,3629640,3994440,3633159,3993607,2214,1346,619,3746,3302,-460,3213,-1186,76,72,867
1307480,3629964,3994768,3633486,3993934,2316,1196,124,2531,2583,-556,3477,-961,69,64,866
1308481,3630316,3995096,3633813,3994261,2130,1196,-485,1419,1835,-678,3200,-532,69,64,866
1309482,3630668,3995344,3634140,3994588,2120,1730,-1162,614,1152,-869,2390,422,63,69,865
1310483,3631004,3995564,3634467,3994915,2217,1952,-1869,-54,520,-969,1055,862,63,69,865
1311485,3631364,3995764,3634794,3995242,2053,2133,-2616,-525,-130,-1177,110,1540,74,44,866
1312485,3631692,3995972,3635121,3995569,2253,2135,-3387,-786,-828,-1614,-11,2095,74,44,866
1313486,3632032,3996168,3635448,3995896,2173,2268,-4131,-1083,-1584,-2011,255,2200,67,41,863
1314487,3632416,3996380,3635775,3996223,1874,2218,-4830,-1393,-2340,-2236,501,2330,67,41,863
1315488,3632744,3996572,3636102,3996550,2224,2402,-5442,-1733,-3019,-2445,1328,2148,61,41,861
1316489,3633096,3996740,3636429,3996877,2063,2622,-5959,-2169,-3584,-2578,2087,1888,61,41,861
1317490,3633472,3996948,3636756,3997204,1893,2424,-6371,-2740,-3982,-2613,1714,1770,68,50,864
1318491,3633816,3997188,3637083,3997531,2086,2263,-6632,-3365,-4170,-2577,676,1626,68,50,864
1319492,3634164,3997488,3637410,3997858,2052,1900,-6721,-4118,-4189,-2482,-1034,1320,63,58,860
1320493,3634524,3997752,3637737,3998185,1963,2153,-6677,-5047,-4077,-2585,-2544,1073,63,58,860
1321494,3634900,3997992,3638064,3998512,1843,2341,-6528,-6087,-3861,-2681,-3432,1035,70,54,862
1322495,3635228,3998284,3638391,3998839,2142,2031,-6318,-7140,-3573,-2656,-3833,849,70,54,862
1323496,3635588,3998556,3638718,3999166,1929,2181,-6080,-8229,-3214,-2766,-4132,970,71,53,864
1324497,3635996,3998824,3639045,3999493,1593,2231,-5826,-9333,-2783,-2853,-4129,1134,71,53,864
1325498,3636372,3999100,3639372,3999820,1773,2204,-5548,-10436,-2295,-2837,-4223,1321,67,51,862
1326499,3636728,3999356,3639699,4000147,1885,2360,-5256,-11392,-1775,-2867,-4359,1785,67,51,862
1327500,3637092,3999600,3640026,4000474,1820,2472,-4959,-12234,-1246,-2958,-4463,2262,79,57,864
1328501,3637472,3999856,3640353,4000801,1698,2429,-4634,-12999,-744,-3041,-4447,2609,79,57,864
1329502,3637824,4000132,3640680,4001128,1862,2326,-4263,-13612,-289,-3053,-4284,3258,69,65,863
1330503,3638240,4000408,3641007,4001455,1423,2349,-3911,-13913,80,-2970,-4038,4382,69,65,863
1331504,3638620,4000652,3641334,4001782,1625,2585,-3599,-13920,352,-2809,-3721,5242,63,48,863
1332505,3638988,4000928,3641661,4002109,1683,2407,-3244,-13750,553,-2644,-3563,5643,63,48,863
1333506,3639372,4001200,3641988,4002436,1558,2458,-2830,-13549,692,-2193,-3230,5967,69,51,864
1334508,3639752,4001484,3642315,4002763,1561,2402,-1736,-12442,745,-312,-2807,14399,69,51,864
1335509,3640136,4001744,3642642,4003090,1511,2581,1122,-7492,539,4241,-2676,32767,74,58,864
1336510,3640512,4002024,3642969,4003417,1540,2477,3532,-4075,442,870,-2496,15549,74,58,864
