"Data file recorded 2014/9/24  14:54:15"
"%  Right Stride Frequency         = 5.0"
"%  Left Stride Frequency         = 5.0"
"%  Phase (Fractional)         = 32768.0"
"%  Experiment.py "
"%  Motor Gains    = [1800, 200, 100, 0, 0, 1800, 200, 100, 0, 0]
"% Columns: "
"% time | Right Leg Pos | Left Leg Pos | Commanded Right Leg Pos | Commanded Left Leg Pos | DCR | DCL | GyroX | GryoY | GryoZ | AX | AY | AZ | RBEMF | LBEMF | VBatt "
11895,5174876,5541096,5145327,5571311,-3800,3800,-319,-2880,773,752,-369,4034,10,-9,873
12896,5174880,5541096,5145654,5571638,-3800,3800,-323,-2880,771,743,-372,4016,2,-4,873
13897,5174764,5541168,5145981,5571965,-3800,3800,-321,-2883,772,724,-357,3995,2,-4,873
14898,5174596,5541348,5146308,5572292,-3800,3800,-310,-2885,752,686,-60,3964,-26,7,839
15899,5174376,5541584,5146635,5572619,-3800,3800,-266,-2910,721,730,230,3985,-26,7,839
16900,5174132,5541912,5146962,5572946,-3800,3800,-184,-2935,701,948,300,3892,-50,24,840
17901,5173808,5542228,5147289,5573273,-3800,3800,-114,-2909,683,856,239,4089,-50,24,840
18902,5173468,5542604,5147616,5573600,-3800,3800,-48,-2840,678,696,-238,4168,-47,45,842
19903,5173072,5543016,5147943,5573927,-3800,3800,20,-2792,686,653,-734,3986,-47,45,842
20904,5172612,5543440,5148270,5574254,-3800,3800,57,-2799,703,462,-1100,4203,-88,57,843
21905,5172136,5543848,5148597,5574581,-3800,3800,35,-2585,743,526,-1292,4783,-88,57,843
22906,5171696,5544352,5148924,5574908,-3800,3800,34,-2331,817,924,-1053,4563,-87,81,843
23907,5171116,5544772,5149251,5575235,-3800,3800,18,-2089,899,1429,-825,4637,-87,81,843
24908,5170624,5545200,5149578,5575562,-3800,3800,-11,-1839,979,1607,-766,4736,-98,75,845
25909,5170068,5545680,5149905,5575889,-3800,3800,-40,-1597,1050,1553,-839,4476,-98,75,845
26910,5169440,5546144,5150232,5576216,-3800,3800,-48,-1595,1087,1789,-624,3832,-113,81,845
27911,5168872,5546592,5150559,5576543,-3800,3800,-62,-1668,1177,2527,-707,3809,-113,81,845
28900,5168272,5547092,5150886,5576870,-3766,3800,-78,-1683,1370,3104,-1070,3919,-109,81,846
29900,5167592,5547548,5151213,5577197,-2826,3800,-93,-1780,1600,3752,-871,3471,-109,81,846
30902,5167004,5548048,5151540,5577524,-3002,3800,-125,-1834,1740,4395,-212,3535,-106,75,846
31902,5166412,5548572,5151867,5577851,-2576,3800,-248,-1936,1790,4900,-129,3447,-106,75,846
32903,5165756,5549112,5152194,5578178,-1747,3800,-470,-1925,1778,5182,-408,3871,-119,87,851
33904,5165168,5549632,5152521,5578505,-1772,3800,-704,-1838,1779,5166,-938,3968,-119,87,851
34905,5164628,5550220,5152848,5578832,-1694,3800,-871,-1797,1849,5277,-1636,3842,-124,89,850
35906,5164100,5550692,5153175,5579159,-1396,3800,-1010,-1722,1957,5286,-2198,4018,-124,89,850
36907,5163556,5551248,5153502,5579486,-915,3800,-1145,-1591,2096,5111,-2749,4029,-114,103,853
37908,5163064,5551796,5153829,5579813,-882,3800,-1306,-1387,2232,5015,-2521,4252,-114,103,853
38909,5162600,5552356,5154156,5580140,-711,3800,-1480,-1040,2351,4499,-2592,4837,-109,90,854
39910,5162168,5552932,5154483,5580467,-579,3800,-1668,-570,2439,4149,-2397,4887,-109,90,854
40911,5161812,5553404,5154810,5580794,-756,3800,-1853,-210,2395,4285,-1428,4196,-92,86,857
41912,5161484,5553980,5155137,5581121,-644,3800,-2080,86,2293,4318,-1058,4307,-92,86,857
42913,5161156,5554544,5155464,5581448,-357,3800,-2347,602,2261,3479,-1186,4946,-63,95,858
43914,5160864,5555068,5155791,5581775,-311,3800,-2637,1145,2252,2409,-1682,4875,-63,95,858
44915,5160608,5555768,5156118,5582102,-281,3800,-2954,1696,2302,1818,-2349,5054,-62,101,858
45916,5160368,5556420,5156445,5582429,-132,3800,-3179,2146,2386,1513,-1900,4513,-62,101,858
46918,5160180,5556952,5156772,5582756,-232,3800,-3304,2286,2375,1106,-1210,3426,-49,111,858
47918,5160028,5557520,5157099,5583083,-248,3800,-3342,2333,2379,594,-1693,3759,-49,111,858
48919,5159876,5558160,5157426,5583410,-37,3800,-3368,2609,2522,-68,-2185,4444,-38,118,857
49920,5159724,5558924,5157753,5583737,172,3800,-3399,2994,2794,-365,-2130,4207,-38,118,857
50921,5159632,5559676,5158080,5584064,-19,3800,-3337,3168,3138,-716,-1598,3347,-22,143,860
51922,5159564,5560472,5158407,5584391,5,3800,-3199,3066,3494,-1311,-1001,2992,-22,143,860
52923,5159468,5561344,5158734,5584718,365,3800,-3044,3012,3848,-1898,-1083,3214,-7,173,860
53924,5159400,5562272,5159061,5585045,364,3800,-2844,2956,4215,-2674,-817,3045,-7,173,860
54925,5159356,5563172,5159388,5585372,377,3800,-2573,2894,4581,-3048,-480,2948,7,187,862
55913,5159288,5564276,5159715,5585699,700,2957,-2322,2863,4942,-3324,-239,3191,7,187,862
56927,5159220,5565196,5160042,5586026,874,3800,-2083,2956,5345,-3803,-279,3556,9,193,862
57915,5159176,5566124,5160369,5586353,887,3540,-1873,3135,5764,-4235,-462,3810,9,193,862
58916,5159168,5566976,5160696,5586680,810,3788,-1712,3319,6133,-4560,-396,3835,22,185,863
59930,5159220,5567780,5161023,5587007,556,3800,-1570,3386,6398,-4873,-103,3361,22,185,863
60931,5159260,5568536,5161350,5587334,757,3800,-1418,3180,6524,-5152,-76,2570,29,153,860
61932,5159312,5569288,5161677,5587661,804,3800,-1249,2710,6541,-5454,-130,2102,29,153,860
62933,5159364,5569940,5162004,5587988,925,3800,-1113,2214,6495,-5587,26,2194,7,144,860
63934,5159400,5570568,5162331,5588315,1154,3800,-1030,1664,6411,-5362,165,1921,7,144,860
64935,5159472,5571148,5162658,5588642,1041,3800,-959,1037,6304,-5119,70,2005,23,120,858
65936,5159532,5571756,5162985,5588969,1234,3800,-898,468,6162,-4726,-566,2478,23,120,858
66937,5159620,5572324,5163312,5589296,1164,3800,-820,-113,6017,-3955,-2045,2459,19,118,856
67938,5159708,5572868,5163639,5589623,1270,3800,-660,-873,5832,-3341,-2252,1757,19,118,856
68939,5159812,5573344,5163966,5589950,1269,3800,-392,-1893,5532,-2544,-1964,1112,27,101,856
69940,5159896,5573824,5164293,5590277,1502,3800,-82,-3192,5134,-1567,-1689,472,27,101,856
70941,5160008,5574260,5164620,5590604,1422,3800,207,-4684,4763,-577,-1633,299,36,91,854
71942,5160120,5574648,5164947,5590931,1517,3800,413,-6159,4495,302,-1246,445,36,91,854
72943,5160268,5575056,5165274,5591258,1371,3800,563,-7588,4283,799,-482,614,19,90,854
73944,5160396,5575428,5165601,5591585,1585,3800,727,-8950,4085,1121,-577,971,19,90,854
74945,5160548,5575796,5165928,5591912,1513,3800,907,-10239,3814,1357,-1014,1495,40,83,853
75946,5160700,5576152,5166255,5592239,1591,3800,1079,-11309,3395,1470,-1347,2272,40,83,853
76947,5160840,5576524,5166582,5592566,1749,3800,1214,-12097,2853,1445,-1483,3279,32,66,852
77948,5161012,5576940,5166909,5592893,1618,3800,1317,-12713,2256,1304,-1667,3982,32,66,852
78949,5161200,5577288,5167236,5593220,1581,3800,1406,-13140,1675,1183,-1220,4767,47,65,852
79950,5161404,5577656,5167563,5593547,1536,3800,1493,-13235,1150,1065,-6,5931,47,65,852
80951,5161596,5578024,5167890,5593874,1671,3800,1572,-13045,727,823,180,6805,52,62,851
81952,5161760,5578400,5168217,5594201,1919,3800,1632,-12709,371,430,243,7267,52,62,851
82953,5161928,5578772,5168544,5594528,1965,3800,1664,-12421,17,251,572,7410,45,84,852
83954,5162092,5579212,5168871,5594855,2064,3800,1735,-12231,-341,359,618,7319,45,84,852
84955,5162276,5579612,5169198,5595182,2002,3800,1871,-12183,-708,499,1058,6723,45,74,851
85956,5162440,5580028,5169525,5595509,2200,3800,2396,-11989,-1094,1257,1457,9777,45,74,851
86957,5162636,5580440,5169852,5595836,2060,3800,4210,-9018,-1700,4954,2316,32767,44,70,850
87958,5162832,5580868,5170179,5596163,2118,3800,5816,-6888,-2187,2337,1712,13734,44,70,850
88959,5163020,5581284,5170506,5596490,2230,3800,6086,-7181,-2353,851,1749,4478,33,70,850
89960,5163184,5581680,5170833,5596817,2454,3800,5771,-8878,-2340,1053,2138,2896,33,70,850
90961,5163368,5582084,5171160,5597144,2393,3800,5587,-10590,-2268,1799,2104,2677,53,70,849
91962,5163540,5582452,5171487,5597471,2538,3800,5619,-11801,-2081,2484,2183,2616,53,70,849
92963,5163724,5582792,5171814,5597798,2527,3800,5928,-13250,-1715,2905,974,618,43,69,848
93959,5163928,5583116,5161384,5587368,-432,2244,6170,-14337,-1179,3533,594,2883,43,69,848
94953,5164120,5583524,5161711,5587695,-299,1684,5957,-14044,-552,3852,2044,8051,35,69,848
95953,5164264,5583812,5162038,5588022,81,2453,5264,-12108,-152,3547,3771,12549,35,69,848
96955,5164376,5584044,5162365,5588349,375,2845,4467,-9347,1,2385,3876,13807,24,60,863
97955,5164420,5584224,5162692,5588676,924,3235,3486,-6053,67,1576,3726,16831,24,60,863
98956,5164444,5584412,5163019,5589003,1182,3247,2593,-3017,125,1263,3564,14593,8,39,863
99957,5164460,5584576,5163346,5589330,1368,3470,2017,-1046,140,1436,4899,11666,8,39,863
100958,5164476,5584748,5163673,5589657,1505,3489,1682,321,94,1529,5793,10551,16,30,856
101959,5164480,5584904,5164000,5589984,1722,3665,1431,1188,26,1395,5935,8424,16,30,856
102960,5164488,5585060,5164327,5590311,1837,3741,1227,1640,79,1160,5521,6974,-3,31,852
103974,5164496,5585208,5164654,5590638,1977,3800,1051,1806,269,1105,5662,5894,-3,31,852
104975,5164504,5585372,5164981,5590965,2117,3800,978,1577,504,1037,5685,4094,15,24,849
105963,5164528,5585564,5165308,5591292,2150,3729,1081,858,744,598,5216,2151,15,24,849
106977,5164584,5585740,5165635,5591619,2069,3800,1338,-269,1011,189,4549,1011,16,39,848
107965,5164636,5585944,5165962,5591946,2215,3776,1682,-1494,1291,-353,3932,580,16,39,848
108966,5164716,5586216,5166289,5592273,2150,3376,2027,-2596,1572,-1173,3524,1026,5,50,847
109967,5164820,5586488,5166616,5592600,2098,3402,2383,-3436,1885,-1879,2992,1342,5,50,847
110968,5164948,5586744,5166943,5592927,2035,3535,2687,-4081,2214,-2427,2473,1676,27,46,849
111969,5165068,5587028,5167270,5593254,2177,3380,2937,-4392,2541,-2910,2233,2714,27,46,849
112970,5165256,5587336,5167597,5593581,1813,3239,3109,-4336,2818,-3419,1978,3578,40,63,851
113971,5165444,5587668,5167924,5593908,1874,3088,3212,-4001,3070,-3952,1552,4103,40,63,851
114972,5165644,5587972,5168251,5594235,1856,3274,3278,-3553,3315,-4548,1359,4281,39,69,850
115973,5165872,5588276,5168578,5594562,1725,3286,3334,-3118,3504,-4806,1292,3849,39,69,850
116974,5166072,5588684,5168905,5594889,1956,2601,3409,-2831,3638,-4868,1127,3203,36,75,855
117975,5166300,5589048,5169232,5595216,1826,2861,3487,-2686,3753,-4861,959,2820,36,75,855
118976,5166536,5589408,5169559,5595543,1816,2873,3518,-2584,3868,-4613,753,2506,35,59,855
119977,5166804,5589736,5169886,5595870,1643,3073,3492,-2510,4010,-4221,535,2209,35,59,855
120978,5167056,5590096,5170213,5596197,1776,2861,3434,-2476,4196,-3807,466,1949,44,65,857
121979,5167304,5590516,5170540,5596524,1837,2446,3330,-2491,4386,-3391,529,1763,44,65,857
122980,5167592,5590932,5170867,5596851,1604,2433,3210,-2590,4558,-2992,768,1245,67,84,857
123981,5167868,5591308,5171194,5597178,1702,2662,3112,-2819,4728,-2467,821,764,67,84,857
124983,5168116,5591768,5171521,5597505,1913,2080,3021,-3133,4902,-1762,754,477,48,74,858
125983,5168440,5592236,5171848,5597832,1439,1969,2883,-3430,5085,-1228,683,545,48,74,858
126984,5168732,5592672,5172175,5598159,1656,2122,2677,-3653,5270,-799,415,605,48,88,858
127985,5169012,5593176,5172502,5598486,1752,1620,2412,-3903,5502,-181,118,564,48,88,858
128987,5169340,5593696,5172829,5598813,1452,1436,2084,-4042,5718,282,213,863,56,81,863
129987,5169684,5594184,5173156,5599140,1345,1566,1612,-3990,5784,373,53,1409,56,81,863
130988,5170000,5594688,5173483,5599467,1526,1390,1031,-3791,5713,313,-348,1826,56,96,863
131989,5170352,5595188,5173810,5599794,1290,1340,453,-3449,5635,522,-766,2010,56,96,863
132990,5170656,5595628,5174137,5600121,1601,1666,-118,-2979,5555,601,-1096,2112,59,88,865
133991,5171024,5596200,5174464,5600448,1184,734,-661,-2436,5490,580,-1749,2538,59,88,865
134992,5171368,5596700,5174791,5600775,1327,1109,-1195,-1862,5393,392,-1952,2496,83,88,865
135993,5171740,5597160,5175118,5601102,1133,1301,-1665,-1281,5254,479,-1962,2194,83,88,865
136994,5172028,5597692,5175445,5601429,1676,762,-2077,-818,5106,793,-1795,1818,82,90,866
137995,5172364,5598200,5175772,5601756,1372,833,-2397,-527,4964,1178,-1436,1139,82,90,866
138996,5172744,5598692,5176099,5602083,1075,862,-2653,-385,4801,1332,-1311,785,80,101,866
139997,5173052,5599244,5176426,5602410,1534,388,-2843,-282,4625,1337,-1562,476,80,101,866
140999,5173332,5599672,5176753,5602737,1730,1119,-2986,-311,4468,1466,-1666,-152,82,105,867
141999,5173696,5600164,5177080,5603064,1190,647,-3076,-491,4329,1484,-1939,-573,82,105,867
143000,5174052,5600664,5177407,5603391,1227,522,-3103,-766,4181,1230,-2158,-962,72,84,867
144008,5174360,5601056,5177768,5603752,1551,1183,-3083,-1044,4048,1135,-2447,-1144,72,84,867
145002,5174724,5601596,5178095,5604079,1186,166,-3072,-1276,3970,1222,-2672,-900,78,93,868
146003,5175088,5602108,5178422,5604406,1170,259,-3102,-1213,3992,1499,-2866,-90,78,93,868
147004,5175408,5602572,5178749,5604733,1449,500,-3106,-1022,4044,1415,-3032,4,83,87,865
148005,5175760,5603068,5179076,5605060,1239,226,-3038,-776,4056,1183,-2918,-16,83,87,865
149006,5176096,5603528,5179403,5605387,1335,393,-2973,-487,4048,1193,-2863,296,84,87,868
150007,5176456,5603856,5179730,5605714,1171,1218,-2918,-190,4030,1130,-2733,243,84,87,868
151008,5176812,5604332,5180057,5606041,1185,228,-2840,135,3989,959,-2784,293,81,70,869
152009,5177188,5604692,5180384,5606368,1038,939,-2728,549,3964,978,-3117,483,81,70,869
153010,5177512,5605044,5180711,5606695,1365,978,-2600,974,3973,962,-3165,634,65,80,866
154011,5177836,5605324,5181038,5607022,1367,1449,-2464,1447,3964,1067,-2733,899,65,80,866
155012,5178192,5605624,5181365,5607349,1155,1337,-2334,1958,3873,1079,-2064,726,66,56,867
156013,5178480,5605924,5181692,5607676,1598,1348,-2212,2432,3689,1074,-1497,737,66,56,867
157014,5178792,5606208,5182019,5608003,1455,1467,-2164,2850,3426,1055,-944,836,76,56,865
158015,5179088,5606448,5182346,5608330,1569,1782,-2197,3148,3099,1171,-475,410,76,56,865
159016,5179352,5606652,5182673,5608657,1797,2061,-2287,3238,2695,1347,-212,-234,64,55,863
160017,5179620,5606884,5183000,5608984,1799,1927,-2380,3047,2202,1326,-225,-719,64,55,863
161018,5179892,5607124,5183327,5609311,1799,1917,-2513,2677,1600,1154,-688,-1019,44,43,862
162019,5180144,5607392,5183654,5609638,1957,1768,-2700,2182,946,1236,-1349,-1167,44,43,862
163020,5180380,5607616,5183981,5609965,2098,2089,-2896,1746,333,1403,-2387,-866,47,43,861
164021,5180668,5607836,5184308,5610292,1791,2161,-3099,1288,-243,1544,-3146,-937,47,43,861
165022,5180916,5608064,5184635,5610619,2076,2155,-3269,587,-802,1616,-3228,-1344,43,38,861
166023,5181208,5608312,5184962,5610946,1817,2065,-3427,-285,-1319,1848,-3509,-1423,43,38,861
167024,5181464,5608540,5185289,5611273,2074,2235,-3578,-1250,-1789,2072,-3951,-1761,55,55,859
168025,5181748,5608792,5185616,5611600,1919,2117,-3710,-2357,-2212,2025,-4239,-1779,55,55,859
169026,5182008,5609016,5185943,5611927,2099,2339,-3829,-3442,-2595,1936,-4477,-1384,45,40,859
170027,5182256,5609244,5186270,5612254,2209,2357,-3941,-4525,-2943,2000,-4510,-1412,45,40,859
171028,5182496,5609452,5186597,5612581,2299,2536,-4071,-5649,-3250,2326,-4616,-1206,51,41,859
172029,5182724,5609720,5186924,5612908,2418,2186,-4221,-6795,-3518,2740,-4709,-1041,51,41,859
173030,5182928,5609996,5187251,5613235,2622,2160,-4407,-7939,-3764,3056,-4490,-796,57,47,857
174031,5183192,5610328,5187578,5613562,2276,1809,-4613,-9094,-4004,3418,-4325,-636,57,47,857
175032,5183400,5610636,5187905,5613889,2679,1967,-4855,-10173,-4175,3773,-4368,-139,53,68,857
176033,5183620,5610956,5188232,5614216,2652,1896,-5135,-10972,-4231,3927,-4464,945,53,68,857
177034,5183872,5611264,5188559,5614543,2486,1979,-5530,-11400,-4131,4104,-4804,2436,39,59,859
178035,5184108,5611584,5188886,5614870,2627,1909,-6688,-10452,-3611,4482,-7049,7493,39,59,859
179036,5184348,5611896,5189213,5615197,2641,1966,-8052,-9330,-2786,3980,-8867,5709,51,58,857
180037,5184612,5612160,5189540,5615524,2520,2294,-8957,-8971,-2160,4146,-6739,4024,51,58,857
181038,5184904,5612408,5189867,5615851,2361,2430,-9493,-9265,-1860,4426,-5241,3602,58,50,856
182039,5185192,5612684,5190194,5616178,2404,2278,-9985,-9688,-1599,4503,-6153,3525,58,50,856
183040,5185476,5612928,5190521,5616505,2449,2514,-10542,-9813,-1190,4687,-6442,4394,39,45,856
184041,5185804,5613204,5190848,5616832,2174,2338,-7360,-4199,-705,8645,-5956,32767,39,45,856
185042,5186084,5613456,5191175,5617159,2496,2522,2046,15336,-131,13211,-7724,32767,69,47,856
186044,5186396,5613740,5191502,5617486,2303,2341,7877,23530,549,7390,-5537,6501,69,47,856
187044,5186760,5614028,5191829,5617813,1963,2334,8442,19764,1171,6550,-2221,-6054,56,53,858
188045,5187092,5614316,5192156,5618140,2162,2352,7070,12399,1548,6658,-1658,-7810,56,53,858
189046,5187372,5614628,5192483,5618467,2509,2209,6370,6691,1856,6125,-1865,-8621,52,47,857
190047,5187708,5614916,5192810,5618794,2156,2377,6204,3383,2512,5528,-2424,-4248,52,47,857
191048,5188024,5615216,5193137,5619121,2286,2315,5876,1758,3378,5591,-2622,-1970,70,57,856
192049,5188316,5615504,5193464,5619448,2453,2408,5291,347,4166,5092,-2841,-859,70,57,856
193050,5188640,5615828,5193791,5619775,2255,2184,4611,-792,4806,3547,-2773,1392,72,73,857
194058,5188940,5616140,5194152,5620136,2433,2282,3983,-1490,5198,2813,-2007,2452,72,73,857
195052,5189240,5616472,5194479,5620463,2446,2155,3672,-2483,5290,2150,-835,662,57,62,856
196053,5189548,5616836,5194806,5620790,2405,1940,3524,-3680,5137,838,481,371,57,62,856
197054,5189832,5617144,5195133,5621117,2575,2298,3380,-4448,4763,-350,1800,1708,63,71,857
198055,5190112,5617456,5195460,5621444,2622,2281,3106,-4944,4205,-2062,2000,2329,63,71,857
199056,5190392,5617796,5195787,5621771,2643,2101,2818,-5014,3558,-3157,2424,3313,73,63,858
200057,5190736,5618128,5196114,5622098,2237,2150,2472,-4430,2810,-3570,3290,4753,73,63,858
201058,5191036,5618484,5196441,5622425,2525,1987,2024,-3299,2046,-4156,3618,6021,57,56,856
202059,5191312,5618796,5196768,5622752,2698,2270,1431,-1959,1533,-4931,2369,7587,57,56,856
203060,5191632,5619076,5197095,5623079,2427,2492,853,-407,1275,-5219,1865,7833,51,63,857
204061,5191932,5619400,5197422,5623406,2565,2219,399,986,1066,-5356,2442,6913,51,63,857
205062,5192280,5619732,5197749,5623733,2257,2168,80,1973,854,-5297,2475,5645,57,60,855
206063,5192592,5620060,5198076,5624060,2489,2192,-134,2512,753,-5312,1579,4690,57,60,855
207064,5192856,5620408,5198403,5624387,2818,2059,-262,2746,868,-4903,645,3801,69,59,856
208065,5193120,5620756,5198730,5624714,2847,2051,-268,2622,1122,-4159,275,2501,69,59,856
209066,5193332,5621132,5199057,5625041,3223,1855,-163,2212,1538,-3374,-775,1742,62,59,857
210067,5193596,5621548,5199384,5625368,2928,1566,12,1614,2127,-2794,-1440,1299,62,59,857
211068,5193916,5621816,5199711,5625695,2582,2518,183,717,2829,-2113,-1477,818,50,65,856
212069,5194216,5622032,5200038,5626022,2720,2893,348,-119,3599,-1350,-1540,940,50,65,856
213070,5194520,5622268,5200365,5626349,2706,2809,496,-950,4383,-926,-1248,831,63,46,856
214071,5194804,5622476,5200692,5626676,2851,3036,639,-1909,5050,-646,3,647,63,46,856
215072,5195064,5622724,5201019,5627003,3031,2822,717,-2908,5570,-438,1392,851,54,38,851
216073,5195368,5623004,5201346,5627330,2768,2644,722,-3724,5971,-294,2134,1311,54,38,851
217074,5195624,5623252,5201673,5627657,3100,2879,686,-4478,6208,-578,2811,1432,69,48,851
218075,5195888,5623604,5202000,5627984,3079,2219,693,-5072,6283,-1196,3177,2097,69,48,851
219076,5196172,5623968,5202327,5628311,2974,2128,678,-5364,6210,-1566,3706,3251,62,73,853
220077,5196436,5624340,5202654,5628638,3128,2059,561,-5195,6040,-1516,4010,4809,62,73,853
221078,5196696,5624736,5202981,5628965,3183,1880,438,-4727,5761,-1748,3980,5366,58,77,854
222079,5196980,5625140,5203308,5629292,3053,1797,341,-4148,5383,-1863,2976,5658,58,77,854
223080,5197268,5625516,5203635,5629619,3046,1952,130,-3643,4891,-1674,2816,5923,71,89,854
224081,5197536,5625900,5203962,5629946,3199,1877,-158,-3130,4247,-1408,3930,5882,71,89,854
225082,5197844,5626276,5204289,5630273,2959,1906,-441,-2623,3465,-1045,4541,5938,67,88,855
226083,5198140,5626640,5204616,5630600,3048,1966,-765,-1966,2686,-530,3711,6847,67,88,855
227084,5198440,5626976,5204943,5630927,3036,2138,-1196,-1049,1991,-29,3098,7733,70,74,855
228085,5198752,5627372,5205270,5631254,2970,1732,-1703,-93,1326,682,3091,7599,70,74,855
229086,5199040,5627836,5205597,5631581,3138,1248,-2116,574,730,1539,2901,6534,62,75,856
230087,5199324,5628228,5205924,5631908,3183,1671,-2385,736,277,2403,2646,5341,62,75,856
231088,5199612,5628588,5206251,5632235,3176,1857,-2589,542,-72,3211,2613,4580,59,74,856
232089,5199952,5629016,5206578,5632562,2847,1388,-2744,37,-321,3653,2487,3545,59,74,856
233090,5200276,5629392,5206905,5632889,2950,1692,-2842,-699,-586,3415,2780,3025,62,81,856
234091,5200596,5629780,5207232,5633216,2979,1591,-2897,-1466,-938,3138,2787,3118,62,81,856
235092,5200960,5630160,5207559,5633543,2688,1618,-2948,-2094,-1263,3044,2307,3468,63,72,857
236093,5201264,5630528,5207886,5633870,3076,1676,-2819,-2501,-1503,3256,2499,5085,63,72,857
237094,5201576,5630872,5208213,5634197,3033,1820,-1395,-394,-1512,2898,1669,27518,55,78,856
238095,5201920,5631160,5208540,5634524,2827,2187,532,2350,-1467,2347,2119,21272,55,78,856
239096,5202240,5631448,5208867,5634851,2981,2205,1240,2488,-1688,2751,3833,2974,69,71,856
240097,5202552,5631736,5209194,5635178,3039,2223,1041,1077,-2057,2556,3522,2523,69,71,856
241098,5202908,5632040,5209521,5635505,2753,2133,695,-312,-2414,2296,2812,2678,78,64,855
242099,5203256,5632296,5209848,5635832,2794,2465,519,-1045,-2710,1692,2724,3434,78,64,855
243100,5203588,5632504,5210175,5636159,2893,2818,452,-1435,-2965,1158,2665,3612,69,52,854
244110,5203944,5632756,5210536,5636520,2747,2592,337,-1602,-3197,1059,2253,4497,69,52,854
245102,5204296,5633024,5210863,5636847,2762,2519,166,-1485,-3348,567,2011,5428,66,58,854
246103,5204636,5633308,5211190,5637174,2833,2438,7,-1323,-3458,16,1786,5204,66,58,854
247104,5205020,5633560,5211517,5637501,2534,2671,-90,-1318,-3568,-344,1300,4785,79,47,853
248105,5205436,5633784,5211844,5637828,2297,2893,-168,-1327,-3628,-815,753,5079,79,47,853
249106,5205832,5634036,5212171,5638155,2392,2752,-259,-1125,-3677,-1265,129,5332,66,61,854
250107,5206224,5634276,5212498,5638482,2390,2866,-347,-1061,-3730,-1882,-744,4719,92,43,854
251108,5206652,5634512,5212825,5638809,2121,2931,-348,-1123,-3723,-2606,-1352,4468,92,43,854
252110,5207068,5634752,5213152,5639136,2159,2945,-334,-1173,-3664,-3015,-1831,4507,70,41,853
253111,5207492,5634940,5213479,5639463,2068,3332,-372,-1176,-3583,-3360,-2044,4681,70,41,853
254112,5207940,5635140,5213806,5639790,1865,3314,-433,-1190,-3440,-3654,-1985,4463,85,39,854
255113,5208340,5635348,5214133,5640117,2134,3317,-449,-1421,-3277,-3807,-1536,3719,85,39,854
256114,5208748,5635600,5214460,5640444,2050,3076,-435,-1759,-3080,-4050,-1887,3497,83,49,853
257115,5209232,5635872,5214787,5640771,1507,2976,-398,-2037,-2812,-4456,-2972,3826,83,49,853
258116,5209648,5636140,5215114,5641098,1894,3028,-359,-2304,-2536,-4755,-3487,3696,98,63,853
259117,5210044,5636392,5215441,5641425,1989,3162,-310,-2653,-2277,-4956,-3648,3503,98,63,853
260118,5210496,5636656,5215768,5641752,1585,3116,-203,-3047,-2045,-5117,-3827,2985,100,68,856
261119,5210924,5636940,5216095,5642079,1692,3011,-99,-3566,-1813,-5125,-4467,2842,100,68,856
262120,5211364,5637228,5216422,5642406,1568,3003,-77,-4024,-1592,-5288,-4884,3308,74,68,856
263121,5211784,5637520,5216749,5642733,1653,2994,-148,-4297,-1374,-5225,-5362,3674,74,68,856
264122,5212212,5637808,5217076,5643060,1560,3038,-225,-4523,-1152,-5009,-5441,3303,81,64,856
265123,5212616,5638132,5217403,5643387,1677,2815,-257,-4905,-937,-5027,-5425,2971,81,64,856
266124,5213044,5638444,5217730,5643714,1484,2897,-233,-5412,-729,-4830,-5502,2621,76,74,857
267124,5213500,5638800,5218057,5644041,1253,2611,-171,-5979,-505,-4538,-5708,2414,76,74,857
268126,5213932,5639160,5218384,5644368,1358,2572,-81,-6535,-237,-4327,-5861,2468,83,73,857
269127,5214364,5639520,5218711,5644695,1313,2559,3,-7059,43,-3940,-5669,2482,83,73,857
270128,5214880,5639876,5219038,5645022,705,2572,130,-7663,277,-3400,-4822,2163,103,74,860
271129,5215320,5640236,5219365,5645349,1131,2533,299,-8349,418,-2979,-3510,1886,103,74,860
272130,5215772,5640580,5219692,5645676,1002,2627,459,-9175,470,-2510,-2057,1406,93,86,862
273131,5216252,5640968,5220019,5646003,761,2326,581,-10026,524,-2028,-1580,1518,93,86,862
274132,5216700,5641392,5220346,5646330,908,2060,671,-10827,651,-1483,-1429,1599,91,95,861
275133,5217160,5641788,5220673,5646657,775,2205,759,-11564,821,-1070,-1236,1578,91,95,861
276133,5217636,5642204,5221000,5646984,611,2042,843,-12209,1020,-685,-1092,1910,80,88,864
277135,5218048,5642608,5221327,5647311,973,2084,919,-12644,1227,-308,-791,2559,80,88,864
278136,5218444,5643000,5221654,5647638,1044,2132,974,-12953,1417,-28,-608,2844,85,85,864
279136,5218880,5643380,5221981,5647965,747,2184,1083,-13161,1557,35,-332,2854,85,85,864
280137,5219264,5643792,5222308,5648292,1047,1948,1269,-13332,1683,-24,-441,3010,67,78,862
281139,5219616,5644148,5222635,5648619,1237,2286,1438,-13384,1787,97,-919,3434,67,78,862
282139,5219980,5644508,5222962,5648946,1146,2247,1578,-13250,1962,321,-1605,3802,64,75,864
283140,5220364,5644884,5223289,5649273,997,2126,1730,-13010,2152,287,-1277,3898,64,75,864
284141,5220704,5645248,5223616,5649600,1267,2186,1864,-12695,2263,284,-1040,4046,78,78,862
285143,5221028,5645620,5223943,5649927,1369,2117,1970,-12286,2346,242,-1075,4352,78,78,862
286144,5221376,5645984,5224270,5650254,1210,2152,2055,-11643,2482,157,-1239,5067,66,80,862
287145,5221696,5646332,5224597,5650581,1388,2244,2093,-10854,2664,-94,-1386,5406,66,80,862
288145,5222016,5646672,5224924,5650908,1392,2288,2135,-9958,2877,-564,-1398,5598,51,75,862
289147,5222372,5646976,5225251,5651235,1155,2524,2214,-9153,3068,-901,-1162,5266,51,75,862
290147,5222660,5647260,5225578,5651562,1598,2669,2341,-8485,3232,-929,-892,4614,75,70,860
291149,5222980,5647644,5225905,5651889,1401,2020,2482,-8062,3383,-732,-856,4061,75,70,860
292149,5223296,5647952,5226232,5652216,1432,2504,2682,-7769,3589,-318,-967,3508,58,68,858
293151,5223592,5648240,5226559,5652543,1571,2646,2899,-7702,3863,172,-844,2899,58,68,858
294159,5223880,5648528,5226920,5652904,1653,2680,3130,-7725,4161,657,-560,2583,51,55,859
295153,5224220,5648844,5227247,5653231,1324,2510,3305,-7791,4462,1133,-276,2370,51,55,859
296154,5224496,5649184,5227574,5653558,1746,2356,3454,-7903,4764,1482,-107,2027,64,56,858
297155,5224780,5649488,5227901,5653885,1716,2592,3588,-8155,5045,1707,101,1520,64,56,858
298156,5225100,5649776,5228228,5654212,1494,2710,3753,-8574,5333,1904,-173,893,56,69,859
299156,5225372,5650064,5228555,5654539,1819,2727,3922,-9118,5615,2140,-120,739,56,69,859
300157,5225628,5650356,5228882,5654866,1951,2718,3999,-9371,5843,2633,622,1966,56,61,857
301159,5225884,5650652,5229209,5655193,1983,2708,3931,-9068,5997,2987,1124,3568,56,61,857
302160,5226180,5650952,5229536,5655520,1747,2696,3792,-8502,6090,3261,1431,3801,60,53,855
303161,5226432,5651204,5229863,5655847,2056,3030,3675,-7970,6128,3469,1883,3663,60,53,855
304161,5226724,5651444,5230190,5656174,1822,3144,3523,-7402,6085,3685,2593,4404,50,57,857
305163,5227040,5651748,5230517,5656501,1677,2755,3190,-6404,5941,4143,3359,6062,50,57,857
306163,5227296,5652060,5230844,5656828,2085,2713,2760,-5212,5905,4784,2789,5903,66,72,854
307165,5227540,5652352,5231171,5657155,2196,2854,2425,-4280,5886,5084,3495,4774,66,72,854
308165,5227812,5652620,5231498,5657482,2046,3030,2193,-3729,5751,5147,3885,4032,61,51,856
309167,5228052,5652940,5231825,5657809,2286,2709,1990,-3362,5563,5257,3604,3704,61,51,856
310168,5228312,5653264,5232152,5658136,2190,2687,1681,-2905,5318,5344,3556,4302,65,69,854
311169,5228576,5653552,5232479,5658463,2194,2930,1259,-2150,4997,5431,3775,5037,65,69,854
312169,5228820,5653820,5232806,5658790,2356,3082,851,-1420,4658,5713,3821,4637,65,55,855
313171,5229036,5654184,5233133,5659117,2581,2466,507,-891,4323,5670,3613,3973,65,55,855
314172,5229300,5654516,5233460,5659444,2309,2665,212,-578,3971,5192,3166,3595,46,70,852
315172,5229552,5654820,5233787,5659771,2418,2851,-56,-349,3588,4671,2483,3375,46,70,852
316173,5229812,5655128,5234114,5660098,2398,2836,-288,-278,3210,4494,1877,2720,65,65,855
317175,5230084,5655400,5234441,5660425,2348,3086,-474,-367,2899,4230,1347,2233,65,65,855
318176,5230344,5655776,5234768,5660752,2454,2415,-638,-442,2645,3537,652,2366,55,76,854
319177,5230620,5656180,5235095,5661079,2376,2207,-741,-483,2432,2644,83,2211,55,76,854
320178,5230896,5656544,5235422,5661406,2399,2442,-804,-582,2257,2084,-224,2116,67,76,856
321178,5231196,5656912,5235749,5661733,2262,2400,-885,-557,2173,2106,-451,2426,67,76,856
322179,5231496,5657340,5236076,5662060,2275,1982,-1047,-446,2137,1672,-209,2667,56,71,856
323180,5231776,5657736,5236403,5662387,2422,2151,-1188,-287,2153,753,-267,2441,56,71,856
324181,5232108,5658160,5236730,5662714,2096,1935,-1225,-269,2186,41,224,2102,60,86,857
325183,5232436,5658632,5237057,5663041,2121,1572,-1209,-222,2252,-35,438,2396,60,86,857
326184,5232728,5659084,5237384,5663368,2362,1643,-1232,119,2382,82,576,3058,59,86,859
327185,5233064,5659488,5237711,5663695,2084,1910,-1281,521,2507,-415,802,2903,59,86,859
328186,5233400,5660000,5238038,5664022,2081,1155,-1245,736,2572,-1167,1182,2056,58,84,860
329186,5233728,5660476,5238365,5664349,2131,1315,-1072,717,2596,-1508,1489,1617,58,84,860
330188,5234112,5660920,5238692,5664676,1757,1464,-883,790,2672,-1389,925,2240,66,98,862
331188,5234460,5661420,5239019,5665003,1974,1039,-775,1089,2847,-1569,48,2899,66,98,862
332189,5234788,5661904,5239346,5665330,2100,1071,-647,1335,3035,-2010,179,2146,85,87,863
333191,5235212,5662324,5239673,5665657,1458,1430,-435,1238,3104,-2294,579,1298,85,87,863
334192,5235556,5662804,5240000,5665984,1950,989,-216,1004,3100,-2142,331,1202,78,93,862
335193,5235908,5663364,5240327,5666311,1890,387,-48,880,3105,-1866,128,1578,78,93,862
336194,5236252,5663764,5240654,5666638,1934,1355,47,877,3193,-1625,-255,1924,71,88,864
337195,5236660,5664240,5240981,5666965,1499,816,98,920,3339,-1386,-143,2196,71,88,864
338196,5237020,5664728,5241308,5667292,1786,670,149,1058,3469,-1269,127,2199,85,89,863
339197,5237356,5665108,5241635,5667619,1933,1323,191,1135,3562,-1292,-10,2021,85,89,863
340197,5237724,5665576,5241962,5667946,1715,711,237,1163,3675,-1133,-233,2099,65,92,865
341199,5238108,5666140,5242289,5668273,1591,7,245,1145,3823,-769,-290,2017,65,92,865
342200,5238476,5666572,5242616,5668600,1674,787,234,1183,3971,-102,-263,1983,72,93,865
343200,5238868,5667060,5242943,5668927,1496,366,181,1144,4106,532,-267,1814,72,93,865
344208,5239260,5667460,5243304,5669288,1484,900,78,1049,4226,1033,-290,1987,89,84,865
345202,5239628,5667900,5243631,5669615,1616,600,-91,1035,4348,1527,-303,2412,89,84,865
346204,5240024,5668460,5243958,5669942,1411,-252,-314,1156,4402,1950,158,2520,85,102,864
347204,5240420,5668908,5244285,5670269,1382,396,-606,1345,4354,2337,439,2816,85,102,864
348205,5240804,5669304,5244612,5670596,1433,690,-1104,1736,4260,2855,547,3916,97,84,867
349206,5241204,5669728,5244939,5670923,1301,473,-1458,1871,4079,3026,799,2200,97,84,867
350208,5241584,5670184,5245266,5671250,1404,216,-1695,1793,3866,3359,702,2560,72,89,867
351209,5242008,5670580,5245593,5671577,1087,562,-1926,1901,3753,3543,143,3224,72,89,867
352210,5242476,5670936,5245920,5671904,750,799,-2217,2020,3643,3449,696,2849,90,72,868
353211,5242844,5671276,5246247,5672231,1358,893,-2481,2135,3376,3256,1460,2459,90,72,868
354211,5243212,5671568,5246574,5672558,1341,1209,-2713,2069,2940,2997,1640,2093,91,59,868
355213,5243652,5671812,5246901,5672885,841,1545,-2923,1970,2403,2532,1344,2194,91,59,868
356213,5244052,5672048,5247228,5673212,1060,1635,-3126,2016,1866,1938,1007,2452,67,52,865
357215,5244392,5672232,5247555,5673539,1430,2024,-3295,2224,1316,1484,1045,2636,67,52,865
358216,5244736,5672472,5247882,5673866,1398,1712,-3433,2466,670,913,1437,2718,57,55,864
359217,5245132,5672704,5248209,5674193,1044,1804,-3544,2699,-101,355,1808,2549,57,55,864
360218,5245472,5672980,5248536,5674520,1388,1551,-3618,2844,-909,100,1397,2199,82,43,863
361219,5245796,5673192,5248863,5674847,1490,2003,-3682,2868,-1666,-310,1124,1872,82,43,863
362220,5246160,5673400,5249190,5675174,1225,2080,-3747,2701,-2423,-906,707,1309,57,50,864
363221,5246496,5673636,5249517,5675501,1396,1945,-3716,2202,-3242,-1368,-313,288,57,50,864
364222,5246832,5673868,5249844,5675828,1393,2013,-3623,1419,-4065,-1692,-979,-96,57,45,862
365223,5247256,5674128,5250171,5676155,801,1867,-3552,627,-4740,-1854,-2050,116,57,45,862
366223,5247620,5674384,5250498,5676482,1160,1924,-3549,8,-5218,-2052,-2631,481,66,43,861
367225,5247976,5674608,5250825,5676809,1198,2170,-3538,-653,-5550,-2277,-2481,182,66,43,861
368225,5248368,5674864,5251152,5677136,945,2001,-3514,-1411,-5754,-2232,-2604,39,76,45,862
369227,5248656,5675112,5251479,5677463,1612,2087,-3459,-2235,-5757,-2032,-2765,43,76,45,862
370227,5248948,5675400,5251806,5677790,1603,1854,-3348,-3065,-5508,-1746,-3297,178,49,47,863
371228,5249268,5675664,5252133,5678117,1433,2032,-3210,-3883,-5118,-1519,-4081,231,49,47,863
372229,5249560,5675912,5252460,5678444,1623,2167,-3034,-4740,-4699,-1176,-3911,-100,72,55,861
373230,5249892,5676200,5252787,5678771,1372,1935,-2864,-5763,-4283,-439,-3735,-595,72,55,861
374231,5250192,5676520,5253114,5679098,1584,1738,-2727,-7029,-3859,376,-3322,-1150,47,51,860
375233,5250512,5676828,5253441,5679425,1463,1823,-2685,-8307,-3409,718,-3068,-640,47,51,860
376233,5250764,5677136,5253768,5679752,1921,1831,-2741,-9209,-2918,540,-3307,325,48,64,862
377234,5251040,5677404,5254095,5680079,1794,2108,-2872,-9945,-2337,223,-3582,952,48,64,862
378235,5251320,5677656,5254422,5680406,1790,2241,-3103,-10286,-1661,482,-3821,2551,61,65,859
379236,5251536,5677940,5254749,5680733,2239,2061,-3931,-9607,-769,971,-5616,6085,61,65,859
380237,5251784,5678260,5255076,5681060,2075,1839,-4937,-8738,311,894,-6466,4923,43,57,859
381239,5252052,5678540,5255403,5681387,1976,2111,-5600,-8447,1140,889,-4114,3626,43,57,859
382239,5252272,5678792,5255730,5681714,2324,2319,-5864,-8944,1652,1173,-2972,2293,51,67,859
383241,5252516,5679096,5256057,5682041,2212,2005,-6160,-9332,2065,1847,-3013,3443,51,67,859
384242,5252752,5679376,5256384,5682368,2302,2175,-6742,-9175,2570,2364,-3550,4943,45,57,857
385243,5252952,5679680,5256711,5682695,2583,2036,-7374,-8973,3087,2845,-3538,4307,45,57,857
386244,5253180,5679960,5257038,5683022,2453,2208,-7748,-9053,3524,3365,-3688,3715,38,60,857
387245,5253432,5680232,5257365,5683349,2336,2282,-7791,-9301,3896,3822,-3847,4009,38,60,857
388245,5253628,5680500,5257692,5683676,2744,2334,-6875,-8734,4193,6574,-4033,9956,35,64,855
389247,5253860,5680792,5258019,5684003,2562,2200,-1269,2233,3295,26604,-3553,32767,35,64,855
390248,5254084,5681084,5258346,5684330,2658,2216,5266,13502,2438,17404,-5858,32767,39,56,854
391249,5254324,5681404,5258673,5684657,2598,2045,7061,14573,2597,5914,-2618,-342,39,56,854
392250,5254560,5681624,5259000,5684984,2663,2717,6311,10622,2960,5458,-1265,-1897,37,54,855
393251,5254812,5681924,5259327,5685311,2597,2230,5244,6054,3283,5393,-3223,-3676,37,54,855
394258,5255060,5682240,5259688,5685672,2672,2150,4922,3464,3632,5248,-4664,-2148,39,50,853
395253,5255300,5682552,5260015,5685999,2762,2182,4686,1807,3941,4857,-3858,-1110,39,50,853
396253,5255576,5682840,5260342,5686326,2560,2350,4376,672,4025,4728,-2588,-387,61,52,855
397255,5255828,5683120,5260669,5686653,2744,2421,3931,-637,3980,4041,-2093,-302,61,52,855
398255,5256108,5683396,5260996,5686980,2591,2470,3506,-1935,3901,3131,-1749,297,66,49,855
399257,5256388,5683676,5261323,5687307,2612,2466,3093,-3051,3786,2670,-1744,912,66,49,855
400258,5256676,5683976,5261650,5687634,2580,2353,2748,-3887,3599,1947,-1343,1405,57,52,853
401259,5256972,5684236,5261977,5687961,2544,2633,2420,-4379,3336,1105,-1063,2394,57,52,853
402260,5257264,5684516,5262304,5688288,2585,2530,2131,-4770,2980,359,-1069,2648,52,59,854
403261,5257568,5684808,5262631,5688615,2521,2471,1825,-4986,2677,-455,-1807,3376,52,59,854
404261,5257904,5685096,5262958,5688942,2318,2514,1474,-4885,2488,-1038,-2411,4486,73,62,854
405263,5258200,5685392,5263285,5689269,2583,2478,1179,-4583,2305,-1597,-2066,4500,73,62,854
406264,5258500,5685652,5263612,5689596,2571,2734,1009,-4319,2087,-2148,-1550,4568,70,49,855
407265,5258748,5685940,5263939,5689923,2932,2576,916,-3943,1824,-2260,-508,5059,70,49,855
408266,5258980,5686228,5264266,5690250,3074,2594,790,-3410,1570,-2419,28,5387,57,67,854
409267,5259292,5686528,5264593,5690577,2582,2532,701,-2863,1439,-2851,-228,5332,57,67,854
410267,5259620,5686812,5264920,5690904,2483,2652,606,-2354,1406,-3201,-86,5356,74,49,850
411268,5259936,5687124,5265247,5691231,2563,2484,491,-1864,1385,-3259,662,5414,74,49,850
412269,5260252,5687300,5265574,5691558,2569,3401,283,-1443,1353,-3271,1312,5190,61,58,853
413270,5260564,5687460,5265901,5691885,2602,3575,35,-1230,1326,-3485,1552,4417,61,58,853
414284,5260860,5687584,5266228,5692212,2716,3800,-220,-1237,1336,-3753,1417,3930,63,30,850
415285,5261132,5687712,5266555,5692539,2892,3800,-473,-1388,1381,-3833,1318,3679,63,30,850
416274,5261428,5687908,5266882,5692866,2756,3587,-690,-1570,1426,-3747,1550,3353,56,41,846
417275,5261704,5688096,5267209,5693193,2905,3699,-881,-1808,1504,-3654,1443,3408,56,41,846
418275,5261976,5688428,5267536,5693520,2955,2798,-1035,-1914,1691,-3387,1136,3985,55,52,846
419277,5262276,5688788,5267863,5693847,2794,2610,-1229,-1831,1923,-3027,1534,4318,55,52,846
420277,5262536,5689108,5268190,5694174,3074,2864,-1461,-1796,2147,-2562,1588,4088,72,79,850
421278,5262796,5689552,5268517,5694501,3105,2038,-1646,-1988,2343,-2264,1549,3404,72,79,850
422280,5263096,5690012,5268844,5694828,2867,1881,-1755,-2450,2442,-1989,1952,2935,53,104,851
423280,5263384,5690524,5269171,5695155,2961,1475,-1762,-3072,2449,-1395,2342,2878,53,104,851
424282,5263652,5691072,5269498,5695482,3113,1153,-401,-1486,2408,2557,1509,23441,59,115,855
425283,5263976,5691608,5269825,5695809,2765,1138,1968,2289,2277,4772,1140,32198,59,115,855
426284,5264264,5692128,5270152,5696136,3008,1154,3135,3398,2426,758,945,3774,73,104,857
427284,5264544,5692564,5270479,5696463,3080,1632,3009,2084,2755,380,1099,1244,73,104,857
428285,5264848,5693064,5270806,5696790,2941,1157,2610,41,3019,769,728,383,63,99,858
429287,5265172,5693576,5271133,5697117,2819,1001,2413,-1423,3146,1029,47,931,63,99,858
430288,5265468,5693936,5271460,5697444,3009,1937,2441,-2457,3190,1054,-66,1202,74,81,857
431289,5265780,5694344,5271787,5697771,2916,1603,2473,-3128,3077,1304,454,2264,74,81,857
432289,5266136,5694752,5272114,5698098,2630,1567,2382,-3562,2800,969,2046,3155,70,80,856
433291,5266468,5695136,5272441,5698425,2778,1693,2160,-3731,2356,610,3821,4438,70,80,856
434291,5266772,5695476,5272768,5698752,2964,1962,1774,-3370,1770,710,4286,5866,66,88,857
435292,5267112,5695848,5273095,5699079,2735,1743,1298,-2686,1193,739,3732,6769,66,88,857
436293,5267428,5696220,5273422,5699406,2892,1725,807,-1699,763,960,1844,7460,81,75,855
437295,5267744,5696560,5273749,5699733,2897,1919,409,-866,390,782,1313,6614,81,75,855
438295,5268104,5696880,5274076,5700060,2609,2048,124,-315,27,401,1191,6166,69,59,856
439296,5268440,5697176,5274403,5700387,2756,2213,-13,64,-275,354,572,5655,69,59,856
440298,5268752,5697508,5274730,5700714,2914,1985,-9,178,-466,237,-371,4853,79,55,856
441299,5269120,5697756,5275057,5701041,2547,2546,75,380,-544,-54,-1224,5221,79,55,856
442300,5269452,5697988,5275384,5701368,2770,2688,222,538,-557,-216,-1794,4650,61,61,855
443300,5269796,5698212,5275711,5701695,2690,2784,423,517,-604,-241,-1839,4164,61,61,855
444310,5270112,5698448,5276072,5702056,2886,2765,653,465,-688,-370,-1510,3894,61,46,853
445303,5270512,5698672,5276399,5702383,2330,2885,840,254,-830,-492,-872,3375,61,46,853
446303,5270856,5698896,5276726,5702710,2673,2932,875,78,-1053,-689,-572,3756,70,37,851
447304,5271204,5699104,5277053,5703037,2640,3085,745,34,-1213,-957,-1584,3936,70,37,851
448306,5271652,5699264,5277380,5703364,1963,3459,471,98,-1328,-1190,-2285,4097,73,48,852
449307,5272024,5699476,5277707,5703691,2419,3185,132,139,-1509,-1646,-1750,3950,73,48,852
450308,5272424,5699676,5278034,5704018,2213,3317,-137,24,-1738,-2165,-1572,3258,69,42,851
451309,5272844,5699904,5278361,5704345,2048,3186,-320,-211,-1982,-2380,-1722,2883,69,42,851
452310,5273248,5700156,5278688,5704672,2115,3070,-457,-513,-2191,-2721,-1694,2698,84,56,851
453311,5273612,5700372,5279015,5704999,2350,3345,-622,-850,-2306,-2961,-1767,2726,84,56,851
454312,5274064,5700600,5279342,5705326,1746,3314,-816,-1152,-2360,-2937,-1771,2421,83,59,853
455312,5274468,5700816,5279669,5705653,2013,3438,-974,-1602,-2430,-3022,-1388,1885,83,59,853
456313,5274848,5701084,5279996,5705980,2141,3140,-1074,-2212,-2504,-2958,-1538,1627,82,65,851
457314,5275276,5701372,5280323,5706307,1797,3033,-1142,-2871,-2561,-2870,-1370,1441,82,65,851
458315,5275700,5701656,5280650,5706634,1781,3078,-1201,-3513,-2584,-2879,-1462,1416,81,58,852
459316,5276120,5701956,5280977,5706961,1766,2991,-1220,-4249,-2568,-2867,-2107,1084,81,58,852
460317,5276552,5702248,5281304,5707288,1646,3057,-1169,-5066,-2521,-2778,-2634,1026,70,63,855
461319,5276956,5702552,5281631,5707615,1788,2993,-1052,-5722,-2431,-2730,-2728,1435,70,63,855
462319,5277336,5702848,5281958,5707942,1916,3058,-865,-6303,-2308,-2610,-2760,1645,83,66,855
463320,5277684,5703172,5282285,5708269,2107,2885,-646,-6832,-2161,-2455,-2842,1892,83,66,855
464321,5278108,5703480,5282612,5708596,1591,2995,-424,-7284,-1992,-2368,-2701,2176,87,64,853
465323,5278528,5703800,5282939,5708923,1576,2924,-203,-7675,-1821,-2224,-2596,2242,87,64,853
466323,5278928,5704116,5283266,5709250,1670,2955,14,-8058,-1667,-2180,-2304,2434,81,70,855
467324,5279372,5704448,5283593,5709577,1343,2853,225,-8349,-1510,-2091,-2051,2724,81,70,855
468325,5279772,5704812,5283920,5709904,1587,2638,423,-8546,-1358,-1881,-1871,2888,94,76,856
469327,5280192,5705152,5284247,5710231,1422,2783,604,-8706,-1201,-1691,-1764,3086,94,76,856
470328,5280656,5705476,5284574,5710558,1088,2886,779,-8771,-1046,-1676,-1711,3440,84,64,857
471328,5281084,5705768,5284901,5710885,1269,3102,965,-8790,-899,-1699,-1623,3493,84,64,857
472329,5281508,5706072,5285228,5711212,1252,3038,1158,-8804,-756,-1701,-1458,3505,87,61,858
473331,5281932,5706424,5285555,5711539,1211,2728,1350,-8798,-622,-1597,-1003,3442,87,61,858
474331,5282292,5706816,5285882,5711866,1597,2451,1523,-8800,-501,-1425,-638,3462,96,81,856
475332,5282704,5707156,5286209,5712193,1235,2771,1690,-8805,-382,-1386,-732,3486,96,81,856
476333,5283132,5707516,5286536,5712520,1091,2633,1864,-8693,-245,-1341,-1051,3671,74,83,859
477334,5283508,5707872,5286863,5712847,1396,2646,2024,-8735,-100,-1058,-1131,3247,74,83,859
478335,5283880,5708208,5287190,5713174,1401,2768,2179,-8934,39,-598,-1057,2816,71,63,858
479336,5284268,5708568,5287517,5713501,1275,2604,2313,-9173,183,-368,-770,2653,71,63,858
480337,5284612,5708916,5287844,5713828,1543,2670,2429,-9554,347,-81,-787,2158,72,75,858
481339,5284932,5709264,5288171,5714155,1697,2662,2516,-9968,515,122,-615,2112,72,75,858
482339,5285280,5709604,5288498,5714482,1514,2707,2605,-10314,737,252,-371,2168,70,68,858
483341,5285628,5709912,5288825,5714809,1504,2917,2682,-10648,997,499,-264,2194,70,68,858
484341,5285968,5710248,5289152,5715136,1550,2739,2767,-10975,1275,647,-152,2163,67,78,857
485343,5286304,5710628,5289479,5715463,1572,2441,2849,-11253,1573,825,198,2182,67,78,857
486344,5286648,5710960,5289806,5715790,1514,2740,2890,-11542,1863,1219,299,2005,77,69,857
487344,5286944,5711284,5290133,5716117,1829,2792,2886,-11824,2160,1368,425,2190,77,69,857
488345,5287284,5711624,5290460,5716444,1548,2688,2832,-11960,2472,1322,579,2590,58,69,857
489347,5287628,5711956,5290787,5716771,1517,2736,2709,-11911,2783,1249,689,3165,58,69,857
490347,5287956,5712264,5291114,5717098,1617,2896,2536,-11582,3080,874,919,3885,78,51,856
491348,5288276,5712536,5291441,5717425,1670,3146,2290,-10931,3384,548,1104,4792,78,51,856
492349,5288620,5712792,5291768,5717752,1514,3278,2020,-10234,3686,566,1282,4768,58,61,856
493351,5288948,5713092,5292095,5718079,1613,3015,1742,-9599,3956,711,1915,4847,58,61,856
494358,5289248,5713380,5292456,5718440,1816,3123,1400,-8737,4144,1047,2911,5848,76,54,854
495353,5289592,5713660,5292783,5718767,1535,3195,993,-7827,4358,1511,2942,5713,76,54,854
496353,5289908,5713940,5293110,5719094,1715,3216,631,-7117,4632,1631,3125,4920,69,56,855
497355,5290196,5714196,5293437,5719421,1908,3399,415,-6859,4900,1810,3459,3476,69,56,855
498355,5290516,5714508,5293764,5719748,1711,3056,246,-6860,5076,2108,3948,3364,70,52,854
499356,5290848,5714804,5294091,5720075,1635,3171,31,-6678,5178,2371,4419,4156,70,52,854
500357,5291112,5715080,5294418,5720402,2088,3319,-257,-6335,5245,2638,4366,4616,51,60,851
501358,5291372,5715408,5294745,5720729,2143,2995,-586,-5911,5318,2949,3892,4728,51,60,851
502359,5291676,5715700,5295072,5721056,1879,3236,-924,-5591,5417,3018,3371,4660,53,63,854
503360,5291952,5715996,5295399,5721383,2077,3226,-1237,-5348,5477,2868,2999,4564,53,63,854
504361,5292240,5716252,5295726,5721710,2019,3508,-1516,-5210,5451,2633,2759,4520,64,45,853
505362,5292560,5716528,5296053,5722037,1824,3406,-1738,-5147,5394,2738,2399,4136,64,45,853
506363,5292824,5716764,5296380,5722364,2202,3698,-1920,-5164,5406,2918,1215,3834,72,49,850
507364,5293080,5717052,5296707,5722691,2283,3392,-2071,-5190,5444,2833,898,4029,72,49,850
508365,5293364,5717380,5297034,5723018,2128,3142,-2184,-5032,5396,2558,1068,4745,64,70,851
509366,5293600,5717672,5297361,5723345,2469,3384,-2237,-4836,5330,2468,269,4666,64,70,851
510367,5293864,5717944,5297688,5723672,2322,3534,-2187,-4727,5313,2321,-499,4454,57,53,849
511368,5294116,5718264,5298015,5723999,2431,3238,-2063,-4561,5273,2194,-512,4717,57,53,849
512369,5294348,5718640,5298342,5724326,2599,2867,-1917,-4374,5107,2048,-94,4924,55,62,849
513370,5294568,5718960,5298669,5724653,2722,3221,-1738,-4141,4901,1791,-307,5147,55,62,849
514372,5294804,5719268,5298996,5724980,2662,3306,-1511,-3858,4726,1506,-549,5317,47,72,850
515373,5295028,5719620,5299323,5725307,2783,3021,-1254,-3567,4568,1486,-646,5399,47,72,850
516374,5295284,5720004,5299650,5725634,2615,2797,-986,-3208,4354,1751,-116,5572,61,58,850
517375,5295520,5720348,5299977,5725961,2781,3040,-721,-2816,4069,1905,107,5653,61,58,850
518376,5295808,5720716,5300304,5726288,2474,2873,-439,-2348,3788,1636,-259,5861,50,70,850
519377,5296060,5721036,5300631,5726615,2732,3178,-161,-1799,3592,1117,-512,6338,50,70,850
520378,5296324,5721452,5300958,5726942,2686,2540,118,-1267,3409,899,155,6155,64,80,851
521378,5296640,5721868,5301285,5727269,2367,2502,413,-839,3142,1071,979,5643,64,80,851
522380,5296928,5722224,5301612,5727596,2560,2865,724,-565,2837,1273,1282,5063,73,90,849
523380,5297208,5722652,5301939,5727923,2632,2372,1005,-367,2663,1369,950,5035,73,90,849
524381,5297540,5723132,5302266,5728250,2305,1981,1243,-85,2629,959,664,5389,72,95,855
525383,5297864,5723552,5302593,5728577,2358,2316,1450,156,2636,367,773,5135,72,95,855
526384,5298164,5724036,5302920,5728904,2521,1848,1639,463,2573,565,1583,5032,71,98,854
527385,5298532,5724552,5303247,5729231,2079,1566,1821,715,2479,1055,2178,4743,71,98,854
528385,5298860,5724968,5303574,5729558,2329,2152,1971,973,2474,1069,1916,4802,74,93,856
529387,5299216,5725588,5303901,5729885,2141,749,2108,1171,2522,700,1758,4497,74,93,856
530388,5299600,5726072,5304228,5730212,1942,1531,2279,1181,2578,534,1760,3790,81,110,861
531389,5299948,5726512,5304555,5730539,2159,1757,2429,1197,2643,815,1778,4040,81,110,861
532389,5300280,5727056,5304882,5730866,2258,1013,2398,1655,2834,799,1070,4329,73,102,862
533391,5300676,5727596,5305209,5731193,1829,944,2319,1926,2963,867,1192,4507,73,102,862
534392,5301104,5728080,5305536,5731520,1585,1226,2191,2316,3097,1124,956,4594,68,106,859
535393,5301484,5728704,5305863,5731847,1863,222,2065,2668,3167,1036,1159,3951,68,106,859
536394,5301836,5729172,5306190,5732174,2027,1135,2035,2653,3122,667,1231,2720,81,104,864
537395,5302288,5729676,5306517,5732501,1348,833,2067,2468,3036,434,680,2674,81,104,864
538396,5302644,5730172,5306844,5732828,1936,809,2063,2520,3009,43,-161,3191,95,107,865
539397,5303028,5730668,5307171,5733155,1737,735,1999,2623,3009,-344,-658,3014,95,107,865
540398,5303480,5731184,5307498,5733482,1258,527,1923,2668,2950,-411,-722,2787,92,102,866
541399,5303900,5731700,5307825,5733809,1417,445,1864,2663,2882,-385,-574,2395,92,102,866
542400,5304276,5732156,5308152,5734136,1672,764,1811,2621,2798,-95,-357,2201,88,93,866
543401,5304660,5732624,5308479,5734463,1598,628,1690,2652,2787,369,-622,2708,88,93,866
544408,5305080,5733160,5308840,5734824,1348,126,1550,2832,2909,376,-1365,2736,90,94,866
545402,5305500,5733588,5309167,5735151,1307,756,1451,2926,3018,393,-1314,2076,90,94,866
546403,5305936,5734152,5309494,5735478,1160,-197,1367,2884,3012,611,-1007,1886,75,97,866
547405,5306356,5734644,5309821,5735805,1220,181,1245,2858,2965,935,-820,2136,75,97,866
548405,5306736,5734984,5310148,5736132,1447,1125,1096,2907,2908,1225,-867,1984,96,79,866
549407,5307136,5735464,5310475,5736459,1291,183,964,2907,2829,1354,-704,1628,96,79,866
550408,5307572,5735856,5310802,5736786,1019,705,808,2870,2697,1432,-160,1767,90,77,868
551409,5308000,5736196,5311129,5737113,1025,1024,626,2860,2539,1511,-102,1655,90,77,868
552409,5308388,5736528,5311456,5737440,1249,1072,412,2832,2349,1479,61,1551,86,61,868
553411,5308832,5736820,5311783,5737767,848,1338,204,2856,2105,1279,416,1527,86,61,868
554411,5309288,5737116,5312110,5738094,717,1326,-6,2879,1778,992,697,1386,80,52,865
555412,5309592,5737336,5312437,5738421,1678,1848,-221,2948,1379,481,808,1328,80,52,865
556413,5310024,5737556,5312764,5738748,832,1896,-490,2985,967,39,666,1219,76,39,865
557415,5310392,5737768,5313091,5739075,1215,1997,-817,3081,537,-4,707,1302,76,39,865
558415,5310748,5737988,5313418,5739402,1277,1994,-1179,3098,78,-156,1015,872,85,49,862
559417,5311104,5738252,5313745,5739729,1265,1747,-1518,2999,-435,-425,1202,442,85,49,862
560417,5311436,5738496,5314072,5740056,1413,1909,-1833,2636,-1022,-862,1201,-374,75,54,862
561419,5311768,5738700,5314399,5740383,1412,2213,-2111,2185,-1644,-1237,1097,-587,75,54,862
562419,5312148,5738924,5314726,5740710,1088,2133,-2397,1808,-2209,-1331,392,-477,63,50,863
563421,5312488,5739152,5315053,5741037,1334,2153,-2702,1441,-2617,-1273,-551,-298,63,50,863
564421,5312828,5739392,5315380,5741364,1328,2116,-2998,1072,-2866,-1216,-1312,-91,60,49,860
565423,5313260,5739628,5315707,5741691,708,2181,-3308,687,-2999,-1077,-1762,-186,60,49,860
566423,5313592,5739864,5316034,5742018,1331,2222,-3582,199,-3092,-1070,-1854,-656,79,40,858
567424,5313936,5740088,5316361,5742345,1249,2342,-3784,-588,-3206,-1289,-1693,-1307,79,40,858
568425,5314276,5740324,5316688,5742672,1268,2308,-3902,-1598,-3359,-1407,-1523,-1830,57,52,862
569426,5314668,5740580,5317015,5742999,916,2215,-3977,-2746,-3502,-1271,-1411,-2163,57,52,862
570427,5314980,5740844,5317342,5743326,1422,2192,-4019,-4048,-3565,-1052,-1679,-2532,75,62,860
571428,5315248,5741088,5317669,5743653,1723,2355,-4062,-5392,-3530,-709,-2424,-2399,75,62,860
572429,5315592,5741360,5317996,5743980,1242,2204,-4101,-6588,-3438,-338,-2806,-2184,71,44,861
573431,5315928,5741676,5318323,5744307,1288,1935,-4176,-7734,-3351,615,-2748,-2040,71,44,861
574431,5316228,5741964,5318650,5744634,1526,2127,-4306,-8692,-3229,1389,-3181,-1303,66,64,858
575433,5316536,5742276,5318977,5744961,1484,1984,-4463,-9548,-2999,1373,-3618,-809,66,64,858
576433,5316796,5742568,5319304,5745288,1815,2125,-4642,-10235,-2709,1123,-3640,-298,65,55,860
577434,5317040,5742852,5319631,5745615,1951,2195,-4833,-10824,-2341,1042,-3805,250,65,55,860
578435,5317320,5743116,5319958,5745942,1748,2347,-5057,-11305,-1890,1534,-3620,695,51,60,859
579437,5317568,5743380,5320285,5746269,1982,2376,-5311,-11624,-1405,2145,-3377,1118,51,60,859
580438,5317780,5743700,5320612,5746596,2259,2030,-5561,-11937,-911,2164,-3027,1207,34,53,858
581439,5318012,5743984,5320939,5746923,2176,2274,-5754,-12328,-406,2290,-3184,1280,34,53,858
582440,5318224,5744284,5321266,5747250,2352,2187,-5904,-12679,113,2757,-3429,1700,36,61,857
583441,5318428,5744548,5321593,5747577,2456,2440,-6048,-13006,630,3340,-3322,1937,36,61,857
584442,5318660,5744840,5321920,5747904,2324,2281,-6150,-13327,1133,3791,-3547,2032,34,53,857
585443,5318904,5745168,5322247,5748231,2287,2056,-6363,-13329,1695,3778,-4930,3553,34,53,857
586444,5319132,5745452,5322574,5748558,2430,2350,-6928,-12667,2414,3583,-6818,5576,46,53,855
587444,5319352,5745720,5322901,5748885,2528,2477,-7344,-12226,3052,3717,-6185,3964,46,53,855
588445,5319588,5745980,5323228,5749212,2469,2557,-7389,-12209,3439,4206,-5165,3906,58,55,857
589447,5319828,5746248,5323555,5749539,2482,2534,-7332,-12087,3701,4581,-5588,5075,58,55,857
590447,5320084,5746532,5323882,5749866,2415,2453,-7290,-11764,4008,4997,-6361,5404,60,53,854
591448,5320376,5746840,5324209,5750193,2206,2312,-6440,-10599,4335,7077,-6464,10291,60,53,854
592449,5320608,5747104,5324536,5750520,2623,2616,-47,2453,3023,30723,-1849,32767,48,67,854
593450,5320836,5747400,5324863,5750847,2692,2429,7247,15323,1671,21004,-4846,32767,48,67,854
594458,5321120,5747716,5325224,5751208,2377,2325,9061,16572,1791,6834,-4410,150,49,57,856
595452,5321348,5748048,5325551,5751535,2772,2224,8124,12541,2372,6484,-1709,-2149,49,57,856
596453,5321644,5748384,5325878,5751862,2360,2195,6833,7854,2788,6394,-2590,-4044,51,74,854
597455,5321960,5748704,5326205,5752189,2241,2299,6338,5252,3068,5902,-3509,-3303,51,74,854
598456,5322236,5749032,5326532,5752516,2514,2250,5972,3238,3280,5208,-2549,-3166,61,60,853
599456,5322536,5749376,5326859,5752843,2377,2142,5565,1623,3298,4856,-1917,-2650,61,60,853
600457,5322816,5749676,5327186,5753170,2524,2430,5042,44,3312,4142,-2612,-975,61,71,856
601458,5323152,5749980,5327513,5753497,2171,2416,4511,-1155,3436,3188,-2638,161,61,71,856
602459,5323484,5750324,5327840,5753824,2194,2159,3962,-1957,3548,2982,-2061,1373,63,72,857
603460,5323784,5750660,5328167,5754151,2407,2206,3494,-2454,3543,2946,-999,1989,63,72,857
604461,5324072,5750992,5328494,5754478,2500,2229,3079,-2791,3398,2688,-35,2489,70,64,856
605463,5324296,5751288,5328821,5754805,2946,2468,2669,-2872,3084,2132,522,3400,70,64,856
606463,5324536,5751644,5329148,5755132,2885,2081,2170,-2523,2710,1088,483,4785,74,78,857
607464,5324876,5752064,5329475,5755459,2256,1641,1655,-1714,2402,179,-9,6222,74,78,857
608465,5325176,5752516,5329802,5755786,2518,1387,1236,-667,2143,-635,23,6113,60,80,853
609467,5325484,5752828,5330129,5756113,2477,2269,1032,196,1819,-1571,713,5464,60,80,853
610467,5325800,5753084,5330456,5756440,2433,2651,1036,812,1434,-2209,1008,4847,72,63,859
611468,5326092,5753360,5330783,5756767,2599,2549,1108,1403,1128,-2661,504,4984,72,63,859
612469,5326380,5753692,5331110,5757094,2642,2198,1189,2093,1055,-2892,10,5353,71,56,855
613471,5326696,5754016,5331437,5757421,2473,2249,1249,2720,1193,-2959,261,4964,71,56,855
614472,5326952,5754332,5331764,5757748,2880,2305,1315,3130,1403,-3236,826,4209,52,66,854
615472,5327224,5754680,5332091,5758075,2805,2096,1396,3240,1630,-3710,1323,3372,52,66,854
616473,5327524,5755072,5332418,5758402,2643,1793,1541,3089,1865,-4134,1443,2563,54,75,856
617474,5327792,5755440,5332745,5758729,2870,1926,1750,2766,2143,-4426,1282,2409,54,75,856
618475,5328048,5755900,5333072,5759056,2977,1293,1921,2534,2481,-4530,1046,2595,71,78,855
619476,5328328,5756308,5333399,5759383,2849,1583,1993,2421,2859,-4712,775,2637,71,78,855
620478,5328640,5756664,5333726,5759710,2657,1896,2019,2298,3222,-5011,659,2691,55,79,854
621479,5328924,5757052,5334053,5760037,2850,1669,2015,2167,3534,-5124,652,2817,55,79,854
622479,5329224,5757464,5334380,5760364,2763,1483,1939,2025,3792,-5097,1083,2889,56,69,856
623480,5329544,5757840,5334707,5760691,2642,1687,1811,1887,3956,-5024,1692,2827,56,69,856
624481,5329848,5758208,5335034,5761018,2754,1719,1608,1693,3926,-4798,3115,2706,58,79,856
625483,5330128,5758660,5335361,5761345,2925,1140,1287,1357,3734,-4587,3759,2480,58,79,856
626483,5330424,5759072,5335688,5761672,2840,1353,897,966,3543,-4049,3406,2309,53,75,858
627484,5330688,5759444,5336015,5761999,3068,1584,386,663,3375,-3659,3171,2966,53,75,858
628485,5330972,5759836,5336342,5762326,2963,1431,-212,494,3232,-3340,2462,3395,61,88,857
629487,5331292,5760288,5336669,5762653,2742,1002,-732,135,3134,-2668,1978,2478,61,88,857
630488,5331592,5760712,5336996,5762980,2880,1134,-1074,-628,2989,-1951,2445,1542,60,69,856
631489,5331872,5761060,5337323,5763307,3028,1600,-1382,-1362,2801,-1061,2748,2133,60,69,856
632489,5332200,5761432,5337650,5763634,2729,1431,-1827,-1994,2634,-164,2774,2717,71,72,858
633490,5332484,5761796,5337977,5763961,3023,1465,-2360,-2513,2422,588,2504,2966,71,72,858
634491,5332768,5762124,5338304,5764288,3043,1690,-2793,-3041,2117,1216,2133,2645,70,64,855
635492,5333076,5762456,5338631,5764615,2903,1663,-3143,-3617,1765,1874,1759,2835,70,64,855
636493,5333428,5762764,5338958,5764942,2618,1823,-3490,-4105,1424,2404,1299,3588,72,60,856
637495,5333756,5763048,5339285,5765269,2768,1992,-3871,-4343,1075,2611,1249,4270,72,60,856
638495,5334072,5763292,5339612,5765596,2849,2278,-4273,-4339,670,2829,1073,4788,70,48,856
639496,5334448,5763508,5339939,5765923,2454,2503,-4674,-4216,220,2819,1001,5290,70,48,856
640497,5334788,5763732,5340266,5766250,2674,2498,-5066,-3945,-237,2622,976,5970,59,45,855
641498,5335136,5764012,5340593,5766577,2616,2170,-5392,-3552,-687,2405,1146,6218,59,45,855
642499,5335468,5764284,5340920,5766904,2714,2244,-5607,-3176,-1105,1966,566,6079,61,49,854
643500,5335796,5764532,5341247,5767231,2740,2430,-5684,-2926,-1443,1380,-679,5743,61,49,854
644510,5336136,5764796,5341608,5767592,2675,2372,-5609,-2833,-1721,867,-1485,5501,60,69,854
645503,5336516,5765072,5341935,5767919,2403,2321,-5417,-2806,-1962,276,-2123,5483,60,69,854
646504,5336864,5765372,5342262,5768246,2595,2182,-5147,-2755,-2185,-227,-2606,5469,62,66,854
647505,5337208,5765636,5342589,5768573,2613,2436,-4384,-2095,-2346,-957,-3642,11075,62,66,854
648506,5337592,5765900,5342916,5768900,2339,2464,-2519,745,-2239,-2730,-5237,28544,73,48,856
649507,5337940,5766128,5343243,5769227,2556,2733,-926,2403,-2287,-2007,-2790,9619,73,48,856
650508,5338292,5766368,5343570,5769554,2521,2698,-250,2147,-2595,-1793,-1230,3723,77,60,854
651508,5338668,5766648,5343897,5769881,2350,2468,-52,941,-2991,-2070,-502,2893,77,60,854
652509,5339052,5766900,5344224,5770208,2276,2677,155,-144,-3336,-2253,-1422,2732,75,65,853
653511,5339424,5767164,5344551,5770535,2333,2630,460,-949,-3511,-2560,-3455,2718,75,65,853
654512,5339820,5767428,5344878,5770862,2153,2659,797,-1645,-3557,-2650,-4214,2754,72,49,855
655512,5340276,5767672,5345205,5771189,1723,2821,1119,-2350,-3557,-2716,-4076,2767,72,49,855
656513,5340680,5767944,5345532,5771516,2015,2670,1454,-3153,-3512,-2947,-3767,2303,90,68,855
657515,5341064,5768232,5345859,5771843,2116,2588,1785,-4084,-3460,-2977,-3382,1946,90,68,855
658515,5341480,5768508,5346186,5772170,1878,2687,2067,-5122,-3395,-2978,-2833,1786,76,64,856
659516,5341880,5768760,5346513,5772497,1946,2870,2296,-6076,-3294,-3072,-1947,1867,76,64,856
660517,5342324,5769016,5346840,5772824,1621,2877,2468,-6928,-3148,-3104,-1657,2049,75,72,856
661519,5342756,5769308,5347167,5773151,1651,2668,2633,-7666,-2941,-3250,-1674,2422,75,72,856
662520,5343132,5769624,5347494,5773478,1979,2524,2785,-8218,-2712,-3217,-1490,2902,66,53,855
663521,5343508,5769884,5347821,5773805,1959,2904,2927,-8648,-2495,-3120,-1294,2943,66,53,855
664522,5343948,5770180,5348148,5774132,1510,2693,3052,-9005,-2303,-3086,-1121,3218,89,70,856
665523,5344336,5770480,5348475,5774459,1809,2681,3160,-9267,-2123,-3001,-1446,3613,89,70,856
666523,5344720,5770772,5348802,5774786,1810,2747,3241,-9388,-1959,-2774,-1315,3987,85,54,854
667524,5345144,5771080,5349129,5775113,1518,2656,3315,-9349,-1775,-2617,-1034,4142,85,54,854
668525,5345616,5771376,5349456,5775440,1155,2745,3399,-9270,-1570,-2454,-607,4125,99,73,857
669527,5346060,5771652,5349783,5775767,1280,2894,3461,-9215,-1394,-2317,-129,4149,99,73,857
670528,5346492,5771980,5350110,5776094,1309,2569,3529,-9204,-1223,-2169,-85,3795,89,60,858
671529,5346984,5772296,5350437,5776421,862,2649,3592,-9184,-1032,-1769,-78,3827,89,60,858
672529,5347440,5772632,5350764,5776748,1031,2521,3669,-9156,-797,-1357,-402,3870,78,80,857
673531,5347864,5773024,5351091,5777075,1190,2144,3764,-9122,-545,-1188,-316,3677,78,80,857
674531,5348296,5773348,5351418,5777402,1093,2571,3826,-9066,-297,-970,-344,3536,83,80,860
675533,5348696,5773680,5351745,5777729,1262,2520,3836,-9036,-52,-660,-175,3328,83,80,860
676533,5349120,5773972,5352072,5778056,1070,2785,3795,-9093,202,-250,-57,3060,87,62,860
677534,5349572,5774272,5352399,5778383,841,2748,3742,-9307,465,269,-149,2418,87,62,860
678536,5349964,5774592,5352726,5778710,1188,2627,3702,-9512,747,514,-119,2329,87,63,859
679536,5350328,5774928,5353053,5779037,1347,2524,3654,-9714,1019,525,108,2277,87,63,859
680537,5350696,5775212,5353380,5779364,1305,2869,3557,-9919,1279,881,-52,2175,74,55,859
681538,5351044,5775472,5353707,5779691,1421,3049,3417,-9943,1577,1094,-128,2532,74,55,859
682539,5351384,5775776,5354034,5780018,1466,2785,3247,-9976,1906,1114,28,2310,65,70,859
683540,5351760,5776072,5354361,5780345,1220,2849,3050,-10037,2196,1308,158,2229,65,70,859
684541,5352100,5776352,5354688,5780672,1440,2971,2850,-10043,2460,1397,488,2266,72,50,856
685542,5352416,5776644,5355015,5780999,1595,2912,2645,-9987,2719,1671,799,2451,72,50,856
686544,5352752,5776892,5355342,5781326,1467,3222,2431,-9856,2963,1745,1091,2384,59,62,856
687545,5353132,5777164,5355669,5781653,1168,3097,2207,-9705,3196,1632,1491,2663,59,62,856
688545,5353468,5777444,5355996,5781980,1440,3069,1940,-9259,3410,1623,1823,3748,66,61,855
689546,5353780,5777696,5356323,5782307,1597,3278,1541,-8468,3616,1629,1727,4801,66,61,855
690547,5354124,5777964,5356650,5782634,1391,3205,1109,-7372,3855,1262,1644,5170,61,47,856
691548,5354456,5778180,5356977,5782961,1463,3580,714,-6513,4051,941,2211,4476,61,47,856
692549,5354752,5778412,5357304,5783288,1702,3522,359,-5869,4216,1054,2347,4283,77,42,853
693550,5355096,5778668,5357631,5783615,1396,3404,-11,-5237,4377,1079,2493,4320,77,42,853
694558,5355432,5778928,5357992,5783976,1457,3424,-356,-4762,4498,846,2438,3407,53,61,852
695552,5355732,5779160,5358319,5784303,1694,3642,-560,-4663,4553,514,2304,2231,53,61,852
696553,5356040,5779424,5358646,5784630,1653,3470,-625,-4911,4591,277,2214,1486,64,51,853
697554,5356324,5779664,5358973,5784957,1823,3660,-621,-5311,4692,530,1823,1400,64,51,853
698556,5356584,5779932,5359300,5785284,2002,3511,-619,-5661,4905,756,1178,1548,67,45,849
699556,5356872,5780192,5359627,5785611,1845,3592,-595,-6001,5116,706,1185,1449,67,45,849
700557,5357136,5780460,5359954,5785938,2023,3569,-579,-6261,5246,877,1186,1873,68,42,850
701558,5357400,5780724,5360281,5786265,2052,3624,-597,-6296,5337,1159,928,2641,68,42,850
702559,5357668,5781016,5360608,5786592,2053,3465,-655,-6117,5402,1112,900,3268,72,53,851
703560,5357992,5781284,5360935,5786919,1705,3642,-751,-5842,5412,1061,803,3699,72,53,851
704561,5358240,5781560,5361262,5787246,2216,3615,-897,-5378,5369,1067,688,4588,60,45,849
705562,5358480,5781836,5361589,5787573,2304,3639,-1100,-4632,5321,1059,538,5456,60,45,849
706563,5358740,5782108,5361916,5787900,2209,3689,-1340,-3774,5296,1199,443,5739,67,61,851
707564,5358984,5782380,5362243,5788227,2346,3714,-1552,-2994,5253,1335,560,5663,67,61,851
708565,5359244,5782676,5362570,5788554,2276,3579,-1710,-2399,5152,1597,782,5314,60,56,847
709566,5359488,5783032,5362897,5788881,2414,3192,-1812,-2023,4981,2066,1004,4551,60,56,847
710568,5359716,5783328,5363224,5789208,2557,3581,-1853,-1968,4776,2502,1216,3769,57,57,847
711569,5359940,5783632,5363551,5789535,2628,3543,-1851,-2091,4623,2704,931,3527,57,57,847
712570,5360176,5784016,5363878,5789862,2594,3020,-1836,-2241,4520,2549,460,3565,63,59,851
713570,5360400,5784376,5364205,5790189,2715,3156,-1812,-2433,4391,2195,-8,3299,63,59,851
714572,5360632,5784724,5364532,5790516,2707,3223,-1744,-2673,4182,2249,-41,3031,61,69,847
715572,5360908,5785064,5364859,5790843,2456,3268,-1673,-2900,3920,2481,65,3252,61,69,847
716573,5361164,5785444,5365186,5791170,2613,2996,-1627,-2985,3673,2138,-305,3885,44,70,850
717575,5361400,5785816,5365513,5791497,2778,3027,-1624,-2828,3453,1408,-511,4685,44,70,850
718576,5361672,5786196,5365840,5791824,2578,2955,-1573,-2699,3173,1014,28,4260,46,72,850
719577,5361928,5786524,5366167,5792151,2710,3280,-1474,-2692,2814,1203,775,4044,46,72,850
720578,5362204,5786964,5366494,5792478,2609,2532,-1369,-2645,2431,1545,1254,4239,72,83,849
721578,5362504,5787392,5366821,5792805,2472,2563,-1284,-2647,2096,1445,1380,4265,72,83,849
722579,5362816,5787768,5367148,5793132,2403,2868,-1154,-2653,1861,1062,1379,4243,64,77,850
723580,5363096,5788236,5367475,5793459,2625,2232,-960,-2661,1702,878,1781,4234,64,77,850
724581,5363400,5788764,5367802,5793786,2486,1769,-749,-2629,1544,915,2304,4493,61,99,855
725582,5363712,5789188,5368129,5794113,2444,2378,-558,-2536,1385,863,2411,4578,61,99,855
726583,5364036,5789704,5368456,5794440,2371,1721,-344,-2419,1326,724,2141,4349,59,87,855
727584,5364352,5790200,5368783,5794767,2427,1772,-85,-2359,1364,318,2026,4430,59,87,855
728585,5364728,5790696,5369110,5795094,2030,1699,148,-2203,1419,-66,1848,4954,64,97,856
729586,5365060,5791272,5369437,5795421,2304,1091,366,-1941,1513,153,1713,4936,64,97,856
730587,5365412,5791752,5369764,5795748,2169,1625,583,-1566,1718,257,1118,5095,82,97,857
731588,5365772,5792248,5370091,5796075,2105,1450,756,-1042,1956,-113,948,5731,82,97,857
732589,5366140,5792784,5370418,5796402,2038,1109,899,-400,2151,-488,817,5966,72,96,860
733590,5366512,5793292,5370745,5796729,1995,1206,1058,304,2341,-494,528,6094,72,96,860
734591,5366924,5793780,5371072,5797056,1707,1261,1218,1048,2487,-366,699,6028,85,110,860
735592,5367264,5794380,5371399,5797383,2153,441,1416,1586,2555,-348,846,5231,85,110,860
736593,5367672,5794888,5371726,5797710,1693,938,1657,1923,2558,-196,912,5072,76,101,862
737594,5368036,5795392,5372053,5798037,1953,885,1825,2507,2522,-30,886,5823,76,101,862
738595,5368420,5795916,5372380,5798364,1803,674,1904,3262,2507,62,514,5833,72,106,863
739596,5368780,5796304,5372707,5798691,1939,1497,1950,3942,2504,226,699,5385,72,106,863
740597,5369180,5796936,5373034,5799018,1658,-161,1974,4425,2491,502,825,4856,82,93,864
741598,5369604,5797388,5373361,5799345,1467,910,2000,4653,2463,990,777,3983,82,93,864
742599,5369996,5797896,5373688,5799672,1638,480,2066,4550,2446,1300,478,2827,76,97,860
743601,5370380,5798384,5374015,5799999,1664,535,2158,4201,2421,1480,209,2089,76,97,860
744608,5370804,5798860,5374376,5800360,1387,560,2207,3831,2448,1604,-533,2095,71,86,865
745602,5371180,5799344,5374703,5800687,1667,441,2135,3636,2542,1663,-1500,2556,71,86,865
746603,5371604,5799864,5375030,5801014,1324,132,2020,3426,2616,1969,-1580,2006,87,103,865
747604,5372064,5800296,5375357,5801341,1042,636,1899,3133,2609,2200,-1589,1707,87,103,865
748605,5372456,5800656,5375684,5801668,1438,1071,1757,2764,2524,2146,-1546,1740,97,82,865
749607,5372852,5801052,5376011,5801995,1384,816,1578,2532,2386,1901,-1370,2022,97,82,865
750607,5373292,5801428,5376338,5802322,1060,919,1381,2343,2241,1783,-1268,1853,90,86,867
751609,5373708,5801800,5376665,5802649,1171,926,1162,2275,2073,1529,-1175,2113,90,86,867
752609,5374100,5802152,5376992,5802976,1293,1040,966,2273,1826,1161,-837,1973,77,75,864
753611,5374516,5802472,5377319,5803303,1104,1243,787,2266,1539,832,-943,1900,77,75,864
754611,5374948,5802764,5377646,5803630,959,1433,551,2346,1198,439,-608,2240,80,52,865
755612,5375312,5803024,5377973,5803957,1368,1663,267,2540,821,140,-455,2374,80,52,865
756613,5375696,5803232,5378300,5804284,1219,2040,-50,2748,384,-210,-63,2191,77,46,865
757614,5376080,5803484,5378627,5804611,1194,1799,-363,2871,-93,-641,207,1813,77,46,865
758615,5376428,5803736,5378954,5804938,1411,1832,-708,2929,-557,-904,418,1578,62,42,862
759617,5376804,5803988,5379281,5805265,1214,1865,-1031,2919,-1060,-1112,1177,1189,62,42,862
760617,5377140,5804184,5379608,5805592,1461,2272,-1352,2861,-1632,-1713,1471,915,74,54,862
761618,5377492,5804400,5379935,5805919,1350,2197,-1612,2659,-2258,-2211,1455,410,74,54,862
762619,5377852,5804636,5380262,5806246,1287,2112,-1856,2325,-2807,-2311,801,282,79,52,862
763620,5378244,5804892,5380589,5806573,1058,2018,-2078,2010,-3194,-2220,-120,263,79,52,862
764621,5378608,5805136,5380916,5806900,1218,2130,-2347,1671,-3402,-1954,-1085,115,83,41,859
765623,5378956,5805380,5381243,5807227,1309,2167,-2617,1189,-3460,-1643,-1692,86,83,41,859
766623,5379352,5805604,5381570,5807554,979,2337,-2890,657,-3438,-1446,-1784,-153,60,38,861
767624,5379700,5805832,5381897,5807881,1270,2357,-3107,-54,-3399,-1333,-1599,-864,60,38,861
768625,5380068,5806100,5382224,5808208,1127,2133,-3280,-1028,-3369,-1163,-1232,-1367,80,56,861
769626,5380448,5806356,5382551,5808535,1030,2239,-3397,-2121,-3325,-1045,-994,-1649,80,56,861
770627,5380792,5806624,5382878,5808862,1247,2191,-3485,-3362,-3254,-1070,-828,-2040,78,43,860
771628,5381108,5806892,5383205,5809189,1428,2217,-3526,-4676,-3156,-936,-701,-2194,78,43,860
772629,5381416,5807164,5383532,5809516,1486,2217,-3589,-5965,-3017,-593,-1646,-1980,67,63,861
773630,5381744,5807440,5383859,5809843,1361,2215,-3645,-7113,-2806,81,-2590,-1906,67,63,861
774631,5382024,5807700,5384186,5810170,1683,2345,-3749,-8233,-2566,685,-2728,-1634,43,55,859
775632,5382256,5807996,5384513,5810497,2024,2134,-3929,-9140,-2299,896,-2813,-711,43,55,859
776634,5382516,5808284,5384840,5810824,1880,2201,-4190,-9826,-1975,777,-2978,109,42,58,859
777635,5382764,5808564,5385167,5811151,1990,2272,-4443,-10387,-1576,881,-3209,235,42,58,859
778636,5383004,5808808,5385494,5811478,2079,2534,-4656,-10963,-1134,1229,-2808,359,42,61,858
779636,5383260,5809108,5385821,5811805,2010,2197,-4893,-11419,-674,1634,-2577,927,42,61,858
780638,5383476,5809396,5386148,5812132,2310,2289,-5168,-11763,-207,1909,-2672,1454,40,49,857
781639,5383660,5809688,5386475,5812459,2573,2280,-5392,-12113,285,1997,-2764,1490,40,49,857
782640,5383892,5809972,5386802,5812786,2315,2350,-5569,-12458,758,2365,-2809,1712,42,66,857
783641,5384116,5810256,5387129,5813113,2411,2369,-5747,-12751,1175,3008,-2859,1922,42,66,857
784642,5384328,5810556,5387456,5813440,2537,2282,-5947,-13019,1578,3438,-3362,2389,53,55,855
785643,5384556,5810864,5387783,5813767,2481,2240,-6485,-12758,2194,3573,-5976,4556,53,55,855
786644,5384752,5811156,5388110,5814094,2739,2357,-7170,-12296,2941,3563,-6953,4482,44,65,854
787645,5384996,5811384,5388437,5814421,2477,2800,-7609,-12019,3448,3736,-5489,4042,44,65,854
788645,5385228,5811652,5388764,5814748,2593,2577,-7702,-12028,3683,4081,-5112,3938,39,51,855
789647,5385508,5811944,5389091,5815075,2315,2442,-7686,-12074,3855,4607,-5936,4387,39,51,855
790648,5385780,5812252,5389418,5815402,2390,2352,-7631,-11921,4130,5198,-6245,4969,61,67,852
791648,5386028,5812548,5389745,5815729,2575,2441,-6789,-10816,4415,7879,-5462,10196,61,67,852
792650,5386316,5812820,5390072,5816056,2343,2616,-398,2332,2788,32767,113,32767,59,53,855
793651,5386544,5813100,5390399,5816383,2763,2587,6847,15333,1149,22162,-5114,32767,59,53,855
794658,5386808,5813424,5390760,5816744,2580,2328,8549,16743,1195,6749,-4801,891,60,63,853
795652,5387104,5813756,5391087,5817071,2395,2277,7488,12754,1752,6474,-1517,-1934,60,63,853
796654,5387424,5814068,5391414,5817398,2249,2410,6265,7898,2036,6273,-1883,-4687,72,64,851
797655,5387728,5814404,5391741,5817725,2360,2256,5963,4877,2177,5657,-3257,-4688,72,64,851
798656,5388048,5814716,5392068,5818052,2263,2414,5761,2495,2288,4739,-2964,-3951,50,68,855
799657,5388344,5815052,5392395,5818379,2428,2261,5364,789,2296,4335,-2601,-2369,50,68,855
800658,5388652,5815336,5392722,5818706,2362,2604,4731,-551,2329,3654,-3295,-506,66,66,856
801659,5389036,5815660,5393049,5819033,1863,2357,4144,-1534,2479,2789,-3373,781,66,66,856
802659,5389348,5816004,5393376,5819360,2320,2225,3534,-2116,2655,2820,-2478,2268,55,56,856
803661,5389628,5816352,5393703,5819687,2541,2191,3066,-2426,2752,2828,-1386,2446,55,56,856
804661,5389848,5816696,5394030,5820014,2964,2210,2635,-2702,2709,2342,-460,2637,55,77,857
805663,5390124,5817016,5394357,5820341,2638,2363,2235,-2806,2424,1149,229,3471,55,77,857
806664,5390428,5817384,5394684,5820668,2474,2046,1813,-2610,2027,-322,409,4221,57,84,856
807664,5390732,5817808,5395011,5820995,2484,1654,1444,-2058,1688,-1211,-53,5341,57,84,856
808666,5391060,5818256,5395338,5821322,2334,1451,1135,-1184,1443,-1672,-254,5811,67,88,854
809667,5391372,5818536,5395665,5821649,2442,2523,922,-183,1247,-2376,143,5937,67,88,854
810668,5391652,5818812,5395992,5821976,2664,2570,851,697,1065,-3104,383,5599,77,65,858
811668,5391992,5819120,5396319,5822303,2284,2379,871,1323,944,-3614,233,5346,77,65,858
812669,5392268,5819532,5396646,5822630,2707,1693,978,1951,978,-3807,277,5308,69,70,854
813671,5392552,5819880,5396973,5822957,2676,2084,1065,2564,1156,-3688,471,4984,69,70,854
814671,5392864,5820208,5397300,5823284,2509,2209,1162,2922,1415,-3917,836,4049,69,74,856
815673,5393128,5820632,5397627,5823611,2838,1567,1323,2860,1738,-4284,1017,3035,69,74,856
816673,5393404,5821056,5397954,5823938,2786,1525,1597,2568,2168,-4191,589,2612,56,90,856
817675,5393724,5821560,5398281,5824265,2515,948,1907,2183,2717,-4088,14,2375,56,90,856
818675,5394008,5822104,5398608,5824592,2760,603,2172,1801,3374,-3895,-10,2419,71,106,856
819676,5394312,5822556,5398935,5824919,2646,1124,2384,1471,4109,-3570,131,2578,71,106,856
820677,5394620,5823056,5399262,5825246,2629,748,2555,1183,4837,-3398,519,2617,78,97,859
821679,5394988,5823464,5399589,5825573,2237,1287,2732,845,5451,-3362,1086,2360,78,97,859
822679,5395300,5823836,5399916,5825900,2595,1494,2955,365,5894,-3338,1206,1984,61,83,859
823680,5395616,5824240,5400243,5826227,2576,1260,3107,-188,6161,-3184,1855,2016,61,83,859
824681,5395948,5824584,5400570,5826554,2475,1628,3087,-684,6286,-3038,2681,2248,64,79,860
825683,5396248,5824904,5400897,5826881,2688,1781,2883,-958,6240,-2879,3700,2986,64,79,860
826684,5396572,5825204,5401224,5827208,2540,1918,2586,-1008,5928,-3093,4583,3548,82,62,859
827684,5396900,5825592,5401551,5827535,2515,1342,2155,-862,5377,-3339,4897,4146,82,62,859
828685,5397232,5825956,5401878,5827862,2488,1476,1451,-371,4691,-3080,5218,5633,61,72,856
829687,5397540,5826364,5402205,5828189,2648,1166,507,470,3952,-2699,4466,6586,61,72,856
830687,5397860,5826692,5402532,5828516,2577,1666,-406,1125,3307,-1975,3115,5619,59,83,858
831689,5398164,5827092,5402859,5828843,2688,1184,-1092,1200,2716,-1236,3017,3795,59,83,858
832689,5398472,5827516,5403186,5829170,2672,991,-1541,687,2167,-435,3293,2385,57,86,858
833690,5398816,5827888,5403513,5829497,2441,1298,-2012,-52,1691,435,3121,2360,57,86,858
834691,5399144,5828336,5403840,5829824,2541,769,-2566,-823,1302,1255,3023,1986,71,88,859
835692,5399460,5828736,5404167,5830151,2622,1037,-3011,-1822,960,1894,1995,901,71,88,859
836693,5399772,5829044,5404494,5830478,2655,1622,-3180,-3168,662,2617,643,121,56,84,860
837695,5400164,5829356,5404821,5830805,2127,1603,-3172,-4606,457,3289,138,285,56,84,860
838695,5400504,5829676,5405148,5831132,2446,1556,-3131,-5904,335,3673,398,642,68,76,859
839696,5400824,5829976,5405475,5831459,2575,1693,-3134,-6989,243,3782,542,1027,68,76,859
840697,5401184,5830276,5405802,5831786,2312,1706,-3193,-7767,131,3677,601,1973,61,58,859
841699,5401532,5830508,5406129,5832113,2379,2173,-3311,-8194,-25,3422,771,3162,61,58,859
842700,5401884,5830764,5406456,5832440,2344,2054,-3471,-8189,-227,2904,586,4471,67,64,856
843701,5402264,5831000,5406783,5832767,2146,2220,-3628,-7845,-459,2095,-52,5461,67,64,856
844710,5402624,5831220,5407144,5833128,2273,2382,-3773,-7199,-743,1229,-519,6279,70,45,856
845703,5402992,5831448,5407471,5833455,2206,2375,-3910,-6304,-1089,327,-954,7265,70,45,856
846704,5403392,5831632,5407798,5833782,1974,2714,-4036,-5182,-1439,-625,-1513,7878,68,39,857
847705,5403756,5831824,5408125,5834109,2183,2724,-4099,-3938,-1785,-1457,-1971,8125,68,39,857
848705,5404144,5832040,5408452,5834436,2008,2623,-4088,-2710,-2148,-2119,-2065,8040,66,36,856
849707,5404540,5832264,5408779,5834763,1928,2619,-3991,-1646,-2471,-2576,-2696,7414,66,36,856
850708,5404888,5832496,5409106,5835090,2220,2611,-3794,-975,-2742,-2876,-2925,6292,78,59,855
851709,5405264,5832736,5409433,5835417,2024,2600,-3528,-487,-2927,-3194,-3536,6009,78,59,855
852709,5405676,5832952,5409760,5835744,1762,2799,-3227,-115,-2998,-3274,-4107,5466,68,59,855
853711,5406028,5833200,5410087,5836071,2127,2634,-2866,61,-3004,-3378,-4226,4755,68,59,855
854712,5406400,5833464,5410414,5836398,1983,2563,-2431,-14,-2997,-3632,-4252,3929,87,47,855
855712,5406776,5833712,5410741,5836725,1938,2698,-1924,-379,-2971,-3641,-4395,3091,87,47,855
856713,5407172,5833952,5411068,5837052,1783,2787,-1398,-984,-2894,-3435,-4263,2490,89,54,855
857714,5407548,5834220,5411395,5837379,1887,2638,-873,-1796,-2761,-3216,-3873,1812,89,54,855
858715,5407904,5834460,5411722,5837706,2000,2852,-341,-2767,-2599,-3005,-3376,1310,81,52,856
859716,5408284,5834736,5412049,5838033,1828,2650,175,-3873,-2412,-2777,-2769,1029,81,52,856
860717,5408640,5835024,5412376,5838360,1965,2593,638,-4915,-2198,-2536,-2128,1094,76,57,856
861718,5408980,5835312,5412703,5838687,2061,2611,1042,-5963,-1975,-2299,-1784,1009,76,57,856
862719,5409380,5835604,5413030,5839014,1655,2601,1427,-7000,-1761,-2106,-1678,1095,64,51,856
863720,5409748,5835880,5413357,5839341,1836,2724,1796,-7951,-1546,-2058,-1638,1418,64,51,856
864721,5410108,5836160,5413684,5839668,1873,2721,2128,-8704,-1315,-2031,-1726,1993,81,71,854
865722,5410516,5836452,5414011,5839995,1538,2661,2397,-9197,-1085,-1998,-1809,2610,81,71,854
866723,5410904,5836732,5414338,5840322,1637,2758,2574,-9474,-888,-1876,-1674,3420,73,63,856
867724,5411324,5836996,5414665,5840649,1397,2887,2682,-9461,-740,-1670,-1351,4225,73,63,856
868725,5411768,5837308,5414992,5840976,1196,2593,2747,-9300,-615,-1605,-1082,4476,88,60,857
869726,5412160,5837616,5415319,5841303,1493,2628,2803,-9012,-495,-1448,-867,4886,88,60,857
870728,5412592,5837940,5415646,5841630,1198,2530,2854,-8689,-400,-1234,-554,5120,83,58,856
871728,5412988,5838252,5415973,5841957,1392,2613,2912,-8351,-321,-1061,-310,5128,83,58,856
872729,5413368,5838572,5416300,5842284,1470,2566,2960,-7999,-252,-841,26,5137,74,79,857
873730,5413748,5838908,5416627,5842611,1448,2463,2999,-7650,-203,-685,272,5176,74,79,857
874732,5414136,5839204,5416954,5842938,1371,2727,3010,-7246,-145,-395,393,5320,66,57,857
875733,5414532,5839484,5417281,5843265,1292,2848,3021,-7000,-91,120,586,4577,66,57,857
876734,5414892,5839772,5417608,5843592,1502,2816,3052,-6983,11,668,224,4015,64,68,857
877735,5415220,5840052,5417935,5843919,1703,2888,3109,-7072,195,725,70,3775,64,68,857
878735,5415600,5840324,5418262,5844246,1354,2963,3163,-7304,372,865,154,3034,78,59,857
879736,5415912,5840640,5418589,5844573,1787,2693,3185,-7602,484,1030,581,2809,78,59,857
880737,5416232,5840924,5418916,5844900,1740,2913,3176,-7981,566,1102,994,2518,57,49,856
881738,5416576,5841200,5419243,5845227,1584,2986,3139,-8387,648,1363,1050,2417,57,49,856
882739,5416880,5841476,5419570,5845554,1844,3010,3073,-8698,771,1448,1036,2628,66,58,856
883740,5417204,5841784,5419897,5845881,1721,2818,2956,-8891,931,1420,1136,2835,66,58,856
884741,5417544,5842088,5420224,5846208,1615,2854,2788,-9047,1087,1557,1142,2621,59,63,855
885742,5417860,5842360,5420551,5846535,1771,3079,2605,-9268,1253,1423,1103,2407,59,63,855
886744,5418172,5842648,5420878,5846862,1803,2997,2410,-9491,1448,1166,1077,2626,54,66,855
887744,5418500,5842916,5421205,5847189,1703,3149,2163,-9474,1690,821,718,3325,54,66,855
888745,5418832,5843180,5421532,5847516,1676,3202,1822,-8986,1955,354,828,4932,69,47,854
889746,5419152,5843420,5421859,5847843,1755,3391,1307,-8004,2311,431,527,6376,69,47,854
890748,5419460,5843664,5422186,5848170,1838,3404,738,-6956,2649,624,1319,6120,78,41,854
891748,5419804,5843912,5422513,5848497,1607,3414,176,-6031,2853,767,2562,5931,78,41,854
892749,5420108,5844204,5422840,5848824,1867,3156,-353,-5327,3000,1049,2971,5313,53,61,852
893751,5420400,5844480,5423167,5849151,1958,3279,-832,-4923,3175,1219,3330,4599,53,61,852
894758,5420756,5844728,5423528,5849512,1561,3505,-1257,-4703,3437,1220,3287,4197,60,51,852
895753,5421072,5844972,5423855,5849839,1816,3566,-1618,-4678,3742,1130,3052,3452,60,51,852
896753,5421356,5845248,5424182,5850166,2036,3390,-1900,-4999,3983,926,3048,2582,58,47,850
897754,5421704,5845552,5424509,5850493,1627,3226,-2119,-5475,4182,771,2427,2233,58,47,850
898756,5422000,5845840,5424836,5850820,1967,3344,-2274,-5994,4402,842,1633,2074,77,62,851
899756,5422260,5846092,5425163,5851147,2221,3603,-2365,-6488,4661,913,1065,2310,77,62,851
900757,5422576,5846340,5425490,5851474,1877,3664,-2410,-6928,4923,903,773,2616,52,57,852
901758,5422844,5846652,5425817,5851801,2203,3271,-2439,-7245,5136,775,381,3014,52,57,852
902759,5423132,5846932,5426144,5852128,2096,3493,-2436,-7374,5306,615,-47,3693,55,46,849
903760,5423460,5847196,5426471,5852455,1846,3622,-2419,-7315,5398,313,-198,4376,55,46,849
904761,5423732,5847460,5426798,5852782,2221,3650,-2368,-7138,5398,225,-335,4699,73,61,851
905762,5423988,5847720,5427125,5853109,2353,3706,-2277,-6826,5359,217,-548,5247,73,61,851
906776,5424260,5847948,5427452,5853436,2277,3800,-2162,-6383,5325,355,-528,5848,50,61,849
907765,5424540,5848312,5427779,5853763,2249,3085,-2058,-5837,5325,618,-734,6366,50,61,849
908765,5424808,5848648,5428106,5854090,2350,3257,-1910,-5272,5316,703,-646,6507,66,65,847
909767,5425076,5848928,5428433,5854417,2377,3629,-1713,-4736,5248,1012,-462,6425,66,65,847
910767,5425328,5849244,5428760,5854744,2511,3409,-1457,-4329,5074,1664,347,5898,69,74,851
911769,5425576,5849604,5429087,5855071,2570,3121,-1154,-4123,4816,1884,866,5657,69,74,851
912769,5425820,5849976,5429414,5855398,2633,3027,-860,-3896,4551,1812,660,5926,53,74,849
913771,5426084,5850308,5429741,5855725,2537,3276,-616,-3601,4309,1943,279,6150,53,74,849
914771,5426320,5850656,5430068,5856052,2752,3168,-406,-3269,4085,2259,413,6264,59,67,850
915773,5426580,5851032,5430395,5856379,2632,2972,-207,-2966,3823,2724,628,6054,59,67,850
916773,5426852,5851396,5430722,5856706,2582,3032,-15,-2714,3546,2993,287,5891,47,76,850
917775,5427096,5851728,5431049,5857033,2794,3232,174,-2475,3352,2831,-333,6157,47,76,850
918776,5427312,5852076,5431376,5857360,3018,3124,381,-2273,3191,2663,-387,5982,45,65,850
919777,5427592,5852504,5431703,5857687,2640,2580,600,-2153,2952,2679,-111,5746,45,65,850
920778,5427848,5852928,5432030,5858014,2822,2564,842,-2020,2660,2729,-171,5626,51,90,849
921778,5428096,5853280,5432357,5858341,2908,3003,1100,-1950,2383,2653,-271,5380,51,90,849
922779,5428332,5853732,5432684,5858668,3023,2324,1365,-1985,2194,2507,-385,5209,42,73,853
923780,5428556,5854240,5433011,5858995,3144,1895,1655,-2068,2050,2133,-52,5104,42,73,853
924781,5428784,5854668,5433338,5859322,3164,2352,1935,-2139,1844,2126,330,4874,57,99,850
925783,5429028,5855172,5433665,5859649,3101,1800,2241,-2331,1568,2653,1253,4123,57,99,850
926783,5429268,5855672,5433992,5859976,3165,1750,2503,-2478,1356,2596,879,4694,66,87,853
927785,5429484,5856140,5434319,5860303,3365,1889,2706,-2426,1266,1914,268,5181,66,87,853
928785,5429720,5856684,5434646,5860630,3281,1320,2867,-2311,1235,1372,185,5429,47,103,853
929787,5429940,5857208,5434973,5860957,3429,1358,3008,-2005,1174,1218,477,5677,47,103,853
930787,5430172,5857664,5435300,5861284,3397,1727,3171,-1857,1064,1613,973,4838,51,97,850
931789,5430396,5858200,5435627,5861611,3493,1136,3353,-1844,972,2224,900,4494,51,97,850
932789,5430640,5858696,5435954,5861938,3406,1312,3544,-1828,990,2018,562,4583,38,96,854
933803,5430824,5859176,5436281,5862265,3800,1346,3658,-1605,1057,1323,206,5581,38,96,854
934791,5431048,5859692,5436608,5862592,3641,1039,3709,-1063,1132,901,-274,5985,35,105,853
935805,5431244,5860212,5436935,5862919,3800,929,3809,-740,1202,913,-197,4753,35,105,853
936793,5431476,5860704,5437262,5863246,3692,1033,3959,-687,1162,1721,403,4136,54,92,851
937794,5431720,5861188,5437589,5863573,3655,1014,4099,-690,1129,2280,221,3766,54,92,851
938795,5431952,5861648,5437916,5863900,3772,1106,4208,-678,1212,2049,-403,3958,42,95,851
939809,5432176,5862100,5438243,5864227,3800,1101,4254,-437,1308,1496,-954,4606,42,95,851
940810,5432372,5862652,5438570,5864554,3800,377,4289,-201,1327,1340,-766,3998,36,93,852
941812,5432564,5863064,5438897,5864881,3800,1216,4336,-90,1252,2100,-329,3516,36,93,852
942812,5432792,5863560,5439224,5865208,3800,617,4356,-75,1154,2687,-653,2949,52,91,851
943801,5433076,5864076,5439551,5865535,3678,409,4365,-193,1090,2426,-1235,2521,52,91,851
944821,5433320,5864504,5439912,5865896,3800,930,4358,-221,1005,1677,-1708,2737,62,93,852
945802,5433604,5864976,5440239,5866223,3750,591,4290,-190,908,921,-2647,3189,62,93,852
946803,5433896,5865552,5440566,5866550,3718,-168,4095,198,814,753,-3387,4023,48,90,854
947804,5434244,5865916,5440893,5866877,3359,1141,3882,514,656,624,-3236,3072,48,90,854
948805,5434732,5866364,5441220,5867204,2415,564,3692,629,394,413,-3041,2614,82,81,854
949806,5435240,5866812,5441547,5867531,2211,510,3480,974,121,-508,-3015,3386,82,81,854
950807,5435728,5867172,5441874,5867858,2267,1046,3198,1633,-47,-1828,-2690,3967,105,89,854
951808,5436348,5867556,5442201,5868185,1315,871,2916,2317,-130,-1750,-2043,3731,105,89,854
952809,5436872,5867948,5442528,5868512,1829,792,2651,2849,-234,-490,-1030,2932,112,75,862
953810,5437416,5868332,5442855,5868839,1610,817,2335,3117,-355,1414,44,1997,112,75,862
954811,5438040,5868628,5443182,5869166,980,1381,1976,3053,-532,2206,366,441,119,64,865
955812,5438536,5868912,5443509,5869493,1707,1475,1686,2490,-697,1919,-16,-978,119,64,865
956813,5439100,5869248,5443836,5869820,1179,1147,1512,1621,-860,1996,92,-1825,97,66,865
957815,5439600,5869616,5444163,5870147,1504,929,1309,707,-1016,2622,393,-1972,97,66,865
958815,5440116,5869912,5444490,5870474,1322,1392,1011,-49,-1132,2549,478,-1638,98,60,862
959816,5440576,5870164,5444817,5870801,1613,1700,661,-494,-1171,2038,334,-776,98,60,862
960817,5440940,5870440,5445144,5871128,2198,1573,324,-729,-1232,1368,375,-680,93,49,865
961818,5441448,5870712,5445471,5871455,1219,1622,29,-915,-1347,1266,670,-829,93,49,865
962819,5441884,5871020,5445798,5871782,1623,1405,-245,-1098,-1454,1527,747,-844,76,46,860
963820,5442256,5871272,5446125,5872109,2004,1788,-479,-1375,-1499,1517,706,-1167,76,46,860
964821,5442656,5871472,5446452,5872436,1797,2170,-630,-1603,-1477,1245,562,-1114,84,57,863
965823,5443072,5871728,5446779,5872763,1659,1851,-748,-1629,-1430,817,338,-539,84,57,863
966823,5443520,5871968,5447106,5873090,1406,1990,-902,-1360,-1315,787,-388,470,87,44,860
967824,5443980,5872176,5447433,5873417,1273,2242,-1055,-796,-1143,782,-693,894,87,44,860
968825,5444384,5872384,5447760,5873744,1590,2294,-1174,-294,-1029,374,109,763,86,48,860
969826,5444764,5872588,5448087,5874071,1718,2374,-1285,83,-1065,-111,1239,492,86,48,860
970827,5445172,5872796,5448414,5874398,1507,2402,-1438,307,-1185,-471,1655,182,85,36,860
971828,5445572,5872972,5448741,5874725,1526,2668,-1651,610,-1284,-512,1555,483,85,36,860
972829,5445948,5873152,5449068,5875052,1656,2708,-1910,1023,-1297,-443,1400,800,87,40,856
973831,5446416,5873372,5449395,5875379,1019,2505,-2165,1431,-1248,-352,1524,709,87,40,856
974832,5446864,5873568,5449722,5875706,1091,2713,-2419,1696,-1197,-287,1998,361,85,50,856
975833,5447268,5873784,5450049,5876033,1333,2638,-2684,1780,-1145,-244,2371,-89,85,50,856
976834,5447668,5873992,5450376,5876360,1327,2740,-2957,1740,-1086,-139,2698,-360,84,45,859
977835,5448080,5874204,5450703,5876687,1214,2767,-3259,1565,-1034,-186,3318,-649,84,45,859
978835,5448436,5874404,5451030,5877014,1552,2897,-3622,1294,-1001,-127,3867,-837,84,41,857
979836,5448792,5874652,5451357,5877341,1540,2633,-4004,789,-962,70,3977,-1427,84,41,857
980837,5449160,5874928,5451684,5877668,1448,2481,-4377,5,-927,577,3329,-1986,76,50,857
981839,5449456,5875196,5452011,5877995,1911,2558,-4763,-965,-948,1270,2796,-2549,76,50,857
982840,5449768,5875480,5452338,5878322,1819,2476,-5194,-2146,-1060,1905,1484,-3070,48,54,857
983840,5450068,5875764,5452665,5878649,1906,2496,-5668,-3428,-1221,2425,-211,-3160,48,54,857
984842,5450336,5876040,5452992,5878976,2133,2569,-6123,-4733,-1311,2257,-1144,-2628,71,51,855
985842,5450592,5876360,5453319,5879303,2239,2298,-6609,-5894,-1319,2026,-1729,-1784,71,51,855
986843,5450876,5876652,5453646,5879630,2084,2488,-7129,-6657,-1274,2265,-2293,-587,66,63,856
987844,5451168,5876932,5453973,5879957,2049,2585,-7577,-7296,-1127,2745,-2518,-615,66,63,856
988845,5451392,5877192,5454300,5880284,2520,2740,-7942,-8037,-916,3219,-2785,-767,58,56,855
989846,5451660,5877476,5454627,5880611,2271,2609,-8239,-8906,-673,3213,-3140,-431,58,56,855
990847,5451896,5877800,5454954,5880938,2512,2362,-8473,-9600,-408,3174,-3612,424,38,67,855
991848,5452144,5878100,5455281,5881265,2473,2523,-8758,-9959,-228,3409,-3915,1492,38,67,855
992849,5452372,5878380,5455608,5881592,2642,2670,-9085,-10211,-166,3585,-3905,1795,55,68,854
993850,5452656,5878692,5455935,5881919,2311,2478,-9370,-10491,-207,3569,-3727,2007,55,68,854
994858,5452916,5879024,5456296,5882280,2506,2365,-9653,-10679,-265,3457,-4221,2751,59,54,852
995852,5453192,5879340,5456623,5882607,2429,2471,-10182,-10270,-178,3345,-5438,5415,59,54,852
996853,5453468,5879660,5456950,5882934,2453,2449,-10741,-9599,65,3319,-6508,5159,46,73,854
997854,5453744,5879988,5457277,5883261,2475,2400,-11028,-9163,295,3413,-6428,4825,46,73,854
998855,5454032,5880320,5457604,5883588,2418,2374,-11002,-8924,497,3374,-6697,4969,57,68,854
999856,5454400,5880660,5457931,5883915,1901,2318,-9059,-6784,803,4982,-8045,15030,57,68,854
1000857,5454720,5880976,5458258,5884242,2204,2474,96,11949,1277,13146,-13444,32767,65,64,854
1001858,5455000,5881276,5458585,5884569,2476,2586,9178,26987,1802,8866,-9890,32767,65,64,854
1002859,5455256,5881660,5458912,5884896,2658,2037,11097,26998,2116,7633,-3716,-3699,66,60,857
1003860,5455460,5882012,5459239,5885223,3037,2227,9526,20706,2241,7739,-1744,-6693,66,60,857
1004861,5455736,5882336,5459566,5885550,2611,2403,8153,13800,2137,7558,-1417,-9603,69,81,854
1005863,5456060,5882684,5459893,5885877,2313,2245,7890,9394,2167,6535,-1808,-7465,69,81,854
1006863,5456364,5883060,5460220,5886204,2449,2049,7699,6625,2604,6342,-1950,-4634,59,83,851
1007865,5456676,5883552,5460547,5886531,2406,1252,7131,4362,2907,6270,42,-4550,59,83,851
1008865,5456960,5883872,5460874,5886858,2601,2331,6566,1614,2884,4282,1045,-5085,80,78,856
1009867,5457276,5884104,5461201,5887185,2406,2922,6165,-1048,2682,2668,1436,-3788,80,78,856
1010867,5457568,5884360,5461528,5887512,2573,2805,5535,-3319,2372,1981,1467,-2330,61,64,859
1011868,5457840,5884648,5461855,5887839,2722,2622,4885,-4410,2227,505,451,1601,61,64,859
1012869,5458124,5884980,5462182,5888166,2667,2346,4043,-4056,2300,-1004,-505,5468,51,50,852
1013870,5458436,5885340,5462509,5888493,2499,2157,3242,-3153,2308,-2522,-177,5764,51,50,852
1014871,5458708,5885688,5462836,5888820,2775,2223,2484,-2432,2051,-4132,1336,5521,58,67,852
1015872,5458992,5886084,5463163,5889147,2718,1894,1883,-1819,1531,-5052,2815,4907,58,67,852
1016873,5459256,5886500,5463490,5889474,2872,1729,1230,-1188,740,-6353,3862,5285,74,81,854
1017874,5459544,5886956,5463817,5889801,2740,1424,553,-469,-55,-8042,3802,5879,74,81,854
1018875,5459860,5887484,5464144,5890128,2571,886,-1,629,-615,-8676,3000,6878,62,89,854
1019876,5460156,5887944,5464471,5890455,2711,1253,-375,1794,-750,-8699,1893,6500,62,89,854
1020877,5460464,5888384,5464798,5890782,2644,1329,-568,2806,-460,-8942,748,5948,58,107,857
1021879,5460812,5888820,5465125,5891109,2386,1306,-755,3607,77,-9065,309,5609,58,107,857
1022879,5461116,5889156,5465452,5891436,2672,1927,-998,4108,665,-8892,1179,4769,60,89,858
1023880,5461440,5889504,5465779,5891763,2549,1844,-1170,4311,1179,-8474,1946,3554,60,89,858
1024881,5461728,5889884,5466106,5892090,2792,1621,-1229,4071,1531,-8315,2257,2022,74,67,860
1025882,5462056,5890172,5466433,5892417,2543,2214,-1199,3361,1769,-8155,2518,1121,74,67,860
1026883,5462376,5890440,5466760,5892744,2596,2365,-1206,2462,1913,-7474,2750,497,66,64,857
1027884,5462692,5890680,5467087,5893071,2627,2579,-1335,1493,2022,-6597,2527,81,66,64,857
1028885,5463024,5890964,5467414,5893398,2526,2323,-1705,722,2137,-5995,2584,1395,56,62,853
1029887,5463340,5891248,5467741,5893725,2632,2343,-2339,205,2213,-5158,2966,2322,56,62,853
1030887,5463644,5891572,5468068,5894052,2718,2094,-3081,-274,2160,-4209,3439,2023,72,52,853
1031888,5463980,5891868,5468395,5894379,2515,2283,-3759,-1032,1956,-3570,3242,1234,72,52,853
1032889,5464284,5892180,5468722,5894706,2725,2191,-4350,-2173,1610,-2840,2740,385,60,70,854
1033890,5464600,5892552,5469049,5895033,2656,1796,-4871,-3600,1186,-2059,2609,-7,60,70,854
1034891,5464936,5892964,5469376,5895360,2528,1509,-5324,-5140,789,-1084,2168,-519,62,68,855
1035892,5465248,5893384,5469703,5895687,2685,1419,-5694,-6818,470,-114,1517,-1181,62,68,855
1036893,5465572,5893788,5470030,5896014,2613,1486,-5971,-8526,230,674,1244,-799,78,77,856
1037894,5465928,5894204,5470357,5896341,2401,1372,-6189,-9944,70,1549,829,443,78,77,856
1038896,5466256,5894568,5470684,5896668,2576,1681,-6426,-10827,35,2387,-263,2029,80,88,857
1039897,5466584,5894864,5471011,5896995,2576,2120,-6644,-11333,132,2628,-1497,3229,80,88,857
1040897,5466912,5895192,5471338,5897322,2577,1920,-6795,-11569,217,2673,-1901,4203,79,80,858
1041899,5467316,5895560,5471665,5897649,2069,1653,-6867,-11610,155,2817,-1551,4913,79,80,858
1042900,5467664,5895844,5471992,5897976,2410,2196,-6815,-11504,-47,2789,-1094,5420,82,60,855
1043901,5468032,5896132,5472319,5898303,2268,2190,-6667,-11254,-374,2585,-841,5830,82,60,855
1044910,5468428,5896400,5472680,5898664,2079,2355,-6469,-10905,-749,2434,-1076,6263,88,60,859
1045902,5468800,5896660,5473007,5898991,2209,2435,-5111,-8462,-1087,3937,-2898,23626,88,60,859
1046904,5469172,5896924,5473334,5899318,2191,2439,-1534,-755,-1453,5929,-5544,32767,67,56,856
1047904,5469568,5897164,5473661,5899645,2011,2627,887,3460,-1919,2167,-1857,12315,67,56,856
1048906,5469944,5897388,5473988,5899972,2116,2773,1347,3675,-2414,1408,-1158,5638,78,44,856
1049906,5470320,5897620,5474315,5900299,2095,2765,947,2075,-2815,1681,-2170,3758,78,44,856
1050907,5470740,5897868,5474642,5900626,1779,2701,895,1037,-3067,1505,-3665,3333,68,64,854
1051908,5471092,5898124,5474969,5900953,2194,2682,1199,256,-3241,515,-3781,2460,68,64,854
1052909,5471468,5898416,5475296,5901280,2024,2473,1695,-714,-3519,360,-3911,1071,80,62,854
1053911,5471900,5898668,5475623,5901607,1628,2756,2169,-1904,-3824,16,-4279,878,80,62,854
1054912,5472276,5898936,5475950,5901934,1957,2683,2649,-3244,-3987,-745,-4449,371,76,49,854
1055913,5472660,5899180,5476277,5902261,1883,2870,2997,-4294,-4052,-780,-4392,1307,76,49,854
1056913,5473060,5899440,5476604,5902588,1752,2800,3270,-5190,-4005,-1262,-3576,1407,76,56,855
1057914,5473476,5899696,5476931,5902915,1613,2857,3488,-5885,-3850,-1817,-3434,1856,76,56,855
1058915,5473856,5899980,5477258,5903242,1816,2701,3700,-6473,-3722,-2315,-3410,1807,69,61,855
1059916,5474204,5900252,5477585,5903569,2007,2801,3913,-7051,-3586,-3078,-3280,2175,69,61,855
1060917,5474612,5900536,5477912,5903896,1597,2746,4108,-7294,-3416,-3307,-3281,2921,71,69,854
1061918,5474980,5900812,5478239,5904223,1830,2818,4264,-7442,-3201,-3464,-3143,2558,71,69,854
1062920,5475372,5901088,5478566,5904550,1651,2842,4395,-7554,-2935,-3720,-2775,2751,64,66,854
1063920,5475776,5901384,5478893,5904877,1543,2732,4532,-7622,-2631,-3771,-2403,2647,64,66,854
1064921,5476184,5901668,5479220,5905204,1484,2825,4661,-7761,-2291,-3688,-2038,2414,65,63,855
1065922,5476592,5901932,5479547,5905531,1448,2979,4797,-7826,-1897,-3570,-1723,2491,65,63,855
1066923,5477068,5902200,5479874,5905858,959,2981,4926,-7917,-1451,-3526,-1628,2231,90,66,857
1067924,5477448,5902464,5480201,5906185,1535,3034,5048,-8002,-992,-3400,-1477,2184,90,66,857
1068925,5477852,5902724,5480528,5906512,1352,3089,5130,-7977,-507,-3223,-1255,2346,72,65,856
1069926,5478312,5903044,5480855,5906839,944,2718,5217,-7895,70,-2768,-1316,2349,72,65,856
1070928,5478724,5903340,5481182,5907166,1208,2882,5269,-7786,664,-2598,-1010,2288,88,68,855
1071929,5479096,5903632,5481509,5907493,1438,2923,5296,-7697,1214,-2372,-559,2128,88,68,855
1072929,5479492,5903948,5481836,5907820,1259,2779,5252,-7617,1664,-2071,-90,2040,69,58,858
1073931,5479928,5904260,5482163,5908147,961,2812,5140,-7473,2057,-1873,219,2118,69,58,858
1074932,5480304,5904592,5482490,5908474,1315,2684,4985,-7354,2421,-1628,519,1957,82,72,856
1075933,5480684,5904888,5482817,5908801,1267,2924,4781,-7325,2732,-1094,798,1572,82,72,856
1076933,5481072,5905160,5483144,5909128,1190,3099,4545,-7355,3005,-660,1106,1401,87,56,858
1077934,5481392,5905472,5483471,5909455,1619,2857,4289,-7403,3249,-424,1361,1170,87,56,858
1078935,5481740,5905764,5483798,5909782,1435,2997,3995,-7518,3420,-119,1443,875,71,55,856
1079936,5482104,5906048,5484125,5910109,1320,3067,3662,-7667,3537,143,1653,892,71,55,856
1080937,5482448,5906356,5484452,5910436,1437,2926,3331,-7828,3630,478,1795,786,56,55,856
1081938,5482792,5906640,5484779,5910763,1430,3096,2980,-7982,3698,648,1833,637,56,55,856
1082939,5483140,5906944,5485106,5911090,1396,2981,2639,-8186,3728,571,2077,502,64,53,855
1083940,5483464,5907256,5485433,5911417,1548,2939,2296,-8317,3715,763,2121,622,64,53,855
1084941,5483784,5907532,5485760,5911744,1577,3187,1965,-8474,3665,895,2237,471,69,58,853
1085942,5484120,5907808,5486087,5912071,1473,3211,1622,-8642,3598,954,2459,443,69,58,853
1086943,5484436,5908148,5486414,5912398,1603,2806,1299,-8892,3527,1026,2352,288,73,64,855
1087945,5484752,5908424,5486741,5912725,1609,3229,968,-9070,3492,894,1917,658,73,64,855
1088945,5485060,5908696,5487068,5913052,1667,3279,639,-9058,3513,755,1527,948,77,55,853
1089946,5485396,5908960,5487395,5913379,1488,3357,306,-9084,3588,691,1251,674,77,55,853
1090947,5485712,5909200,5487722,5913706,1619,3547,1,-9151,3731,666,1290,826,53,44,853
1091948,5486008,5909464,5488049,5914033,1757,3425,-314,-9204,3933,743,1438,896,53,44,853
1092949,5486348,5909736,5488376,5914360,1478,3401,-638,-9299,4150,790,1514,834,54,55,853
1093950,5486644,5910016,5488703,5914687,1766,3372,-989,-9255,4420,771,1358,1458,54,55,853
1094958,5486924,5910276,5489064,5915048,1902,3542,-1361,-9106,4687,865,1547,1747,53,47,851
1095952,5487256,5910520,5489391,5915375,1576,3679,-1781,-8736,4831,1121,2406,2581,53,47,851
1096953,5487536,5910752,5489718,5915702,1921,3797,-2259,-8234,4989,1468,2233,3198,74,47,852
1097954,5487784,5911076,5490045,5916029,2157,3224,-2811,-7579,5194,1886,2351,3912,74,47,852
1098955,5488084,5911372,5490372,5916356,1844,3414,-3364,-6917,5328,2241,3129,3887,62,48,851
1099956,5488360,5911632,5490699,5916683,2016,3669,-3928,-6334,5351,2496,3533,3962,62,48,851
1100957,5488612,5911912,5491026,5917010,2200,3566,-4464,-5838,5282,2714,3633,3750,66,62,850
1101958,5488932,5912200,5491353,5917337,1778,3534,-4937,-5452,5201,2614,3256,3773,66,62,850
1102959,5489204,5912504,5491680,5917664,2104,3445,-5320,-5209,5148,2658,2819,3448,68,64,849
1103961,5489456,5912788,5492007,5917991,2262,3590,-5608,-5195,5064,2909,2562,2949,68,64,849
1104961,5489700,5913088,5492334,5918318,2349,3503,-5813,-5317,4995,3001,1699,2828,61,49,849
1105963,5489972,5913348,5492661,5918645,2198,3783,-5920,-5543,4932,2843,1128,2510,61,49,849
1106963,5490204,5913612,5492988,5918972,2491,3787,-5886,-5950,4828,2713,752,1969,52,60,847
1107965,5490460,5913972,5493315,5919299,2372,3173,-5735,-6420,4700,2761,360,2186,52,60,847
1108965,5490712,5914348,5493642,5919626,2431,3053,-5555,-6675,4567,2883,-193,2786,61,76,847
1109967,5490936,5914652,5493969,5919953,2651,3514,-5383,-6744,4415,2868,-586,3505,61,76,847
1110968,5491140,5915032,5494296,5920280,2831,3017,-5218,-6566,4278,2393,-1141,4547,51,61,850
1111968,5491372,5915396,5494623,5920607,2699,3101,-4988,-6224,4140,1721,-1442,5056,51,61,850
1112969,5491580,5915752,5494950,5920934,2901,3140,-4701,-5810,3949,1395,-1509,5569,49,79,847
1113970,5491784,5916136,5495277,5921261,2982,2941,-4379,-5240,3712,1769,-1120,6175,49,79,847
1114971,5492048,5916532,5495604,5921588,2634,2836,-4095,-4440,3452,2381,-629,7134,62,72,849
1115972,5492272,5916908,5495931,5921915,2930,2941,-3847,-3434,3160,2176,-477,7710,62,72,849
1116973,5492472,5917272,5496258,5922242,3137,3001,-3581,-2421,2867,1442,-631,7941,45,78,847
1117975,5492700,5917616,5496585,5922569,3007,3119,-3261,-1527,2564,1349,-211,7625,45,78,847
1118975,5492948,5918088,5496912,5922896,2916,2256,-2908,-835,2275,2047,543,7446,53,84,849
1119977,5493196,5918576,5497239,5923223,2952,2087,-2576,-228,2090,2529,357,7335,53,84,849
1120978,5493452,5919012,5497566,5923550,2934,2365,-2217,199,1933,2310,482,6618,47,86,849
1121979,5493732,5919512,5497893,5923877,2806,1890,-1841,514,1763,1808,645,6326,47,86,849
1122979,5493996,5919992,5498220,5924204,2934,1947,-1452,655,1612,1499,1091,6178,66,99,853
1123980,5494268,5920484,5498547,5924531,2909,1801,-1048,689,1453,1482,1484,5917,66,99,853
1124981,5494612,5921052,5498874,5924858,2452,1221,-663,764,1292,1511,1211,5775,48,96,855
1125982,5494904,5921556,5499201,5925185,2794,1544,-266,648,1157,1701,1386,5022,48,96,855
1126983,5495212,5922148,5499528,5925512,2703,878,81,686,1120,1326,354,5792,74,95,854
1127984,5495556,5922692,5499855,5925839,2471,1083,417,751,1208,812,8,5651,74,95,854
1128985,5495900,5923092,5500182,5926166,2464,1952,794,645,1333,446,199,5329,66,110,856
1129986,5496252,5923676,5500509,5926493,2404,689,1164,655,1400,404,316,5617,66,110,856
1130987,5496640,5924284,5500836,5926820,2153,417,1551,592,1404,352,424,4925,76,87,859
1131988,5496988,5924712,5501163,5927147,2395,1498,1929,514,1434,215,22,4997,76,87,859
1132989,5497360,5925304,5501490,5927474,2226,357,2273,449,1528,35,-421,5209,72,101,861
1133990,5497772,5925768,5501817,5927801,1939,1097,2570,542,1668,-3,-412,5561,72,101,861
1134991,5498132,5926240,5502144,5928128,2251,983,2831,873,1808,73,-168,5845,65,89,859
1135992,5498520,5926792,5502471,5928455,2050,385,3105,1138,1906,66,556,5426,65,89,859
1136993,5498916,5927272,5502798,5928782,1970,768,3367,1383,1902,-112,919,5446,86,113,862
1137995,5499376,5927820,5503125,5929109,1512,246,3559,1726,1878,-34,450,5920,86,113,862
1138995,5499744,5928308,5503452,5929436,2070,551,3685,2282,1866,115,617,6026,74,108,862
1139996,5500160,5928728,5503779,5929763,1732,935,3771,2850,1839,10,464,5631,74,108,862
1140997,5500596,5929240,5504106,5930090,1559,279,3849,3220,1787,-97,259,5190,76,103,865
1141999,5500984,5929824,5504433,5930417,1833,-284,3908,3633,1751,248,117,5277,76,103,865
1142999,5501408,5930248,5504760,5930744,1567,673,3949,3960,1803,734,-262,4514,91,91,864
1144001,5501856,5930772,5505087,5931071,1363,-38,4024,3949,1880,853,-337,3307,91,91,864
1145008,5502232,5931252,5505448,5931432,1808,185,4124,3737,1916,709,-754,2678,87,91,864
1146002,5502636,5931600,5505775,5931759,1600,1001,4182,3429,1933,895,-1427,2297,87,91,864
1147003,5503120,5932072,5506102,5932086,1031,163,4159,3147,1977,1499,-1747,2110,80,85,866
1148004,5503508,5932456,5506429,5932413,1605,688,4058,2886,2018,1777,-1586,2169,80,85,866
1149005,5503900,5932788,5506756,5932740,1552,1010,3899,2666,2013,1781,-1492,2114,76,71,864
1150006,5504348,5933112,5507083,5933067,1149,1062,3716,2447,1925,1865,-1085,1746,76,71,864
1151007,5504736,5933420,5507410,5933394,1498,1170,3519,2217,1743,1694,-523,1633,90,57,864
1152008,5505152,5933724,5507737,5933721,1284,1204,3268,2169,1502,1301,-610,2164,90,57,864
1153009,5505612,5933964,5508064,5934048,951,1642,2911,2361,1217,955,-690,2688,89,48,865
1154010,5506008,5934192,5508391,5934375,1322,1762,2460,2808,890,633,-508,3221,89,48,865
1155011,5506404,5934392,5508718,5934702,1291,1993,1941,3340,503,311,-299,3234,88,54,864
1156012,5506756,5934608,5509045,5935029,1556,1942,1428,3766,48,144,3,2705,88,54,864
1157013,5507120,5934848,5509372,5935356,1465,1830,971,4056,-446,26,447,2191,66,39,862
1158014,5507472,5935080,5509699,5935683,1530,1921,552,4126,-1017,-216,1129,1342,66,39,862
1159015,5507824,5935316,5510026,5936010,1519,1936,137,3896,-1802,-815,2040,404,78,50,860
1160016,5508208,5935492,5510353,5936337,1294,2378,-240,3503,-2724,-1260,2463,-54,78,50,860
1161017,5508560,5935664,5510680,5936664,1484,2471,-551,3127,-3593,-1452,2681,-113,75,47,859
1162018,5508916,5935896,5511007,5936991,1446,2138,-903,2735,-4296,-1430,2085,-177,75,47,859
1163019,5509336,5936100,5511334,5937318,1007,2368,-1307,2418,-4730,-1037,918,110,64,43,858
1164020,5509724,5936336,5511661,5937645,1180,2208,-1763,2106,-4899,-649,-329,34,64,43,858
1165021,5510052,5936560,5511988,5937972,1554,2328,-2204,1643,-4932,-697,-1081,-213,84,36,859
1166023,5510412,5936756,5512315,5938299,1341,2561,-2620,1035,-4924,-822,-1421,-545,84,36,859
1167023,5510728,5936964,5512642,5938626,1621,2539,-3002,142,-4879,-603,-2245,-1291,65,46,860
1168024,5511048,5937188,5512969,5938953,1600,2484,-3343,-1041,-4779,-470,-2553,-1973,65,46,860
1169025,5511400,5937444,5513296,5939280,1389,2315,-3570,-2459,-4712,-804,-2246,-2858,61,42,857
1170027,5511676,5937704,5513623,5939607,1886,2321,-3697,-4081,-4630,-1017,-2316,-3254,61,42,857
1171027,5511968,5937980,5513950,5939934,1802,2243,-3739,-5780,-4411,-1013,-2226,-3311,65,52,856
1172028,5512268,5938248,5514277,5940261,1764,2319,-3777,-7414,-4067,-605,-1950,-3425,65,52,856
1173029,5512584,5938516,5514604,5940588,1669,2346,-3846,-9016,-3674,82,-1736,-3368,44,63,855
1174031,5512884,5938800,5514931,5940915,1782,2265,-3998,-10534,-3227,958,-1934,-2681,44,63,855
1175031,5513148,5939096,5515258,5941242,2035,2205,-4289,-11552,-2761,1559,-1950,-1074,61,68,857
1176032,5513460,5939424,5515585,5941569,1742,2004,-4675,-11933,-2255,1255,-1914,655,61,68,857
1177033,5513716,5939700,5515912,5941896,2124,2352,-5001,-12165,-1655,486,-2096,595,68,57,858
1178034,5513996,5939944,5516239,5942223,1994,2589,-5209,-12418,-998,495,-1873,1107,68,57,858
1179035,5514312,5940220,5516566,5942550,1775,2411,-5473,-12257,-366,836,-1152,2827,50,51,859
1180036,5514564,5940488,5516893,5942877,2208,2488,-5848,-11524,208,815,-745,4297,50,51,859
1181037,5514784,5940788,5517220,5943204,2456,2300,-6195,-10760,727,464,-783,4041,47,65,855
1182039,5515036,5941060,5517547,5943531,2289,2500,-6459,-10206,1196,520,-609,3993,47,65,855
1183039,5515280,5941356,5517874,5943858,2376,2364,-6691,-9641,1639,1302,-507,4391,49,60,854
1184040,5515500,5941676,5518201,5944185,2573,2217,-6930,-9206,2048,2111,-415,4139,49,60,854
1185041,5515756,5941972,5518528,5944512,2381,2382,-7098,-8899,2457,2486,-865,3810,59,52,854
1186043,5515992,5942276,5518855,5944839,2546,2342,-7194,-8775,2893,2577,-1465,3843,59,52,854
1188045,5516452,5942804,5519509,5945493,2682,2673,-7245,-8321,3828,3313,-2588,4604,40,51,854
1189045,5516744,5943084,5519836,5945820,2298,2570,-7243,-8086,4225,3758,-2945,4466,58,62,854
1190046,5516996,5943396,5520163,5946147,2581,2376,-7186,-7979,4540,4133,-3397,4487,58,62,854
1191047,5517232,5943656,5520490,5946474,2722,2732,-7070,-7902,4771,4196,-3744,4881,49,60,851
1192048,5517492,5943940,5520817,5946801,2603,2602,-6859,-7908,4915,4386,-4100,4656,49,60,851
1193049,5517756,5944288,5521144,5947128,2605,2193,-4391,-4994,4802,10816,-4522,23540,51,55,852
1194050,5518012,5944616,5521471,5947455,2688,2318,2660,8898,3009,30341,-3154,32767,51,55,852
1195058,5518320,5944936,5521832,5947816,2387,2386,7471,15977,1651,11269,-2835,10710,68,72,851
1196052,5518624,5945276,5522159,5948143,2422,2256,8101,14295,1426,6116,-1406,-1926,68,72,851
1197053,5518924,5945612,5522486,5948470,2460,2277,6557,9821,1717,6556,-1948,-1491,69,66,853
1198055,5519220,5946004,5522813,5948797,2499,1900,5435,6901,2046,6279,-3547,-1956,69,66,853
1199055,5519528,5946320,5523140,5949124,2433,2380,4749,5031,2244,5536,-3840,-1452,72,70,855
1200056,5519868,5946604,5523467,5949451,2228,2600,4324,3792,2258,4741,-3567,-1329,72,70,855
1201057,5520232,5946936,5523794,5949778,2063,2297,3728,2269,2152,4473,-3190,-699,55,72,856
1202059,5520516,5947296,5524121,5950105,2582,2109,3270,664,1874,3364,-1926,-1478,55,72,856
1203059,5520764,5947644,5524448,5950432,2842,2175,2850,-1035,1493,2536,-1409,-755,54,64,855
1204060,5520980,5948000,5524775,5950759,3092,2113,2383,-2118,1142,2167,-1808,947,54,64,855
1205061,5521292,5948384,5525102,5951086,2499,1914,1836,-2789,918,1606,-1764,1693,71,66,854
1206063,5521608,5948760,5525429,5951413,2480,1942,1379,-3242,757,893,-1601,2177,71,66,854
1207063,5521912,5949232,5525756,5951740,2566,1280,973,-3381,568,-292,-1155,3135,65,74,853
1208064,5522248,5949524,5526083,5952067,2363,2420,659,-3356,380,-1627,-794,3983,65,74,853
1209065,5522552,5949836,5526410,5952394,2573,2303,461,-3061,189,-2288,-200,4408,72,74,857
1210067,5522844,5950144,5526737,5952721,2664,2336,413,-2556,56,-2956,-25,4800,72,74,857
1211068,5523188,5950468,5527064,5953048,2333,2237,538,-1936,24,-3870,42,5210,64,53,855
1212068,5523464,5950820,5527391,5953375,2781,2052,640,-1267,104,-4530,-166,5622,64,53,855
1213069,5523744,5951108,5527718,5953702,2777,2469,651,-534,304,-5117,-161,6016,66,76,854
1214070,5524064,5951464,5528045,5954029,2531,2033,566,475,585,-5517,265,6926,66,76,854
1215071,5524348,5951892,5528372,5954356,2776,1538,450,2871,1389,-6349,467,7166,75,69,853
1216072,5524640,5952248,5528699,5954683,2742,1977,477,3928,1793,-6567,841,6950,75,69,853
1217073,5524956,5952692,5529026,5955010,2597,1375,523,4799,2205,-6659,794,6105,57,92,855
1218074,5525240,5953160,5529353,5955337,2817,1164,576,5432,2745,-6531,118,5544,57,92,855
1219075,5525536,5953556,5529680,5955664,2757,1584,690,5645,3363,-6224,-53,4251,63,91,855
1220076,5525832,5954028,5530007,5955991,2771,1046,860,5487,3940,-5699,436,3225,63,91,855
1221077,5526184,5954432,5530334,5956318,2411,1437,996,5188,4501,-4948,726,2988,81,77,857
1222078,5526484,5954796,5530661,5956645,2748,1671,1052,4841,5096,-4152,464,3012,81,77,857
1223079,5526808,5955192,5530988,5956972,2600,1442,1038,4433,5575,-3832,733,2728,78,70,857
1224080,5527112,5955528,5531315,5957299,2737,1813,1003,3705,5805,-3576,1599,1514,78,70,857
1225081,5527392,5955864,5531642,5957626,2908,1809,917,2623,5752,-3125,2218,835,68,74,856
1226082,5527692,5956160,5531969,5957953,2796,2073,733,1486,5515,-2737,2310,1056,68,74,856
1227083,5528024,5956508,5532296,5958280,2594,1739,435,445,5198,-2320,1491,1383,54,61,855
1228084,5528320,5956824,5532623,5958607,2833,1944,-16,-284,4746,-1824,1342,2473,54,61,855
1229085,5528616,5957132,5532950,5958934,2848,2003,-596,-795,4186,-1148,2042,2786,64,57,854
1230086,5528912,5957412,5533277,5959261,2863,2199,-1240,-1338,3515,-550,2739,2716,64,57,854
1231087,5529204,5957692,5533604,5959588,2904,2220,-1906,-1918,2729,-79,2798,3004,61,65,855
1232088,5529488,5958060,5533931,5959915,2973,1653,-2567,-2414,1989,475,1397,3529,61,65,855
1233089,5529816,5958392,5534258,5960242,2699,1875,-3188,-2812,1402,1220,342,3670,72,68,854
1234090,5530116,5958728,5534585,5960569,2886,1847,-3696,-3281,962,1650,164,3517,72,68,854
1235091,5530400,5959064,5534912,5960896,3006,1844,-4031,-3947,565,1847,641,3017,63,71,854
1236092,5530700,5959416,5535239,5961223,2919,1733,-4242,-4730,117,2099,1478,2835,63,71,854
1237093,5531056,5959792,5535566,5961550,2557,1562,-4317,-5628,-266,2657,507,2521,60,63,853
1238094,5531376,5960068,5535893,5961877,2787,2209,-4207,-6546,-488,3221,-597,2552,60,63,853
1239096,5531704,5960328,5536220,5962204,2736,2339,-4009,-7385,-667,3395,-272,2912,57,57,854
1240096,5532060,5960612,5536547,5962531,2549,2209,-3762,-8034,-893,3630,166,4046,57,57,854
1241097,5532396,5960880,5536874,5962858,2671,2335,-1891,-5468,-1099,5195,-1089,32112,79,60,854
1242098,5532732,5961116,5537201,5963185,2668,2575,847,-1431,-1245,3819,-1736,31251,79,60,854
1243099,5533116,5961360,5537528,5963512,2344,2562,2078,-646,-1508,2969,347,3208,75,50,854
1244100,5533472,5961556,5537855,5963839,2508,2920,1961,-2059,-1756,2761,-153,2772,75,50,854
1245110,5533828,5961760,5538216,5964200,2511,2940,1605,-3614,-1946,2401,-961,2562,62,50,852
1246102,5534224,5961956,5538543,5964527,2230,3047,1401,-4494,-2115,1503,-1070,3274,62,50,852
1247103,5534600,5962144,5538870,5964854,2335,3158,1421,-4927,-2268,498,-1910,3228,69,51,851
1248104,5534956,5962364,5539197,5965181,2448,3006,1451,-5214,-2404,126,-3317,3781,69,51,851
1249105,5535384,5962560,5539524,5965508,1955,3215,1475,-5314,-2517,-721,-3327,4449,84,33,849
1250106,5535748,5962748,5539851,5965835,2340,3326,1503,-5369,-2645,-1493,-2699,4375,84,33,849
1251107,5536148,5962936,5540178,5966162,2082,3388,1550,-5385,-2815,-1944,-2866,4462,74,49,850
1252108,5536540,5963160,5540505,5966489,2105,3208,1608,-5383,-2912,-2611,-3198,4464,92,60,849
1253109,5536984,5963392,5540832,5966816,1730,3201,1692,-5313,-2962,-3074,-2698,4480,92,60,849
1254110,5537376,5963668,5541159,5967143,2027,2950,1756,-5253,-3003,-3445,-2254,4164,88,49,851
1255112,5537780,5963920,5541486,5967470,1918,3133,1845,-5306,-2969,-3701,-2133,4004,88,49,851
1256112,5538204,5964164,5541813,5967797,1751,3220,1969,-5405,-2880,-3548,-1969,3414,94,47,853
1257113,5538648,5964456,5542140,5968124,1576,2936,2123,-5703,-2768,-3625,-1166,2743,94,47,853
1258114,5539032,5964688,5542467,5968451,1926,3353,2293,-6091,-2618,-3668,-936,2599,91,54,851
1259115,5539460,5964956,5542794,5968778,1608,3155,2455,-6465,-2400,-3439,-1615,2397,91,54,851
1260116,5539836,5965244,5543121,5969105,1912,3048,2645,-6858,-2120,-3437,-1817,2055,76,55,849
1261117,5540244,5965480,5543448,5969432,1677,3414,2850,-7298,-1807,-3458,-1741,1818,76,55,849
1262118,5540704,5965756,5543775,5969759,1294,3187,3052,-7796,-1469,-3199,-1858,1562,72,52,853
1263119,5541112,5966056,5544102,5970086,1584,3049,3198,-8223,-1068,-2902,-1841,1928,72,52,853
1264120,5541516,5966332,5544429,5970413,1576,3223,3293,-8478,-633,-2680,-1551,2156,71,60,854
1265121,5541976,5966636,5544756,5970740,1168,3059,3384,-8796,-243,-2464,-1243,1766,71,60,854
1266122,5542408,5966888,5545083,5971067,1297,3417,3475,-9036,129,-2210,-1161,2076,82,54,853
1267123,5542844,5967200,5545410,5971394,1225,3050,3564,-9169,508,-2014,-996,2009,82,54,853
1268124,5543280,5967476,5545737,5971721,1177,3298,3616,-9303,878,-1752,-981,2122,83,70,852
1269125,5543772,5967796,5546064,5972048,756,3027,3632,-9277,1238,-1617,-805,2445,83,70,852
1270126,5544188,5968072,5546391,5972375,1192,3325,3622,-9203,1571,-1419,-626,2538,96,63,853
1271127,5544608,5968408,5546718,5972702,1126,2947,3574,-9036,1848,-1256,-409,2670,96,63,853
1272128,5545064,5968744,5547045,5973029,845,2944,3502,-8835,2061,-1289,-196,2703,73,73,854
1273129,5545456,5969064,5547372,5973356,1216,3048,3403,-8579,2233,-1062,-168,2678,73,73,854
1274130,5545840,5969396,5547699,5973683,1242,2971,3286,-8452,2401,-516,-267,2399,83,65,857
1275131,5546248,5969744,5548026,5974010,1057,2863,3144,-8351,2590,-60,-449,2301,83,65,857
1276132,5546620,5970112,5548353,5974337,1262,2720,2978,-8249,2790,73,-220,2065,74,60,856
1277133,5546960,5970432,5548680,5974664,1457,3024,2803,-8348,2924,286,65,1365,74,60,856
1278135,5547344,5970720,5549007,5974991,1157,3242,2614,-8411,3040,722,224,1551,78,69,856
1279135,5547672,5971040,5549334,5975318,1507,3046,2423,-8487,3191,903,604,1363,78,69,856
1280136,5547992,5971340,5549661,5975645,1561,3184,2225,-8647,3352,1100,634,1060,70,60,854
1281137,5548340,5971636,5549988,5975972,1377,3224,2023,-8814,3530,1224,544,1017,70,60,854
1282138,5548640,5971964,5550315,5976299,1689,3024,1832,-8933,3743,1359,598,1151,58,61,852
1283139,5548948,5972248,5550642,5976626,1648,3318,1632,-9026,3927,1576,786,1031,58,61,852
1284140,5549248,5972556,5550969,5976953,1710,3178,1434,-9151,4048,1610,1150,921,74,67,854
1285141,5549588,5972836,5551296,5977280,1454,3374,1223,-9242,4136,1750,1458,1214,74,67,854
1286142,5549908,5973128,5551623,5977607,1583,3316,977,-9231,4232,1902,1405,1405,53,60,853
1287143,5550224,5973392,5551950,5977934,1613,3519,698,-9068,4374,1744,1288,1889,53,60,853
1288144,5550540,5973720,5552277,5978261,1618,3119,413,-8773,4546,1404,1346,2242,54,62,853
1289145,5550848,5973968,5552604,5978588,1676,3655,151,-8481,4705,1158,1403,2271,54,62,853
1290146,5551132,5974224,5552931,5978915,1846,3637,-95,-8098,4861,1061,1404,2610,55,39,853
1291147,5551460,5974468,5553258,5979242,1571,3749,-357,-7634,5012,1072,1616,3037,55,39,853
1292161,5551756,5974692,5553585,5979569,1785,3800,-684,-6955,5112,1226,1964,3946,53,46,846
1293149,5552064,5974960,5553912,5979896,1719,3673,-1110,-6089,5244,1430,1687,4530,53,46,846
1294150,5552380,5975216,5554239,5980223,1673,3780,-1556,-5283,5332,1739,2240,4392,74,60,848
1295158,5552668,5975488,5554600,5980584,1882,3720,-1969,-4644,5312,2111,2755,4012,74,60,848
1296165,5552972,5975744,5554927,5980911,1792,3800,-2356,-4158,5222,2350,2925,3783,65,45,849
1297166,5553256,5975992,5555254,5981238,1936,3800,-2720,-3816,5092,2590,3156,3435,65,45,849
1298167,5553500,5976212,5555581,5981565,2223,3800,-3034,-3719,4957,2823,3218,2826,58,49,848
1299155,5553772,5976532,5555908,5981892,2072,3540,-3290,-3757,4839,2964,2938,2735,58,49,848
1300170,5554056,5976812,5556235,5982219,2016,3800,-3516,-3808,4753,2852,2140,2944,55,49,847
1301170,5554360,5977088,5556562,5982546,1902,3800,-3689,-3877,4661,2626,1642,2729,55,49,847
1302171,5554664,5977324,5556889,5982873,1912,3800,-3764,-4149,4517,2576,1619,2214,69,56,847
1303172,5554932,5977612,5557216,5983200,2164,3800,-3762,-4433,4353,2607,1293,2471,69,56,847
1304160,5555196,5977924,5557543,5983527,2217,3702,-3758,-4576,4204,2471,977,3296,59,47,847
1305174,5555448,5978200,5557870,5983854,2326,3800,-3760,-4457,4009,2096,1143,4066,59,47,847
1306175,5555716,5978444,5558197,5984181,2252,3800,-3729,-4240,3761,1773,955,4485,45,57,847
1307176,5555992,5978724,5558524,5984508,2225,3800,-3652,-3921,3444,1687,1189,4920,45,57,847
1308177,5556236,5978952,5558851,5984835,2462,3800,-3546,-3531,3083,1876,1629,5297,50,47,846
1309178,5556484,5979240,5559178,5985162,2472,3800,-3444,-2963,2758,1894,1609,6063,50,47,846
1310167,5556716,5979620,5559505,5985489,2614,3401,-3351,-2262,2508,1600,1248,6755,63,60,847
1311180,5556936,5979916,5559832,5985816,2737,3800,-3228,-1560,2255,1261,1224,6836,63,60,847
1312181,5557164,5980196,5560159,5986143,2731,3800,-3053,-972,1963,1293,1568,6507,53,55,847
1313169,5557436,5980560,5560486,5986470,2481,3522,-2823,-540,1661,1502,1956,6339,53,55,847
1314171,5557680,5980920,5560813,5986797,2692,3533,-2584,-232,1455,1627,1677,6276,63,68,844
1315171,5557912,5981308,5561140,5987124,2810,3332,-2368,94,1399,1371,1019,6484,63,68,844
1316172,5558152,5981668,5561467,5987451,2798,3494,-2149,354,1422,788,556,6280,66,75,847
1317174,5558416,5982112,5561794,5987778,2677,2918,-1878,462,1403,575,449,5844,66,75,847
1318175,5558640,5982500,5562121,5988105,2973,3243,-1608,350,1322,795,469,5359,54,85,847
1319176,5558912,5982888,5562448,5988432,2697,3218,-1367,212,1278,892,55,5472,54,85,847
1320177,5559192,5983300,5562775,5988759,2669,3031,-1180,181,1392,586,-976,5993,51,78,847
1321178,5559436,5983808,5563102,5989086,2932,2353,-1042,149,1584,-16,-823,6189,51,78,847
1322179,5559692,5984224,5563429,5989413,2888,2890,-906,149,1672,-445,-100,6119,56,84,850
1323180,5560004,5984708,5563756,5989740,2545,2397,-715,-76,1622,-154,1039,5152,56,84,850
1324180,5560300,5985228,5564083,5990067,2660,2088,-489,-448,1480,187,2169,5119,58,95,850
1325181,5560628,5985676,5564410,5990394,2461,2485,-315,-656,1334,-406,2097,5777,58,95,850
1326183,5560992,5986244,5564737,5990721,2219,1630,-172,-865,1270,-946,2128,5514,78,95,853
1327184,5561352,5986832,5565064,5991048,2231,1391,-34,-913,1306,-960,2306,6016,78,95,853
1328185,5561708,5987368,5565391,5991375,2244,1625,56,-901,1401,-904,2518,6120,82,98,858
1329185,5562108,5987904,5565718,5991702,1937,1535,143,-968,1530,-731,2434,5755,82,98,858
1330187,5562476,5988452,5566045,5992029,2120,1363,272,-1053,1675,-803,1940,5428,71,97,859
1331187,5562884,5988984,5566372,5992356,1835,1373,429,-1283,1767,-1178,1773,5315,71,97,859
1332188,5563292,5989608,5566699,5992683,1800,669,566,-1454,1792,-1171,1521,5524,84,101,860
1333190,5563656,5990112,5567026,5993010,2059,1341,693,-1480,1851,-1004,986,5634,84,101,860
1334191,5564036,5990688,5567353,5993337,1937,783,810,-1429,2013,-510,840,5732,73,100,863
1335192,5564444,5991236,5567680,5993664,1727,860,835,-1110,2244,-380,404,6380,73,100,863
1336193,5564864,5991792,5568007,5993991,1612,711,786,-648,2422,-610,226,6280,86,95,862
1337194,5565244,5992316,5568334,5994318,1839,824,772,-380,2512,-241,509,5245,86,95,862
