"Data file recorded 2014/9/24  13:25:6"
"%  Right Stride Frequency         = 3.0"
"%  Left Stride Frequency         = 3.0"
"%  Phase (Fractional)         = 32768.0"
"%  Experiment.py "
"%  Motor Gains    = [1800, 200, 100, 0, 0, 1800, 200, 100, 0, 0]
"% Columns: "
"% time | Right Leg Pos | Left Leg Pos | Commanded Right Leg Pos | Commanded Left Leg Pos | DCR | DCL | GyroX | GryoY | GryoZ | AX | AY | AZ | RBEMF | LBEMF | VBatt "
11126,9652744,10874992,9657847,10870263,2954,-1492,-390,-551,357,32,-466,4042,10,8,862
12122,9652752,10874976,9658044,10870460,2962,-1199,-390,-553,358,58,-483,4052,-1,-8,862
13123,9652784,10874992,9658241,10870657,2886,-1321,-389,-554,361,43,-502,4045,-1,-8,862
14124,9652852,10874972,9658438,10870854,2719,-1001,-387,-565,362,41,-507,4060,-10,-2,862
15125,9652964,10874960,9658635,10871051,2483,-960,-390,-560,360,65,-455,4068,-10,-2,862
16126,9653088,10874948,9658832,10871248,2441,-869,-390,-522,363,98,-373,4093,14,-7,846
17127,9653232,10874940,9659029,10871445,2340,-804,-389,-538,375,149,-315,4130,14,-7,846
18128,9653408,10874948,9659226,10871642,2150,-822,-391,-517,377,190,-258,4123,29,-2,846
19128,9653560,10874960,9659423,10871839,2321,-767,-384,-437,354,239,-27,4086,29,-2,846
20129,9653712,10874944,9659620,10872036,2342,-498,-381,-432,315,204,41,4164,25,4,850
21130,9653900,10874948,9659817,10872233,2122,-540,-393,-397,286,270,-166,4330,25,4,850
22131,9654060,10874952,9660014,10872430,2314,-455,-399,-286,281,293,-148,4338,37,10,852
23133,9654216,10874956,9660211,10872627,2358,-371,-385,-200,276,264,-120,4405,37,10,852
24133,9654388,10874952,9660408,10872824,2271,-233,-253,55,254,468,30,5867,43,1,852
25135,9654552,10874952,9660605,10873021,2337,-172,62,601,211,763,265,8347,43,1,852
26135,9654688,10874932,9660802,10873218,2539,48,294,897,148,322,684,4884,33,5,854
27137,9654852,10874936,9660999,10873415,2380,-17,339,718,60,150,1147,3485,33,5,854
28137,9654984,10874940,9661196,10873612,2609,67,297,319,-56,157,1385,3130,43,2,851
29138,9655096,10874948,9661393,10873809,2773,125,251,-30,-180,228,1295,3190,43,2,851
30139,9655260,10874940,9661590,10874006,2464,315,267,-280,-308,272,1436,3679,22,5,853
31140,9655388,10874944,9661787,10874203,2721,325,466,-83,-430,518,1420,7137,22,5,853
32141,9655524,10874932,9661984,10874400,2698,517,712,342,-541,288,1526,6685,34,11,853
33142,9655640,10874948,9662181,10874597,2860,420,727,452,-630,203,1476,4015,34,11,853
34143,9655768,10874952,9662378,10874794,2817,580,567,352,-686,272,1380,3831,19,2,851
35177,9655892,10874956,9674034,10886450,3800,3800,384,195,-724,355,1197,3768,19,2,851
36171,9656024,10874968,9674231,10886647,3800,3800,255,113,-761,423,1238,3886,21,8,850
37172,9656192,10874960,9674428,10886844,3800,3800,232,130,-806,516,1395,4798,21,8,850
38173,9656372,10875044,9674625,10887041,3800,3800,319,379,-865,667,1493,6413,18,12,847
39174,9656584,10875220,9674822,10887238,3800,3800,359,505,-928,556,1504,4595,18,12,847
40175,9656812,10875408,9675019,10887435,3800,3800,306,329,-1006,532,1665,3848,37,20,828
41176,9657052,10875708,9675216,10887632,3800,3800,250,217,-1091,525,1789,4710,37,20,828
42177,9657292,10875972,9675413,10887829,3800,3800,279,350,-1139,503,1608,6208,42,52,828
43178,9657604,10876240,9675610,10888026,3800,3800,310,557,-1181,497,1798,5106,42,52,828
44178,9657884,10876524,9675807,10888223,3800,3800,252,562,-1236,542,1840,4097,62,60,830
45180,9658200,10876768,9676004,10888420,3800,3800,188,511,-1251,615,1675,4664,62,60,830
46180,9658564,10877072,9676201,10888617,3800,3800,299,741,-1168,383,869,7497,54,70,831
47182,9658932,10877316,9676398,10888814,3800,3800,425,970,-1079,367,652,5575,54,70,831
48183,9659296,10877560,9676595,10889011,3800,3800,414,909,-1054,155,596,3807,83,64,831
49184,9659736,10877748,9676792,10889208,3800,3800,289,617,-1075,91,482,3682,83,64,831
50185,9660164,10877940,9676989,10889405,3800,3800,149,410,-1091,363,319,4013,66,50,830
51186,9660588,10878096,9677186,10889602,3800,3800,134,263,-1102,480,37,4626,66,50,830
52187,9661040,10878272,9677383,10889799,3800,3800,383,481,-1156,890,-637,8046,77,52,832
53188,9661532,10878420,9677580,10889996,3800,3800,638,624,-1238,602,-488,5761,77,52,832
54189,9661960,10878512,9677777,10890193,3800,3800,636,366,-1291,469,-85,3683,84,46,831
55190,9662464,10878596,9677974,10890390,3800,3800,476,5,-1332,684,486,3593,84,46,831
56191,9662924,10878660,9678171,10890587,3800,3800,328,-372,-1359,581,879,3592,84,23,831
57192,9663400,10878716,9678368,10890784,3800,3800,413,-533,-1370,531,786,5974,84,23,831
58193,9663928,10878772,9678565,10890981,3800,3800,704,-395,-1385,665,616,7471,88,19,831
59194,9664472,10878796,9678762,10891178,3800,3800,884,-602,-1401,703,572,3865,88,19,831
60195,9664964,10878836,9678959,10891375,3800,3800,885,-1123,-1402,813,903,2855,82,14,829
61196,9665460,10878892,9679156,10891572,3800,3800,818,-1828,-1411,1019,1282,2615,82,14,829
62184,9666060,10878940,9679353,10891769,3435,3800,814,-2361,-1408,1184,918,2929,115,16,829
63185,9666584,10879016,9679550,10891966,3769,3800,858,-2764,-1408,1201,770,3097,115,16,829
64199,9667076,10879108,9679747,10892163,3800,3800,944,-3082,-1439,1056,1236,3249,113,10,830
65187,9667676,10879204,9679944,10892360,2993,3800,975,-3384,-1445,1039,1516,3710,113,10,830
66188,9668196,10879308,9680141,10892557,3353,3800,944,-3476,-1379,1163,1345,4195,124,19,831
67189,9668668,10879424,9680338,10892754,3534,3800,909,-3543,-1260,901,1324,4079,124,19,831
68190,9669220,10879580,9680535,10892951,2880,3800,899,-3614,-1137,698,1198,4009,115,31,831
69191,9669696,10879748,9680732,10893148,3235,3800,940,-3616,-1043,715,1256,4195,115,31,831
70192,9670152,10879924,9680929,10893345,3248,3800,990,-3598,-1009,669,1673,4288,100,27,835
71193,9670656,10880140,9681126,10893542,2816,3800,1110,-3449,-1030,611,2306,4529,100,27,835
72194,9671164,10880328,9681323,10893739,2656,3800,1168,-3379,-1067,329,2473,4458,99,43,832
73195,9671628,10880596,9681520,10893936,2816,3800,1270,-3357,-1182,258,3014,4093,99,43,832
74196,9672088,10880848,9681717,10894133,2726,3800,1319,-3260,-1311,257,3170,4275,107,43,834
75197,9672564,10881124,9681914,10894330,2505,3800,1343,-3218,-1381,230,3246,3938,107,43,834
76198,9673000,10881432,9682111,10894527,2652,3800,1350,-3340,-1421,235,3535,3504,84,49,836
77199,9673444,10881720,9682308,10894724,2496,3800,1324,-3504,-1445,157,3517,3412,84,49,836
78200,9673876,10882012,9682505,10894921,2470,3800,1326,-3633,-1465,-28,3288,3372,93,58,836
79201,9674248,10882392,9682702,10895118,2769,3800,1288,-3785,-1454,-308,2888,3351,93,58,836
80202,9674656,10882732,9682899,10895315,2453,3800,1250,-3896,-1400,-600,2528,3399,72,59,836
81203,9675068,10883052,9683096,10895512,2334,3800,1199,-4030,-1314,-628,2296,3242,72,59,836
82204,9675516,10883384,9683293,10895709,2001,3800,1158,-4225,-1214,-815,2216,2942,78,79,838
83205,9675916,10883736,9683490,10895906,2213,3800,1091,-4487,-1092,-1005,2337,2884,78,79,838
84206,9676320,10884132,9683687,10896103,2099,3800,989,-4695,-924,-877,1993,3098,85,76,837
85207,9676744,10884520,9683884,10896300,1875,3800,839,-4806,-747,-718,1806,3185,85,76,837
86208,9677208,10884936,9684081,10896497,1510,3800,646,-4857,-602,-661,1572,3299,73,71,839
87209,9677640,10885340,9684278,10896694,1608,3800,149,-4768,-276,-728,265,3842,73,71,839
88197,9678012,10885744,9684475,10896891,1907,3717,-181,-4523,-55,-1158,-269,4344,79,80,840
89198,9678400,10886172,9684672,10897088,1724,3468,-554,-4064,233,-2024,-1055,4950,79,80,840
90199,9678812,10886660,9684869,10897285,1481,2967,-962,-3557,653,-3019,-2085,5329,82,76,841
91200,9679168,10887068,9685066,10897482,1762,3376,-1364,-3133,1214,-3418,-2987,5125,82,76,841
92201,9679540,10887476,9685263,10897679,1586,3285,-1713,-2797,1808,-3628,-3042,5070,70,96,843
93202,9679892,10887876,9685460,10897876,1644,3248,-1966,-2634,2355,-3585,-2989,4369,70,96,843
94203,9680192,10888248,9685657,10898073,1925,3348,-2181,-2765,2821,-3078,-2820,3578,81,82,843
95204,9680472,10888604,9685854,10898270,2015,3380,-2312,-3193,3237,-2502,-2587,2828,81,82,843
96205,9680776,10888912,9686051,10898467,1819,3633,-2395,-3730,3610,-2388,-2713,2552,71,91,844
97206,9681044,10889200,9686248,10898664,2013,3719,-2452,-4343,3981,-2603,-3682,2586,71,91,844
98207,9681268,10889476,9686445,10898861,2278,3762,-2526,-4850,4387,-2485,-4427,3050,64,65,844
99208,9681492,10889772,9686642,10899058,2267,3595,-2562,-5317,4796,-1997,-4415,2856,64,65,844
100209,9681696,10890044,9686839,10899255,2390,3714,-2573,-5804,5143,-1572,-4249,3133,53,49,841
101210,9681864,10890332,9687036,10899452,2628,3576,-2610,-6201,5465,-1370,-4842,3806,53,49,841
102211,9682032,10890596,9687233,10899649,2642,3698,-2614,-6568,5757,-969,-4627,3729,51,59,839
103212,9682216,10890860,9687430,10899846,2549,3670,-2559,-6943,5979,-229,-4111,3704,51,59,839
104226,9682368,10891084,9687627,10900043,2770,3800,-2428,-7305,6159,302,-3745,3999,30,63,838
105227,9682544,10891284,9687824,10900240,2630,3800,-2304,-7451,6360,648,-3877,4997,30,63,838
106228,9682672,10891492,9688021,10900437,2961,3800,-1880,-7078,6562,1842,-3446,8254,41,56,835
107229,9682784,10891724,9688218,10900634,3099,3800,24,-3309,6463,6731,-2711,32767,41,56,835
108229,9682920,10891932,9688415,10900831,2977,3800,1953,-142,6255,4399,-2494,16648,26,37,836
109231,9683024,10892164,9688612,10901028,3219,3800,2457,224,6143,2852,-2250,4446,26,37,836
110232,9683124,10892372,9688809,10901225,3288,3800,2225,-865,6125,3299,-2363,3509,39,37,835
111233,9683256,10892588,9689006,10901422,3117,3800,1935,-1795,6098,3692,-2633,3706,39,37,835
112233,9683408,10892808,9689203,10901619,3013,3800,1823,-2002,6014,3346,-2257,4283,36,52,832
113235,9683500,10893036,9689400,10901816,3435,3800,1763,-2068,5915,3064,-2174,4290,36,52,832
114236,9683592,10893232,9689597,10902013,3483,3800,1670,-2063,5774,3131,-1976,4683,39,44,832
115237,9683656,10893444,9689794,10902210,3718,3800,1644,-2211,5575,3210,-1098,3962,39,44,832
116250,9683704,10893660,9689991,10902407,3800,3800,1654,-2450,5286,3582,-677,3869,19,35,831
117252,9683772,10893884,9690188,10902604,3800,3800,1643,-2568,4997,3758,-948,4163,19,35,831
118247,9683876,10894092,9690418,10902834,3648,3800,1594,-2511,4770,3488,-1155,4660,17,35,830
119241,9683988,10894296,9690615,10903031,3638,3800,1469,-2035,4516,2942,-1245,5494,17,35,830
120229,9684160,10894536,9690812,10903228,3275,3720,1363,-1521,4153,2018,-434,5198,27,48,828
121230,9684340,10894796,9691009,10903425,3233,3569,1328,-1116,3727,1792,-125,4918,27,48,828
122231,9684544,10895068,9691206,10903622,3081,3463,1320,-663,3274,2198,450,4818,19,45,828
123232,9684772,10895300,9691403,10903819,2920,3699,1339,-296,2666,2069,2211,4465,19,45,828
124233,9685036,10895524,9691600,10904016,2666,3738,1475,11,2049,1280,2116,3961,30,48,830
125234,9685248,10895800,9691797,10904213,2985,3381,1737,228,1530,-36,2060,3515,30,48,830
126235,9685452,10896100,9691994,10904410,3033,3186,2041,376,1130,-769,1883,3545,42,57,833
127236,9685676,10896400,9692191,10904607,2899,3143,2332,623,861,-616,1145,3620,42,57,833
128237,9685904,10896624,9692388,10904804,2861,3608,2665,775,665,-381,940,2633,52,60,833
129239,9686148,10896900,9692585,10905001,2741,3250,3018,860,526,-471,392,2298,52,60,833
130239,9686464,10897204,9692782,10905198,2240,3029,3279,981,492,-926,-228,2574,56,46,836
131240,9686720,10897528,9692979,10905395,2591,2850,3424,1212,532,-1605,-658,2950,56,46,836
132241,9686996,10897828,9693176,10905592,2432,2956,3489,1582,643,-1817,-1061,2946,45,57,838
133242,9687324,10898152,9693373,10905789,2051,2752,3492,1773,723,-1514,-596,2229,45,57,838
134243,9687624,10898440,9693570,10905986,2181,2939,3476,1778,713,-1260,-57,1655,71,56,838
135244,9687924,10898768,9693767,10906183,2137,2632,3505,1632,730,-1283,-529,1274,71,56,838
136245,9688204,10899072,9693964,10906380,2227,2736,3568,1439,842,-1164,-627,1058,68,77,842
137247,9688492,10899332,9694161,10906577,2138,2985,3620,1312,1041,-939,-560,1264,68,77,842
138247,9688760,10899592,9694358,10906774,2233,2959,3698,1207,1282,-436,-480,975,54,57,844
139248,9689016,10899892,9694555,10906971,2284,2665,3799,1122,1564,177,-412,947,54,57,844
140249,9689304,10900204,9694752,10907168,2045,2541,3815,1179,1849,10,73,1308,64,56,845
141250,9689556,10900492,9694949,10907365,2246,2652,3734,1245,2075,-300,398,1514,64,56,845
142251,9689828,10900780,9695146,10907562,2090,2614,3629,1364,2163,54,702,1478,62,50,843
143252,9690120,10901084,9695343,10907759,1924,2468,3515,1524,2146,550,1091,1477,62,50,843
144253,9690408,10901452,9695540,10907956,1910,1994,3378,1745,2111,865,1070,1613,46,55,844
145255,9690708,10901788,9695737,10908153,1791,2134,3214,1918,2049,714,1214,1555,46,55,844
146256,9691024,10902076,9695934,10908350,1639,2396,3048,2161,1951,559,1253,1844,64,66,845
147256,9691324,10902340,9696131,10908547,1695,2517,2852,2486,1780,949,1553,1737,64,66,845
148257,9691652,10902676,9696328,10908744,1462,2007,2615,2713,1573,1439,1910,1516,54,53,845
149258,9691984,10902992,9696525,10908941,1379,2081,2330,3010,1348,1592,2285,1876,54,53,845
150259,9692288,10903288,9696722,10909138,1508,2163,2004,3345,1101,1622,2391,1692,64,55,847
151260,9692560,10903568,9696919,10909335,1676,2228,1683,3516,826,1628,2543,1296,64,55,847
152261,9692900,10903824,9697116,10909532,1189,2353,1389,3619,527,1588,2698,1142,54,64,847
153262,9693204,10904160,9697313,10909729,1368,1794,1096,3635,226,1533,2531,819,54,64,847
154263,9693500,10904536,9697510,10909926,1375,1466,763,3636,-52,1461,2149,908,54,51,851
155264,9693824,10904836,9697707,10910123,1145,1897,418,3627,-305,1179,2056,667,54,51,851
156265,9694104,10905116,9697904,10910320,1384,1986,95,3467,-577,1136,1993,189,60,59,849
157266,9694436,10905400,9698101,10910517,1001,1924,-204,3186,-847,1270,1854,-89,60,59,849
158267,9694760,10905736,9698298,10910714,995,1539,-501,2786,-1069,1470,1840,-162,56,70,852
159268,9695060,10906056,9698495,10910911,1101,1586,-822,2535,-1219,1713,1661,88,56,70,852
160269,9695316,10906380,9698692,10911108,1351,1505,-1161,2381,-1311,1471,1783,294,51,55,851
161270,9695644,10906664,9698889,10911305,844,1718,-1458,2215,-1409,1172,2295,245,51,55,851
162271,9695916,10906984,9699086,10911502,1162,1440,-1717,2118,-1536,991,2322,321,59,65,853
163272,9696192,10907280,9699283,10911699,1103,1547,-1950,2093,-1643,800,2024,563,59,65,853
164273,9696480,10907556,9699480,10911896,988,1639,-2181,2111,-1712,574,1587,851,52,62,854
165274,9696812,10907856,9699677,10912093,655,1444,-2401,2190,-1751,198,1073,1002,52,62,854
166275,9697128,10908092,9699874,10912290,702,1828,-2607,2372,-1722,-52,238,1378,65,59,854
167276,9697380,10908364,9700071,10912487,1079,1570,-2808,2660,-1645,-257,-471,1634,65,59,854
168277,9697660,10908636,9700268,10912684,868,1538,-3001,2994,-1562,-410,-808,1805,48,59,854
169278,9697904,10908880,9700465,10912881,1073,1694,-3170,3373,-1483,-492,-875,1884,48,59,854
170279,9698168,10909124,9700662,10913078,918,1674,-3322,3678,-1448,-648,-533,1854,63,55,854
171280,9698480,10909336,9700859,10913275,569,1868,-3456,3962,-1494,-955,-207,1804,63,55,854
172281,9698788,10909576,9701056,10913472,545,1675,-3558,4168,-1579,-1356,-825,1530,66,50,853
173282,9699100,10909836,9701253,10913669,471,1523,-3651,4305,-1640,-1540,-1822,1480,66,50,853
174283,9699332,10910080,9701450,10913866,955,1603,-3760,4416,-1674,-1656,-2332,1503,65,39,853
175284,9699576,10910336,9701647,10914063,860,1502,-3948,4563,-1724,-1900,-2637,1634,65,39,853
176285,9699776,10910596,9701844,10914260,1134,1451,-4179,4633,-1861,-2212,-2706,1466,47,55,854
177286,9700020,10910808,9702041,10914457,839,1745,-4416,4517,-2080,-2305,-2627,1090,47,55,854
178287,9700316,10911052,9702238,10914654,471,1525,-4639,4370,-2303,-2283,-2893,1170,58,57,856
179288,9700536,10911260,9702435,10914851,936,1746,-4865,4307,-2461,-2403,-3175,1442,58,57,856
180289,9700740,10911456,9702632,10915048,1033,1822,-5086,4252,-2573,-2702,-3242,1468,46,46,854
181290,9700956,10911668,9702829,10915245,951,1716,-5325,4259,-2639,-2828,-3739,1982,46,46,854
182291,9701144,10911840,9703026,10915442,1130,1977,-5637,4360,-2580,-2809,-4621,2390,37,35,853
183292,9701412,10911984,9703223,10915639,598,2177,-5922,4307,-2535,-3015,-4373,1824,37,35,853
184293,9701620,10912124,9703420,10915836,970,2228,-6060,3866,-2678,-3256,-3565,941,52,34,853
185294,9701820,10912248,9703617,10916033,1018,2360,-6109,3172,-2901,-3242,-3589,691,52,34,853
186295,9702088,10912356,9703814,10916230,562,2500,-6161,2514,-3045,-3223,-3812,985,37,27,853
187296,9702284,10912532,9704011,10916427,1013,2085,-6292,1946,-2983,-3336,-4372,1516,37,27,853
188297,9702508,10912680,9704208,10916624,827,2283,-6409,1393,-2825,-3549,-3921,1622,45,36,852
189298,9702708,10912816,9704405,10916821,975,2385,-6459,805,-2678,-3511,-3741,1855,45,36,852
190299,9702904,10912940,9704602,10917018,1002,2493,-6499,268,-2506,-3246,-4112,2226,34,23,849
191300,9703164,10913072,9704799,10917215,574,2472,-6555,-254,-2342,-3192,-3765,2516,34,23,849
192301,9703400,10913204,9704996,10917412,707,2502,-6610,-773,-2198,-3191,-3347,2771,34,21,850
193302,9703652,10913324,9705193,10917609,584,2611,-6676,-1260,-2022,-2907,-3461,3268,34,21,850
194304,9703884,10913452,9705390,10917806,693,2592,-6708,-1744,-1790,-2707,-3430,3281,39,34,849
195304,9704116,10913564,9705587,10918003,678,2730,-6694,-2366,-1539,-2750,-2938,3222,39,34,849
196306,9704408,10913676,9705784,10918200,262,2769,-6712,-2974,-1282,-2631,-2434,3643,52,33,850
197306,9704668,10913840,9705981,10918397,435,2459,-6751,-3543,-1009,-2418,-2542,3919,52,33,850
198307,9704876,10913972,9706178,10918594,755,2689,-6765,-4109,-702,-2086,-3060,3987,58,19,849
199308,9705132,10914116,9706375,10918791,429,2638,-5984,-5032,-393,-1872,-2912,8006,58,19,849
200309,9705440,10914220,9706572,10918988,56,2929,-1293,-6653,-254,1606,-2785,32767,57,36,848
201317,9705656,10914352,9706802,10919218,637,2798,2221,-5825,63,1678,-6985,32767,57,36,848
202311,9705908,10914468,9706999,10919415,388,2934,2070,-4751,654,-1993,-4772,7488,39,18,851
203312,9706140,10914568,9707196,10919612,498,3078,650,-4261,986,-1613,-1638,5885,39,18,851
204313,9706352,10914684,9707393,10919809,616,3015,-98,-4908,1138,-1723,-1275,3314,45,25,849
205314,9706592,10914808,9707590,10920006,423,2998,-503,-5566,1231,-1334,-1892,4788,45,25,849
206315,9706876,10914920,9707787,10920203,110,3111,-908,-5592,1387,-911,-1737,5094,57,17,848
207316,9707128,10915016,9707984,10920400,286,3257,-1199,-6102,1542,-650,-214,3166,57,17,848
208317,9707392,10915164,9708181,10920597,181,2954,-1377,-6543,1652,224,-676,3910,47,25,847
209318,9707632,10915288,9708378,10920794,312,3137,-1380,-7323,1769,254,-195,2356,47,25,847
210319,9707800,10915412,9708575,10920991,775,3170,-1204,-8231,1833,627,-182,2657,40,36,847
211320,9708004,10915528,9708772,10921188,548,3257,-1005,-8820,1857,1142,-1293,3222,40,36,847
212321,9708224,10915616,9708969,10921385,438,3481,-834,-9267,1912,1742,-1642,3656,33,27,847
213322,9708400,10915708,9709166,10921582,722,3503,-827,-9168,1896,2621,-1860,4693,33,27,847
214323,9708596,10915812,9709363,10921779,598,3471,-764,-9485,1748,2789,-1535,2753,38,25,846
215324,9708780,10915892,9709560,10921976,678,3673,-696,-9712,1482,3526,-1373,3896,38,25,846
216325,9708980,10915972,9709757,10922173,577,3726,-775,-9552,1217,4314,-1736,4491,45,25,844
217326,9709136,10916064,9709954,10922370,870,3698,-794,-9537,1007,4618,-1888,3525,45,25,844
218327,9709288,10916152,9710151,10922567,916,3772,-793,-9318,845,4685,-2198,4773,26,23,843
219328,9709416,10916256,9710348,10922764,1096,3713,-776,-8985,727,4242,-2477,4849,26,23,843
220329,9709576,10916380,9710545,10922961,912,3623,-817,-8390,636,4058,-3120,5716,39,16,842
221330,9709760,10916496,9710742,10923158,768,3709,-1030,-7347,513,3619,-3348,7056,39,16,842
222331,9709952,10916624,9710939,10923355,720,3665,-1111,-6461,385,3827,-2755,6137,30,16,841
223345,9710108,10916720,9711136,10923552,963,3800,-160,-4007,-10,9521,-2440,21760,30,16,841
224333,9710348,10916848,9711333,10923749,420,3743,1144,-1338,-424,8361,-3148,17447,28,16,841
225334,9710528,10916980,9711530,10923946,803,3748,1584,-309,-500,4075,-2297,4467,28,16,841
226348,9710652,10917104,9711727,10924143,1185,3800,1424,-490,-387,4033,-1666,3452,29,24,841
227349,9710824,10917236,9711924,10924340,896,3800,1175,-1005,-189,3928,-2128,3014,29,24,841
228350,9711008,10917348,9712121,10924537,827,3800,1121,-1136,15,3879,-2192,2966,27,33,841
229338,9711192,10917504,9712318,10924734,833,3720,1240,-1362,182,3827,-1236,1885,27,33,841
230339,9711372,10917668,9712515,10924931,866,3685,1403,-1624,232,3893,-471,2003,44,37,842
231340,9711544,10917856,9712712,10925128,927,3540,1550,-1771,257,3442,-465,2355,44,37,842
232341,9711708,10918068,9712909,10925325,991,3386,1695,-1905,364,3079,-520,2373,47,26,841
233342,9711884,10918276,9713106,10925522,927,3407,1883,-1948,473,2979,-328,2446,47,26,841
234343,9712048,10918464,9713303,10925719,1016,3537,2096,-1969,581,2620,-112,2729,26,46,842
235344,9712188,10918652,9713500,10925916,1191,3543,2278,-1714,671,2333,-235,3493,26,46,842
236345,9712364,10918848,9713697,10926113,975,3494,2414,-1217,687,1749,-215,3831,42,38,842
237346,9712552,10919044,9713894,10926310,905,3497,2529,-595,683,1092,-570,4316,42,38,842
238347,9712716,10919284,9714091,10926507,1070,3204,2578,281,668,804,-842,4982,29,45,843
239348,9712868,10919540,9714288,10926704,1165,3079,2551,1244,647,608,-841,5122,29,45,843
240349,9713012,10919784,9714485,10926901,1238,3135,2456,2328,638,514,-1012,5625,26,49,843
241350,9713136,10920068,9714682,10927098,1396,2848,2326,3360,638,470,-1057,5283,26,49,843
242351,9713276,10920328,9714879,10927295,1321,2971,2178,4271,659,590,-1057,4754,29,56,844
243352,9713428,10920552,9715076,10927492,1266,3186,2019,4961,690,783,-733,3926,29,56,844
244353,9713564,10920812,9715273,10927689,1394,2935,1895,5230,738,1145,-423,2923,42,56,844
245354,9713704,10921084,9715470,10927886,1394,2828,1776,5288,811,1672,-166,2455,42,56,844
246355,9713824,10921384,9715667,10928083,1552,2609,1643,5205,891,2002,235,1971,22,43,846
247356,9713968,10921652,9715864,10928280,1427,2779,1489,4954,922,2306,515,1395,22,43,846
248357,9714104,10921944,9716061,10928477,1504,2588,1339,4505,901,2586,682,858,35,49,843
249358,9714232,10922260,9716258,10928674,1584,2387,1208,3894,878,2838,787,460,35,49,843
250359,9714320,10922528,9716455,10928871,1883,2658,1019,3312,875,3071,646,642,27,49,846
251360,9714440,10922820,9716652,10929068,1717,2467,776,2764,901,3076,211,822,27,49,846
252361,9714552,10923156,9716849,10929265,1804,2132,514,2248,935,2944,-110,928,36,59,847
253362,9714648,10923452,9717046,10929462,1949,2340,257,1776,933,2842,-58,974,36,59,847
254363,9714760,10923764,9717243,10929659,1887,2190,-19,1386,911,2618,-130,1449,35,73,847
255364,9714864,10924040,9717440,10929856,1979,2382,-340,1207,871,2420,-128,2211,35,73,847
256365,9714956,10924312,9717637,10930053,2100,2375,-660,1101,795,2142,-67,2408,15,70,847
257366,9715076,10924596,9717834,10930250,1960,2263,-949,1069,647,1833,325,2658,15,70,847
258367,9715168,10924832,9718031,10930447,2181,2547,-1201,1114,428,1511,847,3094,20,49,846
259368,9715268,10925096,9718228,10930644,2174,2344,-1412,1217,207,1242,732,3326,20,49,846
260370,9715352,10925328,9718425,10930841,2324,2529,-1592,1341,31,1002,253,3458,36,58,845
261371,9715516,10925548,9718622,10931038,1839,2595,-1767,1485,-72,641,-73,3514,36,58,845
262372,9715672,10925776,9718819,10931235,1908,2532,-1921,1535,-124,347,-74,3311,33,55,847
263372,9715820,10925996,9719016,10931432,1980,2573,-2037,1490,-145,178,-99,3088,33,55,847
264373,9715996,10926200,9719213,10931629,1815,2671,-2091,1308,-122,26,-245,2764,23,47,845
265375,9716136,10926416,9719410,10931826,2065,2589,-2069,1064,-9,-9,-1187,2708,23,47,845
266375,9716300,10926628,9719607,10932023,1931,2608,-1969,735,196,-99,-2045,2421,45,50,845
267376,9716452,10926848,9719804,10932220,2027,2549,-1813,357,436,-441,-1404,2359,45,50,845
268378,9716580,10927112,9720001,10932417,2207,2246,-1628,-35,660,-794,-496,2264,47,34,845
269379,9716712,10927320,9720198,10932614,2211,2592,-1468,-433,866,-976,-411,2411,47,34,845
270379,9716852,10927540,9720395,10932811,2187,2508,-1322,-734,1088,-1110,-410,2845,32,50,844
271380,9716980,10927804,9720592,10933008,2293,2204,-1169,-875,1326,-1318,-339,3287,32,50,844
272381,9717104,10928064,9720789,10933205,2351,2203,-1011,-858,1552,-1584,-219,3691,28,59,845
273383,9717220,10928316,9720986,10933402,2437,2230,-878,-757,1747,-1880,29,4039,28,59,845
274384,9717348,10928536,9721183,10933599,2393,2420,-759,-584,1913,-2105,300,4254,24,44,844
275384,9717464,10928780,9721380,10933796,2504,2251,-643,-377,2044,-2283,521,4578,24,44,844
276386,9717580,10929056,9721577,10933993,2541,2017,-523,-107,2120,-2407,902,4710,36,49,845
277387,9717720,10929332,9721774,10934190,2417,1983,-45,522,2127,-1785,1225,8397,36,49,845
278388,9717848,10929620,9721971,10934387,2522,1869,1512,3326,1963,908,782,27538,26,56,844
279388,9717996,10929988,9722168,10934584,2420,1295,2881,5138,1783,-1133,398,10002,26,56,844
280389,9718176,10930164,9722365,10934781,2228,2505,3169,4878,1634,-2394,1291,2083,22,58,843
281391,9718328,10930308,9722562,10934978,2424,2730,2939,3656,1535,-2210,1089,1362,22,58,843
282392,9718488,10930476,9722759,10935175,2391,2592,2649,2716,1539,-1676,586,2153,29,46,845
283393,9718656,10930656,9722956,10935372,2354,2526,2425,2347,1654,-1524,576,2735,29,46,845
284403,9718812,10930920,9723186,10935602,2463,1987,2263,1993,1748,-1456,790,1964,28,38,847
285395,9718972,10931208,9723383,10935799,2455,1798,2163,1421,1724,-1420,843,1244,28,38,847
286395,9719148,10931520,9723580,10935996,2365,1598,2070,534,1650,-1441,976,700,31,47,842
287396,9719308,10931756,9723777,10936193,2482,2057,1913,-319,1614,-1015,182,1345,31,47,842
288397,9719480,10932116,9723974,10936390,2419,1212,1724,-887,1667,-896,-526,2011,49,48,843
289398,9719676,10932468,9724171,10936587,2270,1195,1586,-1286,1722,-1117,-22,2358,49,48,843
290399,9719844,10932752,9724368,10936784,2459,1581,1416,-1463,1641,-1136,791,3031,49,66,846
291400,9720012,10933024,9724565,10936981,2472,1624,1221,-1550,1497,-1098,940,3508,49,66,846
292401,9720208,10933332,9724762,10937178,2299,1352,1037,-1400,1327,-1053,1422,4233,52,63,844
293403,9720404,10933652,9724959,10937375,2300,1224,896,-1164,1125,-981,1348,4182,52,63,844
294403,9720592,10933932,9725156,10937572,2355,1437,744,-872,902,-869,1224,4597,51,58,850
295404,9720804,10934284,9725353,10937769,2200,920,560,-498,650,-650,1162,4856,51,58,850
296405,9721000,10934628,9725550,10937966,2301,906,381,-247,322,-568,1401,4430,45,59,847
297407,9721184,10934976,9725747,10938163,2382,815,192,109,-52,-521,1811,4839,45,59,847
298407,9721376,10935292,9725944,10938360,2335,964,5,438,-402,-364,2443,4790,39,74,849
299408,9721544,10935580,9726141,10938557,2499,1099,-187,712,-720,-160,2857,4586,39,74,849
300409,9721728,10935972,9726338,10938754,2405,364,-371,991,-969,-2,2933,4490,34,56,851
301411,9721896,10936328,9726535,10938951,2519,520,-533,1093,-1153,212,2863,4014,34,56,851
302411,9722096,10936640,9726732,10939148,2319,745,-680,1118,-1290,368,2122,4100,32,68,850
303412,9722280,10936912,9726929,10939345,2426,963,-785,1148,-1378,439,1315,3807,32,68,850
304413,9722456,10937280,9727126,10939542,2486,288,-833,1067,-1461,592,1112,3478,51,58,848
305415,9722632,10937624,9727323,10939739,2495,373,-858,1020,-1523,791,760,3586,51,58,848
306415,9722824,10937908,9727520,10939936,2398,711,-875,943,-1538,782,476,3612,32,70,850
307416,9722980,10938184,9727717,10940133,2642,726,-903,911,-1550,801,662,3834,32,70,850
308417,9723152,10938420,9727914,10940330,2554,960,-963,969,-1614,582,1817,4153,36,74,850
309418,9723316,10938736,9728111,10940527,2620,408,-1075,1196,-1740,330,3153,4587,36,74,850
310419,9723480,10938980,9728308,10940724,2635,837,-1258,1584,-1904,203,3157,5182,45,63,851
311420,9723688,10939244,9728505,10940921,2356,683,-1489,2159,-2005,-38,2418,5736,45,63,851
312421,9723860,10939476,9728702,10941118,2593,868,-1698,2805,-2057,-364,2377,5955,37,44,849
313423,9724032,10939688,9728899,10941315,2605,986,-1892,3394,-2112,-494,2377,5837,37,44,849
314423,9724212,10939872,9729096,10941512,2564,1168,-2035,3944,-2174,-663,2465,6297,51,46,849
315424,9724404,10940068,9729293,10941709,2492,1094,-2047,4683,-2193,-1000,2122,7928,51,46,849
316425,9724548,10940260,9729490,10941906,2815,1121,-1980,5272,-2188,-1324,1542,6869,49,53,851
317427,9724728,10940412,9729687,10942103,2599,1392,-1924,5545,-2158,-1608,757,5687,49,53,851
318427,9724876,10940540,9729884,10942300,2821,1572,-1782,5711,-2046,-1940,-779,6534,27,31,847
319428,9725048,10940652,9730081,10942497,2683,1709,-1531,5773,-1852,-2256,-1814,6394,27,31,847
320429,9725228,10940724,9730278,10942694,2642,2015,-1312,5652,-1654,-2571,-2040,4888,23,28,848
321430,9725408,10940788,9730475,10942891,2650,2124,-1165,5286,-1530,-2822,-1413,4292,23,28,848
322431,9725560,10940872,9730672,10943088,2846,2048,-1030,4735,-1522,-2890,-372,4425,28,27,847
323432,9725744,10940960,9730869,10943285,2653,2072,-793,4270,-1548,-3147,-32,6154,28,27,847
324433,9725912,10941028,9731066,10943482,2766,2254,-310,4062,-1472,-3650,-775,9366,24,10,844
325435,9726080,10941124,9731263,10943679,2780,2124,374,3896,-1260,-3803,-1961,10667,24,10,844
326436,9726248,10941216,9731460,10943876,2794,2195,849,3512,-991,-3295,-2714,7291,45,12,842
327437,9726412,10941312,9731657,10944073,2834,2216,861,2798,-793,-2644,-2327,3374,45,12,842
328437,9726544,10941396,9731854,10944270,3064,2340,612,1851,-729,-2307,-1795,1877,44,13,843
329439,9726704,10941476,9732051,10944467,2906,2418,365,706,-733,-2090,-1411,1285,44,13,843
330439,9726892,10941584,9732248,10944664,2736,2282,178,-368,-744,-1765,-947,1462,26,31,842
331440,9727064,10941688,9732445,10944861,2848,2349,-44,-1280,-771,-1664,-255,1941,26,31,842
332441,9727228,10941816,9732642,10945058,2914,2229,-312,-1937,-752,-1639,-396,2669,22,12,842
333442,9727416,10941948,9732839,10945255,2769,2234,-596,-2375,-644,-1480,-1178,3426,22,12,842
334443,9727580,10942072,9733036,10945452,2934,2317,-859,-2619,-434,-1183,-1882,3978,36,32,841
335444,9727744,10942192,9733233,10945649,2950,2376,-1089,-2734,-167,-1084,-2029,4329,36,32,841
336445,9727952,10942312,9733430,10945846,2671,2411,-1275,-2911,58,-937,-1772,4193,40,27,840
337446,9728128,10942452,9733627,10946043,2881,2312,-1400,-3117,183,-591,-1415,4283,40,27,840
338447,9728296,10942588,9733824,10946240,2945,2363,-1473,-3259,248,-265,-1171,4467,41,25,842
339448,9728476,10942708,9734021,10946437,2878,2498,-1502,-3422,293,-10,-1034,4289,41,25,842
340449,9728640,10942856,9734218,10946634,2995,2346,-1511,-3565,328,52,-788,4432,37,37,841
341450,9728804,10942980,9734415,10946831,3010,2528,-1521,-3647,374,142,-632,4564,37,37,841
342451,9728976,10943124,9734612,10947028,2972,2427,-1523,-3753,424,335,-1074,4425,40,28,841
343452,9729124,10943280,9734809,10947225,3145,2371,-1455,-3907,469,349,-1560,4182,40,28,841
344453,9729292,10943412,9735006,10947422,3034,2551,-1326,-4153,485,331,-1577,3916,33,22,840
345454,9729500,10943520,9735203,10947619,2780,2740,-1164,-4440,459,587,-1509,3656,33,22,840
346455,9729644,10943640,9735400,10947816,3204,2700,-980,-4760,400,717,-1417,3445,30,37,837
347456,9729816,10943772,9735597,10948013,3041,2654,-785,-4964,342,635,-1714,3635,30,37,837
348457,9730012,10943900,9735794,10948210,2892,2711,-568,-5219,302,678,-2166,3429,40,37,838
349458,9730208,10944040,9735991,10948407,2894,2662,-299,-5491,260,651,-2576,3472,40,37,838
350459,9730408,10944156,9736188,10948604,2869,2848,9,-5653,211,588,-2638,3506,31,40,840
351460,9730628,10944244,9736385,10948801,2735,3071,297,-5779,143,525,-2333,3466,31,40,840
352461,9730804,10944340,9736582,10948998,3021,3066,541,-5775,78,498,-1986,3957,34,26,838
353462,9730988,10944440,9736779,10949195,2977,3085,726,-5598,38,564,-1692,4331,34,26,838
354463,9731204,10944524,9736976,10949392,2770,3236,885,-5313,-14,586,-1359,4426,33,30,839
355464,9731404,10944624,9737173,10949589,2870,3179,1047,-4952,-75,546,-1469,4511,33,30,839
356465,9731576,10944700,9737370,10949786,3057,3384,1213,-4603,-130,608,-1474,4549,50,22,838
357466,9731820,10944792,9737567,10949983,2587,3331,1381,-4190,-171,695,-1490,4657,50,22,838
358467,9732084,10944876,9737764,10950180,2434,3431,1523,-3708,-221,564,-1825,4715,34,13,835
359468,9732344,10944984,9737961,10950377,2432,3321,1690,-3199,-282,426,-1829,4649,34,13,835
360469,9732592,10945092,9738158,10950574,2485,3362,1831,-2782,-343,454,-1726,4378,55,29,836
361471,9732908,10945208,9738355,10950771,2009,3348,1902,-2329,-379,713,-1471,4482,55,29,836
362471,9733184,10945316,9738552,10950968,2225,3438,1941,-1910,-392,893,-1588,4175,42,29,837
363473,9733456,10945444,9738749,10951165,2219,3345,1986,-1625,-424,764,-1508,3510,42,29,837
364473,9733744,10945572,9738946,10951362,2080,3376,2004,-1435,-456,739,-1515,3344,66,20,838
365474,9734016,10945724,9739143,10951559,2148,3247,1994,-1323,-458,818,-1401,2992,66,20,838
366475,9734268,10945852,9739340,10951756,2249,3428,1966,-1283,-450,752,-1301,2583,65,38,840
367483,9734584,10945980,9739570,10951986,1813,3474,1937,-1371,-460,551,-1445,2109,65,38,840
368477,9734876,10946096,9739767,10952183,1922,3586,1920,-1557,-471,459,-1600,1900,50,31,838
369478,9735140,10946232,9739964,10952380,2068,3489,1890,-1738,-475,457,-1427,1962,50,31,838
370479,9735420,10946368,9740161,10952577,1933,3517,1849,-1849,-487,305,-1075,1827,49,38,838
371480,9735712,10946532,9740358,10952774,1817,3358,1776,-2055,-522,191,-1361,1616,49,38,838
372481,9736028,10946684,9740555,10952971,1616,3453,1693,-2215,-550,217,-2019,1912,65,32,839
373482,9736344,10946852,9740752,10953168,1565,3368,1587,-2282,-564,88,-1638,1935,65,32,839
374484,9736632,10947044,9740949,10953365,1701,3221,1439,-2356,-615,92,-699,1822,51,28,839
375484,9736920,10947212,9741146,10953562,1662,3385,1227,-2400,-673,161,-298,1950,51,28,839
376485,9737240,10947396,9741343,10953759,1408,3292,997,-2387,-682,157,-351,2006,57,36,841
377486,9737500,10947612,9741540,10953956,1756,3084,784,-2445,-654,302,-461,1929,57,36,841
378487,9737772,10947808,9741737,10954153,1649,3212,612,-2526,-608,383,-366,1821,61,46,841
379488,9738052,10948024,9741934,10954350,1563,3079,458,-2624,-521,551,-274,1931,61,46,841
380489,9738300,10948224,9742131,10954547,1741,3179,282,-2649,-392,829,-205,2017,50,38,841
381490,9738548,10948424,9742328,10954744,1720,3179,124,-2705,-252,958,36,1953,50,38,841
382491,9738752,10948620,9742525,10954941,1993,3205,-10,-2770,-116,1295,319,2034,62,48,842
383492,9739000,10948800,9742722,10955138,1696,3315,-125,-2835,11,1588,373,2077,62,48,842
384493,9739212,10948988,9742919,10955335,1915,3270,-268,-2888,170,1839,317,2309,62,45,843
385494,9739432,10949220,9743116,10955532,1855,2980,-416,-2859,336,2048,525,2501,62,45,843
386495,9739664,10949440,9743313,10955729,1766,3046,-584,-2862,476,2121,752,2556,37,45,842
387496,9739864,10949668,9743510,10955926,1965,2984,-757,-2758,588,2262,884,2937,37,45,842
388497,9740044,10949908,9743707,10956123,2098,2892,-943,-2594,697,2436,1111,3142,35,51,841
389498,9740272,10950128,9743904,10956320,1786,3008,-1135,-2368,776,2535,1484,3361,35,51,841
390499,9740464,10950372,9744101,10956517,2013,2838,-1317,-2141,819,2591,1818,3562,54,44,842
391500,9740664,10950596,9744298,10956714,1962,2952,-1499,-1913,819,2559,2085,3605,54,44,842
392501,9740880,10950844,9744495,10956911,1855,2781,-1687,-1645,784,2526,2339,3853,33,51,842
393503,9741088,10951068,9744692,10957108,1901,2920,-1882,-1410,712,2441,2748,3805,33,51,842
394503,9741264,10951284,9744889,10957305,2111,2963,-2073,-1224,587,2334,3117,3774,34,55,843
395505,9741484,10951508,9745086,10957502,1826,2903,-2262,-1065,421,2195,3261,3791,34,55,843
396505,9741656,10951740,9745283,10957699,2138,2838,-2463,-948,242,1946,3373,3686,34,53,843
397506,9741848,10951968,9745480,10957896,2016,2851,-2668,-884,71,1639,3355,3657,34,53,843
398507,9742044,10952188,9745677,10958093,1992,2891,-2855,-922,-93,1266,3351,3450,36,53,842
399508,9742232,10952388,9745874,10958290,2047,3016,-3036,-1027,-259,1127,3526,3429,36,53,842
400509,9742456,10952588,9746071,10958487,1810,3016,-3229,-1135,-377,1108,3363,3510,27,46,843
401510,9742684,10952808,9746268,10958684,1773,2883,-3425,-1299,-421,865,3050,3512,27,46,843
402511,9742872,10953004,9746465,10958881,2027,3034,-3586,-1456,-430,379,2721,3628,43,38,842
403512,9743076,10953256,9746662,10959078,1924,2661,-3726,-1659,-403,-165,2114,3789,43,38,842
404513,9743268,10953484,9746859,10959275,2003,2798,-3593,-1616,-283,-714,1206,6384,49,40,841
405514,9743484,10953684,9747056,10959472,1845,2973,-1450,2026,326,-3180,-2063,32767,49,40,841
406515,9743696,10953892,9747253,10959669,1864,2919,1486,6434,1029,-2885,-1045,31731,41,37,844
407517,9743904,10954076,9747450,10959866,1885,3076,2524,6947,1270,-965,1501,2179,48,36,844
408517,9744128,10954316,9747647,10960063,1774,2708,2115,4735,1246,-751,1612,-368,48,36,844
409519,9744332,10954512,9747844,10960260,1896,2984,1506,2129,1216,-224,963,-653,42,40,843
410519,9744532,10954716,9748041,10960457,1921,2932,1054,551,1421,-251,213,1022,42,40,843
411521,9744756,10954924,9748238,10960654,1760,2905,703,-470,1822,-405,-241,1322,49,35,841
412521,9744960,10955116,9748435,10960851,1882,3008,306,-1433,2137,-324,181,1395,49,35,841
413523,9745172,10955324,9748632,10961048,1826,2904,-59,-2555,2321,-1040,699,1359,48,40,842
414523,9745388,10955536,9748829,10961245,1794,2873,-372,-3754,2413,-1208,598,1423,48,40,842
415524,9745580,10955716,9749026,10961442,1946,3082,-659,-4870,2402,-1158,580,1821,51,37,844
416525,9745760,10955904,9749223,10961639,2029,3037,-935,-5717,2433,-1553,575,2945,51,37,844
417527,9745952,10956100,9749420,10961836,1958,2988,-1280,-6069,2489,-1443,392,4427,30,36,843
418527,9746140,10956264,9749617,10962033,1986,3204,-1625,-6186,2607,-1264,636,5540,30,36,843
419528,9746304,10956432,9749814,10962230,2152,3192,-1968,-5934,2794,-949,688,7151,47,27,842
420529,9746512,10956592,9750011,10962427,1873,3260,-2208,-5451,3003,-932,804,8098,47,27,842
421530,9746684,10956728,9750208,10962624,2109,3439,-1810,-4157,3112,-44,942,16715,46,24,842
422531,9746828,10956892,9750405,10962821,2308,3279,-943,-2299,3110,-131,1067,18422,46,24,842
423532,9747004,10957052,9750602,10963018,2119,3321,-520,-1641,3176,-1695,673,7267,34,24,838
424533,9747160,10957240,9750799,10963215,2262,3151,-576,-1849,3355,-1878,211,5902,34,24,838
425534,9747288,10957432,9750996,10963412,2468,3129,-722,-2341,3594,-1574,-677,4957,37,40,839
426535,9747416,10957620,9751193,10963609,2499,3159,-729,-2820,3888,-1131,-1142,4406,37,40,839
427536,9747540,10957816,9751390,10963806,2557,3111,-621,-3259,4194,-509,-1129,4291,22,41,839
428537,9747672,10958012,9751587,10964003,2536,3112,-466,-3755,4445,-31,-1126,3742,22,41,839
429538,9747844,10958200,9751784,10964200,2298,3168,-248,-4382,4635,-2,-1123,3298,25,48,838
430539,9747968,10958436,9751981,10964397,2631,2852,20,-5098,4757,30,-1213,3067,25,48,838
431540,9748120,10958656,9752178,10964594,2477,2943,292,-5750,4862,106,-1718,3389,23,49,838
432541,9748248,10958872,9752375,10964791,2657,2961,539,-6127,5016,112,-2381,3994,23,49,838
433542,9748352,10959108,9752572,10964988,2849,2819,791,-6392,5125,290,-2261,3848,24,36,839
434543,9748476,10959352,9752769,10965185,2757,2750,1080,-6778,5100,683,-1710,3626,24,36,839
435544,9748592,10959616,9752966,10965382,2844,2596,1349,-6968,5009,1043,-1577,4330,42,38,838
436545,9748708,10959832,9753163,10965579,2880,2889,1566,-6926,4881,1287,-1365,4717,42,38,838
437546,9748844,10960112,9753360,10965776,2782,2455,1745,-6694,4710,1399,-1154,5022,23,58,839
438547,9748976,10960424,9753557,10965973,2837,2205,1927,-6266,4504,1459,-893,5457,23,58,839
439548,9749100,10960716,9753754,10966170,2920,2289,2102,-5704,4278,1421,-1121,5764,28,50,840
440549,9749224,10960952,9753951,10966367,2953,2623,2252,-5069,4056,1533,-880,5820,28,50,840
441551,9749312,10961292,9754148,10966564,3227,1911,2409,-4498,3855,1825,-365,5496,34,54,841
442551,9749408,10961616,9754345,10966761,3222,1956,2582,-4022,3684,2477,18,5222,34,54,841
443552,9749484,10961916,9754542,10966958,3401,2062,2751,-3562,3534,3043,358,4772,36,53,841
444553,9749556,10962176,9754739,10967155,3482,2286,2925,-3202,3370,3275,433,4271,36,53,841
445554,9749644,10962460,9754936,10967352,3431,2098,3079,-2906,3197,3416,337,3982,31,64,839
446555,9749744,10962788,9755133,10967549,3400,1767,3201,-2621,3019,3474,172,3796,31,64,839
447556,9749852,10963076,9755330,10967746,3390,1978,3284,-2301,2865,3644,-470,3656,27,47,838
448557,9749968,10963340,9755527,10967943,3376,2098,3307,-1975,2728,3658,-1010,3559,27,47,838
449558,9750120,10963588,9755724,10968140,3172,2177,3266,-1579,2617,3273,-1831,3665,21,53,838
450566,9750272,10963812,9755954,10968370,3207,2331,3171,-1088,2548,2911,-2499,3787,21,53,838
451560,9750428,10964128,9756151,10968567,3201,1704,3079,-525,2539,2493,-3096,3792,21,63,839
452561,9750576,10964416,9756348,10968764,3274,1840,3011,22,2606,2113,-3431,3833,21,63,839
453562,9750688,10964672,9756545,10968961,3537,2015,2946,491,2672,2147,-3087,3343,28,47,840
454563,9750816,10964928,9756742,10969158,3469,1990,2889,845,2684,2308,-2334,2799,28,47,840
455564,9750928,10965144,9756939,10969355,3607,2232,2879,976,2651,2578,-1803,2008,22,47,840
456565,9751064,10965452,9757136,10969552,3486,1609,2866,1030,2585,2830,-1443,1700,22,47,840
457567,9751200,10965792,9757333,10969749,3514,1347,2813,1094,2513,2632,-1261,1648,19,59,838
458567,9751336,10966076,9757530,10969946,3541,1660,2758,1147,2424,2145,-1151,1360,19,59,838
459568,9751568,10966344,9757727,10970143,2927,1729,2730,1176,2328,1642,-1096,1234,27,68,837
460569,9751836,10966644,9757924,10970340,2672,1485,2684,1304,2205,1196,-1017,1602,27,68,837
461571,9752096,10966972,9758121,10970537,2695,1253,2570,1827,2049,409,-892,2432,47,64,840
462571,9752340,10967356,9758318,10970734,2777,821,2443,2413,1840,-386,-436,2117,47,64,840
463572,9752656,10967684,9758515,10970931,2275,1114,2373,2790,1563,4,509,1469,66,66,844
464573,9752960,10967964,9758712,10971128,2304,1379,2323,3124,1219,400,1269,1508,66,66,844
465574,9753280,10968328,9758909,10971325,2151,781,2284,3435,884,420,1422,1425,72,79,847
466575,9753608,10968668,9759106,10971522,2045,869,2258,3764,557,-30,1489,1202,72,79,847
467576,9753880,10968980,9759303,10971719,2363,993,2261,3992,350,-569,1331,1032,57,63,849
468577,9754172,10969300,9759500,10971916,2197,890,2272,4312,265,-405,525,1325,57,63,849
469578,9754460,10969604,9759697,10972113,2183,943,2282,4624,276,221,148,1084,52,59,851
470579,9754760,10969956,9759894,10972310,2064,576,2268,4744,301,806,1179,517,52,59,851
471580,9755076,10970272,9760091,10972507,1912,749,2212,4754,288,1075,1643,196,62,72,850
472581,9755352,10970564,9760288,10972704,2129,858,2160,4692,270,641,1493,91,62,72,850
473583,9755692,10970836,9760485,10972901,1667,950,2122,4588,310,758,1200,-23,74,56,851
474583,9756028,10971164,9760682,10973098,1632,543,2065,4402,360,1224,1542,-338,74,56,851
475584,9756336,10971464,9760879,10973295,1759,673,1962,4335,437,1623,1721,117,73,69,852
476585,9756676,10971760,9761076,10973492,1497,655,1826,4405,546,1554,1673,469,73,69,852
477586,9757016,10972020,9761273,10973689,1434,853,1742,4406,648,1294,1743,350,56,51,852
478587,9757316,10972280,9761470,10973886,1640,825,1638,4557,698,1463,2139,883,56,51,852
479588,9757616,10972564,9761667,10974083,1596,637,1444,4843,694,1652,2476,1223,68,59,853
480589,9757876,10972828,9761864,10974280,1819,734,1159,5230,656,1478,2556,1574,68,59,853
481590,9758144,10973096,9762061,10974477,1739,677,860,5688,554,1157,3031,1720,48,57,854
482591,9758472,10973288,9762258,10974674,1306,1155,545,6214,355,1014,3504,1881,48,57,854
483592,9758736,10973468,9762455,10974871,1678,1237,194,6772,51,899,3828,1919,65,57,854
484593,9759032,10973692,9762652,10975068,1435,951,-206,7238,-306,656,3628,1865,65,57,854
485594,9759340,10973900,9762849,10975265,1312,1046,-660,7708,-670,480,3314,2023,67,38,853
486595,9759592,10974092,9763046,10975462,1638,1149,-1130,8050,-1043,401,3049,1589,67,38,853
487596,9759908,10974272,9763243,10975659,1187,1231,-1589,8295,-1454,417,2979,1198,66,51,852
488597,9760244,10974476,9763440,10975856,1001,1079,-2032,8428,-1911,171,3138,857,66,51,852
489599,9760532,10974652,9763637,10976053,1262,1263,-2498,8419,-2380,-95,2867,514,50,44,853
490599,9760784,10974804,9763834,10976250,1464,1433,-2996,8341,-2814,-257,2381,457,50,44,853
491600,9761056,10974968,9764031,10976447,1306,1373,-3519,8201,-3256,-618,2321,93,68,38,854
492601,9761352,10975136,9764228,10976644,1113,1361,-4035,7881,-3782,-1097,2040,-383,68,38,854
493602,9761628,10975328,9764425,10976841,1204,1213,-4508,7378,-4383,-1541,1581,-787,68,37,854
494603,9761956,10975512,9764622,10977038,822,1269,-4933,6743,-4962,-1766,445,-892,68,37,854
495604,9762220,10975740,9764819,10977235,1193,981,-5322,6111,-5442,-1874,-599,-886,47,46,853
496605,9762528,10975928,9765016,10977432,870,1235,-5665,5414,-5798,-2135,-1396,-797,47,46,853
497606,9762784,10976108,9765213,10977629,1169,1293,-5939,4658,-6035,-2335,-2313,-613,66,46,854
498607,9763084,10976256,9765410,10977826,850,1515,-6140,3927,-6172,-2687,-2891,-485,66,46,854
499608,9763400,10976476,9765607,10978023,697,1055,-6262,3190,-6171,-3033,-3454,-201,68,29,854
500609,9763604,10976668,9765804,10978220,1395,1233,-6284,2428,-5993,-3317,-3930,-98,68,29,854
501610,9763908,10976888,9766001,10978417,723,1047,-6258,1573,-5720,-3546,-3911,-80,63,39,853
502611,9764200,10977056,9766198,10978614,757,1386,-6159,668,-5468,-3898,-3521,-73,63,39,853
503612,9764528,10977224,9766395,10978811,475,1399,-5997,-370,-5277,-4225,-3265,-230,51,40,856
504613,9764792,10977356,9766592,10979008,846,1652,-5799,-1486,-5107,-4368,-2886,-321,51,40,856
505615,9765024,10977500,9766789,10979205,1031,1602,-5611,-2545,-4866,-4428,-2646,210,53,37,855
506615,9765228,10977616,9766986,10979402,1203,1812,-5445,-3362,-4541,-4552,-2660,1254,53,37,855
507616,9765544,10977736,9767183,10979599,451,1821,-5327,-3830,-4155,-4674,-2486,2482,62,23,855
508617,9765820,10977832,9767380,10979796,667,2017,-5263,-4066,-3757,-4629,-2016,3173,62,23,855
509618,9766048,10977968,9767577,10979993,953,1793,-5242,-4212,-3349,-4413,-2191,3855,60,25,852
510619,9766288,10978092,9767774,10980190,860,1900,-5244,-4209,-2915,-4186,-1885,4678,60,25,852
511620,9766536,10978260,9767971,10980387,787,1639,-5216,-4219,-2511,-4236,-1652,4783,61,36,851
512621,9766804,10978400,9768168,10980584,632,1839,-5179,-4207,-2089,-3857,-1828,5253,61,36,851
513622,9767100,10978568,9768365,10980781,413,1678,-5118,-4171,-1631,-3390,-1541,5373,49,23,852
514623,9767320,10978700,9768562,10980978,878,1932,-4941,-4431,-1284,-2999,-837,4613,49,23,852
515624,9767672,10978836,9768759,10981175,-15,1933,-4693,-4888,-1054,-2393,-675,4592,56,34,853
516625,9767952,10979004,9768956,10981372,400,1747,-4442,-5297,-863,-1606,-414,4929,56,34,853
517626,9768196,10979144,9769153,10981569,604,1947,-4052,-5594,-680,-478,-288,6064,54,24,854
518627,9768412,10979296,9769350,10981766,771,1893,-1622,-2994,-645,4278,-1291,32767,54,24,854
519628,9768752,10979448,9769547,10981963,-67,1913,2292,1912,-808,6220,-1618,32767,59,28,853
520629,9769120,10979600,9769744,10982160,-317,1934,3912,3917,-653,2238,-1340,9084,59,28,853
521630,9769412,10979748,9769941,10982357,116,1980,3408,2827,-371,2004,-468,3215,66,40,852
522632,9769704,10979900,9770138,10982554,75,1976,2509,683,-223,2516,-1141,1801,66,40,852
523633,9770068,10980040,9770335,10982751,-448,2076,1710,-702,-83,2609,-2329,3098,68,34,852
524633,9770256,10980168,9770532,10982948,656,2182,1082,-1614,0,2491,-1622,2485,68,34,852
525634,9770508,10980284,9770729,10983145,232,2293,501,-2451,-78,3198,-840,2406,67,23,853
526635,9770788,10980404,9770926,10983342,20,2303,-99,-3358,-207,3636,-424,2522,67,23,853
527636,9771012,10980524,9771123,10983539,358,2336,-666,-4404,-358,4261,-7,2173,51,19,851
528637,9771208,10980644,9771320,10983736,534,2371,-1027,-5643,-613,4569,281,1145,51,19,851
529638,9771444,10980748,9771517,10983933,267,2513,-1237,-6850,-927,4287,274,1693,40,27,851
530640,9771624,10980872,9771714,10984130,624,2420,-1435,-7736,-1265,4254,-264,2680,40,27,851
531640,9771816,10980996,9771911,10984327,551,2453,-1615,-8279,-1614,3754,-1008,3184,48,28,851
532641,9772000,10981104,9772108,10984524,607,2592,-1627,-8858,-1965,2590,-1399,2940,48,28,851
533649,9772200,10981196,9772338,10984754,520,2754,-1530,-9298,-2395,1596,-1827,3531,44,28,849
534643,9772416,10981304,9772535,10984951,412,2694,-1465,-9354,-2843,810,-2498,4945,44,28,849
535644,9772640,10981376,9772732,10985148,350,2974,-1643,-8555,-3154,108,-3755,7497,45,10,849
536645,9772840,10981428,9772929,10985345,499,3164,-1911,-7485,-3334,-804,-4233,7323,45,10,849
537646,9772952,10981504,9773126,10985542,1086,3068,-2175,-6419,-3471,-1676,-3788,7651,43,9,847
538648,9773200,10981600,9773323,10985739,214,2988,-2389,-5418,-3577,-2368,-3198,7568,43,9,847
539649,9773380,10981684,9773520,10985936,646,3113,-2688,-4349,-3598,-2824,-3299,7789,50,12,847
540649,9773584,10981764,9773717,10986133,493,3190,-2963,-3549,-3477,-2638,-2493,6640,50,12,847
541651,9773764,10981848,9773914,10986330,650,3216,-3128,-3064,-3265,-1939,-1248,5764,51,11,844
542651,9773892,10981944,9774111,10986527,1006,3187,-3285,-2928,-2970,-1316,-790,4649,51,11,844
543652,9773992,10982044,9774308,10986724,1223,3205,-3568,-2974,-2580,-710,-1191,4234,28,14,842
544653,9774108,10982160,9774505,10986921,1159,3142,-3899,-3295,-2085,124,-1705,3067,28,14,842
545654,9774224,10982272,9774702,10987118,1195,3205,-4192,-3820,-1555,871,-1916,2333,25,30,844
546656,9774376,10982380,9774899,10987315,989,3270,-3995,-4003,-985,1268,-2815,6022,25,30,844
547656,9774508,10982460,9775096,10987512,1143,3497,-1968,-152,-108,1922,-7832,32767,15,23,843
548657,9774664,10982564,9775293,10987709,1012,3388,149,3010,642,1597,-3762,16373,15,23,843
549658,9774796,10982712,9775490,10987906,1190,3136,371,2752,1166,1151,-1510,949,21,17,843
550659,9774912,10982840,9775687,10988103,1326,3292,-340,749,1695,1045,-3095,-472,21,17,843
551660,9775080,10982976,9775884,10988300,1014,3270,-1014,-1265,2303,1476,-3860,-171,32,32,839
552661,9775216,10983124,9776081,10988497,1241,3218,-1339,-2257,2909,1292,-3900,1354,32,32,839
553662,9775324,10983256,9776278,10988694,1455,3347,-1554,-2744,3381,1426,-3804,2386,22,32,843
554663,9775480,10983396,9776475,10988891,1173,3323,-1749,-2786,3643,1649,-3209,3346,22,32,843
555664,9775612,10983548,9776672,10989088,1352,3270,-1769,-2784,3793,1380,-2305,4471,39,27,842
556665,9775748,10983684,9776869,10989285,1354,3398,-1236,-1602,3717,2963,-1852,14202,39,27,842
557666,9775912,10983812,9777066,10989482,1194,3479,-545,-142,3541,2128,-1620,10525,18,31,841
558667,9776036,10983984,9777263,10989679,1476,3216,-285,621,3382,742,-966,5817,18,31,841
559668,9776176,10984280,9777460,10989876,1401,2399,-273,901,3140,760,-844,5359,40,36,842
560669,9776340,10984560,9777657,10990073,1266,2463,-274,1039,2805,654,-466,5264,40,36,842
561670,9776488,10984916,9777854,10990270,1388,1919,-256,1550,2501,1016,-185,6029,18,42,842
562671,9776632,10985288,9778051,10990467,1436,1743,-217,1941,2192,1789,347,4662,18,42,842
563672,9776792,10985620,9778248,10990664,1353,1935,-156,1938,1823,2298,1031,3909,36,64,846
564673,9776960,10985880,9778445,10990861,1316,2358,-50,1835,1465,2606,917,3604,36,64,846
565674,9777128,10986148,9778642,10991058,1329,2278,127,1446,1148,2839,324,2685,36,59,848
566675,9777332,10986444,9778839,10991255,1101,2061,357,1036,879,2981,6,2777,36,59,848
567676,9777508,10986756,9779036,10991452,1286,1911,566,669,673,3294,-81,2766,24,65,849
568677,9777688,10987068,9779233,10991649,1268,1862,703,352,466,3933,-187,2705,24,65,849
569678,9777872,10987416,9779430,10991846,1249,1570,850,-38,205,3967,-501,2340,32,74,848
570679,9778020,10987820,9779627,10992043,1497,1130,1084,-662,-121,3762,-398,1818,32,74,848
571680,9778224,10988140,9779824,10992240,1144,1602,1334,-1219,-514,3869,220,1907,45,66,851
572681,9778420,10988452,9780021,10992437,1194,1603,1526,-1664,-874,3704,556,2265,45,66,851
573682,9778604,10988732,9780218,10992634,1275,1767,1664,-1955,-1161,3527,282,2606,51,78,852
574683,9778808,10989024,9780415,10992831,1148,1650,1806,-2183,-1407,3142,-512,2549,51,78,852
575684,9779016,10989348,9780612,10993028,1118,1396,1964,-2387,-1581,2732,-989,2689,34,69,852
576685,9779208,10989692,9780809,10993225,1220,1207,2048,-2354,-1715,2527,-489,3501,34,69,852
577686,9779416,10989972,9781006,10993422,1116,1571,2072,-2118,-1783,2347,-1040,3785,32,73,850
578687,9779632,10990276,9781203,10993619,1058,1375,2124,-1881,-1792,2022,-1287,3670,32,73,850
579688,9779812,10990532,9781400,10993816,1290,1650,2248,-1775,-1830,2007,-599,3206,36,56,853
580689,9780004,10990764,9781597,10994013,1219,1784,2388,-1853,-1910,2078,-252,2867,36,56,853
581690,9780132,10990988,9781794,10994210,1649,1823,2500,-1866,-1936,1766,-146,2854,41,46,852
582691,9780296,10991184,9781991,10994407,1438,2000,2563,-1848,-1851,1041,344,2770,41,46,852
583692,9780428,10991380,9782188,10994604,1667,2000,2557,-1882,-1643,532,493,2692,44,36,852
584693,9780540,10991588,9782385,10994801,1830,1921,2532,-1863,-1279,410,193,2789,44,36,852
585694,9780680,10991772,9782582,10994998,1680,2077,2551,-1844,-794,205,-125,2620,26,47,849
586695,9780792,10991992,9782779,10995195,1894,1843,2607,-1859,-248,-198,-672,2500,26,47,849
587697,9780888,10992208,9782976,10995392,2038,1861,2696,-1936,327,-541,-918,2230,26,32,847
588697,9781040,10992408,9783173,10995589,1708,1959,2809,-1909,916,-584,-958,2495,26,32,847
589699,9781204,10992604,9783370,10995786,1648,1986,2900,-1761,1494,-772,-702,2676,43,45,846
590699,9781372,10992800,9783567,10995983,1636,1987,2953,-1589,2046,-1124,-479,2552,43,45,846
591701,9781536,10993012,9783764,10996180,1677,1881,2991,-1461,2545,-1205,-412,2345,35,41,847
592701,9781688,10993268,9783961,10996377,1771,1581,3039,-1240,3009,-1188,-348,2530,35,41,847
593702,9781836,10993504,9784158,10996574,1818,1689,3068,-752,3442,-1381,-630,3162,47,47,848
594703,9781984,10993752,9784355,10996771,1840,1592,3044,-56,3848,-1649,-987,3723,47,47,848
595705,9782124,10993976,9784552,10996968,1915,1730,2942,778,4215,-1687,-914,4090,47,40,848
596705,9782264,10994204,9784749,10997165,1942,1693,2790,1683,4507,-1483,-542,4095,47,40,848
597706,9782392,10994500,9784946,10997362,2047,1225,2616,2480,4671,-1409,-161,3515,23,54,849
598707,9782524,10994776,9785143,10997559,2051,1315,2443,2992,4693,-1399,396,2628,23,54,849
599708,9782656,10995056,9785340,10997756,2080,1255,2258,3205,4599,-1231,714,1748,40,53,847
600709,9782792,10995412,9785537,10997953,2083,710,2029,3230,4442,-810,571,1122,40,53,847
601710,9782912,10995620,9785734,10998150,2217,1631,1757,3088,4256,-425,553,645,41,65,849
602711,9783028,10995772,9785931,10998347,2278,2001,1495,2779,4023,-227,925,18,41,65,849
603712,9783164,10995960,9786128,10998544,2180,1781,1237,2228,3682,5,1304,-591,18,45,849
604713,9783280,10996128,9786325,10998741,2342,1919,981,1545,3223,217,1618,-1014,18,45,849
605714,9783412,10996312,9786522,10998938,2270,1826,717,908,2745,351,1574,-911,26,30,848
606715,9783544,10996532,9786719,10999135,2300,1590,439,412,2326,476,1471,-565,26,30,848
607716,9783728,10996776,9786916,10999332,1981,1421,157,-18,1965,675,1438,-290,32,33,846
608717,9783880,10997116,9787113,10999529,2201,758,-73,-451,1629,781,1505,-392,32,33,846
609718,9784044,10997316,9787310,10999726,2142,1633,-236,-929,1278,708,1744,-513,45,54,844
610719,9784216,10997572,9787507,10999923,2104,1257,-354,-1417,911,670,1846,-409,45,54,844
611720,9784388,10997836,9787704,11000120,2115,1177,-495,-1778,585,694,1851,311,48,66,848
612721,9784568,10998100,9787901,11000317,2073,1149,-705,-1871,297,615,1759,989,48,66,848
613722,9784780,10998380,9788098,11000514,1867,1012,-962,-1746,21,422,1469,1698,51,64,848
614723,9784960,10998668,9788295,11000711,2075,923,-1246,-1343,-232,75,1254,2753,51,64,848
615724,9785140,10999036,9788492,11000908,2084,348,-1526,-666,-449,-128,1198,3471,42,65,849
616735,9785352,10999464,9788722,11001138,1891,-114,-1805,54,-625,-248,1121,3815,42,65,849
617726,9785528,10999764,9788919,11001335,2127,642,-2067,872,-755,-331,1160,4100,36,55,851
618727,9785724,11000036,9789116,11001532,2003,784,-2328,1713,-850,-397,1320,4229,36,55,851
619728,9785932,11000332,9789313,11001729,1923,590,-2602,2481,-929,-286,1603,4195,35,53,851
620729,9786108,11000612,9789510,11001926,2134,655,-2858,3109,-996,-123,2302,4005,35,53,851
621730,9786300,11000892,9789707,11002123,2037,618,-3082,3616,-1046,102,3020,3814,54,50,851
622731,9786492,11001232,9789904,11002320,2039,181,-3279,3993,-1079,358,3411,3594,54,50,851
623732,9786668,11001476,9790101,11002517,2149,760,-3440,4283,-1072,423,3570,3534,31,65,851
624733,9786836,11001796,9790298,11002714,2212,232,-3572,4492,-1018,444,3446,3411,31,65,851
625734,9787048,11002116,9790495,11002911,1931,178,-3675,4598,-951,403,3181,3018,49,57,852
626735,9787208,11002408,9790692,11003108,2274,311,-3757,4558,-877,310,3006,2932,49,57,852
627736,9787412,11002736,9790889,11003305,1995,29,-3862,4526,-773,311,2608,3333,49,64,851
628737,9787628,11003016,9791086,11003502,1913,292,-3994,4540,-652,261,1961,3745,49,64,851
629738,9787832,11003304,9791283,11003699,1986,202,-4115,4649,-576,32,1819,3953,35,64,852
630739,9788028,11003600,9791480,11003896,2036,109,-4186,4732,-556,-350,1950,4323,35,64,852
631740,9788240,11003768,9791677,11004093,1931,921,-2340,8197,-210,-1471,-360,32767,57,66,852
632741,9788432,11003952,9791874,11004290,2059,827,1197,14915,455,-2026,-1133,32767,57,66,852
633742,9788624,11004256,9792071,11004487,2061,30,2998,16865,608,244,2083,2681,55,52,851
634743,9788824,11004516,9792268,11004684,2011,277,2741,14951,386,375,2481,-374,55,52,851
635744,9789040,11004788,9792465,11004881,1904,170,2031,11935,41,809,2965,-1800,45,62,852
636745,9789260,11005016,9792662,11005078,1869,432,1410,9894,-280,523,3009,-281,45,62,852
637746,9789464,11005240,9792859,11005275,1966,445,993,8743,-554,-208,3161,185,41,44,852
638747,9789708,11005420,9793056,11005472,1697,727,471,7805,-894,-188,2654,872,41,44,852
639748,9789932,11005604,9793253,11005669,1810,708,-208,6922,-1355,-985,2432,1457,36,42,853
640749,9790148,11005796,9793450,11005866,1853,660,-836,5700,-1871,-1873,1854,584,36,42,853
641750,9790368,11005964,9793647,11006063,1818,823,-1412,4390,-2501,-2164,737,807,48,47,853
642751,9790600,11006112,9793844,11006260,1728,970,-1067,2884,-2976,-5218,-1336,7206,48,47,853
643752,9790820,11006220,9794041,11006457,1794,1259,1745,1075,-2760,-10982,-4875,31604,43,35,851
644753,9791084,11006312,9794238,11006654,1490,1405,3390,260,-2807,-5284,-205,10104,43,35,851
645754,9791324,11006384,9794435,11006851,1622,1585,2711,-65,-3269,-3893,1975,4030,34,34,851
646755,9791556,11006480,9794632,11007048,1657,1479,1031,350,-3700,-3424,828,5766,34,34,851
647756,9791808,11006552,9794829,11007245,1508,1684,-417,130,-3875,-3465,667,2948,59,26,851
648757,9792036,11006632,9795026,11007442,1645,1685,-1320,-643,-3995,-3579,826,2685,59,26,851
649758,9792272,11006700,9795223,11007639,1578,1817,-1822,-1475,-4143,-3405,467,2277,39,19,850
650759,9792552,11006788,9795420,11007836,1268,1740,-2097,-2620,-4173,-3200,1,1375,39,19,850
651760,9792812,11006868,9795617,11008033,1365,1842,-2342,-3391,-4014,-2541,-139,2598,42,11,849
652761,9793048,11006948,9795814,11008230,1499,1894,-2578,-4204,-3668,-2008,-52,2128,42,11,849
653763,9793308,11007044,9796011,11008427,1322,1838,-2754,-4914,-3181,-1411,-496,3197,53,20,849
654763,9793564,11007132,9796208,11008624,1321,1936,-2864,-5391,-2607,-1120,-719,3898,53,20,849
655764,9793820,11007236,9796405,11008821,1296,1878,-2748,-6063,-2005,-646,-989,4552,51,17,849
656765,9794096,11007380,9796602,11009018,1137,1651,-2133,-6589,-1561,155,-1178,9446,51,17,849
657766,9794352,11007492,9796799,11009215,1236,1889,-1388,-7211,-1240,-474,-528,7356,55,23,849
658767,9794592,11007620,9796996,11009412,1318,1820,-1118,-7961,-942,-893,-423,3244,55,23,849
659768,9794864,11007700,9797193,11009609,1085,2171,-1188,-8525,-636,-904,-730,3252,61,20,849
660769,9795120,11007832,9797390,11009806,1160,1875,-1268,-8798,-260,-819,-1271,4216,61,20,849
661770,9795368,11007968,9797587,11010003,1188,1878,-1285,-8516,96,-579,-1664,5571,41,34,851
662771,9795608,11008092,9797784,11010200,1220,1985,-1227,-7997,386,-717,-1624,5922,41,34,851
663772,9795828,11008252,9797981,11010397,1335,1776,-1138,-7276,579,-713,-1404,6475,58,27,850
664773,9796076,11008388,9798178,11010594,1138,1954,-1055,-6591,703,-475,-1546,6311,58,27,850
665774,9796304,11008516,9798375,11010791,1250,2034,-906,-6041,817,-308,-1464,5963,49,37,850
666775,9796544,11008644,9798572,11010988,1156,2066,-677,-5506,917,90,-1398,5781,49,37,850
667776,9796776,11008780,9798769,11011185,1191,2042,-366,-5172,973,448,-1274,4875,54,36,847
668777,9796984,11008888,9798966,11011382,1336,2257,-5,-4952,962,771,-1037,4597,54,36,847
669779,9797224,11008996,9799163,11011579,1118,2297,349,-4791,910,1134,-1082,4118,40,34,850
670779,9797468,11009116,9799360,11011776,1073,2256,729,-4820,832,1444,-1093,3529,40,34,850
671780,9797652,11009228,9799557,11011973,1454,2344,1124,-4865,717,1653,-753,3321,42,29,849
672781,9797892,11009348,9799754,11012170,1086,2329,1529,-5007,587,1700,-971,2854,42,29,849
673782,9798104,11009500,9799951,11012367,1254,2148,1921,-5120,477,1785,-1621,2900,54,21,847
674783,9798308,11009616,9800148,11012564,1301,2410,2287,-5169,377,1792,-1712,2879,54,21,847
675784,9798540,11009716,9800345,11012761,1112,2553,2591,-5150,265,1821,-1795,2842,36,24,849
676785,9798740,11009816,9800542,11012958,1310,2596,2835,-5043,146,1908,-1877,3140,36,24,849
677786,9798936,11009896,9800739,11013155,1336,2773,3045,-4808,66,1827,-2008,3331,36,20,847
678787,9799172,11009988,9800936,11013352,1070,2745,3176,-4443,-17,1687,-2334,3595,36,20,847
679788,9799348,11010060,9801133,11013549,1454,2926,3204,-3980,-153,1420,-2371,3580,33,27,847
680789,9799560,11010152,9801330,11013746,1222,2847,3160,-3555,-297,1216,-1592,3456,33,27,847
681790,9799748,11010224,9801527,11013943,1377,3028,3051,-2978,-427,1193,-666,3905,28,26,846
682791,9799972,11010332,9801724,11014140,1140,2843,2908,-2312,-497,1225,-428,3862,28,26,846
683792,9800160,11010400,9801921,11014337,1369,3150,2749,-1742,-522,1289,-346,3365,36,12,846
684793,9800408,11010504,9802118,11014534,973,2966,2585,-1352,-521,1295,-517,2794,36,12,846
685795,9800620,11010592,9802315,11014731,1191,3115,2456,-1141,-477,1186,-716,2456,54,15,845
686795,9800820,11010684,9802512,11014928,1265,3138,2317,-863,-377,1283,-1260,2499,54,15,845
687796,9801064,11010800,9802709,11015125,970,3024,2187,-653,-226,1299,-1558,2017,36,22,844
688797,9801288,11010896,9802906,11015322,1084,3194,2086,-482,-44,1334,-1786,1825,36,22,844
689798,9801512,11011032,9803103,11015519,1072,2971,1980,-349,148,1327,-1721,1670,42,17,845
690799,9801764,11011160,9803300,11015716,874,3053,1862,-289,343,1219,-1378,1341,42,17,845
691800,9801992,11011312,9803497,11015913,1010,2923,1700,-255,519,1133,-939,1448,33,19,843
692801,9802188,11011444,9803694,11016110,1210,3078,1509,-205,693,959,-740,1260,33,19,843
693802,9802432,11011568,9803891,11016307,890,3161,1282,-132,844,825,-768,1433,56,38,843
694803,9802640,11011696,9804088,11016504,1111,3167,1025,15,962,627,-775,1451,56,38,843
695804,9802840,11011828,9804285,11016701,1160,3172,757,155,1040,465,-773,1452,33,25,844
696805,9803032,11011964,9804482,11016898,1212,3174,463,377,1074,363,-732,1726,33,25,844
697806,9803240,11012128,9804679,11017095,1108,3014,153,573,1064,232,-728,1671,44,29,845
698807,9803432,11012272,9804876,11017292,1210,3164,-180,791,1022,280,-1143,1762,44,29,845
699815,9803624,11012428,9805106,11017522,1227,3122,-515,919,961,293,-1621,1669,51,31,843
700809,9803828,11012600,9805303,11017719,1149,3034,-845,1040,875,292,-1741,1575,51,31,843
701810,9804012,11012736,9805500,11017916,1280,3287,-1173,1055,762,260,-1262,1354,46,41,843
702811,9804184,11012900,9805697,11018113,1366,3127,-1510,963,626,200,-710,1114,46,41,843
703812,9804328,11013064,9805894,11018310,1565,3143,-1871,803,484,268,-576,1129,25,27,843
704813,9804480,11013252,9806091,11018507,1534,2998,-2222,545,354,388,-847,834,25,27,843
705814,9804612,11013452,9806288,11018704,1689,2923,-2531,189,247,547,-1300,691,43,31,844
706815,9804788,11013632,9806485,11018901,1423,3056,-2825,-181,144,701,-1662,723,43,31,844
707816,9804948,11013804,9806682,11019098,1540,3118,-3113,-593,53,819,-2062,820,25,43,843
708817,9805108,11013984,9806879,11019295,1557,3076,-3391,-1007,-23,945,-2422,949,25,43,843
709818,9805260,11014148,9807076,11019492,1627,3192,-3626,-1429,-106,971,-2496,1001,30,31,842
710819,9805420,11014336,9807273,11019689,1593,3047,-3837,-1802,-186,1019,-2542,1395,30,31,842
711820,9805580,11014504,9807470,11019886,1610,3186,-4062,-2087,-264,899,-2269,1875,39,33,842
712821,9805772,11014728,9807667,11020083,1412,2825,-4285,-2278,-336,814,-2002,2212,39,33,842
713822,9805944,11014932,9807864,11020280,1549,2948,-4489,-2372,-404,764,-2064,2556,44,48,843
714823,9806116,11015164,9808061,11020477,1560,2758,-4653,-2455,-467,671,-2122,2741,44,48,843
715824,9806300,11015388,9808258,11020674,1491,2797,-4800,-2487,-531,607,-1868,3185,29,37,843
716825,9806492,11015656,9808455,11020871,1444,2492,-4931,-2489,-585,516,-1693,3571,29,37,843
717826,9806668,11015904,9808652,11021068,1553,2596,-5035,-2433,-633,426,-1626,3761,44,54,846
718827,9806844,11016156,9808849,11021265,1563,2548,-5101,-2376,-679,270,-1620,3902,44,54,846
719828,9806992,11016420,9809046,11021462,1760,2444,-5130,-2379,-722,188,-1726,3985,33,57,845
720829,9807160,11016668,9809243,11021659,1648,2523,-5122,-2386,-739,177,-1791,4120,33,57,845
721830,9807332,11016940,9809440,11021856,1635,2341,-5060,-2427,-734,148,-1708,4411,45,57,845
722831,9807484,11017188,9809637,11022053,1780,2469,-3016,401,-525,-18,-2560,32332,45,57,845
723832,9807660,11017472,9809834,11022250,1639,2207,1329,7242,1,-1346,-3739,32767,44,57,846
724833,9807856,11017728,9810031,11022447,1515,2357,3872,9494,186,202,-1241,5637,44,57,846
725834,9808020,11018008,9810228,11022644,1730,2172,3978,7515,122,983,-478,-915,42,63,846
726835,9808200,11018228,9810425,11022841,1638,2538,3286,4085,86,1601,-1056,-2252,42,63,846
727836,9808356,11018516,9810622,11023038,1806,2074,2834,1680,252,1791,-1675,-980,39,62,846
728837,9808528,11018776,9810819,11023235,1717,2221,2620,134,622,1211,-1867,-267,39,62,846
729838,9808688,11019012,9811016,11023432,1810,2355,2416,-1141,913,1062,-1871,-91,25,56,847
730839,9808824,11019244,9811213,11023629,1986,2366,2138,-2431,1026,377,-1176,113,25,56,847
731840,9809008,11019464,9811410,11023826,1693,2431,1844,-3897,997,-364,-117,-18,46,51,845
732841,9809188,11019704,9811607,11024023,1726,2288,1484,-5249,790,-353,322,571,46,51,845
733842,9809356,11019908,9811804,11024220,1814,2511,1065,-6281,592,-823,290,1725,34,45,846
734843,9809528,11020116,9812001,11024417,1800,2482,574,-6715,516,-1161,-104,3541,34,45,846
735844,9809696,11020304,9812198,11024614,1839,2612,18,-6729,507,-1378,-405,4564,26,44,845
736845,9809852,11020496,9812395,11024811,1932,2590,-562,-6465,576,-1906,-289,5863,26,44,845
737846,9810036,11020672,9812592,11025008,1764,2700,-1102,-5904,663,-2068,123,6374,38,46,845
738847,9810184,11020888,9812789,11025205,2010,2443,-1506,-5670,701,-2186,690,5203,38,46,845
739848,9810360,11021076,9812986,11025402,1846,2623,-2120,-5046,819,-2227,1331,6309,25,44,845
740849,9810528,11021220,9813183,11025599,1908,2921,-2348,-4814,959,-2203,1254,5599,25,44,845
741850,9810700,11021388,9813380,11025796,1895,2785,-2492,-4673,1198,-2457,1362,5495,25,41,844
742851,9810848,11021564,9813577,11025993,2067,2745,-2543,-4758,1518,-2581,1558,4935,25,41,844
743852,9811020,11021736,9813774,11026190,1929,2782,-2319,-4641,1879,-1946,1453,7546,23,42,843
744853,9811176,11021876,9813971,11026387,2047,3008,-1274,-3166,2197,-317,1410,19771,23,42,843
745854,9811332,11022000,9814168,11026584,2066,3141,-182,-2276,2534,-1059,1316,9416,23,33,842
746855,9811460,11022140,9814365,11026781,2271,3067,227,-2738,2932,-1495,1170,2893,23,33,842
747856,9811608,11022280,9814562,11026978,2169,3092,242,-3790,3389,-1526,276,2696,40,36,842
748857,9811776,11022420,9814759,11027175,2056,3118,252,-4690,3827,-1379,-601,2971,40,36,842
749858,9811936,11022548,9814956,11027372,2124,3224,399,-5225,4208,-1515,-669,3224,41,33,840
750859,9812076,11022712,9815153,11027569,2274,3015,599,-5564,4543,-1548,-745,3795,41,33,840
751860,9812216,11022872,9815350,11027766,2300,3057,748,-5654,4811,-1310,-1025,4465,21,28,839
752861,9812376,11023036,9815547,11027963,2192,3048,861,-5704,5033,-1413,-1150,4663,21,28,839
753862,9812512,11023180,9815744,11028160,2369,3197,934,-5621,5174,-1207,-1149,5092,42,37,840
754863,9812664,11023344,9815941,11028357,2290,3087,1021,-5542,5229,-864,-1094,4955,42,37,840
755864,9812784,11023496,9816138,11028554,2523,3183,1104,-5405,5252,-539,-949,5373,43,40,838
756865,9812896,11023648,9816335,11028751,2612,3204,1170,-5097,5243,-101,-612,5594,43,40,838
757866,9813004,11023808,9816532,11028948,2677,3171,1237,-4865,5183,381,-133,5353,24,39,839
758867,9813120,11023988,9816729,11029145,2662,3055,1285,-4497,5077,975,376,5753,24,39,839
759868,9813252,11024188,9816926,11029342,2592,2929,1343,-4167,4911,1428,785,5313,16,35,839
760869,9813392,11024380,9817123,11029539,2568,2983,1413,-3906,4681,1742,633,5249,16,35,839
761870,9813520,11024568,9817320,11029736,2674,3013,1501,-3627,4458,1971,545,5303,26,44,837
762871,9813672,11024756,9817517,11029933,2544,3018,1585,-3417,4229,2239,703,4891,26,44,837
763872,9813784,11024964,9817714,11030130,2833,2889,1642,-3230,3960,2572,736,4800,21,32,837
764873,9813884,11025180,9817911,11030327,2951,2831,1694,-3061,3652,2817,1058,4636,21,32,837
765874,9814024,11025392,9818108,11030524,2727,2851,1737,-2932,3363,3293,674,4480,23,46,836
766875,9814124,11025656,9818305,11030721,3020,2497,1776,-2810,3109,3758,479,4056,23,46,836
767876,9814228,11025928,9818502,11030918,3037,2415,1815,-2806,2846,3764,360,3729,37,50,839
768877,9814388,11026212,9818699,11031115,2704,2302,1842,-2843,2556,3705,-66,3653,37,50,839
769878,9814508,11026448,9818896,11031312,2989,2586,1867,-2835,2325,3547,-517,3626,19,44,838
770879,9814652,11026732,9819093,11031509,2863,2249,1863,-2635,2231,3293,-1014,4175,19,44,838
771880,9814776,11027036,9819290,11031706,3020,2078,1840,-2383,2200,3321,-1101,4110,39,54,838
772881,9814864,11027344,9819487,11031903,3294,2005,1840,-2178,2142,3203,-1031,3741,39,54,838
773882,9814968,11027616,9819684,11032100,3236,2198,1870,-2053,2046,3177,-748,3499,19,65,841
774883,9815048,11027868,9819881,11032297,3438,2300,1890,-1961,1925,3162,-657,3381,19,65,841
775884,9815120,11028196,9820078,11032494,3544,1768,1881,-1733,1835,3014,-775,3712,16,60,840
776885,9815184,11028500,9820275,11032691,3654,1872,1861,-1331,1779,2734,-790,3873,16,60,840
777886,9815284,11028788,9820472,11032888,3472,1932,1856,-969,1700,2547,-649,3594,25,51,838
778887,9815364,11029052,9820669,11033085,3650,2054,1859,-639,1609,2513,-578,3626,25,51,838
779888,9815452,11029308,9820866,11033282,3649,2079,1850,-183,1551,2352,-799,3895,22,65,837
780889,9815588,11029592,9821063,11033479,3377,1867,1831,342,1527,1983,-1131,3976,22,65,837
781890,9815736,11029928,9821260,11033676,3324,1481,1806,930,1541,1475,-1432,4123,23,65,837
782898,9815872,11030208,9821490,11033906,3441,1810,1802,1547,1611,988,-1740,4220,23,65,837
783892,9816028,11030464,9821687,11034103,3335,1935,1813,2178,1738,759,-1894,4188,21,51,837
784893,9816148,11030712,9821884,11034300,3595,1962,1844,2705,1907,760,-1472,3658,21,51,837
785895,9816272,11031036,9822081,11034497,3603,1432,1900,3001,2051,923,-853,2966,40,63,839
786896,9816376,11031356,9822278,11034694,3770,1404,1970,3055,2118,1299,-216,2187,40,63,839
787896,9816484,11031628,9822475,11034891,3785,1671,2023,3016,2137,1386,34,1826,27,68,838
788897,9816608,11031892,9822672,11035088,3719,1693,2074,2952,2167,1304,-138,1651,27,68,838
789911,9816716,11032172,9822869,11035285,3800,1558,2125,2868,2226,1397,-356,1546,16,56,837
790899,9816864,11032496,9823066,11035482,3632,1227,2160,2866,2307,1412,-466,1781,16,56,837
791900,9817048,11032828,9823263,11035679,3414,1118,2184,2866,2386,1262,-726,1598,15,64,838
792901,9817264,11033152,9823460,11035876,3206,1113,2145,2900,2428,928,-1150,1909,15,64,838
793903,9817524,11033432,9823657,11036073,2905,1352,2024,3250,2422,24,-1208,2647,33,57,838
794903,9817772,11033792,9823854,11036270,2959,780,1885,3687,2367,-666,-651,2434,33,57,838
795904,9818032,11034124,9824051,11036467,2858,897,1802,3882,2235,-316,287,1694,43,58,840
796905,9818340,11034472,9824248,11036664,2510,731,1751,3972,2064,309,937,1771,43,58,840
797907,9818660,11034800,9824445,11036861,2382,799,1700,4038,1879,869,1403,1451,49,70,843
798907,9818952,11035128,9824642,11037058,2516,742,1650,4112,1672,803,1370,1198,49,70,843
799908,9819272,11035492,9824839,11037255,2288,444,1624,4180,1537,34,567,1432,78,73,846
800909,9819532,11035800,9825036,11037452,2636,745,1646,4121,1482,-104,-133,1211,78,73,846
801910,9819816,11036120,9825233,11037649,2449,616,1723,4038,1432,497,122,749,54,65,849
802911,9820116,11036428,9825430,11037846,2305,643,1835,3875,1373,1100,440,435,54,65,849
803912,9820400,11036780,9825627,11038043,2368,301,1943,3610,1333,1437,302,264,66,65,849
804913,9820684,11037088,9825824,11038240,2330,527,2043,3353,1374,1202,-18,517,66,65,849
805914,9821028,11037396,9826021,11038437,1892,478,2111,3356,1479,1047,227,1189,74,56,849
806915,9821348,11037764,9826218,11038634,1989,28,2122,3499,1522,1473,715,1118,74,56,849
807916,9821680,11038172,9826415,11038831,1855,-314,2096,3546,1513,1723,1038,929,53,54,850
808917,9822044,11038404,9826612,11039028,1583,771,2070,3689,1514,1551,1100,1216,53,54,850
809919,9822360,11038680,9826809,11039225,1832,461,2044,3767,1520,1217,1089,1166,61,64,850
810919,9822700,11038884,9827006,11039422,1620,908,1961,3936,1462,1045,1629,1608,61,64,850
811920,9823028,11039048,9827203,11039619,1638,1172,1786,4339,1329,994,2152,1928,61,57,853
812921,9823336,11039208,9827400,11039816,1715,1214,1550,4818,1159,923,2137,2076,61,57,853
813922,9823592,11039376,9827597,11040013,2015,1176,1249,5309,967,813,2601,2388,65,48,853
814923,9823944,11039552,9827794,11040210,1347,1136,914,5899,742,740,3117,2539,65,48,853
815924,9824244,11039732,9827991,11040407,1628,1118,518,6554,413,285,3422,2614,53,44,853
816925,9824540,11039960,9828188,11040604,1611,806,73,7079,32,-73,3561,2163,53,44,853
817927,9824844,11040136,9828385,11040801,1514,1140,-434,7438,-371,-138,3704,1858,55,50,850
818928,9825116,11040296,9828582,11040998,1682,1256,-992,7665,-796,-220,3929,1514,55,50,850
819929,9825444,11040472,9828779,11041195,1275,1165,-1563,7712,-1330,-719,4404,704,55,38,852
820929,9825728,11040640,9828976,11041392,1512,1228,-2182,7562,-1961,-1048,4525,270,55,38,852
821930,9826000,11040840,9829173,11041589,1555,1027,-2889,7258,-2522,-881,2960,476,67,42,851
822931,9826252,11041020,9829370,11041786,1656,1159,-3624,6835,-2983,-663,2102,-160,67,42,851
823932,9826488,11041212,9829567,11041983,1740,1087,-4225,6089,-3488,-1009,2925,-1470,45,29,851
824933,9826800,11041408,9829764,11042180,1215,1063,-4711,5019,-3993,-1354,2423,-1790,45,29,851
825935,9827092,11041572,9829961,11042377,1298,1277,-5129,3917,-4326,-1336,574,-1577,63,45,852
826935,9827336,11041744,9830158,11042574,1579,1238,-5519,2969,-4394,-1210,-1029,-963,63,45,852
827936,9827608,11041924,9830355,11042771,1371,1196,-5856,2145,-4303,-1334,-1756,-569,51,37,852
828937,9827872,11042112,9830552,11042968,1392,1150,-6111,1214,-4131,-1546,-2418,-588,51,37,852
829938,9828156,11042320,9830749,11043165,1229,1020,-6273,300,-3945,-1784,-2771,-146,63,38,853
830939,9828428,11042492,9830946,11043362,1272,1257,-6328,-599,-3730,-2009,-3104,106,63,38,853
831940,9828640,11042652,9831143,11043559,1640,1348,-6259,-1493,-3522,-2396,-2873,105,58,26,851
832941,9828876,11042796,9831340,11043756,1474,1471,-6116,-2506,-3369,-2656,-2190,143,58,26,851
833942,9829160,11042940,9831537,11043953,1136,1495,-5921,-3604,-3288,-2789,-1598,172,43,36,853
834943,9829436,11043068,9831734,11044150,1152,1625,-5695,-4580,-3236,-2826,-1524,796,43,36,853
835944,9829684,11043216,9831931,11044347,1305,1523,-5475,-5331,-3158,-3062,-1481,1623,47,21,853
836945,9829944,11043312,9832128,11044544,1202,1892,-5306,-5872,-3042,-3147,-1455,2637,47,21,853
837946,9830260,11043432,9832325,11044741,801,1776,-5183,-6064,-2922,-2978,-1271,3624,40,32,851
838947,9830536,11043588,9832522,11044938,1016,1569,-5115,-6003,-2846,-2721,-721,4715,40,32,851
839948,9830836,11043736,9832719,11045135,822,1640,-5101,-5746,-2805,-2522,-525,5562,60,21,851
840949,9831044,11043900,9832916,11045332,1392,1556,-5068,-5412,-2752,-2288,-628,5853,60,21,851
841951,9831304,11044024,9833113,11045529,1039,1838,-5147,-4797,-2673,-1549,-182,7436,62,29,849
842951,9831540,11044160,9833310,11045726,1173,1790,-5204,-4351,-2578,-1128,-409,6275,62,29,849
843952,9831760,11044272,9833507,11045923,1263,1978,-5126,-4315,-2512,-811,-742,5266,44,20,851
844953,9832036,11044376,9833704,11046120,879,2069,-4933,-4556,-2436,-81,-789,5255,44,20,851
845954,9832332,11044520,9833901,11046317,711,1842,-4756,-4790,-2300,639,-1087,5637,44,35,851
846955,9832592,11044648,9834098,11046514,908,1974,-2562,-1537,-2408,6022,-318,32767,44,35,851
847956,9832884,11044788,9834295,11046711,667,1924,1323,4887,-2896,8861,408,32767,61,19,851
848957,9833200,11044928,9834492,11046908,465,1949,3264,6765,-3043,3046,36,4011,61,19,851
849959,9833496,11045088,9834689,11047105,547,1841,3086,4814,-2880,3038,331,1524,67,29,850
850960,9833756,11045248,9834886,11047302,744,1857,2514,1961,-2692,3529,-724,192,67,29,850
851960,9834028,11045408,9835083,11047499,636,1873,1986,31,-2461,3885,-1506,1426,58,30,850
852961,9834352,11045568,9835280,11047696,255,1891,1617,-1173,-2246,3629,-1211,1082,58,30,850
853962,9834704,11045700,9835477,11047893,13,2094,1149,-2249,-2138,3923,-1814,1657,45,22,850
854963,9835012,11045832,9835674,11048090,239,2124,612,-3273,-2066,3626,-1825,1783,45,22,850
855964,9835288,11045976,9835871,11048287,405,2072,50,-4187,-1989,3018,-1800,2764,57,31,852
856965,9835636,11046120,9836068,11048484,-112,2096,-494,-4902,-1986,2922,-1773,2750,57,31,852
857967,9835960,11046240,9836265,11048681,-17,2280,-928,-5572,-2036,2638,-1226,3001,52,32,853
858967,9836268,11046388,9836462,11048878,34,2127,-1282,-5962,-2112,2675,-750,3774,52,32,853
859968,9836544,11046556,9836659,11049075,199,2015,-1579,-6318,-2248,2671,-652,3467,52,41,852
860969,9836828,11046744,9836856,11049272,111,1894,-1736,-6685,-2355,2468,-875,3881,52,41,852
861971,9837088,11046900,9837053,11049469,233,2113,-1785,-6700,-2432,2701,-345,4705,66,41,852
862971,9837280,11047032,9837250,11049666,660,2292,-1894,-6504,-2577,2756,852,5259,66,41,852
863972,9837504,11047148,9837447,11049863,448,2429,-2059,-6006,-2747,2320,1268,5865,50,22,851
864973,9837740,11047272,9837644,11050060,356,2411,-2138,-5514,-2891,1787,1437,5597,50,22,851
865981,9837984,11047384,9837874,11050290,300,2539,-2109,-5040,-2994,1320,1046,5983,36,19,851
866975,9838216,11047488,9838071,11050487,360,2629,-2088,-4161,-3033,576,433,7142,36,19,851
867976,9838444,11047600,9838268,11050684,371,2618,-2125,-3182,-3011,33,235,7130,42,17,850
868977,9838596,11047696,9838465,11050881,866,2763,-2222,-2236,-3009,-370,-127,6814,42,17,850
869978,9838820,11047764,9838662,11051078,404,2995,-2288,-1403,-2999,-1032,-821,6321,34,17,850
870979,9838996,11047828,9838859,11051275,713,3079,-2317,-845,-2934,-1102,-1316,5561,34,17,850
871980,9839188,11047920,9839056,11051472,615,2951,-2313,-582,-2785,-875,-1500,4584,53,16,847
872981,9839376,11047980,9839253,11051669,644,3212,-2262,-588,-2550,-877,-1381,3702,53,16,847
873982,9839584,11048040,9839450,11051866,515,3273,-2230,-752,-2289,-750,-1462,3164,36,23,846
874983,9839736,11048108,9839647,11052063,884,3281,-2199,-1039,-2045,-869,-1361,2699,36,23,846
875984,9839856,11048172,9839844,11052260,1118,3364,-2159,-1316,-1790,-1016,-1486,2778,25,20,844
876985,9840024,11048272,9840041,11052457,831,3183,-2133,-1489,-1520,-886,-2149,3051,25,20,844
877986,9840168,11048368,9840238,11052654,1004,3253,-2304,-1230,-1229,-843,-2824,4560,39,10,842
878987,9840308,11048488,9840435,11052851,1054,3138,-2616,-880,-875,-934,-3547,4067,39,10,842
879988,9840456,11048604,9840632,11053048,1026,3199,-2815,-968,-578,-752,-3362,2747,22,28,843
880989,9840640,11048716,9840829,11053245,807,3262,-3008,-1176,-281,-533,-3907,3501,22,28,843
881990,9840800,11048836,9841026,11053442,973,3247,-3303,-1067,108,-272,-4715,4187,19,28,844
882991,9840952,11048964,9841223,11053639,1043,3228,-3705,-835,549,1,-4952,4141,19,28,844
883992,9841124,11049112,9841420,11053836,929,3125,-4000,-836,945,136,-4569,3365,32,31,843
884993,9841276,11049244,9841617,11054033,1073,3255,-4125,-1050,1245,408,-4257,3228,32,31,843
885994,9841448,11049348,9841814,11054230,959,3472,-4155,-1207,1480,729,-4011,3962,39,18,843
886995,9841600,11049444,9842011,11054427,1104,3567,-2539,1673,1691,3317,-5103,30810,39,18,843
887996,9841760,11049572,9842208,11054624,1070,3399,190,6477,1936,3618,-6123,32767,30,33,842
888997,9841904,11049708,9842405,11054821,1194,3376,1401,7784,2133,1247,-2881,2808,30,33,842
889998,9842060,11049840,9842602,11055018,1138,3431,1053,6419,2254,1313,-2185,1558,21,26,842
890999,9842192,11049980,9842799,11055215,1316,3407,481,4472,2379,1845,-2644,265,21,26,842
892000,9842356,11050116,9842996,11055412,1131,3460,77,3218,2515,2059,-2575,1349,43,20,841
893001,9842512,11050344,9843193,11055609,1199,2872,-174,2529,2654,1933,-2022,1785,43,20,841
894002,9842708,11050696,9843390,11055806,949,2030,-394,1944,2677,2057,-1111,1764,32,43,842
895003,9842908,11051120,9843587,11056003,923,1481,-487,1178,2542,1579,205,1172,32,43,842
896004,9843124,11051460,9843784,11056200,815,1945,-508,88,2343,1954,635,1024,44,52,842
897005,9843288,11051764,9843981,11056397,1154,2123,-587,-655,2181,2713,542,1996,44,52,842
898006,9843468,11052060,9844178,11056594,1063,2130,-679,-1165,2145,2432,574,2425,31,63,845
899007,9843652,11052340,9844375,11056791,1043,2195,-719,-1513,2079,2136,512,2931,31,63,845
900008,9843844,11052612,9844572,11056988,995,2213,-703,-1753,1905,1769,383,3264,42,68,853
901009,9843988,11052920,9844769,11057185,1319,1940,-659,-1719,1683,1485,364,4158,42,68,853
902010,9844160,11053252,9844966,11057382,1155,1731,-631,-1477,1406,1636,212,4547,47,53,850
903011,9844336,11053596,9845163,11057579,1139,1593,-545,-1433,1096,1385,-287,3981,47,53,850
904012,9844512,11053956,9845360,11057776,1148,1421,-397,-1303,787,1007,-390,4732,41,61,849
905013,9844728,11054296,9845557,11057973,891,1484,-219,-1027,471,640,-348,4749,41,61,849
906014,9844920,11054632,9845754,11058170,1043,1449,-19,-856,155,425,-203,4381,50,65,850
907015,9845152,11054924,9845951,11058367,778,1683,223,-652,-106,461,-18,4369,50,65,850
908016,9845332,11055176,9846148,11058564,1110,1909,499,-766,-336,631,77,3416,38,77,851
909017,9845528,11055432,9846345,11058761,1011,1859,790,-970,-539,939,-202,3348,38,77,851
910018,9845656,11055692,9846542,11058958,1466,1807,1132,-1264,-680,893,-876,2891,35,59,853
911019,9845808,11055996,9846739,11059155,1336,1486,1520,-1802,-783,1158,-1591,2139,35,59,853
912020,9845944,11056240,9846936,11059352,1463,1841,1875,-2341,-879,1383,-533,2169,30,53,852
913021,9846068,11056504,9847133,11059549,1571,1687,2156,-2886,-897,1288,280,2056,30,53,852
914022,9846192,11056736,9847330,11059746,1603,1872,2335,-3421,-823,1412,-178,2035,37,59,851
915023,9846312,11056956,9847527,11059943,1661,1937,2406,-3970,-647,1304,-62,1889,37,59,851
916024,9846400,11057172,9847724,11060140,1909,1955,2420,-4403,-342,1294,-24,2405,41,54,851
917025,9846520,11057404,9847921,11060337,1744,1839,2401,-4643,36,1267,-176,2772,41,54,851
918026,9846704,11057600,9848118,11060534,1350,2066,2379,-4785,461,829,-243,3052,41,36,850
919027,9846848,11057820,9848315,11060731,1623,1907,2370,-4727,903,642,-212,3616,41,36,850
920028,9846972,11058044,9848512,11060928,1781,1870,2391,-4576,1344,740,-286,3580,42,39,846
921029,9847132,11058268,9848709,11061125,1573,1859,2396,-4163,1799,651,-358,4614,42,39,846
922030,9847264,11058504,9848906,11061322,1776,1767,2400,-3593,2262,321,-417,4699,23,37,847
923031,9847396,11058752,9849103,11061519,1805,1670,2419,-3196,2676,-45,-333,4166,23,37,847
924032,9847552,11059000,9849300,11061716,1674,1648,2442,-2807,3020,-339,-83,4294,44,46,849
925033,9847692,11059260,9849497,11061913,1799,1546,2466,-2200,3364,-564,-209,4756,44,46,849
926034,9847816,11059488,9849694,11062110,1931,1733,2486,-1452,3683,-764,-292,5129,44,48,849
927035,9847960,11059724,9849891,11062307,1830,1667,2522,-550,3973,-871,-373,5370,44,48,849
928036,9848084,11060052,9850088,11062504,1987,1034,2545,377,4210,-847,-474,5364,41,55,848
929037,9848212,11060336,9850285,11062701,1993,1272,2552,1262,4389,-781,-903,5206,41,55,848
930038,9848352,11060648,9850482,11062898,1944,1046,2589,1996,4487,-950,-411,4533,41,45,849
931039,9848480,11061016,9850679,11063095,2049,622,2652,2480,4474,-882,308,3607,41,45,849
932040,9848588,11061220,9850876,11063292,2214,1644,2633,2776,4357,-741,664,2970,28,53,847
933041,9848708,11061400,9851073,11063489,2173,1802,2521,2894,4223,-688,642,2370,28,53,847
934042,9848832,11061572,9851270,11063686,2181,1864,2360,2836,4072,-621,359,1791,29,54,849
935043,9848952,11061772,9851467,11063883,2240,1687,2227,2567,3882,-475,344,1075,29,54,849
936044,9849100,11061996,9851664,11064080,2087,1526,2132,2208,3586,-269,1072,552,25,45,851
937045,9849268,11062264,9851861,11064277,1975,1220,2007,1800,3209,-12,1438,415,25,45,851
938046,9849396,11062588,9852058,11064474,2256,814,1809,1445,2875,208,986,757,22,34,847
939047,9849552,11062908,9852255,11064671,2099,786,1526,1251,2647,359,578,1293,22,34,847
940048,9849704,11063132,9852452,11064868,2145,1374,1257,1109,2437,359,781,1071,43,56,847
941049,9849852,11063356,9852649,11065065,2192,1363,1075,805,2115,89,1233,370,43,56,847
942050,9850016,11063636,9852846,11065262,2107,977,930,336,1722,-153,1061,257,31,48,849
943051,9850176,11063908,9853043,11065459,2148,994,744,19,1386,-68,706,1117,31,48,849
944052,9850328,11064208,9853240,11065656,2219,774,457,95,1184,-34,242,2170,45,59,850
945053,9850500,11064576,9853437,11065853,2105,275,115,461,1032,-247,182,2456,45,59,850
946054,9850688,11064936,9853634,11066050,2010,253,-178,655,778,-515,804,1959,26,51,847
947055,9850872,11065288,9853831,11066247,2041,235,-394,675,424,-580,1344,1813,26,51,847
948057,9851032,11065584,9854028,11066444,2208,541,-609,738,84,-444,1476,2237,39,68,850
949066,9851240,11065880,9854258,11066674,1919,512,-890,1005,-161,-253,1381,2698,39,68,850
950058,9851440,11066172,9854455,11066871,1967,497,-1194,1276,-343,-154,1537,2719,54,58,852
951059,9851656,11066464,9854652,11067068,1860,455,-1448,1437,-538,-80,2006,2455,54,58,852
952060,9851864,11066752,9854849,11067265,1905,440,-1643,1511,-746,-31,2231,2472,40,47,851
953061,9852048,11066996,9855046,11067462,2062,694,-1810,1643,-921,98,2286,2791,40,47,851
954063,9852240,11067268,9855243,11067659,2014,486,-1969,1821,-1022,384,2241,3051,50,57,851
955063,9852432,11067620,9855440,11067856,2017,-82,-2098,2060,-1071,540,2466,3230,50,57,851
956064,9852612,11067912,9855637,11068053,2101,251,-2199,2312,-1128,500,2784,3269,55,62,853
957065,9852796,11068216,9855834,11068250,2082,129,-2287,2561,-1193,548,2751,3342,55,62,853
958066,9853000,11068512,9856031,11068447,1954,136,-2348,2808,-1225,633,2669,3696,51,61,851
959067,9853188,11068812,9856228,11068644,2058,66,-2424,3185,-1209,771,2546,4256,51,61,851
960068,9853368,11069132,9856425,11068841,2117,-113,-2510,3618,-1172,710,2565,4287,52,59,853
961069,9853580,11069328,9856622,11069038,1910,662,-2577,3930,-1133,644,2239,4193,52,59,853
962070,9853792,11069388,9856819,11069235,1905,1572,-2591,4256,-1069,639,1532,4378,40,64,852
963071,9853984,11069664,9857016,11069432,2033,188,-2577,4606,-1002,401,1645,4605,40,64,852
964072,9854200,11069928,9857213,11069629,1875,233,-2590,5037,-1008,104,2556,5023,54,62,851
965073,9854384,11070216,9857410,11069826,2081,43,-2649,5556,-1135,-118,3230,5400,54,62,851
966074,9854612,11070468,9857607,11070023,1793,244,-2259,6667,-1228,-834,2347,11308,52,50,852
967075,9854832,11070652,9857804,11070220,1834,675,-668,10499,-1017,-2635,346,32767,52,50,852
968076,9855048,11070836,9858001,11070417,1850,680,566,12864,-1017,-1134,2211,10310,46,48,852
969077,9855284,11071012,9858198,11070614,1709,739,635,12790,-1285,-666,2259,3284,46,48,852
970078,9855504,11071164,9858395,11070811,1800,908,69,11561,-1619,-618,1615,2237,47,38,853
971079,9855736,11071356,9858592,11071008,1710,661,-462,10352,-1955,-1068,1116,1665,47,38,853
972080,9855944,11071504,9858789,11071205,1856,957,-823,9316,-2299,-1897,802,1503,51,30,852
973081,9856164,11071612,9858986,11071402,1771,1246,-403,8110,-2604,-3611,3,7248,51,30,852
974082,9856412,11071692,9859183,11071599,1574,1473,2123,6759,-2428,-7818,-2732,27752,48,37,851
975083,9856624,11071772,9859380,11071796,1793,1524,3985,5666,-2284,-4750,-286,11820,48,37,851
976084,9856848,11071828,9859577,11071993,1707,1736,3610,4468,-2642,-2585,2047,1203,33,31,851
977085,9857084,11071880,9859774,11072190,1615,1825,2268,3228,-3264,-2350,2153,764,33,31,851
978086,9857292,11071928,9859971,11072387,1786,1915,1185,1797,-3734,-2252,1308,85,35,23,850
979087,9857520,11071988,9860168,11072584,1647,1900,498,352,-3936,-2043,69,638,35,23,850
980088,9857748,11072032,9860365,11072781,1635,2068,-50,-836,-3959,-2009,-237,1149,53,12,849
981089,9857988,11072072,9860562,11072978,1541,2163,-628,-2006,-3726,-1855,-1013,1156,53,12,849
982090,9858232,11072148,9860759,11073175,1496,1991,-1289,-2951,-3222,-1348,-1673,1750,35,19,848
983091,9858484,11072236,9860956,11073372,1422,1964,-1810,-4066,-2916,-1921,269,1158,35,19,848
984092,9858708,11072308,9861153,11073569,1586,2119,-2086,-5176,-2846,-2325,477,2039,37,23,847
985093,9858948,11072444,9861350,11073766,1467,1745,-1908,-6137,-2669,-3007,-1082,6135,37,23,847
986094,9859224,11072560,9861547,11073963,1208,1907,-1080,-6740,-2148,-3492,-2351,13664,37,28,846
987095,9859452,11072680,9861744,11074160,1495,1916,-748,-6554,-1575,-1543,-986,8782,37,28,846
988096,9859680,11072808,9861941,11074357,1482,1896,-1072,-6279,-1116,-1369,-292,5770,54,19,849
989097,9859952,11072904,9862138,11074554,1174,2142,-1558,-6004,-787,-1275,-171,5763,54,19,849
990098,9860212,11073016,9862335,11074751,1221,2079,-1869,-5758,-551,-1423,115,5588,41,22,850
991099,9860448,11073128,9862532,11074948,1355,2116,-1976,-5694,-392,-1472,90,4993,41,22,850
992100,9860724,11073236,9862729,11075145,1071,2180,-1978,-5674,-226,-1451,-315,4850,58,29,849
993101,9860968,11073332,9862926,11075342,1251,2301,-1957,-5648,-29,-1367,-151,4771,58,29,849
994102,9861180,11073484,9863123,11075539,1444,1971,-1959,-5544,183,-811,-413,5079,39,21,848
995103,9861400,11073624,9863320,11075736,1384,2072,-1895,-5367,383,-701,-327,4853,39,21,848
996104,9861664,11073768,9863517,11075933,1081,2070,-1745,-5353,507,-575,137,4440,62,21,847
997105,9861900,11073904,9863714,11076130,1239,2147,-1521,-5369,540,-162,121,4159,62,21,847
998106,9862112,11074052,9863911,11076327,1382,2094,-1256,-5550,556,10,-118,3745,43,26,846
999107,9862356,11074160,9864108,11076524,1162,2383,-959,-5700,577,284,-688,3535,43,26,846
1000108,9862584,11074296,9864305,11076721,1249,2236,-618,-5981,582,425,-1045,2978,47,38,848
1001109,9862792,11074412,9864502,11076918,1369,2397,-249,-6300,556,495,-1295,2869,47,38,848
1002110,9863008,11074540,9864699,11077115,1312,2353,132,-6557,491,577,-1496,2853,33,23,849
1003111,9863228,11074656,9864896,11077312,1277,2464,518,-6844,410,672,-1523,2674,33,23,849
1004112,9863428,11074756,9865093,11077509,1400,2607,907,-6981,353,985,-1617,3186,54,29,847
1005113,9863652,11074860,9865290,11077706,1239,2623,1285,-6930,328,1181,-1439,3404,54,29,847
1006114,9863848,11074976,9865487,11077903,1415,2585,1611,-6756,291,1181,-1376,3830,36,21,846
1007115,9864072,11075076,9865684,11078100,1228,2727,1874,-6358,209,1122,-1418,4232,36,21,846
1008116,9864284,11075176,9865881,11078297,1297,2771,2094,-5870,131,1133,-1540,4290,32,34,846
1009117,9864476,11075280,9866078,11078494,1425,2787,2257,-5201,101,1221,-1585,4886,32,34,846
1010118,9864660,11075388,9866275,11078691,1480,2802,2362,-4394,117,1140,-1538,5183,38,15,846
1011119,9864884,11075480,9866472,11078888,1219,2949,2464,-3639,120,1175,-1311,4816,38,15,846
1012120,9865088,11075564,9866669,11079085,1341,3049,2587,-2917,84,1263,-898,4540,48,28,845
1013121,9865296,11075636,9866866,11079282,1311,3180,2707,-2264,52,1349,-664,4378,48,28,845
1014122,9865500,11075724,9867063,11079479,1333,3129,2773,-1613,60,1643,-982,4280,50,20,844
1015123,9865748,11075796,9867260,11079676,1037,3284,2797,-1073,92,1751,-912,3676,50,20,844
1016124,9865964,11075872,9867457,11079873,1229,3313,2807,-670,123,1703,-640,3120,54,24,843
1017125,9866208,11075968,9867654,11080070,1033,3233,2819,-424,140,1739,-469,2663,54,24,843
1018126,9866404,11076080,9867851,11080267,1334,3171,2803,-255,171,1716,-548,2383,40,14,841
1019127,9866608,11076208,9868048,11080464,1281,3103,2743,-130,206,1760,-308,2134,40,14,841
1020128,9866860,11076308,9868245,11080661,957,3320,2656,-100,231,1766,-20,1652,52,21,841
1021129,9867136,11076432,9868442,11080858,772,3204,2536,-125,238,1575,-103,1596,52,21,841
1022130,9867380,11076568,9868639,11081055,953,3156,2370,-49,257,1307,-542,1708,57,19,842
1023131,9867600,11076744,9868836,11081252,1093,2917,2166,1,291,1154,-1182,1650,57,19,842
1024132,9867848,11076880,9869033,11081449,895,3194,1945,82,319,1028,-1446,1704,45,21,843
1025133,9868072,11077056,9869230,11081646,1033,2955,1683,115,332,888,-1112,1594,45,21,843
1026134,9868288,11077184,9869427,11081843,1076,3285,1374,217,321,836,-961,1650,50,30,844
1027135,9868512,11077324,9869624,11082040,1014,3236,1022,318,306,759,-1146,1609,50,30,844
1028136,9868724,11077460,9869821,11082237,1083,3289,659,378,295,692,-1458,1462,55,25,845
1029137,9868928,11077636,9870018,11082434,1130,3049,292,373,296,677,-1890,1307,55,25,845
1030138,9869140,11077800,9870215,11082631,1073,3139,-61,275,319,554,-2196,1168,35,33,844
1031139,9869332,11077964,9870412,11082828,1201,3155,-399,147,340,486,-2120,1196,35,33,844
1032147,9869512,11078132,9870642,11083058,1298,3158,-734,43,341,448,-1692,1163,52,24,843
1033141,9869700,11078268,9870839,11083255,1252,3386,-1082,-45,317,421,-1025,1265,52,24,843
1034142,9869860,11078444,9871036,11083452,1443,3146,-1453,-149,274,493,-632,1272,49,41,844
1035143,9870040,11078632,9871233,11083649,1326,3076,-1811,-300,229,542,-630,1128,49,41,844
1036144,9870208,11078812,9871430,11083846,1415,3135,-2158,-523,214,590,-1426,1076,37,32,843
1037145,9870368,11079036,9871627,11084043,1481,2849,-2472,-842,226,617,-2223,934,37,32,843
1038146,9870528,11079220,9871824,11084240,1497,3106,-2756,-1183,237,667,-2376,1101,42,46,842
1039147,9870716,11079376,9872021,11084437,1326,3300,-3040,-1383,224,690,-2066,1486,42,46,842
1040148,9870876,11079552,9872218,11084634,1518,3185,-3334,-1538,187,641,-1844,1800,28,30,841
1041149,9871044,11079740,9872415,11084831,1481,3115,-3620,-1610,148,623,-2133,2142,28,30,841
1042150,9871232,11079920,9872612,11085028,1360,3172,-3859,-1672,115,537,-2301,2275,36,36,842
1043151,9871416,11080084,9872809,11085225,1391,3288,-4056,-1734,75,458,-2277,2472,36,36,842
1044152,9871584,11080308,9873006,11085422,1504,2902,-4215,-1792,20,402,-2387,2737,47,47,841
1045153,9871796,11080520,9873203,11085619,1223,2971,-4361,-1800,-39,348,-2293,2850,47,47,841
1046154,9871972,11080776,9873400,11085816,1457,2671,-4495,-1820,-106,416,-2114,3072,45,36,842
1047155,9872160,11081004,9873597,11086013,1386,2834,-4613,-1845,-171,469,-2044,3122,45,36,842
1048156,9872324,11081256,9873794,11086210,1551,2661,-4688,-1930,-235,412,-1899,3222,43,45,841
1049157,9872496,11081516,9873991,11086407,1512,2584,-4742,-2046,-295,381,-2028,3331,43,45,841
1050158,9872672,11081756,9874188,11086604,1497,2691,-4773,-2192,-321,451,-2320,3311,29,53,845
1051159,9872840,11082020,9874385,11086801,1560,2513,-4769,-2343,-306,613,-2461,3442,29,53,845
1052160,9872980,11082296,9874582,11086998,1761,2404,-4739,-2540,-274,603,-2253,3488,47,58,843
1053161,9873160,11082564,9874779,11087195,1518,2424,-4659,-2759,-252,471,-1889,3749,47,58,843
1054162,9873332,11082824,9874976,11087392,1580,2447,-2852,-429,-188,1741,-1684,28098,43,44,845
1055163,9873548,11083084,9875173,11087589,1297,2420,1178,6106,-11,1503,-1937,32767,43,44,845
1056164,9873700,11083348,9875370,11087786,1716,2367,3529,8506,52,479,-1368,6359,43,56,845
1057165,9873868,11083632,9875567,11087983,1629,2204,3603,6913,57,905,-973,34,43,56,845
1058166,9874028,11083900,9875764,11088180,1696,2273,2928,3710,85,1521,-1341,-1804,39,49,846
1059167,9874184,11084168,9875961,11088377,1739,2243,2509,1379,210,1777,-1775,-724,39,49,846
1060168,9874336,11084424,9876158,11088574,1784,2293,2306,-128,501,1122,-2061,-173,29,54,847
1061169,9874512,11084692,9876355,11088771,1644,2188,2114,-1377,752,1028,-2209,125,29,54,847
1062170,9874684,11084940,9876552,11088968,1680,2291,1839,-2550,885,483,-1650,616,44,48,846
1063171,9874860,11085172,9876749,11089165,1665,2376,1549,-3787,957,-339,-986,931,44,48,846
1064172,9875028,11085396,9876946,11089362,1728,2415,1197,-4784,894,-443,-721,1672,25,49,846
1065173,9875200,11085616,9877143,11089559,1714,2431,796,-5576,816,-1076,-482,2504,25,49,846
1066174,9875344,11085816,9877340,11089756,1914,2555,364,-5887,801,-1431,-396,4064,26,51,847
1067175,9875520,11086028,9877537,11089953,1723,2474,-104,-5932,816,-1376,-396,4553,26,51,847
1068176,9875660,11086240,9877734,11090150,1973,2469,-482,-5942,897,-1732,-85,4851,36,46,846
1069177,9875820,11086444,9877931,11090347,1865,2517,-831,-5628,1036,-1798,47,6108,36,46,846
1070178,9876020,11086612,9878128,11090544,1614,2754,-1174,-5255,1203,-1872,242,6079,22,32,845
1071179,9876184,11086776,9878325,11090741,1854,2795,-1477,-4887,1370,-2235,904,6296,22,32,845
1072180,9876328,11086960,9878522,11090938,2003,2677,-1660,-4573,1495,-2439,1723,5835,34,39,845
1073181,9876496,11087136,9878719,11091135,1865,2737,-1747,-4543,1624,-2356,1918,5284,34,39,845
1074182,9876648,11087288,9878916,11091332,1986,2907,-1796,-4440,1888,-2288,1748,5818,28,44,843
1075183,9876784,11087424,9879113,11091529,2113,3034,-1788,-4359,2279,-2210,1800,5402,28,44,843
1076184,9876928,11087540,9879310,11091726,2087,3196,-1709,-4405,2704,-1974,1735,5153,22,40,843
1077185,9877064,11087672,9879507,11091923,2164,3126,-1557,-4443,3143,-2054,1532,5293,22,40,843
1078186,9877204,11087792,9879704,11092120,2165,3235,-1153,-4194,3547,-1635,1219,8355,22,24,842
1079187,9877348,11087924,9879901,11092317,2163,3189,-487,-3626,3830,-1087,1271,10403,22,24,842
1080188,9877520,11088052,9880098,11092514,2000,3245,17,-3604,4096,-1812,1104,4757,39,29,839
1081189,9877668,11088188,9880295,11092711,2172,3223,272,-3971,4388,-1728,545,4186,39,29,839
1082191,9877796,11088344,9880492,11092908,2328,3117,435,-4389,4698,-1559,-28,4261,31,38,839
1083191,9877952,11088496,9880689,11093105,2171,3163,600,-4573,5018,-1488,-526,4782,31,38,839
1084192,9878072,11088680,9880886,11093302,2431,2970,761,-4538,5282,-1238,-675,5033,41,37,838
1085193,9878212,11088852,9881083,11093499,2331,3057,919,-4559,5416,-937,-465,4612,41,37,838
1086194,9878332,11089020,9881280,11093696,2491,3094,1098,-4662,5437,-630,-348,4537,42,26,838
1087195,9878432,11089172,9881477,11093893,2659,3215,1268,-4767,5402,-236,-525,4397,42,26,838
1088196,9878560,11089352,9881674,11094090,2515,3049,1384,-4854,5344,162,-822,4670,22,32,839
1089197,9878680,11089556,9881871,11094287,2599,2897,1440,-4726,5240,605,-679,5208,22,32,839
1090198,9878816,11089776,9882068,11094484,2527,2787,1446,-4491,5087,1143,-640,5380,28,28,839
1091199,9878960,11089968,9882265,11094681,2501,2966,1433,-4172,4907,1671,-506,5508,28,28,839
1092200,9879092,11090184,9882462,11094878,2604,2808,1418,-3799,4681,2049,178,5715,38,30,836
1093201,9879232,11090408,9882659,11095075,2581,2747,1376,-3375,4377,2328,846,5861,38,30,836
1094202,9879332,11090632,9882856,11095272,2874,2737,1308,-2943,4032,2637,956,5737,19,50,838
1095203,9879448,11090856,9883053,11095469,2810,2725,1269,-2668,3699,3034,1101,5036,19,50,838
1096204,9879564,11091092,9883250,11095666,2846,2634,1270,-2590,3410,3482,790,4471,33,40,836
1097205,9879640,11091388,9883447,11095863,3150,2216,1321,-2723,3161,3766,576,3786,33,40,836
1098206,9879772,11091672,9883644,11096060,2829,2254,1414,-3009,2895,3844,407,3195,32,55,839
1099207,9879896,11091924,9883841,11096257,2912,2431,1514,-3316,2598,3994,402,3084,32,55,839
1100208,9880028,11092220,9884038,11096454,2892,2113,1597,-3559,2315,3965,244,3201,15,61,838
1101209,9880144,11092508,9884235,11096651,3028,2124,1639,-3535,2044,3498,-306,3851,15,61,838
1102210,9880240,11092820,9884432,11096848,3198,1924,1641,-3274,1829,3020,-958,4422,20,47,839
1103211,9880324,11093084,9884629,11097045,3323,2195,1632,-2924,1687,2809,-1138,4629,20,47,839
1104212,9880420,11093312,9884826,11097242,3294,2408,1632,-2471,1604,2911,-1027,4766,37,64,839
1105213,9880496,11093596,9885023,11097439,3473,2020,1640,-2013,1567,2853,-968,4725,37,64,839
1106214,9880568,11093912,9885220,11097636,3554,1768,1711,-1642,1514,2825,-627,4146,13,63,839
1107215,9880616,11094188,9885417,11097833,3770,1984,1804,-1295,1398,2505,-402,3998,13,63,839
1108216,9880692,11094416,9885614,11098030,3648,2272,1888,-944,1280,2277,-285,4023,29,47,837
1109217,9880772,11094672,9885811,11098227,3676,2071,1958,-586,1196,2392,-156,3988,29,47,837
1110218,9880868,11094904,9886008,11098424,3621,2206,2000,-100,1151,2308,-259,4172,21,54,837
1111219,9880992,11095216,9886205,11098621,3479,1657,2039,418,1126,1959,-292,4034,21,54,837
1112220,9881116,11095540,9886402,11098818,3512,1526,2106,834,1081,1600,-390,3648,21,48,835
1113221,9881276,11095828,9886599,11099015,3305,1712,2160,1276,1062,1247,-909,3960,21,48,835
1114222,9881432,11096068,9886796,11099212,3349,1994,2174,1852,1104,937,-1294,4171,32,54,835
1115230,9881576,11096336,9887026,11099442,3463,1802,2176,2483,1204,481,-1641,3958,32,54,835
1116224,9881692,11096644,9887223,11099639,3674,1505,2183,2977,1352,-11,-1747,3653,43,56,839
1117225,9881824,11096964,9887420,11099836,3604,1376,2201,3210,1500,-14,-1623,2983,43,56,839
1118226,9881944,11097252,9887617,11100033,3715,1537,2209,3280,1603,305,-1411,2305,37,60,839
1119240,9882032,11097520,9887814,11100230,3800,1630,2203,3231,1687,573,-1244,1817,37,60,839
1120228,9882172,11097816,9888011,11100427,3664,1413,2195,3051,1775,750,-966,1319,37,58,838
1121229,9882324,11098136,9888208,11100624,3610,1209,2213,2785,1896,730,-1039,1082,37,58,838
1122230,9882532,11098484,9888405,11100821,3256,969,2234,2613,2019,371,-1030,1330,30,49,839
1123231,9882812,11098788,9888602,11101018,2771,1196,2214,2611,2103,-97,-908,1643,30,49,839
1124232,9883064,11099108,9888799,11101215,2923,1043,2173,2611,2120,-445,-323,1403,34,53,837
1125233,9883320,11099444,9888996,11101412,2873,882,2151,2564,2097,-177,325,1261,34,53,837
1126234,9883596,11099748,9889193,11101609,2714,1036,2116,2584,2044,229,818,1374,65,69,840
1127235,9883860,11100108,9889390,11101806,2761,615,2065,2510,1946,175,1182,974,65,69,840
1128236,9884152,11100392,9889587,11102003,2545,1051,2041,2381,1811,134,1195,978,65,72,845
1129237,9884432,11100732,9889784,11102200,2584,640,2051,2325,1725,137,794,1117,65,72,845
1130239,9884660,11101096,9889981,11102397,2898,416,2045,2460,1751,144,146,1760,57,71,845
1131239,9884904,11101420,9890178,11102594,2778,610,2024,2672,1828,116,172,1852,57,71,845
1132241,9885204,11101692,9890375,11102791,2384,902,2032,2752,1844,370,640,1281,67,74,847
1133241,9885484,11102024,9890572,11102988,2473,469,2053,2837,1746,1061,1175,1223,67,74,847
1134242,9885780,11102368,9890769,11103185,2330,330,2069,2846,1630,1409,1416,1039,52,57,848
1135243,9886064,11102664,9890966,11103382,2368,586,2038,3048,1613,1072,737,1809,52,57,848
1136244,9886384,11102916,9891163,11103579,2090,837,1971,3366,1633,469,953,2000,55,55,847
1137245,9886696,11103248,9891360,11103776,2090,278,1912,3616,1575,749,1538,1630,55,55,847
1138246,9886988,11103584,9891557,11103973,2174,191,1855,3824,1429,1527,1867,1467,56,62,850
1139247,9887324,11103956,9891754,11104170,1839,-110,1789,4023,1326,1782,1684,1440,56,62,850
1140248,9887600,11104160,9891951,11104367,2181,936,1686,4217,1287,1560,1516,1667,76,66,849
1141249,9887912,11104416,9892148,11104564,1906,586,1570,4378,1243,1243,1805,1425,76,66,849
1142250,9888256,11104620,9892345,11104761,1642,907,1414,4568,1109,1465,2453,1413,68,44,851
1143251,9888568,11104744,9892542,11104958,1792,1440,1202,4789,916,1860,2641,1477,68,44,851
1144252,9888892,11104904,9892739,11105155,1662,1231,967,5054,731,1772,2568,1601,54,51,853
1145253,9889180,11105036,9892936,11105352,1848,1435,703,5333,506,1328,2803,1499,54,51,853
1146254,9889548,11105300,9893133,11105549,1273,581,417,5490,185,895,3176,1070,72,47,852
1147255,9889856,11105476,9893330,11105746,1600,1140,54,5703,-197,651,3241,1342,72,47,852
1148256,9890184,11105684,9893527,11105943,1419,935,-381,5871,-580,329,3229,1226,59,35,850
1149257,9890448,11105880,9893724,11106140,1789,1011,-862,5906,-986,61,3266,843,59,35,850
1150258,9890720,11105988,9893921,11106337,1707,1600,-1342,5843,-1412,-174,3247,648,60,42,849
1151259,9891064,11106168,9894118,11106534,1194,1157,-1854,5831,-1835,-245,3359,1001,60,42,849
1152260,9891340,11106368,9894315,11106731,1584,1031,-2462,6026,-2200,-369,3004,1527,51,48,850
1153261,9891624,11106576,9894512,11106928,1497,976,-3106,6066,-2540,-694,3119,667,51,48,850
1154262,9891928,11106812,9894709,11107125,1325,784,-3735,5810,-2971,-1033,2964,8,54,31,851
1155263,9892188,11106992,9894906,11107322,1573,1142,-4339,5235,-3466,-1540,2320,-574,54,31,851
1156264,9892472,11107164,9895103,11107519,1385,1203,-4876,4490,-3959,-1907,1463,-973,49,44,853
1157265,9892796,11107332,9895300,11107716,1080,1240,-5300,3636,-4386,-2037,490,-1323,49,44,853
1158266,9893068,11107552,9895497,11107913,1372,905,-5636,2739,-4655,-1864,-693,-1134,51,33,852
1159267,9893328,11107756,9895694,11108110,1420,1002,-5940,2032,-4697,-1737,-1673,-281,51,33,852
1160268,9893636,11107992,9895891,11108307,1071,785,-6223,1398,-4551,-1783,-2166,-68,66,43,852
1161269,9893880,11108204,9896088,11108504,1452,929,-6478,814,-4248,-1783,-2853,660,66,43,852
1162270,9894120,11108372,9896285,11108701,1458,1217,-6667,296,-3824,-2155,-3514,1102,64,44,852
1163271,9894400,11108512,9896482,11108898,1172,1417,-6743,-264,-3399,-2510,-3430,1122,64,44,852
1164272,9894656,11108660,9896679,11109095,1297,1389,-6706,-909,-3120,-2825,-2709,1146,59,32,853
1165273,9894912,11108780,9896876,11109292,1271,1598,-6578,-1713,-3010,-3056,-2036,1034,59,32,853
1166274,9895172,11108892,9897073,11109489,1219,1685,-6390,-2538,-2995,-3018,-1746,984,61,26,853
1167275,9895432,11109020,9897270,11109686,1191,1615,-6140,-3425,-2978,-3138,-1728,1317,61,26,853
1168276,9895712,11109172,9897467,11109883,1030,1485,-5883,-4163,-2895,-3035,-1665,2083,54,35,852
1169277,9895976,11109316,9897664,11110080,1101,1558,-5708,-4605,-2739,-2582,-1476,3100,54,35,852
1170278,9896264,11109448,9897861,11110277,911,1662,-5619,-4782,-2533,-2049,-1110,4038,44,20,851
1171279,9896560,11109584,9898058,11110474,818,1665,-5619,-4693,-2349,-1823,-924,5137,44,20,851
1172280,9896792,11109700,9898255,11110671,1203,1825,-5582,-4589,-2228,-1783,-1086,5066,48,22,850
1173281,9897044,11109796,9898452,11110868,1054,1995,-5605,-4366,-2153,-1178,-698,6119,48,22,850
1174282,9897284,11109912,9898649,11111065,1110,1905,-5583,-4247,-2113,-792,-818,5504,39,18,850
1175283,9897520,11110040,9898846,11111262,1118,1861,-5436,-4504,-2104,-506,-1122,4801,39,18,850
1176284,9897792,11110156,9899043,11111459,861,1972,-5186,-4840,-2106,51,-1225,5023,55,22,852
1177285,9898080,11110272,9899240,11111656,721,2008,-4612,-4961,-2120,1265,-923,7154,55,22,852
1178286,9898348,11110428,9899437,11111853,815,1776,-1303,384,-2504,9013,-18,32767,39,29,849
1179287,9898664,11110548,9899634,11112050,463,2035,2509,5615,-2934,6444,-60,27605,39,29,849
1180288,9898908,11110696,9899831,11112247,893,1882,3616,6043,-2877,2982,-561,3060,63,24,850
1181289,9899188,11110852,9900028,11112444,632,1850,3144,3628,-2516,3461,-504,1100,63,24,850
1182290,9899464,11110960,9900225,11112641,622,2189,2543,765,-2344,3932,-292,-142,65,25,851
1183291,9899776,11111096,9900422,11112838,346,2042,2253,-958,-2262,3626,-1027,1014,65,25,851
1184292,9900112,11111192,9900619,11113035,135,2336,1949,-2214,-2149,3309,-1573,1577,65,18,850
1185293,9900456,11111272,9900816,11113232,21,2488,1487,-3046,-2064,3573,-2013,2438,65,18,850
1186294,9900716,11111384,9901013,11113429,518,2326,987,-3941,-1963,2882,-1935,2490,66,30,852
1187295,9901028,11111508,9901210,11113626,142,2283,461,-4653,-1895,2382,-2135,3292,66,30,852
1188296,9901372,11111604,9901407,11113823,-122,2503,21,-5228,-1957,2107,-1827,3305,71,16,851
1189297,9901668,11111688,9901604,11114020,134,2628,-358,-5671,-2077,1531,-1534,4158,71,16,851
1190298,9901932,11111812,9901801,11114217,305,2410,-784,-5578,-2189,1361,-2143,5584,48,24,850
1191299,9902224,11111948,9901998,11114414,88,2363,-1204,-5377,-2268,1040,-2549,5308,48,24,850
1192300,9902440,11112072,9902195,11114611,555,2470,-1504,-5173,-2354,770,-2659,5396,45,22,850
1193301,9902676,11112160,9902392,11114808,413,2744,-1671,-5003,-2510,647,-2245,5103,45,22,850
1194302,9902904,11112268,9902589,11115005,449,2658,-1902,-4797,-2689,246,-1746,5751,63,26,847
1195303,9903108,11112332,9902786,11115202,596,2993,-2205,-4307,-2787,-119,-1646,6065,63,26,847
1196304,9903384,11112412,9902983,11115399,111,2944,-2391,-4005,-2834,-391,-1063,5093,42,20,849
1197305,9903636,11112480,9903180,11115596,237,3077,-2492,-3783,-2839,-550,-607,5379,42,20,849
1198313,9903836,11112528,9903410,11115826,575,3282,-2565,-3410,-2755,-1036,-711,5650,34,21,847
1199307,9904096,11112592,9903607,11116023,173,3241,-2677,-3015,-2604,-1530,-1040,5715,34,21,847
1200308,9904304,11112656,9903804,11116220,493,3301,-2821,-2516,-2392,-1674,-1634,5859,54,6,845
1201309,9904532,11112728,9904001,11116417,354,3306,-2917,-2128,-2135,-1756,-1740,5347,54,6,845
1202310,9904696,11112796,9904198,11116614,769,3388,-2912,-2059,-1845,-1855,-1744,4486,39,7,845
1203311,9904880,11112904,9904395,11116811,648,3178,-2844,-2166,-1575,-1790,-1123,4220,39,7,845
1204312,9905048,11113004,9904592,11117008,761,3272,-2743,-2368,-1263,-1646,-949,3907,50,11,844
1205313,9905208,11113116,9904789,11117205,827,3234,-2685,-2518,-849,-1336,-1236,4143,50,11,844
1206314,9905348,11113216,9904986,11117402,977,3353,-2648,-2626,-392,-1396,-1409,4062,47,27,842
1207315,9905524,11113348,9905183,11117599,762,3183,-2608,-2791,48,-1279,-1593,3972,47,27,842
1208316,9905660,11113512,9905380,11117796,1038,2998,-2604,-2805,411,-1094,-1756,4302,39,24,844
1209317,9905796,11113708,9905577,11117993,1065,2799,-2658,-2717,719,-973,-1992,4501,39,24,844
1210319,9905976,11113968,9905774,11118190,798,2372,-2720,-2623,1023,-466,-2092,4269,36,21,843
1211319,9906120,11114232,9905971,11118387,1046,2318,-2654,-2888,1301,364,-1398,3079,36,21,843
1212320,9906280,11114520,9906168,11118584,962,2129,-2482,-3360,1566,1470,-767,2786,40,36,844
1213321,9906440,11114796,9906365,11118781,979,2171,-2351,-3691,1797,2498,-259,3358,40,36,844
1214322,9906556,11115068,9906562,11118978,1289,2163,-2346,-3726,1963,3166,327,4324,36,50,846
1215323,9906684,11115284,9906759,11119175,1244,2505,-2396,-3460,2066,3580,460,5017,36,50,846
1216324,9906860,11115512,9906956,11119372,954,2418,-2359,-3102,2092,4013,560,4729,21,61,847
1217325,9907012,11115736,9907153,11119569,1123,2432,-2264,-2789,2025,4280,618,4766,21,61,847
1218326,9907176,11116004,9907350,11119766,1063,2126,-2163,-2526,1900,4445,547,4867,21,55,847
1219327,9907380,11116332,9907547,11119963,810,1694,-2077,-2223,1735,4597,488,4993,21,55,847
1220328,9907528,11116620,9907744,11120160,1181,1905,-1990,-1869,1540,4545,228,5003,39,62,847
1221329,9907648,11116892,9907941,11120357,1390,1972,-1892,-1483,1300,4405,17,5100,39,62,847
1222330,9907776,11117108,9908138,11120554,1371,2315,-1823,-1048,989,4450,-187,5351,44,57,847
1223331,9907964,11117304,9908335,11120751,1000,2441,-1786,-577,622,4786,-127,5329,44,57,847
1224332,9908120,11117592,9908532,11120948,1218,1826,-1751,-130,275,5145,-470,5215,39,45,851
1225333,9908300,11117880,9908729,11121145,1075,1787,-1711,265,-36,5398,-699,5004,39,45,851
1226334,9908472,11118132,9908926,11121342,1136,1989,-1654,586,-333,5329,-958,4818,40,58,849
1227335,9908660,11118412,9909123,11121539,1040,1778,-1540,888,-592,5042,-1326,4541,40,58,849
1228336,9908836,11118696,9909320,11121736,1125,1715,-1389,1105,-759,4712,-1859,4481,39,56,847
1229337,9909036,11118980,9909517,11121933,974,1677,-1231,1239,-865,4630,-1920,4291,39,56,847
1230338,9909224,11119272,9909714,11122130,1053,1586,-1083,1312,-939,4666,-1895,4047,37,62,851
1231339,9909416,11119524,9909911,11122327,1030,1813,-926,1237,-1003,4609,-1717,3441,37,62,851
1232340,9909600,11119760,9910108,11122524,1086,1896,-753,1065,-1061,4391,-1524,3050,40,57,851
1233341,9909764,11120004,9910305,11122721,1225,1826,-598,851,-1099,4081,-1291,3054,40,57,851
1234342,9909936,11120272,9910502,11122918,1186,1645,-469,681,-1100,3715,-1420,3232,35,59,852
1235343,9910084,11120532,9910699,11123115,1358,1669,-352,599,-1049,3350,-1907,3283,35,59,852
1236344,9910256,11120756,9910896,11123312,1219,1882,-211,508,-982,2874,-1931,3224,37,52,851
1237345,9910428,11120976,9911093,11123509,1230,1898,-73,386,-953,2326,-1239,3286,37,52,851
1238346,9910592,11121192,9911290,11123706,1295,1914,51,311,-928,1861,-1174,3362,26,53,849
1239347,9910772,11121368,9911487,11123903,1203,2175,150,329,-851,1378,-1144,3488,26,53,849
1240348,9910936,11121584,9911684,11124100,1317,1916,218,402,-716,907,-1152,3701,23,48,849
1241349,9911100,11121776,9911881,11124297,1332,2069,290,451,-527,432,-1159,3667,23,48,849
1242350,9911240,11121968,9912078,11124494,1507,2072,378,523,-299,58,-1194,3740,36,49,850
1243351,9911384,11122140,9912275,11124691,1505,2209,501,640,-58,-422,-1200,3851,36,49,850
1244352,9911520,11122308,9912472,11124888,1582,2246,660,824,207,-976,-1412,4082,36,46,848
1245353,9911648,11122480,9912669,11125085,1663,2232,807,1133,500,-1412,-1498,4447,36,46,848
1246354,9911768,11122668,9912866,11125282,1747,2137,955,1457,809,-1796,-1475,4352,31,29,848
1247355,9911864,11122844,9913063,11125479,1941,2221,1107,1742,1112,-2077,-1409,4236,31,29,848
1248356,9911968,11123024,9913260,11125676,1932,2205,1244,1935,1409,-2333,-1393,4025,40,37,847
1249357,9912128,11123212,9913457,11125873,1600,2159,1350,1998,1713,-2575,-1224,3783,40,37,847
1250358,9912284,11123432,9913654,11126070,1643,1950,1424,2068,2045,-2815,-1022,3726,21,27,845
1251359,9912444,11123660,9913851,11126267,1634,1886,1494,2086,2427,-2905,-860,3632,21,27,845
1252360,9912588,11123852,9914048,11126464,1757,2114,1551,2114,2839,-2833,-849,3632,44,49,845
1253361,9912728,11124064,9914245,11126661,1808,1983,1602,2134,3269,-2792,-630,3619,44,49,845
1254362,9912892,11124308,9914442,11126858,1673,1763,1640,2086,3691,-2708,-566,3435,25,54,846
1255363,9913024,11124560,9914639,11127055,1901,1689,1665,1958,4085,-2559,-535,3214,25,54,846
1256364,9913156,11124812,9914836,11127252,1930,1666,1680,1817,4451,-2406,-565,3154,23,41,847
1257365,9913308,11125076,9915033,11127449,1826,1561,1658,1662,4769,-2188,-692,3092,23,41,847
1258366,9913448,11125324,9915230,11127646,1926,1640,1617,1445,5047,-1911,-892,2994,25,55,847
1259367,9913572,11125604,9915427,11127843,2058,1403,1549,1189,5280,-1575,-808,2902,25,55,847
1260368,9913708,11125892,9915624,11128040,2010,1314,1436,927,5411,-1239,-423,2903,41,44,847
1261369,9913856,11126180,9915821,11128237,1957,1274,1282,617,5438,-892,-404,2864,41,44,847
1262370,9913976,11126572,9916018,11128434,2167,540,1100,359,5399,-651,-29,3023,34,65,847
1263371,9914104,11126788,9916215,11128631,2147,1631,892,104,5316,-344,325,3123,34,65,847
1264372,9914232,11126964,9916412,11128828,2178,1891,699,-101,5213,-59,214,3226,26,61,848
1265373,9914352,11127168,9916609,11129025,2262,1714,536,-234,5097,224,-535,3411,26,61,848
1266374,9914496,11127380,9916806,11129222,2136,1657,406,-348,4963,652,-1033,3542,33,42,849
1267375,9914640,11127632,9917003,11129419,2160,1383,300,-431,4814,1060,-487,3743,33,42,849
1268376,9914812,11127956,9917200,11129616,1996,878,191,-462,4624,1301,1055,3916,39,46,847
1269377,9914972,11128284,9917397,11129813,2088,795,92,-422,4411,1580,1470,4141,39,46,847
1270378,9915140,11128628,9917594,11130010,2051,631,55,-396,4219,1815,1893,4037,27,43,846
1271379,9915288,11128828,9917791,11130207,2197,1530,188,-306,4037,2128,2067,4856,27,43,846
1272380,9915476,11129004,9917988,11130404,1952,1690,815,673,3786,3488,2241,13419,31,58,847
1273381,9915656,11129392,9918185,11130601,2010,281,1498,1508,3516,2611,1751,7929,31,58,847
1274382,9915824,11129624,9918382,11130798,2099,1240,1711,1471,3309,1650,989,3197,46,61,850
1275383,9915996,11130020,9918579,11130995,2085,128,1688,1052,3156,1479,436,3212,46,61,850
1276385,9916176,11130464,9918776,11131192,2043,-280,1629,695,2965,1252,606,3400,31,56,847
1277385,9916352,11130768,9918973,11131389,2077,548,1602,701,2693,732,1333,3689,31,56,847
1278386,9916524,11131104,9919170,11131586,2114,287,1574,720,2386,251,1419,3687,46,56,851
1279387,9916732,11131384,9919367,11131783,1884,601,1507,859,2076,-28,1118,4058,46,56,851
1280388,9916912,11131696,9919564,11131980,2068,350,1442,998,1787,-488,1098,3977,44,69,851
1281398,9917108,11132004,9919794,11132210,1983,341,1385,1123,1499,-773,1127,3948,44,69,851
1282390,9917272,11132344,9919991,11132407,2198,78,1285,1293,1204,-960,1264,4166,39,63,850
1283391,9917436,11132620,9920188,11132604,2213,443,1152,1464,960,-1101,1583,4009,39,63,850
1284392,9917608,11132936,9920385,11132801,2175,141,1039,1578,731,-1162,2051,3593,35,56,851
1285393,9917792,11133224,9920582,11132998,2106,276,973,1461,508,-1370,2247,2998,35,56,851
1286394,9917936,11133548,9920779,11133195,2380,-5,916,1284,335,-1348,2409,3044,47,63,852
1287395,9918096,11133908,9920976,11133392,2296,-301,870,1127,173,-1321,2785,2867,47,63,852
1288396,9918272,11134200,9921173,11133589,2206,82,837,1001,71,-1261,2642,3071,36,71,851
1289397,9918460,11134556,9921370,11133786,2136,-388,780,990,63,-1153,2285,3513,36,71,851
1290398,9918632,11134876,9921567,11133983,2247,-217,730,1029,83,-1115,2265,3449,30,68,851
1291399,9918844,11135172,9921764,11134180,1992,-111,726,1169,79,-1099,1929,3698,30,68,851
1292400,9919036,11135400,9921961,11134377,2119,300,759,1294,28,-1127,2252,3662,44,70,850
1293401,9919216,11135580,9922158,11134574,2202,607,752,1407,-9,-931,1818,3960,44,70,850
1294402,9919440,11135748,9922355,11134771,1916,695,716,1786,52,-697,776,4496,39,67,850
1295403,9919636,11135972,9922552,11134968,2092,333,704,2157,74,-773,1571,4318,39,67,850
1296404,9919824,11136168,9922749,11135165,2146,509,685,2551,-65,-836,3059,4568,46,48,852
1297405,9920028,11136404,9922946,11135362,2044,241,608,3139,-256,-828,3505,5274,46,48,852
1298406,9920236,11136604,9923143,11135559,2015,464,453,3880,-435,-960,3055,5622,53,66,850
1299407,9920444,11136788,9923340,11135756,2010,570,226,4744,-669,-1466,2568,5907,53,66,850
1300408,9920688,11136972,9923537,11135953,1766,576,-42,5586,-936,-2191,1941,5624,54,48,851
1301409,9920908,11137104,9923734,11136150,1905,929,-351,6070,-1289,-2591,1443,4694,54,48,851
1302410,9921136,11137196,9923931,11136347,1843,1224,-654,6229,-1755,-2799,587,3881,43,47,852
1303411,9921356,11137288,9924128,11136544,1883,1271,-938,6112,-2246,-2779,48,3094,43,47,852
1304412,9921584,11137352,9924325,11136741,1820,1504,-1290,5750,-2761,-2711,641,2300,59,21,851
1305413,9921808,11137408,9924522,11136938,1833,1616,-1706,5014,-3273,-2688,1591,1265,59,21,851
1306414,9922044,11137456,9924719,11137135,1742,1731,-2103,4089,-3763,-2636,1314,975,41,16,849
1307415,9922296,11137520,9924916,11137332,1618,1690,-2455,3137,-4203,-2473,926,897,41,16,849
1308417,9922504,11137584,9925113,11137529,1889,1748,-2763,2195,-4481,-2548,-267,1080,38,23,849
1309418,9922740,11137672,9925310,11137726,1697,1646,-3023,1293,-4598,-2473,-1349,1188,38,23,849
1310419,9922976,11137764,9925507,11137923,1681,1667,-3230,380,-4631,-2243,-1996,1354,52,9,848
1311419,9923180,11137852,9925704,11138120,1878,1740,-3186,-516,-4556,-2289,-2512,2889,52,9,848
1312420,9923420,11137940,9925901,11138317,1635,1788,-1324,-576,-4077,-4363,-4283,23034,54,11,849
1313421,9923672,11138040,9926098,11138514,1536,1756,2296,404,-3275,-4509,-4193,32767,54,11,849
1314422,9923916,11138136,9926295,11138711,1566,1825,4310,753,-2709,-1752,-1572,10164,50,28,848
1315423,9924144,11138232,9926492,11138908,1652,1870,4078,79,-2411,-862,-691,2429,50,28,848
1316424,9924424,11138368,9926689,11139105,1292,1646,3090,-756,-2186,-691,-785,2762,48,13,846
1317425,9924680,11138484,9926886,11139302,1416,1807,2272,-1247,-1853,-730,-868,3724,48,13,846
1318426,9924944,11138608,9927083,11139499,1337,1789,1505,-1025,-1393,-343,-1116,5394,42,22,849
