"Data file recorded 2014/9/24  13:55:55"
"%  Right Stride Frequency         = 5.0"
"%  Left Stride Frequency         = 5.0"
"%  Phase (Fractional)         = 32768.0"
"%  Experiment.py "
"%  Motor Gains    = [1800, 200, 100, 0, 0, 1800, 200, 100, 0, 0]
"% Columns: "
"% time | Right Leg Pos | Left Leg Pos | Commanded Right Leg Pos | Commanded Left Leg Pos | DCR | DCL | GyroX | GryoY | GryoZ | AX | AY | AZ | RBEMF | LBEMF | VBatt "
10848,8289464,9045744,8258323,9077523,-3800,3800,500,756,-1145,10,-241,4071,0,-4,897
11849,8289456,9045728,8258650,9077850,-3800,3800,502,754,-1144,22,-270,4083,0,-4,897
12850,8289412,9045756,8258977,9078177,-3800,3800,503,753,-1146,27,-279,4099,-22,-4,862
13851,8289312,9045844,8259304,9078504,-3800,3800,503,770,-1140,27,-311,4075,-22,-4,862
14852,8289108,9045940,8259631,9078831,-3800,3800,503,783,-1147,-14,-293,4044,-48,13,854
15853,8288852,9046044,8259958,9079158,-3800,3800,487,727,-1156,4,-427,4103,-48,13,854
16854,8288528,9046164,8260285,9079485,-3800,3800,449,719,-1149,34,-460,4100,-57,19,855
17855,8288128,9046300,8260612,9079812,-3800,3800,384,710,-1111,121,-789,4154,-57,19,855
18856,8287712,9046476,8260939,9080139,-3800,3800,306,719,-1043,218,-1244,4045,-95,10,857
19857,8287296,9046648,8261266,9080466,-3800,3800,209,669,-972,286,-1068,3987,-95,10,857
20858,8286796,9046812,8261593,9080793,-3800,3800,99,691,-894,339,-1026,4281,-99,33,857
21859,8286324,9046984,8261920,9081120,-3800,3800,-7,744,-797,354,-1049,4441,-99,33,857
22860,8285904,9047180,8262247,9081447,-3800,3800,-113,833,-691,371,-1051,4546,-101,31,858
23861,8285368,9047332,8262574,9081774,-3800,3800,-239,968,-572,245,-1315,4727,-101,31,858
24862,8284880,9047480,8262901,9082101,-3800,3800,-385,1238,-430,-51,-1776,5079,-99,18,857
25863,8284336,9047620,8263228,9082428,-3800,3800,-556,1564,-258,-357,-2291,5116,-99,18,857
26864,8283728,9047724,8263555,9082755,-3800,3800,-750,1877,-30,-546,-2650,5173,-113,19,856
27865,8283132,9047844,8263882,9083082,-3800,3800,-977,2151,186,-800,-2276,5051,-113,19,856
28866,8282528,9047964,8264209,9083409,-3800,3800,-1170,2201,326,-1098,-1763,4493,-128,16,858
29854,8281828,9048076,8264536,9083736,-2981,3800,-1307,2156,417,-1441,-1624,4210,-128,16,858
30855,8281164,9048188,8264863,9084063,-2774,3800,-1399,1924,502,-1626,-1386,3798,-143,4,859
31856,8280520,9048320,8265190,9084390,-2475,3800,-1492,1668,530,-1686,-573,3652,-143,4,859
32857,8279880,9048480,8265517,9084717,-2078,3800,-1556,1337,514,-1823,-343,3417,-122,13,864
33858,8279140,9048648,8265844,9085044,-986,3800,-1554,960,506,-1867,-820,3360,-122,13,864
34859,8278512,9048820,8266171,9085371,-1270,3800,-1513,567,506,-1975,-1224,3455,-118,21,866
35860,8277840,9049016,8266498,9085698,-558,3800,-1427,151,519,-2101,-1192,3404,-118,21,866
36861,8277152,9049208,8266825,9086025,-14,3800,-1297,-205,527,-2138,-809,3684,-122,41,870
37862,8276564,9049432,8267152,9086352,-239,3800,-1133,-519,540,-2221,-146,3570,-122,41,870
38863,8275912,9049648,8267479,9086679,590,3800,-1001,-870,557,-2141,300,3644,-106,41,873
39863,8275372,9049872,8267806,9087006,269,3800,-889,-1263,579,-1924,510,3370,-106,41,873
40865,8274900,9050088,8268133,9087333,194,3800,-768,-1786,599,-1845,772,3132,-112,42,872
41865,8274488,9050320,8268460,9087660,141,3800,-631,-2303,589,-1945,1053,3216,-112,42,872
42867,8273984,9050560,8268787,9087987,1081,3800,-465,-2814,538,-1912,1400,3248,-106,33,873
43867,8273608,9050808,8269114,9088314,589,3800,-239,-3336,443,-1691,1679,3130,-106,33,873
44868,8273304,9051116,8269441,9088641,415,3800,51,-3864,286,-1503,1633,3094,-65,58,871
45870,8273032,9051440,8269768,9088968,478,3800,394,-4492,73,-1490,1165,3003,-65,58,871
46871,8272756,9051764,8270095,9089295,767,3800,697,-5042,-124,-1333,754,3368,-50,64,872
47872,8272496,9052120,8270422,9089622,925,3800,937,-5442,-276,-961,645,3733,-50,64,872
48873,8272272,9052476,8270749,9089949,941,3800,1101,-5776,-330,-423,380,4047,-57,59,872
49874,8272084,9052872,8271076,9090276,943,3800,1244,-5940,-287,-148,305,4386,-57,59,872
50875,8271952,9053320,8271403,9090603,794,3800,1395,-6152,-223,168,722,3914,-36,74,873
51876,8271860,9053740,8271730,9090930,728,3800,1546,-6483,-240,766,1421,3716,-36,74,873
52877,8271812,9054160,8272057,9091257,618,3800,1694,-6770,-308,1036,1815,3861,-21,88,873
53878,8271804,9054596,8272384,9091584,515,3800,1805,-6888,-364,980,1632,4374,-21,88,873
54879,8271804,9055052,8272711,9091911,609,3800,1861,-6920,-337,1288,428,4675,12,76,874
55880,8271808,9055560,8273038,9092238,726,3800,1878,-6782,-243,1539,273,5003,12,76,874
56881,8271788,9056012,8273365,9092565,1029,3800,1815,-6513,-117,1819,122,5086,18,75,874
57882,8271828,9056440,8273692,9092892,780,3800,1695,-6347,20,2146,-229,4813,18,75,874
58883,8271868,9056896,8274019,9093219,907,3800,1562,-6297,146,2234,-90,4537,6,80,872
59891,8271896,9057336,8274380,9093580,2834,3800,1467,-6321,269,2476,-170,4287,6,80,872
60885,8271912,9057752,8274707,9093907,3047,3800,1399,-6400,379,2572,-446,4062,10,82,874
61886,8272028,9058252,8275034,9094234,2514,3800,1365,-6530,468,2513,-433,3817,10,82,874
62887,8272260,9058652,8275361,9094561,1832,3800,1347,-6677,513,2672,-207,3719,40,75,862
63888,8272496,9059056,8275688,9094888,1847,3800,1310,-6765,552,3008,-303,3858,40,75,862
64889,8272764,9059408,8276015,9095215,1674,3800,1251,-6706,619,3324,-335,4055,59,77,868
65890,8273012,9059860,8276342,9095542,1835,3800,1193,-6592,708,3528,-282,4137,59,77,868
66891,8273252,9060320,8276669,9095869,1923,3800,1156,-6474,790,3554,-201,4326,58,93,870
67892,8273448,9060728,8276996,9096196,2257,3800,1130,-6224,854,3441,-67,4520,58,93,870
68893,8273740,9061220,8277323,9096523,1673,3800,1110,-5916,912,3461,98,4476,63,99,868
69894,8274012,9061692,8277650,9096850,1822,3800,1129,-5672,956,3259,372,4318,63,99,868
70895,8274304,9062180,8277977,9097177,1714,3800,1207,-5427,983,3073,575,4566,57,87,870
71896,8274588,9062760,8278304,9097504,1784,3800,1279,-5079,977,3113,970,4882,57,87,870
72897,8274844,9063336,8278631,9097831,1990,3800,1369,-4467,1076,3262,559,5845,48,105,871
73898,8275084,9063936,8278958,9098158,2129,3800,1428,-3523,1242,3354,881,6590,48,105,871
74899,8275372,9064556,8279285,9098485,1847,3800,1462,-2427,1313,3375,1772,6791,47,125,870
75900,8275592,9065216,8279612,9098812,2320,3800,1512,-1327,1236,3006,2420,6761,47,125,870
76901,8275820,9065892,8279939,9099139,2314,3800,1561,-301,1040,2626,2604,6677,46,143,871
77902,8276068,9066700,8280266,9099466,2224,3800,1598,806,730,2504,3629,7180,46,143,871
78903,8276316,9067424,8280593,9099793,2260,3800,1603,2046,413,2636,3824,7590,44,146,870
79904,8276536,9068296,8280920,9100120,2483,3800,1585,3287,156,2894,3502,7339,44,146,870
80905,8276796,9069108,8281247,9100447,2264,3800,1528,4494,-95,3087,3725,7535,47,158,870
81906,8277028,9070032,8281574,9100774,2480,3800,1430,5861,-340,3097,3346,7962,47,158,870
82907,8277288,9070952,8281901,9101101,2336,3800,1394,7034,-537,3087,2731,6728,68,176,870
83908,8277548,9071944,8282228,9101428,2366,3800,1502,7626,-733,3022,2561,4872,68,176,870
84909,8277808,9072948,8282555,9101755,2397,3800,1760,7762,-872,2904,1833,3707,55,193,871
85910,8278068,9073960,8282882,9102082,2427,3800,2129,7552,-924,2946,1325,2415,55,193,871
86911,8278396,9074888,8283209,9102409,2003,3800,2606,7076,-923,2957,1068,1296,73,182,871
87912,8278692,9075860,8283536,9102736,2217,3800,3115,6614,-852,2875,103,1432,73,182,871
88913,8278984,9077020,8283863,9103063,2259,3800,3515,6383,-782,2697,-795,2044,64,181,871
89914,8279328,9077932,8284190,9103390,1927,3800,3683,6579,-768,2455,-1772,3483,64,181,871
90915,8279628,9078836,8284517,9103717,2215,3800,3609,7441,-712,2335,-3118,5392,68,194,872
91916,8279928,9079912,8284844,9104044,2227,3800,3428,8603,-735,2061,-2873,5610,68,194,872
92917,8280228,9080836,8285171,9104371,2240,3800,3472,9559,-937,1614,-2568,4224,67,187,874
93918,8280580,9081776,8285498,9104698,1905,3800,3742,10143,-1351,1359,-2185,3305,67,187,874
94918,8280916,9082824,8285825,9105025,2002,3800,4004,10730,-1847,1420,-2667,3853,83,185,873
95920,8281236,9083748,8286152,9105352,2106,3800,3997,11793,-2216,1853,-3763,5365,83,185,873
96921,8281584,9084584,8286479,9105679,1923,3800,3875,12909,-2459,2469,-3772,4352,64,188,875
97922,8281912,9085516,8286806,9106006,2048,3800,3842,13587,-2786,2544,-2962,3043,64,188,875
98923,8282260,9086404,8287133,9106333,1915,3800,3960,13879,-3221,2474,-2399,2264,72,178,873
99924,8282620,9087364,8287460,9106660,1826,3800,4085,14113,-3710,2489,-1966,2165,72,178,873
100925,8282956,9088252,8287787,9106987,1973,3800,4102,14484,-4219,2360,-1952,2502,64,183,875
101926,8283264,9089136,8288114,9107314,2158,3800,4039,14899,-4765,2261,-1922,2246,64,183,875
102927,8283596,9090052,8288441,9107641,2007,3800,3889,15191,-5438,2076,-1210,1845,73,176,874
103928,8283900,9090884,8288768,9107968,2193,3800,3664,15348,-6252,1594,-868,1327,73,176,874
104929,8284160,9091720,8289095,9108295,2498,3800,3380,15135,-7207,1390,-800,167,73,164,874
105929,8284432,9092488,8289422,9108622,2448,3800,3059,14577,-8252,1292,-1029,-759,73,164,874
106930,8284648,9093220,8289749,9108949,2847,3800,2766,13696,-9274,1061,362,-1543,61,138,871
107931,8284848,9093872,8290076,9109276,3004,3800,2525,12642,-10134,1063,728,-2135,61,138,871
108932,8285088,9094616,8290403,9109603,2793,3800,2312,11465,-10624,1155,-731,-2280,36,147,868
109941,8285308,9095384,8290764,9109964,2981,3800,2064,10338,-10706,986,-1586,-1927,36,147,868
110934,8285508,9096152,8291091,9110291,3163,3800,1809,9161,-10548,589,-2271,-2168,49,143,866
111923,8285728,9097028,8291418,9110618,3087,3142,1619,7782,-10222,151,-3081,-2822,49,143,866
112924,8285964,9097804,8291745,9110945,3028,3572,1430,6342,-9760,-144,-3508,-2542,42,161,865
113925,8286180,9098596,8292072,9111272,3203,3270,1209,5062,-9143,-419,-3938,-1920,42,161,865
114926,8286404,9099504,8292399,9111599,3199,2293,963,4081,-8392,-1060,-3750,-900,46,181,869
115927,8286696,9100240,8292726,9111926,2790,3190,651,3364,-7493,-1521,-3223,-565,46,181,869
116928,8286948,9101272,8293053,9112253,3074,1032,299,2563,-6562,-2072,-2832,-958,46,187,869
117929,8287212,9102188,8293380,9112580,3028,1501,-45,1659,-5669,-2714,-2364,-803,46,187,869
118930,8287512,9103068,8293707,9112907,2816,1484,-430,872,-4807,-3590,-1703,-155,51,187,871
119931,8287804,9103968,8294034,9113234,2883,1109,-874,425,-3971,-4678,-1361,940,51,187,871
120932,8288080,9104796,8294361,9113561,3007,1341,-1342,335,-3128,-5370,-1451,1945,64,191,877
121933,8288368,9105732,8294688,9113888,2950,401,-1806,561,-2279,-5823,-1252,2962,64,191,877
122934,8288652,9106512,8295015,9114215,2995,1178,-2220,998,-1396,-6297,-983,3662,78,158,879
123935,8288916,9107204,8295342,9114542,3148,1569,-2612,1521,-492,-6655,-1267,4406,78,158,879
124936,8289188,9107884,8295669,9114869,3125,1490,-2951,2060,434,-6955,-1490,4642,50,139,879
125937,8289444,9108540,8295996,9115196,3257,1498,-3267,2569,1358,-6918,-1246,4906,50,139,879
126938,8289684,9109108,8296323,9115523,3396,1943,-3546,2860,2183,-6815,-711,4069,50,131,874
127939,8289972,9109736,8296650,9115850,3114,1436,-3769,2701,2853,-6694,-200,3136,50,131,874
128940,8290240,9110320,8296977,9116177,3267,1599,-3903,2132,3377,-6217,57,2374,58,130,874
129941,8290512,9110800,8297304,9116504,3267,2183,-3965,1166,3782,-5271,33,1688,58,130,874
130942,8290808,9111300,8297631,9116831,3132,1983,-3949,130,4144,-4195,-181,1613,49,106,876
131943,8291092,9111716,8297958,9117158,3228,2470,-3832,-1002,4481,-3141,-437,1339,49,106,876
132944,8291380,9112144,8298285,9117485,3221,2352,-3681,-2209,4733,-2007,-316,1345,57,94,870
133945,8291664,9112504,8298612,9117812,3266,2764,-3519,-3481,4818,-1230,572,1404,57,94,870
134946,8291916,9112852,8298939,9118139,3501,2831,-3338,-4750,4678,-772,1429,1359,64,83,869
135947,8292188,9113188,8299266,9118466,3401,2903,-3152,-6068,4315,-622,2007,1240,64,83,869
136948,8292432,9113456,8299593,9118793,3613,3355,-157,-9377,3261,4476,2180,18939,64,73,866
137949,8292720,9113692,8299920,9119120,3358,3596,5250,-12765,1682,6723,1143,32767,64,73,866
138950,8293000,9113928,8300247,9119447,3429,3637,6764,-13625,985,25,561,6988,41,56,865
139951,8293248,9114176,8300574,9119774,3665,3598,5497,-12701,652,-1146,923,7412,41,56,865
140952,8293528,9114420,8300901,9120101,3488,3660,3809,-11227,-1,-2189,2878,7912,51,62,860
141953,8293816,9114668,8301228,9120428,3456,3671,2717,-10597,-1112,-2571,4759,6717,51,62,860
142967,8294104,9114884,8301555,9120755,3475,3800,1638,-9484,-2484,-2281,5305,10212,52,45,858
143955,8294408,9115176,8301882,9121082,3386,3462,-57,-7488,-3432,-2055,4952,12080,52,45,858
144956,8294752,9115456,8302209,9121409,3130,3559,-1917,-5843,-3878,-1392,4174,9302,68,66,859
145957,8295056,9115752,8302536,9121736,3392,3473,-2981,-5379,-4435,-1673,5051,4889,68,66,859
146958,8295380,9116044,8302863,9122063,3269,3515,-3410,-6204,-5089,-1061,5132,3726,67,68,860
147959,8295684,9116348,8303190,9122390,3406,3452,-3531,-6869,-5422,911,3276,4123,67,68,860
148960,8295980,9116688,8303517,9122717,3471,3222,-3672,-7819,-5223,1879,2461,2767,54,65,862
149961,8296356,9117072,8303844,9123044,2951,2923,-3864,-8605,-4701,2311,2413,3289,54,65,862
150962,8296648,9117412,8304171,9123371,3493,3193,-3863,-9636,-4179,2677,2112,3314,60,73,863
151963,8296948,9117740,8304498,9123698,3455,3269,-2864,-10432,-3562,1704,1110,12632,60,73,863
152964,8297296,9118100,8304825,9124025,3148,3055,-681,-10304,-2832,1917,-275,22254,70,82,869
153965,8297628,9118472,8305152,9124352,3247,2961,1022,-10472,-2278,2916,909,10706,70,82,869
154966,8297944,9118864,8305479,9124679,3354,2810,1366,-11359,-1865,1982,1864,2450,51,83,864
155967,8298260,9119196,8305806,9125006,3360,3184,972,-12381,-1485,1757,1498,2460,51,83,864
156968,8298620,9119556,8306133,9125333,3072,2995,553,-12811,-1122,1523,920,4374,53,66,865
157969,8298988,9119900,8306460,9125660,3005,3089,290,-12362,-766,600,784,6269,53,66,865
158970,8299336,9120240,8306787,9125987,3122,3109,118,-11450,-490,197,1027,6920,77,80,864
159978,8299700,9120508,8307148,9126348,3023,3601,-18,-10352,-384,160,1692,7409,77,80,864
160972,8300072,9120844,8307475,9126675,2954,3173,-59,-9216,-367,-465,1911,7741,67,56,867
161973,8300408,9121152,8307802,9127002,3177,3357,-40,-8028,-404,-907,1706,8054,67,56,867
162974,8300812,9121444,8308129,9127329,2719,3474,69,-6787,-434,-1163,1464,7942,75,49,863
163975,8301184,9121748,8308456,9127656,2900,3410,300,-5526,-366,-1404,1219,8044,75,49,863
164976,8301544,9122104,8308783,9127983,2963,3074,609,-4274,-264,-1277,1068,7732,81,56,864
165977,8301980,9122524,8309110,9128310,2441,2634,985,-3205,-131,-1098,873,7103,81,56,864
166978,8302388,9122988,8309437,9128637,2582,2300,1427,-2272,46,-892,718,6676,84,78,867
167979,8302796,9123360,8309764,9128964,2548,2856,1917,-1564,250,-609,-47,5886,84,78,867
168980,8303228,9123800,8310091,9129291,2352,2383,2410,-973,359,-622,-174,5464,92,76,873
169981,8303632,9124200,8310418,9129618,2496,2601,2859,-453,395,-428,-726,5314,92,76,873
170982,8304040,9124596,8310745,9129945,2436,2597,3297,-26,386,76,-1144,4900,81,90,872
171983,8304504,9124988,8311072,9130272,2027,2595,3703,416,345,520,-1080,5038,81,90,872
172984,8304904,9125452,8311399,9130599,2396,2085,4057,952,279,1008,-839,5260,91,86,875
173985,8305292,9125848,8311726,9130926,2446,2481,4387,1401,228,1682,-465,4746,91,86,875
174986,8305736,9126260,8312053,9131253,2046,2345,4728,1676,233,1988,-524,4073,91,96,877
175987,8306124,9126716,8312380,9131580,2370,2014,5080,1930,238,1780,-1428,4183,91,96,877
176988,8306496,9127152,8312707,9131907,2451,2092,5414,2087,267,1847,-2266,3678,74,85,874
177989,8306840,9127580,8313034,9132234,2619,2099,5684,2234,372,1671,-3171,3919,74,85,874
178990,8307268,9128016,8313361,9132561,2052,2002,5926,2375,510,1520,-3340,3678,85,80,877
179991,8307584,9128436,8313688,9132888,2758,2062,6182,2444,569,1612,-2720,3130,85,80,877
180992,8307892,9128812,8314015,9133215,2817,2315,6445,2219,552,2203,-1415,2112,82,75,874
181993,8308220,9129248,8314342,9133542,2693,1894,6658,1978,515,2676,-1012,2209,82,75,874
182994,8308500,9129756,8314669,9133869,3014,1365,6749,1759,490,2920,-1317,2282,55,91,875
183995,8308760,9130144,8314996,9134196,3170,2089,6712,1704,418,2866,-1191,2331,55,91,875
184996,8309056,9130644,8315323,9134523,2961,1314,6576,1721,298,2533,-1267,2170,52,78,876
185997,8309340,9131104,8315650,9134850,3055,1506,6372,1761,128,2016,-1898,2330,52,78,876
186998,8309596,9131508,8315977,9135177,3263,1823,6125,1856,-71,1383,-1939,2331,62,100,872
187999,8309924,9132072,8316304,9135504,2813,720,5870,2050,-247,938,-1986,2060,62,100,872
189000,8310216,9132552,8316631,9135831,3055,1177,5669,2065,-401,1247,-1672,1298,59,95,875
190001,8310504,9133000,8316958,9136158,3099,1325,5525,1937,-476,1969,-1111,815,59,95,875
191002,8310808,9133512,8317285,9136485,3010,845,5373,1892,-441,2096,-951,859,75,90,878
192003,8311108,9134008,8317612,9136812,3048,871,5230,1874,-353,1533,-1350,595,75,90,878
193004,8311396,9134444,8317939,9137139,3141,1199,5149,1777,-258,1191,-1293,299,61,95,876
194005,8311712,9134992,8318266,9137466,2973,402,5073,1794,-162,1634,-1015,163,61,95,876
195006,8312004,9135460,8318593,9137793,3139,841,4938,1923,-30,1855,-777,224,50,93,878
196007,8312336,9135880,8318920,9138120,2888,1100,4740,2230,164,1230,-1003,814,50,93,878
197008,8312640,9136384,8319247,9138447,3074,498,4514,2676,389,421,-1351,847,58,100,879
198009,8313000,9136868,8319574,9138774,2711,554,4270,3198,564,584,-1197,515,58,100,879
199010,8313336,9137340,8319901,9139101,2859,565,4008,3685,689,1159,-995,68,84,89,879
200011,8313700,9137836,8320228,9139428,2668,342,3716,4152,820,1233,-1090,310,84,89,879
201012,8314100,9138252,8320555,9139755,2412,803,3413,4700,1024,722,-1367,603,76,95,880
202013,8314464,9138688,8320882,9140082,2623,630,3090,5423,1261,581,-1432,922,76,95,880
203014,8314812,9139100,8321209,9140409,2715,744,2739,6264,1499,1160,-1286,725,67,80,879
204015,8315188,9139492,8321536,9140736,2519,840,2396,6898,1717,1633,-932,159,67,80,879
205016,8315556,9139856,8321863,9141063,2552,999,2118,7253,1823,1379,-502,-426,61,84,882
206017,8315908,9140176,8322190,9141390,2642,1277,1873,7552,1800,1185,-265,-640,61,84,882
207018,8316260,9140508,8322517,9141717,2633,1200,1607,7838,1740,1434,-205,-830,68,64,882
208019,8316688,9140840,8322844,9142044,2115,1199,1262,8087,1670,1760,-321,-775,68,64,882
209020,8317068,9141136,8323171,9142371,2392,1437,891,8490,1584,1653,-155,-517,76,75,879
210030,8317468,9141480,8323532,9142732,2251,1145,487,8870,1428,1689,352,-585,76,75,879
211022,8317824,9141824,8323859,9143059,2515,1137,75,9114,1136,1695,854,-1163,71,57,883
212023,8318264,9142136,8324186,9143386,1942,1345,-344,9037,647,1270,1407,-1980,71,57,883
213024,8318716,9142440,8324513,9143713,1813,1405,-839,8974,63,1377,1434,-1256,90,47,880
214025,8319132,9142700,8324840,9144040,2000,1709,-1483,9146,-548,1025,1474,-442,90,47,880
215026,8319564,9142904,8325167,9144367,1855,2113,-2226,9634,-1330,89,2209,607,88,61,882
216027,8320008,9143212,8325494,9144694,1729,1473,-3023,10262,-2217,268,2527,683,88,61,882
217028,8320464,9143480,8325821,9145021,1599,1749,-3724,10316,-3142,244,2248,-1280,80,63,881
218029,8320944,9143740,8326148,9145348,1382,1828,-4280,9952,-4025,139,2026,-1635,80,63,881
219030,8321352,9143972,8326475,9145675,1798,2046,-4863,9424,-4901,-82,1917,-1561,73,57,884
220031,8321820,9144200,8326802,9146002,1362,2114,-5473,9087,-5699,-154,969,-901,73,57,884
221032,8322288,9144496,8327129,9146329,1301,1703,-6033,8789,-6384,-204,-835,-1154,94,54,883
222033,8322740,9144780,8327456,9146656,1347,1798,-6471,8298,-7014,-221,-1309,-1667,94,54,883
223034,8323188,9145048,8327783,9146983,1320,1924,-6814,7627,-7532,-424,-1711,-1346,88,55,881
224035,8323652,9145284,8328110,9147310,1161,2164,-7100,7022,-7873,-789,-2375,-894,88,55,881
225036,8324116,9145496,8328437,9147637,1100,2365,-7350,6377,-8025,-1065,-2919,-920,77,45,882
226037,8324628,9145696,8328764,9147964,720,2496,-7556,5710,-8045,-1446,-3156,-650,77,45,882
227038,8325044,9145964,8329091,9148291,1282,2097,-7678,4951,-7994,-1796,-3557,-720,86,54,882
228039,8325480,9146216,8329418,9148618,1110,2231,-7673,4057,-7872,-2035,-3713,-925,86,54,882
229040,8325968,9146492,8329745,9148945,715,2103,-7572,3129,-7645,-2409,-3899,-545,72,55,882
230041,8326368,9146740,8330072,9149272,1233,2314,-7405,2346,-7293,-2856,-4125,95,72,55,882
231042,8326740,9147012,8330399,9149599,1389,2188,-7189,1548,-6839,-3380,-4021,336,76,48,882
232043,8327244,9147316,8330726,9149926,488,1999,-6928,881,-6329,-3903,-3904,1274,76,48,882
233044,8327688,9147608,8331053,9150253,811,2090,-6680,518,-5753,-4222,-3958,2425,73,62,881
234045,8328120,9147864,8331380,9150580,841,2347,-6468,431,-5144,-4480,-3699,3390,73,62,881
235046,8328684,9148116,8331707,9150907,-87,2405,-6271,480,-4511,-4801,-3423,4056,73,50,884
236047,8329020,9148316,8332034,9151234,1334,2787,-6069,463,-3915,-4933,-2964,4307,73,50,884
237048,8329560,9148592,8332361,9151561,-34,2334,-5846,451,-3387,-4982,-2536,4635,81,52,882
238049,8329928,9148928,8332688,9151888,1023,1956,-5620,565,-2918,-4963,-2151,5400,81,52,882
239050,8330416,9149196,8333015,9152215,204,2408,-5424,726,-2497,-4896,-1763,5743,72,53,878
240051,8330812,9149480,8333342,9152542,748,2327,-5162,752,-2099,-4613,-1511,5444,72,53,878
241052,8331284,9149744,8333669,9152869,211,2481,-4884,782,-1712,-4006,-1319,5942,86,52,884
242053,8331660,9150052,8333996,9153196,789,2214,-4621,816,-1363,-3292,-923,6166,86,52,884
243054,8332020,9150380,8334323,9153523,876,2090,-4344,663,-1050,-2425,-557,5713,69,69,883
244055,8332432,9150696,8334650,9153850,513,2171,-1956,-1017,-874,-215,-172,15330,69,69,883
245057,8332840,9150964,8334977,9154177,504,2496,4225,-4224,-1202,5294,-309,32767,80,59,882
246057,8333188,9151212,8335304,9154504,869,2657,7306,-5020,-1001,1584,-1475,10831,80,59,882
247059,8333504,9151552,8335631,9154831,1074,2076,6848,-4965,-509,403,-339,6239,62,60,883
248059,8333836,9151912,8335958,9155158,973,1938,3879,-2885,371,310,-2710,7030,62,60,883
249061,8334124,9152288,8336285,9155485,1265,1817,3138,-2632,610,1160,-1197,5639,59,75,881
250061,8334460,9152652,8336612,9155812,962,1876,2665,-3351,614,1265,344,3056,59,75,881
251062,8334812,9153008,8336939,9156139,851,1914,2134,-4332,600,1665,-125,3003,59,84,884
252063,8335120,9153372,8337266,9156466,1135,1848,995,-4502,648,2374,-204,5086,59,84,884
253064,8335364,9153724,8337593,9156793,1572,1913,-358,-4547,734,2396,661,4127,46,90,885
254065,8335612,9154124,8337920,9157120,1582,1582,-1689,-4654,810,2981,-131,4216,46,90,885
255066,8335872,9154520,8338247,9157447,1537,1577,-2690,-5069,879,3382,-764,2927,51,76,885
256067,8336108,9154844,8338574,9157774,1727,2029,-3340,-6036,921,3627,-527,1693,51,76,885
257068,8336408,9155152,8338901,9158101,1340,2137,-3704,-7233,834,4402,114,1061,60,70,882
258069,8336664,9155472,8339228,9158428,1646,2067,-3844,-8820,653,4841,1013,-29,60,70,882
259070,8336896,9155784,8339555,9158755,1839,2123,-3934,-9949,404,5315,1241,1635,40,55,879
260078,8337156,9156092,8339916,9159116,1708,2172,-4063,-10554,174,5800,733,2691,40,55,879
261073,8337404,9156364,8340243,9159443,1819,2423,-4155,-10933,57,6005,169,3501,57,52,881
262073,8337684,9156632,8340570,9159770,1640,2474,-4143,-11121,-38,5956,215,3869,57,52,881
263074,8337972,9156868,8340897,9160097,1608,2714,-2301,-8738,-271,8470,368,24939,46,43,879
264075,8338264,9157120,8341224,9160424,1598,2647,2619,459,-656,10042,-1496,32767,46,43,879
265076,8338500,9157408,8341551,9160751,1989,2441,5644,4873,-1035,4425,705,8974,59,47,878
266077,8338696,9157636,8341878,9161078,2297,2860,5879,4004,-1369,3504,1735,1171,59,47,878
267078,8338928,9157852,8342205,9161405,2115,2984,5088,1057,-1557,3910,658,-79,36,45,876
268079,8339108,9158104,8342532,9161732,2505,2793,4601,-578,-1466,4254,-905,1538,36,45,876
269080,8339344,9158380,8342859,9162059,2195,2666,4288,-862,-968,3742,-1548,3107,38,54,871
270081,8339628,9158664,8343186,9162386,1915,2635,3992,-589,-491,3455,-1410,3240,38,54,871
271082,8339876,9158956,8343513,9162713,2176,2602,3684,-341,-290,2835,-370,3352,48,50,870
272083,8340092,9159204,8343840,9163040,2425,2912,3737,-709,-278,1477,730,1524,48,50,870
273084,8340348,9159528,8344167,9163367,2207,2439,3909,-1058,-426,811,606,2385,44,64,875
274085,8340560,9159860,8344494,9163694,2533,2387,3934,-857,-492,45,-336,4207,44,64,875
275086,8340792,9160216,8344821,9164021,2450,2226,3859,-67,-315,-715,-1009,5169,43,75,871
276087,8341028,9160584,8345148,9164348,2466,2134,3840,917,-182,-1658,-1479,4964,43,75,871
277089,8341236,9160824,8345475,9164675,2694,2972,3879,1752,-157,-2988,-2414,5061,49,56,874
278089,8341444,9161068,8345802,9165002,2748,2984,3977,2703,-144,-3447,-3604,5215,49,56,874
279090,8341660,9161340,8346129,9165329,2747,2834,4126,3603,-107,-3825,-4795,4776,40,59,874
280091,8341896,9161668,8346456,9165656,2662,2485,4204,4602,-74,-4387,-4484,5331,40,59,874
281092,8342140,9162084,8346783,9165983,2650,1896,4193,5700,-82,-4407,-3129,5098,61,65,869
282093,8342364,9162580,8347110,9166310,2821,1323,4115,6625,-86,-4214,-2887,4594,61,65,869
283094,8342600,9162868,8347437,9166637,2787,2641,4055,7458,-39,-3968,-2727,4245,55,85,873
284095,8342836,9163308,8347764,9166964,2828,1642,4024,8062,38,-3486,-2549,3437,55,85,873
285096,8343092,9163792,8348091,9167291,2735,1298,4026,8336,92,-3092,-2218,2670,46,97,877
286097,8343376,9164224,8348418,9167618,2580,1578,4041,8329,127,-2632,-1810,1940,46,97,877
287098,8343620,9164640,8348745,9167945,2868,1640,4051,8121,154,-1990,-1582,1274,68,90,876
288099,8343848,9165080,8349072,9168272,3012,1440,4044,7799,207,-1546,-1532,927,68,90,876
289100,8344100,9165524,8349399,9168599,2896,1365,4007,7364,278,-914,-1060,706,56,75,877
290101,8344328,9165904,8349726,9168926,3091,1742,3921,6869,286,-130,126,458,56,75,877
291102,8344556,9166308,8350053,9169253,3135,1559,3791,6318,223,363,1091,222,58,82,874
292103,8344816,9166816,8350380,9169580,2966,829,3633,5651,99,848,1735,168,58,82,874
293104,8345020,9167320,8350707,9169907,3371,777,3483,4891,-62,1445,2076,23,55,86,873
294105,8345256,9167796,8351034,9170234,3212,887,3314,4229,-212,1806,2083,590,55,86,873
295106,8345500,9168280,8351361,9170561,3199,769,3108,3784,-368,1870,2062,1117,40,90,877
296107,8345720,9168748,8351688,9170888,3397,807,2873,3416,-561,1763,1976,1475,40,90,877
297108,8345972,9169160,8352015,9171215,3231,1121,2617,3217,-754,1832,1744,2221,65,85,876
298109,8346228,9169656,8352342,9171542,3239,521,2326,3242,-943,1988,1568,2961,65,85,876
299110,8346464,9170100,8352669,9171869,3405,796,1971,3481,-1141,1993,1428,3448,59,100,875
300111,8346692,9170504,8352996,9172196,3500,1012,1578,3787,-1370,2002,2004,3845,59,100,875
301112,8346912,9170940,8353323,9172523,3598,764,1120,4256,-1679,2145,2733,4555,48,79,875
302113,8347168,9171300,8353650,9172850,3405,1226,678,4814,-2050,2098,3154,4649,48,79,875
303114,8347384,9171616,8353977,9173177,3706,1505,251,5268,-2490,1804,3398,4410,41,81,873
304115,8347600,9171964,8354304,9173504,3756,1296,-180,5729,-2975,1354,3356,4492,41,81,873
305116,8347852,9172256,8354631,9173831,3565,1662,-595,6181,-3365,1042,3108,4348,58,72,873
306130,8348044,9172540,8354958,9174158,3800,1732,-953,6448,-3684,1064,3240,3763,58,72,873
307130,8348224,9172748,8355285,9174485,3800,2259,-1227,6394,-4003,919,3578,2867,45,62,870
308131,8348380,9172948,8355612,9174812,3800,2365,-1359,6127,-4343,557,4006,2083,45,62,870
309133,8348540,9173148,8355939,9175139,3800,2421,-1448,5708,-4694,503,4092,1607,40,45,865
310141,8348688,9173304,8356300,9175500,3800,2787,-1561,5193,-5025,336,3755,1514,40,45,865
311135,8348808,9173432,8356627,9175827,3800,3049,-1663,4696,-5286,-15,2985,1453,28,42,861
312136,8348900,9173552,8356954,9176154,3800,3191,-1775,4129,-5514,-506,2773,1040,28,42,861
313137,8348996,9173700,8357281,9176481,3800,3095,-1947,3508,-5776,-1382,3036,1191,22,34,858
314138,8349068,9173804,8357608,9176808,3800,3469,-2190,2912,-6087,-2321,3233,1272,22,34,858
315139,8349120,9173956,8357935,9177135,3800,3247,-2402,2304,-6439,-2934,2734,1126,19,39,856
316140,8349184,9174096,8358262,9177462,3800,3404,-2570,1764,-6713,-3481,1036,1497,19,39,856
317141,8349228,9174256,8358589,9177789,3800,3353,-2688,1380,-6807,-3847,-408,1984,9,30,855
318142,8349292,9174420,8358916,9178116,3800,3400,-2759,1009,-6749,-4053,-1132,1952,9,30,855
319143,8349356,9174600,8359243,9178443,3800,3365,-2800,597,-6586,-4430,-1447,2024,12,31,855
320144,8349412,9174828,8359570,9178770,3800,3110,-2875,161,-6337,-4892,-1804,2159,12,31,855
321145,8349492,9175024,8359897,9179097,3800,3368,-2929,-348,-6030,-5241,-1730,2047,11,48,855
322146,8349564,9175228,8360224,9179424,3800,3372,-2932,-884,-5718,-5600,-1270,2039,11,48,855
323147,8349676,9175452,8360551,9179751,3800,3294,-2927,-1433,-5388,-5750,-1452,2146,24,51,856
324148,8349792,9175680,8360878,9180078,3800,3313,-2874,-2042,-4978,-5696,-2097,2097,24,51,856
325149,8349920,9175916,8361205,9180405,3800,3304,-2729,-2648,-4443,-5545,-2410,2208,23,62,856
326150,8350044,9176172,8361532,9180732,3800,3211,-2557,-3228,-3846,-5290,-2278,2481,23,62,856
327151,8350200,9176428,8361859,9181059,3800,3244,-2416,-3743,-3246,-4858,-2149,2943,20,66,857
328152,8350340,9176664,8362186,9181386,3800,3409,-2285,-4217,-2647,-4337,-1739,3086,20,66,857
329153,8350500,9176888,8362513,9181713,3800,3530,-2166,-4642,-2080,-3758,-1155,3286,38,46,858
330154,8350668,9177168,8362840,9182040,3800,3202,-2101,-4957,-1575,-3161,-640,4161,38,46,858
331155,8350828,9177500,8363167,9182367,3800,2875,-2052,-4888,-1126,-2705,-681,5942,24,64,857
332156,8351004,9177788,8363494,9182694,3800,3168,-802,-3863,-871,-42,-812,20452,24,64,857
333157,8351184,9178112,8363821,9183021,3800,2946,2636,-1060,-1002,3716,-991,32767,46,62,857
334158,8351372,9178464,8364148,9183348,3800,2761,5413,1253,-1086,1180,-833,21860,46,62,857
335159,8351556,9178784,8364475,9183675,3800,2965,5841,1724,-876,-558,-230,6130,30,74,858
336160,8351776,9179060,8364802,9184002,3800,3263,5115,1246,-604,-77,32,4722,30,74,858
337161,8351976,9179340,8365129,9184329,3800,3260,4454,700,-431,299,408,4359,48,53,862
338162,8352220,9179608,8365456,9184656,3800,3362,4110,358,-380,651,703,4016,48,53,862
339163,8352468,9179876,8365783,9184983,3800,3389,3876,-10,-372,919,335,3520,36,68,858
340164,8352680,9180168,8366110,9185310,3800,3255,3566,-472,-323,1097,-378,3530,36,68,858
341165,8352936,9180468,8366437,9185637,3800,3218,3138,-925,-217,1406,-839,3492,39,55,859
342166,8353184,9180772,8366764,9185964,3800,3204,2677,-1501,-121,1672,-818,2819,39,55,859
343167,8353420,9181080,8367091,9186291,3800,3188,2234,-2264,-88,1886,-577,2176,41,56,857
344168,8353632,9181368,8367418,9186618,3800,3332,1811,-3189,-114,2197,-169,1608,41,56,857
345169,8353856,9181656,8367745,9186945,3800,3350,1385,-4217,-166,2512,229,1569,55,59,858
346170,8354128,9181928,8368072,9187272,3800,3475,975,-5107,-226,2634,443,1797,55,59,858
347171,8354360,9182208,8368399,9187599,3800,3447,598,-5903,-351,2637,998,1996,51,60,858
348172,8354604,9182540,8368726,9187926,3800,3120,246,-6615,-505,2793,1270,2207,51,60,858
349173,8354836,9182828,8369053,9188253,3800,3414,-70,-7157,-621,2898,1381,2761,45,69,857
350174,8355040,9183140,8369380,9188580,3800,3271,-362,-7548,-684,2921,1465,3155,45,69,857
351175,8355244,9183452,8369707,9188907,3800,3279,-597,-7882,-713,2796,1426,3244,49,74,860
352176,8355460,9183772,8370034,9189234,3800,3233,-793,-8123,-735,2572,1521,3546,49,74,860
353177,8355652,9184128,8370361,9189561,3800,2996,-954,-8285,-767,2442,1544,3818,53,75,859
354178,8355824,9184444,8370688,9189888,3800,3252,-1068,-8255,-809,2297,1627,4299,53,75,859
355179,8355992,9184764,8371015,9190215,3800,3231,-1146,-8046,-844,2054,1847,4828,35,73,858
356180,8356164,9185092,8371342,9190542,3800,3182,-1155,-7737,-871,1736,1934,4957,35,73,858
357181,8356344,9185412,8371669,9190869,3800,3236,-1117,-7276,-901,1500,2151,5383,44,58,857
358182,8356560,9185732,8371996,9191196,3800,3240,-1045,-6757,-941,1304,2558,5678,44,58,857
359183,8356740,9186064,8372323,9191523,3800,3163,-932,-6186,-970,1172,2600,5813,34,59,858
360191,8356936,9186372,8372684,9191884,3800,3338,-775,-5629,-975,969,2465,5674,34,59,858
361185,8357164,9186712,8373011,9192211,3800,3133,-583,-5011,-936,838,2178,5824,38,66,859
362186,8357392,9187024,8373338,9192538,3800,3316,-379,-4372,-867,718,1837,5886,38,66,859
363187,8357604,9187320,8373665,9192865,3800,3430,-136,-3755,-778,617,1670,5674,42,54,858
364188,8357828,9187628,8373992,9193192,3800,3365,162,-3239,-684,494,1554,5431,42,54,858
365189,8358080,9187960,8374319,9193519,3800,3213,503,-2796,-607,425,1534,5083,39,59,858
366190,8358344,9188276,8374646,9193846,3800,3319,858,-2390,-540,473,1345,4940,39,59,858
367191,8358596,9188568,8374973,9194173,3800,3487,1221,-2029,-449,627,1157,4717,54,69,857
368192,8358872,9188876,8375300,9194500,3800,3396,1590,-1681,-346,627,1021,4647,54,69,857
369193,8359172,9189188,8375627,9194827,3800,3379,1965,-1357,-267,431,873,4333,45,64,858
370194,8359480,9189564,8375954,9195154,3800,2958,2341,-1160,-234,384,601,4108,45,64,858
371195,8359844,9189932,8376281,9195481,3800,2991,2687,-910,-216,496,419,4355,53,66,858
372196,8360212,9190276,8376608,9195808,3800,3135,2992,-637,-184,653,422,4191,53,66,858
373196,8360596,9190664,8376935,9196135,3800,2834,3243,-299,-167,756,193,4237,62,78,861
374198,8361008,9191136,8377262,9196462,3800,2246,3425,137,-163,792,-396,4581,62,78,861
375199,8361412,9191604,8377589,9196789,3800,2210,3596,594,-193,1072,-468,4432,67,100,861
376200,8361856,9192072,8377916,9197116,3800,2149,3789,1006,-316,1262,-545,4088,67,100,861
377201,8362352,9192576,8378243,9197443,3800,1847,4005,1159,-543,1432,-836,3201,84,94,865
378202,8362816,9193036,8378570,9197770,3800,2065,4238,1053,-830,1771,-292,2294,84,94,865
379203,8363380,9193560,8378897,9198097,3800,1579,4390,794,-1105,1852,296,2235,84,104,866
380204,8363940,9194072,8379224,9198424,3800,1574,4455,753,-1289,1791,-203,2850,84,104,866
381205,8364572,9194576,8379551,9198751,3800,1546,4484,1087,-1373,1459,-959,3712,100,95,869
382206,8365148,9195112,8379878,9199078,3800,1255,4539,1392,-1485,1189,-568,3128,100,95,869
383207,8365764,9195572,8380205,9199405,3800,1673,4569,1617,-1614,1094,-676,3442,122,90,872
384208,8366504,9196024,8380532,9199732,3800,1669,4507,2089,-1751,871,-589,4287,122,90,872
385209,8367152,9196524,8380859,9200059,3800,1293,4406,2626,-1864,42,-291,4034,115,91,874
386210,8367856,9197020,8381186,9200386,3800,1245,4366,3092,-2025,-596,-361,3749,115,91,874
387198,8368660,9197520,8381513,9200713,2989,1145,4342,3472,-2147,-745,-1407,3629,137,89,873
388199,8369392,9197988,8381840,9201040,3263,1283,4257,3872,-2181,-799,-1965,3952,137,89,873
389200,8370128,9198428,8382167,9201367,3061,1409,4190,4118,-2185,-750,-1386,2957,135,108,873
390201,8370888,9198976,8382494,9201694,2723,637,4174,3866,-2204,-555,-612,1579,135,108,873
391202,8371568,9199464,8382821,9202021,3070,942,4205,3406,-2187,-299,-386,1180,162,104,878
392203,8372260,9199948,8383148,9202348,2836,898,4164,2940,-2048,-180,-91,1145,162,104,878
393204,8372984,9200516,8383475,9202675,2464,268,4117,2465,-1790,-370,-208,914,139,106,883
394205,8373600,9200968,8383802,9203002,3014,938,4076,1966,-1416,-774,-552,913,139,106,883
395206,8374148,9201416,8384129,9203329,3344,911,4053,1514,-1026,-936,-443,894,118,108,881
396207,8374712,9201936,8384456,9203656,3142,376,4036,988,-694,-402,-223,402,118,108,881
397208,8375236,9202448,8384783,9203983,3307,345,3989,360,-427,137,40,258,109,98,879
398209,8375680,9202900,8385110,9204310,3758,666,3910,-155,-208,647,145,308,109,98,879
399210,8376196,9203408,8385437,9204637,3226,237,3774,-775,-49,1058,-144,19,112,103,879
400211,8376640,9203932,8385764,9204964,3626,50,3599,-988,141,1057,-370,1123,112,103,879
401212,8377072,9204352,8386091,9205291,3657,659,3437,-1161,356,958,-354,691,98,81,873
402213,8377516,9204688,8386418,9205618,3533,1181,3249,-1224,527,1294,-746,1393,98,81,873
403214,8377980,9205148,8386745,9205945,3348,348,3085,-844,761,1285,-652,2046,95,80,877
404215,8378380,9205512,8387072,9206272,3718,931,2945,-805,969,1631,-782,941,95,80,877
405216,8378820,9205828,8387399,9206599,3421,1236,2775,-391,1079,1932,-1069,2093,100,79,874
406217,8379296,9206132,8387726,9206926,3131,1321,2591,249,1260,1772,-714,2440,100,79,874
407218,8379732,9206528,8388053,9207253,3335,716,2403,634,1325,2174,-821,1337,72,81,873
408219,8380200,9206788,8388380,9207580,3075,1596,2218,1225,1270,1862,-750,2120,72,81,873
409220,8380668,9207136,8388707,9207907,3014,1037,2057,2047,1282,2037,-450,2598,91,64,875
410230,8381180,9207496,8389068,9208268,2675,963,1851,2532,1196,2704,-625,1277,91,64,875
411222,8381660,9207832,8389395,9208595,2809,1109,1622,3229,1083,2472,-39,2245,83,73,874
412223,8382132,9208120,8389722,9208922,2797,1426,1339,4162,965,2673,360,2413,83,73,874
413224,8382644,9208392,8390049,9209249,2467,1550,1030,4618,646,2734,445,705,85,66,879
414225,8383068,9208740,8390376,9209576,2976,1066,713,5303,285,2033,705,1691,85,66,879
415226,8383536,9209072,8390703,9209903,2640,1165,283,6096,-46,2033,358,1822,94,55,877
416227,8384040,9209368,8391030,9210230,2338,1403,-264,6789,-543,1797,335,1457,94,55,877
417228,8384500,9209624,8391357,9210557,2557,1685,-945,7761,-1198,1030,1840,2709,92,50,877
418229,8385004,9209864,8391684,9210884,2205,1823,-1864,9068,-2056,1620,2262,3885,92,50,877
419230,8385476,9210120,8392011,9211211,2342,1754,-2814,10159,-2962,1535,2200,2378,99,45,881
420231,8385964,9210360,8392338,9211538,2173,1892,-3617,10715,-3848,650,2567,1072,99,45,881
421232,8386472,9210596,8392665,9211865,1970,1958,-4327,10572,-4803,723,1381,-648,103,56,877
422233,8387008,9210772,8392992,9212192,1704,2400,-5133,10314,-5798,211,1192,-60,103,56,877
423234,8387532,9210940,8393319,9212519,1694,2519,-6052,10384,-6694,-206,1047,745,93,45,878
424235,8388080,9211100,8393646,9212846,1447,2643,-6871,10114,-7567,-178,-129,-1071,93,45,878
425236,8388624,9211264,8393973,9213173,1378,2690,-7353,9370,-8400,-762,-1153,-1845,90,35,878
426237,8389052,9211420,8394300,9213500,2060,2816,-7663,8494,-9112,-741,-1898,-1469,90,35,878
427238,8389536,9211616,8394627,9213827,1642,2624,-7998,7502,-9631,-373,-2913,-1438,86,40,877
428239,8390088,9211800,8394954,9214154,1119,2762,-8406,6925,-9861,-1016,-3792,151,86,40,877
429240,8390588,9211960,8395281,9214481,1369,2985,-8714,6392,-9861,-1623,-4990,-147,88,40,874
430241,8391064,9212104,8395608,9214808,1454,3167,-8832,5445,-9689,-2367,-6178,-707,88,40,874
431242,8391616,9212232,8395935,9215135,881,3354,-8735,4391,-9436,-3462,-5965,-522,100,26,877
432243,8392104,9212348,8396262,9215462,1212,3523,-8479,3070,-9260,-3913,-5551,-1300,100,26,877
433244,8392608,9212572,8396589,9215789,1034,2894,-8132,1605,-9101,-4028,-5350,-1105,106,52,870
434245,8393168,9212884,8396916,9216116,583,2351,-7761,230,-8812,-4229,-5140,-522,106,52,870
435246,8393752,9213252,8397243,9216443,321,1984,-7470,-955,-8370,-3896,-5500,375,103,73,872
436247,8394280,9213600,8397570,9216770,583,2100,-7188,-2034,-7782,-3957,-5169,981,103,73,872
437248,8394792,9213888,8397897,9217097,602,2493,-6898,-2903,-7119,-3988,-4411,2210,84,74,883
438249,8395200,9214216,8398224,9217424,1217,2243,-6691,-3364,-6464,-3608,-4288,4096,84,74,883
439251,8395692,9214496,8398551,9217751,620,2564,-6494,-3453,-5792,-3536,-3895,5092,85,56,883
440251,8396264,9214780,8398878,9218078,13,2559,-6140,-3800,-5138,-3047,-2779,3924,85,56,883
441252,8396764,9215096,8399205,9218405,387,2364,-5720,-4437,-4598,-2197,-1872,3947,78,67,881
442253,8397276,9215432,8399532,9218732,232,2236,-5542,-4679,-4103,-1436,-1230,6510,78,67,881
443254,8397760,9215816,8399859,9219059,338,1912,-4771,-3536,-3578,194,-796,17380,86,83,882
444255,8398240,9216196,8400186,9219386,297,1913,219,2267,-3402,5925,2119,32767,86,83,882
445256,8398552,9216540,8400513,9219713,1353,2132,5829,7919,-3244,4761,380,32767,73,73,883
446257,8399000,9216900,8400840,9220040,450,2018,7091,9045,-2590,1139,-1432,7408,73,73,883
447258,8399332,9217308,8401167,9220367,1174,1683,5833,7324,-1845,1522,21,3116,57,72,886
448259,8399700,9217680,8401494,9220694,931,1889,4521,5081,-1340,2355,923,1728,57,72,886
449260,8400024,9218024,8401821,9221021,1208,2057,3774,3747,-966,2619,751,2344,66,80,885
450261,8400420,9218408,8402148,9221348,728,1782,3017,2870,-596,3254,108,2315,66,80,885
451262,8400768,9218768,8402475,9221675,1019,1918,2124,1944,-320,4005,835,1697,55,65,884
452263,8401056,9219172,8402802,9222002,1412,1610,1307,652,-146,4543,1320,977,55,65,884
453264,8401364,9219520,8403129,9222329,1295,1952,643,-840,-69,5166,1031,503,62,68,885
454265,8401680,9219876,8403456,9222656,1250,1889,96,-2486,-25,5124,409,86,62,68,885
455266,8402000,9220260,8403783,9222983,1229,1690,-412,-3830,11,4826,387,1203,55,83,882
456267,8402312,9220580,8404110,9223310,1286,2093,-967,-4664,-21,4592,38,2311,55,83,882
457268,8402580,9220932,8404437,9223637,1587,1883,-1389,-5404,-148,4195,-677,2250,57,72,883
458269,8402848,9221292,8404764,9223964,1613,1819,-1703,-5951,-426,3731,-479,3155,57,72,883
459270,8403140,9221600,8405091,9224291,1479,2153,-1949,-6148,-867,3196,-286,4255,64,71,881
460278,8403448,9221856,8405452,9224652,1402,2524,-2124,-6098,-1366,2421,-666,4614,64,71,881
461272,8403724,9222152,8405779,9224979,1626,2289,-2185,-5800,-1880,1767,-759,5091,43,63,882
462273,8403948,9222412,8406106,9225306,1996,2543,-2167,-5357,-2354,1427,-1270,5576,43,63,882
463274,8404200,9222716,8406433,9225633,1854,2279,-2158,-4668,-2678,1121,-2285,6499,56,55,878
464275,8404404,9222976,8406760,9225960,2209,2584,-2091,-3827,-2799,562,-3188,6527,56,55,878
465276,8404560,9223220,8407087,9226287,2584,2721,-1938,-3171,-2809,46,-3791,6054,38,55,874
466277,8404832,9223452,8407414,9226614,1884,2838,-1737,-2702,-2825,-172,-3415,5518,38,55,874
467278,8405080,9223712,8407741,9226941,2069,2693,-1484,-2378,-2822,-233,-2856,4927,56,53,872
468279,8405332,9224004,8408068,9227268,2078,2510,-1210,-2220,-2747,1,-2226,4476,56,53,872
469280,8405616,9224332,8408395,9227595,1897,2284,-927,-2057,-2517,455,-1811,4601,53,63,874
470281,8405840,9224584,8408722,9227922,2318,2793,-661,-1779,-2102,875,-1517,4773,53,63,874
471282,8406076,9224872,8409049,9228249,2283,2587,-376,-1519,-1591,1012,-1321,4277,41,53,875
472283,8406336,9225196,8409376,9228576,2163,2363,-62,-1451,-1056,820,-1327,3635,41,53,875
473284,8406596,9225536,8409703,9228903,2194,2258,278,-1472,-537,467,-1507,3376,60,57,871
474285,8406828,9225952,8410030,9229230,2411,1745,606,-1479,-46,102,-1783,3463,60,57,871
475286,8407052,9226220,8410357,9229557,2507,2696,958,-1345,441,-419,-2292,3690,63,61,875
476287,8407324,9226420,8410684,9229884,2231,3178,1309,-1145,929,-933,-2625,3988,63,61,875
477288,8407572,9226680,8411011,9230211,2417,2832,1643,-746,1365,-1228,-2792,4504,50,61,875
478289,8407832,9226980,8411338,9230538,2372,2595,1925,-132,1751,-1396,-3362,5060,50,61,875
479290,8408044,9227388,8411665,9230865,2723,1885,2174,603,2112,-1470,-3642,5307,59,64,870
480291,8408264,9227792,8411992,9231192,2721,1877,2381,1374,2412,-1636,-3284,5595,59,64,870
481292,8408480,9228128,8412319,9231519,2796,2299,2555,2249,2659,-1700,-2902,5734,39,86,873
482293,8408736,9228560,8412646,9231846,2577,1654,2727,3102,2853,-1693,-2901,5574,39,86,873
483294,8408932,9228968,8412973,9232173,3010,1768,2913,3800,2995,-1603,-2934,5254,50,92,875
484295,8409172,9229424,8413300,9232500,2775,1412,3121,4401,3084,-1410,-2716,4848,50,92,875
485296,8409412,9229920,8413627,9232827,2814,1089,3331,4785,3114,-1141,-2411,4171,52,86,877
486297,8409632,9230308,8413954,9233154,2987,1737,3521,4965,3075,-655,-2328,3749,52,86,877
487298,8409840,9230708,8414281,9233481,3114,1631,3655,5054,3029,-137,-2706,3537,38,76,875
488299,8410052,9231144,8414608,9233808,3141,1358,3771,5112,2976,331,-2421,3275,38,76,875
489300,8410248,9231576,8414935,9234135,3299,1338,3870,5041,2855,780,-1628,3004,33,88,872
490301,8410432,9232068,8415262,9234462,3438,891,3939,4845,2653,1306,-485,2786,33,88,872
491302,8410620,9232592,8415589,9234789,3475,605,3996,4628,2406,1847,240,2650,33,85,874
492303,8410796,9232996,8415916,9235116,3618,1321,4024,4397,2142,2181,806,2702,33,85,874
493304,8411004,9233532,8416243,9235443,3471,404,4046,4111,1872,2398,1333,2782,52,87,873
494305,8411256,9234000,8416570,9235770,3230,768,4038,3890,1588,2523,1522,2929,52,87,873
495306,8411496,9234440,8416897,9236097,3344,894,3998,3743,1258,2691,2029,3038,51,88,871
496307,8411796,9235004,8417224,9236424,2982,15,3888,3651,865,2848,2835,3298,51,88,871
497308,8412104,9235532,8417551,9236751,2941,152,3682,3638,465,3190,2492,3806,67,101,876
498309,8412388,9236064,8417878,9237078,3111,37,3411,3800,144,3497,1177,4331,67,101,876
499310,8412692,9236424,8418205,9237405,2997,1098,3148,4108,-106,3300,236,4811,50,90,879
500311,8413024,9236812,8418532,9237732,2821,896,2929,4503,-359,2842,-42,4896,50,90,879
501312,8413312,9237204,8418859,9238059,3114,843,2735,4934,-608,2660,-36,5029,79,96,878
502313,8413636,9237568,8419186,9238386,2891,1002,2493,5363,-828,2686,1089,5240,79,96,878
503314,8413932,9237884,8419513,9238713,3081,1307,2208,5875,-1059,2757,2420,5358,65,72,879
504315,8414272,9238172,8419840,9239040,2801,1499,1931,6388,-1310,2567,3003,5462,65,72,879
505317,8414616,9238380,8420167,9239367,2770,2051,1681,6903,-1634,2201,3903,5646,59,51,878
506317,8414964,9238548,8420494,9239694,2737,2371,1418,7422,-1938,1981,3704,5597,59,51,878
507318,8415324,9238744,8420821,9240021,2648,2255,1141,7929,-2197,1457,3781,5322,79,36,876
508319,8415668,9238884,8421148,9240348,2743,2687,830,8332,-2535,168,3791,5090,79,36,876
509320,8415952,9239008,8421475,9240675,3138,2876,550,8507,-2927,-1017,2938,4390,64,25,870
510328,8416280,9239112,8421836,9241036,2878,3114,277,8439,-3339,-1849,2563,3648,64,25,870
511322,8416568,9239208,8422163,9241363,3146,3267,-8,8218,-3812,-2719,2602,3073,54,17,868
512323,8416848,9239308,8422490,9241690,3218,3341,-273,7690,-4358,-3618,2764,2258,54,17,868
513324,8417152,9239396,8422817,9242017,3079,3522,-586,7079,-4919,-4206,2660,2316,46,19,865
514325,8417420,9239520,8423144,9242344,3331,3387,-944,6454,-5362,-4137,2549,2202,46,19,865
515326,8417680,9239632,8423471,9242671,3411,3557,-1314,5813,-5656,-4068,2191,1995,46,33,861
516327,8417952,9239764,8423798,9242998,3362,3518,-1677,5049,-5852,-4517,1408,1775,46,33,861
517329,8418192,9239908,8424125,9243325,3601,3524,-1935,4017,-5929,-4840,76,1074,46,31,860
518329,8418436,9240088,8424452,9243652,3613,3364,-1959,2751,-5926,-4822,-565,357,46,31,860
519330,8418704,9240268,8424779,9243979,3490,3429,-1796,1350,-5874,-4697,-913,101,34,39,857
520331,8418944,9240456,8425106,9244306,3705,3441,-1596,-73,-5744,-4547,-1535,263,34,39,857
521332,8419180,9240632,8425433,9244633,3771,3584,-1365,-1404,-5471,-4201,-2228,533,39,45,856
522333,8419428,9240824,8425760,9244960,3732,3543,-1125,-2652,-5025,-3669,-2818,991,39,45,856
523334,8419732,9241036,8426087,9245287,3393,3470,-972,-3458,-4399,-3155,-3629,2663,48,51,857
524335,8420020,9241224,8426414,9245614,3511,3682,-916,-3983,-3716,-2956,-3767,3595,48,51,857
525336,8420284,9241452,8426741,9245941,3691,3476,-805,-4458,-3158,-2808,-3342,3703,53,54,856
526337,8420592,9241688,8427068,9246268,3425,3467,-105,-5019,-2840,-1518,-2945,8078,53,54,856
527338,8420860,9241916,8427395,9246595,3702,3562,1727,-5363,-2871,533,-3059,17888,52,46,857
528339,8421152,9242144,8427722,9246922,3569,3605,3113,-5609,-2860,-942,-2458,8844,52,46,857
529340,8421452,9242384,8428049,9247249,3533,3569,3384,-5847,-2659,-1575,-2082,4754,51,57,860
530341,8421736,9242652,8428376,9247576,3652,3421,3119,-5831,-2410,-1237,-1912,5444,51,57,860
531342,8422004,9242932,8428703,9247903,3779,3368,2883,-5579,-2221,-884,-1707,6012,67,63,857
532343,8422340,9243192,8429030,9248230,3351,3523,2787,-5112,-2103,-442,-1537,6641,67,63,857
533344,8422632,9243448,8429357,9248557,3644,3581,2790,-4622,-2030,-23,-1169,6257,66,70,857
534345,8422912,9243768,8429684,9248884,3740,3185,2802,-4267,-1983,449,-858,6029,66,70,857
535346,8423196,9244048,8430011,9249211,3735,3456,2741,-3906,-1984,947,-522,6246,63,71,860
536347,8423488,9244344,8430338,9249538,3703,3371,2690,-3660,-2024,1325,0,5615,63,71,860
537348,8423788,9244616,8430665,9249865,3666,3546,2687,-3579,-2070,1855,469,5074,67,56,860
538349,8424144,9244884,8430992,9250192,3304,3598,2720,-3675,-2110,2387,983,4441,67,56,860
539350,8424440,9245144,8431319,9250519,3693,3679,2738,-3860,-2144,2810,1369,4148,71,53,859
540351,8424756,9245456,8431646,9250846,3575,3361,2752,-4141,-2160,3171,1540,3642,71,53,859
541352,8425100,9245760,8431973,9251173,3394,3422,2768,-4597,-2169,3485,1802,3159,71,65,860
542353,8425488,9246056,8432300,9251500,3093,3487,2782,-5029,-2182,3789,2147,3291,71,65,860
543354,8425880,9246376,8432627,9251827,3041,3341,2756,-5376,-2194,3943,2592,3420,76,61,860
544355,8426236,9246700,8432954,9252154,3255,3318,2695,-5666,-2203,3904,2940,3303,76,61,860
545356,8426620,9247036,8433281,9252481,3056,3240,2619,-5960,-2214,3759,3460,3359,74,64,863
546357,8426968,9247352,8433608,9252808,3273,3371,2536,-6184,-2216,3563,3845,3405,74,64,863
547358,8427336,9247656,8433935,9253135,3131,3457,2417,-6262,-2210,3207,4017,3716,73,69,863
548359,8427720,9247980,8434262,9253462,3007,3335,2256,-6155,-2222,2694,4130,4456,73,69,863
549360,8428056,9248308,8434589,9253789,3304,3310,1988,-5635,-2250,2406,4244,5779,73,67,862
550361,8428392,9248636,8434916,9254116,3302,3311,1583,-4752,-2179,2291,4008,6541,73,67,862
551362,8428792,9248960,8435243,9254443,2871,3338,1171,-3810,-2068,2062,4402,6329,74,66,864
552363,8429140,9249308,8435570,9254770,3188,3181,795,-2937,-1962,1606,4450,6370,74,66,864
553364,8429480,9249644,8435897,9255097,3233,3253,469,-2158,-1856,990,4395,5885,62,66,861
554365,8429868,9249956,8436224,9255424,2908,3410,148,-1501,-1721,655,4016,5709,62,66,861
555366,8430236,9250260,8436551,9255751,3017,3472,-138,-933,-1528,412,3558,5088,60,58,864
556367,8430580,9250608,8436878,9256078,3160,3188,-358,-696,-1355,-71,3315,4057,60,58,864
557368,8430988,9250928,8437205,9256405,2726,3367,-483,-799,-1245,-505,2764,2889,73,63,864
558369,8431336,9251228,8437532,9256732,3092,3505,-527,-1152,-1145,-989,2064,2123,73,63,864
559370,8431728,9251496,8437859,9257059,2790,3732,-522,-1568,-976,-1499,1306,2058,75,74,864
560378,8432132,9251780,8438220,9257420,2698,3667,-522,-1973,-756,-1851,710,2074,75,74,864
561372,8432500,9252108,8438547,9257747,2906,3393,-516,-2390,-554,-2031,372,1871,86,59,863
562373,8432884,9252428,8438874,9258074,2782,3447,-465,-2817,-374,-2033,-37,1821,86,59,863
563387,8433284,9252684,8439201,9258401,2651,3800,-420,-3246,-181,-1936,-412,2016,61,54,864
564388,8433736,9252932,8439528,9258728,2272,3800,-358,-3652,26,-1821,-453,2084,61,54,864
565389,8434156,9253176,8439855,9259055,2432,3800,-270,-3955,192,-1688,-262,2356,71,52,864
566390,8434564,9253444,8440182,9259382,2472,3800,-174,-4123,300,-1681,-297,2879,71,52,864
567378,8435000,9253736,8440509,9259709,2250,3771,-85,-4192,382,-1617,-338,3369,69,56,865
568392,8435432,9253984,8440836,9260036,2230,3800,5,-4105,462,-1425,-149,3794,69,56,865
569393,8435852,9254204,8441163,9260363,2266,3800,89,-3954,567,-1299,-136,4123,85,61,864
570394,8436292,9254500,8441490,9260690,2093,3800,149,-3631,698,-1398,-310,4836,85,61,864
571382,8436684,9254812,8441817,9261017,2365,3752,199,-3246,819,-1552,-122,5055,80,44,864
572383,8437052,9255188,8442144,9261344,2497,3332,284,-2882,906,-1467,292,5001,80,44,864
573384,8437472,9255648,8442471,9261671,2132,2750,399,-2547,965,-1071,752,5208,69,61,866
574385,8437868,9255976,8442798,9261998,2253,3576,502,-2207,989,-756,822,5434,69,61,866
575386,8438264,9256388,8443125,9262325,2224,3015,575,-1811,978,-336,457,5457,87,91,866
576387,8438640,9256840,8443452,9262652,2328,2711,689,-1567,928,400,451,4677,87,91,866
577388,8438976,9257264,8443779,9262979,2575,2844,810,-1515,808,1042,260,4442,70,96,866
578389,8439328,9257800,8444106,9263306,2465,2053,931,-1494,687,994,-767,4293,70,96,866
579390,8439688,9258272,8444433,9263633,2402,2390,1076,-1627,602,1247,-883,3894,80,105,873
580391,8439988,9258748,8444760,9263960,2790,2301,1267,-1929,505,1563,-682,3566,80,105,873
581392,8440264,9259232,8445087,9264287,2963,2183,1454,-2126,519,1503,-1996,4023,80,108,876
582393,8440552,9259668,8445414,9264614,2906,2436,1601,-1991,665,1567,-2952,4721,80,108,876
583394,8440864,9260112,8445741,9264941,2764,2336,1730,-1930,844,1700,-3185,4174,56,88,872
584395,8441176,9260628,8446068,9265268,2771,1804,1917,-2111,948,1933,-2967,3670,56,88,872
585396,8441508,9261048,8446395,9265595,2645,2364,2177,-2151,925,2019,-2905,3649,65,82,871
586397,8441852,9261464,8446722,9265922,2563,2351,2408,-2101,856,1670,-3225,3815,65,82,871
587398,8442204,9261928,8447049,9266249,2503,1991,2568,-1916,855,1481,-3647,4369,72,101,875
588399,8442552,9262352,8447376,9266576,2519,2199,2707,-1717,845,2080,-2705,3963,72,101,875
589400,8442880,9262820,8447703,9266903,2645,1863,2913,-1562,758,2552,-1312,3609,67,98,874
590401,8443152,9263288,8448030,9267230,3020,1802,3148,-1414,672,2241,-1055,3919,67,98,874
591402,8443412,9263700,8448357,9267557,3126,2115,3398,-1312,613,1867,-237,3749,42,88,875
592403,8443680,9264104,8448684,9267884,3103,2133,3610,-1069,567,1880,159,4181,42,88,875
593404,8443880,9264552,8449011,9268211,3584,1804,3787,-534,535,2028,143,4421,67,95,873
594405,8444080,9264976,8449338,9268538,3641,1913,3915,100,537,1853,130,4540,67,95,873
595406,8444320,9265388,8449665,9268865,3430,1951,3971,820,586,1390,468,4867,33,74,871
596407,8444560,9265804,8449992,9269192,3470,1887,3976,1583,640,1089,663,4904,33,74,871
597408,8444820,9266256,8450319,9269519,3375,1608,3941,2575,685,1266,678,5134,36,75,866
598409,8445152,9266648,8450646,9269846,2924,1956,3927,3438,725,1225,1140,4077,36,75,866
599410,8445488,9267084,8450973,9270173,2896,1633,3911,4101,766,1285,1001,3732,71,94,868
600411,8445824,9267604,8451300,9270500,2893,1024,3862,4801,856,1435,1206,3967,71,94,868
601412,8446172,9268096,8451627,9270827,2810,1127,3762,5433,990,1704,1402,3293,77,85,874
602413,8446544,9268548,8451954,9271154,2641,1323,3637,5993,1078,1936,1378,2518,77,85,874
603414,8446872,9269052,8452281,9271481,2917,920,3584,6179,1126,1757,985,1461,80,104,877
604415,8447168,9269552,8452608,9271808,3131,870,3566,6220,1157,1745,387,1043,80,104,877
605416,8447492,9269992,8452935,9272135,2958,1195,3447,6289,1204,1568,-471,1240,45,96,878
606417,8447860,9270520,8453262,9272462,2666,558,3262,6699,1307,1126,-1233,2131,45,96,878
607418,8448204,9270992,8453589,9272789,2810,844,3052,7317,1497,1201,-1795,2213,73,98,877
608419,8448588,9271328,8453916,9273116,2536,1690,2965,7714,1610,1311,-1178,1004,73,98,877
609420,8448968,9271756,8454243,9273443,2539,1072,2966,7960,1522,666,-1140,1023,62,89,879
610430,8449416,9272180,8454604,9273804,2076,1069,2941,8134,1244,271,-1269,964,62,89,879
611422,8449912,9272632,8454931,9274131,1703,839,2714,8594,968,436,-2240,1822,83,78,877
612423,8450260,9273036,8455258,9274458,2620,1106,2310,9303,775,729,-2572,2404,83,78,877
613424,8450712,9273388,8455585,9274785,1916,1420,1889,9939,504,668,-1965,2078,98,62,882
614425,8451176,9273696,8455912,9275112,1782,1704,1503,10521,95,338,-1221,2123,98,62,882
615426,8451576,9273972,8456239,9275439,2151,1926,1105,11076,-399,189,-662,1858,73,58,879
616427,8452016,9274352,8456566,9275766,1852,1254,700,11631,-935,289,-465,1744,73,58,879
617428,8452456,9274720,8456893,9276093,1803,1311,279,12108,-1418,452,-180,1919,79,61,880
618429,8452888,9275012,8457220,9276420,1808,1801,-184,12729,-1874,675,-127,2508,79,61,880
619430,8453348,9275288,8457547,9276747,1576,1924,-743,13421,-2326,478,79,2545,81,67,882
620431,8453808,9275552,8457874,9277074,1517,2027,-1336,13991,-2879,-122,649,2137,81,67,882
621432,8454248,9275804,8458201,9277401,1594,2135,-1939,14175,-3636,-279,1057,1140,87,49,879
622433,8454716,9276112,8458528,9277728,1358,1794,-2555,14053,-4486,-327,580,697,87,49,879
623434,8455124,9276348,8458855,9278055,1698,2285,-3129,13612,-5385,-435,1147,-166,89,50,881
624435,8455504,9276572,8459182,9278382,1850,2405,-3608,12820,-6243,-575,1063,-888,89,50,881
625436,8455888,9276764,8459509,9278709,1801,2664,-4006,11987,-6978,-900,1027,-667,82,57,882
626437,8456284,9277036,8459836,9279036,1696,2189,-4341,11119,-7569,-843,618,-711,82,57,882
627438,8456720,9277292,8460163,9279363,1399,2321,-4645,10241,-8009,-740,-499,-733,64,58,877
628439,8457088,9277568,8460490,9279690,1807,2218,-4828,9214,-8249,-1096,-1856,-1050,64,58,877
629440,8457472,9277796,8460817,9280017,1682,2563,-4888,7979,-8375,-1675,-2842,-1410,63,46,878
630441,8457896,9277960,8461144,9280344,1390,3034,-4854,6542,-8428,-2074,-3662,-1492,63,46,878
631442,8458304,9278176,8461471,9280671,1455,2759,-4752,5133,-8440,-2329,-3684,-1454,80,54,877
632443,8458800,9278428,8461798,9280998,832,2567,-4634,3810,-8365,-2760,-4106,-1138,80,54,877
633444,8459308,9278716,8462125,9281325,677,2360,-4478,2578,-8113,-3303,-4750,-452,94,63,874
634445,8459808,9279004,8462452,9281652,652,2377,-4315,1554,-7700,-3526,-4783,414,94,63,874
635446,8460232,9279312,8462779,9281979,1085,2262,-4174,670,-7242,-3747,-3969,926,93,60,879
636447,8460792,9279664,8463106,9282306,133,1976,-4072,-100,-6794,-4079,-2913,1541,93,60,879
637448,8461180,9279972,8463433,9282633,1182,2260,-3943,-788,-6357,-4255,-2504,1692,92,58,882
638449,8461592,9280280,8463760,9282960,995,2268,-3811,-1397,-5936,-4207,-1833,2279,92,58,882
639450,8462144,9280568,8464087,9283287,21,2411,-3710,-1808,-5497,-4075,-1389,3492,92,54,885
640451,8462596,9280812,8464414,9283614,591,2723,-3640,-1804,-5010,-4033,-1358,4588,92,54,885
641452,8462932,9281096,8464741,9283941,1313,2493,-3508,-1817,-4476,-3857,-976,4282,91,55,881
642453,8463412,9281416,8465068,9284268,346,2271,-3317,-2016,-3935,-3351,-384,4218,91,55,881
643454,8463832,9281756,8465395,9284595,680,2141,-3132,-2193,-3402,-2768,205,4623,74,74,879
644455,8464208,9282108,8465722,9284922,935,2055,-2983,-2482,-2885,-2268,445,4294,74,74,879
645456,8464616,9282436,8466049,9285249,699,2206,-2867,-3030,-2378,-1586,515,3725,73,69,883
646457,8464984,9282796,8466376,9285576,931,1991,-2761,-3716,-1887,-829,1037,3326,73,69,883
647458,8465304,9283144,8466703,9285903,1234,2058,-2656,-4536,-1457,-82,1691,3087,59,65,883
648459,8465616,9283464,8467030,9286230,1292,2237,-2563,-5485,-1141,639,2188,2823,59,65,883
649460,8466012,9283820,8467357,9286557,737,1999,-2457,-6581,-915,1626,2199,2334,64,75,883
650461,8466344,9284216,8467684,9286884,1134,1720,-2346,-7781,-744,2759,1552,2039,64,75,883
651462,8466636,9284632,8468011,9287211,1400,1556,-2259,-8905,-572,3407,-58,2442,60,73,881
652463,8466928,9285004,8468338,9287538,1416,1812,-2211,-9793,-378,3363,-1337,3156,60,73,881
653464,8467224,9285384,8468665,9287865,1405,1739,-2197,-10345,-174,3328,-1748,3880,57,94,883
654465,8467516,9285756,8468992,9288192,1445,1770,-2219,-10747,11,3698,-1787,4369,57,94,883
655466,8467808,9286116,8469319,9288519,1462,1831,-2291,-10993,130,4261,-1737,5120,64,80,882
656467,8468052,9286476,8469646,9288846,1798,1816,-2417,-11019,199,4492,-1973,5715,64,80,882
657468,8468304,9286764,8469973,9289173,1781,2284,-1939,-9990,228,5522,-3128,13795,47,58,882
658469,8468580,9287064,8470300,9289500,1653,2221,1428,-1916,-31,12669,-7194,32767,47,58,882
659470,8468804,9287344,8470627,9289827,2025,2368,5067,5945,-355,8788,-5879,32767,54,59,880
660478,8469084,9287620,8470988,9290188,1710,2430,5492,7620,-590,4212,-1382,4745,54,59,880
661472,8469360,9287900,8471315,9290515,1759,2427,3961,5627,-825,4020,-734,2134,37,54,878
662473,8469596,9288164,8471642,9290842,2049,2554,2421,2857,-1073,4015,-1245,-494,37,54,878
663474,8469808,9288428,8471969,9291169,2249,2583,1392,946,-1180,3896,-1710,-575,56,54,876
664475,8469996,9288660,8472296,9291496,2461,2825,602,-703,-1160,4348,-1438,-1450,56,54,876
665476,8470176,9288872,8472623,9291823,2576,3001,-193,-2103,-1141,5079,-1413,-409,53,42,872
666477,8470420,9289096,8472950,9292150,2213,2972,-882,-3467,-1056,4764,-1455,91,53,42,872
667478,8470668,9289360,8473277,9292477,2223,2750,-1314,-4702,-968,4715,-1039,730,56,44,870
668479,8470940,9289604,8473604,9292804,2098,2913,-1393,-5945,-983,4531,-687,76,56,44,870
669480,8471184,9289880,8473931,9293131,2310,2735,-1196,-7315,-965,3839,-809,43,47,44,871
670481,8471424,9290152,8474258,9293458,2374,2785,-957,-8219,-869,3219,-1778,1429,47,44,871
671482,8471664,9290420,8474585,9293785,2412,2836,-724,-8840,-748,2065,-2629,2118,40,57,871
672483,8471896,9290768,8474912,9294112,2505,2328,-514,-8589,-543,678,-3922,5368,40,57,871
673484,8472104,9291124,8475239,9294439,2707,2266,399,-5779,-178,-1672,-6050,21732,53,61,871
674485,8472336,9291492,8475566,9294766,2600,2173,2167,-985,276,-3633,-6005,30418,53,61,871
675486,8472548,9291728,8475893,9295093,2775,3039,3336,1593,352,-3487,-3054,7749,36,58,871
676487,8472756,9291932,8476220,9295420,2854,3294,3677,2236,134,-4082,-2389,5753,36,58,871
677488,8473024,9292180,8476547,9295747,2506,3054,3782,2459,-71,-4266,-2841,5709,58,52,872
678489,8473216,9292456,8476874,9296074,3040,2902,3969,3346,-59,-4592,-3452,6466,58,52,872
679490,8473436,9292792,8477201,9296401,2913,2524,4257,4665,119,-4765,-3768,6615,50,57,864
680491,8473680,9293176,8477528,9296728,2801,2199,4608,5910,349,-4398,-3689,5727,50,57,864
681492,8473868,9293492,8477855,9297055,3213,2630,4973,6792,607,-4250,-3484,4862,40,71,866
682493,8474084,9293952,8478182,9297382,3086,1673,5378,7275,813,-4229,-2839,3567,40,71,866
683494,8474328,9294432,8478509,9297709,2949,1481,5738,7333,930,-3723,-2230,2415,38,79,872
684495,8474524,9294872,8478836,9298036,3307,1682,6053,7254,1066,-3161,-2159,2254,38,79,872
685496,8474740,9295280,8479163,9298363,3232,1847,6193,7228,1243,-2549,-2431,2383,59,84,872
686497,8474968,9295624,8479490,9298690,3202,2240,6199,7221,1447,-2027,-2329,2140,59,84,872
687498,8475172,9296060,8479817,9299017,3406,1618,6214,7037,1636,-1633,-1774,1477,54,84,870
688499,8475348,9296560,8480144,9299344,3648,1142,6275,6650,1760,-1056,-1205,931,54,84,870
689500,8475532,9296952,8480471,9299671,3662,1789,6327,6153,1812,-512,-646,910,31,97,869
690501,8475732,9297376,8480798,9299998,3619,1547,6302,5792,1785,-94,198,1371,31,97,869
691502,8475920,9297896,8481125,9300325,3756,863,6178,5546,1669,444,961,1525,50,87,870
692516,8476064,9298328,8481452,9300652,3800,1367,5959,5382,1492,982,1722,1950,50,87,870
693517,8476248,9298816,8481779,9300979,3800,947,5652,5339,1283,1345,2294,2534,28,98,868
694518,8476412,9299348,8482106,9301306,3800,582,5293,5393,1014,1637,2778,2741,28,98,868
695519,8476608,9299768,8482433,9301633,3800,1242,4927,5462,671,1751,2952,2955,49,107,867
696507,8476852,9300184,8482760,9301960,3720,1228,4597,5525,301,1879,3173,3144,49,107,867
697521,8477060,9300628,8483087,9302287,3800,1002,4276,5676,-75,2038,3022,3368,55,88,870
698522,8477296,9301060,8483414,9302614,3800,1031,3964,5816,-412,2194,2869,3453,55,88,870
699523,8477540,9301460,8483741,9302941,3800,1199,3634,5957,-736,2541,3102,3510,60,97,870
700523,8477772,9301844,8484068,9303268,3800,1274,3233,6095,-1140,2625,3388,3595,60,97,870
701525,8478008,9302172,8484395,9303595,3800,1624,2808,6265,-1606,2131,3667,3835,39,82,869
702526,8478276,9302456,8484722,9303922,3800,1919,2377,6362,-2090,1788,3978,3487,39,82,869
703527,8478536,9302688,8485049,9304249,3800,2285,1941,6357,-2610,1663,4200,3119,55,67,868
704528,8478772,9302928,8485376,9304576,3800,2274,1494,6273,-3112,1321,4464,3000,55,67,868
705529,8479052,9303176,8485703,9304903,3800,2259,1090,6123,-3580,841,4814,2680,62,46,866
706530,8479312,9303388,8486030,9305230,3800,2535,683,5782,-4039,463,5229,2137,62,46,866
707530,8479552,9303584,8486357,9305557,3800,2693,284,5317,-4416,341,5078,1944,44,41,863
708531,8479780,9303744,8486684,9305884,3800,2992,-91,4935,-4661,237,4702,1998,44,41,863
709533,8480028,9303872,8487011,9306211,3800,3279,-454,4466,-4815,-264,4574,1728,37,47,860
710541,8480240,9304056,8487372,9306572,3800,3007,-838,3987,-4944,-934,4768,1651,37,47,860
711535,8480428,9304228,8487699,9306899,3800,3151,-1241,3478,-5059,-1356,4842,1584,49,33,858
712536,8480616,9304384,8488026,9307226,3800,3326,-1624,3009,-5149,-1961,4639,1535,49,33,858
713537,8480780,9304548,8488353,9307553,3800,3349,-1980,2563,-5195,-2899,4078,1746,27,45,857
714538,8480912,9304712,8488680,9307880,3800,3422,-2279,2171,-5191,-3627,3627,1929,27,45,857
715539,8481044,9304868,8489007,9308207,3800,3547,-2556,1805,-5145,-3998,3214,2086,22,34,856
716539,8481172,9305068,8489334,9308534,3800,3329,-2876,1616,-5088,-4583,2736,2682,22,34,856
717541,8481272,9305220,8489661,9308861,3800,3706,-3280,1622,-5029,-5338,1606,3426,26,32,855
718542,8481392,9305400,8489988,9309188,3800,3596,-3594,1611,-4961,-5751,562,3096,26,32,855
719543,8481496,9305616,8490315,9309515,3800,3421,-3738,1340,-4852,-5807,-143,2381,27,39,854
720544,8481612,9305792,8490642,9309842,3800,3738,-3796,895,-4662,-5647,-725,2206,27,39,854
721545,8481752,9306028,8490969,9310169,3800,3403,-3834,363,-4388,-5792,-1187,2110,33,48,853
722546,8481888,9306236,8491296,9310496,3800,3632,-3819,-235,-4053,-5792,-1467,2026,33,48,853
723547,8482008,9306452,8491623,9310823,3800,3631,-3751,-932,-3692,-5365,-1628,1632,32,50,853
724548,8482176,9306684,8491950,9311150,3800,3574,-3683,-1707,-3360,-5032,-1551,1638,32,50,853
725549,8482336,9306928,8492277,9311477,3800,3537,-3581,-2506,-3050,-4857,-1743,1732,39,53,854
726550,8482504,9307160,8492604,9311804,3800,3654,-3415,-3425,-2727,-4451,-1970,1579,39,53,854
727551,8482676,9307424,8492931,9312131,3800,3482,-3206,-4288,-2360,-3959,-2406,1734,26,65,855
728552,8482852,9307660,8493258,9312458,3800,3698,-2968,-5081,-1966,-3446,-2655,2009,26,65,855
729553,8483024,9307888,8493585,9312785,3800,3793,-2715,-5865,-1607,-2771,-2525,2197,46,60,853
730553,8483204,9308144,8493912,9313112,3800,3650,-2469,-6557,-1359,-2034,-1783,2685,46,60,853
731554,8483388,9308392,8494239,9313439,3800,3735,-2262,-6957,-1213,-1263,-1354,3803,42,59,851
732555,8483560,9308704,8494566,9313766,3800,3343,-2081,-7092,-1160,-736,-1133,4770,42,59,851
733556,8483728,9309000,8494893,9314093,3800,3458,-1543,-6823,-1200,207,-1062,9177,45,64,854
734558,8483908,9309308,8495220,9314420,3800,3392,668,-5113,-1510,3525,-1580,30232,45,64,854
735559,8484080,9309620,8495547,9314747,3800,3375,3451,-2456,-1921,3742,-1954,29359,24,76,857
736560,8484252,9309920,8495874,9315074,3800,3462,4585,-1099,-2049,1284,-1446,9254,24,76,857
737561,8484416,9310196,8496201,9315401,3800,3636,4355,-1074,-2014,1152,-955,5620,43,59,856
738562,8484576,9310452,8496528,9315728,3800,3793,3895,-1459,-2002,1471,-692,4999,43,59,856
739563,8484760,9310728,8496855,9316055,3800,3691,3652,-1638,-2075,1603,-165,5031,43,61,856
740564,8484960,9311040,8497182,9316382,3800,3474,3545,-1676,-2243,1710,347,4569,43,61,856
741565,8485156,9311356,8497509,9316709,3800,3455,3465,-1901,-2430,1740,589,3850,53,75,852
742566,8485352,9311660,8497836,9317036,3800,3541,3339,-2196,-2556,1987,828,3710,53,75,852
743567,8485576,9312028,8498163,9317363,3800,3124,3094,-2495,-2601,2420,1014,3740,31,71,856
744568,8485764,9312336,8498490,9317690,3800,3508,2804,-2890,-2557,2528,916,3194,31,71,856
745569,8485960,9312636,8498817,9318017,3800,3571,2526,-3345,-2442,2532,995,2921,49,74,856
746570,8486164,9312928,8499144,9318344,3800,3638,2271,-3961,-2317,2537,1287,2368,49,74,856
747571,8486344,9313236,8499471,9318671,3800,3547,2031,-4566,-2210,2290,1466,2477,32,71,855
748572,8486532,9313568,8499798,9318998,3800,3396,1801,-4933,-2094,1816,1720,2955,32,71,855
749573,8486704,9313920,8500125,9319325,3800,3261,1585,-5195,-1936,1562,1792,3055,28,73,855
750574,8486892,9314220,8500452,9319652,3800,3599,1363,-5407,-1760,1454,2054,3129,28,73,855
751575,8487060,9314540,8500779,9319979,3800,3478,1134,-5473,-1569,1242,2180,3590,46,73,854
752575,8487208,9314884,8501106,9320306,3800,3321,889,-5445,-1372,875,2085,3809,46,73,854
753576,8487400,9315232,8501433,9320633,3800,3288,642,-5335,-1187,332,2313,4168,45,69,853
754577,8487560,9315576,8501760,9320960,3800,3307,403,-5020,-1018,-62,2274,4569,45,69,853
755578,8487740,9315896,8502087,9321287,3800,3461,160,-4483,-841,-300,2010,5035,23,74,857
756579,8487916,9316228,8502414,9321614,3800,3384,-6,-3961,-651,-762,1985,4726,23,74,857
757580,8488088,9316556,8502741,9321941,3800,3410,-102,-3625,-476,-1131,2045,4380,42,70,856
758581,8488244,9316876,8503068,9322268,3800,3464,-146,-3349,-318,-1226,1977,4295,42,70,856
759583,8488444,9317192,8503395,9322595,3800,3495,-153,-3164,-130,-1246,1795,3835,32,78,856
760590,8488616,9317568,8503756,9322956,3800,3114,-111,-3110,98,-1323,1539,3325,32,78,856
761585,8488808,9317920,8504083,9323283,3800,3254,-14,-3232,341,-1267,1478,2822,49,75,856
762585,8489012,9318232,8504410,9323610,3800,3513,93,-3316,621,-974,1194,3103,49,75,856
763586,8489216,9318556,8504737,9323937,3800,3440,180,-3318,936,-640,832,3183,47,72,857
764587,8489456,9318920,8505064,9324264,3800,3175,266,-3322,1228,-379,794,3160,47,72,857
765588,8489696,9319332,8505391,9324591,3800,2839,378,-3306,1446,-221,940,3195,33,68,856
766589,8489908,9319704,8505718,9324918,3800,3070,487,-3210,1587,47,939,3650,33,68,856
767591,8490160,9320088,8506045,9325245,3800,2971,554,-2940,1676,296,839,4139,44,70,859
768592,8490436,9320484,8506372,9325572,3800,2866,620,-2637,1698,590,939,4116,44,70,859
769593,8490748,9320888,8506699,9325899,3800,2784,708,-2325,1649,822,676,3995,52,76,859
770594,8491044,9321264,8507026,9326226,3800,2937,798,-2134,1583,1045,23,3788,52,76,859
771595,8491368,9321660,8507353,9326553,3800,2783,937,-2099,1540,1437,-268,3164,68,83,861
772596,8491732,9322084,8507680,9326880,3800,2566,1105,-2156,1486,1625,-247,3048,68,83,861
773597,8492068,9322480,8508007,9327207,3800,2712,1298,-2212,1369,1678,0,3078,72,90,860
774598,8492432,9322900,8508334,9327534,3800,2522,1456,-2135,1200,1789,377,3500,72,90,860
775599,8492824,9323368,8508661,9327861,3800,2161,1582,-1869,1040,1983,496,4039,64,93,861
776600,8493188,9323856,8508988,9328188,3800,1966,1702,-1479,834,2138,611,4230,64,93,861
777601,8493580,9324316,8509315,9328515,3800,2084,1831,-1067,564,2161,187,4323,60,88,864
778602,8494012,9324808,8509642,9328842,3800,1812,1993,-830,240,2348,461,3673,60,88,864
779603,8494444,9325256,8509969,9329169,3800,2034,2177,-718,-70,2501,286,3394,82,104,867
780604,8494864,9325696,8510296,9329496,3800,2035,2344,-579,-346,2580,318,3327,82,104,867
781605,8495344,9326228,8510623,9329823,3800,1371,2522,-519,-614,2366,959,3065,77,97,866
782606,8495844,9326740,8510950,9330150,3800,1415,2704,-451,-919,2040,1620,3052,77,97,866
783607,8496316,9327220,8511277,9330477,3800,1549,2863,-282,-1268,1688,1458,3339,78,97,867
784608,8496896,9327704,8511604,9330804,3800,1456,3010,5,-1571,1516,395,3578,78,97,867
785609,8497464,9328168,8511931,9331131,3800,1521,3191,278,-1765,1473,-51,3423,96,100,869
786610,8498064,9328696,8512258,9331458,3800,1033,3391,436,-1874,1365,-22,3062,96,100,869
787611,8498760,9329260,8512585,9331785,3800,704,3552,526,-1918,1225,-397,3163,109,109,871
788612,8499432,9329776,8512912,9332112,3800,922,3713,685,-1887,735,-799,3139,109,109,871
789613,8500128,9330280,8513239,9332439,3800,919,3824,869,-1828,99,-1411,3443,136,102,873
790614,8500864,9330768,8513566,9332766,3800,950,3927,1248,-1719,-322,-2003,3673,136,102,873
791602,8501640,9331248,8513893,9333093,3398,932,3970,1732,-1507,-744,-2778,4132,126,99,875
792603,8502356,9331792,8514220,9333420,3604,437,4007,2255,-1187,-1242,-3323,4046,126,99,875
793604,8503096,9332296,8514547,9333747,3275,610,4027,2674,-789,-1760,-3466,3894,143,114,875
794605,8503860,9332760,8514874,9334074,2936,800,4032,2995,-334,-2081,-3389,3848,143,114,875
795606,8504492,9333280,8515201,9334401,3629,365,4090,3078,107,-2066,-2860,2823,152,97,877
796607,8505124,9333756,8515528,9334728,3497,575,4206,2785,516,-1345,-2117,1677,152,97,877
797621,8505684,9334164,8515855,9335055,3800,965,4333,2205,922,-369,-1655,995,132,90,879
798622,8506172,9334700,8516182,9335382,3800,73,4399,1438,1317,605,-1494,539,132,90,879
799622,8506644,9335144,8516509,9335709,3800,597,4401,801,1710,1335,-1599,570,95,83,877
800624,8507080,9335540,8516836,9336036,3800,866,4370,40,2044,1976,-1339,-87,95,83,877
801625,8507456,9335972,8517163,9336363,3800,595,4244,-646,2315,2653,-1900,422,102,97,874
802626,8507840,9336424,8517490,9336690,3800,415,4030,-976,2586,2746,-1695,1339,102,97,874
803627,8508172,9336792,8517817,9337017,3800,922,3764,-1357,2772,3301,-1083,1093,67,74,872
804628,8508456,9337108,8518144,9337344,3800,1252,3403,-1243,2862,3737,-1521,2487,67,74,872
805629,8508700,9337440,8518471,9337671,3800,1150,2651,-535,3130,4097,-2240,4616,68,74,872
806630,8508964,9337796,8518798,9337998,3800,987,1590,597,3315,4573,-2120,5184,68,74,872
807631,8509180,9338068,8519125,9338325,3800,1536,889,1461,3315,4200,-1502,3300,56,66,867
808632,8509364,9338372,8519452,9338652,3800,1348,669,1863,3250,4513,-695,3222,56,66,867
809633,8509524,9338776,8519779,9338979,3800,689,493,2170,3160,5442,-1437,3188,50,68,869
810643,8509660,9339096,8520140,9339340,3800,1232,299,2613,3091,5038,-1438,3285,50,68,869
811635,8509800,9339360,8520467,9339667,3800,1609,-3,3386,2966,4721,-1130,4143,31,61,866
812636,8509944,9339628,8520794,9339994,3800,1610,-359,4057,2578,4601,-150,3057,31,61,866
813637,8510220,9339936,8521121,9340321,3800,1369,-703,4399,2044,4407,180,2595,18,47,867
814638,8510560,9340280,8521448,9340648,3800,1136,-1122,5150,1433,3720,-669,3860,18,47,867
815639,8510932,9340580,8521775,9340975,3800,1423,-1597,6265,769,1671,-919,4331,47,55,867
816640,8511396,9340820,8522102,9341302,3800,1836,-2082,7540,132,-1,-602,4727,47,55,867
817641,8511872,9341076,8522429,9341629,3800,1768,-2480,8767,-668,-49,728,4067,92,49,868
818642,8512416,9341328,8522756,9341956,3800,1825,-2810,9781,-1634,836,2015,3750,92,49,868
819643,8512944,9341584,8523083,9342283,3800,1832,-3098,10542,-2694,1085,2527,2811,111,54,867
820644,8513444,9341852,8523410,9342610,3800,1783,-3340,10652,-3740,8,2524,484,111,54,867
821645,8513908,9342060,8523737,9342937,3800,2211,-3632,10073,-4677,-666,2578,-401,112,40,869
822646,8514364,9342232,8524064,9343264,3800,2504,-4119,9722,-5431,-622,1688,766,112,40,869
823647,8514864,9342384,8524391,9343591,3800,2706,-4679,9680,-5953,-610,909,942,76,46,868
824635,8515384,9342592,8524718,9343918,3780,2408,-5221,9711,-6388,-944,-396,1027,76,46,868
825636,8516072,9342796,8525045,9344245,2574,2487,-5591,9375,-6833,-1822,-218,-126,104,48,865
826637,8516664,9342984,8525372,9344572,3058,2649,-5743,8651,-7214,-2352,-945,-791,104,48,865
827638,8517496,9343132,8525699,9344899,1338,2978,-5761,7810,-7464,-3088,-2586,-885,130,36,865
828639,8518072,9343280,8526026,9345226,2831,3057,-5757,6912,-7513,-3483,-2816,-714,130,36,865
829640,8518824,9343436,8526353,9345553,1545,3083,-5886,6282,-7388,-3084,-3159,365,144,33,869
830641,8519520,9343616,8526680,9345880,1734,2997,-6135,5888,-7117,-3212,-3785,1242,144,33,869
831642,8520260,9343828,8527007,9346207,1279,2849,-6252,5585,-6772,-3789,-4322,1692,149,55,868
832643,8520996,9344016,8527334,9346534,1126,3060,-6109,5055,-6346,-4543,-4689,1274,149,55,868
833644,8521688,9344188,8527661,9346861,1241,3228,-5785,4401,-5815,-4874,-4471,1274,140,41,873
834645,8522340,9344388,8527988,9347188,1350,3110,-5515,3722,-5224,-5034,-4663,1645,140,41,873
835646,8523136,9344608,8528315,9347515,245,3033,-5347,3149,-4752,-5116,-4409,2287,121,57,873
836647,8523736,9344876,8528642,9347842,1351,2759,-5209,2679,-4320,-4818,-4703,2817,121,57,873
837648,8524404,9345348,8528969,9348169,777,1421,-4923,2202,-3895,-4244,-4305,2719,130,72,874
838650,8525188,9345788,8529296,9348496,-148,1572,-4553,1651,-3492,-3679,-3315,3002,130,72,874
839651,8525936,9346152,8529623,9348823,-107,2031,-4183,1073,-3152,-3009,-2253,3082,116,81,876
840651,8526596,9346460,8529950,9349150,297,2390,-3837,456,-2875,-2225,-1844,3513,116,81,876
841652,8527268,9346800,8530277,9349477,71,2185,-3518,5,-2609,-1668,-2049,4413,138,83,886
842653,8528012,9347172,8530604,9349804,-561,1965,-3307,-126,-2371,-1525,-1912,5691,138,83,886
843654,8528596,9347500,8530931,9350131,327,2241,-3118,-66,-2176,-1533,-1779,5825,127,76,882
844655,8529284,9347792,8531258,9350458,-482,2481,-2873,-149,-2005,-909,-1488,5731,102,83,883
845656,8529832,9348192,8531585,9350785,296,1775,-2711,-2,-1909,17,-529,7086,102,83,883
846657,8530260,9348592,8531912,9351112,1002,1743,-2573,182,-1927,387,205,6719,93,98,881
847658,8530760,9348996,8532239,9351439,476,1685,-2285,-81,-1995,741,187,5305,93,98,881
848659,8531256,9349500,8532566,9351766,427,982,-507,-905,-2249,3657,964,17719,85,96,884
849660,8531716,9349884,8532893,9352093,595,1708,2533,-1472,-2775,5893,1411,27181,85,96,884
850661,8532160,9350248,8533220,9352420,643,1817,3972,-1582,-3007,3127,457,8037,88,77,888
851662,8532560,9350596,8533547,9352747,886,1908,3910,-1896,-3007,2669,545,4797,88,77,888
852663,8532948,9350964,8533874,9353074,934,1766,3511,-2295,-3010,3126,970,4924,88,85,885
853664,8533328,9351396,8534201,9353401,961,1320,3300,-2748,-3126,3931,1392,4635,88,85,885
854665,8533744,9351772,8534528,9353728,697,1649,3237,-3263,-3305,4376,922,3999,68,81,884
855666,8534068,9352136,8534855,9354055,1274,1708,3189,-3982,-3464,4171,103,3332,68,81,884
856667,8534388,9352484,8535182,9354382,1302,1799,3070,-4665,-3540,3868,-1259,3709,65,64,885
857668,8534756,9352804,8535509,9354709,984,1978,2862,-5042,-3508,3480,-2524,4241,65,64,885
858669,8535044,9353164,8535836,9355036,1502,1713,2588,-5421,-3392,3242,-3214,4009,48,62,882
859670,8535280,9353432,8536163,9355363,1867,2314,2252,-5791,-3312,3502,-2928,3883,48,62,882
860678,8535516,9353700,8536524,9355724,1921,2356,1876,-5994,-3173,3479,-3248,4114,60,61,880
861672,8535700,9353972,8536851,9356051,2310,2355,1143,-5608,-2842,3087,-4499,6198,60,61,880
862673,8535948,9354240,8537178,9356378,1945,2407,348,-5204,-2474,2685,-4144,4998,61,67,875
863674,8536228,9354484,8537505,9356705,1766,2594,-182,-5188,-2259,2654,-2172,4108,61,67,875
864675,8536464,9354792,8537832,9357032,2081,2202,-1041,-4416,-1991,3156,-1502,7526,46,67,875
865676,8536704,9355092,8538159,9357359,2095,2265,-2107,-3556,-1517,2890,-1901,6287,46,67,875
866677,8536960,9355388,8538486,9357686,2026,2303,-2779,-3139,-1030,2491,-808,4462,51,65,876
867678,8537168,9355660,8538813,9358013,2378,2479,-2729,-3653,-728,2274,26,1901,51,65,876
868679,8537388,9355940,8539140,9358340,2350,2449,-2335,-4275,-491,2690,-557,2414,47,57,875
869680,8537636,9356284,8539467,9358667,2211,2043,-2086,-4429,-128,2689,-1017,4062,47,57,875
870681,8537844,9356656,8539794,9358994,2513,1848,-1925,-4236,328,2201,-1467,4281,43,66,873
871682,8538056,9357044,8540121,9359321,2539,1721,-1289,-3332,736,2730,-1503,9619,43,66,873
872683,8538272,9357304,8540448,9359648,2564,2552,756,632,789,5092,126,32767,53,55,874
873684,8538528,9357508,8540775,9359975,2345,2956,2585,3528,716,1392,-946,11652,53,55,874
874685,8538752,9357748,8541102,9360302,2591,2770,3218,3845,607,-721,-856,3183,55,55,871
875686,8538976,9358048,8541429,9360629,2636,2407,3311,3169,462,-1290,-984,3076,55,55,871
876687,8539220,9358392,8541756,9360956,2549,2125,3425,3032,274,-1522,-1378,3804,58,61,869
877688,8539456,9358772,8542083,9361283,2639,1877,3702,3499,118,-1986,-1505,4062,58,61,869
878689,8539692,9359068,8542410,9361610,2680,2417,3944,4247,50,-1856,-1778,5068,40,72,874
879690,8539948,9359496,8542737,9361937,2586,1547,4136,5129,88,-1707,-2211,4995,40,72,874
880691,8540184,9359948,8543064,9362264,2752,1343,4329,5788,257,-1691,-2483,4250,46,89,872
881692,8540428,9360372,8543391,9362591,2739,1476,4539,6332,444,-1727,-2981,4053,46,89,872
882693,8540700,9360780,8543718,9362918,2589,1541,4674,6691,528,-2241,-3226,3406,62,77,875
883694,8540928,9361128,8544045,9363245,2907,1907,4843,6820,444,-2556,-3104,2367,62,77,875
884695,8541148,9361524,8544372,9363572,3005,1577,5025,6571,289,-2252,-3172,1303,38,90,875
885696,8541400,9361952,8544699,9363899,2839,1333,5101,6233,184,-1855,-3257,1403,38,90,875
886697,8541616,9362456,8545026,9364226,3113,780,5056,5980,136,-1137,-2605,1577,58,91,873
887698,8541840,9362832,8545353,9364553,3109,1559,5010,5799,76,-453,-1754,1548,58,91,873
888699,8542072,9363332,8545680,9364880,3101,709,4904,5669,19,55,-1362,1943,43,95,875
889700,8542288,9363784,8546007,9365207,3251,954,4699,5659,-49,621,-634,2451,43,95,875
890701,8542516,9364228,8546334,9365534,3220,952,4404,5628,-154,1150,275,2406,57,98,876
891702,8542732,9364744,8546661,9365861,3345,420,4117,5520,-299,1508,991,2046,57,98,876
892703,8542936,9365184,8546988,9366188,3474,846,3862,5303,-494,1702,1546,1814,38,91,874
893704,8543120,9365576,8547315,9366515,3663,1117,3582,5068,-713,1926,1738,2298,38,91,874
894705,8543296,9366040,8547642,9366842,3780,607,3265,5067,-870,2305,1713,2987,27,75,870
895719,8543472,9366432,8547969,9367169,3800,1028,2906,5246,-936,2717,1461,3217,27,75,870
896720,8543632,9366828,8548296,9367496,3800,973,2535,5520,-977,2898,1610,3571,34,96,870
897720,8543808,9367284,8548623,9367823,3800,542,2164,5800,-1050,2778,1908,3919,34,96,870
898709,8544052,9367696,8548950,9368150,3601,780,1816,6052,-1185,2775,2179,3815,32,72,869
899710,8544300,9367996,8549277,9368477,3612,1492,1462,6303,-1367,2914,2344,4069,32,72,869
900711,8544608,9368244,8549604,9368804,3246,1852,1141,6581,-1539,2852,2491,4161,46,65,871
901712,8544956,9368476,8549931,9369131,2988,1993,830,6764,-1725,2600,2923,4019,46,65,871
902713,8545292,9368692,8550258,9369458,3060,2142,536,6820,-1983,2341,3245,3902,69,45,871
903714,8545644,9368876,8550585,9369785,2950,2405,202,6948,-2304,1742,3181,4437,69,45,871
904715,8546028,9369032,8550912,9370112,2726,2655,-178,7256,-2629,763,2623,4631,57,34,870
905716,8546376,9369172,8551239,9370439,2943,2838,-586,7468,-2949,-187,2469,4435,57,34,870
906717,8546680,9369280,8551566,9370766,3229,3135,-1008,7527,-3269,-761,2583,4096,75,38,868
907718,8547000,9369388,8551893,9371093,3133,3231,-1363,7467,-3585,-1119,2649,3565,75,38,868
908719,8547308,9369512,8552220,9371420,3217,3220,-1657,7172,-3897,-1583,2681,3040,50,20,861
909720,8547592,9369632,8552547,9371747,3387,3337,-1890,6728,-4223,-2048,2775,2758,50,20,861
910728,8547892,9369784,8552908,9372108,3315,3229,-2070,6214,-4563,-2251,3022,2389,69,39,861
911722,8548208,9369912,8553235,9372435,3221,3467,-2184,5582,-4878,-2423,2947,2076,69,39,861
912723,8548516,9370076,8553562,9372762,3280,3314,-2203,4781,-5123,-2735,2360,1766,52,26,861
913724,8548800,9370252,8553889,9373089,3450,3306,-2149,3880,-5290,-3017,1549,1569,52,26,861
914725,8549108,9370396,8554216,9373416,3309,3587,-2058,2952,-5301,-3011,-192,1553,46,30,860
915726,8549392,9370560,8554543,9373743,3478,3534,-1949,1990,-5136,-3079,-1359,1376,46,30,860
916727,8549672,9370720,8554870,9374070,3525,3633,-1826,907,-4889,-3377,-1746,1238,62,34,855
917728,8549980,9370884,8555197,9374397,3359,3680,-1668,-264,-4644,-3649,-1769,1141,62,34,855
918729,8550252,9371080,8555524,9374724,3609,3539,-1450,-1523,-4391,-3619,-1839,1001,64,41,857
919730,8550536,9371312,8555851,9375051,3554,3356,-1201,-2805,-4100,-3420,-1893,910,64,41,857
920731,8550864,9371520,8556178,9375378,3280,3559,-945,-4026,-3757,-3315,-2015,1145,51,37,857
921732,8551172,9371724,8556505,9375705,3414,3639,-721,-5122,-3379,-3176,-2139,1707,51,37,857
922746,8551472,9371908,8556832,9376032,3477,3800,-530,-6033,-2979,-2959,-2171,2283,62,49,859
923734,8551796,9372112,8557159,9376359,3330,3757,-315,-6784,-2577,-2678,-2196,2852,62,49,859
924735,8552064,9372348,8557486,9376686,3707,3598,190,-7357,-2260,-1953,-2257,6155,47,54,856
925736,8552368,9372572,8557813,9377013,3493,3719,1677,-7329,-2160,-3,-2275,17965,47,54,856
926737,8552684,9372816,8558140,9377340,3424,3632,3236,-6660,-2148,-40,-1610,16234,53,55,853
927738,8552972,9373064,8558467,9377667,3617,3642,3739,-6091,-2029,-1090,-1210,7751,53,55,853
928752,8553296,9373272,8558794,9377994,3395,3800,3459,-5613,-1854,-1024,-849,6889,56,51,857
929740,8553600,9373524,8559121,9378321,3531,3705,3043,-5087,-1738,-638,-272,7204,56,51,857
930741,8553936,9373792,8559448,9378648,3328,3630,2748,-4514,-1746,-58,216,7234,56,48,856
931742,8554220,9374076,8559775,9378975,3673,3550,2597,-3948,-1847,324,433,6730,56,48,856
932756,8554480,9374372,8560102,9379302,3800,3490,2529,-3619,-1988,651,820,6026,54,58,859
933744,8554824,9374656,8560429,9379629,3322,3585,2455,-3415,-2137,1269,1087,5895,54,58,859
934745,8555144,9374976,8560756,9379956,3476,3364,2344,-3389,-2363,2182,1490,4806,49,66,857
935746,8555464,9375312,8561083,9380283,3480,3261,2354,-3666,-2533,2407,1938,4158,49,66,857
936747,8555796,9375604,8561410,9380610,3404,3552,2387,-4120,-2737,2612,2086,3605,71,66,859
937748,8556140,9375900,8561737,9380937,3322,3542,2414,-4643,-2933,2838,1847,3229,71,66,859
938749,8556496,9376188,8562064,9381264,3235,3610,2435,-5280,-3089,2810,1344,2891,62,58,858
939750,8556880,9376516,8562391,9381591,3036,3361,2440,-5871,-3222,2656,1142,2876,62,58,858
940751,8557284,9376860,8562718,9381918,2878,3254,2396,-6406,-3346,2515,1083,2945,69,85,860
941752,8557648,9377224,8563045,9382245,3113,3114,2325,-6871,-3442,2426,1275,3028,69,85,860
942753,8558024,9377584,8563372,9382572,3018,3125,2219,-7181,-3483,2230,1473,3579,73,69,865
943754,8558408,9377928,8563699,9382899,2944,3219,2058,-7283,-3476,1893,1489,4269,73,69,865
944755,8558784,9378284,8564026,9383226,2974,3132,1818,-7065,-3409,1815,1403,5166,65,72,865
945756,8559172,9378620,8564353,9383553,2873,3254,1537,-6727,-3251,1849,1444,5342,65,72,865
946757,8559560,9379032,8564680,9383880,2847,2743,1253,-6266,-3057,1660,1650,5558,80,76,866
947758,8559928,9379388,8565007,9384207,2954,3081,961,-5731,-2849,1386,1668,5838,80,76,866
948759,8560284,9379736,8565334,9384534,3018,3122,665,-5107,-2561,1277,1566,6051,72,76,867
949760,8560680,9380076,8565661,9384861,2738,3167,398,-4418,-2204,1178,1947,6095,72,76,867
950761,8561044,9380464,8565988,9385188,2923,2841,210,-3821,-1883,601,2491,5595,59,81,864
951762,8561428,9380812,8566315,9385515,2774,3083,106,-3471,-1681,124,2971,4887,59,81,864
952763,8561812,9381172,8566642,9385842,2750,2995,70,-3314,-1532,15,3211,4273,76,66,867
953764,8562208,9381512,8566969,9386169,2646,3115,67,-3267,-1331,53,3135,4106,76,66,867
954765,8562572,9381844,8567296,9386496,2830,3164,57,-3153,-1052,-266,2642,4348,78,57,867
955766,8562988,9382164,8567623,9386823,2467,3243,51,-2960,-730,-951,2031,4403,78,57,867
956767,8563384,9382468,8567950,9387150,2563,3354,59,-2789,-399,-1394,1760,4218,69,66,866
957768,8563768,9382784,8568277,9387477,2614,3285,89,-2707,-104,-1283,1709,3947,69,66,866
958769,8564188,9383092,8568604,9387804,2349,3343,105,-2630,163,-1034,1694,4074,76,67,866
959770,8564600,9383372,8568931,9388131,2362,3540,118,-2540,427,-970,1364,4154,76,67,866
960778,8564984,9383644,8569292,9388492,2528,3630,137,-2481,659,-931,1012,3887,71,48,866
961785,8565436,9383884,8569619,9388819,2049,3800,186,-2489,858,-823,893,3902,71,48,866
962786,8565852,9384124,8569946,9389146,2236,3800,236,-2451,1031,-725,657,4137,69,51,864
963774,8566272,9384420,8570273,9389473,2171,3573,276,-2356,1163,-722,472,4171,69,51,864
964775,8566704,9384696,8570600,9389800,2050,3721,329,-2286,1258,-910,265,4214,79,53,864
965789,8567076,9384920,8570927,9390127,2406,3800,395,-2232,1330,-954,183,4225,79,53,864
966790,8567444,9385156,8571254,9390454,2414,3800,448,-2170,1411,-829,-205,4473,88,53,865
967791,8567864,9385396,8571581,9390781,2049,3800,478,-2072,1494,-659,-206,4515,88,53,865
968792,8568260,9385624,8571908,9391108,2169,3800,476,-1918,1556,-400,-263,4726,87,55,862
969793,8568600,9385848,8572235,9391435,2514,3800,457,-1707,1634,-449,-552,4967,87,55,862
970794,8568940,9386080,8572562,9391762,2509,3800,404,-1398,1818,-606,-935,5651,79,49,862
971795,8569340,9386344,8572889,9392089,2102,3800,355,-970,2104,-539,-869,5812,79,49,862
972796,8569660,9386644,8573216,9392416,2606,3800,353,-738,2423,-572,-668,5105,70,65,859
973784,8569940,9386996,8573543,9392743,2878,3538,343,-585,2716,-700,-817,5182,70,65,859
974785,8570212,9387448,8573870,9393070,2952,2859,304,-632,2980,-810,-921,4446,61,68,863
975786,8570468,9387824,8574197,9393397,3084,3315,237,-886,3216,-327,-1608,4067,61,68,863
976787,8570680,9388188,8574524,9393724,3411,3374,238,-1247,3426,840,-1733,3216,51,92,866
977788,8570892,9388668,8574851,9394051,3462,2583,341,-1808,3582,1913,-1854,2435,51,92,866
978789,8571096,9389160,8575178,9394378,3566,2437,509,-2452,3675,2443,-2282,2397,57,102,860
979802,8571264,9389660,8575505,9394705,3800,2312,691,-3162,3780,2779,-2751,2564,57,102,860
980791,8571464,9390140,8575832,9395032,3719,2370,895,-3694,3944,3505,-2973,3067,27,98,864
981805,8571648,9390604,8576159,9395359,3800,2411,1113,-3836,4041,3647,-2749,3494,27,98,864
982793,8571888,9391012,8576486,9395686,3572,2726,1350,-3877,4000,3306,-2957,3468,56,93,862
983794,8572184,9391508,8576813,9396013,3236,2102,1594,-3943,3911,3122,-3688,3601,56,93,862
984795,8572456,9391988,8577140,9396340,3411,2136,1848,-3902,3816,2953,-3702,3970,50,96,864
985796,8572712,9392440,8577467,9396667,3543,2257,2136,-3453,3721,2412,-4095,4870,50,96,864
986797,8572992,9392924,8577794,9396994,3415,1989,2523,-2955,3588,1554,-4256,4788,48,95,868
987798,8573308,9393384,8578121,9397321,3196,2082,2975,-2363,3469,1517,-4116,5267,48,95,868
988799,8573632,9393808,8578448,9397648,3148,2264,3446,-1461,3333,2029,-3169,5534,64,98,869
989800,8573952,9394300,8578775,9397975,3177,1767,3898,-391,3174,2145,-2797,5684,64,98,869
990801,8574340,9394808,8579102,9398302,2726,1589,4335,764,2994,1494,-2493,5759,76,97,870
991802,8574692,9395252,8579429,9398629,2941,1938,4802,1678,2768,890,-1566,5040,76,97,870
992803,8575060,9395740,8579756,9398956,2824,1593,5207,2711,2441,1256,-464,5186,89,80,874
993804,8575468,9396188,8580083,9399283,2540,1791,5514,3827,2089,1689,-88,4700,89,80,874
994805,8575840,9396580,8580410,9399610,2745,2112,5771,4822,1801,1325,-280,4428,66,93,873
995806,8576228,9397044,8580737,9399937,2619,1603,6020,5639,1647,761,-785,3882,66,93,873
996807,8576680,9397552,8581064,9400264,2165,1248,6235,6351,1562,885,-545,3440,80,102,874
997808,8577064,9397952,8581391,9400591,2566,1892,6443,6923,1451,1390,-361,2492,80,102,874
998809,8577500,9398488,8581718,9400918,2194,950,6649,7282,1321,1340,-341,1863,84,89,879
999810,8577920,9398948,8582045,9401245,2254,1368,6791,7603,1278,1589,-342,1931,84,89,879
1000811,8578312,9399392,8582372,9401572,2401,1417,6819,7901,1384,2166,-351,1653,89,95,879
1001812,8578684,9399948,8582699,9401899,2507,617,6731,8235,1562,2396,-247,1311,89,95,879
1002813,8579136,9400444,8583026,9402226,1953,918,6648,8400,1640,1780,263,408,81,105,878
1003814,8579516,9400916,8583353,9402553,2381,1004,6561,8242,1624,1738,343,-192,81,105,878
1004815,8579868,9401360,8583680,9402880,2545,1128,6371,8143,1594,2241,584,235,84,92,881
1005816,8580336,9401792,8584007,9403207,1759,1157,5999,8372,1563,2492,1428,1047,84,92,881
1006817,8580772,9402172,8584334,9403534,1912,1459,5455,8978,1502,2731,1653,1929,78,78,879
1007818,8581164,9402656,8584661,9403861,2158,741,4829,9688,1391,2525,2116,2219,78,78,879
1008819,8581696,9403044,8584988,9404188,1194,1314,4219,10401,1160,2375,2468,2103,96,88,881
1009820,8582100,9403392,8585315,9404515,1961,1555,3640,10888,798,2259,2752,1183,96,88,881
1010830,8582532,9403768,8585676,9404876,1755,1373,3050,11083,347,1996,2937,673,77,65,884
1011822,8583016,9404160,8586003,9405203,1362,1245,2437,11192,-103,1959,2728,405,77,65,884
1012823,8583488,9404560,8586330,9405530,1374,1164,1796,11326,-509,1751,2204,523,83,69,881
1013824,8583900,9404868,8586657,9405857,1712,1747,1121,11554,-855,1307,1857,491,83,69,881
1014825,8584372,9405148,8586984,9406184,1274,1943,490,11443,-1353,278,2027,-805,72,72,883
1015826,8584876,9405476,8587311,9406511,997,1642,-23,11110,-2171,-643,2189,-1237,72,72,883
1016827,8585292,9405816,8587638,9406838,1508,1562,-540,10804,-3097,-786,1900,-1112,95,74,880
1017828,8585728,9406132,8587965,9407165,1336,1717,-1144,10706,-3968,-650,1198,-461,95,74,880
1018829,8586184,9406392,8588292,9407492,1154,2097,-1728,10862,-4706,-739,1332,277,89,56,882
1019830,8586612,9406684,8588619,9407819,1285,1912,-2294,11379,-5293,-439,758,1350,89,56,882
1020830,8587032,9406968,8588946,9408146,1295,1981,-2913,12003,-5750,-258,-273,1626,71,61,881
1021832,8587508,9407236,8589273,9408473,880,2107,-3512,12410,-6199,-580,-451,1198,71,61,881
1022833,8587916,9407480,8589600,9408800,1270,2295,-4057,12623,-6634,-734,-1855,824,74,51,881
1023834,8588300,9407724,8589927,9409127,1394,2331,-4482,12531,-7082,-1142,-2037,274,74,51,881
1024835,8588740,9407924,8590254,9409454,996,2662,-4694,11991,-7615,-1433,-1252,-1183,81,53,879
1025836,8589148,9408208,8590581,9409781,1160,2157,-4694,11080,-8156,-1522,-1242,-2082,81,53,879
1026837,8589556,9408468,8590908,9410108,1125,2336,-4543,9900,-8505,-1813,-2046,-2786,87,61,877
1027838,8590024,9408724,8591235,9410435,688,2392,-4286,8464,-8558,-2005,-2949,-3263,87,61,877
1028839,8590504,9408952,8591562,9410762,546,2611,-4057,7045,-8374,-2109,-3391,-2736,72,49,879
1029841,8590928,9409196,8591889,9411089,854,2548,-3969,5882,-8040,-2213,-3379,-1709,72,49,879
1030841,8591312,9409448,8592216,9411416,1079,2531,-3938,4867,-7646,-2522,-3326,-1292,77,48,879
1031842,8591792,9409704,8592543,9411743,412,2539,-3919,4040,-7237,-3065,-3170,-320,77,48,879
1032843,8592140,9409944,8592870,9412070,1227,2677,-3775,3226,-6802,-3703,-3157,-691,76,47,878
1033844,8592552,9410188,8593197,9412397,790,2688,-3592,2278,-6379,-4162,-2540,-758,76,47,878
1034845,8592956,9410468,8593524,9412724,807,2485,-3418,1364,-5973,-4692,-1874,-492,87,55,877
1035846,8593428,9410792,8593851,9413051,318,2211,-3296,547,-5578,-5085,-1525,-58,87,55,877
1036847,8593776,9411148,8594178,9413378,1084,1999,-3221,-139,-5152,-5240,-1428,462,71,66,878
1037848,8594236,9411476,8594505,9413705,326,2174,-3213,-671,-4689,-5347,-964,1372,71,66,878
1038849,8594664,9411768,8594832,9414032,481,2414,-3261,-922,-4242,-5381,-498,2247,66,71,880
1039850,8595092,9412068,8595159,9414359,437,2377,-3289,-1096,-3839,-5489,-93,2204,66,71,880
1040851,8595440,9412384,8595486,9414686,928,2282,-3228,-1410,-3461,-5449,13,2280,76,55,881
1041852,8595732,9412704,8595813,9415013,1293,2261,-3106,-1827,-3111,-4909,137,2279,76,55,881
1042853,8596072,9412984,8596140,9415340,987,2532,-3003,-2332,-2798,-4120,312,2390,67,59,880
1043854,8596432,9413252,8596467,9415667,848,2634,-2987,-2770,-2465,-3272,-33,2733,67,59,880
1044855,8596732,9413604,8596794,9415994,1235,2098,-3026,-3463,-2092,-2336,-110,2041,70,74,879
1045856,8597100,9414020,8597121,9416321,792,1660,-3057,-4474,-1681,-1116,-192,1437,70,74,879
1046857,8597436,9414376,8597448,9416648,988,2022,-3092,-5595,-1277,298,-339,1333,73,86,879
1047858,8597716,9414748,8597775,9416975,1358,1902,-3158,-6842,-885,1383,-990,1059,73,86,879
1048859,8598000,9415112,8598102,9417302,1352,1937,-3246,-8209,-495,2186,-1945,991,71,67,881
1049860,8598312,9415456,8598429,9417629,1184,2054,-3326,-9563,-91,2815,-2207,1167,71,67,881
1050861,8598616,9415848,8598756,9417956,1244,1727,-3434,-10734,334,3292,-2308,1885,49,88,881
1051862,8598864,9416176,8599083,9418283,1629,2126,-3620,-11663,761,4003,-2423,2609,49,88,881
1052863,8599112,9416560,8599410,9418610,1663,1751,-3852,-12460,1140,4776,-2308,2742,48,82,882
1053864,8599372,9416952,8599737,9418937,1618,1674,-4051,-13147,1464,5071,-2431,3052,48,82,882
1054865,8599644,9417248,8600064,9419264,1567,2287,-4200,-13814,1687,4989,-2557,3212,56,78,879
1055866,8599848,9417580,8600391,9419591,2046,2061,-4907,-13418,1825,5163,-3863,7923,56,78,879
1056867,8600136,9417912,8600718,9419918,1538,2059,-5997,-12454,1988,5286,-4994,7940,59,64,878
1057868,8600392,9418196,8601045,9420245,1769,2378,-5121,-10614,1926,7925,-3433,15830,59,64,878
1058869,8600580,9418452,8601372,9420572,2257,2585,1968,3160,732,22644,-3104,32767,34,60,878
1059870,8600804,9418716,8601699,9420899,2077,2563,8703,15229,-338,12635,-4430,32767,34,60,878
1060878,8601004,9418960,8602060,9421260,2298,2740,9416,16468,-582,5078,-2005,1006,34,42,871
1061873,8601140,9419240,8602387,9421587,2781,2536,7174,12150,-558,5327,-419,-2385,34,42,871
1062873,8601356,9419488,8602714,9421914,2330,2771,4904,7805,-496,5806,-1912,-2609,47,50,871
1063874,8601592,9419692,8603041,9422241,2246,3101,3293,5766,-220,5622,-2302,-448,47,50,871
1064875,8601812,9419916,8603368,9422568,2393,3021,2392,3993,-76,4899,21,-3432,58,55,869
1065876,8602052,9420132,8603695,9422895,2307,3121,1959,1427,-409,4879,1812,-5000,58,55,869
1066877,8602288,9420368,8604022,9423222,2372,3036,1663,-1501,-978,3729,2746,-4675,62,55,867
1067878,8602520,9420652,8604349,9423549,2439,2756,1453,-4213,-1415,2673,1441,-3531,62,55,867
1068879,8602752,9420916,8604676,9423876,2481,2909,1097,-5800,-1500,2351,-1558,-279,38,59,867
1069880,8602984,9421144,8605003,9424203,2524,3178,600,-6278,-1061,995,-4343,2503,38,59,867
1070881,8603200,9421384,8605330,9424530,2673,3142,139,-6142,-419,-159,-4110,3840,38,51,867
1071882,8603408,9421664,8605657,9424857,2775,2913,-57,-6034,-111,-1991,-2511,3352,38,51,867
1072883,8603624,9422000,8605984,9425184,2775,2560,-99,-5646,-279,-4524,-1121,5131,56,63,864
1073884,8603860,9422316,8606311,9425511,2690,2691,-28,-4889,-802,-6166,-420,5668,56,63,864
1074885,8604084,9422656,8606638,9425838,2811,2535,208,-4323,-1405,-7522,-1668,4618,40,55,868
1075886,8604316,9422864,8606965,9426165,2803,3413,711,-3789,-1789,-8713,-3097,4798,40,55,868
1076887,8604524,9423040,8607292,9426492,3006,3679,1266,-2837,-1910,-9062,-3955,6226,43,51,868
1077888,8604736,9423272,8607619,9426819,3031,3372,1736,-1368,-1783,-9178,-3356,7542,43,51,868
1078889,8604964,9423560,8607946,9427146,2976,3040,2072,532,-1518,-9444,-2172,8663,43,55,859
1079890,8605172,9423892,8608273,9427473,3153,2763,2322,2550,-1164,-9274,-2442,8853,43,55,859
1080891,8605400,9424256,8608600,9427800,3073,2548,2569,4276,-714,-8590,-2308,8102,44,65,863
1081892,8605636,9424620,8608927,9428127,3063,2533,2876,5671,-155,-7752,-2383,7074,44,65,863
1082893,8605836,9425036,8609254,9428454,3345,2169,3153,6674,496,-6830,-2134,6244,42,82,866
1083894,8606056,9425504,8609581,9428781,3268,1783,3385,7269,1235,-5718,-1611,4910,42,82,866
1084895,8606284,9425944,8609908,9429108,3261,1909,3564,7431,1989,-4462,-1112,3505,39,100,867
1085896,8606512,9426364,8610235,9429435,3306,1993,3743,7248,2685,-3260,-696,2483,39,100,867
1086897,8606720,9426756,8610562,9429762,3484,2140,3929,6743,3290,-2177,-268,1779,40,95,869
1087898,8606972,9427224,8610889,9430089,3243,1604,4098,5952,3759,-1081,219,900,40,95,869
1088899,8607184,9427712,8611216,9430416,3543,1409,4209,5027,4112,-17,672,767,51,102,867
1089900,8607404,9428204,8611543,9430743,3541,1311,4264,4205,4399,789,910,1206,51,102,867
1090901,8607652,9428756,8611870,9431070,3402,838,4263,3436,4559,1256,1281,1279,56,97,867
1091902,8607920,9429260,8612197,9431397,3304,1061,4242,2735,4540,1883,2012,1514,56,97,867
1092903,8608180,9429748,8612524,9431724,3383,1091,4136,2243,4335,2621,2657,2535,55,99,869
1093904,8608436,9430264,8612851,9432051,3441,833,3932,1994,3952,2960,3159,3374,55,99,869
1094905,8608732,9430784,8613178,9432378,3205,724,3646,1818,3400,3064,3599,3639,47,107,871
1095906,8608988,9431184,8613505,9432705,3488,1442,3263,1739,2661,3470,3822,4344,47,107,871
1096907,8609248,9431636,8613832,9433032,3493,1062,2815,1852,1790,3781,3281,4995,59,98,872
1097908,8609532,9432076,8614159,9433359,3363,1087,2356,2191,837,3753,3135,5536,59,98,872
1098909,8609784,9432476,8614486,9433686,3597,1306,1921,2581,-177,3783,4230,5577,69,84,870
1099910,8610068,9432884,8614813,9434013,3417,1221,1448,2928,-1187,4089,5296,5897,69,84,870
1100911,8610368,9433320,8615140,9434340,3329,998,911,3284,-2137,4356,5556,5772,56,79,871
1101912,8610664,9433620,8615467,9434667,3368,1860,407,3462,-3050,4207,5450,4973,56,79,871
1102913,8610928,9433864,8615794,9434994,3597,2246,30,3351,-3913,3971,5044,4244,63,53,870
1103914,8611244,9434112,8616121,9435321,3278,2257,-242,2968,-4658,4158,4518,3563,63,53,870
1104915,8611552,9434304,8616448,9435648,3337,2666,-475,2506,-5260,4247,3642,3384,63,53,867
1105916,8611852,9434500,8616775,9435975,3400,2699,-679,2082,-5702,3876,2666,3318,63,53,867
1106917,8612196,9434664,8617102,9436302,3118,2970,-791,1569,-6055,3249,2905,2603,58,37,867
1107918,8612516,9434824,8617429,9436629,3273,3070,-825,905,-6381,2930,3474,2266,58,37,867
1108919,8612872,9434976,8617756,9436956,3036,3197,-885,340,-6623,2747,3194,2681,59,36,863
1109920,8613252,9435136,8618083,9437283,2863,3220,-953,-72,-6720,2259,2615,2744,59,36,863
1110928,8613624,9435304,8618444,9437644,2910,3256,-1013,-492,-6695,1158,1502,2611,84,43,862
1111922,8614000,9435472,8618771,9437971,2864,3326,-1078,-911,-6619,187,939,2646,84,43,862
1112923,8614368,9435644,8619098,9438298,2897,3370,-1177,-1158,-6570,-529,977,3236,81,41,864
1113924,8614748,9435828,8619425,9438625,2799,3358,-1386,-956,-6454,-1486,-42,4569,81,41,864
1114925,8615116,9436032,8619752,9438952,2857,3288,-1702,-415,-6226,-2664,-448,5488,83,42,859
1115926,8615448,9436232,8620079,9439279,3081,3369,-1998,307,-6041,-3925,-71,5825,83,42,859
1116927,8615792,9436436,8620406,9439606,2999,3399,-2183,1065,-5958,-5022,-655,5828,76,49,862
1117928,8616084,9436680,8620733,9439933,3341,3186,-2204,1635,-5858,-5839,-1945,5149,76,49,862
1118929,8616368,9436892,8621060,9440260,3410,3437,-2128,1943,-5668,-6372,-2744,4690,53,59,861
1119930,8616708,9437116,8621387,9440587,3056,3408,-1983,2117,-5437,-6597,-3131,4215,53,59,861
1120931,8617048,9437344,8621714,9440914,3051,3426,-1763,2127,-5221,-6784,-3190,3699,67,45,860
1121932,8617396,9437540,8622041,9441241,2992,3685,-1444,1915,-5060,-7079,-2615,2885,67,45,860
1122933,8617760,9437816,8622368,9441568,2877,3208,-1061,1458,-4970,-7259,-1610,2494,64,58,861
1123934,8618100,9438092,8622695,9441895,3022,3232,-687,994,-4876,-7059,-2241,2607,64,58,861
1124935,8618464,9438348,8623022,9442222,2857,3388,-323,564,-4664,-6621,-3212,2772,80,58,861
1125936,8618904,9438680,8623349,9442549,2333,2912,40,126,-4283,-6109,-4045,2811,80,58,861
1126937,8619304,9438956,8623676,9442876,2552,3285,346,-331,-3794,-5531,-4537,2869,89,61,862
1127938,8619652,9439288,8624003,9443203,2869,2934,626,-876,-3287,-4574,-4350,2562,89,61,862
1128939,8620052,9439572,8624330,9443530,2512,3253,933,-1587,-2840,-3644,-3736,2203,88,72,869
1129940,8620440,9439892,8624657,9443857,2561,3032,1275,-2423,-2502,-3185,-2973,2016,88,72,869
1130941,8620812,9440188,8624984,9444184,2642,3197,1618,-3308,-2262,-2730,-2291,1969,83,60,867
1131942,8621164,9440528,8625311,9444511,2757,2917,1929,-4262,-2080,-1960,-1717,1826,83,60,867
1132943,8621580,9440872,8625638,9444838,2319,2884,2178,-5109,-1902,-1048,-1319,2239,80,80,868
1133944,8621964,9441208,8625965,9445165,2494,2931,2394,-5850,-1705,-271,-878,2564,80,80,868
1134945,8622352,9441492,8626292,9445492,2443,3276,2529,-6442,-1510,503,-471,3048,77,63,868
1135946,8622796,9441812,8626619,9445819,2043,3055,2621,-6824,-1334,1102,-66,3767,77,63,868
1136947,8623168,9442148,8626946,9446146,2474,2951,2661,-7001,-1208,1555,233,4405,64,75,868
1137948,8623516,9442468,8627273,9446473,2615,3056,2670,-7132,-1160,1958,619,4417,64,75,868
1138949,8623956,9442804,8627600,9446800,1991,2953,2624,-7040,-1153,2423,1061,5407,81,62,869
1139950,8624316,9443136,8627927,9447127,2477,2976,2456,-6590,-1141,2837,1321,6685,81,62,869
1140951,8624648,9443452,8628254,9447454,2651,3081,2192,-5886,-1105,3042,1165,7235,69,75,868
1141952,8625028,9443788,8628581,9447781,2328,2953,1918,-5073,-1070,3102,1261,7534,69,75,868
1142953,8625388,9444108,8628908,9448108,2439,3057,1653,-4260,-1043,3504,1623,7608,68,64,869
1143954,8625716,9444436,8629235,9448435,2640,3008,1362,-3512,-1036,3857,2121,7408,68,64,869
1144955,8626088,9444796,8629562,9448762,2345,2793,1042,-2887,-1049,3955,2677,6976,73,78,869
1145956,8626420,9445128,8629889,9449089,2594,2967,742,-2557,-1047,4028,2914,5994,73,78,869
1146957,8626768,9445452,8630216,9449416,2486,3019,535,-2598,-1036,4187,3149,4891,73,67,867
1147958,8627136,9445784,8630543,9449743,2343,2968,405,-2911,-1017,4279,3347,4024,73,67,867
1148959,8627468,9446116,8630870,9450070,2567,2966,325,-3498,-968,4307,3280,3147,65,75,867
1149960,8627796,9446468,8631197,9450397,2592,2831,245,-4278,-899,4123,3174,2575,65,75,867
1150961,8628144,9446752,8631524,9450724,2458,3276,172,-5090,-800,3633,2811,2490,74,59,869
1151962,8628492,9447060,8631851,9451051,2450,3135,109,-5782,-655,3152,2411,2612,74,59,869
1152963,8628832,9447372,8632178,9451378,2494,3117,56,-6428,-482,2541,1995,2661,78,66,869
1153964,8629172,9447668,8632505,9451705,2489,3232,13,-7051,-302,1917,1691,2777,78,66,869
1154965,8629548,9447932,8632832,9452032,2244,3460,-9,-7603,-134,1361,1362,2904,57,63,867
1155965,8629900,9448212,8633159,9452359,2383,3382,-30,-7897,50,852,796,3653,57,63,867
1156967,8630252,9448484,8633486,9452686,2373,3457,-42,-7974,231,260,385,4440,81,53,866
1157968,8630636,9448756,8633813,9453013,2149,3481,-71,-7738,357,-253,293,5397,81,53,866
1158969,8631016,9449032,8634140,9453340,2150,3480,-151,-7168,550,-497,-314,6427,63,44,865
1159970,8631376,9449264,8634467,9453667,2262,3797,-236,-6402,793,-1026,-383,6752,63,44,865
1160991,8631752,9449484,8634828,9454028,2155,3800,-264,-5678,990,-1802,-342,6790,71,43,865
1161985,8632120,9449716,8635155,9454355,2188,3800,-225,-4957,1174,-2372,-543,6881,71,43,865
1162986,8632476,9449964,8635482,9454682,2251,3800,-154,-4263,1348,-2607,-548,6938,78,49,863
1163987,8632828,9450204,8635809,9455009,2266,3800,-87,-3579,1557,-2596,-837,7115,78,49,863
1164988,8633196,9450432,8636136,9455336,2148,3800,16,-2953,1807,-2140,-673,6508,63,58,864
1165989,8633500,9450652,8636463,9455663,2559,3800,187,-2619,2041,-1534,-306,5638,63,58,864
1166990,8633844,9450892,8636790,9455990,2302,3800,411,-2444,2263,-1236,-387,5265,79,48,863
1167991,8634164,9451100,8637117,9456317,2455,3800,660,-2480,2440,-976,-252,4664,79,48,863
1168992,8634496,9451304,8637444,9456644,2379,3800,955,-2632,2562,-908,-387,4166,71,47,861
1169993,8634856,9451488,8637771,9456971,2190,3800,1321,-2955,2648,-799,-582,3628,71,47,861
1170994,8635172,9451644,8638098,9457298,2470,3800,1727,-3352,2746,-360,-854,3571,65,28,861
1171995,8635436,9451804,8638425,9457625,2824,3800,2112,-3673,2846,43,-904,3788,65,28,861
1172996,8635704,9451940,8638752,9457952,2825,3800,2491,-3884,2961,631,-981,3796,67,32,861
1173997,8635944,9452080,8639079,9458279,3039,3800,2849,-4083,3118,1533,-1255,3986,67,32,861
1174998,8636200,9452220,8639406,9458606,2970,3800,3170,-4162,3252,2010,-1163,4342,59,29,858
1175998,8636432,9452412,8639733,9458933,3163,3800,3460,-4039,3257,2258,-663,4641,59,29,858
1177000,8636648,9452616,8640060,9459260,3313,3800,3745,-3891,3193,2634,-595,4676,57,50,857
1178001,8636808,9452924,8640387,9459587,3736,3800,3949,-3559,3193,2723,-1022,5713,57,50,857
1179002,8636988,9453228,8640714,9459914,3677,3800,3996,-2726,3302,2528,-2032,7272,43,48,857
1180003,8637184,9453524,8641041,9460241,3635,3800,3930,-1607,3410,2815,-2297,7377,43,48,857
1181004,8637420,9453868,8641368,9460568,3425,3800,3866,-557,3389,3487,-1596,6702,34,65,851
1181992,8637684,9454284,8641695,9460895,3279,3642,3841,199,3190,3953,-598,5705,34,65,851
1182993,8637960,9454740,8642022,9461222,3228,3336,3834,775,2945,4083,-414,5624,49,80,854
1183994,8638196,9455152,8642349,9461549,3519,3575,3786,1467,2805,3770,-577,6084,49,80,854
1184995,8638436,9455620,8642676,9461876,3532,3164,3708,2339,2765,3734,-366,6172,48,81,860
1185996,8638708,9456092,8643003,9462203,3357,3077,3712,2968,2678,4327,564,4922,48,81,860
1186997,8638972,9456528,8643330,9462530,3436,3255,3806,3329,2498,4921,1246,4068,59,102,859
1187998,8639208,9457060,8643657,9462857,3652,2566,3910,3510,2282,4983,1570,3519,59,102,859
1188999,8639452,9457616,8643984,9463184,3639,2316,4017,3629,2142,4506,1572,3400,41,98,863
1190013,8639660,9458104,8644311,9463511,3800,2672,4110,3790,2103,3729,1241,3361,41,98,863
1191001,8639904,9458664,8644638,9463838,3729,2120,4207,3981,2046,3358,1197,3003,56,98,862
1192002,8640168,9459116,8644965,9464165,3633,2741,4321,4189,1915,3591,1228,2572,56,98,862
1193003,8640488,9459664,8645292,9464492,3287,2045,4408,4343,1734,3623,912,2346,72,94,861
1194004,8640820,9460232,8645619,9464819,3210,1815,4419,4767,1573,2715,77,3170,72,94,861
1195005,8641172,9460760,8645946,9465146,3075,1978,4387,5460,1467,1108,-688,3679,62,94,864
1196006,8641548,9461312,8646273,9465473,2905,1730,4379,6099,1358,536,-736,3138,62,94,864
1197007,8641944,9461832,8646600,9465800,2751,1845,4417,6718,1248,625,-849,2815,65,106,871
1198008,8642320,9462364,8646927,9466127,2855,1681,4525,7197,1150,974,-948,1917,65,106,871
1199009,8642728,9462936,8647254,9466454,2620,1324,4635,7584,1055,936,-1246,1636,90,101,874
1200010,8643140,9463464,8647581,9466781,2559,1512,4727,7830,1008,138,-1807,1439,90,101,874
1201011,8643548,9464076,8647908,9467108,2549,862,4775,8212,981,79,-2046,1416,90,102,875
1202012,8643964,9464620,8648235,9467435,2460,1193,4803,8572,965,379,-1866,691,90,102,875
1203013,8644416,9465144,8648562,9467762,2181,1231,4799,8744,901,203,-1246,437,90,105,876
1204014,8644812,9465724,8648889,9468089,2502,771,4811,8961,789,26,-1209,231,90,105,876
1205015,8645224,9466300,8649216,9468416,2366,686,4828,9088,770,85,-1683,-61,82,116,877
1206016,8645612,9466852,8649543,9468743,2489,739,4747,9318,869,582,-1739,490,82,116,877
1207017,8646076,9467372,8649870,9469070,1955,854,4590,9653,994,775,-1336,304,96,117,879
1208018,8646548,9467784,8650197,9469397,1842,1491,4428,9863,1053,857,-1064,-192,96,117,879
1209019,8646908,9468268,8650524,9469724,2529,973,4248,9936,1025,996,-885,-412,79,105,880
1210020,8647392,9468728,8650851,9470051,1685,1065,3997,9960,946,1092,-805,-329,79,105,880
1211030,8647900,9469232,8651212,9470412,1471,727,3640,10138,839,1272,-633,-52,81,87,881
1212022,8648328,9469704,8651539,9470739,1928,863,3136,10444,715,1669,-211,361,81,87,881
1213023,8648776,9470072,8651866,9471066,1749,1496,2562,10663,495,1803,422,-27,88,84,883
1214024,8649208,9470400,8652193,9471393,1804,1746,1980,10803,170,2196,1183,-41,88,84,883
1215025,8649640,9470752,8652520,9471720,1758,1585,1322,11030,-209,2377,1511,300,82,76,881
1216026,8650052,9471148,8652847,9472047,1847,1280,642,11136,-643,1964,1668,-325,82,76,881
1217027,8650452,9471488,8653174,9472374,1890,1624,59,11115,-1153,1628,1879,-665,91,81,879
1218028,8650896,9471788,8653501,9472701,1564,1886,-466,11013,-1772,1470,2089,-660,91,81,879
1219029,8651280,9472096,8653828,9473028,1914,1845,-1001,10904,-2506,1259,2429,-835,83,72,881
1220030,8651656,9472392,8654155,9473355,1944,1934,-1587,10715,-3296,1069,2691,-1004,83,72,881
1221031,8652148,9472700,8654482,9473682,1146,1867,-2231,10510,-4175,812,2667,-659,82,49,879
1222032,8652540,9472976,8654809,9474009,1744,2089,-2895,10421,-5150,385,2412,-265,82,49,879
1223033,8652976,9473200,8655136,9474336,1421,2460,-3483,10453,-6120,-252,1375,-6,80,59,877
1224034,8653468,9473412,8655463,9474663,999,2586,-3967,10408,-7063,-1060,331,-342,80,59,877
1225035,8653888,9473696,8655790,9474990,1408,2155,-4339,10046,-7986,-1319,-94,-1170,68,50,877
1226036,8654244,9473956,8656117,9475317,1796,2335,-4672,9448,-8792,-1047,-1074,-1496,68,50,877
1227037,8654704,9474232,8656444,9475644,1088,2257,-4934,8682,-9353,-997,-2216,-1804,83,40,876
1228038,8655076,9474440,8656771,9475971,1618,2735,-5042,7852,-9645,-1142,-2997,-1976,83,40,876
1229039,8655472,9474612,8657098,9476298,1438,3028,-5003,6865,-9720,-1446,-3313,-2358,92,40,876
1230040,8655952,9474876,8657425,9476625,847,2481,-4929,5691,-9652,-1516,-3706,-2675,92,40,876
1231041,8656436,9475136,8657752,9476952,753,2537,-4854,4494,-9451,-1692,-3950,-2364,83,46,874
1232042,8656872,9475392,8658079,9477279,1005,2593,-4745,3338,-9128,-2289,-3771,-2011,83,46,874
1233043,8657316,9475676,8658406,9477606,904,2437,-4593,2240,-8742,-2777,-3752,-1621,80,54,879
1234044,8657776,9475944,8658733,9477933,746,2564,-4483,1279,-8288,-3266,-3445,-1036,80,54,879
1235045,8658276,9476256,8659060,9478260,420,2295,-4400,371,-7787,-3656,-2605,-839,79,54,878
1236046,8658676,9476564,8659387,9478587,1013,2329,-4313,-485,-7270,-3940,-2113,-470,79,54,878
1237047,8659152,9476860,8659714,9478914,472,2418,-4213,-1288,-6698,-4374,-2037,109,91,61,878
1238048,8659508,9477164,8660041,9479241,1210,2378,-4114,-1811,-6080,-4662,-2064,851,91,61,878
1239049,8659976,9477404,8660368,9479568,448,2817,-4042,-2165,-5441,-5010,-1990,1672,76,68,879
1240050,8660444,9477688,8660695,9479895,386,2561,-4004,-2259,-4809,-5328,-1595,2852,76,68,879
1241051,8660828,9478008,8661022,9480222,886,2339,-4018,-2076,-4222,-5382,-1146,3752,65,58,879
1242052,8661228,9478332,8661349,9480549,754,2317,-3990,-1904,-3666,-5272,-822,3826,65,58,879
1243053,8661556,9478648,8661676,9480876,1203,2372,-3897,-1801,-3156,-4921,-285,3731,77,60,879
1244054,8661944,9478956,8662003,9481203,802,2431,-3781,-2046,-2705,-4291,201,3067,77,60,879
1245055,8662224,9479316,8662330,9481530,1498,2091,-3719,-2456,-2329,-3546,325,3183,75,77,881
1246056,8662676,9479684,8662657,9481857,368,2024,-3682,-3124,-1974,-2574,273,2553,75,77,881
1247057,8662952,9480008,8662984,9482184,1491,2301,-3663,-4000,-1600,-1069,162,2160,72,68,879
1248058,8663260,9480388,8663311,9482511,1299,1927,-3681,-5037,-1196,679,-58,2085,72,68,879
1249059,8663592,9480772,8663638,9482838,1147,1878,-3771,-6133,-751,2088,-1008,1976,74,69,882
1250060,8663932,9481140,8663965,9483165,1091,1960,-3920,-7290,-299,2767,-2165,1896,74,69,882
1251061,8664236,9481528,8664292,9483492,1326,1810,-4084,-8488,142,3172,-2352,2065,68,72,881
1252062,8664520,9481932,8664619,9483819,1470,1676,-4278,-9655,540,3873,-2123,2435,68,72,881
1253063,8664816,9482292,8664946,9484146,1409,1936,-4517,-10821,913,5046,-1975,2498,67,74,881
1254064,8665064,9482620,8665273,9484473,1743,2137,-4871,-11692,1301,6105,-2341,3472,67,74,881
1255065,8665336,9482980,8665600,9484800,1618,1922,-5898,-11248,1760,6505,-4506,8661,64,74,881
1256066,8665664,9483316,8665927,9485127,1267,2068,-3224,-11563,1483,14238,-6570,32767,64,74,881
1257067,8665928,9483664,8666254,9485454,1695,1985,3649,-8408,154,21584,-9032,32767,60,58,878
1258068,8666132,9483940,8666581,9485781,2124,2458,6979,-3023,-143,10479,-7984,32767,60,58,878
1259069,8666384,9484244,8666908,9486108,1857,2293,5574,-999,246,5415,-2845,7526,42,53,878
1260070,8666588,9484560,8667235,9486435,2211,2223,1936,250,419,4988,-562,11976,42,53,878
1261078,8666720,9484856,8667596,9486796,2761,2377,-932,1278,1,4644,2472,8401,40,56,873
1262072,8666952,9485136,8667923,9487123,2178,2498,-1884,686,-697,4551,2346,1031,40,56,873
1263073,8667196,9485380,8668250,9487450,2140,2760,-1470,-1434,-1256,4315,2971,-2202,39,57,874
1264074,8667424,9485608,8668577,9487777,2284,2904,-896,-3904,-1609,4241,2723,-1394,39,57,874
1265075,8667668,9485876,8668904,9488104,2221,2681,-627,-5506,-1782,4246,466,517,59,59,873
1266076,8667880,9486184,8669231,9488431,2471,2439,-416,-6592,-1782,3178,-537,623,59,59,873
1267077,8668104,9486484,8669558,9488758,2441,2501,-165,-7463,-1703,2419,-1221,1340,59,49,870
1268078,8668328,9486736,8669885,9489085,2488,2835,119,-8214,-1666,1493,-1845,1555,59,49,870
1269079,8668572,9487004,8670212,9489412,2399,2761,500,-8779,-1579,216,-2402,2324,48,50,870
1270080,8668804,9487320,8670539,9489739,2516,2467,749,-8388,-1242,-398,-4169,5406,48,50,870
1271081,8669012,9487668,8670866,9490066,2719,2257,755,-6972,-720,-1585,-4989,7848,38,63,867
1272082,8669268,9488044,8671193,9490393,2450,2062,732,-5106,-396,-3613,-2988,8680,38,63,867
1273083,8669492,9488304,8671520,9490720,2696,2816,899,-3256,-628,-4855,-675,8481,44,54,871
1274084,8669732,9488524,8671847,9491047,2635,3114,1265,-1392,-1083,-5526,-1249,8825,44,54,871
1275085,8670004,9488752,8672174,9491374,2459,3108,1772,513,-1423,-6170,-1712,8853,42,58,873
1276086,8670272,9489020,8672501,9491701,2510,2885,2366,2155,-1457,-6319,-3343,7729,42,58,873
1277087,8670516,9489392,8672828,9492028,2698,2215,3023,3617,-1150,-6450,-4317,7145,66,57,866
1278088,8670808,9489776,8673155,9492355,2413,2116,3618,4994,-667,-6160,-4384,6975,66,57,866
1279089,8671064,9490124,8673482,9492682,2670,2332,4090,6334,-136,-5360,-4254,6673,55,77,869
1280090,8671324,9490540,8673809,9493009,2675,1869,4427,7400,327,-4789,-3284,5812,55,77,869
1281091,8671604,9490948,8674136,9493336,2571,1883,4698,8197,720,-4090,-2551,4870,62,81,873
1282092,8671832,9491448,8674463,9493663,2940,1233,4779,8756,1069,-3143,-2109,4489,62,81,873
1283093,8672032,9491876,8674790,9493990,3172,1639,4713,9129,1479,-2097,-1907,3800,44,89,873
1284094,8672228,9492232,8675117,9494317,3254,2076,4667,9287,1950,-985,-1525,2920,44,89,873
1285095,8672424,9492652,8675444,9494644,3313,1636,4708,9160,2385,-83,-1009,2100,30,76,874
1286096,8672580,9493104,8675771,9494971,3638,1381,4772,8837,2726,659,-685,1766,30,76,874
1287096,8672756,9493548,8676098,9495298,3580,1380,4810,8400,2965,1385,-353,1252,45,82,867
1288098,8672912,9494040,8676425,9495625,3781,1008,4834,7757,3078,1892,330,618,45,82,867
1289098,8673108,9494576,8676752,9495952,3589,641,4836,6930,3059,2245,1197,145,30,86,868
1290100,8673296,9495032,8677079,9496279,3701,1084,4765,6040,2926,2683,1841,289,30,86,868
1291100,8673524,9495556,8677406,9496606,3495,574,4562,5340,2712,3013,2375,1323,54,91,867
1292115,8673712,9496048,8677733,9496933,3800,701,4254,5105,2402,3151,2829,2649,54,91,867
1293116,8673904,9496508,8678060,9497260,3800,843,3865,5167,1986,3167,3034,3347,56,105,868
1294105,8674112,9497052,8678387,9497587,3795,223,3440,5412,1466,3180,3287,4080,56,105,868
1295118,8674272,9497500,8678714,9497914,3800,769,3003,5868,874,2965,3135,4739,50,105,869
1296119,8674452,9497956,8679041,9498241,3800,663,2569,6397,212,2526,3073,4976,50,105,869
1297120,8674620,9498420,8679368,9498568,3800,553,2154,6908,-478,2161,3029,5286,33,103,870
1298121,8674792,9498872,8679695,9498895,3800,573,1804,7488,-1108,2062,2649,5470,33,103,870
1299122,8674944,9499252,8680022,9499222,3800,999,1590,8085,-1638,2137,2630,5350,36,82,869
1300123,8675136,9499592,8680349,9499549,3800,1244,1463,8597,-2094,2129,2934,5039,36,82,869
1301124,8675328,9499812,8680676,9499876,3800,2041,1348,8872,-2554,1878,3173,4323,39,60,869
1302125,8675588,9500056,8681003,9500203,3800,1927,1235,8943,-3049,1396,3379,3624,39,60,869
1303113,8675932,9500228,8681330,9500530,3447,2445,1169,8713,-3582,870,3596,2696,35,44,866
1304114,8676272,9500380,8681657,9500857,3467,2647,1142,8152,-4112,437,3672,1935,35,44,866
1305115,8676648,9500492,8681984,9501184,3221,2993,1164,7520,-4548,140,3332,1597,62,26,865
1306116,8677104,9500600,8682311,9501511,2666,3114,1146,6858,-4837,-376,1914,1570,62,26,865
1307117,8677528,9500684,8682638,9501838,2824,3371,1041,6225,-4934,-1236,-317,1683,95,19,864
1308119,8677944,9500772,8682965,9502165,2836,3451,862,5897,-4918,-2374,-1166,2316,95,19,864
1309119,8678380,9500876,8683292,9502492,2664,3449,659,5653,-4918,-3596,-867,2429,78,33,866
1310120,8678844,9500984,8683619,9502819,2430,3521,478,5391,-5092,-4452,778,2065,78,33,866
1311128,8679200,9501088,8683980,9503180,3108,3659,319,5020,-5438,-5033,1648,1493,79,36,861
1312122,8679536,9501224,8684307,9503507,3230,3543,235,4362,-5757,-5285,1330,854,79,36,861
1313123,8679924,9501348,8684634,9503834,2879,3708,128,3600,-5943,-5477,967,998,64,22,861
1314124,8680248,9501496,8684961,9504161,3282,3637,55,2934,-5972,-6072,559,987,64,22,861
1315125,8680564,9501680,8685288,9504488,3337,3475,-8,2248,-5830,-6135,-375,972,65,45,858
1316126,8680896,9501832,8685615,9504815,3236,3752,-62,1441,-5527,-5818,-1279,765,65,45,858
1317127,8681172,9502024,8685942,9505142,3610,3563,-75,522,-5068,-5603,-1930,445,66,45,857
1318141,8681416,9502236,8686269,9505469,3800,3488,-53,-459,-4544,-5338,-2303,202,66,45,857
1319129,8681700,9502440,8686596,9505796,3616,3593,-19,-1660,-3980,-5058,-2589,-236,59,43,856
1320130,8681968,9502648,8686923,9506123,3743,3622,19,-2879,-3385,-4674,-2892,-54,59,43,856
1321144,8682224,9502876,8687250,9506450,3800,3540,54,-4145,-2838,-4128,-2605,-419,45,57,855
1322132,8682500,9503112,8687577,9506777,3749,3531,71,-5489,-2371,-3677,-2055,-443,45,57,855
1323146,8682744,9503368,8687904,9507104,3800,3438,83,-6838,-1961,-3154,-1849,-220,55,43,854
1324147,8683004,9503608,8688231,9507431,3800,3577,129,-8140,-1575,-2408,-1978,-176,55,43,854
1325135,8683292,9503868,8688558,9507758,3760,3482,192,-9287,-1235,-1795,-1938,348,42,59,854
1326149,8683564,9504140,8688885,9508085,3800,3432,196,-10212,-942,-1158,-1956,1201,42,59,854
1327150,8683816,9504388,8689212,9508412,3800,3618,136,-10844,-695,-265,-1751,2190,58,62,855
1328164,8684076,9504608,8689539,9508739,3800,3800,30,-11251,-523,524,-1360,2942,58,62,855
1329139,8684388,9504888,8689866,9509066,3707,3487,-72,-11427,-477,1094,-811,3731,49,66,856
1330153,8684676,9505168,8690193,9509393,3800,3508,-255,-11312,-578,1685,-109,5002,49,66,856
1331154,8684956,9505436,8690520,9509720,3800,3610,-421,-11035,-772,2081,300,5083,47,72,853
1332142,8685264,9505744,8690847,9510047,3781,3369,-548,-10661,-1016,2702,686,5435,47,72,853
1333156,8685520,9506032,8691174,9510374,3800,3512,-696,-10194,-1328,3347,1189,6072,53,67,856
1334157,8685820,9506352,8691501,9510701,3800,3316,-853,-9627,-1666,3881,1590,6407,53,67,856
