"Data file recorded 2014/9/24  14:42:43"
"%  Right Stride Frequency         = 3.0"
"%  Left Stride Frequency         = 3.0"
"%  Phase (Fractional)         = 32768.0"
"%  Experiment.py "
"%  Motor Gains    = [1800, 200, 100, 0, 0, 1800, 200, 100, 0, 0]
"% Columns: "
"% time | Right Leg Pos | Left Leg Pos | Commanded Right Leg Pos | Commanded Left Leg Pos | DCR | DCL | GyroX | GryoY | GryoZ | AX | AY | AZ | RBEMF | LBEMF | VBatt "
11691,2060092,2354112,2059843,2354755,96,538,-316,-2883,777,56,-304,4075,6,4,913
12691,2060108,2354116,2060040,2354952,75,548,-316,-2886,777,49,-313,4096,-10,5,914
13693,2060092,2354120,2060237,2355149,368,633,-317,-2886,774,53,-300,4116,-10,5,914
14693,2060100,2354108,2060434,2355346,301,825,-315,-2882,774,57,-318,4092,2,9,911
15695,2060096,2354124,2060631,2355543,466,729,-312,-2900,775,61,-335,4091,2,9,911
16696,2060104,2354136,2060828,2355740,474,835,-314,-2866,777,53,-328,4110,10,14,911
17697,2060112,2354120,2061025,2355937,557,1105,-312,-2867,780,53,-331,4110,10,14,911
18697,2060104,2354132,2061222,2356134,747,1011,-310,-2876,777,60,-328,4084,11,-3,911
19699,2060104,2354128,2061419,2356331,783,1201,-309,-2905,772,63,-271,4075,11,-3,911
20700,2060120,2354156,2061616,2356528,763,1075,-310,-2896,773,74,-339,4109,-10,8,909
21701,2060116,2354204,2061813,2356725,977,1015,-313,-2869,776,74,-331,4103,-10,8,909
22702,2060128,2354260,2062010,2356922,959,1028,-312,-2870,765,30,-278,4064,4,3,908
23703,2060128,2354316,2062207,2357119,1120,1090,-313,-2872,755,24,-496,4076,4,3,908
24704,2060132,2354372,2062404,2357316,1181,1153,-318,-2899,754,58,-384,4047,6,13,908
25705,2060168,2354428,2062601,2357513,1052,1215,-325,-2902,745,13,-361,4047,6,13,908
26706,2060196,2354488,2062798,2357710,1177,1251,-336,-2913,733,0,-361,4051,12,12,906
27707,2060216,2354568,2062995,2357907,1305,1179,-347,-2899,721,-15,-300,4067,12,12,906
28708,2060252,2354652,2063192,2358104,1276,1203,-357,-2916,709,-23,-404,4062,-1,22,907
29709,2060332,2354716,2063389,2358301,1053,1388,-366,-2918,701,-35,-351,3984,-1,22,907
30710,2060424,2354784,2063586,2358498,1025,1421,-374,-2981,690,-6,-306,3963,16,7,906
31711,2060536,2354860,2063783,2358695,937,1424,-373,-3022,667,-1,-223,3983,16,7,906
32712,2060636,2354948,2063980,2358892,1056,1398,-368,-3079,629,-106,15,3974,16,9,905
33713,2060760,2355064,2064177,2359089,939,1259,-365,-3103,587,-107,-108,4009,16,9,905
34714,2060864,2355148,2064374,2359286,1105,1510,-364,-3111,547,-158,-219,4024,15,10,906
35715,2060964,2355236,2064571,2359483,1174,1533,-356,-3119,507,-189,-167,3960,15,10,906
36716,2061064,2355308,2064768,2359680,1217,1689,-339,-3195,467,-209,-288,3929,27,25,906
37717,2061208,2355400,2064965,2359877,966,1611,-314,-3297,419,-252,-160,3863,27,25,906
38718,2061316,2355484,2065162,2360074,1231,1712,-279,-3408,361,-243,43,3789,21,10,904
39719,2061440,2355556,2065359,2360271,1164,1843,-244,-3495,307,-215,64,3791,21,10,904
40720,2061564,2355624,2065556,2360468,1197,1925,-211,-3562,259,-296,128,3792,27,23,905
41721,2061704,2355708,2065753,2360665,1122,1876,-175,-3639,214,-280,253,3782,27,23,905
42722,2061824,2355760,2065950,2360862,1282,2141,-144,-3752,173,-225,296,3751,34,16,903
43723,2061932,2355852,2066147,2361059,1397,1937,-117,-3902,128,-239,416,3772,34,16,903
44724,2062060,2355948,2066344,2361256,1303,1957,-93,-3984,70,-248,516,3836,14,25,903
45725,2062176,2356040,2066541,2361453,1415,2029,-79,-4045,13,-265,546,3960,14,25,903
46726,2062296,2356112,2066738,2361650,1424,2211,-63,-4071,-37,-200,560,3990,24,14,902
47727,2062456,2356192,2066935,2361847,1191,2214,-44,-4131,-86,-92,636,3936,24,14,902
48728,2062572,2356264,2067132,2362044,1502,2320,-30,-4178,-126,-12,670,3967,38,10,900
49729,2062708,2356352,2067329,2362241,1405,2268,-25,-4238,-158,56,630,4038,38,10,900
50730,2062872,2356432,2067526,2362438,1246,2371,-28,-4242,-185,209,599,4063,17,10,901
51731,2063020,2356508,2067723,2362635,1368,2450,-29,-4256,-211,286,689,4130,17,10,901
52732,2063148,2356580,2067920,2362832,1525,2531,-28,-4199,-243,354,816,4251,20,6,900
53733,2063308,2356648,2068117,2363029,1341,2614,-29,-4180,-278,420,879,4254,20,6,900
54734,2063456,2356712,2068314,2363226,1438,2699,-35,-4133,-308,489,968,4263,32,24,899
55735,2063592,2356796,2068511,2363423,1541,2625,-46,-4051,-340,484,930,4391,32,24,899
56736,2063748,2356880,2068708,2363620,1435,2675,-64,-3965,-391,321,625,4366,38,18,898
57737,2063900,2356968,2068905,2363817,1481,2699,-91,-3877,-436,222,103,4482,38,18,898
58738,2064060,2357052,2069102,2364014,1448,2776,-127,-3770,-476,164,101,4435,21,29,897
59739,2064208,2357156,2069299,2364211,1546,2693,-173,-3712,-536,122,453,4250,21,29,897
60740,2064364,2357260,2069496,2364408,1515,2735,-224,-3674,-595,94,423,4135,32,28,897
61741,2064548,2357376,2069693,2364605,1346,2697,-285,-3701,-647,20,130,4044,32,28,897
62742,2064688,2357492,2069890,2364802,1648,2734,-339,-3726,-683,42,-293,4049,41,30,898
63743,2064880,2357596,2070087,2364999,1326,2851,-383,-3762,-718,-104,-515,3934,41,30,898
64744,2065040,2357696,2070284,2365196,1543,2920,-424,-3785,-759,-207,-740,3955,34,30,898
65745,2065208,2357772,2070481,2365393,1507,3125,-462,-3825,-780,-198,-934,3911,34,30,898
66746,2065384,2357872,2070678,2365590,1467,3019,-485,-3894,-764,-224,-992,3809,26,11,897
67747,2065536,2357960,2070875,2365787,1638,3143,-494,-3953,-728,-328,-1027,3753,26,11,897
68748,2065704,2358056,2071072,2365984,1551,3139,-488,-4078,-677,-408,-1319,3678,33,26,895
69749,2065872,2358140,2071269,2366181,1565,3265,-474,-4171,-593,-410,-1722,3749,33,26,895
70750,2066044,2358212,2071466,2366378,1552,3397,-450,-4298,-480,-444,-2114,3786,39,21,893
71751,2066188,2358340,2071663,2366575,1752,3078,-431,-4332,-349,-459,-2424,3948,39,21,893
72752,2066360,2358436,2071860,2366772,1588,3325,-424,-4332,-210,-521,-2585,4068,44,30,893
73753,2066516,2358540,2072057,2366969,1708,3317,-422,-4239,-68,-549,-2890,4255,44,30,893
74754,2066684,2358684,2072254,2367166,1646,3092,-441,-4133,66,-495,-2984,4406,27,18,892
75755,2066872,2358816,2072451,2367363,1526,3198,-470,-3966,189,-456,-2878,4512,27,18,892
76755,2067056,2358960,2072648,2367560,1558,3147,-495,-3846,297,-426,-2596,4377,45,25,893
77757,2067224,2359120,2072845,2367757,1672,3065,-498,-3774,374,-335,-2205,4154,45,25,893
78757,2067420,2359280,2073042,2367954,1499,3083,-476,-3839,434,-240,-1801,3896,26,41,894
79759,2067620,2359432,2073239,2368151,1474,3154,-443,-3943,502,-100,-1464,3757,26,41,894
80760,2067800,2359600,2073436,2368348,1607,3069,-399,-4067,599,53,-1408,3667,39,32,893
81761,2067976,2359752,2073633,2368545,1642,3191,-345,-4250,721,179,-1477,3602,39,32,893
82761,2068204,2359940,2073830,2368742,1305,2971,-257,-4433,842,358,-1820,3574,51,35,894
83762,2068424,2360100,2074027,2368939,1346,3164,-146,-4647,936,467,-1810,3532,51,35,894
84763,2068628,2360280,2074224,2369136,1444,3048,-32,-4813,992,561,-1559,3577,40,30,893
85765,2068856,2360416,2074421,2369333,1281,3351,68,-4975,1034,696,-1372,3675,40,30,893
86766,2069072,2360572,2074618,2369530,1349,3246,149,-5029,1089,769,-1097,3918,40,25,896
87767,2069256,2360716,2074815,2369727,1555,3346,206,-5091,1143,810,-546,4054,40,25,896
88768,2069480,2360876,2075012,2369924,1295,3264,233,-5079,1172,827,-121,4178,30,27,894
89769,2069696,2361020,2075209,2370121,1337,3389,225,-5079,1175,881,119,4224,30,27,894
90770,2069876,2361156,2075406,2370318,1571,3468,189,-4998,1151,943,252,4499,45,41,893
91771,2070108,2361324,2075603,2370515,1231,3283,144,-4924,1141,974,64,4438,45,41,893
92772,2070288,2361484,2075800,2370712,1565,3350,84,-4776,1153,1024,-41,4614,48,29,893
93792,2070496,2361620,2076030,2370942,2425,3800,3,-4630,1172,1150,-147,4686,48,29,893
94786,2070688,2361772,2076227,2371139,2530,3800,-80,-4528,1196,1239,30,4600,31,22,894
95788,2070884,2361916,2076424,2371336,2506,3800,-153,-4501,1207,1302,436,4504,31,22,894
96788,2071108,2362052,2076621,2371533,2320,3800,-221,-4482,1218,1394,518,4342,49,27,887
97790,2071328,2362216,2076818,2371730,2336,3800,-283,-4451,1243,1465,506,4340,49,27,887
98790,2071624,2362400,2077015,2371927,1819,3800,-329,-4465,1275,1461,551,4189,42,28,886
99791,2071888,2362620,2077212,2372124,1990,3800,-363,-4554,1290,1443,599,3978,42,28,886
100792,2072160,2362816,2077409,2372321,1908,3800,-384,-4697,1282,1473,599,3961,44,32,887
101793,2072436,2363008,2077606,2372518,1849,3800,-396,-4806,1271,1439,650,3926,44,32,887
102794,2072708,2363260,2077803,2372715,1843,3800,-415,-4903,1252,1320,681,4145,65,38,888
103796,2072992,2363472,2078000,2372912,1730,3800,-423,-4881,1237,1106,718,4313,65,38,888
104796,2073304,2363700,2078197,2373109,1506,3800,-442,-4841,1232,928,788,4466,68,59,889
105785,2073532,2364008,2078394,2373306,2018,3505,-451,-4771,1230,823,822,4550,68,59,889
106786,2073804,2364296,2078591,2373503,1711,3592,-468,-4709,1252,720,633,4575,49,66,890
107787,2074084,2364576,2078788,2373700,1625,3606,-470,-4609,1297,549,402,4729,49,66,890
108788,2074324,2364880,2078985,2373897,1857,3411,-470,-4539,1369,354,341,4745,40,70,890
109789,2074600,2365196,2079182,2374094,1598,3286,-459,-4433,1465,17,207,4926,40,70,890
110789,2074852,2365532,2079379,2374291,1725,3101,-440,-4274,1590,-308,100,4889,63,68,893
111791,2075120,2365808,2079576,2374488,1595,3443,-396,-4187,1730,-560,110,4654,63,68,893
112792,2075356,2366096,2079773,2374685,1779,3330,-321,-4225,1862,-762,143,4504,61,55,894
113793,2075584,2366380,2079970,2374882,1816,3318,-222,-4332,2004,-953,87,4200,61,55,894
114794,2075820,2366668,2080167,2375079,1749,3255,-90,-4525,2152,-1112,33,4121,54,66,893
115795,2076056,2366936,2080364,2375276,1733,3351,24,-4722,2287,-1348,32,4249,54,66,893
116796,2076248,2367220,2080561,2375473,2011,3213,136,-4855,2429,-1494,-18,4439,58,54,893
117797,2076500,2367448,2080758,2375670,1613,3552,233,-4933,2575,-1432,95,4509,58,54,893
118798,2076728,2367696,2080955,2375867,1750,3405,336,-5065,2697,-1424,348,4463,54,50,893
119799,2076920,2367968,2081152,2376064,1978,3224,422,-5247,2809,-1297,346,4460,54,50,893
120800,2077156,2368228,2081349,2376261,1686,3273,440,-5375,2911,-1031,-266,4700,34,56,892
121800,2077364,2368468,2081546,2376458,1857,3381,399,-5377,3020,-834,-622,5073,34,56,892
122801,2077576,2368708,2081743,2376655,1827,3364,331,-5357,3134,-668,-827,5140,36,53,893
123803,2077780,2368920,2081940,2376852,1875,3533,231,-5269,3239,-601,-1102,5423,36,53,893
124803,2077976,2369140,2082137,2377049,1926,3475,106,-5122,3347,-549,-1351,5544,43,54,892
125804,2078176,2369384,2082334,2377246,1900,3305,-39,-4980,3452,-364,-1633,5625,43,54,892
126805,2078348,2369600,2082531,2377443,2087,3474,-165,-4943,3530,-212,-1655,5361,28,41,889
127807,2078544,2369828,2082728,2377640,1938,3387,-278,-4890,3602,-139,-1819,5469,28,41,889
128808,2078720,2370024,2082925,2377837,2073,3589,-360,-4884,3672,-153,-1694,5253,46,36,892
129808,2078908,2370212,2083122,2378034,2003,3644,-413,-4988,3710,-121,-1371,5073,46,36,892
130810,2079080,2370392,2083319,2378231,2114,3703,-455,-5072,3730,-42,-1367,5104,40,49,891
131810,2079252,2370628,2083516,2378428,2126,3337,-479,-5227,3749,31,-1381,4884,40,49,891
132811,2079436,2370884,2083713,2378625,2058,3188,-486,-5467,3728,101,-1143,4755,29,53,890
133812,2079600,2371104,2083910,2378822,2199,3404,-470,-5723,3656,246,-769,4642,29,53,890
134814,2079740,2371296,2084107,2379019,2375,3582,-426,-5990,3536,709,-209,4537,42,41,891
135815,2079888,2371512,2084304,2379216,2346,3426,-376,-6242,3398,1031,38,4692,42,41,891
136816,2080072,2371704,2084501,2379413,2128,3579,-316,-6441,3272,1128,133,4797,38,51,890
137817,2080248,2371928,2084698,2379610,2188,3369,-240,-6608,3136,1223,310,4815,38,51,890
138818,2080428,2372176,2084895,2379807,2172,3198,-143,-6738,2981,1300,434,4991,28,48,889
139819,2080596,2372424,2085092,2380004,2260,3178,-40,-6743,2835,1241,337,5442,28,48,889
140819,2080760,2372652,2085289,2380201,2301,3290,59,-6697,2754,1266,218,5644,50,50,890
141821,2080924,2372856,2085486,2380398,2316,3439,144,-6515,2704,1221,147,6025,50,50,890
142821,2081112,2373096,2085683,2380595,2170,3196,228,-6289,2653,1063,90,6155,46,52,891
143822,2081284,2373336,2085880,2380792,2282,3179,314,-6013,2577,982,-90,6060,46,52,891
144824,2081436,2373572,2086077,2380989,2428,3188,406,-5748,2468,937,-96,6168,29,44,890
145824,2081584,2373808,2086274,2381186,2476,3172,515,-5442,2380,916,-524,6158,29,44,890
146825,2081712,2374036,2086471,2381383,2632,3210,629,-5165,2367,894,-1000,6146,44,35,890
147826,2081820,2374264,2086668,2381580,2797,3198,757,-4874,2385,633,-950,5978,44,35,890
148827,2081936,2374464,2086865,2381777,2784,3373,933,-4776,2360,736,-337,5361,29,51,889
149828,2082048,2374728,2087062,2381974,2847,2945,1162,-4812,2273,1208,185,4891,29,51,889
150830,2082152,2375032,2087259,2382171,2939,2649,1398,-4852,2162,1480,394,4885,20,58,887
151831,2082268,2375296,2087456,2382368,2900,2871,1607,-4780,2064,1267,52,5126,20,58,887
152832,2082392,2375548,2087653,2382565,2883,2923,1791,-4641,2018,1126,-162,5173,26,52,889
153833,2082504,2375808,2087850,2382762,2997,2846,1953,-4427,2005,1023,-127,5437,26,52,889
154834,2082640,2376112,2088047,2382959,2875,2526,2076,-4066,1965,784,-254,5675,38,47,889
155835,2082796,2376428,2088244,2383156,2769,2400,2180,-3714,1902,494,-407,5562,38,47,889
156836,2082924,2376696,2088441,2383353,2975,2670,2271,-3325,1879,45,-606,5763,29,64,890
157837,2083048,2376952,2088638,2383550,3033,2721,2339,-2884,1942,-181,-964,5967,29,64,890
158838,2083168,2377240,2088835,2383747,3093,2482,2409,-2454,2006,-181,-636,5517,20,49,893
159839,2083276,2377536,2089032,2383944,3208,2390,2537,-2284,2004,149,124,4322,20,49,893
160840,2083376,2377860,2089229,2384141,3302,2160,2690,-2305,1985,603,394,3851,18,61,890
161841,2083508,2378128,2089426,2384338,3131,2480,2789,-2324,2043,765,93,4060,18,61,890
162842,2083652,2378372,2089623,2384535,3080,2611,2871,-2299,2167,695,278,3845,36,57,890
163843,2083820,2378612,2089820,2384732,2944,2618,2956,-2325,2280,575,243,3573,36,57,890
164844,2084024,2378940,2090017,2384929,2718,2011,3045,-2399,2334,626,389,3131,36,52,890
165844,2084204,2379280,2090214,2385126,2877,1875,3086,-2446,2364,710,310,3482,36,52,890
166845,2084372,2379584,2090411,2385323,2965,2054,3042,-2259,2430,506,31,4135,34,71,890
167847,2084540,2379852,2090608,2385520,2979,2248,2987,-1984,2548,255,149,4025,34,71,890
168848,2084712,2380164,2090805,2385717,2966,1924,2943,-1737,2636,121,389,3970,46,50,893
169849,2084856,2380492,2091002,2385914,3165,1767,2925,-1610,2657,416,839,3288,46,50,893
170850,2085080,2380788,2091199,2386111,2655,1926,2934,-1616,2665,1050,1158,2860,44,66,892
171851,2085316,2381096,2091396,2386308,2564,1803,2941,-1591,2702,1098,1004,2885,44,66,892
172852,2085516,2381388,2091593,2386505,2789,1862,2961,-1623,2789,786,556,2720,58,64,894
173853,2085736,2381728,2091790,2386702,2655,1499,2965,-1462,2916,450,-35,3119,58,64,894
174853,2085944,2382048,2091987,2386899,2726,1571,2982,-1316,3023,329,306,2697,50,68,897
175855,2086140,2382352,2092184,2387096,2803,1625,3015,-1295,3044,537,770,2412,50,68,897
176863,2086368,2382600,2092414,2387326,2604,1968,3030,-1207,3021,911,749,2528,34,63,897
177857,2086636,2382928,2092611,2387523,2325,1412,3034,-1114,2994,1185,734,2446,34,63,897
178858,2086876,2383236,2092808,2387720,2482,1489,3006,-810,2979,1264,504,2960,61,61,897
179859,2087112,2383540,2093005,2387917,2491,1468,2976,-432,3030,963,99,2770,61,61,897
180860,2087356,2383800,2093202,2388114,2422,1716,2968,-185,3083,803,318,2476,53,63,899
181861,2087588,2384052,2093399,2388311,2482,1743,2959,12,3036,759,469,2245,53,63,899
182861,2087852,2384360,2093596,2388508,2254,1344,2948,45,2902,821,465,1731,49,47,899
183863,2088140,2384676,2093793,2388705,2065,1243,2931,64,2727,1243,367,1521,49,47,899
184864,2088428,2384960,2093990,2388902,2026,1406,2883,214,2640,1399,-169,1803,64,58,898
185865,2088684,2385264,2094187,2389099,2201,1235,2813,480,2673,1196,-415,1865,64,58,898
186866,2088948,2385516,2094384,2389296,2122,1536,2699,721,2697,939,-288,1961,54,65,902
187867,2089256,2385780,2094581,2389493,1800,1432,2597,860,2617,733,0,1416,54,65,902
188868,2089540,2386120,2094778,2389690,1912,895,2504,879,2380,954,460,971,60,61,901
189869,2089868,2386416,2094975,2389887,1581,1128,2370,960,2060,1275,495,1298,60,61,901
190869,2090156,2386704,2095172,2390084,1792,1138,2170,1134,1830,1204,188,1553,49,63,902
191871,2090408,2386948,2095369,2390281,1994,1393,1924,1388,1708,1197,24,1734,49,63,902
192872,2090712,2387224,2095566,2390478,1623,1158,1661,1679,1607,1100,89,1560,50,60,903
193873,2091028,2387544,2095763,2390675,1496,830,1405,1837,1464,837,322,993,50,60,903
194874,2091312,2387896,2095960,2390872,1659,563,1116,1867,1276,635,149,754,47,69,902
195875,2091588,2388172,2096157,2391069,1675,1004,770,1823,1138,609,55,786,47,69,902
196876,2091848,2388424,2096354,2391266,1749,1130,426,1803,1092,900,252,773,46,63,906
197877,2092160,2388768,2096551,2391463,1374,491,116,1838,1087,1138,264,731,46,63,906
198877,2092444,2389076,2096748,2391660,1512,668,-168,1829,1110,1134,296,569,69,64,905
199879,2092740,2389376,2096945,2391857,1393,673,-443,1718,1155,1269,254,440,69,64,905
200880,2093004,2389620,2097142,2392054,1565,1003,-729,1606,1211,1299,266,576,51,51,907
201881,2093248,2389912,2097339,2392251,1670,661,-1022,1537,1253,1198,380,814,51,51,907
202882,2093592,2390200,2097536,2392448,982,647,-1318,1509,1242,1023,460,818,60,61,905
203883,2093876,2390520,2097733,2392645,1319,393,-1625,1517,1245,1040,466,1310,60,61,905
204884,2094160,2390768,2097930,2392842,1281,822,-1953,1641,1238,1039,830,1528,60,61,906
205885,2094452,2391000,2098127,2393039,1190,907,-2285,1733,1178,868,1090,1333,60,61,906
206885,2094728,2391288,2098324,2393236,1257,517,-2574,1741,1033,454,1311,1091,51,58,908
207887,2095008,2391548,2098521,2393433,1195,665,-2851,1635,831,109,1424,1063,51,58,908
208888,2095292,2391796,2098718,2393630,1133,717,-3132,1508,639,33,1244,1221,56,50,907
209889,2095548,2392024,2098915,2393827,1283,829,-3445,1507,494,-103,874,1609,56,50,907
210889,2095764,2392216,2099112,2394024,1525,1057,-3764,1536,356,-323,890,1511,47,37,908
211890,2096032,2392384,2099309,2394221,1170,1220,-4078,1485,177,-575,993,1286,47,37,908
212891,2096336,2392540,2099506,2394418,899,1313,-4373,1344,-48,-774,1083,1259,40,38,906
213892,2096584,2392744,2099703,2394615,1226,1011,-4661,1140,-307,-920,1088,1216,40,38,906
214893,2096800,2392976,2099900,2394812,1419,820,-4925,857,-575,-1030,425,1155,42,36,904
215895,2097032,2393136,2100097,2395009,1303,1287,-5143,509,-836,-1133,-179,959,42,36,904
216896,2097280,2393328,2100294,2395206,1182,1090,-5299,84,-1091,-1152,-115,955,53,29,906
217897,2097508,2393500,2100491,2395403,1294,1226,-5441,-356,-1313,-1078,-420,1095,53,29,906
218898,2097744,2393656,2100688,2395600,1227,1345,-5575,-826,-1474,-1035,-1225,1005,57,27,905
219899,2097952,2393792,2100885,2395797,1398,1497,-5649,-1389,-1619,-1077,-1467,606,57,27,905
220900,2098164,2393920,2101082,2395994,1367,1577,-5661,-2148,-1780,-1150,-1643,514,33,26,905
221901,2098388,2394100,2101279,2396191,1281,1260,-5625,-2926,-1904,-1226,-2152,875,33,26,905
222901,2098632,2394288,2101476,2396388,1135,1214,-5548,-3659,-1966,-1214,-2208,1007,32,29,903
223903,2098852,2394460,2101673,2396585,1276,1326,-5418,-4382,-1996,-1037,-1850,982,32,29,903
224904,2099080,2394600,2101870,2396782,1213,1551,-5268,-5069,-1989,-929,-1737,1492,34,22,904
225905,2099308,2394768,2102067,2396979,1200,1389,-5136,-5664,-1969,-875,-1500,1930,34,22,904
226906,2099520,2394916,2102264,2397176,1293,1537,-5016,-6187,-1944,-663,-1213,2070,41,25,904
227907,2099732,2395064,2102461,2397373,1288,1558,-4884,-6753,-1893,-381,-1048,2315,41,25,904
228908,2099964,2395196,2102658,2397570,1148,1688,-4753,-7280,-1803,-113,-979,2661,33,24,905
229909,2100180,2395312,2102855,2397767,1240,1823,-4633,-7775,-1683,107,-811,2825,33,24,905
230910,2100404,2395440,2103052,2397964,1179,1780,-4522,-8180,-1544,261,-547,3125,32,20,903
231911,2100620,2395632,2103249,2398161,1221,1382,-4419,-8553,-1398,436,-310,3392,32,20,903
232912,2100840,2395824,2103446,2398358,1187,1384,-4299,-8957,-1268,731,-73,3275,51,33,902
233913,2101064,2395996,2103643,2398555,1150,1521,-4197,-9364,-1141,1151,-52,3636,51,33,902
234914,2101284,2396144,2103840,2398752,1166,1693,-4144,-9640,-993,1665,-31,4171,32,28,905
235915,2101520,2396280,2104037,2398949,1049,1795,-4119,-9900,-814,2225,99,4140,32,28,905
236916,2101716,2396424,2104234,2399146,1299,1769,-4094,-10076,-629,2615,241,4241,34,33,903
237917,2101936,2396580,2104431,2399343,1140,1713,-4104,-10174,-463,2987,495,4752,34,33,903
238917,2102100,2396752,2104628,2399540,1504,1625,-4149,-10223,-328,3320,483,5016,29,35,903
239919,2102288,2396920,2104825,2399737,1359,1662,-4187,-10250,-219,3622,253,4895,29,35,903
240920,2102492,2397108,2105022,2399934,1256,1542,-4189,-10258,-159,3893,186,5049,38,24,903
241921,2102680,2397264,2105219,2400131,1361,1760,-4237,-10024,-119,4205,-165,6248,38,24,903
242922,2102864,2397436,2105416,2400328,1392,1672,-4409,-9361,-72,4442,-592,7399,40,30,902
243922,2103060,2397600,2105613,2400525,1318,1737,-4665,-8484,-60,4530,-590,7920,40,30,902
244924,2103244,2397748,2105810,2400722,1399,1859,-4950,-7510,-153,4709,-218,8261,23,35,902
245924,2103440,2397908,2106007,2400919,1326,1801,-5199,-6603,-315,5052,169,8031,23,35,902
246925,2103596,2398036,2106204,2401116,1594,2032,-5420,-5811,-459,5428,277,8029,41,24,902
247927,2103788,2398196,2106401,2401313,1372,1848,-5168,-4738,-558,6424,127,11276,41,24,902
248928,2104004,2398332,2106598,2401510,1213,2026,-2961,286,-815,11230,-1658,32767,40,40,903
249929,2104180,2398496,2106795,2401707,1474,1867,-485,3878,-1100,8088,-25,17509,40,40,903
250930,2104388,2398632,2106992,2401904,1269,2068,229,3009,-1246,6146,1098,743,26,31,902
251931,2104556,2398748,2107189,2402101,1533,2230,112,723,-1191,6306,253,721,26,31,902
252932,2104748,2398892,2107386,2402298,1385,2079,-192,-1336,-985,6408,-696,1117,38,18,901
253933,2104940,2399044,2107583,2402495,1388,2049,-216,-2335,-774,5830,-1160,1874,38,18,901
254933,2105140,2399200,2107780,2402692,1337,2043,-140,-2982,-702,5124,-1127,2126,25,35,899
255935,2105316,2399360,2107977,2402889,1497,2035,-37,-3427,-711,4589,-1964,2573,25,35,899
256935,2105508,2399500,2108174,2403086,1399,2185,-35,-3663,-672,3826,-2857,4045,30,38,900
257937,2105688,2399660,2108371,2403283,1483,2078,-99,-3391,-527,3061,-3550,5447,30,38,900
258938,2105872,2399800,2108568,2403480,1463,2229,-183,-2784,-340,2467,-4008,5943,46,30,900
259945,2106068,2399972,2108798,2403710,1404,2054,-297,-1923,-139,1925,-4317,6771,46,30,900
260939,2106280,2400132,2108995,2403907,1298,2146,-406,-949,34,1427,-4061,6779,28,31,901
261940,2106436,2400304,2109192,2404104,1667,2083,-406,-28,105,1059,-3625,6577,28,31,901
262941,2106636,2400460,2109389,2404301,1390,2201,-356,817,151,649,-3354,6496,22,28,901
263943,2106792,2400640,2109586,2404498,1684,2060,-288,1588,205,400,-3113,6401,22,28,901
264943,2106956,2400772,2109783,2404695,1649,2389,-202,2349,269,264,-2920,6019,26,39,900
265945,2107116,2400948,2109980,2404892,1691,2125,-105,2955,342,-18,-2371,5708,26,39,900
266945,2107312,2401124,2110177,2405089,1468,2134,-7,3516,410,-137,-2086,5650,39,28,899
267947,2107476,2401316,2110374,2405286,1682,2037,63,3967,450,-50,-1730,5227,39,28,899
268947,2107636,2401500,2110571,2405483,1724,2094,112,4325,485,29,-1346,4880,35,30,898
269949,2107824,2401668,2110768,2405680,1553,2208,131,4513,536,102,-1025,4369,35,30,898
270949,2108000,2401852,2110965,2405877,1638,2113,116,4535,603,145,-923,3777,29,43,899
271951,2108180,2402056,2111162,2406074,1621,1986,96,4287,688,171,-756,3184,29,43,899
272952,2108372,2402268,2111359,2406271,1549,1931,89,3835,776,192,-528,2551,39,39,900
273953,2108564,2402456,2111556,2406468,1551,2086,87,3237,876,140,-627,2132,39,39,900
274954,2108760,2402644,2111753,2406665,1528,2090,81,2553,994,-105,-738,1775,34,43,900
275955,2108968,2402832,2111950,2406862,1449,2094,82,1758,1127,-119,-874,1465,34,43,900
276955,2109168,2403044,2112147,2407059,1498,1939,67,897,1282,-75,-949,1423,48,32,900
277956,2109372,2403264,2112344,2407256,1471,1880,33,38,1454,-165,-833,1616,48,32,900
278957,2109576,2403448,2112541,2407453,1467,2112,-29,-676,1620,-343,-727,2054,39,33,899
279959,2109776,2403640,2112738,2407650,1492,2064,-95,-1275,1765,-531,-585,2341,39,33,899
280959,2109956,2403836,2112935,2407847,1625,2040,-153,-1791,1889,-703,-568,2688,51,34,900
281961,2110172,2404036,2113132,2408044,1392,2015,-210,-2196,1992,-944,-719,3044,51,34,900
282962,2110372,2404280,2113329,2408241,1492,1720,-280,-2484,2072,-1212,-904,3497,46,51,900
283963,2110596,2404492,2113526,2408438,1330,1914,-356,-2680,2152,-1453,-1110,3819,46,51,900
284964,2110788,2404712,2113723,2408635,1533,1854,-427,-2851,2233,-1572,-1392,4137,47,49,901
285965,2111004,2404940,2113920,2408832,1375,1792,-502,-2911,2297,-1743,-1038,4485,47,49,901
286966,2111204,2405192,2114117,2409029,1475,1619,-597,-2892,2380,-1824,-1456,4713,46,51,902
287967,2111372,2405464,2114314,2409226,1687,1461,-724,-2874,2496,-1872,-1733,4632,46,51,902
288968,2111604,2405744,2114511,2409423,1273,1375,-862,-2906,2629,-2048,-1054,4639,32,45,902
289969,2111812,2405980,2114708,2409620,1418,1634,-997,-2894,2811,-2037,-1052,4959,32,45,902
290970,2112060,2406204,2114905,2409817,1147,1697,-1112,-2865,3026,-1973,-1288,4978,49,56,902
291971,2112288,2406464,2115102,2410014,1259,1446,-1198,-2815,3256,-1930,-1236,4918,49,56,902
292972,2112464,2406716,2115299,2410211,1593,1472,-1230,-2923,3475,-1815,-1199,4611,42,42,903
293973,2112648,2406968,2115496,2410408,1550,1448,-1177,-3168,3667,-1607,-1540,4189,42,42,903
294974,2112824,2407196,2115693,2410605,1609,1586,-1054,-3446,3826,-1347,-1671,4220,30,43,904
295975,2112996,2407408,2115890,2410802,1646,1680,-487,-3154,3928,-190,-1232,9511,30,43,904
296976,2113132,2407612,2116087,2410999,1898,1727,747,-1588,3888,1479,-793,19365,41,42,903
297977,2113300,2407852,2116284,2411196,1712,1484,1639,-1032,3892,-308,-1232,5610,41,42,903
298978,2113512,2408084,2116481,2411393,1430,1520,1867,-1845,4021,-755,-1236,2298,29,47,902
299979,2113692,2408340,2116678,2411590,1639,1344,1784,-3146,4216,-642,-763,2034,29,47,902
300979,2113908,2408572,2116875,2411787,1406,1479,1717,-4153,4447,-471,-807,2370,47,51,901
301980,2114080,2408804,2117072,2411984,1692,1465,1718,-4846,4706,-328,-925,2494,47,51,901
302981,2114256,2409004,2117269,2412181,1678,1664,1757,-5459,4899,-390,-380,2617,38,41,903
303983,2114432,2409236,2117466,2412378,1687,1449,1812,-6048,5007,-628,-115,2886,38,41,903
304984,2114580,2409496,2117663,2412575,1884,1247,1910,-6478,5111,-804,-987,3355,48,46,902
305984,2114752,2409748,2117860,2412772,1745,1273,2063,-6718,5221,-893,-1076,3914,48,46,902
306986,2114916,2410036,2118057,2412969,1811,1009,2242,-6774,5300,-1055,-272,4389,30,56,902
307987,2115096,2410304,2118254,2413166,1719,1103,2379,-6636,5356,-1037,-354,4903,30,56,902
308988,2115228,2410464,2118451,2413363,2048,1795,2447,-6271,5382,-1129,-149,5402,36,53,903
309988,2115372,2410612,2118648,2413560,1997,1892,2487,-5822,5409,-1217,-191,5751,34,31,903
310989,2115524,2410800,2118845,2413757,1967,1647,2542,-5358,5432,-1112,-493,5829,34,31,903
311991,2115676,2410996,2119042,2413954,1988,1597,2636,-4855,5462,-1065,-825,5795,26,45,898
312991,2115820,2411184,2119239,2414151,2062,1652,2764,-4376,5480,-1016,-473,5565,26,45,898
313992,2116000,2411400,2119436,2414348,1844,1469,2895,-4016,5464,-782,-417,5116,32,42,900
314994,2116144,2411664,2119633,2414545,2094,1141,3053,-3729,5465,-356,-829,4995,32,42,900
315995,2116320,2412000,2119830,2414742,1904,630,3255,-3474,5502,134,-426,4782,36,59,902
316996,2116480,2412244,2120027,2414939,2020,1185,3467,-3250,5510,468,417,4561,36,59,902
317997,2116640,2412420,2120224,2415136,2038,1620,3616,-2997,5476,703,732,4568,29,50,904
318998,2116804,2412736,2120421,2415333,2028,693,3669,-2794,5420,804,514,4187,29,50,904
319999,2117004,2413000,2120618,2415530,1802,989,3646,-2633,5268,760,986,3765,31,69,901
321000,2117168,2413268,2120815,2415727,2042,933,3538,-2509,5049,796,1168,3942,31,69,901
322000,2117352,2413572,2121012,2415924,1924,662,3359,-2194,4825,918,881,4569,36,48,902
323002,2117520,2413820,2121209,2416121,2037,990,3085,-1734,4554,852,860,4788,36,48,902
324003,2117708,2414052,2121406,2416318,1917,1074,2773,-1206,4251,643,643,4859,29,55,904
325004,2117892,2414236,2121603,2416515,1948,1381,2425,-660,3861,431,736,4928,29,55,904
326004,2118072,2414416,2121800,2416712,1982,1413,2042,-137,3317,160,1051,4766,38,33,903
327006,2118264,2414616,2121997,2416909,1909,1288,1609,314,2581,21,1941,4513,38,33,903
328007,2118424,2414848,2122194,2417106,2126,1073,1068,707,1667,99,2729,4348,28,47,901
329008,2118592,2415056,2122391,2417303,2090,1219,455,995,760,551,2838,3999,28,47,901
330009,2118784,2415252,2122588,2417500,1942,1294,-148,1110,-15,1024,2775,3222,26,37,901
331010,2118948,2415480,2122785,2417697,2133,1081,-659,782,-631,1336,2208,1721,26,37,901
332011,2119112,2415688,2122982,2417894,2148,1202,-1032,-3,-1109,1545,1431,383,46,44,901
333011,2119276,2415996,2123179,2418091,2164,528,-1242,-1112,-1448,1774,742,-700,46,44,901
334013,2119440,2416284,2123376,2418288,2178,614,-1328,-2443,-1650,2097,275,-1096,47,47,900
335013,2119616,2416536,2123573,2418485,2113,815,-1400,-3742,-1750,2422,427,-984,47,47,900
336015,2119804,2416796,2123770,2418682,2043,737,-1426,-4914,-1730,2620,216,-630,45,46,903
337016,2119992,2417044,2123967,2418879,2048,791,-1374,-5783,-1548,2754,-197,326,45,46,903
338017,2120152,2417268,2124164,2419076,2240,929,-1296,-6214,-1346,2579,-50,1708,44,43,903
339018,2120348,2417548,2124361,2419273,2016,543,-1253,-6231,-1309,1962,323,2746,44,43,903
340019,2120532,2417784,2124558,2419470,2098,801,-1222,-5949,-1440,1424,650,3592,48,41,902
341020,2120700,2418008,2124755,2419667,2211,865,-1172,-5410,-1593,1218,1005,4617,48,41,902
342021,2120892,2418208,2124952,2419864,2064,1013,-1106,-4571,-1670,1032,765,5708,48,50,903
343031,2121076,2418360,2125182,2420094,2135,1349,-1042,-3440,-1682,654,327,6446,48,50,903
344023,2121268,2418520,2125379,2420291,2088,1315,-989,-2211,-1700,205,414,6812,48,30,901
345023,2121444,2418672,2125576,2420488,2198,1385,-995,-897,-1762,-114,716,7138,48,30,901
346024,2121656,2418828,2125773,2420685,1968,1379,-1023,351,-1815,-177,197,6930,29,37,901
347025,2121832,2418972,2125970,2420882,2202,1477,-1020,1407,-1817,-200,-312,6217,29,37,901
348027,2122032,2419100,2126167,2421079,2052,1607,-957,2124,-1805,-258,-500,5400,47,24,901
349028,2122232,2419244,2126364,2421276,2051,1531,-876,2689,-1789,-271,-980,5097,47,24,901
350029,2122412,2419388,2126561,2421473,2185,1555,-817,3149,-1769,-368,-1405,4838,35,28,900
351029,2122600,2419532,2126758,2421670,2139,1579,-759,3480,-1765,-496,-1722,4338,35,28,900
352031,2122800,2419644,2126955,2421867,2063,1816,-711,3625,-1799,-618,-1809,3793,27,29,899
353032,2122996,2419764,2127152,2422064,2090,1800,-684,3528,-1874,-738,-1941,3064,27,29,899
354033,2123188,2419888,2127349,2422261,2118,1808,-684,3171,-1927,-837,-2606,2477,38,20,899
355033,2123392,2420012,2127546,2422458,2041,1840,-739,2674,-1932,-973,-3021,2142,38,20,899
356035,2123576,2420164,2127743,2422655,2172,1686,-820,2113,-1936,-1088,-2976,1706,51,24,898
357036,2123784,2420312,2127940,2422852,2018,1733,-899,1412,-1943,-1129,-3180,1408,51,24,898
358036,2123988,2420464,2128137,2423049,2041,1728,-964,668,-1932,-1241,-3308,1281,43,22,899
359037,2124188,2420596,2128334,2423246,2065,1882,-1022,-121,-1904,-1400,-2810,1217,43,22,899
360039,2124380,2420756,2128531,2423443,2119,1724,-1078,-932,-1859,-1459,-2399,1312,44,20,899
361039,2124600,2420896,2128728,2423640,1934,1874,-1123,-1707,-1777,-1569,-2222,1480,44,20,899
362041,2124832,2421012,2128925,2423837,1844,2061,-1175,-2350,-1666,-1695,-2072,1923,46,27,899
363041,2125048,2421124,2129122,2424034,1937,2123,-1218,-2932,-1558,-1778,-1784,2087,46,27,899
364043,2125272,2421264,2129319,2424231,1876,1974,-1234,-3451,-1477,-1863,-1444,2401,34,31,899
365044,2125532,2421384,2129516,2424428,1624,2133,-1232,-3886,-1399,-1812,-1355,2770,34,31,899
366045,2125764,2421532,2129713,2424625,1784,1981,-1232,-4254,-1291,-1720,-1371,3096,47,39,898
367045,2126008,2421688,2129910,2424822,1689,1950,-1240,-4514,-1130,-1681,-1353,3587,47,39,898
368047,2126292,2421820,2130107,2425019,1402,2128,-1240,-4683,-926,-1572,-1245,3974,48,23,898
369048,2126544,2421952,2130304,2425216,1578,2158,-1217,-4741,-722,-1387,-888,4215,48,23,898
370049,2126796,2422076,2130501,2425413,1555,2240,-1152,-4769,-555,-1320,-452,4304,46,18,900
371049,2127048,2422196,2130698,2425610,1532,2300,-1059,-4825,-405,-1198,-298,4434,46,18,900
372051,2127328,2422328,2130895,2425807,1321,2254,-955,-4813,-241,-1045,-186,4730,47,30,899
373052,2127572,2422452,2131092,2426004,1525,2336,-849,-4766,-58,-863,-44,5014,47,30,899
374052,2127816,2422572,2131289,2426201,1506,2396,-720,-4651,113,-638,-121,5147,48,21,900
375053,2128064,2422708,2131486,2426398,1459,2324,-569,-4556,254,-386,-232,5107,48,21,900
376055,2128324,2422844,2131683,2426595,1357,2351,-405,-4510,360,-47,-30,5030,49,22,898
377055,2128568,2422996,2131880,2426792,1437,2272,-268,-4439,442,320,241,5140,49,22,898
378056,2128852,2423144,2132077,2426989,1150,2319,-125,-4394,478,526,632,4945,48,22,899
379057,2129100,2423284,2132274,2427186,1352,2395,8,-4440,463,674,748,4720,48,22,899
380059,2129352,2423420,2132471,2427383,1304,2447,148,-4619,421,842,839,4520,47,36,900
381060,2129592,2423556,2132668,2427580,1360,2475,259,-4772,340,1032,1244,4509,47,36,900
382061,2129836,2423684,2132865,2427777,1316,2556,337,-4955,230,1296,1318,4394,56,36,899
383061,2130068,2423832,2133062,2427974,1376,2454,380,-5198,116,1393,1130,4175,56,36,899
384063,2130312,2423940,2133259,2428171,1281,2743,411,-5455,-30,1553,815,4255,44,24,898
385064,2130536,2424080,2133456,2428368,1395,2569,425,-5628,-199,1730,534,4395,44,24,898
386065,2130768,2424260,2133653,2428565,1329,2327,443,-5790,-334,1867,427,4344,34,25,897
387066,2131016,2424420,2133850,2428762,1208,2470,433,-5912,-473,1860,588,4363,34,25,897
388067,2131232,2424564,2134047,2428959,1400,2594,402,-6006,-612,1807,519,4456,36,42,898
389067,2131444,2424724,2134244,2429156,1419,2511,353,-6076,-747,1820,590,4456,36,42,898
390068,2131652,2424884,2134441,2429353,1439,2527,318,-6183,-842,1755,385,4346,33,25,897
391069,2131860,2425024,2134638,2429550,1435,2678,321,-6310,-881,1616,400,4193,33,25,897
392070,2132044,2425184,2134835,2429747,1591,2571,357,-6479,-886,1482,458,4018,34,39,898
393071,2132248,2425336,2135032,2429944,1464,2642,409,-6710,-876,1345,334,3806,34,39,898
394072,2132464,2425516,2135229,2430141,1381,2475,478,-6957,-832,1179,53,3784,44,31,897
395073,2132660,2425648,2135426,2430338,1507,2805,554,-7125,-741,950,-277,3951,44,31,897
396074,2132860,2425820,2135623,2430535,1482,2567,608,-7155,-621,673,-620,4336,31,24,898
397075,2133048,2425932,2135820,2430732,1561,2980,651,-6995,-476,328,-955,4641,31,24,898
398077,2133260,2426088,2136017,2430929,1405,2723,712,-6824,-313,107,-1052,4508,47,41,897
399077,2133460,2426240,2136214,2431126,1479,2769,780,-6693,-133,40,-1004,4652,47,41,897
400078,2133684,2426404,2136411,2431323,1318,2709,821,-6435,31,-164,-474,4952,50,34,894
401080,2133904,2426544,2136608,2431520,1333,2885,847,-6191,177,-253,-296,4827,50,34,894
402080,2134116,2426704,2136805,2431717,1377,2777,862,-5891,329,-166,-210,4873,34,30,897
403081,2134332,2426864,2137002,2431914,1344,2795,876,-5560,519,-97,-98,4887,34,30,897
404082,2134568,2427004,2137199,2432111,1203,2946,884,-5219,723,-6,-21,4853,38,39,896
405084,2134772,2427160,2137396,2432308,1400,2865,878,-4926,917,129,-21,4686,38,39,896
406084,2135012,2427312,2137593,2432505,1157,2911,855,-4712,1115,260,-156,4549,40,39,896
407085,2135220,2427472,2137790,2432702,1352,2878,817,-4482,1307,433,-340,4516,40,39,896
408087,2135424,2427596,2137987,2432899,1375,3136,766,-4325,1481,587,-461,4206,31,37,895
409088,2135652,2427744,2138184,2433096,1211,3008,693,-4133,1650,754,-727,4296,31,37,895
410089,2135852,2427904,2138381,2433293,1386,2951,597,-3958,1795,835,-879,4185,44,37,894
411089,2136044,2428096,2138578,2433490,1438,2754,495,-3812,1876,816,-729,4012,44,37,894
412090,2136232,2428256,2138775,2433687,1468,2971,381,-3684,1884,869,-554,4016,44,26,894
413092,2136392,2428412,2138972,2433884,1659,3015,253,-3596,1848,978,-416,3771,44,26,894
414093,2136564,2428580,2139169,2434081,1596,2954,127,-3641,1781,1060,-138,3563,40,27,895
415094,2136752,2428752,2139366,2434278,1500,2941,4,-3714,1698,1096,-61,3356,40,27,895
416095,2136924,2428880,2139563,2434475,1612,3247,-128,-3809,1634,1232,-386,3295,47,43,894
417096,2137116,2429076,2139760,2434672,1489,2824,-277,-3892,1603,1289,-745,3340,47,43,894
418097,2137288,2429236,2139957,2434869,1626,3066,-424,-4022,1591,1321,-867,3260,46,47,893
419098,2137484,2429396,2140154,2435066,1477,3084,-554,-4161,1557,1293,-671,3171,46,47,893
420099,2137636,2429616,2140351,2435263,1773,2700,-666,-4344,1493,1304,-375,3133,45,32,894
421100,2137816,2429800,2140548,2435460,1605,2932,-775,-4440,1421,1289,-237,3377,45,32,894
422101,2138008,2429980,2140745,2435657,1533,2965,-929,-4544,1272,1169,369,3573,32,37,894
423102,2138164,2430140,2140942,2435854,1776,3108,-985,-4549,1189,1058,626,3766,32,37,894
424103,2138340,2430308,2141139,2436051,1662,3071,-1046,-4533,1114,1062,650,3942,40,29,894
425104,2138536,2430492,2141336,2436248,1537,2978,-1122,-4460,1077,947,445,4221,40,29,894
426112,2138708,2430672,2141566,2436478,1713,3026,-1205,-4299,1071,726,172,4383,47,43,893
427106,2138884,2430848,2141763,2436675,1698,3061,-1282,-4127,1093,542,-91,4415,47,43,893
428107,2139056,2431040,2141960,2436872,1735,2964,-1348,-3951,1135,384,-151,4526,32,33,894
429108,2139236,2431204,2142157,2437069,1692,3155,-1407,-3753,1171,154,-121,4591,32,33,894
430109,2139392,2431360,2142354,2437266,1861,3225,-1449,-3622,1198,-52,-152,4483,46,39,894
431110,2139592,2431524,2142551,2437463,1585,3190,-1464,-3523,1220,-385,-265,4483,46,39,894
432111,2139772,2431708,2142748,2437660,1718,3072,-1457,-3437,1264,-661,-636,4488,40,28,891
433112,2139960,2431912,2142945,2437857,1673,2945,-1435,-3362,1362,-850,-989,4443,40,28,891
434113,2140144,2432116,2143142,2438054,1704,2943,-1410,-3378,1500,-1007,-1356,4374,47,33,892
435114,2140356,2432284,2143339,2438251,1523,3182,-1378,-3378,1670,-1076,-1693,4317,47,33,892
436115,2140548,2432468,2143536,2438448,1651,3088,-1326,-3499,1839,-1128,-1448,4043,39,31,894
437116,2140704,2432648,2143733,2438645,1895,3122,-1253,-3682,1978,-1263,-1035,4056,39,31,894
438117,2140900,2432820,2143930,2438842,1645,3185,-1178,-3859,2103,-1326,-975,4231,42,46,893
439118,2141064,2433020,2144127,2439039,1861,3010,-1115,-3918,2253,-1436,-1052,4568,42,46,893
440119,2141244,2433196,2144324,2439236,1769,3170,-1073,-3916,2430,-1550,-1131,4964,32,34,891
441120,2141448,2433404,2144521,2439433,1616,2966,-1039,-3838,2615,-1679,-1087,5245,32,34,891
442121,2141644,2433568,2144718,2439630,1667,3256,-987,-3783,2778,-1732,-873,5276,36,41,891
443122,2141832,2433744,2144915,2439827,1721,3192,-916,-3756,2905,-1619,-686,5393,36,41,891
444123,2142044,2433920,2145112,2440024,1566,3203,-825,-3780,3041,-1415,-506,5365,28,27,892
445124,2142236,2434116,2145309,2440221,1694,3079,-742,-3782,3194,-1288,-526,5535,28,27,892
446125,2142412,2434288,2145506,2440418,1803,3241,-670,-3787,3340,-1206,-514,5663,29,41,893
447126,2142624,2434436,2145703,2440615,1573,3414,-591,-3802,3460,-1128,-502,5617,29,41,893
448127,2142800,2434624,2145900,2440812,1807,3169,-497,-3808,3544,-989,-406,5758,43,40,892
449128,2142984,2434808,2146097,2441009,1764,3201,-402,-3831,3579,-804,-69,5839,43,40,892
450129,2143172,2435004,2146294,2441206,1743,3128,-309,-3932,3578,-581,128,5714,44,38,892
451130,2143380,2435168,2146491,2441403,1614,3343,-204,-4054,3561,-196,279,5663,44,38,892
452131,2143544,2435332,2146688,2441600,1904,3359,-93,-4174,3521,98,334,5530,31,24,892
453132,2143724,2435508,2146885,2441797,1812,3294,20,-4331,3469,206,161,5611,31,24,892
454133,2143900,2435684,2147082,2441994,1847,3304,125,-4454,3417,90,-20,5742,37,33,889
455134,2144088,2435856,2147279,2442191,1776,3342,231,-4620,3349,106,57,5694,37,33,889
456135,2144252,2436080,2147476,2442388,1941,3007,337,-4761,3260,303,122,5813,32,45,890
457136,2144436,2436292,2147673,2442585,1823,3076,449,-4911,3173,435,186,5786,32,45,890
458137,2144592,2436484,2147870,2442782,2016,3204,559,-5019,3104,490,125,5886,46,32,893
459138,2144748,2436700,2148067,2442979,2035,3047,651,-5111,3059,513,-34,6059,46,32,893
460139,2144924,2436896,2148264,2443176,1920,3174,736,-5194,3021,461,89,6058,45,36,891
461140,2145072,2437088,2148461,2443373,2117,3202,828,-5257,2974,473,235,6051,45,36,891
462141,2145196,2437300,2148658,2443570,2300,3072,932,-5340,2885,494,593,5976,39,49,891
463142,2145332,2437504,2148855,2443767,2253,3120,1051,-5418,2812,538,798,5983,39,49,891
464143,2145476,2437720,2149052,2443964,2226,3037,1163,-5400,2766,518,620,6152,28,50,891
465144,2145640,2437948,2149249,2444161,2116,2950,1266,-5342,2708,382,592,6154,28,50,891
466145,2145820,2438168,2149446,2444358,2025,2992,1364,-5248,2652,191,559,6345,35,41,890
467146,2145960,2438380,2149643,2444555,2300,3036,1464,-5070,2624,-31,466,6295,35,41,890
468147,2146108,2438604,2149840,2444752,2273,2950,1578,-5059,2603,-244,547,5982,42,41,892
469148,2146268,2438840,2150037,2444949,2215,2859,1698,-5005,2570,-356,578,5976,42,41,892
470149,2146404,2439064,2150234,2445146,2392,2923,1829,-4972,2534,-364,649,5703,43,34,891
471150,2146548,2439288,2150431,2445343,2366,2913,1972,-4936,2506,-221,655,5579,43,34,891
472151,2146700,2439516,2150628,2445540,2337,2876,2133,-4956,2483,-239,746,5323,24,38,891
473152,2146852,2439728,2150825,2445737,2357,2970,2288,-4972,2484,-448,357,5283,24,38,891
474153,2146984,2439920,2151022,2445934,2511,3098,2401,-4870,2546,-898,-470,5650,26,52,891
475154,2147084,2440096,2151219,2446131,2755,3209,2495,-4713,2663,-1246,-834,5461,26,52,891
476155,2147200,2440360,2151416,2446328,2691,2630,2603,-4669,2789,-1195,-827,4946,15,51,889
477156,2147292,2440620,2151613,2446525,2888,2628,2725,-4684,2853,-930,-573,4581,15,51,889
478156,2147372,2440900,2151810,2446722,3016,2469,2859,-4782,2906,-462,-248,4166,21,50,889
479158,2147480,2441092,2152007,2446919,2880,3022,2972,-4875,3004,-233,-313,4257,21,50,889
480159,2147580,2441344,2152204,2447116,2974,2624,3072,-4901,3089,-272,-140,4238,12,42,890
481160,2147692,2441608,2152401,2447313,2937,2521,3177,-4834,3154,-214,-62,4115,12,42,890
482161,2147804,2441876,2152598,2447510,2975,2465,3256,-4738,3188,-104,-115,4152,32,54,889
483162,2147952,2442132,2152795,2447707,2773,2515,3294,-4609,3236,-80,-228,4374,32,54,889
484163,2148096,2442404,2152992,2447904,2822,2383,3288,-4332,3279,-121,-156,4543,22,51,890
485164,2148280,2442656,2153189,2448101,2579,2485,3267,-3976,3321,-389,-259,4523,22,51,890
486165,2148436,2442936,2153386,2448298,2773,2275,3253,-3603,3392,-611,-334,4505,47,58,892
487166,2148584,2443196,2153583,2448495,2845,2373,3250,-3343,3499,-400,-13,4024,47,58,892
488167,2148740,2443444,2153780,2448692,2814,2427,3258,-3184,3598,39,483,3560,46,48,891
489168,2148908,2443716,2153977,2448889,2753,2245,3299,-3182,3692,457,645,2884,46,48,891
490169,2149048,2443964,2154174,2449086,2954,2373,3341,-3193,3762,747,543,2707,34,48,891
491170,2149224,2444176,2154371,2449283,2739,2593,3339,-3141,3832,767,471,2885,34,48,891
492171,2149420,2444500,2154568,2449480,2616,1838,3325,-3066,3899,676,660,2728,34,53,891
493172,2149636,2444808,2154765,2449677,2482,1890,3299,-2948,3945,631,522,2893,34,53,891
494173,2149820,2445096,2154962,2449874,2689,1976,3245,-2697,3993,445,146,3140,35,53,895
495174,2150028,2445344,2155159,2450071,2535,2205,3197,-2424,4051,410,266,2891,35,53,895
496175,2150220,2445616,2155356,2450268,2639,2023,3147,-2222,4066,591,490,2659,31,57,895
497176,2150400,2445940,2155553,2450465,2722,1643,3115,-2158,4033,992,789,2143,31,57,895
498177,2150612,2446216,2155750,2450662,2516,1909,3114,-2178,3970,1326,856,1737,56,53,894
499178,2150860,2446500,2155947,2450859,2270,1821,3119,-2168,3911,1291,637,1781,56,53,894
500179,2151056,2446780,2156144,2451056,2596,1811,3109,-2140,3874,827,401,1892,47,64,895
501180,2151300,2447116,2156341,2451253,2277,1401,3058,-1952,3838,468,8,2219,47,64,895
502181,2151480,2447436,2156538,2451450,2685,1447,3006,-1802,3774,566,207,1589,54,68,896
503182,2151676,2447732,2156735,2451647,2587,1555,2962,-1736,3670,933,414,1443,54,68,896
504183,2151932,2448012,2156932,2451844,2187,1618,2895,-1713,3544,1388,536,1244,49,62,897
505184,2152172,2448288,2157129,2452041,2269,1610,2800,-1619,3438,1476,391,1402,49,62,897
506185,2152400,2448656,2157326,2452238,2331,961,2669,-1360,3367,1158,104,1901,58,55,898
507186,2152636,2448976,2157523,2452435,2265,1207,2542,-1113,3305,838,343,1623,58,55,898
508187,2152876,2449248,2157720,2452632,2222,1475,2389,-919,3201,1027,755,1567,53,68,900
509195,2153096,2449516,2157950,2452862,2353,1484,2200,-718,3039,1299,638,1219,53,68,900
510189,2153352,2449808,2158147,2453059,2103,1292,1973,-677,2834,1509,465,854,55,53,898
511190,2153624,2450176,2158344,2453256,1971,743,1720,-624,2625,1504,113,851,55,53,898
512191,2153904,2450484,2158541,2453453,1885,1070,1459,-564,2509,1359,-212,1061,45,53,899
513192,2154132,2450800,2158738,2453650,2197,968,1204,-356,2441,1285,-132,1255,45,53,899
514193,2154412,2451052,2158935,2453847,1836,1345,970,-139,2361,1374,205,1045,55,65,902
515194,2154688,2451344,2159132,2454044,1827,1053,765,-76,2244,1596,360,731,55,65,902
516195,2154980,2451676,2159329,2454241,1687,745,575,-75,2079,1704,379,462,62,54,902
517196,2155288,2452032,2159526,2454438,1539,525,355,-99,1878,1695,333,476,62,54,902
518197,2155544,2452328,2159723,2454635,1839,857,106,-117,1689,1692,319,589,43,50,903
519198,2155796,2452568,2159920,2454832,1840,1188,-157,-130,1520,1716,376,699,43,50,903
520199,2156084,2452900,2160117,2455029,1576,555,-425,-151,1341,1721,457,749,53,70,903
521200,2156380,2453232,2160314,2455226,1483,496,-689,-188,1157,1625,584,746,53,70,903
522201,2156636,2453564,2160511,2455423,1708,436,-933,-114,963,1418,634,987,63,60,904
523202,2156896,2453852,2160708,2455620,1657,672,-1144,-14,815,1281,740,944,63,60,904
524203,2157136,2454168,2160905,2455817,1763,445,-1305,61,765,1526,709,1027,48,63,905
525204,2157376,2454480,2161102,2456014,1745,420,-1467,178,788,1846,515,1306,48,63,905
526205,2157660,2454804,2161299,2456211,1433,290,-1629,360,874,2050,402,1368,53,67,904
527205,2157912,2455040,2161496,2456408,1609,823,-1808,567,956,2074,543,1653,53,67,904
528207,2158168,2455336,2161693,2456605,1559,404,-1982,746,978,1691,700,1474,60,51,906
529208,2158424,2455628,2161890,2456802,1534,387,-2167,739,898,1505,980,1095,60,51,906
530209,2158652,2455904,2162087,2456999,1695,454,-2371,676,765,1706,1006,1098,58,50,905
531210,2158860,2456184,2162284,2457196,1816,392,-2633,634,686,1762,695,1502,58,50,905
532211,2159152,2456436,2162481,2457393,1250,543,-2909,837,622,1712,724,2071,61,45,905
533212,2159416,2456672,2162678,2457590,1396,626,-3189,1063,507,1535,827,2182,61,45,905
534213,2159656,2456916,2162875,2457787,1528,555,-3425,1265,392,1337,670,2120,58,50,906
535214,2159876,2457172,2163072,2457984,1644,455,-3625,1442,288,1131,616,2149,58,50,906
536215,2160120,2457400,2163269,2458181,1473,617,-3813,1733,160,727,438,2707,40,40,905
537216,2160368,2457580,2163466,2458378,1427,924,-4030,2087,34,434,-102,2978,40,40,905
538217,2160592,2457756,2163663,2458575,1565,958,-4241,2334,-84,326,-872,2600,58,31,906
539218,2160836,2457920,2163860,2458772,1420,1048,-4450,2414,-252,156,-932,2235,58,31,906
540219,2161064,2458072,2164057,2458969,1508,1143,-4653,2345,-498,-142,-684,1930,48,38,904
541220,2161284,2458260,2164254,2459166,1548,922,-4869,2134,-772,-322,-560,1611,48,38,904
542221,2161560,2458444,2164451,2459363,1164,953,-5089,1867,-1016,-395,-768,1587,57,40,902
543222,2161820,2458608,2164648,2459560,1236,1093,-5280,1603,-1220,-491,-1051,1606,57,40,902
544223,2162076,2458784,2164845,2459757,1236,1027,-5455,1281,-1402,-574,-1579,1656,39,35,904
545224,2162320,2458924,2165042,2459954,1291,1277,-5600,859,-1589,-646,-1792,1406,39,35,904
546225,2162532,2459032,2165239,2460151,1485,1516,-5714,290,-1800,-592,-1889,1221,38,22,905
547226,2162796,2459172,2165436,2460348,1131,1342,-5796,-323,-2006,-439,-2010,1103,38,22,905
548227,2163044,2459288,2165633,2460545,1209,1528,-5846,-1012,-2167,-285,-1977,1036,56,27,902
549228,2163276,2459420,2165830,2460742,1294,1456,-5859,-1735,-2273,-115,-1776,1076,56,27,902
550229,2163484,2459584,2166027,2460939,1440,1271,-5828,-2589,-2363,-30,-1365,965,35,28,903
551230,2163716,2459744,2166224,2461136,1275,1313,-5769,-3427,-2451,-24,-1317,1286,35,28,903
552231,2163952,2459880,2166421,2461333,1234,1490,-5695,-4168,-2495,-111,-1818,1743,54,34,903
553232,2164184,2460012,2166618,2461530,1243,1544,-5602,-4822,-2491,-239,-1887,2078,54,34,903
554233,2164400,2460168,2166815,2461727,1336,1412,-5474,-5331,-2476,-213,-1607,2640,42,24,903
555234,2164624,2460304,2167012,2461924,1274,1564,-5317,-5806,-2437,-168,-1543,2871,42,24,903
556235,2164848,2460412,2167209,2462121,1263,1779,-5133,-6253,-2364,-81,-1609,3217,51,28,902
557236,2165056,2460544,2167406,2462318,1358,1657,-4981,-6610,-2263,9,-1462,3825,51,28,902
558237,2165296,2460672,2167603,2462515,1139,1713,-4862,-6846,-2153,220,-1270,4164,32,32,902
559238,2165540,2460784,2167800,2462712,1095,1851,-4751,-7073,-2033,488,-1250,4260,32,32,902
560239,2165768,2460912,2167997,2462909,1181,1781,-4619,-7305,-1879,588,-1214,4376,51,35,901
561240,2166008,2461060,2168194,2463106,1088,1679,-4476,-7528,-1701,736,-1108,4637,51,35,901
562241,2166252,2461228,2168391,2463303,1042,1566,-4355,-7709,-1531,1014,-958,4876,35,32,901
563242,2166484,2461372,2168588,2463500,1103,1741,-4262,-7824,-1370,1339,-782,5179,35,32,901
564243,2166704,2461528,2168785,2463697,1168,1684,-4195,-7893,-1206,1654,-672,5513,43,20,902
565244,2166872,2461672,2168982,2463894,1506,1782,-4143,-7945,-1039,2001,-545,5607,43,20,902
566245,2167068,2461808,2169179,2464091,1332,1860,-4088,-8008,-900,2561,-359,5536,48,19,901
567246,2167284,2461944,2169376,2464288,1199,1887,-4030,-8083,-788,3265,-363,5436,48,19,901
568247,2167472,2462080,2169573,2464485,1379,1914,-3956,-8237,-674,3905,-495,5136,36,19,901
569248,2167636,2462208,2169770,2464682,1543,1995,-3915,-8483,-593,4429,-541,5347,36,19,901
570249,2167864,2462364,2169967,2464879,1130,1839,-3160,-7559,-549,6311,-1370,14334,37,36,901
571250,2168036,2462524,2170164,2465076,1492,1830,-329,-1122,-848,12709,-3380,32767,37,36,901
572251,2168236,2462696,2170361,2465273,1315,1767,2040,2938,-1096,6827,-1107,15106,46,35,899
573252,2168432,2462824,2170558,2465470,1342,2072,2362,2516,-1129,4913,470,3033,46,35,899
574253,2168648,2462948,2170755,2465667,1208,2130,1647,374,-1081,5129,710,2431,46,23,900
575254,2168860,2463080,2170952,2465864,1227,2109,1025,-1351,-1001,5734,-111,2579,46,23,900
576255,2169048,2463216,2171149,2466061,1382,2112,641,-2394,-837,5712,-276,2346,45,32,900
577256,2169240,2463356,2171346,2466258,1359,2112,484,-3304,-657,5445,-452,1683,45,32,900
578257,2169428,2463488,2171543,2466455,1389,2191,337,-4454,-512,5208,-1245,1604,34,21,899
579258,2169612,2463592,2171740,2466652,1420,2407,-152,-4927,-167,4526,-3581,4174,34,21,899
580259,2169828,2463744,2171937,2466849,1211,2128,-624,-5280,102,4149,-2374,3067,43,35,900
581260,2170004,2463872,2172134,2467046,1472,2308,-1023,-5477,196,3902,-2500,4151,43,35,900
582261,2170192,2464016,2172331,2467243,1400,2233,-1324,-5437,283,3300,-2844,5085,40,17,898
583262,2170416,2464124,2172528,2467440,1165,2498,-1571,-4977,355,2843,-2642,6051,40,17,898
584263,2170572,2464256,2172725,2467637,1608,2376,-1700,-4364,409,2302,-2651,6249,21,21,898
585264,2170748,2464384,2172922,2467834,1492,2433,-1700,-3706,452,1437,-2497,6562,21,21,898
586265,2170944,2464484,2173119,2468031,1368,2651,-1645,-2766,489,624,-2735,7391,28,29,898
587266,2171132,2464600,2173316,2468228,1422,2587,-1575,-1786,532,-315,-2753,7431,28,29,898
588267,2171328,2464752,2173513,2468425,1374,2383,-1481,-841,598,-975,-2633,7472,26,29,897
589268,2171556,2464888,2173710,2468622,1160,2510,-1344,145,656,-1246,-2157,7270,26,29,897
590269,2171776,2465016,2173907,2468819,1201,2591,-1147,1013,712,-1478,-1702,6825,51,27,896
591270,2171984,2465144,2174104,2469016,1271,2622,-891,1707,758,-1645,-1250,6338,51,27,896
592278,2172172,2465280,2174334,2469246,1415,2614,-596,2186,787,-1667,-879,5847,32,34,898
593272,2172372,2465440,2174531,2469443,1339,2482,-250,2441,773,-1557,-631,5176,32,34,898
594273,2172556,2465624,2174728,2469640,1445,2337,141,2528,760,-1377,-1129,4459,43,34,897
595274,2172708,2465840,2174925,2469837,1666,2130,506,2393,794,-1387,-824,3768,43,34,897
596275,2172920,2466044,2175122,2470034,1284,2203,773,1890,863,-1353,-377,2829,45,35,898
597276,2173088,2466240,2175319,2470231,1572,2254,978,1112,1000,-1080,-441,2061,45,35,898
598277,2173260,2466436,2175516,2470428,1559,2255,1199,272,1238,-905,-886,1661,28,38,898
599278,2173440,2466648,2175713,2470625,1516,2149,1419,-668,1557,-735,-1482,1577,28,38,898
600279,2173624,2466916,2175910,2470822,1498,1769,1618,-1534,1897,-528,-1502,1829,33,48,898
601280,2173812,2467140,2176107,2471019,1477,2033,1776,-2264,2205,-377,-1323,2310,33,48,898
602281,2174020,2467364,2176304,2471216,1348,2021,1878,-2834,2441,-219,-1142,2645,47,43,899
603282,2174224,2467584,2176501,2471413,1370,2037,1916,-3289,2616,-96,-988,3159,47,43,899
604283,2174452,2467812,2176698,2471610,1207,1975,1882,-3593,2731,31,-593,3535,49,39,900
605284,2174668,2468024,2176895,2471807,1274,2069,1802,-3853,2775,259,-263,3628,49,39,900
606285,2174848,2468276,2177092,2472004,1507,1795,1693,-4104,2766,404,-234,3661,28,51,900
607286,2175052,2468512,2177289,2472201,1355,1879,1541,-4276,2720,529,-275,4011,28,51,900
608287,2175228,2468732,2177486,2472398,1539,1970,1315,-4326,2665,744,-408,4585,46,49,901
609288,2175420,2468964,2177683,2472595,1442,1879,1043,-4217,2603,977,-288,4866,46,49,901
610289,2175600,2469200,2177880,2472792,1524,1838,803,-4017,2480,1111,59,5055,30,49,900
611290,2175788,2469432,2178077,2472989,1478,1849,589,-3833,2289,1240,243,5124,30,49,900
612291,2176016,2469668,2178274,2473186,1216,1806,376,-3722,2088,1467,453,5027,29,55,901
613292,2176188,2469904,2178471,2473383,1577,1790,172,-3726,1914,1755,647,4586,29,55,901
614293,2176372,2470136,2178668,2473580,1508,1801,17,-3924,1746,2064,848,3997,39,40,901
615294,2176548,2470356,2178865,2473777,1568,1866,-106,-4127,1562,2170,1238,4227,39,40,901
616295,2176732,2470600,2179062,2473974,1524,1696,-230,-4195,1384,2285,1151,4478,47,55,901
617296,2176884,2470876,2179259,2474171,1744,1462,-387,-4239,1193,2328,1022,4366,47,55,901
618297,2177096,2471132,2179456,2474368,1363,1562,-545,-4314,972,2233,462,4140,38,55,900
619298,2177240,2471376,2179653,2474565,1812,1617,-666,-4447,758,2002,-454,4020,38,55,900
620299,2177452,2471592,2179850,2474762,1380,1785,-762,-4592,578,1819,-844,4235,36,57,900
621300,2177644,2471840,2180047,2474959,1509,1562,-847,-4525,508,1695,-1558,4811,36,57,900
622301,2177816,2472068,2180244,2475156,1644,1675,-884,-4401,533,1590,-1621,4707,24,39,900
623302,2177956,2472328,2180441,2475353,1871,1447,-827,-4433,573,1436,-1364,3926,24,39,900
624303,2178140,2472572,2180638,2475550,1601,1527,-688,-4649,595,1091,-1157,3534,39,45,902
625304,2178296,2472768,2180835,2475747,1795,1828,-503,-4915,619,672,-1053,3381,39,45,902
626305,2178440,2472976,2181032,2475944,1894,1749,-354,-5130,681,376,-1156,3782,44,51,901
627306,2178596,2473160,2181229,2476141,1838,1906,-244,-5118,827,86,-1459,4330,44,51,901
628307,2178716,2473408,2181426,2476338,2096,1483,-154,-4940,1074,-134,-1731,4611,35,43,899
629308,2178884,2473644,2181623,2476535,1810,1542,-58,-4649,1330,-374,-1146,4933,35,43,899
630309,2179096,2473908,2181820,2476732,1529,1338,76,-4261,1522,-793,-473,5169,31,53,899
631310,2179268,2474108,2182017,2476929,1791,1737,238,-3809,1673,-1042,-69,5311,31,53,899
632311,2179456,2474324,2182214,2477126,1695,1629,415,-3353,1825,-1170,242,5387,32,39,899
633312,2179624,2474544,2182411,2477323,1833,1595,599,-2871,2031,-1260,367,5475,32,39,899
634313,2179820,2474800,2182608,2477520,1659,1344,794,-2377,2286,-1311,297,5188,40,45,900
635314,2179984,2475056,2182805,2477717,1874,1319,1018,-1964,2569,-1320,64,4804,40,45,900
636315,2180132,2475296,2183002,2477914,1996,1400,1273,-1619,2869,-1453,36,4688,27,42,900
637316,2180304,2475584,2183199,2478111,1858,1061,1517,-1337,3155,-1494,186,4405,27,42,900
638317,2180468,2475864,2183396,2478308,1922,1075,1725,-1051,3423,-1467,194,4154,43,43,901
639317,2180644,2476040,2183593,2478505,1857,1735,1911,-761,3685,-1454,-77,4435,43,43,901
640319,2180796,2476164,2183790,2478702,2028,2092,2080,-451,3933,-1247,-351,4409,23,44,902
641320,2180944,2476312,2183987,2478899,2075,1964,2242,-113,4152,-967,-247,4177,23,44,902
642321,2181080,2476488,2184184,2479096,2178,1799,2350,183,4317,-843,42,4218,39,41,899
643322,2181252,2476676,2184381,2479293,1964,1729,2411,425,4430,-558,458,4001,39,41,899
644323,2181408,2476900,2184578,2479490,2083,1492,2470,610,4521,-341,442,3678,46,33,896
645324,2181564,2477172,2184775,2479687,2102,1160,2521,715,4561,-351,184,3346,46,33,896
646325,2181736,2477468,2184972,2479884,2013,966,2541,737,4549,-108,-398,3298,25,44,899
647326,2181896,2477708,2185169,2480081,2105,1298,2524,791,4557,77,-758,3424,25,44,899
648327,2182048,2477916,2185366,2480278,2175,1493,2468,880,4576,184,-632,3391,47,47,901
649328,2182220,2478192,2185563,2480475,2062,1035,2381,994,4521,189,-307,3131,47,47,901
650329,2182384,2478508,2185760,2480672,2127,732,2292,897,4340,232,262,2719,27,68,900
651330,2182564,2478812,2185957,2480869,2035,761,2227,814,4107,508,522,2946,27,68,900
652331,2182724,2479136,2186154,2481066,2177,581,2135,846,3888,595,92,3377,50,67,902
653332,2182916,2479432,2186351,2481263,1980,712,1995,1024,3662,585,60,3650,50,67,902
654333,2183096,2479724,2186548,2481460,2062,696,1808,1325,3423,555,-188,3974,49,68,900
655334,2183268,2479956,2186745,2481657,2124,1056,1569,1663,3130,394,-190,4046,49,68,900
656335,2183472,2480248,2186942,2481854,1922,639,1294,1916,2690,170,193,3906,31,62,902
657336,2183644,2480492,2187139,2482051,2133,920,996,2037,2132,65,607,3335,31,62,902
658336,2183824,2480748,2187336,2482248,2092,819,698,1911,1509,25,1048,2728,35,50,901
659338,2183996,2480996,2187533,2482445,2154,846,404,1626,896,70,1146,2324,35,50,901
660339,2184176,2481220,2187730,2482642,2111,984,109,1192,373,32,847,1758,26,41,901
661340,2184340,2481480,2187927,2482839,2227,733,-161,608,-3,124,380,1340,26,41,901
662341,2184528,2481744,2188124,2483036,2082,678,-391,-66,-229,199,-66,1112,43,58,901
663342,2184676,2481992,2188321,2483233,2353,756,-555,-747,-345,302,-16,1120,43,58,901
664343,2184840,2482196,2188518,2483430,2269,1028,-706,-1330,-417,422,93,1461,46,38,900
665344,2185020,2482396,2188715,2483627,2177,1052,-856,-1827,-463,416,210,1728,46,38,900
666345,2185176,2482576,2188912,2483824,2345,1185,-997,-2218,-505,360,561,2156,38,43,900
667346,2185340,2482732,2189109,2484021,2311,1353,-1128,-2463,-595,158,964,2583,38,43,900
668347,2185540,2482940,2189306,2484218,2085,1023,-1269,-2536,-727,-290,1081,3082,29,35,901
669348,2185696,2483136,2189503,2484415,2379,1100,-1449,-2461,-880,-676,1129,3692,29,35,901
670349,2185840,2483312,2189700,2484612,2478,1234,-1698,-2245,-1061,-926,1193,4250,29,39,899
671350,2185988,2483472,2189897,2484809,2475,1350,-2018,-1894,-1248,-1185,1025,4868,29,39,899
672351,2186144,2483632,2190094,2485006,2444,1366,-2369,-1479,-1390,-1420,746,4814,22,23,899
673352,2186272,2483804,2190291,2485203,2650,1303,-2702,-1188,-1481,-1516,503,4548,22,23,899
674353,2186420,2483952,2190488,2485400,2547,1475,-2966,-982,-1514,-1592,-36,4320,19,30,898
675363,2186556,2484108,2190718,2485630,2665,1457,-3145,-984,-1478,-1545,-656,3858,19,30,898
676355,2186696,2484288,2190915,2485827,2666,1315,-3251,-1147,-1424,-1574,-892,3373,18,31,896
677356,2186848,2484484,2191112,2486024,2611,1216,-3308,-1469,-1361,-1609,-1109,3114,18,31,896
678357,2187040,2484708,2191309,2486221,2364,1029,-3330,-1818,-1306,-1526,-1501,3200,44,45,897
679358,2187208,2484904,2191506,2486418,2527,1205,-3326,-2127,-1263,-1437,-1829,3430,44,45,897
680359,2187380,2485132,2191703,2486615,2514,992,-3281,-2375,-1224,-1402,-2028,3618,42,45,897
681360,2187584,2485296,2191900,2486812,2312,1407,-3183,-2586,-1199,-1282,-2190,3782,42,45,897
682361,2187788,2485472,2192097,2487009,2310,1341,-3050,-2819,-1160,-1171,-2275,3841,48,36,899
683362,2187968,2485648,2192294,2487206,2469,1350,-2912,-3028,-1082,-1127,-2512,4111,48,36,899
684363,2188176,2485848,2192491,2487403,2289,1200,-2787,-3181,-986,-1107,-2648,4264,28,31,898
685364,2188364,2486036,2192688,2487600,2419,1279,-2647,-3360,-897,-993,-2569,4352,28,31,898
686365,2188556,2486204,2192885,2487797,2397,1417,-2488,-3551,-831,-815,-2277,4544,49,42,897
687366,2188780,2486368,2193082,2487994,2186,1457,-2096,-3406,-805,-340,-1520,6796,49,42,897
688367,2188988,2486524,2193279,2488191,2282,1525,-442,-561,-992,2760,-359,31228,30,39,897
689368,2189192,2486656,2193476,2488388,2304,1704,1407,2198,-1243,1494,-702,17982,30,39,897
690369,2189440,2486788,2193673,2488585,2008,1733,1919,2300,-1321,-277,-764,3333,48,25,899
691370,2189660,2486904,2193870,2488782,2174,1869,1746,978,-1257,-106,-1009,2302,48,25,899
692371,2189864,2487036,2194067,2488979,2272,1797,1537,-533,-1096,338,-2172,2099,35,28,898
693372,2190104,2487204,2194264,2489176,2029,1586,1573,-1357,-862,436,-2706,2758,35,28,898
694373,2190364,2487336,2194461,2489373,1876,1840,1654,-2021,-616,507,-2111,2658,34,28,896
695374,2190592,2487484,2194658,2489570,2063,1761,1682,-2536,-485,596,-1173,3018,34,28,896
696375,2190852,2487608,2194855,2489767,1837,1944,1663,-3183,-428,225,-844,2812,45,36,899
697376,2191128,2487732,2195052,2489964,1703,1976,1617,-3843,-406,206,-523,3106,45,36,899
698377,2191388,2487876,2195249,2490161,1776,1876,1527,-4283,-460,179,2,3587,60,29,898
699378,2191640,2487988,2195446,2490358,1802,2113,1398,-4600,-576,-191,462,4136,60,29,898
700379,2191928,2488124,2195643,2490555,1538,1991,1210,-4607,-767,-271,466,4899,43,33,899
701380,2192184,2488244,2195840,2490752,1713,2125,998,-4589,-904,-80,-875,4962,43,33,899
702381,2192448,2488380,2196037,2490949,1634,2052,832,-4500,-933,-4,-1385,5315,55,34,898
703381,2192720,2488508,2196234,2491146,1552,2133,757,-4366,-953,-39,-734,5112,55,34,898
704383,2192984,2488644,2196431,2491343,1573,2110,773,-4433,-1000,-166,-610,4550,48,35,898
705384,2193224,2488764,2196628,2491540,1704,2244,823,-4533,-1092,-180,384,4590,48,35,898
706385,2193504,2488888,2196825,2491737,1419,2253,836,-4697,-1225,-67,1276,4197,53,17,899
707386,2193740,2488996,2197022,2491934,1678,2392,806,-4904,-1309,165,1336,4125,53,17,899
708387,2194004,2489132,2197219,2492131,1473,2244,765,-5093,-1330,265,1068,4096,57,33,897
709388,2194280,2489240,2197416,2492328,1365,2459,772,-5390,-1301,331,246,3687,57,33,897
710389,2194552,2489348,2197613,2492525,1358,2499,839,-5672,-1246,330,-78,3560,47,31,895
711390,2194788,2489472,2197810,2492722,1566,2431,962,-6026,-1176,145,-89,3262,47,31,895
712391,2195028,2489592,2198007,2492919,1523,2491,1087,-6311,-1074,146,-307,3399,53,33,897
713392,2195308,2489736,2198204,2493116,1236,2365,1198,-6470,-924,117,-346,3705,53,33,897
714393,2195560,2489876,2198401,2493313,1388,2415,1303,-6567,-762,-22,-144,3670,50,36,897
715394,2195808,2490012,2198598,2493510,1391,2468,1403,-6686,-638,-154,37,3539,50,36,897
716395,2196072,2490148,2198795,2493707,1262,2496,1496,-6806,-543,-376,217,3415,50,31,899
717396,2196316,2490320,2198992,2493904,1366,2282,1568,-6873,-440,-428,3,3850,50,31,899
718397,2196564,2490484,2199189,2494101,1320,2347,1621,-6738,-331,-477,-233,4123,57,42,898
719398,2196784,2490632,2199386,2494298,1485,2470,1655,-6507,-205,-620,-511,4250,57,42,898
720399,2197024,2490800,2199583,2494495,1342,2357,1674,-6219,-91,-587,-507,4263,52,25,897
721400,2197252,2490968,2199780,2494692,1403,2371,1695,-5950,8,-504,-360,4085,52,25,897
722401,2197476,2491132,2199977,2494889,1418,2412,1705,-5710,115,-442,-270,4047,54,36,897
723402,2197680,2491304,2200174,2495086,1539,2373,1727,-5521,230,-363,11,3607,54,36,897
724403,2197912,2491464,2200371,2495283,1350,2465,1735,-5470,337,-267,505,3253,38,42,898
725404,2198152,2491640,2200568,2495480,1281,2375,1743,-5428,438,-165,663,3033,38,42,898
726405,2198360,2491796,2200765,2495677,1477,2519,1722,-5482,531,-32,523,2730,45,38,898
727406,2198564,2491944,2200962,2495874,1499,2591,1688,-5516,628,126,-94,2674,45,38,898
728407,2198792,2492104,2201159,2496071,1337,2533,1668,-5670,743,226,-443,2370,38,35,899
729408,2199008,2492280,2201356,2496268,1403,2443,1641,-5785,850,420,-413,2316,38,35,899
730409,2199244,2492448,2201553,2496465,1262,2507,1596,-5889,945,525,-442,2210,33,44,895
731410,2199464,2492600,2201750,2496662,1352,2627,1523,-5988,1042,633,-490,2199,33,44,895
732411,2199692,2492756,2201947,2496859,1288,2621,1427,-6035,1127,774,-323,2404,34,26,896
733412,2199908,2492912,2202144,2497056,1356,2640,1320,-6038,1201,820,-8,2276,34,26,896
734413,2200156,2493076,2202341,2497253,1134,2605,1200,-6010,1256,931,506,2446,39,34,897
735414,2200388,2493212,2202538,2497450,1219,2808,1057,-5980,1291,979,853,2501,39,34,897
736415,2200600,2493352,2202735,2497647,1338,2808,889,-5896,1327,1104,644,2672,52,23,897
737416,2200816,2493532,2202932,2497844,1304,2566,708,-5723,1369,1235,251,2785,52,23,897
738417,2201044,2493692,2203129,2498041,1217,2709,541,-5553,1408,1335,-85,2762,43,27,896
739418,2201240,2493856,2203326,2498238,1417,2699,374,-5364,1439,1440,-255,2891,43,27,896
740419,2201456,2494024,2203523,2498435,1285,2688,194,-5164,1478,1498,-311,2833,32,32,898
741420,2201656,2494196,2203720,2498632,1384,2675,-9,-4966,1524,1562,-274,2913,32,32,898
742421,2201832,2494332,2203917,2498829,1543,2927,-218,-4761,1570,1669,-146,2875,28,25,895
743422,2201996,2494468,2204114,2499026,1633,2955,-416,-4575,1609,1646,29,2839,28,25,895
744423,2202180,2494612,2204311,2499223,1514,2929,-610,-4408,1636,1686,123,2776,42,23,896
745424,2202344,2494808,2204508,2499420,1654,2605,-809,-4278,1635,1768,234,2721,42,23,896
746425,2202516,2494984,2204705,2499617,1615,2740,-1004,-4120,1625,1777,64,2789,26,33,894
747426,2202716,2495168,2204902,2499814,1440,2697,-1193,-4011,1623,1718,-185,2798,26,33,894
748427,2202876,2495312,2205099,2500011,1706,2971,-1368,-3961,1606,1671,-197,2671,28,27,895
749428,2203036,2495488,2205296,2500208,1723,2782,-1528,-3861,1568,1591,129,2769,28,27,895
750429,2203196,2495668,2205493,2500405,1740,2764,-1684,-3762,1493,1464,479,2698,26,39,896
751430,2203372,2495812,2205690,2500602,1649,3013,-1831,-3680,1397,1291,515,2852,26,39,896
752431,2203532,2495980,2205887,2500799,1766,2877,-1971,-3573,1295,1047,467,2947,23,30,893
753432,2203700,2496148,2206084,2500996,1729,2891,-2085,-3462,1184,854,428,2874,23,30,893
754433,2203884,2496316,2206281,2501193,1636,2905,-2192,-3413,1065,758,336,2902,35,28,892
755434,2204056,2496468,2206478,2501390,1722,3025,-2292,-3433,973,638,264,2846,35,28,892
756435,2204236,2496664,2206675,2501587,1679,2752,-2401,-3462,919,556,127,2937,37,31,893
757436,2204408,2496808,2206872,2501784,1741,3101,-2503,-3453,895,416,-140,3049,37,31,893
758444,2204552,2496968,2207102,2502014,1954,3033,-2612,-3452,917,315,-475,3107,44,40,892
759438,2204708,2497120,2207299,2502211,1898,3104,-2727,-3401,975,84,-732,3335,44,40,892
760439,2204892,2497264,2207496,2502408,1729,3178,-2836,-3333,1055,-158,-903,3468,26,27,892
761440,2205072,2497468,2207693,2502605,1762,2801,-2931,-3280,1140,-301,-1055,3614,26,27,892
762441,2205232,2497660,2207890,2502802,1904,2879,-3013,-3211,1229,-437,-1087,3949,40,29,891
763442,2205436,2497848,2208087,2502999,1626,2909,-3086,-3071,1313,-697,-1148,4136,40,29,891
764443,2205616,2498008,2208284,2503196,1784,3101,-3137,-2912,1419,-860,-1239,4284,46,37,893
765444,2205812,2498176,2208481,2503393,1685,3065,-3163,-2788,1567,-1069,-1225,4434,46,37,893
766445,2206008,2498348,2208678,2503590,1686,3052,-3172,-2683,1714,-1192,-1068,4506,29,27,894
767445,2206180,2498524,2208875,2503787,1848,3037,-3154,-2634,1832,-1279,-980,4508,29,27,894
768447,2206360,2498684,2209072,2503984,1805,3155,-3093,-2693,1944,-1364,-955,4506,41,32,893
769448,2206540,2498848,2209269,2504181,1814,3145,-3017,-2707,2075,-1243,-1033,4758,41,32,893
770449,2206736,2499016,2209466,2504378,1714,3134,-2938,-2721,2201,-1162,-1011,4949,31,39,892
771450,2206932,2499192,2209663,2504575,1716,3094,-2846,-2721,2302,-1193,-866,5199,31,39,892
772451,2207108,2499384,2209860,2504772,1850,2997,-2752,-2695,2374,-1209,-645,5444,43,35,892
773452,2207300,2499568,2210057,2504969,1753,3054,-2642,-2708,2432,-1241,-360,5484,43,35,892
774453,2207520,2499724,2210254,2505166,1569,3248,-2543,-2725,2485,-1243,-256,5752,50,26,891
775454,2207708,2499876,2210451,2505363,1773,3294,-2176,-2494,2547,-764,-328,8330,50,26,891
776455,2207908,2500032,2210648,2505560,1698,3288,-382,863,2448,2912,-116,32767,32,30,892
777456,2208104,2500208,2210845,2505757,1723,3173,1589,3824,2327,1049,-585,18405,32,30,892
778457,2208288,2500392,2211042,2505954,1805,3130,2137,3722,2367,-997,-707,3641,53,40,891
779458,2208504,2500544,2211239,2506151,1596,3351,1952,1980,2475,-924,-741,2353,53,40,891
780459,2208688,2500712,2211436,2506348,1803,3264,1666,102,2612,-683,-1272,2177,45,23,891
781460,2208872,2500856,2211633,2506545,1809,3439,1591,-1173,2783,-790,-1233,2484,45,23,891
782461,2209064,2501016,2211830,2506742,1762,3356,1547,-2349,2920,-809,-788,2201,31,22,891
783462,2209240,2501200,2212027,2506939,1871,3213,1447,-3328,2941,-760,-521,2816,31,22,891
784463,2209404,2501360,2212224,2507136,1962,3380,1289,-4372,2930,-946,-209,2918,45,27,889
785464,2209592,2501536,2212421,2507333,1816,3291,1141,-5394,2888,-948,186,3175,45,27,889
786465,2209756,2501728,2212618,2507530,1981,3194,1013,-6233,2797,-1016,668,3722,24,32,890
787466,2209904,2501924,2212815,2507727,2103,3171,881,-6875,2718,-1086,916,4691,24,32,890
788467,2210072,2502100,2213012,2507924,1991,3306,699,-7109,2658,-964,679,5632,36,42,891
789468,2210264,2502300,2213209,2508121,1844,3156,530,-7289,2641,-1100,526,5695,36,42,891
790469,2210428,2502480,2213406,2508318,2034,3289,396,-7296,2638,-1178,617,6379,36,45,890
791470,2210572,2502656,2213603,2508515,2183,3324,296,-7268,2621,-1068,470,6347,36,45,890
792471,2210716,2502828,2213800,2508712,2207,3361,256,-7329,2613,-969,276,6403,36,36,891
793472,2210868,2503040,2213997,2508909,2178,3106,250,-7220,2638,-732,409,6897,36,36,891
794473,2210984,2503252,2214194,2509106,2438,3101,277,-7107,2677,-515,587,6570,42,48,889
795473,2211176,2503484,2214391,2509303,1966,2962,323,-6954,2734,-419,669,6796,42,48,889
796475,2211340,2503672,2214588,2509500,2157,3242,398,-6822,2825,-478,639,6600,45,43,890
797475,2211512,2503864,2214785,2509697,2118,3220,508,-6724,2912,-568,717,6340,45,43,890
798477,2211672,2504076,2214982,2509894,2210,3089,643,-6710,2969,-668,711,6232,45,41,891
799478,2211836,2504292,2215179,2510091,2200,3057,809,-6759,3010,-698,620,5893,45,41,891
800479,2211976,2504540,2215376,2510288,2376,2835,979,-6791,3053,-580,372,5881,29,40,890
801480,2212152,2504720,2215573,2510485,2161,3269,1162,-6799,3105,-626,253,5641,29,40,890
802481,2212308,2504936,2215770,2510682,2304,3037,1353,-6925,3140,-484,363,5438,33,45,890
803482,2212456,2505136,2215967,2510879,2376,3136,1559,-6995,3139,-218,640,5264,33,45,890
804483,2212576,2505312,2216164,2511076,2586,3298,1745,-7014,3169,-206,464,5350,24,47,889
805484,2212700,2505504,2216361,2511273,2593,3201,1894,-6891,3204,-310,370,5650,24,47,889
806485,2212820,2505728,2216558,2511470,2653,2990,2036,-6859,3226,-381,184,5228,35,43,889
807486,2212916,2505996,2216755,2511667,2849,2685,2186,-6835,3219,-302,-1,5061,35,43,889
808487,2213024,2506260,2216952,2511864,2814,2681,2346,-6852,3190,111,47,4725,28,57,887
809488,2213120,2506484,2217149,2512061,2933,2920,2490,-6879,3180,536,-19,4562,28,57,887
810489,2213228,2506692,2217346,2512258,2898,3016,2613,-6802,3218,621,-272,4646,33,52,889
811490,2213348,2506968,2217543,2512455,2858,2558,2738,-6753,3263,479,-347,4494,33,52,889
812491,2213484,2507260,2217740,2512652,2786,2417,2868,-6645,3306,619,-316,4488,25,57,887
813492,2213636,2507528,2217937,2512849,2706,2537,2975,-6458,3377,765,-456,4670,25,57,887
814493,2213796,2507784,2218134,2513046,2673,2587,3037,-6108,3465,713,-557,4942,32,40,890
815494,2213948,2508020,2218331,2513243,2744,2696,3071,-5661,3506,368,-410,5012,32,40,890
816495,2214088,2508288,2218528,2513440,2845,2466,3111,-5216,3530,82,-329,5014,39,53,891
817496,2214244,2508620,2218725,2513637,2764,2007,3172,-4732,3568,207,-199,4842,39,53,891
818497,2214368,2508912,2218922,2513834,2997,2216,3238,-4342,3627,493,-72,4349,37,45,890
819498,2214516,2509172,2219119,2514031,2869,2390,3295,-4020,3671,894,217,3968,37,45,890
820499,2214672,2509412,2219316,2514228,2837,2497,3349,-3775,3724,1112,154,3529,40,41,892
821500,2214856,2509648,2219513,2514425,2669,2506,3420,-3674,3811,943,70,3176,40,41,892
822501,2215048,2509980,2219710,2514622,2622,1847,3507,-3503,3908,820,69,3172,48,57,891
823502,2215260,2510308,2219907,2514819,2492,1816,3590,-3365,3993,860,147,2820,48,57,891
824503,2215440,2510608,2220104,2515016,2700,1947,3630,-3123,4075,956,104,3213,50,53,892
825504,2215616,2510864,2220301,2515213,2735,2196,3641,-2826,4165,942,216,2998,50,53,892
826505,2215792,2511160,2220498,2515410,2746,1903,3667,-2603,4225,1029,367,2699,30,66,895
827506,2215992,2511504,2220695,2515607,2595,1540,3712,-2403,4243,1278,500,2549,30,66,895
828507,2216200,2511880,2220892,2515804,2540,1262,3754,-2305,4240,1653,680,2068,50,72,892
829508,2216424,2512164,2221089,2516001,2430,1800,3766,-2086,4229,1843,745,2273,50,72,892
830509,2216632,2512476,2221286,2516198,2526,1574,3771,-1885,4228,1443,640,2217,35,71,896
831510,2216828,2512812,2221483,2516395,2602,1364,3737,-1563,4246,1116,166,2681,35,71,896
832511,2217028,2513160,2221680,2516592,2577,1224,3684,-1173,4247,1025,214,2354,35,62,896
833512,2217224,2513500,2221877,2516789,2603,1211,3651,-962,4217,1280,412,1773,35,62,896
834512,2217456,2513796,2222074,2516986,2364,1443,3596,-782,4152,1971,519,1641,35,57,897
835514,2217676,2514148,2222271,2517183,2430,1026,3523,-636,4073,2174,471,1379,35,57,897
836515,2217920,2514472,2222468,2517380,2260,1145,3408,-443,3992,1945,129,1620,41,71,897
837516,2218152,2514772,2222665,2517577,2320,1251,3258,-178,3915,1398,25,1630,41,71,897
838516,2218372,2515068,2222862,2517774,2386,1233,3093,8,3824,1327,347,1374,55,65,899
839518,2218616,2515388,2223059,2517971,2216,1030,2884,238,3695,1671,284,1222,55,65,899
840519,2218868,2515712,2223256,2518168,2143,949,2672,228,3499,1872,345,433,59,61,898
841527,2219116,2516032,2223486,2518398,2161,935,2474,171,3256,2061,119,425,59,61,898
842521,2219368,2516336,2223683,2518595,2113,988,2268,170,3075,2045,-374,545,57,47,899
843522,2219628,2516592,2223880,2518792,2035,1263,2054,234,2964,1814,-350,686,57,47,899
844523,2219888,2516892,2224077,2518989,2008,943,1834,386,2830,1743,14,731,59,62,901
845524,2220148,2517252,2224274,2519186,1982,496,1627,467,2659,1838,200,392,59,62,901
846525,2220464,2517536,2224471,2519383,1580,934,1402,528,2428,2095,210,466,67,64,901
847526,2220724,2517824,2224668,2519580,1904,869,1160,616,2166,2021,261,568,67,64,901
848527,2221016,2518092,2224865,2519777,1662,963,907,781,1917,1779,258,634,50,55,903
849528,2221288,2518376,2225062,2519974,1755,826,658,906,1661,1534,469,593,50,55,903
850529,2221544,2518732,2225259,2520171,1830,306,411,1030,1405,1572,557,733,55,51,902
851530,2221840,2519044,2225456,2520368,1538,530,158,1215,1157,1716,528,836,55,51,902
852531,2222128,2519288,2225653,2520565,1548,936,-95,1355,939,1653,518,808,51,55,902
853532,2222396,2519552,2225850,2520762,1642,781,-335,1543,743,1429,404,982,51,55,902
854533,2222644,2519880,2226047,2520959,1746,324,-557,1662,569,1282,462,685,46,64,905
855534,2222896,2520204,2226244,2521156,1697,293,-769,1719,429,1560,703,672,46,64,905
856535,2223188,2520424,2226441,2521353,1406,933,-961,1816,373,1799,528,747,41,60,904
857536,2223472,2520652,2226638,2521550,1418,870,-1154,1912,410,1979,423,863,41,60,904
858537,2223756,2520924,2226835,2521747,1381,562,-1396,2100,448,2033,594,1120,61,45,905
859538,2224020,2521196,2227032,2521944,1477,529,-1674,2202,435,1766,809,861,61,45,905
860539,2224280,2521444,2227229,2522141,1474,657,-1971,2252,381,1675,901,897,61,59,905
861540,2224584,2521720,2227426,2522338,1153,447,-2294,2231,279,1451,1109,914,61,59,905
862541,2224856,2521932,2227623,2522535,1320,840,-2662,2312,153,1232,984,1208,62,56,904
863542,2225124,2522144,2227820,2522732,1315,834,-3070,2483,-23,1018,968,1637,62,56,904
864543,2225388,2522384,2228017,2522929,1311,641,-3471,2699,-259,952,1447,1664,59,35,906
865544,2225672,2522600,2228214,2523126,1149,783,-3853,2934,-464,787,1017,1658,59,35,906
866545,2225972,2522812,2228411,2523323,1003,801,-4197,3103,-641,339,760,1727,42,40,905
867546,2226208,2523020,2228608,2523520,1387,821,-4517,3259,-799,-62,400,1858,42,40,905
868547,2226480,2523184,2228805,2523717,1129,1111,-4834,3347,-935,-361,-79,1732,62,33,906
869548,2226716,2523344,2229002,2523914,1338,1152,-5124,3325,-1051,-626,-321,1467,62,33,906
870548,2226964,2523484,2229199,2524111,1241,1302,-5366,3149,-1217,-820,50,1006,61,27,905
871550,2227232,2523608,2229396,2524308,1085,1434,-5567,2816,-1449,-987,-15,791,61,27,905
872551,2227464,2523792,2229593,2524505,1295,1065,-5764,2406,-1655,-945,-912,972,58,40,904
873552,2227692,2523972,2229790,2524702,1306,1098,-5951,2040,-1785,-904,-1225,983,58,40,904
874553,2227916,2524124,2229987,2524899,1321,1293,-6114,1557,-1876,-932,-1087,883,43,22,902
875554,2228136,2524276,2230184,2525096,1336,1313,-6256,1071,-1957,-1187,-1504,1125,43,22,902
876555,2228360,2524416,2230381,2525293,1300,1413,-6340,453,-2042,-1429,-1809,843,40,33,904
877556,2228572,2524556,2230578,2525490,1368,1438,-6345,-261,-2151,-1472,-1834,634,40,33,904
878557,2228776,2524692,2230775,2525687,1415,1490,-6286,-1059,-2253,-1498,-2021,688,51,18,903
879557,2228968,2524824,2230972,2525884,1493,1544,-6178,-1815,-2301,-1561,-2216,926,51,18,903
880559,2229168,2524940,2231169,2526081,1442,1680,-6045,-2581,-2281,-1604,-2471,1223,29,19,902
881560,2229376,2525096,2231366,2526278,1387,1448,-5891,-3290,-2193,-1577,-2651,1606,29,19,902
882561,2229564,2525248,2231563,2526475,1517,1493,-5739,-3949,-2058,-1420,-2692,1976,44,37,902
883562,2229812,2525404,2231760,2526672,1120,1486,-5589,-4552,-1922,-1318,-2242,2238,44,37,902
884563,2230044,2525540,2231957,2526869,1205,1639,-5438,-5105,-1787,-1305,-1978,2700,30,17,901
885564,2230216,2525668,2232154,2527066,1591,1719,-5273,-5581,-1649,-1288,-2079,2994,30,17,901
886565,2230436,2525816,2232351,2527263,1281,1615,-5093,-6039,-1518,-1202,-1720,3278,30,21,902
887565,2230664,2525900,2232548,2527460,1218,2065,-4909,-6498,-1403,-1019,-1331,3687,30,21,902
888567,2230892,2526008,2232745,2527657,1205,1955,-4732,-6854,-1270,-673,-1701,4133,31,29,901
889568,2231108,2526148,2232942,2527854,1271,1780,-4551,-7113,-1124,-337,-1781,4352,31,29,901
890569,2231344,2526268,2233139,2528051,1130,1939,-4377,-7366,-998,30,-1405,4572,31,32,900
891570,2231552,2526400,2233336,2528248,1300,1894,-4227,-7676,-910,439,-1332,4762,31,32,900
892571,2231756,2526508,2233533,2528445,1322,2083,-4140,-7844,-887,938,-908,5276,49,20,901
893572,2231988,2526664,2233730,2528642,1133,1801,-4150,-7897,-977,1655,458,5666,49,20,901
894573,2232192,2526856,2233927,2528839,1305,1579,-4160,-8112,-1109,2233,747,5023,46,40,900
895573,2232380,2527032,2234124,2529036,1409,1688,-4178,-8411,-1209,2709,603,5207,46,40,900
896575,2232624,2527184,2234321,2529233,1039,1859,-4264,-8532,-1257,3081,353,5955,50,24,901
897576,2232820,2527328,2234518,2529430,1340,1932,-4406,-8461,-1262,3415,205,6298,50,24,901
898577,2232992,2527460,2234715,2529627,1501,2036,-4527,-8550,-1252,4040,520,5583,32,29,901
899578,2233192,2527620,2234912,2529824,1325,1878,-4598,-8920,-1280,4570,613,5079,32,29,901
900579,2233380,2527772,2235109,2530021,1404,1948,-4593,-9414,-1343,5098,424,5082,34,36,900
901579,2233536,2527960,2235306,2530218,1622,1728,-2410,-5989,-1424,9001,-1754,32767,34,36,900
902580,2233728,2528132,2235503,2530415,1401,1839,1216,334,-1543,9762,-2536,32767,29,31,900
903581,2233936,2528288,2235700,2530612,1296,1957,2994,1705,-1572,5911,-364,2437,29,31,900
904583,2234140,2528432,2235897,2530809,1318,2056,2428,3,-1300,6083,-1599,3822,48,26,900
905584,2234360,2528580,2236094,2531006,1209,2053,1575,-2040,-1055,6175,-840,1310,48,26,900
906585,2234572,2528724,2236291,2531203,1252,2102,1086,-3864,-1052,5980,-38,975,41,27,899
907586,2234792,2528864,2236488,2531400,1192,2152,804,-4726,-1016,5624,-735,2356,41,27,899
908587,2234980,2528992,2236685,2531597,1397,2258,496,-5599,-935,5356,-810,1970,33,26,899
909588,2235208,2529132,2236882,2531794,1133,2208,96,-6140,-888,4736,-977,3153,33,26,899
910589,2235432,2529244,2237079,2531991,1146,2422,-361,-6441,-864,3876,-1139,4318,38,21,900
911589,2235624,2529412,2237276,2532188,1349,2084,-831,-6465,-853,3656,-1630,4831,38,21,900
912591,2235828,2529532,2237473,2532385,1271,2419,-1318,-6265,-848,3306,-1949,5376,27,20,899
913592,2236012,2529692,2237670,2532582,1402,2186,-1752,-5801,-818,2770,-2243,6014,27,20,899
914593,2236188,2529820,2237867,2532779,1462,2417,-2056,-5259,-810,2196,-2176,5867,41,33,899
915594,2236364,2529976,2238064,2532976,1472,2260,-2200,-4687,-827,1155,-1981,6220,41,33,899
916595,2236508,2530156,2238261,2533173,1695,2118,-2166,-4231,-833,308,-2054,5896,36,36,898
917596,2236668,2530332,2238458,2533370,1612,2154,-2041,-3727,-826,62,-2093,5977,36,36,898
918597,2236836,2530492,2238655,2533567,1575,2270,-1866,-3212,-747,-250,-1833,5970,18,34,897
919598,2237012,2530680,2238852,2533764,1534,2100,-1745,-2538,-514,-332,-1643,6403,18,34,897
920599,2237164,2530856,2239049,2533961,1705,2184,-1610,-1913,-233,-584,-1245,5788,21,36,898
921600,2237336,2531028,2239246,2534158,1591,2221,-1422,-1386,57,-812,-1123,5602,21,36,898
922601,2237524,2531216,2239443,2534355,1495,2126,-1182,-980,345,-800,-1208,5131,22,26,899
923601,2237724,2531396,2239640,2534552,1419,2183,-889,-756,622,-798,-1202,4470,22,26,899
924609,2237872,2531552,2239870,2534782,1781,2367,-619,-560,929,-963,-1353,4759,25,42,898
925603,2238076,2531732,2240067,2534979,1427,2224,-363,-346,1259,-886,-1798,4692,25,42,898
926604,2238248,2531888,2240264,2535176,1639,2393,-121,-114,1590,-723,-2250,4562,22,38,899
927605,2238432,2532064,2240461,2535373,1570,2279,122,48,1921,-690,-2399,4494,22,38,899
928607,2238612,2532256,2240658,2535570,1604,2181,331,141,2217,-555,-2348,4264,44,47,897
929608,2238796,2532452,2240855,2535767,1584,2157,489,158,2459,-273,-2089,4177,44,47,897
930609,2238952,2532656,2241052,2535964,1777,2105,597,160,2641,90,-1486,4071,28,43,896
931610,2239156,2532844,2241249,2536161,1475,2209,668,60,2741,395,-970,3885,28,43,896
932611,2239336,2533052,2241446,2536358,1633,2080,724,-35,2759,704,-548,3824,46,33,898
933612,2239504,2533256,2241643,2536555,1721,2102,779,-170,2732,1043,-327,3783,46,33,898
934612,2239704,2533460,2241840,2536752,1520,2100,821,-305,2705,1355,-582,3816,32,40,898
935613,2239896,2533640,2242037,2536949,1572,2259,828,-409,2694,1455,-948,3954,32,40,898
936615,2240084,2533824,2242234,2537146,1602,2239,801,-557,2697,1359,-1300,3893,35,31,898
937616,2240288,2534036,2242431,2537343,1499,2059,732,-727,2711,1498,-1494,3964,35,31,898
938617,2240472,2534248,2242628,2537540,1631,2053,622,-879,2723,1689,-1393,4008,36,32,898
939618,2240660,2534480,2242825,2537737,1610,1913,478,-1034,2718,1696,-1018,4038,36,32,898
940619,2240836,2534688,2243022,2537934,1694,2059,312,-1204,2643,1713,-557,3894,47,49,898
941620,2241040,2534872,2243219,2538131,1517,2215,121,-1361,2506,1717,-270,3912,47,49,898
942621,2241224,2535096,2243416,2538328,1648,1954,-73,-1559,2359,1699,-205,3990,50,37,899
943622,2241428,2535308,2243613,2538525,1521,2023,-257,-1775,2219,1620,-230,3905,50,37,899
944623,2241652,2535572,2243810,2538722,1384,1669,-420,-2006,2107,1411,-355,3880,44,50,898
945624,2241848,2535788,2244007,2538919,1559,1961,-544,-2192,2005,1228,-233,3995,44,50,898
946625,2242024,2536016,2244204,2539116,1695,1873,-652,-2425,1896,1170,88,3799,38,41,899
947626,2242240,2536256,2244401,2539313,1436,1780,-767,-2698,1798,1021,42,3608,38,41,899
948627,2242392,2536516,2244598,2539510,1857,1628,-874,-2983,1741,730,-11,3568,48,44,900
949628,2242592,2536772,2244795,2539707,1556,1627,-942,-3320,1738,423,-116,3435,48,44,900
950629,2242784,2537020,2244992,2539904,1609,1656,-966,-3621,1798,144,-392,3564,48,36,900
951630,2243012,2537240,2245189,2540101,1370,1821,-935,-3892,1906,-152,-665,3659,48,36,900
952631,2243196,2537504,2245386,2540298,1651,1517,-853,-4090,2043,-343,-1487,3954,45,51,901
953632,2243376,2537724,2245583,2540495,1684,1782,-706,-4147,2203,-444,-2270,4147,45,51,901
954633,2243528,2537952,2245780,2540692,1879,1720,-492,-4302,2368,-594,-2364,3895,32,41,901
955634,2243680,2538212,2245977,2540889,1900,1492,-240,-4473,2535,-768,-2216,3842,32,41,901
956635,2243856,2538432,2246174,2541086,1759,1733,19,-4677,2721,-1141,-1766,3831,24,38,899
957636,2244016,2538616,2246371,2541283,1876,1964,267,-4822,2927,-1543,-1296,4100,24,38,899
958637,2244152,2538844,2246568,2541480,2053,1676,483,-4859,3197,-1729,-1295,4292,41,49,899
959638,2244268,2539092,2246765,2541677,2214,1528,698,-4808,3523,-1783,-1381,4329,41,49,899
960639,2244492,2539332,2246962,2541874,1528,1561,937,-4714,3878,-1782,-1433,4373,41,41,898
961640,2244688,2539596,2247159,2542071,1703,1381,1208,-4623,4237,-1923,-1551,4563,41,41,898
962641,2244872,2539824,2247356,2542268,1785,1594,1480,-4467,4595,-1979,-1684,4825,33,42,898
963642,2245068,2540056,2247553,2542465,1711,1553,1729,-4189,4915,-1994,-1379,5060,33,42,898
964643,2245264,2540292,2247750,2542662,1712,1512,1971,-3799,5204,-1902,-1171,5275,37,40,901
965644,2245428,2540552,2247947,2542859,1926,1334,2187,-3428,5484,-1602,-1231,5259,37,40,901
966645,2245608,2540840,2248144,2543056,1835,1120,2407,-3098,5747,-1321,-930,5020,42,42,901
967646,2245776,2541148,2248341,2543253,1923,947,2623,-2832,5946,-1182,125,4763,42,42,901
968647,2245936,2541412,2248538,2543450,1990,1193,2807,-2629,6096,-896,258,4475,27,57,900
969648,2246116,2541600,2248735,2543647,1872,1672,2964,-2555,6233,-638,37,4324,27,57,900
970649,2246268,2541748,2248932,2543844,2068,1944,3099,-2498,6351,-471,-291,4274,25,51,902
971650,2246420,2541916,2249129,2544041,2088,1832,3217,-2435,6422,-145,-820,3920,25,51,902
972651,2246560,2542116,2249326,2544238,2189,1631,3326,-2431,6432,62,-668,3873,24,32,898
973652,2246704,2542312,2249523,2544435,2187,1657,3410,-2411,6396,299,56,3868,24,32,898
974653,2246868,2542548,2249720,2544632,2078,1390,3433,-2460,6312,520,529,3691,24,33,896
975654,2247048,2542800,2249917,2544829,1985,1266,3423,-2474,6182,684,786,3780,24,33,896
976655,2247200,2543084,2250114,2545026,2181,1029,3391,-2449,6000,946,1169,3844,40,44,898
977656,2247360,2543320,2250311,2545223,2147,1312,3349,-2437,5831,1251,740,3696,40,44,898
978657,2247512,2543604,2250508,2545420,2218,974,3295,-2459,5667,1404,747,3572,28,63,900
979658,2247684,2543892,2250705,2545617,2105,910,3243,-2379,5471,1436,520,3575,28,63,900
980659,2247856,2544196,2250902,2545814,2116,763,3193,-2379,5241,1387,341,3425,33,68,900
981660,2248020,2544480,2251099,2546011,2182,849,3154,-2369,5011,1423,366,3600,33,68,900
982661,2248200,2544828,2251296,2546208,2089,384,3079,-2228,4804,1495,360,4129,29,62,901
983662,2248380,2545172,2251493,2546405,2098,344,2960,-1951,4568,1470,546,4316,29,62,901
984663,2248540,2545476,2251690,2546602,2240,547,2825,-1619,4258,1372,729,4382,39,62,900
985664,2248732,2545796,2251887,2546799,2042,393,2685,-1218,3914,1266,584,4539,39,62,900
986665,2248888,2546156,2252084,2546996,2286,73,2530,-872,3535,1263,789,4495,51,56,903
987666,2249068,2546464,2252281,2547193,2143,349,2365,-526,3168,1363,960,4410,51,56,903
988667,2249272,2546772,2252478,2547390,1991,300,2227,-314,2830,1361,1105,3966,30,66,903
989668,2249440,2547072,2252675,2547587,2230,305,2127,-248,2474,1299,1317,3493,30,66,903
990669,2249596,2547368,2252872,2547784,2323,286,2064,-344,2136,1321,1244,2927,46,57,902
991670,2249792,2547644,2253069,2547981,2075,377,1967,-514,1860,1609,1147,2877,46,57,902
992671,2249964,2547856,2253266,2548178,2236,770,1784,-552,1633,1770,1164,3227,27,45,902
993672,2250132,2548048,2253463,2548375,2274,897,1535,-486,1387,1470,1513,3587,27,45,902
994673,2250332,2548204,2253660,2548572,2074,1140,1237,-238,1055,1175,1662,4104,30,47,902
995674,2250496,2548380,2253857,2548769,2314,1024,869,176,662,925,1665,4544,30,47,902
996675,2250668,2548548,2254054,2548966,2275,1088,435,736,230,651,2024,4800,50,25,898
997676,2250844,2548692,2254251,2549163,2261,1261,-83,1249,-228,540,2366,4661,50,25,898
998677,2251072,2548852,2254448,2549360,1922,1178,-629,1697,-676,459,2397,4432,32,21,899
999678,2251260,2548988,2254645,2549557,2177,1355,-1160,2049,-1099,317,2495,4134,32,21,899
1000679,2251436,2549140,2254842,2549754,2262,1274,-1646,2184,-1482,143,2303,3351,48,29,899
1001680,2251624,2549276,2255039,2549951,2191,1401,-2076,2039,-1770,148,1733,2755,48,29,899
1002681,2251796,2549436,2255236,2550148,2303,1267,-2434,1773,-1922,111,1155,2189,30,35,898
1003682,2251948,2549572,2255433,2550345,2448,1444,-2687,1254,-1960,41,821,1352,30,35,898
1004683,2252112,2549728,2255630,2550542,2388,1337,-2853,615,-1940,-182,765,1011,26,40,899
1005684,2252288,2549948,2255827,2550739,2324,928,-2949,-190,-1888,-460,676,727,26,40,899
1006685,2252452,2550160,2256024,2550936,2413,972,-3021,-973,-1875,-660,913,859,22,31,896
1007695,2252656,2550384,2256254,2551166,2176,899,-3088,-1609,-1913,-967,974,1425,22,31,896
1008687,2252820,2550572,2256451,2551363,2441,1128,-3137,-1995,-1937,-1166,234,2162,48,33,900
1009688,2253016,2550776,2256648,2551560,2243,1025,-3164,-2171,-1917,-1120,-1210,2918,48,33,900
1010689,2253224,2550952,2256845,2551757,2163,1209,-3154,-2215,-1871,-1231,-1749,3314,30,47,901
1011690,2253396,2551160,2257042,2551954,2400,1004,-3125,-2172,-1843,-1358,-1844,3647,30,47,901
1012691,2253576,2551344,2257239,2552151,2358,1161,-3088,-2099,-1839,-1559,-2084,3872,48,44,900
1013692,2253756,2551504,2257436,2552348,2366,1327,-3050,-1966,-1796,-1827,-2362,4415,48,44,900
1014693,2253936,2551688,2257633,2552545,2374,1183,-2991,-1701,-1706,-1861,-2470,4819,27,35,899
1015694,2254112,2551864,2257830,2552742,2409,1242,-2899,-1418,-1605,-1888,-2254,4751,27,35,899
1016695,2254304,2552032,2258027,2552939,2312,1305,-2767,-1185,-1504,-1961,-2132,4810,26,32,898
1017696,2254524,2552184,2258224,2553136,2127,1425,-2624,-981,-1392,-2037,-2488,4948,26,32,898
1018697,2254736,2552316,2258421,2553333,2172,1579,-2491,-882,-1290,-1990,-2773,4921,42,40,897
1019698,2254940,2552436,2258618,2553530,2220,1688,-2366,-714,-1199,-1889,-2838,5024,42,40,897
1020699,2255152,2552584,2258815,2553727,2163,1535,-2208,-661,-1111,-1869,-2891,4828,34,25,899
1021700,2255364,2552748,2259012,2553924,2158,1449,-2051,-686,-1038,-1824,-2916,4570,34,25,899
1022701,2255580,2552928,2259209,2554121,2125,1357,-1889,-863,-983,-1841,-2973,4209,44,28,897
1023702,2255840,2553072,2259406,2554318,1823,1606,-1719,-1159,-918,-1760,-3049,3951,44,28,897
1024703,2256080,2553220,2259603,2554515,1930,1603,-1562,-1556,-842,-1612,-2908,3838,49,39,899
1025704,2256316,2553340,2259800,2554712,1939,1811,-1417,-1995,-773,-1553,-2197,3607,49,39,899
1026705,2256580,2553480,2259997,2554909,1734,1711,-1281,-2508,-731,-1423,-1430,3547,55,24,900
1027706,2256836,2553608,2260194,2555106,1759,1818,-1136,-3087,-692,-1278,-1075,3535,55,24,900
1028707,2257080,2553748,2260391,2555303,1815,1768,-986,-3596,-636,-1243,-843,3773,50,36,897
1029708,2257368,2553876,2260588,2555500,1500,1873,-844,-4048,-590,-1240,-705,3927,50,36,897
1030709,2257640,2554000,2260785,2555697,1568,1931,-697,-4482,-571,-1143,-731,4010,51,34,899
1031710,2257884,2554132,2260982,2555894,1722,1910,-229,-4349,-555,-464,-1199,8651,51,34,899
1032711,2258176,2554264,2261179,2556091,1381,1938,832,-2974,-612,795,-940,18171,61,25,900
1033712,2258456,2554412,2261376,2556288,1421,1861,1576,-2464,-679,-286,-218,6126,61,25,900
1034713,2258720,2554544,2261573,2556485,1491,1989,1724,-3085,-702,-510,148,3233,43,26,898
1035714,2258948,2554680,2261770,2556682,1704,1991,1613,-4158,-699,-233,278,3012,43,26,898
1036715,2259244,2554808,2261967,2556879,1235,2073,1506,-4925,-672,-6,141,3565,54,29,900
1037716,2259528,2554936,2262164,2557076,1273,2103,1441,-5385,-607,21,196,3798,54,29,900
1038717,2259792,2555068,2262361,2557273,1368,2106,1377,-5756,-575,138,371,3820,63,38,898
1039718,2260080,2555204,2262558,2557470,1179,2109,1299,-6090,-583,82,271,4073,63,38,898
1040719,2260324,2555372,2262755,2557667,1434,1922,1242,-6414,-579,-11,-250,4007,61,37,898
1041720,2260580,2555500,2262952,2557864,1334,2203,1200,-6679,-577,110,-128,4367,61,37,898
1042721,2260856,2555664,2263149,2558061,1174,1993,1140,-6764,-575,160,197,4650,60,31,900
1043722,2261108,2555816,2263346,2558258,1301,2089,1078,-6774,-559,225,100,4684,60,31,900
1044723,2261336,2555980,2263543,2558455,1437,2028,1057,-6808,-552,368,-92,4623,48,41,899
1045724,2261588,2556132,2263740,2558652,1263,2124,1099,-6896,-539,418,-32,4522,48,41,899
1046725,2261836,2556284,2263937,2558849,1267,2144,1173,-6911,-517,522,187,4606,54,28,900
1047726,2262060,2556424,2264134,2559046,1405,2245,1265,-6941,-475,598,183,4275,54,28,900
1048727,2262304,2556576,2264331,2559243,1260,2190,1366,-7005,-427,649,351,4251,55,29,899
1049728,2262528,2556748,2264528,2559440,1373,2077,1483,-7020,-369,664,469,4192,55,29,899
1050729,2262716,2556896,2264725,2559637,1602,2248,1615,-7071,-298,755,486,4035,46,29,898
1051730,2262944,2557028,2264922,2559834,1340,2378,1760,-7033,-224,743,585,4155,46,29,898
1052731,2263144,2557180,2265119,2560031,1513,2272,1907,-7010,-141,602,598,4039,35,37,899
1053732,2263356,2557316,2265316,2560228,1433,2400,2057,-6904,-57,548,465,4071,35,37,899
1054733,2263580,2557444,2265513,2560425,1346,2481,2200,-6733,30,423,390,4140,54,22,898
1055734,2263788,2557584,2265710,2560622,1441,2432,2344,-6542,124,268,236,4080,54,22,898
1056735,2263996,2557728,2265907,2560819,1437,2430,2468,-6314,208,175,149,4140,46,39,898
1057736,2264220,2557868,2266104,2561016,1325,2481,2577,-6023,285,-2,66,4055,46,39,898
1058737,2264408,2558012,2266301,2561213,1554,2480,2662,-5758,354,-85,10,4010,41,23,897
1059737,2264628,2558164,2266498,2561410,1345,2450,2709,-5425,429,-43,-441,4001,41,23,897
1060739,2264832,2558316,2266695,2561607,1442,2471,2713,-5128,534,-151,-713,3754,31,22,896
1061740,2265060,2558484,2266892,2561804,1279,2383,2684,-4870,656,-76,-684,3351,31,22,896
1062740,2265280,2558596,2267089,2562001,1319,2772,2626,-4716,784,88,-544,3076,52,26,896
1063741,2265496,2558716,2267286,2562198,1336,2757,2540,-4556,918,162,-327,2908,52,26,896
1064743,2265744,2558856,2267483,2562395,1114,2657,2425,-4510,1039,252,-138,2568,35,36,898
1065744,2265944,2559004,2267680,2562592,1413,2629,2299,-4495,1156,388,-129,2366,35,36,898
1066745,2266144,2559160,2267877,2562789,1412,2598,2165,-4481,1291,500,-88,2217,34,23,895
1067745,2266372,2559320,2268074,2562986,1223,2590,2004,-4567,1390,658,57,1950,34,23,895
1068747,2266568,2559464,2268271,2563183,1425,2714,1823,-4646,1454,737,11,1816,41,31,896
1069748,2266776,2559612,2268468,2563380,1345,2711,1629,-4696,1517,825,-209,1808,41,31,896
1070749,2266980,2559752,2268665,2563577,1367,2787,1407,-4801,1579,990,-608,1786,47,23,897
1071750,2267152,2559868,2268862,2563774,1579,2973,1157,-4848,1642,1077,-755,1946,47,23,897
1072751,2267296,2560012,2269059,2563971,1777,2822,888,-4821,1683,1091,-651,1978,30,37,895
1073752,2267464,2560140,2269256,2564168,1640,2954,612,-4795,1688,1174,-543,2030,30,37,895
1074753,2267620,2560284,2269453,2564365,1734,2878,334,-4725,1687,1303,-248,2202,42,37,893
1075754,2267804,2560444,2269650,2564562,1565,2794,38,-4593,1677,1493,201,2521,42,37,893
1076755,2267928,2560596,2269847,2564759,1972,2865,-279,-4399,1653,1655,515,2633,33,29,893
1077756,2268120,2560780,2270044,2564956,1550,2672,-593,-4211,1613,1732,813,2658,33,29,893
1078757,2268284,2560932,2270241,2565153,1740,2892,-896,-4061,1562,1863,938,2600,36,40,894
1079758,2268448,2561096,2270438,2565350,1755,2832,-1182,-3958,1503,1911,965,2541,36,40,894
1080759,2268596,2561228,2270635,2565547,1877,3061,-1456,-3843,1446,1909,861,2653,40,40,895
1081760,2268760,2561380,2270832,2565744,1791,2957,-1724,-3712,1398,1786,590,2675,40,40,895
1082761,2268920,2561532,2271029,2565941,1833,2978,-1971,-3629,1361,1727,198,2661,25,34,893
1083762,2269084,2561676,2271226,2566138,1823,3052,-2206,-3535,1333,1667,-264,2817,25,34,893
1084763,2269248,2561840,2271423,2566335,1837,2943,-2418,-3477,1292,1509,-334,2716,33,28,891
1085764,2269404,2561984,2271620,2566532,1906,3091,-2609,-3400,1250,1413,-415,2822,33,28,891
1086765,2269596,2562140,2271817,2566729,1684,3035,-2770,-3354,1212,1272,-67,2883,29,23,891
1087766,2269772,2562300,2272014,2566926,1794,3027,-2912,-3274,1159,1190,56,2969,29,23,891
1088767,2269952,2562464,2272211,2567123,1776,3018,-3047,-3218,1098,1031,66,2999,24,39,891
1089768,2270112,2562584,2272408,2567320,1918,3328,-3145,-3238,1050,857,90,2886,24,39,891
1090776,2270272,2562764,2272638,2567550,1949,2976,-3223,-3273,1020,670,-26,3123,23,33,891
1091770,2270444,2562896,2272835,2567747,1885,3305,-3292,-3297,1014,481,-165,3166,23,33,891
1092771,2270612,2563064,2273032,2567944,1924,3094,-3359,-3293,1027,242,-359,3412,31,25,889
1093772,2270808,2563224,2273229,2568141,1749,3161,-3411,-3233,1042,-134,-500,3562,31,25,889
1094773,2270996,2563392,2273426,2568338,1804,3125,-3453,-3164,1068,-447,-717,3906,29,39,889
1095774,2271180,2563556,2273623,2568535,1835,3166,-3474,-3036,1147,-586,-941,4165,29,39,889
1096775,2271424,2563724,2273820,2568732,1440,3153,-3486,-2933,1271,-813,-1052,4310,30,41,891
1097776,2271612,2563896,2274017,2568929,1794,3140,-3489,-2814,1430,-1043,-1179,4536,30,41,891
1098777,2271788,2564056,2274214,2569126,1880,3233,-3484,-2723,1606,-1313,-1170,4652,38,39,891
1099778,2271992,2564232,2274411,2569323,1702,3143,-3460,-2635,1787,-1542,-1044,4756,38,39,891
1100779,2272176,2564408,2274608,2569520,1833,3153,-3415,-2571,1952,-1721,-928,4932,30,31,891
1101780,2272372,2564588,2274805,2569717,1759,3136,-3342,-2524,2089,-1876,-739,5004,30,31,891
1102781,2272588,2564760,2275002,2569914,1626,3198,-3237,-2541,2215,-1852,-526,5038,31,37,890
1103782,2272796,2564940,2275199,2570111,1672,3157,-3126,-2565,2359,-1730,-525,5290,31,37,890
1104783,2273008,2565116,2275396,2570308,1640,3192,-3016,-2584,2535,-1630,-487,5495,44,43,890
1105784,2273204,2565292,2275593,2570505,1741,3202,-2897,-2628,2707,-1580,-371,5566,44,43,890
1106785,2273428,2565460,2275790,2570702,1554,3266,-2235,-2100,2851,-639,-296,11328,38,26,890
1107786,2273608,2565640,2275987,2570899,1838,3200,58,2144,2712,3569,-12,32767,38,26,890
1108787,2273828,2565824,2276184,2571096,1578,3181,2552,4596,2681,-1439,-522,3397,38,43,891
1109788,2274048,2566012,2276381,2571293,1569,3161,2257,2510,2859,-1210,-487,1677,38,43,891
1110789,2274228,2566200,2276578,2571490,1826,3166,1980,548,3043,-789,-886,1920,31,41,891
1111790,2274404,2566388,2276775,2571687,1861,3171,1887,-799,3251,-847,-711,1986,31,41,891
1112791,2274612,2566576,2276972,2571884,1657,3176,1818,-2092,3430,-843,-582,1989,46,38,892
1113792,2274792,2566740,2277169,2572081,1840,3342,1676,-3159,3521,-823,-391,2544,46,38,892
1114793,2274956,2566912,2277366,2572278,1955,3304,1515,-4415,3562,-1155,165,2196,46,31,889
1115794,2275156,2567096,2277563,2572475,1728,3235,1396,-5665,3496,-1079,603,2466,46,31,889
1116795,2275324,2567332,2277760,2572672,1942,2894,1204,-6681,3353,-953,936,3547,24,46,889
1117796,2275504,2567524,2277957,2572869,1874,3172,962,-7262,3240,-917,773,4809,24,46,889
1118797,2275680,2567724,2278154,2573066,1910,3122,667,-7453,3163,-850,434,5739,30,40,890
1119798,2275852,2567908,2278351,2573263,1946,3229,418,-7565,3101,-1061,385,6003,30,40,890
1120799,2276012,2568096,2278548,2573460,2038,3209,204,-7451,3044,-1065,172,6949,29,45,891
1121800,2276180,2568296,2278745,2573657,2001,3133,39,-7310,2965,-777,62,6759,29,45,891
1122801,2276316,2568536,2278942,2573854,2229,2866,-73,-7267,2892,-533,275,6672,42,43,890
1123802,2276452,2568752,2279139,2574051,2255,3008,-152,-7160,2843,-359,537,6802,42,43,890
1124803,2276616,2568984,2279336,2574248,2096,2894,-192,-7099,2798,-266,596,6522,34,43,891
1125804,2276792,2569208,2279533,2574445,2030,2933,-204,-7025,2813,-265,556,6743,34,43,891
1126805,2276960,2569428,2279730,2574642,2094,2949,-163,-6911,2872,-375,741,6425,32,39,889
1127806,2277120,2569684,2279927,2574839,2160,2699,-78,-7001,2922,-355,645,6024,32,39,889
1128807,2277280,2569944,2280124,2575036,2177,2647,37,-7084,2964,-199,718,5882,45,42,891
1129808,2277440,2570152,2280321,2575233,2194,2968,184,-7282,3035,-106,773,5370,45,42,891
1130809,2277608,2570400,2280518,2575430,2157,2697,379,-7572,3082,45,941,4968,33,43,892
1131810,2277772,2570620,2280715,2575627,2197,2863,614,-7930,3091,57,1313,4689,33,43,892
1132811,2277920,2570832,2280912,2575824,2319,2907,868,-8204,3115,141,974,4827,40,37,891
1133812,2278064,2571068,2281109,2576021,2369,2741,1088,-8318,3201,144,372,5309,40,37,891
1134813,2278204,2571280,2281306,2576218,2419,2886,1271,-8244,3360,-232,-309,5781,40,40,891
1135814,2278316,2571552,2281503,2576415,2632,2479,1446,-8038,3505,-466,-415,5878,40,40,891
1136815,2278440,2571820,2281700,2576612,2589,2473,1642,-7856,3556,-464,-61,5584,18,57,891
1137816,2278532,2572064,2281897,2576809,2836,2604,1880,-7748,3523,-73,617,5207,18,57,891
1138817,2278652,2572292,2282094,2577006,2696,2691,2114,-7639,3463,266,721,5149,21,50,890
1139818,2278744,2572568,2282291,2577203,2917,2357,2325,-7500,3410,298,677,5180,21,50,890
1140819,2278864,2572844,2282488,2577400,2777,2324,2506,-7221,3397,130,220,5388,31,56,889
1141820,2278996,2573124,2282685,2577597,2732,2263,2687,-6882,3432,150,-172,5255,31,56,889
1142821,2279140,2573360,2282882,2577794,2680,2521,2851,-6486,3482,139,-432,5284,18,42,890
1143822,2279308,2573612,2283079,2577991,2544,2398,2982,-6004,3533,-75,-805,5471,18,42,890
1144823,2279452,2573916,2283276,2578188,2718,2027,3099,-5539,3597,-396,-1082,5342,29,63,892
1145824,2279596,2574204,2283473,2578385,2742,2088,3226,-5067,3691,-605,-1241,5273,29,63,892
1146825,2279752,2574476,2283670,2578582,2685,2156,3362,-4632,3790,-320,-884,4754,45,50,892
1147825,2279884,2574740,2283867,2578779,2865,2176,3509,-4292,3864,401,-312,4141,45,50,892
1148827,2280048,2574988,2284064,2578976,2680,2255,3657,-4092,3929,904,-46,3783,36,48,892
1149827,2280228,2575240,2284261,2579173,2589,2207,3799,-3941,4010,999,-65,3490,36,48,892
1150829,2280404,2575580,2284458,2579370,2623,1595,3946,-3800,4091,957,8,3245,47,55,891
1151829,2280604,2575900,2284655,2579567,2473,1666,4088,-3674,4167,1004,195,3082,47,55,891
1152831,2280804,2576180,2284852,2579764,2472,1881,4208,-3489,4229,1188,363,3151,45,65,893
1153832,2281012,2576456,2285049,2579961,2419,1872,4294,-3202,4301,1230,213,3272,45,65,893
1154833,2281184,2576772,2285246,2580158,2655,1569,4364,-2973,4357,1247,281,2985,53,52,896
1155834,2281384,2577140,2285443,2580355,2479,1170,4411,-2667,4362,1549,412,2943,53,52,896
1156835,2281604,2577444,2285640,2580552,2345,1524,4468,-2444,4337,2015,742,2467,46,67,896
1157835,2281816,2577724,2285837,2580749,2390,1638,4509,-2189,4310,2289,866,2627,46,67,896
1158837,2282060,2578028,2286034,2580946,2169,1442,4523,-1884,4286,2021,774,2814,61,68,898
1159838,2282276,2578360,2286231,2581143,2337,1207,4511,-1455,4273,1609,485,3042,61,68,898
1160839,2282472,2578712,2286428,2581340,2463,1015,4486,-996,4242,1544,569,2743,56,69,896
1161840,2282680,2579036,2286625,2581537,2384,1135,4473,-709,4175,1832,880,2078,56,69,896
1162841,2282908,2579328,2286822,2581734,2246,1294,4438,-404,4076,2302,802,2014,42,61,899
1163842,2283140,2579648,2287019,2581931,2206,1065,4369,-192,3974,2461,624,1696,42,61,899
1164843,2283368,2579952,2287216,2582128,2219,1119,4263,17,3882,2156,277,1629,43,53,898
1165843,2283620,2580248,2287413,2582325,2045,1125,4124,279,3808,1650,102,1746,43,53,898
1166845,2283828,2580556,2287610,2582522,2316,1002,3981,491,3735,1571,371,1319,50,67,900
1167846,2284040,2580820,2287807,2582719,2285,1248,3796,655,3612,1925,662,1156,50,67,900
1168847,2284296,2581132,2288004,2582916,1985,897,3598,710,3420,2064,582,505,55,64,900
1169848,2284524,2581432,2288201,2583113,2147,928,3391,700,3178,2053,542,266,55,64,900
1170849,2284780,2581712,2288398,2583310,1946,1017,3157,784,2964,1837,365,505,40,62,898
1171850,2285032,2581996,2288595,2583507,1948,954,2904,848,2833,1573,228,500,40,62,898
1172851,2285284,2582280,2288792,2583704,1925,916,2659,940,2671,1475,461,457,61,58,900
1173859,2285508,2582604,2289022,2583934,2103,625,2430,1039,2432,1326,637,177,61,58,900
1174853,2285764,2582908,2289219,2584131,1878,703,2193,1080,2159,1450,329,148,60,51,902
1175854,2286060,2583168,2289416,2584328,1585,950,1935,1158,1894,1474,422,100,60,51,902
1176855,2286296,2583500,2289613,2584525,1943,442,1649,1296,1682,1337,324,140,49,59,901
1177856,2286556,2583752,2289810,2584722,1766,918,1341,1415,1537,1262,177,163,49,59,901
1178857,2286800,2584036,2290007,2584919,1847,680,1020,1482,1381,1219,504,169,53,63,903
1179857,2287016,2584348,2290204,2585116,2013,454,693,1586,1163,1125,748,253,53,63,903
1180859,2287256,2584612,2290401,2585313,1846,725,389,1628,893,832,786,-35,44,62,903
1181859,2287540,2584872,2290598,2585510,1532,722,116,1567,609,616,662,-243,44,62,903
1182861,2287776,2585144,2290795,2585707,1816,615,-148,1589,374,580,380,4,41,48,902
1183862,2287988,2585508,2290992,2585904,1960,-33,-440,1639,258,720,247,50,41,48,902
1184863,2288216,2585752,2291189,2586101,1847,696,-737,1723,254,1031,1,240,45,59,904
1185864,2288428,2586024,2291386,2586298,1941,488,-1025,1828,321,1280,10,350,45,59,904
1186865,2288668,2586244,2291583,2586495,1748,803,-1316,1888,393,1432,137,388,48,64,904
1187866,2288928,2586516,2291780,2586692,1596,445,-1624,1920,397,1259,395,267,48,64,904
1188867,2289164,2586812,2291977,2586889,1729,251,-1936,1821,358,999,514,-17,57,61,903
1189868,2289376,2587108,2292174,2587086,1873,208,-2262,1671,262,976,748,154,57,61,903
1190868,2289580,2587328,2292371,2587283,1920,673,-2595,1557,116,880,1117,390,54,42,904
1191869,2289828,2587532,2292568,2587480,1624,770,-2947,1556,-35,737,1180,615,54,42,904
1192871,2290068,2587772,2292765,2587677,1655,526,-3375,1749,-205,523,1113,1492,60,37,903
1193871,2290292,2587980,2292962,2587874,1744,721,-3893,2130,-401,351,1256,2232,60,37,903
1194873,2290564,2588224,2293159,2588071,1411,475,-4395,2429,-595,120,977,1561,55,51,902
1195873,2290800,2588432,2293356,2588268,1620,695,-4803,2482,-806,-269,657,949,55,51,902
1196874,2290996,2588616,2293553,2588465,1870,851,-5170,2349,-1035,-526,267,1132,54,31,903
1197875,2291284,2588772,2293750,2588662,1256,1044,-5546,2222,-1232,-613,-384,1201,54,31,903
1198876,2291528,2588936,2293947,2588859,1511,1009,-5912,2038,-1383,-695,-1108,948,51,24,904
1199878,2291780,2589052,2294144,2589056,1437,1344,-6233,1728,-1537,-868,-1281,786,51,24,904
1200879,2292028,2589184,2294341,2589253,1440,1273,-6495,1281,-1708,-1047,-1477,532,56,24,904
1201880,2292248,2589348,2294538,2589450,1606,1087,-6748,799,-1875,-1004,-1763,709,56,24,904
1202881,2292492,2589524,2294735,2589647,1435,1022,-6976,342,-2002,-1003,-1882,867,47,39,902
1203882,2292772,2589668,2294932,2589844,1175,1245,-7141,-209,-2094,-1108,-1987,935,47,39,902
1204883,2293024,2589824,2295129,2590041,1326,1188,-7261,-725,-2177,-1024,-1814,1165,59,32,901
1205884,2293236,2589976,2295326,2590238,1569,1233,-7324,-1293,-2259,-890,-1497,1125,59,32,901
1206885,2293504,2590108,2295523,2590435,1189,1386,-7331,-1913,-2370,-898,-1376,1110,38,33,903
1207886,2293708,2590244,2295720,2590632,1586,1388,-7296,-2602,-2510,-1204,-1622,1244,38,33,903
1208887,2293948,2590376,2295917,2590829,1343,1442,-7211,-3290,-2602,-1397,-2272,1561,48,35,902
1209888,2294208,2590488,2296114,2591026,1190,1604,-7089,-3918,-2582,-1270,-2760,1995,48,35,902
1210889,2294420,2590608,2296311,2591223,1484,1588,-6955,-4479,-2460,-1236,-2892,2345,35,32,902
1211890,2294656,2590756,2296508,2591420,1317,1434,-6824,-5016,-2308,-1114,-2596,2692,35,32,902
1212891,2294884,2590924,2296705,2591617,1354,1323,-6690,-5480,-2174,-920,-2274,3026,33,32,902
1213892,2295104,2591044,2296902,2591814,1394,1657,-6537,-5932,-2062,-697,-1864,3243,33,32,902
1214893,2295360,2591172,2297099,2592011,1144,1637,-6363,-6316,-1961,-418,-1483,3582,34,30,901
1215894,2295560,2591312,2297296,2592208,1492,1587,-6169,-6693,-1863,1,-1011,3807,34,30,901
1216895,2295776,2591440,2297493,2592405,1384,1693,-5976,-7102,-1767,272,-660,4103,54,23,900
1217896,2296008,2591588,2297690,2592602,1270,1589,-5802,-7436,-1692,411,-707,4415,54,23,900
1218897,2296212,2591708,2297887,2592799,1442,1798,-5654,-7656,-1619,557,-1023,4833,34,17,901
1219898,2296452,2591828,2298084,2592996,1198,1833,-5501,-7823,-1512,741,-1284,5033,34,17,901
1220899,2296672,2591952,2298281,2593193,1314,1840,-5340,-8038,-1373,1028,-1371,5211,53,28,901
1221900,2296860,2592068,2298478,2593390,1518,1925,-5189,-8152,-1220,1374,-1213,5608,53,28,901
1222901,2297080,2592236,2298675,2593587,1307,1613,-5058,-8274,-1071,1820,-897,5717,30,38,901
1223902,2297264,2592416,2298872,2593784,1539,1547,-4942,-8416,-942,2476,-763,5930,30,38,901
1224903,2297496,2592556,2299069,2593981,1224,1822,-4889,-8412,-836,3074,-740,6509,28,38,899
1225904,2297716,2592696,2299266,2594178,1289,1847,-4828,-8406,-760,3645,-711,6175,28,38,899
1226905,2297908,2592836,2299463,2594375,1466,1872,-2787,-5408,-855,8434,-1598,32767,32,35,899
1227906,2298108,2592988,2299660,2594572,1416,1818,1300,1812,-1272,11636,-2014,32767,32,35,899
1228907,2298324,2593124,2299857,2594769,1307,1944,3538,3986,-1476,4922,-98,4299,34,36,900
1229908,2298548,2593228,2300054,2594966,1245,2185,3521,1834,-1430,4829,693,1102,34,36,900
1230909,2298780,2593396,2300251,2595163,1181,1799,3071,-1242,-1335,5350,389,-63,38,22,900
1231910,2298984,2593536,2300448,2595360,1353,1999,2783,-3465,-1178,5479,-180,600,38,22,900
1232911,2299224,2593680,2300645,2595557,1109,1997,2305,-3737,-674,5315,-2821,5115,33,31,898
1233912,2299432,2593844,2300842,2595754,1304,1888,1683,-3780,-92,5060,-2328,3536,33,31,898
1234913,2299628,2593968,2301039,2595951,1381,2170,1527,-4669,89,4621,-177,1053,50,21,899
1235914,2299824,2594108,2301236,2596148,1381,2095,1345,-5714,57,4058,-284,3309,50,21,899
1236915,2300028,2594252,2301433,2596345,1328,2094,664,-5705,-30,3625,-1905,6431,40,35,899
1237916,2300192,2594384,2301630,2596542,1592,2198,49,-5491,-50,3316,-2322,4469,40,35,899
1238917,2300396,2594540,2301827,2596739,1340,2067,-338,-5392,43,3245,-2828,4895,42,30,898
1239918,2300608,2594660,2302024,2596936,1284,2326,-771,-5062,143,3305,-2932,6125,42,30,898
1240919,2300856,2594788,2302221,2597133,1036,2307,-1230,-4464,154,2779,-2224,6328,51,38,898
1241920,2301132,2594924,2302418,2597330,828,2284,-1597,-3829,75,2198,-1534,6316,51,38,898
1242921,2301376,2595052,2302615,2597527,1007,2364,-1740,-3230,-52,1759,-1023,5987,34,33,898
1243922,2301580,2595184,2302812,2597724,1254,2369,-1670,-2807,-106,835,-1485,5761,34,33,898
1244923,2301812,2595308,2303009,2597921,1064,2451,-1558,-2303,-73,279,-1932,6233,50,32,900
1245924,2302036,2595428,2303206,2598118,1102,2511,-1473,-1621,-38,-72,-1431,6457,50,32,900
1246925,2302236,2595564,2303403,2598315,1251,2437,-1449,-841,-87,-601,-751,6547,42,31,898
1247925,2302440,2595692,2303600,2598512,1223,2519,-1398,-201,-240,-1027,-534,6014,42,31,898
1248927,2302640,2595844,2303797,2598709,1247,2389,-1285,250,-423,-1429,-936,5603,37,20,897
1249928,2302824,2596008,2303994,2598906,1353,2329,-1117,598,-534,-1466,-1785,5331,37,20,897
1250929,2303004,2596188,2304191,2599103,1386,2238,-897,867,-540,-1185,-2560,4816,39,39,897
1251930,2303180,2596360,2304388,2599300,1420,2298,-667,1012,-461,-967,-2601,4523,39,39,897
1252931,2303344,2596524,2304585,2599497,1510,2364,-460,1046,-326,-712,-2394,4154,21,33,898
1253932,2303488,2596704,2304782,2599694,1658,2271,-278,852,-152,-225,-2151,3304,21,33,898
1254933,2303656,2596876,2304979,2599891,1522,2333,-97,335,50,74,-1635,2547,38,41,897
1255934,2303792,2597056,2305176,2600088,1749,2291,105,-342,275,11,-1420,2090,38,41,897
1256942,2303956,2597248,2305406,2600318,1603,2234,311,-1138,503,-168,-1433,1835,20,25,897
1257936,2304128,2597392,2305603,2600515,1564,2558,484,-1835,757,-195,-1687,2184,20,25,897
1258937,2304296,2597556,2305800,2600712,1602,2447,614,-2422,1052,26,-1685,2520,23,29,895
1259937,2304444,2597736,2305997,2600909,1749,2356,696,-2924,1335,322,-1287,2685,23,29,895
1260939,2304644,2597956,2306194,2601106,1423,2096,747,-3400,1610,501,-1054,2924,24,32,895
1261940,2304812,2598136,2306391,2601303,1635,2354,783,-3803,1877,637,-925,3316,24,32,895
1262941,2304988,2598340,2306588,2601500,1596,2202,792,-4106,2089,864,-705,3726,28,39,896
1263941,2305160,2598556,2306785,2601697,1632,2119,780,-4210,2232,911,-278,4046,28,39,896
1264943,2305356,2598740,2306982,2601894,1482,2326,749,-4243,2335,1004,-74,4410,26,47,896
1265944,2305524,2598956,2307179,2602091,1671,2117,691,-4166,2397,1098,89,4796,26,47,896
1266945,2305724,2599156,2307376,2602288,1469,2217,570,-3933,2447,1259,196,5497,36,35,897
1267946,2305872,2599376,2307573,2602485,1816,2083,391,-3487,2498,1463,233,5991,36,35,897
1268947,2306036,2599588,2307770,2602682,1732,2126,235,-3097,2537,1514,192,5681,23,40,898
1269948,2306208,2599808,2307967,2602879,1692,2067,101,-2775,2555,1597,222,5692,23,40,898
1270949,2306388,2600028,2308164,2603076,1650,2057,-61,-2454,2563,1775,264,5643,40,47,896
1271950,2306544,2600240,2308361,2603273,1819,2101,-229,-2239,2530,1793,460,5370,40,47,896
1272951,2306716,2600460,2308558,2603470,1730,2041,-362,-2158,2437,1664,509,5022,31,53,898
1273952,2306920,2600688,2308755,2603667,1527,1979,-411,-2168,2329,1672,-427,4744,31,53,898
1274953,2307116,2600968,2308952,2603864,1578,1618,-374,-2208,2245,1697,-1386,4566,47,48,897
1275954,2307284,2601228,2309149,2604061,1766,1715,-275,-2272,2183,1628,-1594,4446,47,48,897
1276955,2307476,2601444,2309346,2604258,1618,1983,-194,-2363,2078,1508,-963,4314,39,47,899
1277956,2307624,2601740,2309543,2604455,1916,1440,-142,-2511,1931,1342,-713,4039,39,47,899
1278957,2307804,2602032,2309740,2604652,1723,1424,-101,-2705,1791,1199,-647,3924,42,61,899
1279957,2307980,2602300,2309937,2604849,1758,1543,-47,-2984,1685,1001,-976,3649,42,61,899
1280959,2308164,2602540,2310134,2605046,1714,1700,-10,-3195,1588,597,-540,3848,26,46,899
1281960,2308324,2602760,2310331,2605243,1880,1815,2,-3367,1448,193,-227,3877,26,46,899
1282961,2308548,2603012,2310528,2605440,1470,1591,60,-3547,1314,113,-1125,3690,36,48,898
1283962,2308700,2603296,2310725,2605637,1939,1353,197,-3758,1219,-31,-892,3601,36,48,898
1284963,2308876,2603524,2310922,2605834,1799,1691,361,-3951,1155,-240,-351,3702,40,48,898
1285964,2309036,2603744,2311119,2606031,1916,1731,484,-4139,1138,-447,-379,3794,40,48,898
1286965,2309184,2603976,2311316,2606228,2012,1640,596,-4283,1177,-717,-388,3771,30,47,900
1287966,2309332,2604168,2311513,2606425,2035,1893,720,-4370,1263,-958,-568,3872,30,47,900
1288967,2309460,2604412,2311710,2606622,2190,1548,870,-4426,1377,-1156,-979,3936,42,36,898
1289968,2309620,2604660,2311907,2606819,2007,1501,1048,-4502,1539,-1287,-1353,3930,42,36,898
1290969,2309752,2604896,2312104,2607016,2211,1559,1231,-4531,1743,-1309,-1357,4059,44,48,897
1291970,2309896,2605136,2312301,2607213,2159,1516,1385,-4506,1952,-1441,-682,4187,44,48,897
1292971,2310116,2605376,2312498,2607410,1675,1497,1501,-4424,2165,-1605,-503,4483,27,59,898
1293972,2310284,2605580,2312695,2607607,2013,1719,1621,-4192,2396,-1643,-648,4813,27,59,898
1294973,2310484,2605856,2312892,2607804,1813,1236,1745,-3907,2647,-1457,-809,5022,47,45,898
1295973,2310680,2606112,2313089,2608001,1838,1335,1892,-3482,2936,-1163,-1293,5200,47,45,898
1296975,2310856,2606340,2313286,2608198,1973,1496,2042,-3060,3217,-1093,-669,5197,51,47,898
1297976,2311040,2606620,2313483,2608395,1929,1136,2179,-2669,3452,-1014,166,5078,51,47,898
1298977,2311224,2606924,2313680,2608592,1935,939,2278,-2344,3665,-798,372,4878,30,43,900
1299978,2311404,2607092,2313877,2608789,1968,1801,2348,-2047,3876,-606,322,4746,30,43,900
1300979,2311572,2607228,2314074,2608986,2056,2029,2394,-1815,4081,-405,-40,4494,42,38,900
1301980,2311784,2607368,2314271,2609183,1775,2029,2436,-1658,4256,-205,-237,4419,42,38,900
1302981,2311912,2607516,2314468,2609380,2331,2001,2492,-1359,4408,118,-117,4729,26,30,897
1303982,2312076,2607700,2314665,2609577,2121,1782,2526,-1052,4499,398,724,4637,26,30,897
1304983,2312256,2607892,2314862,2609774,2029,1735,2544,-751,4532,629,969,4590,40,29,896
1305984,2312428,2608148,2315059,2609971,2091,1309,2546,-551,4531,712,1020,4249,40,29,896
1306985,2312604,2608412,2315256,2610168,2075,1230,2535,-408,4507,858,997,4085,27,44,897
1307986,2312760,2608616,2315453,2610365,2219,1602,2522,-292,4443,950,1046,3957,27,44,897
1308987,2312968,2608880,2315650,2610562,1889,1199,2532,-223,4383,957,980,3608,50,63,899
1309988,2313136,2609184,2315847,2610759,2153,902,2559,-231,4320,897,790,3508,52,56,898
1310989,2313308,2609508,2316044,2610956,2139,721,2536,-150,4255,844,614,3732,52,56,898
1311990,2313496,2609776,2316241,2611153,2044,1040,2438,38,4174,782,563,4045,40,67,901
1312991,2313680,2610104,2316438,2611350,2075,608,2298,317,4021,692,704,4027,40,67,901
1313992,2313876,2610364,2316635,2611547,2001,1005,2166,520,3789,449,727,3739,31,66,899
1314993,2314068,2610616,2316832,2611744,2028,1031,2022,739,3499,270,633,3883,31,66,899
1315994,2314264,2610848,2317029,2611941,2005,1141,1843,987,3220,159,271,4046,47,60,901
1316995,2314428,2611104,2317226,2612138,2220,966,1628,1278,2914,-114,398,4100,47,60,901
1317996,2314628,2611396,2317423,2612335,1994,699,1375,1529,2454,-453,1026,3899,37,46,900
1318997,2314824,2611660,2317620,2612532,2020,845,1090,1519,1961,-294,1264,2999,37,46,900
1319998,2315004,2611936,2317817,2612729,2128,735,796,1337,1478,-125,1723,2584,35,44,901
1320999,2315196,2612184,2318014,2612926,2056,888,497,1075,1104,144,1396,2344,35,44,901
1322000,2315364,2612480,2318211,2613123,2219,544,245,699,895,364,899,1860,37,53,901
1323001,2315536,2612744,2318408,2613320,2206,715,75,154,768,481,832,1332,37,53,901
1324002,2315720,2613004,2318605,2613517,2136,713,-33,-526,636,551,1158,1093,43,45,900
1325002,2315892,2613256,2318802,2613714,2223,739,-135,-1142,480,603,1627,1426,43,45,900
1326003,2316056,2613480,2318999,2613911,2288,902,-281,-1626,330,693,1922,1742,32,52,900
1327004,2316228,2613668,2319196,2614108,2250,1131,-463,-2014,173,679,2287,1928,32,52,900
1328005,2316428,2613840,2319393,2614305,2074,1242,-703,-2245,-24,686,2529,2469,30,39,899
1329007,2316612,2614060,2319590,2614502,2180,932,-1029,-2287,-243,732,2557,3159,30,39,899
1330007,2316784,2614228,2319787,2614699,2267,1269,-1429,-2135,-457,672,2425,3666,46,26,899
1331009,2316964,2614400,2319984,2614896,2225,1255,-1865,-1925,-685,505,2382,3989,46,26,899
1332010,2317120,2614576,2320181,2615093,2394,1240,-2299,-1552,-905,330,1870,4353,25,24,898
1333011,2317284,2614756,2320378,2615290,2358,1222,-2675,-1175,-1065,179,723,4380,25,24,898
1334012,2317448,2614928,2320575,2615487,2374,1283,-2957,-836,-1146,63,-470,4212,23,25,898
1335013,2317588,2615072,2320772,2615684,2550,1482,-3127,-686,-1164,-85,-1126,3798,23,25,898
1336014,2317748,2615224,2320969,2615881,2441,1452,-3205,-719,-1177,-225,-1188,3266,41,32,896
1337015,2317908,2615372,2321166,2616078,2458,1499,-3213,-865,-1223,-366,-682,3172,41,32,896
1338016,2318056,2615560,2321363,2616275,2555,1253,-3172,-969,-1270,-583,-591,3410,42,38,896
1339017,2318232,2615736,2321560,2616472,2390,1337,-3110,-1016,-1295,-592,-1366,3635,42,38,896
1340027,2318404,2615904,2321790,2616702,2441,1414,-3031,-976,-1334,-707,-1462,3589,30,25,896
1341019,2318592,2616048,2321987,2616899,2345,1587,-2922,-1059,-1409,-885,-1528,3414,30,25,896
1342020,2318764,2616192,2322184,2617096,2457,1612,-2807,-1193,-1468,-1051,-2077,3401,26,35,897
1343021,2318932,2616312,2322381,2617293,2496,1796,-2708,-1345,-1460,-1273,-2642,3483,26,35,897
1344022,2319104,2616456,2322578,2617490,2482,1669,-2639,-1456,-1404,-1525,-2964,3599,43,28,896
1345023,2319252,2616596,2322775,2617687,2655,1719,-2581,-1603,-1339,-1711,-2981,3578,43,28,896
1346024,2319424,2616704,2322972,2617884,2517,1958,-2523,-1774,-1288,-1891,-2780,3606,31,18,894
1347025,2319600,2616836,2323169,2618081,2501,1838,-2473,-1953,-1252,-1960,-2431,3732,31,18,894
1348026,2319780,2616984,2323366,2618278,2484,1759,-2388,-2122,-1243,-1966,-2372,3742,38,26,893
1349027,2319960,2617124,2323563,2618475,2493,1834,-2269,-2289,-1245,-1993,-2395,4052,38,26,893
1350028,2320164,2617296,2323760,2618672,2340,1645,-2125,-2425,-1219,-1870,-2520,4287,33,31,895
1351029,2320348,2617444,2323957,2618869,2471,1818,-1952,-2527,-1142,-1656,-2330,4408,33,31,895
