"Data file recorded 2014/9/22  16:21:30"
"%  Right Stride Frequency         = 3.0"
"%  Left Stride Frequency         = 3.0"
"%  Phase (Fractional)         = 32768.0"
"%  Experiment.py "
"%  Motor Gains    = [1800, 200, 100, 0, 0, 1800, 200, 100, 0, 0]
"% Columns: "
"% time | Right Leg Pos | Left Leg Pos | Commanded Right Leg Pos | Commanded Left Leg Pos | DCR | DCL | GyroX | GryoY | GryoZ | AX | AY | AZ | RBEMF | LBEMF | VBatt "
11782,544040,521756,549479,516711,2596,-2012,45,-83,-167,276,-328,4110,7,2,906
12784,544044,521760,549676,516908,2657,-1953,43,-84,-167,292,-323,4106,7,2,906
13785,544084,521740,549873,517105,2501,-1708,44,-85,-169,276,-305,4099,-1,-12,906
14785,544160,521720,550070,517302,2331,-1614,45,-92,-167,265,-288,4102,-1,-12,906
15786,544244,521636,550267,517499,2331,-1092,43,-90,-168,280,-219,4142,16,-20,888
16788,544384,521584,550464,517696,2007,-1183,39,-61,-173,368,-115,4129,16,-20,888
17789,544504,521520,550661,517893,2167,-994,49,-18,-174,473,-42,4154,12,-6,891
18790,544660,521488,550858,518090,1961,-1094,81,-51,-165,560,76,4176,12,-6,891
19791,544808,521460,551055,518287,2034,-1021,122,-37,-175,517,199,4154,22,-1,895
20792,545004,521420,551252,518484,1736,-843,151,47,-197,480,-251,4279,22,-1,895
21793,545172,521396,551449,518681,1925,-846,180,87,-196,495,-422,4372,38,3,896
22794,545340,521372,551646,518878,1939,-749,187,221,-192,467,-193,4589,38,3,896
23794,545520,521368,551843,519075,1872,-786,172,414,-218,317,5,4739,39,-6,898
24796,545680,521364,552040,519272,2014,-699,157,681,-285,217,-34,4902,39,-6,898
25797,545824,521368,552237,519469,2140,-664,165,920,-372,249,67,4616,34,9,895
26798,545980,521364,552434,519666,2084,-526,190,1022,-453,493,419,4387,34,9,895
27798,546100,521360,552631,519863,2344,-438,202,1096,-504,664,460,4346,24,-5,895
28800,546208,521360,552828,520060,2459,-377,201,1100,-551,670,329,4063,24,-5,895
29801,546340,521364,553025,520257,2339,-317,201,1003,-615,715,212,3833,18,-6,897
30802,546444,521360,553222,520454,2556,-179,179,942,-663,802,-219,3936,18,-6,897
31802,546548,521368,553419,520651,2598,-172,108,881,-698,795,-340,4084,21,8,895
32803,546708,521360,553616,520848,2266,19,-10,925,-766,812,-537,4298,21,8,895
33804,546844,521356,553813,521045,2444,82,-127,952,-870,797,-691,4256,32,-2,895
34805,546964,521368,554010,521242,2579,63,-247,991,-999,771,-490,4394,32,-2,895
35806,547092,521368,554207,521439,2561,225,-370,1062,-1142,704,-466,4412,39,6,897
36808,547188,521376,554404,521636,2807,258,-488,1141,-1284,654,-529,4418,39,6,897
37808,547316,521368,554601,521833,2638,448,-597,1215,-1383,614,-827,4490,13,-4,894
38809,547432,521372,554798,522030,2751,458,-678,1201,-1430,465,-975,4123,13,-4,894
39810,547540,521368,554995,522227,2841,596,-711,1083,-1473,330,-778,3893,24,9,893
40812,547636,521376,555192,522424,2961,605,-709,911,-1530,203,-743,3766,24,9,893
41812,547736,521368,555389,522621,2981,795,-690,701,-1582,47,-762,3770,13,0,893
42813,547820,521388,555586,522818,3131,698,-659,553,-1623,-151,-810,3905,13,0,893
43814,547904,521384,555783,523015,3183,936,-609,428,-1648,-350,-859,3890,29,11,891
44815,547984,521404,555980,523212,3260,865,-526,324,-1650,-449,-935,4028,29,11,891
45816,548052,521412,556177,523409,3394,1023,-418,240,-1613,-532,-1085,4035,21,4,888
46817,548128,521424,556374,523606,3398,1079,-287,154,-1547,-680,-1168,4029,21,4,888
47818,548204,521460,556571,523803,3453,1001,-122,44,-1448,-844,-1362,3986,24,5,887
48820,548300,521500,556768,524000,3375,1045,60,-60,-1338,-945,-1283,4083,24,5,887
49820,548352,521528,556965,524197,3715,1195,230,-36,-1232,-959,-1025,4485,24,10,885
50821,548428,521544,557162,524394,3620,1350,377,62,-1135,-1047,-871,4606,24,10,885
51822,548524,521596,557359,524591,3540,1190,495,197,-1051,-1057,-646,4751,5,6,887
52824,548608,521640,557556,524788,3667,1307,595,277,-974,-1029,-394,4630,5,6,887
53824,548684,521668,557753,524985,3772,1482,682,323,-888,-944,-353,4473,21,4,884
54825,548772,521720,557950,525182,3747,1396,730,324,-765,-861,-497,4338,21,4,884
55826,548864,521768,558147,525379,3769,1487,754,287,-604,-766,-761,4225,23,9,883
56840,548956,521820,558344,525576,3800,1527,781,212,-424,-583,-855,4100,23,9,883
57828,549064,521880,558541,525773,3758,1537,816,107,-273,-401,-461,3960,23,23,883
58842,549168,521932,558738,525970,3800,1652,848,-44,-173,-241,194,3931,23,23,883
59830,549308,521996,558935,526167,3628,1636,870,-189,-120,-1,555,3888,14,24,881
60831,549476,522064,559132,526364,3467,1669,886,-352,-65,367,496,3874,14,24,881
61832,549624,522144,559329,526561,3615,1647,904,-524,65,853,-2,3944,25,28,881
62833,549804,522240,559526,526758,3425,1591,908,-632,240,1171,-659,4153,25,28,881
63834,549980,522316,559723,526955,3461,1770,895,-663,347,975,-1137,4122,33,25,884
64835,550140,522416,559920,527152,3579,1664,902,-816,354,531,-1376,3807,33,25,884
65836,550296,522472,560117,527349,3624,2002,921,-912,339,585,-1757,4071,31,20,885
66837,550448,522544,560314,527546,3671,1958,926,-984,333,857,-1750,4117,31,20,885
67838,550588,522608,560511,527743,3772,2067,931,-968,327,985,-1276,4223,38,16,883
68852,550712,522700,560708,527940,3800,1939,936,-908,274,1113,-609,4344,38,16,883
69853,550856,522752,560905,528137,3800,2254,942,-968,141,1347,54,4123,28,28,881
70854,550992,522832,561102,528334,3800,2131,950,-989,-17,1643,531,4252,28,28,881
71855,551120,522896,561299,528531,3800,2291,953,-1039,-151,1850,612,4166,26,21,879
72856,551236,522960,561496,528728,3800,2350,938,-1160,-261,2030,656,3938,26,21,879
73857,551348,523032,561693,528925,3800,2356,914,-1292,-322,2292,627,3947,35,18,879
74858,551440,523092,561890,529122,3800,2492,861,-1331,-328,2609,582,4109,35,18,879
75859,551560,523144,562087,529319,3800,2607,754,-1230,-317,2681,591,4587,22,11,878
76860,551648,523208,562284,529516,3800,2593,610,-1079,-361,2533,996,4657,22,11,878
77861,551732,523264,562481,529713,3800,2706,464,-885,-476,2527,1204,4854,10,12,877
78862,551824,523368,562678,529910,3800,2447,343,-619,-626,2441,1099,4932,10,12,877
79863,551932,523420,562875,530107,3800,2837,247,-375,-799,2127,928,4783,22,25,877
80864,552032,523496,563072,530304,3800,2742,161,-196,-997,1886,641,4621,22,25,877
81865,552132,523568,563269,530501,3800,2823,83,-89,-1173,1846,172,4393,20,27,876
82866,552256,523668,563466,530698,3800,2692,17,34,-1271,1882,-338,4397,20,27,876
83867,552364,523748,563663,530895,3800,2870,-35,114,-1295,1802,-693,4183,36,23,875
84868,552484,523840,563860,531092,3800,2842,-78,111,-1304,1541,-771,4102,36,23,875
85869,552592,523928,564057,531289,3800,2916,-108,151,-1351,1301,-589,4000,22,17,876
86870,552728,524012,564254,531486,3800,2993,-117,101,-1443,1176,-280,3648,22,17,876
87871,552832,524092,564451,531683,3800,3070,-99,21,-1518,994,-318,3611,33,26,875
88872,552980,524160,564648,531880,3800,3204,-68,-91,-1542,714,-474,3669,33,26,875
89873,553092,524252,564845,532077,3800,3101,-32,-142,-1539,521,-662,3796,25,22,875
90874,553200,524332,565042,532274,3800,3230,16,-148,-1527,382,-759,3863,25,22,875
91875,553360,524416,565239,532471,3800,3255,80,-143,-1520,196,-692,3828,34,29,873
92876,553472,524484,565436,532668,3800,3414,152,-105,-1538,-18,-652,4109,34,29,873
93897,553576,524560,565666,532898,3800,3800,212,56,-1554,-145,-890,4434,22,22,872
94891,553700,524668,565863,533095,3800,3800,282,266,-1553,-292,-1297,4502,22,22,872
95892,553808,524780,566060,533292,3800,3800,353,458,-1534,-483,-1691,4424,20,30,872
96893,553916,524896,566257,533489,3800,3800,421,525,-1499,-656,-1856,4216,20,30,872
97894,554028,525048,566454,533686,3800,3800,479,565,-1454,-722,-1681,4091,17,21,869
98895,554132,525180,566651,533883,3800,3800,553,542,-1422,-689,-1220,3842,17,21,869
99896,554236,525344,566848,534080,3800,3800,634,460,-1407,-688,-899,3600,25,31,870
100897,554328,525508,567045,534277,3800,3800,709,323,-1378,-597,-904,3557,25,31,870
101898,554432,525696,567242,534474,3800,3800,768,169,-1331,-421,-846,3517,19,32,870
102899,554516,525844,567439,534671,3800,3800,818,10,-1273,-370,-779,3565,19,32,870
103899,554636,526024,567636,534868,3800,3800,857,-198,-1212,-296,-746,3507,34,50,868
104901,554760,526200,567833,535065,3800,3800,898,-432,-1150,-30,-449,3389,34,50,868
105901,554868,526372,568030,535262,3800,3800,945,-675,-1099,180,68,3370,32,49,870
106903,555008,526544,568227,535459,3800,3800,978,-889,-1065,373,470,3439,32,49,870
107904,555168,526704,568424,535656,3800,3800,969,-1074,-1037,576,634,3725,37,38,870
108905,555328,526872,568621,535853,3800,3800,925,-1176,-984,809,686,3975,37,38,870
109906,555468,527008,568818,536050,3800,3800,836,-1184,-950,905,921,4427,42,46,871
110907,555628,527160,569015,536247,3800,3800,708,-1082,-936,970,898,4689,42,46,871
111908,555776,527296,569212,536444,3800,3800,553,-954,-918,1121,997,4827,28,28,870
112908,555940,527416,569409,536641,3800,3800,370,-740,-920,1133,1269,4974,28,28,870
113910,556176,527536,569606,536838,3800,3800,167,-574,-980,1134,1511,4872,40,32,870
114911,556392,527624,569803,537035,3800,3800,-45,-459,-1048,1244,1095,4652,40,32,870
115912,556612,527728,570000,537232,3800,3800,-221,-624,-1075,1369,860,3879,35,33,869
116913,556888,527828,570197,537429,3800,3800,-365,-812,-1072,1210,694,4068,35,33,869
117914,557168,527916,570394,537626,3800,3800,-510,-921,-1019,1057,-7,4434,67,30,870
118915,557432,528000,570591,537823,3800,3800,-656,-860,-899,1114,-501,4659,67,30,870
119915,557736,528084,570788,538020,3800,3800,-793,-840,-768,914,-477,4255,55,29,871
120916,558020,528196,570985,538217,3800,3800,-874,-1019,-730,606,-141,3801,55,29,871
121917,558304,528276,571182,538414,3800,3800,-894,-1232,-773,480,136,3949,66,19,871
122919,558604,528384,571379,538611,3800,3800,-862,-1402,-849,55,549,3966,66,19,871
123919,558900,528484,571576,538808,3800,3800,-799,-1549,-927,-408,436,4218,52,38,871
124921,559160,528608,571773,539005,3800,3800,-724,-1529,-1002,-670,-190,4560,52,38,871
125922,559480,528744,571970,539202,3800,3800,-626,-1524,-1062,-838,-628,4325,60,40,868
126923,559796,528888,572167,539399,3800,3800,-488,-1524,-1127,-1134,-797,4452,60,40,868
127924,560144,529028,572364,539596,3800,3800,-316,-1538,-1188,-1464,-1099,4429,66,42,871
128924,560512,529188,572561,539793,3800,3800,-124,-1564,-1175,-1540,-1325,4422,66,42,871
129925,560916,529340,572758,539990,3800,3800,72,-1477,-1068,-1681,-1621,4667,70,42,872
130927,561332,529496,572955,540187,3800,3800,288,-1396,-930,-2078,-1597,4739,70,42,872
131915,561896,529652,573152,540384,2881,3800,506,-1269,-845,-2468,-1584,4894,92,44,873
132917,562360,529840,573349,540581,3391,3800,738,-1095,-774,-2416,-1776,4872,92,44,873
133917,562852,530012,573546,540778,3088,3800,983,-1048,-667,-2196,-1400,4422,98,46,873
134918,563372,530184,573743,540975,2773,3800,1210,-1073,-508,-2053,-1126,4573,98,46,873
135919,563904,530360,573940,541172,2553,3800,1418,-1059,-369,-2167,-628,4520,102,45,875
136920,564424,530520,574137,541369,2488,3800,1603,-1076,-363,-2514,697,4272,102,45,875
137921,564880,530676,574334,541566,2776,3800,1732,-1129,-526,-2946,1332,4191,94,47,877
138922,565368,530880,574531,541763,2449,3800,1871,-1367,-738,-2907,1433,3559,94,47,877
139923,565804,531056,574728,541960,2671,3800,1982,-1679,-893,-2731,1573,3441,82,51,879
140925,566216,531212,574925,542157,2729,3800,2077,-1944,-1002,-2933,1517,3556,82,51,879
141925,566676,531424,575122,542354,2314,3800,2079,-2281,-1083,-2876,674,3492,84,54,879
142926,567064,531608,575319,542551,2682,3800,2061,-2568,-1048,-2579,-444,3559,84,54,879
143927,567460,531788,575516,542748,2547,3800,2016,-2768,-837,-2499,-1083,3800,70,48,878
144928,567884,531972,575713,542945,2273,3800,1993,-2897,-542,-2306,-1139,3880,70,48,878
145929,568256,532128,575910,543142,2523,3800,1983,-3119,-312,-2244,-315,3659,75,47,878
146930,568636,532280,576107,543339,2394,3800,1953,-3458,-208,-1884,705,3538,75,47,878
147931,569048,532432,576304,543536,2101,3800,1876,-3714,-198,-1239,1521,3879,73,45,876
148932,569452,532572,576501,543733,2061,3800,1729,-3850,-167,-907,1561,4417,73,45,876
149933,569828,532740,576698,543930,2159,3800,1518,-3814,-134,-646,1805,4838,83,29,879
150934,570228,532892,576895,544127,1921,3800,1261,-3838,-211,-197,2262,4533,83,29,879
151935,570584,533012,577092,544324,2127,3800,989,-3915,-370,309,2297,4493,76,25,880
152936,570952,533164,577289,544521,1978,3800,691,-3999,-523,769,2031,4639,76,25,880
153937,571336,533272,577486,544718,1797,3800,383,-4137,-581,1177,1742,4662,71,25,881
154938,571700,533368,577683,544915,1850,3800,99,-4196,-522,1523,1589,4751,71,25,881
155939,572044,533476,577880,545112,1912,3800,-189,-4212,-371,1872,1451,4936,78,20,880
156940,572408,533548,578077,545309,1715,3800,-526,-4190,-184,2107,1423,5019,78,20,880
157941,572700,533604,578274,545506,2124,3800,-858,-4289,-36,2268,1630,4733,80,18,879
158942,572996,533676,578471,545703,2057,3800,-1145,-4519,45,2534,1612,4411,80,18,879
159943,573292,533744,578668,545900,2014,3800,-1378,-4840,66,2871,1603,4119,56,28,880
160944,573624,533796,578865,546097,1731,3800,-1570,-5211,91,3077,1335,3991,56,28,880
161945,573908,533820,579062,546294,1993,3800,-1729,-5479,132,3039,868,4290,60,16,879
162946,574156,533836,579259,546491,2197,3800,-1829,-5713,165,2858,472,4034,60,16,879
163947,574392,533852,579456,546688,2256,3800,-1891,-5878,178,2528,-98,4489,50,0,880
164948,574600,533848,579653,546885,2427,3800,-1941,-5911,192,2113,-688,4842,50,0,880
165949,574792,533856,579850,547082,2530,3800,-1948,-5787,238,1689,-1169,5391,39,-3,878
166950,574992,533860,580047,547279,2480,3800,-1896,-5498,280,1364,-1142,5707,39,-3,878
167951,575180,533876,580244,547476,2560,3800,-1760,-5276,271,1529,-810,5278,30,13,876
168952,575376,533872,580441,547673,2511,3800,-1562,-5054,204,1884,-429,5170,30,13,876
169953,575568,533876,580638,547870,2540,3800,-1321,-4737,144,1629,-598,5551,45,1,874
170954,575716,533892,580835,548067,2837,3800,-1067,-4240,165,651,-1333,6318,45,1,874
171955,575832,533900,581032,548264,3074,3800,-774,-3610,248,-320,-1585,6662,32,-3,876
172956,575908,533920,581229,548461,3378,3800,-437,-2990,317,-527,-1127,6421,32,-3,876
173957,575968,533924,581426,548658,3539,3800,-50,-2466,360,-97,-674,5867,21,-2,874
174958,576016,533928,581623,548855,3681,3800,373,-2173,388,84,-390,5141,21,-2,874
175959,576100,533940,581820,549052,3506,3800,808,-1849,416,-58,-574,5276,20,8,870
176967,576196,533956,582050,549282,3491,3800,1241,-1485,513,-199,-923,5207,20,8,870
177961,576336,533980,582247,549479,3242,3800,1662,-1061,670,-469,-1240,5268,11,2,868
178962,576548,533984,582444,549676,2787,3800,2107,-720,826,-536,-1128,4792,11,2,868
179963,576748,534012,582641,549873,2861,3800,2584,-490,939,-587,-1026,4347,27,1,870
180964,576916,534020,582838,550070,3075,3800,3039,-185,1047,-846,-1422,4579,27,1,870
181965,577076,534052,583035,550267,3142,3800,3450,239,1205,-1216,-2085,4697,36,17,873
182966,577208,534088,583232,550464,3348,3800,3824,615,1387,-1376,-2119,4411,36,17,873
183967,577356,534104,583429,550661,3270,3800,4156,946,1549,-1186,-1876,4192,21,4,873
184968,577484,534128,583626,550858,3427,3800,4428,1284,1682,-572,-1596,4120,21,4,873
185969,577688,534120,583823,551055,2950,3800,4645,1600,1789,-147,-1454,3724,21,6,869
186970,577892,534140,584020,551252,2947,3800,4818,1894,1865,69,-1167,3701,21,6,869
187971,578132,534140,584217,551449,2705,3800,4924,2250,1918,107,-1096,3941,44,15,871
188972,578340,534156,584414,551646,2901,3800,4935,2677,1973,152,-1134,4308,44,15,871
189973,578464,534144,584611,551843,3460,3800,4864,3277,2048,402,-1120,4496,56,1,874
190974,578596,534164,584808,552040,3439,3800,4772,3653,2084,771,-671,3727,56,1,874
191975,578732,534176,585005,552237,3442,3800,4647,3791,2031,1232,-274,3350,18,1,873
192976,578848,534180,585202,552434,3604,3800,4477,3877,1897,1898,188,2830,18,1,873
193977,579040,534176,585399,552631,3132,3800,4300,3775,1729,2371,472,2190,18,2,870
194978,579260,534212,585596,552828,2949,3800,4113,3616,1544,2467,566,2109,18,2,870
195979,579452,534212,585793,553025,3127,3800,3889,3430,1352,2184,475,2006,53,10,870
196981,579608,534224,585990,553222,3371,3800,3575,3415,1156,2031,201,2726,53,10,870
197981,579748,534244,586187,553419,3497,3800,3197,3379,921,2130,797,2225,35,-1,874
198982,579856,534256,586384,553616,3737,3800,2840,3043,617,2201,1391,1327,35,-1,874
199983,579972,534280,586581,553813,3725,3800,2503,2548,261,2279,1487,1149,36,11,871
200984,580136,534308,586778,554010,3440,3800,2155,2043,-86,2565,1658,909,36,11,871
201985,580320,534324,586975,554207,3322,3800,1767,1679,-369,2706,1648,1245,41,14,867
202986,580512,534352,587172,554404,3276,3800,1359,1451,-609,2096,1248,1511,41,14,867
203987,580728,534400,587369,554601,3119,3800,951,1253,-863,1215,821,1831,42,4,869
204988,580876,534424,587566,554798,3566,3800,534,1280,-1070,746,283,2361,42,4,869
206002,580980,534464,587763,554995,3800,3800,165,1265,-1157,581,164,2006,42,3,872
207003,581096,534500,587960,555192,3800,3800,-199,1284,-1150,270,-186,2353,42,3,872
208004,581164,534536,588157,555389,3800,3800,-558,1216,-1159,-170,-112,1964,13,16,870
209005,581300,534568,588354,555586,3800,3800,-843,1013,-1177,-69,125,1346,13,16,870
209993,581472,534580,588551,555783,3594,3800,-1077,799,-1141,110,154,1412,36,15,868
210995,581668,534608,588748,555980,3446,3800,-1308,541,-1012,-385,-244,1418,51,3,868
211995,581868,534624,588945,556177,3421,3800,-1517,346,-808,-921,-447,1787,51,3,868
212996,582068,534668,589142,556374,3421,3800,-1694,283,-596,-1275,-242,1934,51,5,867
214010,582180,534708,589339,556571,3800,3800,-1849,255,-393,-1488,-81,2005,51,5,867
215011,582264,534760,589536,556768,3800,3800,-1990,163,-181,-1344,223,2126,27,8,870
216012,582340,534816,589733,556965,3800,3800,-2121,47,39,-1215,373,2336,27,8,870
217013,582392,534860,589930,557162,3800,3800,-2264,10,209,-1122,548,2482,2,11,868
218014,582460,534904,590127,557359,3800,3800,-2410,-55,325,-978,432,2450,2,11,868
219015,582560,534944,590324,557556,3800,3800,-2560,-80,442,-834,130,2829,8,8,868
220016,582684,534984,590521,557753,3800,3800,-2723,11,620,-751,-142,3037,8,8,868
221017,582828,535020,590718,557950,3800,3800,-2888,54,820,-587,-211,2975,30,19,867
222018,583020,535060,590915,558147,3800,3800,-3017,-99,931,-460,-275,2155,30,19,867
223019,583212,535112,591112,558344,3800,3800,-3062,-603,946,-387,-418,1480,36,7,868
224020,583404,535156,591309,558541,3800,3800,-3074,-1101,962,-379,-1393,2029,36,7,868
225021,583564,535224,591506,558738,3800,3800,-3102,-1455,1008,-527,-2063,2654,26,11,867
226022,583764,535268,591703,558935,3800,3800,-3156,-1512,1059,-687,-2584,3459,26,11,867
227023,583936,535348,591900,559132,3800,3800,-3192,-1578,1023,-354,-2389,3281,26,12,869
228011,584152,535396,592097,559329,3726,3800,-3178,-1767,865,496,-1731,3069,26,12,869
229013,584380,535456,592294,559526,3638,3800,-3153,-1973,641,1150,-1233,3502,41,10,869
230013,584608,535504,592491,559723,3627,3800,-3124,-2088,434,1580,-992,3754,41,10,869
231014,584844,535532,592688,559920,3561,3800,-3064,-2189,284,1704,-653,3718,41,8,870
232015,585080,535552,592885,560117,3545,3800,-2954,-2388,134,1537,-214,3544,41,8,870
233029,585268,535552,593082,560314,3800,3800,-2866,-2554,-95,1878,-3,4143,28,-1,870
234017,585480,535556,593279,560511,3696,3800,-2817,-2604,-371,2813,264,4532,28,-1,870
235018,585692,535568,593476,560708,3690,3800,-2768,-2606,-625,3851,1012,4713,56,0,868
236019,585924,535580,593673,560905,3552,3800,-2766,-2405,-870,4193,1577,5581,56,0,868
237020,586156,535572,593870,561102,3537,3800,-2769,-2068,-1106,3868,1693,5974,55,7,869
238021,586440,535576,594067,561299,3176,3800,-2743,-1700,-1362,3316,2006,6118,55,7,869
239022,586644,535588,594264,561496,3674,3800,-2704,-1381,-1670,3205,2453,5997,39,-1,870
240023,586884,535592,594461,561693,3431,3800,-2706,-1112,-2005,3897,2610,6177,39,-1,870
241024,587124,535608,594658,561890,3414,3800,-2724,-816,-2311,4607,2647,6123,62,0,869
242025,587408,535612,594855,562087,3102,3800,-2732,-550,-2562,4517,2340,6072,62,0,869
243026,587612,535664,595052,562284,3601,3800,-2701,-302,-2722,3906,1378,6084,45,9,871
244027,587888,535764,595249,562481,3117,3800,-2614,-217,-2818,3096,966,5709,45,9,871
245028,588116,535884,595446,562678,3406,3800,-2528,-169,-2877,2746,650,5753,59,31,869
246029,588324,536068,595643,562875,3527,3800,-2498,-107,-2967,3149,466,5565,59,31,869
247030,588604,536272,595840,563072,3041,3800,-2479,-94,-3100,3724,634,5376,65,46,871
248031,588856,536504,596037,563269,3194,3800,-2456,-8,-3173,3671,-160,6001,65,46,871
249032,589104,536772,596234,563466,3198,3800,-2337,19,-3265,3108,-766,5122,59,52,875
250033,589336,537080,596431,563663,3283,3800,-2068,-251,-3387,2140,-1781,4336,59,52,875
251034,589532,537420,596628,563860,3511,3800,-1716,-539,-3537,1848,-2208,4568,58,64,875
252035,589744,537748,596825,564057,3405,3800,-1381,-822,-3703,2454,-1971,4441,58,64,875
253036,589972,538076,597022,564254,3293,3800,-1111,-846,-3789,2458,-2059,5348,59,80,874
254037,590196,538460,597219,564451,3308,3800,-926,-500,-3793,1513,-2464,6554,59,80,874
255038,590372,538828,597416,564648,3618,3800,-656,-23,-3796,710,-2531,6515,38,75,874
256039,590572,539168,597613,564845,3469,3800,-328,461,-3808,368,-2356,6878,38,75,874
257040,590772,539512,597810,565042,3468,3800,-41,1018,-3841,990,-1309,7186,44,84,872
258041,590992,539872,598007,565239,3334,3800,244,1538,-3892,1803,-253,6656,44,84,872
259042,591220,540352,598204,565436,3273,3800,583,1717,-3972,2013,711,5463,58,82,874
260050,591464,540776,598434,565666,3167,3800,939,1643,-4008,2152,692,5237,58,82,874
261044,591696,541260,598631,565863,3228,3800,1229,1549,-3994,1898,216,5264,43,96,875
262045,591932,541760,598828,566060,3188,3800,1412,1526,-4049,1480,-181,5333,43,96,875
263046,592172,542248,599025,566257,3145,3800,1407,1636,-4369,2359,-657,5402,45,112,876
264047,592420,542784,599222,566454,3074,3800,1349,1561,-4468,2919,61,4671,45,112,876
265048,592652,543352,599419,566651,3159,3800,1360,1123,-4520,2957,818,3396,45,105,877
266049,592924,543904,599616,566848,2878,3800,1389,548,-4514,2718,758,3367,45,105,877
267050,593164,544484,599813,567045,3060,3800,1426,5,-4429,2546,804,3339,60,105,876
268051,593444,545072,600010,567242,2775,3800,1485,-487,-4269,2720,641,3344,60,105,876
269052,593736,545720,600207,567439,2660,3800,1559,-875,-4107,2826,661,3320,53,118,877
270053,593992,546416,600404,567636,2860,3800,1653,-1288,-3967,2710,658,3476,53,118,877
271054,594308,547180,600601,567833,2434,3800,1682,-1431,-3828,2629,408,4417,57,128,881
272055,594660,547892,600798,568030,2142,3800,1596,-1250,-3696,2365,-209,5218,57,128,881
273056,595000,548744,600995,568227,2155,3800,1460,-885,-3615,2142,-544,5498,77,142,883
274057,595364,549532,601192,568424,1933,3800,1346,-504,-3676,2459,-101,5180,77,142,883
275058,595780,550372,601389,568621,1513,3800,1259,-212,-3843,3110,441,4753,68,176,884
276046,596180,551344,601586,568818,1525,3461,1169,12,-4023,3468,775,4594,68,176,884
277060,596532,552156,601783,569015,1758,3800,1069,282,-4151,3465,516,4411,90,185,887
278048,596924,553056,601980,569212,1423,3338,1066,418,-4233,3167,318,3450,90,185,887
279049,597292,553964,602177,569409,1499,2979,1172,329,-4282,2969,24,2827,64,165,886
280050,597644,554824,602374,569606,1532,2990,1289,322,-4302,3080,-196,2957,64,165,886
281051,597964,555896,602571,569803,1678,1284,1349,542,-4273,3140,-646,3324,64,173,891
282052,598276,556824,602768,570000,1679,1865,1368,989,-4196,3009,-1097,3764,64,173,891
283053,598592,557668,602965,570197,1602,2108,1493,1312,-4235,2783,-387,2326,80,170,895
284054,598872,558472,603162,570394,1792,2094,1710,1415,-4518,2385,499,1717,80,170,895
285055,599184,559280,603359,570591,1542,1802,1901,1607,-4973,2215,899,2254,73,153,894
286056,599460,560100,603556,570788,1734,1456,2068,1939,-5347,2292,-483,2238,73,153,894
287057,599728,560900,603753,570985,1752,1318,2287,2243,-5648,2371,-1253,1451,58,160,895
288058,600032,561620,603950,571182,1481,1591,2574,2329,-5962,2367,-1236,610,58,160,895
289059,600264,562288,604147,571379,1917,1710,2830,2352,-6268,2685,-934,549,64,143,894
290060,600524,562896,604344,571576,1715,1906,3023,2397,-6504,2640,59,476,64,143,894
291061,600796,563528,604541,571773,1607,1567,3222,2418,-6682,2025,369,-63,48,113,893
292062,601072,564156,604738,571970,1549,1403,3377,2528,-6845,1768,189,91,48,113,893
293063,601300,564684,604935,572167,1836,1885,3349,2948,-6937,2050,100,1212,62,123,894
294064,601584,565288,605132,572364,1449,1232,3091,3787,-6945,2439,239,2348,62,123,894
295066,601844,565804,605329,572561,1571,1644,2717,4673,-7073,2360,1366,1612,43,106,893
296066,602080,566296,605526,572758,1705,1665,2348,5068,-7434,1862,2226,-152,43,106,893
297068,602352,566768,605723,572955,1448,1670,2069,4882,-7925,1557,2875,-1372,42,94,895
298068,602588,567204,605920,573152,1656,1791,1843,4262,-8442,1533,3337,-2280,42,94,895
299069,602848,567584,606117,573349,1479,2062,1533,3538,-8850,1839,3128,-2492,45,74,895
300070,603156,567916,606314,573546,1130,2305,1183,2905,-9077,2030,3289,-2294,45,74,895
301071,603416,568212,606511,573743,1404,2487,803,2388,-9093,2266,3576,-1745,54,56,892
302072,603680,568500,606708,573940,1350,2498,240,2138,-8818,2750,2788,-745,54,56,892
303073,603972,568768,606905,574137,1133,2593,-389,1931,-8411,2864,3373,-917,48,57,891
304074,604260,569008,607102,574334,1119,2750,-949,1504,-8039,2456,3733,-1832,48,57,891
305075,604512,569224,607299,574531,1320,2893,-1411,852,-7716,2148,3878,-2383,64,53,891
306076,604796,569396,607496,574728,1083,3180,-1972,305,-7335,2332,3507,-1661,64,53,891
307077,605052,569552,607693,574925,1232,3299,-3116,792,-6777,2714,1627,1919,62,42,889
308078,605264,569684,607890,575122,1502,3478,-4799,2188,-5843,3538,804,3594,62,42,889
309080,605448,569808,608087,575319,1682,3561,-6198,2893,-4429,3522,-287,299,37,21,885
310080,605608,569952,608284,575516,1849,3461,-6927,2122,-3065,2565,162,-2855,37,21,885
311082,605724,570076,608481,575713,2160,3619,-7214,651,-2118,2166,1521,-3446,48,18,882
312082,605884,570192,608678,575910,1902,3705,-7383,-697,-1663,2092,3419,-3043,48,18,882
313083,606088,570324,608875,576107,1624,3635,-7591,-1432,-1390,1862,3030,-1377,52,35,879
314084,606268,570496,609072,576304,1783,3397,-8076,-1360,-909,1187,1157,1407,52,35,879
315085,606452,570644,609269,576501,1763,3569,-8570,-872,-236,996,490,2050,51,26,882
316086,606620,570820,609466,576698,1877,3405,-8881,-448,458,1127,124,2353,51,26,882
317087,606800,570988,609663,576895,1811,3469,-9109,-163,1096,1084,-405,3073,51,29,881
318088,606952,571184,609860,577092,2005,3296,-9354,600,1653,850,-943,5023,51,29,881
319090,607132,571400,610057,577289,1839,3163,-9606,1690,2130,444,-1216,5648,29,43,883
320090,607284,571636,610254,577486,2034,3022,-9745,2678,2445,36,-1172,5233,29,43,883
321091,607428,571872,610451,577683,2108,3006,-9748,3531,2566,-240,-1666,5433,26,51,884
322092,607584,572128,610648,577880,2051,2856,-9692,4391,2506,-716,-2817,6062,26,51,884
323093,607744,572356,610845,578077,2043,3019,-9550,5321,2308,-1407,-3509,6018,29,51,883
324094,607888,572580,611042,578274,2167,3033,-9311,6044,1985,-2047,-2754,5563,29,51,883
325095,608060,572848,611239,578471,2004,2728,-9091,6807,1643,-2422,-3476,6312,37,62,885
326096,608212,573116,611436,578668,2149,2697,-8847,7737,1332,-2789,-5176,6714,37,62,885
327097,608356,573368,611633,578865,2223,2775,-8580,8713,1116,-3157,-6765,6965,36,44,886
328098,608536,573596,611830,579062,2006,2913,-8224,9389,986,-3516,-7815,6168,36,44,886
329099,608740,573800,612027,579259,1854,3060,-7758,9597,823,-3909,-8134,5093,48,40,885
330100,608904,574012,612224,579456,2118,3005,-7245,9427,562,-4384,-8054,4533,48,40,885
331101,609092,574256,612421,579653,1973,2785,-4966,11811,570,-5936,-11390,28917,33,54,885
332102,609272,574512,612618,579850,2031,2685,531,20379,1336,-8128,-15792,32767,33,54,885
333103,609444,574772,612815,580047,2093,2634,4809,24856,1623,-4544,-7066,19725,49,44,885
334104,609640,575028,613012,580244,1944,2634,5630,22775,1263,-2322,-3299,-2971,49,44,885
335105,609832,575244,613209,580441,1972,2876,4981,17700,894,-1558,-4134,-5521,33,48,886
336106,610024,575388,613406,580638,1975,3351,4479,12846,951,-1543,-5179,-5620,33,48,886
337107,610220,575500,613603,580835,1951,3589,4365,8804,1596,-2313,-5665,-4925,35,24,885
338108,610412,575600,613800,581032,1978,3708,4244,4309,2701,-4158,-5999,-5093,35,24,885
339109,610604,575760,613997,581229,1982,3350,3349,-71,4085,-4811,-7441,-1381,36,37,881
340110,610788,575932,614194,581426,2038,3287,2392,-4118,5143,-5526,-6637,-2265,36,37,881
341111,610984,576208,614391,581623,1964,2603,2067,-7728,5649,-5477,-4830,-1938,31,54,882
342112,611140,576516,614588,581820,2233,2355,2031,-10225,5917,-4457,-5022,1050,31,54,882
343122,611312,576896,614818,582050,2159,1840,2083,-11753,6064,-3853,-4719,2055,25,64,887
344114,611484,577244,615015,582247,2170,1975,1894,-12472,6156,-3694,-3849,4770,25,64,887
345115,611664,577596,615212,582444,2129,1883,1211,-11908,6240,-3762,-3118,8753,40,69,889
346116,611812,577964,615409,582641,2351,1709,667,-11068,6241,-4252,-2318,7770,40,69,889
347117,611992,578416,615606,582838,2159,1073,592,-10449,6015,-4460,-1036,7648,35,90,890
348118,612136,578852,615803,583035,2408,1068,680,-9587,5645,-4249,-383,9228,35,90,890
349119,612308,579244,616000,583232,2245,1258,695,-8298,5216,-3753,142,10517,49,92,893
350120,612476,579628,616197,583429,2283,1227,838,-6312,4803,-2621,207,14617,49,92,893
351121,612632,580040,616394,583626,2377,958,1272,-3543,4480,-1360,-768,19129,29,87,892
352122,612756,580512,616591,583823,2610,463,1565,-1406,4366,-1574,-1892,11631,29,87,892
353123,612912,580920,616788,584020,2428,771,1624,-301,4363,-1453,-1615,8753,21,97,892
354124,613052,581360,616985,584217,2554,465,1703,-43,4275,-1153,-559,6514,21,97,892
355125,613220,581828,617182,584414,2393,171,1926,-299,4029,-309,247,4870,38,75,891
356126,613388,582180,617379,584611,2406,829,2258,-814,3660,633,1148,3658,38,75,891
357127,613560,582600,617576,584808,2392,306,2637,-1666,3238,1288,1660,2500,30,79,893
358128,613728,583016,617773,585005,2431,236,2993,-2651,2792,1883,1795,2014,30,79,893
359129,613932,583400,617970,585202,2204,353,3322,-3756,2336,2444,1894,1364,33,72,893
360130,614120,583772,618167,585399,2309,351,3620,-4846,1925,3086,1787,1320,33,72,893
361132,614304,584112,618364,585596,2341,490,3861,-5780,1579,3671,1676,1715,51,62,895
362132,614472,584404,618561,585793,2453,748,4020,-6522,1268,4050,2209,2351,51,62,895
363133,614688,584688,618758,585990,2146,760,4143,-7056,798,3869,3218,2580,52,51,894
364134,614860,585040,618955,586187,2433,267,4221,-7383,168,3742,3656,3213,52,51,894
365135,615024,585252,619152,586384,2499,1136,4165,-7226,-441,3733,3610,4882,27,57,894
366136,615188,585472,619349,586581,2513,1076,3961,-6469,-832,3975,2995,6593,27,57,894
367137,615348,585580,619546,586778,2555,1815,3663,-5136,-940,4146,2032,7923,45,56,891
368138,615528,585852,619743,586975,2439,757,3397,-3712,-879,4032,1750,7777,45,56,891
369139,615736,586080,619940,587172,2260,1018,3261,-2361,-865,3440,2164,7416,39,59,889
370140,615916,586264,620137,587369,2443,1300,3169,-1000,-985,2705,2563,7497,39,59,889
371141,616084,586456,620334,587566,2531,1252,3090,356,-1178,2045,2588,7191,48,54,892
372142,616280,586660,620531,587763,2358,1174,3049,1641,-1348,1559,2197,6728,48,54,892
373143,616428,586840,620728,587960,2680,1332,3061,2777,-1511,886,2059,5826,24,39,891
374144,616604,587024,620925,588157,2515,1313,3103,3735,-1755,212,2141,5146,24,39,891
375145,616792,587192,621122,588354,2445,1426,3154,4451,-2091,-411,2307,4104,29,39,890
376146,616932,587336,621319,588551,2771,1599,3235,4898,-2469,-824,2281,3036,29,39,890
377147,617084,587452,621516,588748,2716,1810,3325,5074,-2813,-1006,2070,1975,26,34,888
378148,617272,587556,621713,588945,2496,1926,3389,4974,-3077,-1154,1730,1185,26,34,888
379149,617424,587684,621910,589142,2742,1807,3366,4778,-3280,-1322,1476,790,41,32,885
380150,617584,587804,622107,589339,2709,1891,3281,4496,-3459,-1691,1524,92,41,32,885
381151,617752,587924,622304,589536,2673,1925,3210,4029,-3648,-2056,1717,-579,29,19,887
382152,617916,588048,622501,589733,2713,1933,3138,3455,-3858,-2265,2080,-777,29,19,887
383153,618076,588144,622698,589930,2756,2152,3020,2962,-4052,-2273,2018,-479,42,36,886
384154,618268,588268,622895,590127,2558,2009,2886,2591,-4204,-2319,1835,-363,42,36,886
385155,618436,588400,623092,590324,2722,1989,2756,2268,-4272,-2230,1289,-144,41,23,885
386156,618604,588512,623289,590521,2735,2151,2590,2122,-4193,-1934,218,674,41,23,885
387157,618792,588660,623486,590718,2615,1948,2343,2283,-3897,-1725,-992,1766,27,30,886
388158,618956,588772,623683,590915,2781,2211,1939,2866,-3367,-1533,-2464,3382,27,30,886
389159,619120,588892,623880,591112,2796,2195,1367,3711,-2786,-1377,-2822,3999,32,33,886
390160,619284,589028,624077,591309,2812,2123,810,4342,-2377,-1400,-2074,3045,32,33,886
391161,619468,589160,624274,591506,2694,2176,407,4448,-2199,-1210,-1182,1584,26,43,884
392162,619632,589344,624471,591703,2834,1857,138,3933,-2172,-938,-628,-126,26,43,884
393164,619788,589496,624668,591900,2902,2078,-117,2970,-2191,-684,-367,-1126,38,27,884
394164,619984,589672,624865,592097,2653,1937,-457,1882,-2194,-255,-208,-1310,38,27,884
395166,620148,589812,625062,592294,2869,2188,-922,904,-2186,36,-223,-1030,23,43,884
396166,620328,589984,625259,592491,2777,1999,-1428,61,-2180,171,-284,-555,23,43,884
397168,620508,590136,625456,592688,2786,2145,-1909,-723,-2180,325,-337,-359,45,37,884
398169,620692,590292,625653,592885,2768,2138,-2329,-1411,-2152,540,-741,12,45,37,884
399169,620888,590440,625850,593082,2694,2211,-2707,-1952,-2063,476,-1365,632,39,46,884
400170,621104,590596,626047,593279,2562,2179,-3060,-2423,-1923,496,-1688,974,39,46,884
401172,621296,590772,626244,593476,2715,2064,-3399,-2791,-1760,509,-1850,1420,44,29,884
402172,621452,590932,626441,593673,2959,2180,-3721,-3027,-1578,346,-1935,1995,44,29,884
403173,621652,591080,626638,593870,2684,2278,-4021,-3147,-1430,176,-1688,2425,49,47,886
404174,621816,591256,626835,594067,2924,2112,-4246,-3263,-1357,42,-1287,2560,49,47,886
405176,621996,591408,627032,594264,2833,2283,-4386,-3294,-1303,48,-1518,3032,48,33,885
406176,622168,591560,627229,594461,2895,2302,-4492,-3242,-1227,65,-1917,3428,48,33,885
407178,622336,591712,627426,594658,2933,2323,-4564,-3084,-1111,192,-1850,3741,27,32,884
408178,622484,591872,627623,594855,3081,2289,-4570,-2984,-990,319,-1349,3680,27,32,884
409180,622636,592020,627820,595052,3077,2387,-4499,-2989,-903,471,-909,3416,41,43,883
410180,622776,592196,628017,595249,3178,2222,-4377,-3125,-875,468,-368,3163,41,43,883
411181,622920,592352,628214,595446,3177,2365,-4208,-3350,-911,421,130,2968,20,47,881
412182,623064,592524,628411,595643,3201,2277,-4004,-3702,-962,591,203,2952,20,47,881
413183,623212,592660,628608,595840,3199,2529,-3769,-4009,-960,745,-375,3044,32,40,881
414184,623368,592820,628805,596037,3168,2396,-3533,-4318,-850,988,-1125,3224,32,40,881
415185,623504,592992,629002,596234,3321,2333,-3316,-4541,-640,1252,-1600,3629,35,31,880
416186,623660,593164,629199,596431,3215,2344,-3125,-4733,-417,1441,-1349,3868,35,31,880
417187,623808,593348,629396,596628,3287,2276,-2928,-4897,-271,1530,-768,3929,39,42,880
418188,623944,593524,629593,596825,3390,2335,-2711,-5066,-237,1580,27,4206,39,42,880
419189,624076,593668,629790,597022,3445,2559,-2516,-5043,-367,1537,1094,4918,16,39,881
420190,624232,593820,629987,597219,3314,2530,-2384,-4890,-594,1761,1544,5569,16,39,881
421191,624440,593992,630184,597416,2985,2416,-2321,-4492,-780,2055,1179,6278,37,35,877
422192,624632,594132,630381,597613,3088,2642,-2296,-4046,-874,2341,1072,6274,37,35,877
423193,624836,594352,630578,597810,3011,2133,-2105,-3353,-913,2715,940,8429,42,37,880
424194,625100,594524,630775,598007,2607,2444,-447,286,-1051,5378,1374,32767,42,37,880
425195,625384,594728,630972,598204,2446,2242,1754,4556,-1206,4421,978,27773,42,45,883
426203,625628,594920,631202,598434,2691,2335,2513,5573,-1300,3110,1352,4552,42,45,883
427197,625880,595120,631399,598631,2618,2283,2291,3980,-1387,3073,1644,1761,42,48,886
428198,626168,595340,631596,598828,2354,2149,1998,1802,-1497,3264,1362,728,42,48,886
429199,626444,595540,631793,599025,2395,2274,1909,299,-1561,2799,874,1356,47,54,885
430201,626716,595740,631990,599222,2388,2273,1966,-1030,-1650,2030,973,652,47,54,885
431201,627012,595916,632187,599419,2196,2433,1959,-2226,-1831,1779,925,1250,51,35,886
432202,627288,596092,632384,599616,2287,2443,1876,-3273,-1967,1552,770,1737,51,35,886
433203,627588,596280,632581,599813,2093,2372,1700,-4032,-1987,1286,263,3160,53,46,886
434204,627888,596464,632778,600010,2048,2404,1449,-4262,-1938,954,-375,4324,53,46,886
435205,628176,596636,632975,600207,2084,2491,1197,-4336,-1796,368,-866,4902,62,37,887
436206,628464,596792,633172,600404,2045,2609,970,-3995,-1607,-39,-1064,6061,62,37,887
437207,628764,596984,633369,600601,1925,2387,778,-3583,-1444,-382,-1149,6045,56,46,886
438208,629024,597128,633566,600798,2148,2711,650,-3126,-1322,-800,-850,6438,56,46,886
439209,629268,597304,633763,600995,2229,2521,601,-2655,-1239,-1009,-473,6193,59,26,888
440210,629536,597436,633960,601192,2049,2825,634,-2392,-1164,-1200,-457,5611,59,26,888
441211,629780,597556,634157,601389,2179,2935,716,-2073,-1066,-1406,-173,5952,37,24,885
442212,630052,597692,634354,601586,1972,2863,847,-1852,-999,-1589,332,5369,37,24,885
443213,630288,597808,634551,601783,2181,3023,997,-1641,-991,-1370,565,5526,33,35,883
444214,630500,597940,634748,601980,2324,2953,1151,-1360,-994,-1129,753,5501,33,35,883
445215,630712,598052,634945,602177,2319,3116,1297,-1196,-1025,-1111,1115,4873,55,22,882
446216,630952,598196,635142,602374,2126,2941,1405,-1230,-1112,-1003,1361,4415,55,22,882
447217,631184,598316,635339,602571,2161,3124,1476,-1393,-1208,-814,1558,4028,52,24,881
448218,631420,598436,635536,602768,2120,3159,1506,-1561,-1283,-526,1444,3925,52,24,881
449219,631644,598540,635733,602965,2183,3301,1503,-1774,-1330,-286,837,3544,56,29,882
450220,631876,598672,635930,603162,2119,3156,1488,-2160,-1361,-180,429,3243,56,29,882
451221,632088,598788,636127,603359,2238,3292,1467,-2546,-1412,-60,238,3075,42,22,881
452222,632312,598876,636324,603556,2153,3516,1418,-2929,-1467,13,-109,3065,42,22,881
453224,632548,598980,636521,603753,2060,3458,1333,-3170,-1458,211,-268,3552,35,32,880
454224,632780,599068,636718,603950,2071,3606,1198,-3380,-1389,705,-152,3625,35,32,880
455225,633016,599168,636915,604147,2030,3575,1034,-3511,-1336,1209,380,3665,55,33,879
456226,633260,599284,637112,604344,1960,3511,856,-3571,-1372,1428,1136,3880,55,33,879
457227,633488,599372,637309,604541,2047,3735,630,-3553,-1453,1644,1120,4207,47,34,878
458228,633708,599464,637506,604738,2088,3757,341,-3357,-1498,1981,759,4809,47,34,878
459242,633980,599556,637703,604935,1731,3800,27,-3021,-1460,2125,631,5074,50,13,879
460243,634224,599628,637900,605132,1886,3800,-251,-2734,-1441,1894,604,4715,50,13,879
461244,634464,599712,638097,605329,1892,3800,-491,-2520,-1451,1529,229,4709,60,8,878
462245,634740,599768,638294,605526,1633,3800,-691,-2298,-1414,1187,-106,4714,60,8,878
463246,635004,599808,638491,605723,1680,3800,-845,-2131,-1334,932,-334,4501,54,22,878
464247,635236,599860,638688,605920,1864,3800,-926,-2011,-1267,580,-543,4164,54,22,878
465248,635500,599908,638885,606117,1636,3800,-939,-2023,-1223,177,-804,3820,63,20,879
466249,635744,599960,639082,606314,1741,3800,-881,-2204,-1179,22,-1008,3273,63,20,879
467250,635992,600036,639279,606511,1694,3800,-755,-2514,-1095,-58,-1112,2914,45,24,877
468251,636232,600072,639476,606708,1726,3800,-587,-2791,-979,-276,-1187,2973,45,24,877
469252,636476,600112,639673,606905,1680,3800,-391,-2972,-833,-581,-1536,3193,62,20,878
470253,636720,600172,639870,607102,1661,3800,-210,-2941,-615,-964,-2210,3980,62,20,878
471254,636996,600212,640067,607299,1427,3800,-55,-2623,-338,-1495,-2344,4894,59,6,876
472255,637224,600288,640264,607496,1713,3800,71,-2108,-40,-2035,-2233,5578,59,6,876
473256,637456,600360,640461,607693,1674,3800,235,-1551,236,-2369,-1925,5674,58,15,879
474257,637676,600428,640658,607890,1739,3800,429,-1068,454,-2384,-1224,5506,58,15,879
475258,637908,600476,640855,608087,1650,3800,668,-722,598,-1876,-415,5014,57,7,879
476259,638104,600536,641052,608284,1876,3800,928,-589,676,-1058,235,4187,57,7,879
477260,638300,600592,641249,608481,1876,3800,1183,-624,748,-469,164,3847,51,22,878
478261,638508,600672,641446,608678,1798,3800,1410,-703,858,-293,-116,3830,51,22,878
479262,638696,600732,641643,608875,1927,3800,1590,-782,992,-385,-333,3981,43,18,878
480263,638864,600784,641840,609072,2065,3800,1744,-780,1127,-446,-326,4152,43,18,878
481264,639052,600856,642037,609269,1944,3800,1857,-754,1239,-348,-179,4219,49,18,879
482265,639204,600920,642234,609466,2190,3800,1927,-726,1292,27,43,4197,49,18,879
483266,639376,600968,642431,609663,2076,3800,1962,-767,1269,500,401,3864,33,16,877
484267,639528,601024,642628,609860,2222,3800,1944,-843,1207,915,370,3844,33,16,877
485268,639668,601028,642825,610057,2323,3800,1858,-841,1171,1112,-91,4094,22,-3,876
486269,639792,601024,643022,610254,2455,3800,1742,-788,1167,928,-390,4180,22,-3,876
487270,639924,601036,643219,610451,2434,3800,1609,-697,1170,730,-707,4265,37,3,876
488271,640036,601028,643416,610648,2597,3800,1474,-652,1146,706,-766,4032,37,3,876
489272,640140,601028,643613,610845,2689,3800,1358,-656,1072,905,-501,3759,36,5,873
490273,640232,601036,643810,611042,2811,3800,1268,-713,951,1037,-396,3545,36,5,873
491274,640324,601044,644007,611239,2857,3800,1197,-825,804,1070,-341,3316,30,-4,874
492275,640392,601040,644204,611436,3065,3800,1141,-964,632,1089,-184,3232,30,-4,874
493276,640508,601048,644401,611633,2801,3800,1092,-1065,434,917,21,3234,12,2,872
494277,640656,601036,644598,611830,2624,3800,1031,-1125,203,657,14,3464,12,2,872
495278,640764,601036,644795,612027,2913,3800,961,-1078,-20,303,-359,3591,35,-4,871
496279,640900,601060,644992,612224,2766,3800,880,-1025,-204,-225,-654,3678,35,-4,871
497280,641036,601040,645189,612421,2794,3800,798,-852,-323,-857,-920,3948,22,4,874
498281,641140,601056,645386,612618,3035,3800,727,-707,-348,-1282,-1107,3779,22,4,874
499281,641240,601044,645583,612815,3104,3800,699,-721,-302,-1182,-1011,3150,23,-4,872
500283,641308,601052,645780,613012,3361,3800,702,-885,-236,-667,-697,2669,23,-4,872
501284,641376,601056,645977,613209,3418,3800,716,-1118,-161,-234,-525,2414,28,3,871
502285,641420,601040,646174,613406,3637,3800,712,-1279,-46,-221,-805,2823,28,3,871
503286,641464,601056,646371,613603,3705,3800,678,-1271,127,-433,-1164,3276,8,6,869
504287,641516,601056,646568,613800,3720,3800,620,-1118,295,-380,-951,3559,8,6,869
505300,641564,601048,646765,613997,3800,3800,572,-958,383,-131,-468,3293,16,13,867
506289,641636,601052,646962,614194,3717,3800,536,-875,392,-64,-231,3169,16,13,867
507290,641748,601048,647159,614391,3505,3800,502,-790,361,-46,-77,3327,25,-2,867
508291,641888,601060,647356,614588,3356,3800,459,-576,313,-42,-109,3604,25,-2,867
509299,642064,601064,647586,614818,3156,3800,388,-231,275,-240,-203,4026,27,10,867
510293,642260,601068,647783,615015,3033,3800,321,121,239,-454,-101,3874,27,10,867
511294,642420,601060,647980,615212,3275,3800,266,446,177,-584,-121,3928,42,-2,870
512295,642572,601072,648177,615409,3346,3800,208,782,146,-629,-213,4097,42,-2,870
513296,642680,601076,648374,615606,3661,3800,186,893,136,-358,404,3371,24,-4,872
514297,642776,601072,648571,615803,3781,3800,171,932,101,62,824,3170,24,-4,872
515298,642892,601072,648768,616000,3693,3800,139,830,50,457,1008,2734,22,7,870
516299,643028,601076,648965,616197,3597,3800,100,662,-3,757,962,2509,22,7,870
517300,643192,601088,649162,616394,3437,3800,48,457,-31,781,604,2554,24,12,867
518301,643396,601084,649359,616591,3185,3800,-40,280,-10,666,180,2782,24,12,867
519302,643600,601080,649556,616788,3183,3800,-174,245,38,793,15,3209,44,2,869
520303,643776,601088,649753,616985,3368,3800,-327,296,89,626,-336,3282,44,2,869
521304,643900,601100,649950,617182,3726,3800,-493,341,161,547,-624,3394,30,0,870
522317,643984,601092,650147,617379,3800,3800,-659,298,224,823,-440,3194,30,0,870
523318,644052,601092,650344,617576,3800,3800,-846,237,254,1219,-343,3378,20,6,869
524320,644132,601076,650541,617773,3800,3800,-1022,161,243,1577,-132,3031,20,6,869
525321,644224,601096,650738,617970,3800,3800,-1174,-1,195,1677,-160,2947,10,12,865
526322,644336,601096,650935,618167,3800,3800,-1344,-71,129,1465,-438,3450,10,12,865
527310,644492,601104,651132,618364,3792,3800,-1537,-3,80,1249,-737,3882,27,9,866
528311,644656,601092,651329,618561,3759,3800,-1701,100,36,1436,-415,3743,27,9,866
529312,644844,601092,651526,618758,3614,3800,-1802,-5,-32,1540,16,3147,48,13,867
530326,645000,601092,651723,618955,3800,3800,-1896,-110,-82,1424,-432,3700,48,13,867
531327,645128,601100,651920,619152,3800,3800,-1990,-202,-86,1273,-589,3589,37,-1,867
532328,645204,601104,652117,619349,3800,3800,-2056,-400,-88,1099,-567,3441,37,-1,867
533329,645268,601120,652314,619546,3800,3800,-2080,-575,-117,1257,-415,3351,8,9,866
534330,645356,601108,652511,619743,3800,3800,-2040,-949,-150,1793,-36,2729,8,9,866
535331,645436,601120,652708,619940,3800,3800,-1993,-1233,-202,2035,163,3162,18,13,865
536332,645524,601112,652905,620137,3800,3800,-1956,-1500,-263,1666,49,3402,18,13,865
537333,645656,601112,653102,620334,3800,3800,-1926,-1604,-284,1448,-244,4020,22,11,866
538334,645808,601120,653299,620531,3800,3800,-1900,-1546,-269,1617,-75,4366,22,11,866
539335,645964,601116,653496,620728,3800,3800,-1847,-1461,-285,1667,235,4378,23,5,867
540336,646144,601140,653693,620925,3800,3800,-1807,-1251,-371,1371,-93,4989,23,5,867
541337,646280,601136,653890,621122,3800,3800,-1753,-1073,-449,816,-863,4761,28,6,867
542338,646400,601152,654087,621319,3800,3800,-1675,-995,-469,501,-1419,5015,28,6,867
543339,646512,601156,654284,621516,3800,3800,-1592,-708,-454,323,-2039,5600,27,1,866
544339,646604,601164,654481,621713,3800,3800,-1472,-555,-464,402,-1925,4892,27,1,866
545341,646712,601156,654678,621910,3800,3800,-1314,-497,-569,755,-1475,4673,32,10,866
546342,646880,601160,654875,622107,3800,3800,-1128,-521,-708,1109,-1317,4598,32,10,866
547342,647076,601168,655072,622304,3800,3800,-944,-508,-799,1310,-1184,4989,27,13,867
548343,647268,601176,655269,622501,3800,3800,-774,-420,-867,1396,-898,5173,27,13,867
549345,647496,601192,655466,622698,3800,3800,-616,-354,-976,1588,-479,5136,51,14,868
550346,647668,601184,655663,622895,3800,3800,-450,-305,-1094,1868,-59,5028,51,14,868
551347,647816,601188,655860,623092,3800,3800,-262,-462,-1223,2007,494,4584,39,14,867
552347,647956,601176,656057,623289,3800,3800,-124,-449,-1360,2084,480,5548,39,14,867
553349,648068,601196,656254,623486,3800,3800,-37,-255,-1485,2531,849,5659,35,15,867
554349,648204,601204,656451,623683,3800,3800,59,-81,-1577,3021,1252,5339,35,15,867
555350,648364,601208,656648,623880,3800,3800,179,-15,-1682,3100,1688,5264,35,12,865
556351,648524,601212,656845,624077,3800,3800,295,39,-1796,2719,1568,5483,35,12,865
557353,648692,601220,657042,624274,3800,3800,351,233,-1878,2519,1340,6123,33,12,866
558354,648864,601212,657239,624471,3800,3800,380,609,-1916,2565,1461,6222,33,12,866
559355,648976,601232,657436,624668,3800,3800,415,916,-1954,2530,1925,6168,23,2,867
560356,649052,601232,657633,624865,3800,3800,395,1279,-1999,2547,2059,6593,23,2,867
561357,649124,601248,657830,625062,3800,3800,349,1605,-2067,2556,2153,6399,25,10,866
562358,649204,601248,658027,625259,3800,3800,269,2066,-2183,2451,2246,6634,25,10,866
563359,649300,601316,658224,625456,3800,3800,159,2451,-2315,2299,2306,6175,26,7,866
564360,649428,601436,658421,625653,3800,3800,89,2632,-2415,2223,2398,5534,26,7,866
565361,649600,601628,658618,625850,3800,3800,68,2740,-2469,1961,2046,5424,25,30,866
566362,649748,601848,658815,626047,3800,3800,54,2741,-2448,1611,838,4923,25,30,866
567363,649956,602084,659012,626244,3800,3800,100,2383,-2406,1661,480,3668,33,49,867
568363,650184,602356,659209,626441,3800,3800,151,1882,-2451,1811,-57,3472,33,49,867
569365,650392,602704,659406,626638,3800,3800,219,1202,-2600,1925,-483,2789,61,81,870
570366,650620,603116,659603,626835,3800,3800,266,737,-2769,1384,-1816,3307,61,81,870
571367,650836,603524,659800,627032,3800,3800,294,466,-2928,635,-2685,3747,32,82,871
572367,651072,603992,659997,627229,3800,3800,317,231,-3140,875,-2580,3895,32,82,871
573369,651300,604436,660194,627426,3800,3800,274,335,-3425,1383,-1500,4783,48,95,871
574357,651628,604864,660391,627623,3722,3800,199,665,-3595,1030,-2451,5427,48,95,871
575371,651928,605300,660588,627820,3800,3800,195,1060,-3648,415,-2466,5339,66,92,872
576372,652200,605828,660785,628017,3800,3800,308,1150,-3677,-91,-1875,4577,66,92,872
577360,652516,606272,660982,628214,3672,3800,463,1209,-3759,143,-1079,4737,56,100,871
578361,652832,606792,661179,628411,3622,3800,680,1147,-3886,1305,181,3615,56,100,871
579362,653156,607324,661376,628608,3518,3800,993,672,-4000,1606,480,2475,80,113,872
580363,653544,607840,661573,628805,3035,3800,1273,295,-4112,1382,273,3647,80,113,872
581364,653852,608476,661770,629002,3488,3800,1481,109,-4238,980,-243,3639,65,103,874
582365,654204,609016,661967,629199,3146,3800,1696,28,-4448,767,9,3609,65,103,874
583366,654540,609636,662164,629396,3187,3800,1942,-98,-4753,739,1091,3294,90,112,877
584367,654932,610296,662361,629593,2752,3800,2099,-242,-5045,1223,1512,3625,90,112,877
585368,655268,610960,662558,629790,3042,3800,2134,-156,-5164,1446,693,4248,68,127,877
586369,655644,611668,662755,629987,2715,3800,2162,-102,-5137,1309,274,3712,68,127,877
587370,655968,612508,662952,630184,2986,3800,2260,-225,-5104,1416,644,3021,80,151,879
588370,656296,613268,663149,630381,2905,3800,2395,-450,-5104,1501,1055,3053,80,151,879
589359,656604,614204,663346,630578,2982,3751,2459,-524,-5125,1568,970,3517,73,159,879
590373,656956,615072,663543,630775,2640,3800,2503,-573,-5126,1601,577,3007,73,159,879
591361,657280,615984,663740,630972,2760,3298,2572,-800,-5123,1748,594,2444,63,174,880
592369,657596,617060,663970,631202,2775,1904,2604,-993,-5117,2193,489,2763,63,174,880
593363,657924,617952,664167,631399,2643,2752,2580,-1171,-5111,2342,428,2577,68,196,883
594364,658216,618868,664364,631596,2827,2288,2539,-1420,-5088,2572,244,2193,68,196,883
595365,658500,619816,664561,631793,2840,1761,2509,-1645,-5049,3029,320,2093,58,168,888
596366,658832,620672,664758,631990,2482,2048,2473,-1890,-5064,3227,573,1689,58,168,888
597367,659112,621580,664955,632187,2771,1413,2454,-2170,-5138,3272,500,1571,74,164,887
598368,659452,622552,665152,632384,2335,674,2466,-2418,-5203,3303,364,1656,74,164,887
599369,659820,623280,665349,632581,2086,1968,2413,-2286,-5149,3459,-315,2933,83,160,889
600370,660180,624080,665546,632778,2066,1255,2180,-1575,-4974,3462,-1118,4390,83,160,889
601371,660520,624784,665743,632975,2129,1633,1953,-788,-4845,3560,140,3382,62,146,893
602372,660900,625492,665940,633172,1799,1386,1789,-128,-4855,3272,761,3404,62,146,893
603373,661232,626132,666137,633369,2041,1617,1652,545,-4891,3405,359,3761,77,135,893
604374,661548,626840,666334,633566,2090,969,1463,1503,-4914,3764,614,4214,77,135,893
605375,661892,627348,666531,633763,1851,2084,1236,2498,-4951,3974,1127,3835,71,124,894
606376,662212,627948,666728,633960,1947,1332,1043,3217,-5126,3655,1763,2752,71,124,894
607377,662604,628412,666925,634157,1412,2066,934,3691,-5473,3288,2243,1915,64,118,893
608378,663016,628924,667122,634354,1194,1630,840,3979,-5927,3312,2786,1236,64,118,893
609379,663436,629372,667319,634551,1047,1920,645,4307,-6347,3526,2560,1555,68,103,893
610380,663736,629852,667516,634748,1753,1597,360,4717,-6760,3214,2574,1364,68,103,893
611381,664116,630252,667713,634945,1172,2008,51,4940,-7259,2972,2730,568,70,99,894
612382,664552,630664,667910,635142,718,1839,-287,5043,-7769,3115,2505,393,70,99,894
613383,664872,631044,668107,635339,1390,1960,-681,5108,-8268,3245,2936,-12,76,84,893
614384,665224,631380,668304,635536,1122,2175,-1047,4771,-8756,3163,3063,-1701,76,84,893
615385,665588,631620,668501,635733,975,2757,-1301,3939,-9144,3232,2711,-2959,76,72,895
616386,665864,631904,668698,635930,1490,2445,-1506,2957,-9373,3239,2329,-2883,76,72,895
617387,666144,632188,668895,636127,1429,2407,-1707,2101,-9412,3297,1638,-2358,57,55,892
618388,666436,632424,669092,636324,1314,2690,-1907,1580,-9190,3390,1163,-1423,57,55,892
619389,666712,632656,669289,636521,1379,2701,-2140,1370,-8654,3390,884,-717,67,62,889
620390,667000,632924,669486,636718,1265,2446,-2389,1305,-8012,2885,1338,-427,67,62,889
621391,667284,633180,669683,636915,1252,2495,-2710,1248,-7480,2041,1420,-131,41,55,887
622392,667532,633432,669880,637112,1454,2497,-3130,1253,-7106,1335,1328,92,41,55,887
623393,667764,633660,670077,637309,1540,2634,-3628,1444,-6844,875,1523,677,61,57,890
624394,668040,633912,670274,637506,1230,2460,-4186,1622,-6605,534,1816,304,61,57,890
625395,668244,634172,670471,637703,1678,2383,-4790,1691,-6314,510,1581,152,46,60,889
626396,668484,634380,670668,637900,1434,2704,-5410,1727,-6017,706,1775,90,46,60,889
627397,668752,634628,670865,638097,1229,2432,-6115,1786,-5758,767,1757,543,53,44,890
628398,668964,634848,671062,638294,1572,2598,-7358,2767,-5402,662,-198,4235,53,44,890
629399,669160,635044,671259,638491,1673,2749,-8528,3379,-4994,350,-84,1014,35,38,888
630400,669376,635224,671456,638688,1541,2857,-9156,3042,-4726,485,858,-747,35,38,888
631401,669536,635376,671653,638885,1907,3053,-9565,2216,-4456,766,316,-827,38,27,886
632402,669732,635524,671850,639082,1683,3100,-9941,1427,-4073,1037,-314,-722,38,27,886
633403,669912,635664,672047,639279,1791,3175,-10352,805,-3547,1031,-1300,-273,26,32,885
634404,670108,635796,672244,639476,1691,3255,-10734,188,-2913,923,-2240,-153,26,32,885
635405,670284,635952,672441,639673,1826,3124,-11059,-451,-2261,980,-2979,58,47,27,884
636406,670440,636100,672638,639870,1969,3196,-11257,-1173,-1637,1082,-3379,114,47,27,884
637407,670608,636248,672835,640067,1908,3218,-11362,-1928,-1044,1079,-3694,418,43,34,883
638408,670760,636412,673032,640264,2028,3133,-11481,-2420,-488,918,-4386,1875,43,34,883
639409,670904,636572,673229,640461,2101,3176,-11503,-2638,52,497,-5132,2495,44,31,882
640410,671048,636720,673426,640658,2126,3272,-11333,-2771,582,146,-5724,3050,44,31,882
641411,671196,636912,673623,640855,2122,3000,-10976,-2634,1089,-234,-6290,4304,30,43,882
642412,671296,637096,673820,641052,2466,3057,-10521,-2193,1557,-771,-6276,5852,30,43,882
643413,671520,637292,674017,641249,1679,2983,-9940,-1323,1987,-1352,-5840,7295,46,34,880
644414,671736,637484,674214,641446,1721,3011,-9263,-166,2369,-1885,-5004,8523,46,34,880
645415,671936,637696,674411,641643,1820,2880,-5568,5893,2960,-1609,-5678,32767,55,40,881
646416,672140,637928,674608,641840,1793,2741,3165,23334,4134,-1768,-7603,32767,55,40,881
647417,672340,638140,674805,642037,1817,2860,9140,32693,4802,517,-2601,21049,49,48,885
648418,672524,638372,675002,642234,1923,2720,9916,31588,4557,1355,1585,-1150,49,48,885
649419,672740,638624,675199,642431,1715,2571,8815,25799,3832,1826,2359,-5400,35,51,887
650420,672944,638876,675396,642628,1788,2548,8182,20905,3189,2158,1720,-5324,35,51,887
651421,673128,639124,675593,642825,1919,2552,8110,17964,3027,1615,1102,-3793,35,42,886
652422,673352,639396,675790,643022,1658,2369,8085,15635,3194,1923,-209,-3680,35,42,886
653423,673540,639652,675987,643219,1887,2444,7789,13372,3371,1439,-426,-3136,53,55,886
654424,673736,639968,676184,643416,1837,2018,7444,10740,3453,-18,514,-3144,53,55,886
655426,673948,640288,676381,643613,1732,1939,7022,8052,3328,-721,360,-2859,36,55,888
656427,674132,640636,676578,643810,1912,1698,6625,5080,3033,-2062,-183,-3765,36,55,888
657428,674332,640904,676775,644007,1812,2168,6364,2040,2644,-3732,720,-3380,39,55,890
658428,674552,641132,676972,644204,1677,2405,5945,-652,2272,-4686,117,-1662,39,55,890
659430,674736,641364,677169,644401,1909,2365,4625,-1609,2133,-5041,-1891,4279,56,55,891
660430,674916,641636,677366,644598,1941,2082,2235,-898,2156,-5585,-2642,7961,56,55,891
661432,675128,641932,677563,644795,1736,1890,11,-88,2000,-6369,-1873,6000,36,56,889
662432,675320,642312,677760,644992,1863,1284,-1000,-916,1761,-6739,-1871,970,36,56,889
663434,675504,642824,677957,645189,1919,322,-937,-3058,1649,-6584,-2564,-1152,48,72,888
664435,675700,643136,678154,645386,1845,1521,-699,-5269,1792,-6140,-3663,-440,48,72,888
665436,675908,643432,678351,645583,1766,1579,-758,-6598,2182,-5745,-4454,1306,52,79,892
666436,676108,643776,678548,645780,1815,1214,-1140,-6873,2730,-5299,-5081,3997,52,79,892
667438,676288,644188,678745,645977,1948,696,-1559,-6549,3345,-4696,-5054,4919,59,91,892
668438,676508,644564,678942,646174,1688,842,-1843,-6374,3892,-4434,-4622,4300,59,91,892
669440,676684,644932,679139,646371,1972,817,-1954,-6538,4286,-4288,-4266,4043,35,76,893
670441,676860,645288,679336,646568,1983,823,-1918,-6699,4499,-3968,-3876,4277,35,76,893
671442,677044,645632,679533,646765,1938,833,-1803,-6855,4547,-3715,-3656,3834,42,63,895
672443,677216,645996,679730,646962,2025,635,-1743,-7058,4478,-3268,-3298,3751,42,63,895
673444,677348,646320,679927,647159,2304,829,-1674,-7199,4320,-2519,-2631,4236,42,83,894
674445,677508,646708,680124,647356,2146,345,-1542,-7186,4071,-1786,-1664,4593,42,83,894
675455,677644,647108,680354,647586,2337,196,-1299,-7205,3769,-1136,-1057,4015,42,76,893
676447,677804,647472,680551,647783,2205,348,-957,-7353,3462,-492,-625,3652,42,76,893
677448,677988,647772,680748,647980,2060,703,-610,-7505,3151,279,15,3958,34,60,893
678448,678160,648100,680945,648177,2147,470,-269,-7660,2799,951,651,3963,34,60,893
679449,678344,648464,681142,648374,2078,172,59,-7816,2395,1529,949,3813,31,66,894
680450,678556,648796,681339,648571,1897,313,428,-7987,1992,2075,896,3842,31,66,894
681451,678760,649148,681536,648768,1944,120,797,-8102,1608,2638,1107,3899,40,66,894
682452,678956,649388,681733,648965,1996,801,1132,-8187,1178,3030,1839,3851,40,66,894
683453,679164,649660,681930,649162,1917,567,1400,-8236,680,3308,2333,3779,34,55,896
684454,679360,649908,682127,649359,1992,694,1628,-8137,196,3750,2023,4122,34,55,896
685455,679556,650168,682324,649556,1994,592,1814,-7927,-198,4069,1405,4478,49,52,894
686456,679768,650420,682521,649753,1887,617,2007,-7590,-484,4069,1057,4586,49,52,894
687457,679936,650628,682718,649950,2176,888,2169,-7044,-724,3798,829,5111,53,53,894
688459,680124,650820,682915,650147,2055,990,2281,-6234,-929,3649,598,5996,53,53,894
689459,680316,650972,683112,650344,2033,1260,2239,-4831,-1075,3793,454,7957,50,42,895
690460,680484,651140,683309,650541,2196,1172,2013,-2868,-1044,4003,-319,9046,50,42,895
691461,680652,651276,683506,650738,2210,1398,1809,-900,-1082,3743,578,8333,43,45,893
692462,680796,651440,683703,650935,2383,1238,1723,845,-1266,3288,630,7725,43,45,893
693464,680952,651628,683900,651132,2327,1092,1704,2276,-1537,2783,392,6840,31,38,891
694464,681108,651808,684097,651329,2345,1149,1730,3392,-1880,2362,354,5607,31,38,891
695465,681264,651980,684294,651526,2364,1210,1820,4313,-2130,2136,-591,4970,31,37,890
696466,681444,652156,684491,651723,2223,1194,1959,5024,-2298,1765,-516,4078,31,37,890
697468,681588,652316,684688,651920,2471,1310,2125,5493,-2604,988,70,3376,39,39,890
698468,681736,652444,684885,652117,2468,1541,2267,5725,-3089,160,24,2519,39,39,890
699469,681896,652596,685082,652314,2410,1411,2367,5702,-3709,-442,274,1579,40,25,890
700470,682056,652724,685279,652511,2427,1591,2469,5406,-4287,-800,-506,533,40,25,890
701471,682212,652848,685476,652708,2471,1648,2605,4885,-4679,-857,-1879,-121,26,36,889
702472,682352,652952,685673,652905,2596,1814,2791,4141,-4955,-1058,-2284,-984,26,36,889
703473,682512,653056,685870,653102,2488,1855,2978,3259,-5150,-1250,-2189,-1191,36,33,888
704475,682652,653172,686067,653299,2638,1815,3058,2571,-5254,-1377,-1617,-580,36,33,888
705475,682840,653276,686264,653496,2343,1931,2982,2202,-5189,-1472,-1946,573,42,20,886
706476,683004,653396,686461,653693,2509,1865,2806,2212,-5014,-1728,-2007,1572,42,20,886
707477,683164,653548,686658,653890,2550,1685,2612,2293,-4878,-2131,-1339,1397,26,32,886
708478,683340,653644,686855,654087,2460,2079,2484,2060,-4792,-2273,-333,413,26,32,886
709480,683512,653788,687052,654284,2497,1802,2398,1581,-4649,-2122,50,387,42,20,886
710480,683692,653932,687249,654481,2455,1826,2262,1285,-4336,-1716,32,1339,42,20,886
711481,683900,654052,687446,654678,2276,2010,2012,1470,-3793,-1367,-289,2915,39,25,886
712482,684084,654200,687643,654875,2433,1856,1646,2068,-3130,-1321,-393,3796,39,25,886
713483,684248,654332,687840,655072,2572,1985,1211,2759,-2532,-1306,408,4138,44,37,887
714484,684456,654464,688037,655269,2293,2013,621,3699,-2094,-894,1915,5413,44,37,887
715485,684620,654580,688234,655466,2584,2150,-75,4567,-1823,-706,2979,4849,27,37,887
716486,684800,654720,688431,655663,2491,2025,-698,4952,-1724,-693,3174,3468,27,37,887
717487,684960,654856,688628,655860,2633,2077,-1090,4692,-1701,-672,2782,1813,46,29,887
718488,685168,655020,688825,656057,2330,1916,-1449,4208,-1696,-197,3028,2090,46,29,887
719489,685336,655148,689022,656254,2593,2172,-1916,3816,-1719,445,3635,2110,25,26,885
720491,685488,655284,689219,656451,2713,2149,-2438,3338,-1747,929,3704,1687,25,26,885
721492,685664,655408,689416,656648,2573,2256,-2892,2825,-1776,1283,3293,1704,31,28,886
722492,685836,655528,689613,656845,2610,2315,-3271,2254,-1796,1464,2403,1832,31,28,886
723493,686000,655660,689810,657042,2675,2269,-3599,1667,-1803,1499,1417,1896,28,22,884
724494,686208,655780,690007,657239,2396,2379,-3868,923,-1854,1460,825,1541,28,22,884
725496,686388,655920,690204,657436,2579,2279,-4065,121,-1975,1376,596,1543,47,27,884
726496,686588,656068,690401,657633,2454,2250,-4257,-636,-2149,1324,485,1951,47,27,884
727497,686792,656208,690598,657830,2426,2325,-4448,-1232,-2337,1305,195,2448,51,38,885
728498,686964,656364,690795,658027,2638,2244,-4623,-1725,-2499,1148,-336,2972,51,38,885
729500,687144,656532,690992,658224,2597,2182,-4760,-2120,-2609,893,-930,3253,35,32,885
730500,687308,656700,691189,658421,2712,2195,-4853,-2556,-2689,643,-1317,3309,35,32,885
731501,687480,656848,691386,658618,2673,2342,-4862,-3018,-2783,442,-1318,3247,28,34,883
732502,687632,656984,691583,658815,2819,2444,-4775,-3514,-2885,278,-1309,3357,28,34,883
733503,687828,657124,691780,659012,2545,2444,-4628,-3963,-2956,229,-1417,3702,27,39,884
734504,688000,657320,691977,659209,2707,2096,-4435,-4323,-2992,79,-1286,4074,27,39,884
735505,688160,657480,692174,659406,2798,2337,-4188,-4605,-2981,-79,-1232,4388,48,28,882
736506,688328,657656,692371,659603,2762,2246,-3889,-4869,-2922,-188,-1252,4607,48,28,882
737508,688488,657836,692568,659800,2829,2230,-3566,-5041,-2765,-133,-1621,5044,40,47,885
738508,688648,658012,692765,659997,2847,2264,-2900,-4753,-2492,416,-1936,8881,40,47,885
739509,688820,658196,692962,660194,2783,2221,-136,-293,-2290,3560,-451,32767,23,34,883
740510,688984,658384,693159,660391,2848,2199,3291,4651,-2118,1856,-885,32064,23,34,883
741512,689144,658592,693356,660588,2890,2070,4692,5160,-1915,224,-222,2772,24,35,882
742512,689324,658792,693553,660785,2774,2119,4645,2883,-1731,477,520,727,24,35,882
743514,689492,658992,693750,660982,2863,2118,4403,369,-1589,931,343,498,37,43,882
744514,689664,659164,693947,661179,2849,2304,4399,-1096,-1379,968,-88,1655,37,43,882
745515,689844,659392,694144,661376,2807,1941,4486,-2092,-1089,1108,-154,1935,37,41,884
746516,690016,659576,694341,661573,2869,2222,4403,-2802,-886,1078,88,2689,37,41,884
747517,690188,659768,694538,661770,2881,2175,4191,-3569,-790,812,819,2570,32,51,883
748518,690372,659988,694735,661967,2813,1990,3814,-4165,-802,653,1418,3849,32,51,883
749519,690628,660224,694932,662164,2337,1873,3305,-4306,-938,585,2014,4831,50,51,883
750520,690832,660452,695129,662361,2660,1910,2699,-4196,-1108,366,2291,5571,50,51,883
751521,691032,660680,695326,662558,2685,1897,2043,-3684,-1233,540,2168,6646,33,58,885
752522,691268,660888,695523,662755,2443,2017,1391,-3192,-1300,556,2072,6315,33,58,885
753524,691464,661108,695720,662952,2695,1933,846,-2803,-1342,291,2002,5948,39,52,885
754525,691692,661336,695917,663149,2482,1869,414,-2610,-1379,222,1905,5231,39,52,885
755525,691972,661552,696114,663346,2121,1937,115,-2791,-1382,291,1868,4206,55,46,887
756526,692224,661768,696311,663543,2273,1929,-76,-3140,-1321,325,2023,3619,55,46,887
757528,692464,661972,696508,663740,2330,2000,-153,-3706,-1294,222,2466,2626,39,38,887
758535,692756,662172,696738,663970,1978,2040,-155,-4341,-1354,117,2941,2560,39,38,887
759530,693008,662332,696935,664167,2204,2306,-120,-4929,-1407,203,2971,2504,51,53,888
760530,693268,662540,697132,664364,2128,2001,-58,-5571,-1407,325,2647,2277,51,53,888
761532,693576,662748,697329,664561,1780,1997,-9,-5990,-1379,335,2008,2917,51,36,889
762532,693836,662948,697526,664758,2053,2046,6,-6261,-1376,160,1713,3357,51,36,889
763533,694116,663100,697723,664955,1892,2366,-12,-6259,-1435,243,1756,4076,42,48,887
764534,694408,663288,697920,665152,1776,2146,-18,-6130,-1516,367,2093,4233,42,48,887
765536,694652,663432,698117,665349,2056,2444,-29,-5859,-1625,341,2465,4721,40,44,888
766536,694892,663568,698314,665546,2062,2521,-65,-5396,-1786,292,2527,5239,40,44,888
767537,695160,663712,698511,665743,1857,2495,-112,-4969,-1940,270,2182,5104,48,40,889
768538,695408,663860,698708,665940,1961,2492,-118,-4581,-2036,481,1664,4800,48,40,889
769539,695692,664008,698905,666137,1697,2513,-93,-4422,-2064,801,1104,3943,55,40,886
770540,695952,664128,699102,666334,1821,2723,-19,-4499,-2023,1037,702,3290,55,40,886
771541,696200,664276,699299,666531,1873,2569,69,-4726,-1956,1117,437,2735,51,32,887
772542,696480,664484,699496,666728,1638,2191,126,-5055,-1898,1292,-20,2487,51,32,887
773543,696796,664688,699693,666925,1362,2213,164,-5181,-1794,1622,-360,3034,58,27,886
774544,697048,664888,699890,667122,1737,2237,212,-5241,-1696,1648,-241,2902,58,27,886
775545,697300,665132,700087,667319,1714,1942,287,-5316,-1665,1689,-468,2859,53,38,888
776546,697552,665372,700284,667516,1690,1948,369,-5300,-1688,1556,-942,3184,53,38,888
777547,697820,665616,700481,667713,1560,1903,444,-5136,-1710,1424,-1634,3246,39,53,889
778548,698064,665884,700678,667910,1689,1722,520,-4920,-1712,1527,-2135,3204,39,53,889
779549,698324,666148,700875,668107,1563,1718,640,-4803,-1706,1619,-2195,2904,61,60,891
780550,698596,666360,701072,668304,1455,2037,768,-4675,-1685,1886,-2343,2961,61,60,891
781551,698812,666572,701269,668501,1797,2030,875,-4446,-1685,2066,-2273,3051,57,42,892
782552,699044,666800,701466,668698,1682,1918,943,-4227,-1684,1993,-2071,3102,57,42,892
783553,699324,667012,701663,668895,1346,2011,1041,-3872,-1683,1858,-2044,3169,49,40,891
784554,699592,667208,701860,669092,1390,2111,1159,-3457,-1671,1828,-2463,3333,49,40,891
785555,699848,667364,702057,669289,1440,2380,1248,-2976,-1652,1701,-2826,3726,63,33,890
786557,700128,667532,702254,669486,1254,2318,1264,-2424,-1658,1554,-2814,3844,63,33,890
787558,700388,667684,702451,669683,1351,2439,1318,-1992,-1708,1656,-2632,3176,59,28,889
788558,700656,667828,702648,669880,1271,2512,1456,-1650,-1788,1965,-2276,2796,59,28,889
789559,700912,668004,702845,670077,1320,2321,1588,-1394,-1903,2061,-1697,2588,60,38,890
790560,701160,668192,703042,670274,1349,2251,1669,-1070,-2078,1870,-947,2603,60,38,890
791561,701416,668344,703239,670471,1273,2496,1656,-866,-2292,1783,-526,2411,53,31,890
792562,701704,668520,703436,670668,1033,2355,1600,-580,-2484,2073,-607,2567,53,31,890
793563,701960,668676,703633,670865,1208,2499,1493,-181,-2626,1976,-1517,2837,57,30,890
794564,702196,668860,703830,671062,1316,2330,1402,229,-2703,1210,-2488,2605,57,30,890
795565,702444,669000,704027,671259,1218,2631,1287,566,-2665,786,-3020,2946,60,30,891
796566,702676,669172,704224,671456,1303,2442,1136,1069,-2498,595,-3424,3612,60,30,891
797567,702892,669340,704421,671653,1395,2481,933,1747,-2222,331,-3535,4157,39,27,888
798569,703116,669508,704618,671850,1334,2494,740,2448,-1909,-153,-3061,3862,39,27,888
799569,703328,669692,704815,672047,1402,2399,627,2828,-1627,-343,-2272,3139,39,38,889
800570,703496,669860,705012,672244,1691,2513,534,3040,-1404,272,-1466,2734,39,38,889
801571,703688,670052,705209,672441,1543,2365,355,3063,-1264,1043,-671,2064,31,41,889
802573,703888,670248,705406,672638,1492,2342,62,2975,-1207,1005,-152,1737,31,41,889
803573,704064,670444,705603,672835,1651,2342,-309,2787,-1178,564,-182,1868,52,48,888
804574,704252,670620,705800,673032,1581,2477,-633,2661,-1114,449,-437,2145,52,48,888
805576,704404,670844,705997,673229,1826,2166,-946,2637,-950,271,-1148,2557,48,40,890
806577,704560,671096,706194,673426,1819,1967,-1266,2688,-690,-44,-1718,2794,48,40,890
807578,704688,671316,706391,673623,2025,2157,-1565,2735,-430,-173,-1169,2901,43,55,888
808578,704896,671520,706588,673820,1520,2255,-1782,2708,-246,-361,-292,2760,43,55,888
809580,705036,671704,706785,674017,1970,2386,-1943,2662,-149,-759,-4,2726,24,48,889
810580,705172,671896,706982,674214,2023,2338,-2075,2578,-91,-1275,-365,2919,24,48,889
811581,705296,672116,707179,674411,2130,2154,-2202,2442,-91,-1537,54,2818,39,35,889
812582,705416,672332,707376,674608,2189,2171,-2320,2258,-168,-1427,470,2710,39,35,889
813583,705520,672540,707573,674805,2331,2217,-2405,2088,-220,-1339,-182,2849,29,35,887
814584,705668,672740,707770,675002,2077,2266,-2505,1961,-162,-1433,-1241,3367,29,35,887
815585,705788,672924,707967,675199,2287,2372,-2656,1926,-47,-1643,-1575,3639,19,35,887
816586,705900,673132,708164,675396,2374,2217,-2802,1831,44,-1771,-1684,3655,19,35,887
817587,706028,673348,708361,675593,2305,2159,-2881,1679,88,-1814,-1720,3562,17,50,886
818588,706164,673576,708558,675790,2283,2071,-2919,1456,77,-1953,-1345,3717,17,50,886
819589,706280,673784,708755,675987,2443,2192,-2958,1195,-12,-2222,-555,3825,17,41,885
820590,706416,674000,708952,676184,2346,2134,-2994,899,-85,-2475,-551,3943,17,41,885
821592,706556,674240,709149,676381,2346,1965,-2979,630,-89,-2650,-594,3939,22,38,887
822592,706672,674448,709346,676578,2533,2162,-2906,302,-52,-2561,-381,3959,22,38,887
823593,706808,674664,709543,676775,2434,2103,-2784,-143,-16,-2197,-253,3816,36,57,886
824594,706920,674932,709740,676972,2623,1747,-2628,-695,22,-1697,-494,3532,36,57,886
825595,707044,675220,709937,677169,2580,1583,-2460,-1348,80,-1340,-960,3351,19,51,886
826596,707180,675496,710134,677366,2533,1623,-2303,-1929,207,-1237,-1484,3852,19,51,886
827597,707308,675772,710331,677563,2613,1589,-2155,-2341,414,-1065,-1741,4516,28,54,887
828598,707460,676028,710528,677760,2484,1689,-2012,-2662,620,-563,-1124,4610,28,54,887
829599,707640,676336,710725,677957,2317,1315,-1828,-2937,745,-118,-52,4645,39,54,886
830600,707832,676632,710922,678154,2244,1346,-1598,-3219,805,31,416,5147,39,54,886
831601,707996,676908,711119,678351,2435,1438,-1380,-3308,866,-88,201,6016,47,52,888
832602,708168,677196,711316,678548,2396,1323,-1168,-3157,985,-227,22,6603,47,52,888
833603,708292,677464,711513,678745,2729,1416,-931,-2879,1115,-309,179,7071,44,59,890
834604,708444,677784,711710,678942,2575,1037,-685,-2508,1156,-161,300,7235,44,59,890
835605,708604,678096,711907,679139,2541,1038,-426,-2209,1133,175,136,7111,25,49,890
836606,708796,678380,712104,679336,2344,1175,-151,-1905,1112,530,-3,7113,25,49,890
837608,709016,678644,712301,679533,2159,1270,132,-1589,1082,703,156,7138,32,65,890
838608,709216,678976,712498,679730,2284,786,416,-1332,1025,520,62,6961,32,65,890
839609,709412,679292,712695,679927,2310,834,732,-1038,957,301,-144,6965,37,68,891
840610,709576,679592,712892,680124,2525,889,1097,-723,859,486,374,6746,37,68,891
841618,709780,679868,713122,680354,2287,1019,1512,-649,670,1026,1317,6010,45,52,892
842612,709968,680112,713319,680551,2392,1198,1953,-706,412,1693,1589,5663,45,52,892
843613,710180,680408,713516,680748,2236,830,2365,-708,193,2026,962,5798,51,51,890
844614,710376,680692,713713,680945,2337,867,2693,-488,79,1695,-155,6443,51,51,890
845615,710592,680976,713910,681142,2204,828,2938,-68,56,1018,-1049,6945,45,52,891
846616,710788,681212,714107,681339,2330,1111,3151,390,59,756,-1155,6725,45,52,891
847617,710972,681452,714304,681536,2412,1067,3397,681,-38,1323,51,5801,36,44,892
848618,711184,681652,714501,681733,2230,1316,3661,726,-257,2030,994,4995,36,44,892
849619,711420,681924,714698,681930,2064,833,3872,662,-532,2438,1139,4698,36,44,891
850620,711632,682164,714895,682127,2208,1014,4012,672,-773,2337,718,4850,36,44,891
851622,711852,682392,715092,682324,2148,1076,4080,951,-930,1697,-115,5568,53,47,890
852622,712044,682604,715289,682521,2327,1169,4099,1475,-1022,1123,-471,5992,53,47,890
853624,712228,682804,715486,682718,2382,1243,4098,2017,-1120,1077,-152,5692,40,39,891
854625,712424,683024,715683,682915,2309,1108,4081,2419,-1282,1410,397,5195,40,39,891
855625,712608,683232,715880,683112,2390,1178,4061,2712,-1527,1737,814,4517,49,40,891
856626,712820,683456,716077,683309,2209,1066,4030,2882,-1780,1609,526,4159,49,40,891
857627,713056,683688,716274,683506,2043,1001,3962,3088,-1970,921,-404,4268,49,36,891
858628,713240,683888,716471,683703,2374,1199,3919,3255,-2072,269,-1012,3959,49,36,891
859629,713412,684112,716668,683900,2460,1037,3891,3474,-2111,-58,-1148,3873,35,48,891
860630,713572,684284,716865,684097,2553,1373,3846,3536,-2139,80,-915,3204,35,48,891
861631,713700,684476,717062,684294,2783,1251,3792,3368,-2221,401,-555,2367,20,37,890
862632,713868,684708,717259,684491,2547,985,3729,3088,-2317,383,-582,1892,20,37,890
863633,714012,684928,717456,684688,2721,1050,3624,2773,-2431,-172,-459,1746,39,54,887
864634,714204,685160,717653,684885,2423,960,3468,2467,-2573,-841,-418,1843,39,54,887
865635,714420,685384,717850,685082,2266,998,3257,2282,-2732,-1231,-323,2186,49,42,890
866636,714580,685568,718047,685279,2633,1252,2961,2361,-2875,-1220,-297,2718,49,42,890
867637,714732,685744,718244,685476,2703,1312,2629,2463,-2981,-1226,-229,2647,28,51,891
868638,714860,685948,718441,685673,2884,1134,2289,2425,-3060,-1243,-355,2477,28,51,891
869639,715008,686180,718638,685870,2782,943,1934,2385,-3110,-912,-496,2390,16,39,888
870640,715184,686404,718835,686067,2616,981,1573,2323,-3128,-470,-455,2209,16,39,888
871641,715360,686624,719032,686264,2626,996,1199,2222,-3136,-272,-305,2129,25,45,886
872642,715580,686788,719229,686461,2342,1361,842,1964,-3147,-327,-268,1558,25,45,886
873643,715800,686968,719426,686658,2332,1268,515,1617,-3120,-198,-323,1646,51,43,889
874644,715968,687116,719623,686855,2671,1490,229,1295,-3033,-114,-294,1621,51,43,889
875645,716100,687328,719820,687052,2925,1083,-34,873,-2880,-41,-156,1251,26,37,889
876646,716220,687512,720017,687249,3035,1264,-273,243,-2686,396,-142,926,26,37,889
877647,716340,687692,720214,687446,3069,1296,-521,-541,-2497,1183,191,751,17,27,887
878648,716468,687868,720411,687643,3050,1331,-775,-1241,-2326,1842,534,682,17,27,887
879649,716660,688028,720608,687840,2653,1447,-1020,-2009,-2135,2226,751,667,21,39,886
880650,716860,688164,720805,688037,2603,1624,-1247,-2778,-1932,2293,927,987,21,39,886
881651,717076,688340,721002,688234,2495,1383,-1492,-3419,-1770,2169,1074,1526,48,22,886
882652,717320,688480,721199,688431,2300,1633,-1736,-3830,-1654,2220,1325,1934,48,22,886
883653,717520,688600,721396,688628,2575,1792,-1959,-4178,-1558,2274,1628,2189,35,37,887
884654,717696,688688,721593,688825,2734,2040,-2203,-4394,-1451,2446,1860,3019,35,37,887
885656,717900,688864,721790,689022,2557,1499,-2467,-4374,-1380,2657,1936,3708,44,38,888
886656,718100,689016,721987,689219,2582,1669,-2719,-4148,-1338,2908,2030,4183,44,38,888
887657,718372,689188,722184,689416,2100,1555,-3012,-3617,-1316,2956,2317,5425,46,42,885
888658,718644,689336,722381,689613,2067,1726,-3317,-2898,-1294,2632,2209,6017,46,42,885
889659,718964,689504,722578,689810,1714,1614,-3567,-2089,-1255,2322,2134,6161,53,31,888
890660,719228,689640,722775,690007,2035,1841,-3712,-1349,-1192,2077,2236,5728,53,31,888
891661,719464,689756,722972,690204,2194,2001,-3800,-829,-1129,2089,2120,5310,63,38,890
892662,719788,689904,723169,690401,1588,1823,-3829,-477,-1076,2254,1949,4814,63,38,890
893663,720048,690016,723366,690598,1962,2085,-3804,-286,-1022,2148,1904,4429,61,38,890
894664,720316,690132,723563,690795,1880,2096,-3731,-20,-955,1645,1574,4734,61,38,890
895665,720584,690280,723760,690992,1850,1917,-3580,221,-857,912,1209,4424,60,33,890
896666,720804,690424,723957,691189,2141,1966,-3365,328,-727,689,917,4230,60,33,890
897667,721096,690556,724154,691386,1649,2070,-3103,422,-628,1182,959,4012,41,32,888
898668,721364,690692,724351,691583,1769,2072,-2839,492,-564,1432,818,4167,41,32,888
899669,721616,690832,724548,691780,1845,2072,-2587,720,-492,1020,329,4734,43,27,888
900670,721868,690968,724745,691977,1822,2124,-2305,911,-351,284,-467,4550,43,27,888
901671,722128,691060,724942,692174,1745,2445,-1969,1108,-182,-245,-807,4720,58,34,890
902672,722400,691200,725139,692371,1637,2171,-1645,1361,-96,-212,-606,4740,58,34,890
903673,722668,691316,725336,692568,1632,2357,-1376,1615,-86,206,-432,4725,60,27,889
904674,722900,691468,725533,692765,1842,2151,-1185,1889,-75,428,-379,5020,60,27,889
905675,723188,691568,725730,692962,1453,2519,-1014,2171,-54,88,-504,5026,57,33,889
906676,723452,691728,725927,693159,1573,2161,-843,2358,-70,-308,-484,4736,57,33,889
907677,723752,691908,726124,693356,1304,2044,-684,2494,-123,-192,-262,4469,49,35,888
908678,723992,692064,726321,693553,1660,2212,-531,2415,-173,453,268,3900,49,35,888
909679,724280,692252,726518,693750,1320,2016,-398,2205,-238,792,832,3416,65,24,890
910680,724592,692384,726715,693947,1120,2395,-286,1887,-325,491,656,3225,65,24,890
911681,724900,692552,726912,694144,1097,2183,-178,1587,-420,154,336,3283,47,23,889
912682,725212,692656,727109,694341,1022,2624,-82,1341,-498,256,429,3319,47,23,889
913683,725536,692824,727306,694538,891,2238,-1,1128,-567,527,773,3433,62,40,890
914684,725808,693004,727503,694735,1183,2170,51,931,-650,374,1036,3430,62,40,890
915685,726072,693176,727700,694932,1205,2231,78,701,-752,83,1082,3446,45,42,889
916686,726352,693348,727897,695129,1068,2243,102,529,-862,-61,1095,3544,45,42,889
917688,726636,693508,728094,695326,1005,2334,75,540,-951,-113,1104,4054,60,38,890
918689,726892,693700,728291,695523,1155,2137,-6,636,-1005,-213,1017,4234,60,38,890
919690,727156,693860,728488,695720,1076,2354,-88,651,-1037,-289,897,4146,63,30,890
920690,727432,694072,728685,695917,966,2022,-84,681,-1086,-286,1050,3937,63,30,890
921692,727648,694232,728882,696114,1333,2364,-62,667,-1139,-285,1333,3882,48,32,892
922692,727864,694420,729079,696311,1325,2194,-113,678,-1238,-407,1303,4031,48,32,892
923693,728112,694592,729276,696508,1103,2304,-172,691,-1306,-334,1687,3973,49,45,893
924701,728304,694764,729506,696738,1470,2330,-266,646,-1377,-162,2156,3677,49,45,893
925696,728516,694944,729703,696935,1338,2288,-374,474,-1432,132,2297,3135,52,34,891
926697,728728,695140,729900,697132,1332,2189,-555,247,-1411,433,2037,3408,52,34,891
927697,728928,695344,730097,697329,1406,2136,-861,163,-1334,516,1935,3628,42,30,889
928698,729120,695504,730294,697526,1458,2428,-1201,41,-1255,184,1712,3284,42,30,889
929699,729328,695684,730491,697723,1354,2311,-1536,-92,-1185,-253,1351,3209,30,33,890
930700,729504,695872,730688,697920,1563,2266,-1846,-306,-1135,-437,1302,3041,30,33,890
931701,729680,696096,730885,698117,1573,2029,-2217,-493,-1089,-233,917,3247,36,31,889
932702,729856,696272,731082,698314,1582,2338,-2595,-754,-1007,208,356,2746,36,31,889
933704,730028,696452,731279,698511,1618,2321,-2885,-1202,-913,866,315,1975,45,42,889
934704,730212,696624,731476,698708,1549,2382,-3121,-1789,-855,1582,80,1751,45,42,889
935706,730424,696796,731673,698905,1367,2394,-3381,-2297,-807,1977,-621,2116,28,43,889
936706,730584,696960,731870,699102,1710,2459,-3678,-2667,-740,1974,-1337,2589,28,43,889
937708,730752,697140,732067,699299,1672,2366,-3934,-2829,-650,1714,-1854,3125,44,49,888
938708,730924,697340,732264,699496,1658,2241,-4087,-2876,-550,1468,-2085,3475,44,49,888
939709,731096,697528,732461,699693,1669,2320,-4137,-2972,-471,1568,-1904,3430,28,37,886
940710,731272,697700,732658,699890,1655,2432,-4098,-3103,-406,1723,-1876,3521,28,37,886
941712,731440,697904,732855,700087,1717,2229,-4024,-3154,-359,1748,-1906,3972,45,31,888
942713,731596,698068,733052,700284,1810,2493,-3946,-3020,-325,1690,-2326,4652,45,31,888
943714,731768,698236,733249,700481,1722,2482,-3855,-2697,-281,1714,-2665,5212,39,39,888
944714,731928,698396,733446,700678,1814,2548,-3703,-2314,-241,1752,-2667,5242,39,39,888
945715,732104,698552,733643,700875,1723,2592,-3485,-1920,-223,1731,-2638,5556,25,43,887
946716,732256,698720,733840,701072,1893,2530,-3222,-1490,-211,1690,-2709,5890,25,43,887
947717,732428,698872,734037,701269,1780,2651,-2944,-1000,-196,1755,-2744,6173,27,32,886
948718,732628,699048,734234,701466,1603,2510,-2673,-435,-182,1874,-2690,6484,27,32,886
949719,732792,699192,734431,701663,1843,2734,-2394,148,-164,2050,-2676,6543,44,33,886
950720,732944,699376,734628,701860,1939,2490,-2092,665,-160,2199,-2557,6377,44,33,886
951721,733104,699540,734825,702057,1905,2630,-1784,1136,-176,2158,-2436,6318,22,39,887
952722,733292,699684,735022,702254,1734,2779,-1496,1643,-194,2016,-2361,6484,22,39,887
953723,733440,699836,735219,702451,2006,2749,-1270,2101,-231,1821,-1600,6377,36,44,886
954724,733612,699984,735416,702648,1867,2796,-1092,2515,-312,1657,-734,6398,36,44,886
955725,733768,700148,735613,702845,1985,2711,-945,2922,-429,1550,-327,6395,37,34,885
956726,733936,700320,735810,703042,1924,2673,-821,3220,-571,1406,-55,6067,37,34,885
957727,734124,700460,736007,703239,1803,2898,-744,3391,-741,1085,126,5596,36,24,885
958728,734312,700636,736204,703436,1807,2683,-659,3237,-933,721,511,4700,36,24,885
959729,734468,700780,736401,703633,2026,2907,-511,2980,-1117,484,580,4746,27,42,885
960730,734632,700920,736598,703830,1990,2957,-30,3297,-1132,-255,-672,9771,27,42,885
961731,734768,701076,736795,704027,2192,2876,754,4263,-965,-906,-1194,13247,25,26,884
962732,734916,701224,736992,704224,2140,2948,1233,4517,-930,-534,529,5186,25,26,884
963733,735076,701392,737189,704421,2081,2837,1302,3957,-1033,-683,836,3684,27,41,882
964734,735232,701560,737386,704618,2125,2849,1231,3093,-1138,-704,481,3430,27,41,882
965735,735372,701724,737583,704815,2250,2890,1206,2420,-1114,-802,-339,3510,43,28,882
966736,735508,701920,737780,705012,2302,2691,1239,1851,-959,-1117,-1093,3609,43,28,882
967737,735672,702104,737977,705209,2142,2772,1240,1405,-743,-1239,-1533,3892,42,36,883
968738,735832,702260,738174,705406,2184,2966,1233,922,-472,-1309,-1333,3679,42,36,883
969739,736000,702468,738371,705603,2147,2636,1149,615,-145,-1518,-1384,4548,22,30,883
970740,736116,702644,738568,705800,2508,2846,1090,225,81,-1936,-812,3783,22,30,883
971741,736236,702804,738765,705997,2518,2963,1091,-191,201,-2124,-827,3958,36,27,882
972742,736400,702984,738962,706194,2257,2846,1110,-555,338,-1896,-1929,4354,36,27,882
973743,736516,703200,739159,706391,2594,2614,1109,-683,583,-1605,-2841,5060,22,32,881
974744,736644,703428,739356,706588,2549,2525,1084,-617,967,-1552,-3376,5566,22,32,881
975745,736744,703604,739553,706785,2768,2860,1037,-471,1344,-1497,-3288,5811,19,48,883
976746,736836,703788,739750,706982,2864,2817,979,-227,1554,-1403,-2156,6005,19,48,883
977747,736984,704000,739947,707179,2537,2636,978,-83,1616,-1324,-1579,5687,38,52,883
978748,737140,704216,740144,707376,2505,2603,1049,-28,1625,-953,-1877,5566,38,52,883
979749,737300,704444,740341,707573,2497,2515,1176,-81,1666,-624,-1981,5240,33,44,880
980750,737456,704676,740538,707770,2540,2475,1346,-136,1790,-125,-1859,5088,33,44,880
981751,737616,704872,740735,707967,2532,2702,1536,-140,1934,378,-1579,4889,46,39,883
982753,737752,705060,740932,708164,2710,2756,1732,-353,2040,593,-1296,4466,46,39,883
983754,737888,705292,741129,708361,2737,2466,1931,-598,2041,837,-1026,4320,41,46,882
984754,738020,705500,741326,708558,2791,2611,2141,-952,1899,1069,-617,3799,41,46,882
985756,738160,705752,741523,708755,2767,2313,2348,-1415,1636,1203,-413,3615,22,48,880
986756,738268,705972,741720,708952,3006,2503,2547,-1807,1351,1369,-611,3775,22,48,880
987758,738380,706220,741917,709149,3020,2307,2746,-2079,1117,1549,-586,3973,37,49,882
988758,738524,706360,742114,709346,2843,3008,2916,-2143,905,1515,17,4566,37,49,882
989759,738628,706440,742311,709543,3135,3434,3053,-2073,673,1400,83,4770,29,28,880
990760,738760,706536,742508,709740,2990,3380,3150,-1904,381,1265,-217,4913,29,28,880
991761,738888,706612,742705,709937,3046,3558,3237,-1710,86,1221,-572,5054,40,31,878
992762,738988,706720,742902,710134,3264,3398,3333,-1514,-132,1341,-970,4900,40,31,878
993763,739112,706840,743099,710331,3147,3358,3433,-1276,-259,1500,-663,4861,17,31,875
994764,739232,706976,743296,710528,3206,3284,3509,-983,-327,1333,-40,5001,17,31,875
995765,739348,707128,743493,710725,3268,3205,3563,-652,-358,1052,-191,5061,20,24,872
996766,739484,707316,743690,710922,3170,2985,3618,-245,-369,840,-407,5047,20,24,872
997767,739652,707540,743887,711119,2984,2748,3701,102,-367,697,-409,4871,24,39,875
998768,739804,707788,744084,711316,3104,2577,3789,509,-379,740,-175,4852,24,39,875
999770,739964,708088,744281,711513,3072,2208,3835,931,-416,811,158,4902,37,60,877
1000770,740132,708396,744478,711710,3035,2109,3812,1401,-462,828,463,5097,37,60,877
1001771,740284,708760,744675,711907,3155,1686,3749,1865,-529,917,986,4553,46,72,880
1002772,740456,709052,744872,712104,3042,2096,3662,2170,-669,707,1455,3858,46,72,880
1003773,740604,709344,745069,712301,3215,2054,3538,2324,-911,387,1261,3474,35,70,883
1004774,740796,709628,745266,712498,2943,2067,3412,2314,-1108,371,345,3043,35,70,883
1005775,740952,709944,745463,712695,3187,1814,3277,2417,-1154,470,12,3325,28,68,882
1006776,741136,710236,745660,712892,3019,1924,3103,2614,-1133,402,365,3410,28,68,882
1007786,741312,710520,745890,713122,3093,1950,2946,2753,-1171,372,880,2818,44,64,882
1008778,741496,710816,746087,713319,3049,1832,2829,2777,-1266,333,1248,2625,44,64,882
1009779,741692,711136,746284,713516,2975,1628,2736,2768,-1328,356,1269,2502,38,58,884
1010780,741896,711464,746481,713713,2923,1522,2640,2668,-1296,425,1123,2196,38,58,884
1011781,742116,711740,746678,713910,2814,1812,2557,2549,-1180,445,1021,2075,54,59,884
1012782,742340,712028,746875,714107,2778,1698,2471,2430,-1032,350,984,2016,54,59,884
1013783,742568,712344,747072,714304,2741,1471,2362,2368,-922,292,1294,2139,43,57,886
1014784,742776,712608,747269,714501,2862,1766,2239,2328,-837,235,1466,2364,43,57,886
1015786,742968,712840,747466,714698,2964,1952,2084,2413,-773,372,1561,2821,44,57,886
1016786,743172,713048,747663,714895,2887,2097,1877,2684,-730,493,1808,3102,44,57,886
1017787,743372,713224,747860,715092,2912,2306,1648,2902,-697,476,2069,2824,35,44,884
1018788,743560,713404,748057,715289,2992,2290,1412,3025,-694,643,2435,2859,35,44,884
1019789,743776,713596,748254,715486,2809,2217,1176,3100,-782,778,3241,2658,44,41,883
1020790,743964,713772,748451,715683,2989,2326,947,3095,-909,901,3483,2402,44,41,883
1021791,744144,713964,748648,715880,3048,2229,718,3148,-1009,1034,3515,2818,34,43,882
1022792,744332,714112,748845,716077,3002,2526,466,3264,-1072,1211,3635,3051,34,43,882
1023793,744508,714268,749042,716274,3087,2495,176,3428,-1138,1299,3939,3188,29,27,881
1024794,744660,714408,749239,716471,3258,2620,-133,3585,-1266,1373,4216,3035,29,27,881
1025795,744820,714544,749436,716668,3225,2672,-441,3537,-1453,1384,4116,2553,27,39,880
1026796,744984,714696,749633,716865,3216,2593,-740,3343,-1676,1395,3908,2319,27,39,880
1027797,745152,714900,749830,717062,3204,2265,-1064,3085,-1960,1462,4074,2097,24,47,877
1028798,745340,715160,750027,717259,3084,1888,-1467,2802,-2364,1248,4446,2172,24,47,877
1029799,745508,715440,750224,717456,3223,1726,-1950,2640,-2848,1003,4318,2593,44,53,878
1030800,745688,715720,750421,717653,3156,1690,-2485,2575,-3311,978,3812,2966,44,53,878
1031802,745872,715964,750618,717850,3137,1895,-3060,2588,-3720,920,3052,3367,52,50,883
1032802,746056,716208,750815,718047,3144,1875,-3633,2627,-4119,616,2682,3227,52,50,883
1033803,746224,716492,751012,718244,3258,1586,-4166,2530,-4541,343,2200,2900,43,64,884
1034804,746416,716768,751209,718441,3111,1603,-4639,2324,-4966,251,1823,2762,43,64,884
1035805,746628,716980,751406,718638,2980,1996,-5042,1977,-5324,167,1295,2475,30,40,883
1036806,746804,717184,751603,718835,3215,2043,-5350,1545,-5612,100,1446,2287,30,40,883
1037807,747008,717340,751800,719032,3038,2362,-5545,989,-5840,40,1692,2133,47,34,884
1038808,747236,717532,751997,719229,2876,2139,-5624,467,-5946,20,1362,2281,47,34,884
1039809,747432,717760,752194,719426,3077,1901,-5699,89,-5904,114,615,2941,43,49,880
1040810,747640,718004,752391,719623,2998,1781,-5815,-170,-5775,-46,352,3276,43,49,880
1041811,747856,718228,752588,719820,2941,1894,-5891,-368,-5657,-301,371,3548,55,60,883
1042812,748068,718476,752785,720017,2959,1722,-5912,-547,-5618,-448,499,3782,55,60,883
1043813,748296,718680,752982,720214,2847,1995,-5898,-635,-5670,-615,766,4242,35,45,884
1044814,748552,718904,753179,720411,2647,1858,-5867,-593,-5779,-741,1046,4812,35,45,884
1045815,748784,719172,753376,720608,2782,1552,-5825,-456,-5900,-812,876,5079,45,43,885
1046816,749020,719404,753573,720805,2741,1761,-5779,-229,-5982,-884,154,5543,45,43,885
1047817,749288,719600,753770,721002,2511,1988,-5714,56,-6015,-1021,-346,5687,46,52,886
1048818,749544,719808,753967,721199,2561,1908,-5618,262,-6045,-946,-452,5484,46,52,886
1049820,749804,720000,754164,721396,2510,2010,-5456,347,-6096,-825,-415,5306,45,54,886
1050820,750104,720224,754361,721593,2214,1798,-5228,351,-6146,-602,-391,5276,45,54,886
1051821,750380,720432,754558,721790,2331,1894,-4251,1422,-6204,1168,-739,15346,54,55,885
1052822,750656,720640,754755,721987,2297,1889,-2310,4270,-6344,2764,-1110,27380,54,55,885
1053823,750956,720844,754952,722184,2103,1911,-957,5343,-6441,679,-767,6570,64,39,888
1054825,751252,721024,755149,722381,2084,2069,-594,4426,-6386,530,-1144,2397,64,39,888
1055825,751520,721236,755346,722578,2229,1863,-616,2881,-6196,992,-1783,2062,57,51,888
1056826,751804,721464,755543,722775,2092,1750,-619,1803,-5906,1641,-2291,2830,57,51,888
1057827,752092,721644,755740,722972,2028,2057,-539,1186,-5524,2151,-2259,3135,53,37,888
1058828,752376,721820,755937,723169,2014,2091,-418,736,-5204,2213,-1769,3334,53,37,888
1059829,752620,722000,756134,723366,2245,2075,-320,256,-5087,1592,-1545,3151,63,36,890
1060830,752912,722172,756331,723563,1904,2136,-177,-529,-5160,1132,-1725,2399,63,36,890
1061831,753180,722352,756528,723760,2023,2093,-37,-1327,-5344,1281,-1947,2644,42,47,887
1062832,753416,722512,756725,723957,2207,2236,72,-1943,-5471,1348,-2408,3154,42,47,887
1063833,753656,722644,756922,724154,2164,2439,150,-2269,-5490,1133,-2875,3914,58,45,888
1064834,753880,722812,757119,724351,2252,2227,238,-2353,-5502,712,-3167,4329,58,45,888
1065836,754096,722984,757316,724548,2295,2213,324,-2372,-5540,348,-3378,4695,40,44,886
1066836,754348,723144,757513,724745,2045,2305,453,-2294,-5575,153,-3374,4814,40,44,886
1067837,754564,723328,757710,724942,2263,2161,652,-2295,-5588,-1,-3408,4382,34,40,886
1068838,754760,723468,757907,725139,2389,2461,912,-2333,-5535,-186,-3549,4545,34,40,886
1069839,755000,723600,758104,725336,2096,2540,1208,-2308,-5389,-304,-3612,4613,51,44,887
1070840,755216,723748,758301,725533,2238,2462,1520,-2255,-5182,-435,-3546,4504,51,44,887
1071841,755424,723908,758498,725730,2283,2403,1849,-2215,-4940,-669,-3338,4431,46,29,884
1072842,755672,724124,758695,725927,2012,2046,2228,-2303,-4667,-732,-2856,4031,46,29,884
1073843,755908,724284,758892,726124,2071,2412,2635,-2465,-4346,-281,-2359,3829,48,40,884
1074844,756160,724460,759089,726321,1947,2321,3038,-2562,-3944,122,-1758,3827,48,40,884
1075845,756444,724628,759286,726518,1709,2385,3420,-2808,-3495,133,-1165,3267,60,37,888
1076846,756680,724804,759483,726715,1992,2344,3799,-3067,-3063,190,-921,3096,60,37,888
1077848,756952,724964,759680,726912,1735,2461,4149,-3264,-2626,226,-694,3257,60,48,887
1078848,757208,725152,759877,727109,1809,2291,4477,-3465,-2140,365,-629,3022,60,48,887
1079849,757472,725324,760074,727306,1731,2401,4777,-3560,-1611,486,-459,3146,62,33,887
1080850,757760,725528,760271,727503,1541,2199,5028,-3618,-1092,230,317,3181,62,33,887
1081851,758052,725736,760468,727700,1475,2170,5229,-3547,-607,94,1084,3443,67,53,888
1082852,758324,725924,760665,727897,1567,2299,5309,-3342,-121,128,1219,3641,67,53,888
1083853,758592,726116,760862,728094,1562,2277,5315,-2980,385,146,1068,4112,62,37,888
1084854,758888,726292,761059,728291,1344,2386,5272,-2474,831,132,1241,4036,62,37,888
1085855,759156,726500,761256,728488,1488,2181,5150,-2086,1167,112,1521,3564,60,49,889
1086856,759396,726684,761453,728685,1644,2338,4929,-1660,1468,109,1807,3854,60,49,889
1087857,759692,726856,761650,728882,1251,2424,4620,-1162,1748,82,2086,4008,61,33,889
1088858,759964,727036,761847,729079,1369,2382,4169,-405,1909,-83,2446,4770,61,33,889
1089859,760172,727232,762044,729276,1764,2283,3594,412,1930,-162,2770,4591,48,36,888
1090867,760368,727416,762274,729506,1854,2378,2974,988,1824,268,3139,3519,48,36,888
1091861,760620,727596,762471,729703,1481,2411,2325,1196,1613,690,3264,2644,43,34,889
1092862,760828,727768,762668,729900,1751,2472,1604,1175,1358,705,2651,2250,43,34,889
1093863,761016,727952,762865,730097,1881,2404,871,928,1077,633,1889,1212,33,34,887
1094864,761252,728188,763062,730294,1564,2062,149,247,792,859,1509,-171,33,34,887
1095865,761448,728388,763259,730491,1814,2286,-500,-708,554,1331,1289,-761,33,50,886
1096866,761660,728568,763456,730688,1709,2419,-1096,-1744,396,1377,699,-954,33,50,886
1097867,761876,728732,763653,730885,1675,2534,-1590,-2874,276,1208,236,-1422,29,43,889
1098868,762076,728892,763850,731082,1774,2576,-1980,-4064,163,1120,-147,-1515,29,43,889
1099869,762264,729064,764047,731279,1854,2512,-2313,-5102,79,1041,-508,-854,37,30,888
1100870,762484,729212,764244,731476,1644,2683,-2683,-5733,57,847,-1103,439,37,30,888
1101871,762700,729380,764441,731673,1661,2572,-3067,-6069,92,677,-1366,1146,34,41,886
1102872,762872,729532,764638,731870,1948,2692,-3408,-6300,113,503,-1250,1405,34,41,886
1103873,763068,729708,764835,732067,1798,2552,-3730,-6378,126,388,-1238,2086,51,27,886
1104874,763260,729868,765032,732264,1825,2668,-4031,-6288,170,202,-1401,2717,51,27,886
1105875,763460,730004,765229,732461,1775,2846,-4348,-5908,264,31,-1837,3899,45,26,884
1106876,763672,730152,765426,732658,1693,2793,-4641,-5281,384,-70,-1882,4529,45,26,884
1107877,763864,730280,765623,732855,1820,2949,-4869,-4555,468,-95,-1554,4821,31,22,885
1108878,764072,730400,765820,733052,1717,3033,-5016,-3856,510,-102,-1322,4893,31,22,885
1109879,764272,730536,766017,733249,1765,2961,-5086,-3244,543,-69,-1185,4958,35,21,885
1110880,764488,730680,766214,733446,1657,2934,-5075,-2656,569,28,-869,4999,35,21,885
1111881,764684,730808,766411,733643,1783,3065,-4999,-2160,549,218,-516,4747,53,22,883
1112882,764888,730924,766608,733840,1730,3176,-4876,-1770,471,420,-321,4712,53,22,883
1113884,765076,731056,766805,734037,1834,3106,-4721,-1450,372,627,-302,4710,40,23,884
1114884,765256,731180,767002,734234,1893,3188,-4529,-1197,259,776,-351,4451,40,23,884
1115885,765476,731324,767199,734431,1633,3087,-4293,-1031,147,759,-688,4239,37,25,881
1116886,765680,731480,767396,734628,1730,3030,-4009,-952,55,626,-1404,4241,37,25,881
1117887,765884,731636,767593,734825,1728,3049,-3697,-841,-7,356,-2287,4521,54,26,881
1118888,766096,731776,767790,735022,1671,3175,-3367,-676,-53,75,-2687,4683,54,26,881
1119889,766340,731916,767987,735219,1450,3200,-3028,-511,-110,61,-2740,4874,40,34,884
1120890,766576,732048,768184,735416,1483,3280,-2700,-227,-124,214,-3114,5506,40,34,884
1121892,766800,732228,768381,735613,1547,2987,-2408,262,-36,103,-3355,6110,52,35,883
1122892,767048,732364,768578,735810,1375,3290,-2162,757,126,-82,-3445,6127,52,35,883
1123893,767280,732472,768775,736007,1459,3505,-1915,1149,334,-103,-3408,5975,39,20,883
1124894,767472,732588,768972,736204,1713,3491,-1678,1503,579,-146,-3099,5784,39,20,883
1125895,767688,732700,769169,736401,1554,3554,-1475,1745,833,-359,-3007,5891,33,30,883
1126896,767892,732788,769366,736598,1626,3753,-1343,2059,1154,-659,-3308,6424,33,30,883
1127897,768096,732928,769563,736795,1624,3454,-1214,2409,1528,-1223,-3401,6509,31,31,879
1128898,768276,733068,769760,736992,1782,3479,-1051,2749,1900,-1904,-3657,6642,31,31,879
1129899,768456,733196,769957,737189,1789,3585,-867,2926,2218,-2321,-3804,6346,45,20,879
1130900,768620,733336,770154,737386,1904,3536,-555,2874,2502,-2105,-3258,6044,45,20,879
1131901,768796,733516,770351,737583,1839,3295,347,3590,2728,-539,-2429,14911,49,40,880
1132902,768944,733732,770548,737780,2035,3061,1558,4674,2934,-89,-2314,14392,49,40,880
1133903,769096,733932,770745,737977,2030,3161,2219,4595,3164,-1181,-2221,4587,44,41,879
1134904,769260,734132,770942,738174,1971,3161,2350,3669,3363,-1420,-2002,3826,44,41,879
1135905,769412,734336,771139,738371,2065,3134,2331,2569,3523,-1292,-2221,3817,25,52,882
1136906,769568,734528,771336,738568,2058,3211,2367,1767,3690,-1273,-2535,3905,25,52,882
1137907,769748,734772,771533,738765,1917,2866,2451,1008,3859,-1295,-2613,3580,27,42,881
1138908,769904,735036,771730,738962,2085,2713,2510,232,3956,-1230,-2298,3954,27,42,881
1139909,770056,735296,771927,739159,2130,2711,2504,-415,3989,-1244,-1834,4425,48,42,881
1140910,770212,735528,772124,739356,2124,2871,2476,-1021,3975,-1132,-1373,4599,48,42,881
1141911,770384,735752,772321,739553,2035,2910,2438,-1474,3911,-898,-1287,4996,43,46,884
1142912,770532,735984,772518,739750,2206,2845,2371,-1819,3862,-578,-1243,5502,43,46,884
1143913,770680,736200,772715,739947,2229,2938,2238,-1972,3826,-276,-926,6065,44,60,882
1144914,770816,736484,772912,740144,2331,2475,2086,-2114,3767,-273,-539,5925,44,60,882
1145915,770944,736760,773109,740341,2411,2491,1934,-2252,3702,-112,13,6051,28,57,883
1146916,771060,737012,773306,740538,2523,2618,1756,-2336,3666,353,242,6362,28,57,883
1147917,771180,737216,773503,740735,2531,2915,1575,-2377,3669,694,422,6300,21,42,884
1148918,771300,737452,773700,740932,2566,2699,1427,-2458,3663,587,465,6152,21,42,884
1149919,771412,737748,773897,741129,2654,2281,1311,-2607,3593,631,554,5916,31,49,882
1150920,771508,738004,774094,741326,2799,2505,1226,-2830,3469,794,760,5702,31,49,882
1151921,771648,738272,774291,741523,2549,2400,1176,-3085,3332,907,942,5465,20,55,881
1152922,771780,738504,774488,741720,2629,2611,1149,-3349,3210,1026,1051,5332,20,55,881
1153923,771904,738732,774685,741917,2711,2622,1134,-3559,3140,883,652,5521,34,43,882
1154924,772016,739044,774882,742114,2824,2048,1106,-3687,3131,556,26,5819,34,43,882
1155925,772148,739292,775079,742311,2728,2425,1102,-3759,3117,425,-88,5650,24,63,882
1156926,772276,739564,775276,742508,2784,2243,1168,-3969,3039,574,289,5123,24,63,882
1157927,772368,739812,775473,742705,3055,2372,1283,-4257,2924,769,403,4938,22,58,883
1158928,772456,740052,775670,742902,3129,2403,1421,-4505,2791,786,322,4991,22,58,883
1159929,772560,740316,775867,743099,3071,2224,1569,-4603,2647,653,45,5281,25,58,881
1160930,772652,740636,776064,743296,3192,1820,1732,-4600,2530,761,-239,5419,25,58,881
1161931,772756,740944,776261,743493,3159,1848,1908,-4529,2412,889,-263,5425,14,57,879
1162932,772892,741224,776458,743690,2987,1986,2125,-4439,2260,876,-216,5118,14,57,879
1163933,773048,741484,776655,743887,2880,2085,2368,-4436,2118,743,-455,4884,28,58,882
1164934,773220,741780,776852,744084,2792,1816,2599,-4332,1996,329,-997,5173,28,58,882
1165935,773400,742128,777049,744281,2750,1426,2798,-4078,1928,-201,-1690,5544,51,71,883
1166936,773524,742424,777246,744478,3132,1707,3004,-3695,1959,-480,-2204,5460,51,71,883
1167937,773620,742720,777443,744675,3353,1664,3271,-3479,1984,-291,-1713,4799,39,58,885
1168938,773720,743032,777640,744872,3371,1514,3576,-3419,1917,241,-890,4428,39,58,885
1169939,773792,743364,777837,745069,3601,1330,3870,-3329,1781,723,-766,4211,32,71,883
1170940,773888,743756,778034,745266,3496,869,4161,-3196,1622,854,-1036,4078,32,71,883
1171941,774004,744088,778231,745463,3408,1186,4444,-2981,1528,883,-1405,4499,30,68,881
1172942,774156,744392,778428,745660,3204,1314,4701,-2611,1488,1050,-1342,4619,30,68,881
1173950,774332,744768,778658,745890,3079,800,4942,-2228,1452,1298,-1153,4231,41,77,883
1174944,774508,745132,778855,746087,3088,801,5194,-1937,1389,1378,-971,3784,41,77,883
1175945,774708,745444,779052,746284,2937,1077,5464,-1781,1308,1264,-1116,3379,35,74,884
1176946,774868,745772,779249,746481,3205,919,5742,-1579,1243,1088,-1456,3278,35,74,884
1177947,774976,746100,779446,746678,3570,862,5988,-1345,1188,1091,-1474,3281,47,65,887
1178948,775100,746396,779643,746875,3503,1018,6159,-1008,1091,1364,-1206,3367,47,65,887
1179950,775220,746696,779840,747072,3563,948,6277,-619,929,1742,-867,3066,31,54,885
1180950,775356,746952,780037,747269,3491,1197,6401,-198,788,2089,-716,3010,31,54,885
1181952,775564,747216,780234,747466,3036,1117,6491,329,624,1961,-311,3116,20,55,882
1182953,775772,747508,780431,747663,3032,901,6540,926,448,1609,-406,3140,20,55,882
1183954,775944,747772,780628,747860,3269,1046,6560,1557,298,1557,-488,3165,34,64,882
1184954,776108,748012,780825,748057,3334,1177,6560,2171,164,1737,-390,2705,34,64,882
1185955,776264,748272,781022,748254,3403,1025,6553,2605,32,1884,-419,1894,35,48,887
1186956,776400,748500,781219,748451,3556,1211,6484,2963,-157,1983,-210,1768,35,48,887
1187958,776556,748756,781416,748648,3450,1010,6348,3290,-416,2010,54,1466,18,51,884
1188958,776712,748988,781613,748845,3469,1145,6152,3564,-674,2293,148,1208,18,51,884
1189960,776920,749224,781810,749042,3140,1103,5918,3829,-940,2493,240,781,27,54,882
1190960,777148,749440,782007,749239,3003,1219,5650,3940,-1242,2330,448,275,27,54,882
1191961,777368,749636,782204,749436,3044,1345,5361,4051,-1583,2159,579,260,42,47,883
1192962,777540,749836,782401,749633,3355,1318,5082,3990,-1918,2001,704,-587,42,47,883
1193963,777728,750020,782598,749830,3260,1424,4787,3793,-2242,2022,727,-983,43,45,885
1194964,777884,750232,782795,750027,3479,1242,4412,3609,-2614,1965,1008,-820,43,45,885
1195965,778076,750456,782992,750224,3257,1156,3996,3375,-3029,1903,1361,-1227,44,51,883
1196966,778324,750648,783189,750421,2885,1358,3561,3105,-3455,1992,1558,-1361,44,51,883
1197968,778540,750852,783386,750618,3078,1280,3140,2885,-3885,1615,1855,-1398,38,38,882
1198968,778776,751060,783583,750815,2937,1250,2724,2684,-4310,917,1990,-1309,38,38,882
1199970,778992,751232,783780,751012,3055,1486,2316,2441,-4746,396,2148,-1425,58,41,886
1200970,779124,751408,783977,751209,3609,1470,1924,2223,-5143,493,2269,-1253,58,41,886
1201971,779292,751612,784174,751406,3398,1292,1455,2088,-5501,818,2370,-1012,43,37,886
1202972,779472,751824,784371,751603,3331,1235,919,2076,-5786,940,2051,-686,43,37,886
1203973,779684,752036,784568,751800,3126,1229,380,2142,-5945,655,1730,-536,38,33,879
1204974,779884,752244,784765,751997,3200,1249,-109,2079,-6004,37,1636,-889,38,33,879
1205976,780080,752424,784962,752194,3227,1431,-546,1916,-6002,-299,1653,-964,55,44,882
1206976,780252,752572,785159,752391,3388,1652,-930,1704,-5960,-192,1962,-927,55,44,882
1207978,780384,752744,785356,752588,3667,1513,-1310,1383,-5894,71,1767,-980,45,32,884
1208978,780524,752948,785553,752785,3644,1310,-1712,1151,-5783,296,1360,-629,45,32,884
1209979,780700,753112,785750,752982,3429,1574,-2126,1003,-5584,384,873,-312,17,37,881
1210980,780932,753296,785947,753179,3064,1455,-2501,912,-5314,338,553,-43,17,37,881
1211981,781140,753440,786144,753376,3211,1728,-2824,814,-5058,-102,627,167,41,25,881
1212982,781396,753608,786341,753573,2886,1591,-3148,772,-4858,-408,458,537,65,37,885
1213983,781596,753724,786538,753770,3235,1952,-3464,665,-4703,-482,641,360,65,37,885
1214984,781748,753868,786735,753967,3556,1800,-3778,447,-4586,-208,905,496,26,38,884
1215985,781928,754016,786932,754164,3390,1797,-4114,308,-4464,298,509,1178,26,38,884
1216986,782128,754144,787129,754361,3264,1952,-4482,288,-4312,639,36,1423,37,40,879
1217987,782336,754272,787326,754558,3210,1982,-4828,302,-4213,825,147,1570,37,40,879
1218988,782588,754460,787523,754755,2912,1611,-5161,244,-4161,844,-27,1870,51,38,881
1219989,782848,754672,787720,754952,2836,1456,-5438,217,-4082,772,-255,2122,51,38,881
1220990,783076,754848,787917,755149,3023,1690,-5629,37,-3985,566,167,1612,44,40,885
1221992,783288,754996,788114,755346,3117,1886,-5770,-334,-3892,903,404,1615,44,40,885
1222992,783524,755144,788311,755543,2951,1908,-5943,-745,-3812,1846,633,1814,39,36,884
1223993,783716,755312,788508,755740,3228,1796,-6147,-1096,-3744,2598,701,2005,39,36,884
1224994,783980,755448,788705,755937,2750,2022,-6347,-1540,-3715,2833,1057,1908,58,45,883
1225995,784212,755632,788902,756134,2936,1728,-6533,-1907,-3688,2445,619,2637,58,45,883
1226996,784444,755812,789099,756331,2921,1761,-6711,-2137,-3654,1924,745,3310,38,30,884
1227997,784652,755972,789296,756528,3067,1902,-6862,-2231,-3584,1850,558,3825,38,30,884
1228998,784944,756132,789493,756725,2502,1918,-6993,-2206,-3551,2181,900,4176,33,38,884
1229999,785148,756288,789690,756922,3049,1961,-7101,-2061,-3541,2657,1106,4732,33,38,884
1231000,785384,756464,789887,757119,2833,1845,-7199,-1814,-3533,2654,1014,5377,59,28,886
1232001,785612,756600,790084,757316,2871,2123,-7286,-1367,-3539,1758,646,6222,59,28,886
1233002,785828,756732,790281,757513,2937,2177,-7296,-886,-3520,813,466,6441,37,23,884
1234003,786016,756856,790478,757710,3117,2259,-7225,-458,-3470,664,366,6439,37,23,884
1235004,786292,756988,790675,757907,2534,2237,-7110,-94,-3407,1265,464,6348,36,36,882
1236005,786516,757108,790872,758104,2848,2346,-6985,209,-3367,1735,800,6268,36,36,882
1237006,786792,757320,791069,758301,2489,1765,-6844,530,-3344,1404,380,6776,53,28,884
1238007,787060,757488,791266,758498,2509,2053,-6688,887,-3258,644,-201,7074,53,28,884
1239008,787344,757620,791463,758695,2371,2307,-6440,1163,-3054,19,-475,7073,42,39,886
1240009,787648,757796,791660,758892,2200,2041,-6159,1324,-2840,-112,-447,6831,42,39,886
1241010,787956,757912,791857,759089,2127,2452,-5852,1298,-2748,527,420,6137,67,28,885
1242011,788256,758060,792054,759286,2133,2273,-5578,1192,-2677,1319,467,6164,67,28,885
1243012,788532,758216,792251,759483,2248,2242,-5334,1092,-2450,1423,-289,6673,72,38,885
1244013,788876,758340,792448,759680,1759,2474,-4627,1542,-2059,208,-1171,11093,72,38,885
1245014,789116,758504,792645,759877,2391,2239,-1994,6075,-1314,-2310,-3412,32767,61,41,885
1246015,789396,758648,792842,760074,2105,2387,877,9738,-758,-861,-1226,21188,61,41,885
1247017,789744,758804,793039,760271,1614,2331,1883,9316,-587,1092,800,2822,72,40,885
1248017,790088,758956,793236,760468,1576,2376,1906,6947,-560,1571,856,1806,72,40,885
1249018,790488,759108,793433,760665,1137,2396,1682,4765,-510,1144,155,2833,58,26,886
1250019,790864,759256,793630,760862,1209,2443,1683,3597,-406,297,108,3409,58,26,886
1251020,791184,759428,793827,761059,1505,2304,1654,2769,-331,340,343,4084,64,28,889
1252021,791540,759580,794024,761256,1211,2449,1548,2341,-382,556,657,4868,64,28,889
1253022,791940,759712,794221,761453,847,2603,1384,1589,-585,-228,1731,4112,63,43,889
1254024,792280,759900,794418,761650,1160,2258,1224,627,-990,-798,2771,3860,63,43,889
1255025,792600,760040,794615,761847,1231,2583,1047,-316,-1550,-1113,3294,3957,58,44,889
1256026,792928,760200,794812,762044,1124,2474,816,-913,-2034,-1366,2777,5250,58,44,889
1257033,793256,760356,795042,762274,1081,2532,495,-1093,-2323,-1434,1927,5993,67,27,887
1258027,793560,760544,795239,762471,1184,2336,147,-1261,-2423,-1693,1253,6006,67,27,887
1259028,793856,760740,795436,762668,1192,2288,-288,-1153,-2345,-2175,626,6851,67,38,888
1260029,794176,760944,795633,762865,988,2235,-638,-1116,-2329,-2328,1741,6012,67,38,888
1261030,794464,761104,795830,763062,1148,2526,-881,-1271,-2387,-2395,1776,5804,61,36,890
1262031,794744,761296,796027,763259,1161,2329,-984,-1659,-2393,-2254,1045,4993,61,36,890
1263032,795020,761484,796224,763456,1153,2358,-991,-2123,-2391,-1812,1284,4639,44,34,889
1264033,795312,761684,796421,763653,1011,2282,-944,-2523,-2429,-1657,1947,4788,44,34,889
1265034,795560,761904,796618,763850,1263,2148,-853,-2915,-2364,-1491,1964,4791,46,40,889
1266035,795844,762108,796815,764047,1000,2245,-835,-3110,-2191,-1528,1472,5611,46,40,889
1267036,796124,762284,797012,764244,990,2429,-801,-3049,-1922,-1531,1215,5773,50,46,890
1268037,796368,762448,797209,764441,1194,2519,-639,-3001,-1585,-1678,1295,5657,50,46,890
1269038,796624,762644,797406,764638,1093,2320,-429,-3066,-1219,-2017,1174,5567,35,45,889
1270039,796820,762852,797603,764835,1469,2241,-258,-3095,-878,-2530,1116,5615,35,45,889
1271040,797028,763048,797800,765032,1389,2316,-140,-3166,-594,-2725,1048,5193,39,49,889
1272041,797244,763252,797997,765229,1330,2263,-71,-3349,-381,-2574,909,4860,39,49,889
1273042,797432,763452,798194,765426,1509,2288,-52,-3523,-191,-2366,878,4797,39,37,889
1274043,797664,763652,798391,765623,1220,2287,-73,-3702,-4,-1909,867,4603,39,37,889
1275044,797872,763884,798588,765820,1365,2071,-131,-3878,193,-1445,619,4559,34,42,889
1276045,798100,764064,798785,766017,1227,2405,-243,-3818,449,-1313,-116,5237,34,42,889
1277046,798304,764268,798982,766214,1373,2252,-388,-3629,727,-1147,-662,5486,39,33,890
1278048,798528,764464,799179,766411,1237,2303,-478,-3500,846,-877,-325,4888,39,33,890
1279048,798724,764660,799376,766608,1412,2304,-482,-3485,781,-488,-70,4475,29,49,889
1280049,798888,764860,799573,766805,1627,2277,-460,-3609,610,74,-86,3928,29,49,889
1281050,799108,765068,799770,767002,1266,2223,-492,-3748,439,488,-608,4258,45,45,888
1282051,799288,765224,799967,767199,1525,2566,-547,-3749,333,665,-941,4326,45,45,888
1283052,799472,765388,800164,767396,1506,2531,-605,-3829,290,1078,-1163,3936,39,38,890
1284053,799700,765572,800361,767593,1217,2413,-674,-3981,323,1647,-1605,3673,39,38,890
1285054,799904,765732,800558,767790,1364,2579,-743,-4207,409,2083,-1544,3598,50,36,887
1286056,800092,765936,800755,767987,1468,2302,-852,-4333,484,2525,-1640,3915,50,36,887
1287056,800276,766104,800952,768184,1499,2540,-937,-4458,543,2864,-1966,3589,28,29,888
1288057,800472,766288,801149,768381,1424,2445,-960,-4600,627,3067,-2177,3407,28,29,888
1289058,800636,766420,801346,768578,1640,2800,-940,-4798,758,3370,-2440,3495,39,32,887
1290059,800812,766584,801543,768775,1574,2614,-914,-4922,919,3680,-2720,3688,39,32,887
1291060,801020,766780,801740,768972,1369,2416,-870,-5022,1072,3771,-2824,3654,42,38,885
1292061,801240,766944,801937,769169,1284,2630,-809,-5038,1182,3754,-2976,3953,42,38,885
1293062,801420,767104,802134,769366,1541,2672,-745,-4865,1256,3756,-3316,4548,44,35,887
1294064,801612,767276,802331,769563,1468,2609,-678,-4470,1346,3753,-3617,5114,44,35,887
1295064,801780,767468,802528,769760,1631,2486,-569,-3947,1459,3792,-3745,5390,40,29,887
1296065,801932,767648,802725,769957,1751,2569,-369,-3435,1533,3688,-3612,5243,40,29,887
1297066,802092,767832,802922,770154,1718,2550,-92,-2924,1524,3403,-3512,5249,24,43,887
1298067,802224,768024,803119,770351,1922,2503,211,-2331,1444,3203,-3644,5526,24,43,887
1299068,802344,768192,803316,770548,2031,2666,506,-1638,1330,3076,-3531,5816,24,37,886
1300069,802456,768364,803513,770745,2118,2653,763,-759,1180,2886,-2811,6158,24,37,886
1301070,802620,768532,803710,770942,1808,2691,973,36,983,2738,-2189,5764,45,46,884
1302071,802788,768752,803907,771139,1796,2355,1174,666,744,2611,-1675,5331,45,46,884
1303072,802956,768936,804104,771336,1809,2587,1391,1111,493,2479,-944,4579,40,50,884
1304073,803116,769112,804301,771533,1875,2646,1629,1348,245,2459,-554,3948,40,50,884
1305074,803264,769308,804498,771730,1972,2523,1865,1608,50,2382,-602,4069,29,35,885
1306075,803412,769504,804695,771927,1993,2523,2120,1884,-19,2324,-839,3848,29,35,885
1307076,803548,769732,804892,772124,2096,2311,2327,2151,-38,2496,-881,3680,43,48,885
1308077,803688,769952,805089,772321,2096,2351,2466,2332,-90,2500,-547,3162,43,48,885
1309078,803816,770168,805286,772518,2201,2368,2547,2332,-219,2118,-156,2606,40,36,885
1310079,803932,770376,805483,772715,2312,2413,2592,2200,-440,1788,57,2337,40,36,885
1311081,804048,770568,805680,772912,2349,2517,2658,2094,-601,1604,-248,2202,19,52,885
1312081,804172,770820,805877,773109,2331,2117,2723,2126,-628,1424,-667,2585,19,52,885
1313082,804308,771104,806074,773306,2283,1879,2732,2163,-614,1094,-728,2316,33,48,883
1314083,804432,771392,806271,773503,2391,1815,2716,2126,-629,655,-633,2161,33,48,883
1315084,804556,771676,806468,773700,2423,1802,2734,2183,-659,349,-810,2350,17,63,886
1316085,804668,771900,806665,773897,2535,2166,2745,2334,-681,237,-949,2633,17,63,886
1317086,804792,772044,806862,774094,2493,2689,2736,2631,-677,61,-916,3098,17,48,886
1318087,804912,772172,807059,774291,2552,2820,2705,2963,-686,-252,-856,2939,17,48,886
1319088,805068,772320,807256,774488,2346,2717,2647,3189,-790,-530,-522,2438,44,34,882
1320089,805232,772468,807453,774685,2311,2739,2568,3357,-933,-679,-383,2539,44,34,882
1321090,805400,772668,807650,774882,2298,2413,2490,3555,-1016,-602,-507,2687,35,34,882
1322091,805568,772900,807847,775079,2312,2198,2409,3819,-1045,-451,-414,2641,35,34,882
1323092,805740,773196,808044,775276,2298,1755,2336,3960,-1105,-525,233,2020,31,63,883
1324093,805896,773564,808241,775473,2417,1230,2273,3909,-1232,-393,781,1668,31,63,883
1325094,806116,773824,808438,775670,2007,1878,2204,3775,-1394,-234,1019,1555,51,75,886
1326095,806300,774164,808635,775867,2239,1316,2156,3766,-1473,-268,852,1825,51,75,886
1327096,806500,774496,808832,776064,2137,1307,2120,3735,-1482,-236,1090,1739,36,77,889
1328097,806724,774792,809029,776261,1976,1488,2068,3647,-1513,-245,1410,1499,36,77,889
1329098,806936,775164,809226,776458,2045,936,1977,3549,-1591,-299,1437,1643,60,66,890
1330099,807140,775488,809423,776655,2092,1181,1857,3527,-1663,-231,1028,1774,60,66,890
1331100,807388,775808,809620,776852,1795,1152,1700,3509,-1664,-85,605,1933,46,74,892
1332101,807616,776100,809817,777049,1907,1286,1509,3610,-1629,-124,454,2398,46,74,892
1333102,807844,776444,810014,777246,1894,896,1249,3748,-1654,-54,520,2319,44,66,892
1334103,808084,776836,810211,777443,1800,510,902,3847,-1775,85,706,2334,44,66,892
1335104,808320,777208,810408,777640,1808,559,504,4016,-1937,259,789,2710,62,76,892
1336105,808520,777524,810605,777837,2033,857,77,4157,-2108,590,885,2556,62,76,892
1337106,808752,777900,810802,778034,1817,403,-382,4260,-2251,1026,846,2540,58,66,894
1338107,808960,778268,810999,778231,1964,378,-835,4322,-2337,1367,934,2463,58,66,894
1339108,809172,778596,811196,778428,1932,571,-1328,4223,-2465,1508,1431,2182,53,59,894
1340118,809384,778912,811426,778658,1940,608,-1854,4030,-2708,1517,1819,2097,53,59,894
1341110,809580,779220,811623,778855,2041,609,-2360,3760,-2993,1706,2029,1781,55,66,894
1342111,809748,779560,811820,779052,2229,346,-2878,3399,-3263,1996,2028,1701,55,66,894
1343113,809940,779836,812017,779249,2082,711,-3353,3068,-3476,2052,1644,1746,29,51,892
1344114,810100,780100,812214,779446,2299,756,-3703,2643,-3643,1927,1301,1296,29,51,892
1345115,810244,780404,812411,779643,2422,459,-3934,2200,-3814,1757,1000,1330,34,41,892
1346115,810388,780660,812608,779840,2446,733,-4094,1765,-3957,1484,269,1568,34,41,892
1347116,810544,780872,812805,780037,2389,1002,-4231,1434,-4076,1193,-289,1859,40,46,890
1348117,810688,781060,813002,780234,2488,1156,-4362,1263,-4247,857,-400,2240,40,46,890
1349118,810832,781212,813199,780431,2512,1400,-4460,1198,-4470,538,-396,2626,35,41,890
1350119,810976,781436,813396,780628,2536,937,-4522,1217,-4694,444,-536,3012,35,41,890
1351120,811148,781644,813593,780825,2372,1033,-4565,1322,-4885,280,-481,3180,29,51,887
1352121,811304,781832,813790,781022,2490,1162,-4583,1441,-5035,182,-458,3408,29,51,887
1353122,811480,782052,813987,781219,2375,951,-4585,1602,-5117,184,-933,3600,37,37,890
1354123,811636,782264,814184,781416,2518,995,-4564,1778,-5118,218,-1486,3733,37,37,890
1355124,811796,782456,814381,781613,2510,1122,-4513,1954,-5077,176,-1633,3584,25,31,890
1356125,811968,782648,814578,781810,2446,1124,-4414,2019,-5023,152,-1625,3326,25,31,890
1357126,812128,782824,814775,782007,2539,1232,-4293,2050,-4944,320,-1679,3476,31,32,888
1358127,812284,782960,814972,782204,2582,1509,-4145,2123,-4818,487,-1452,3622,31,32,888
1359128,812472,783116,815169,782401,2387,1402,-3971,2238,-4689,544,-826,3737,42,38,887
1360129,812604,783304,815366,782598,2765,1206,-3782,2310,-4611,428,-247,3687,42,38,887
1361130,812760,783472,815563,782795,2634,1344,-3602,2339,-4582,304,11,3697,37,40,888
1362131,812916,783672,815760,782992,2652,1143,-3441,2349,-4584,135,114,3779,37,40,888
1363132,813068,783836,815957,783189,2698,1382,-3306,2364,-4588,-168,-434,3840,26,48,886
1364133,813212,784012,816154,783386,2772,1315,-3194,2375,-4545,-482,-1516,3846,26,48,886
1365134,813388,784160,816351,783583,2582,1512,-3090,2322,-4468,-743,-2164,3782,43,35,887
1366135,813540,784324,816548,783780,2752,1426,-2974,2171,-4425,-999,-2253,3554,43,35,887
1367136,813680,784452,816745,783977,2852,1682,-2842,1982,-4433,-1236,-2112,3583,35,40,886
1368137,813888,784592,816942,784174,2424,1632,-2722,1775,-4455,-1466,-1898,3633,35,40,886
1369138,814052,784688,817139,784371,2713,1951,-2620,1527,-4443,-1657,-1550,3642,29,19,883
1370139,814220,784800,817336,784568,2702,1889,-2506,1307,-4375,-1868,-1358,3815,29,19,883
1371140,814412,784900,817533,784765,2555,2006,-2354,1061,-4227,-2006,-1507,3822,45,24,885
1372141,814588,784988,817730,784962,2664,2129,-2164,742,-4008,-2095,-1631,3738,45,24,885
1373142,814756,785092,817927,785159,2728,2070,-1939,365,-3728,-2123,-1811,3845,48,20,884
1374143,814972,785160,818124,785356,2420,2352,-1680,52,-3376,-2176,-1822,4192,48,20,884
1375144,815168,785244,818321,785553,2546,2301,-891,532,-2906,-2461,-2028,11280,46,22,884
1376145,815340,785320,818518,785750,2708,2404,1286,3921,-2158,-3126,-2584,32767,46,22,884
1377146,815540,785384,818715,785947,2532,2538,3254,6351,-1521,-2120,-292,14791,31,30,883
1378147,815700,785464,818912,786144,2799,2489,3828,6014,-1085,-1280,561,2747,31,30,883
1379148,815836,785544,819109,786341,2976,2541,3668,4162,-658,-591,587,1464,25,14,881
1380149,816016,785624,819306,786538,2709,2592,3425,2533,-151,-146,236,1972,25,14,881
1381150,816168,785712,819503,786735,2905,2590,3255,1545,438,-58,86,2580,44,19,879
1382151,816316,785812,819700,786932,2952,2559,2987,1018,990,173,77,3769,44,19,879
1383152,816456,785892,819897,787129,3028,2735,2593,901,1414,357,286,4846,26,12,879
1384154,816600,785968,820094,787326,3027,2813,2152,753,1702,21,787,4761,26,12,879
1385154,816728,786040,820291,787523,3157,2893,1690,659,1744,-238,1805,5157,21,20,878
1386155,816864,786132,820488,787720,3135,2815,1185,528,1512,-370,3079,4947,21,20,878
1387156,817008,786216,820685,787917,3109,2915,641,397,1166,-581,3236,5159,22,28,876
1388157,817136,786292,820882,788114,3240,3018,82,375,838,-715,2456,5530,22,28,876
1389158,817296,786372,821079,788311,3057,3046,-417,300,599,-859,1807,5191,45,25,876
1390159,817452,786456,821276,788508,3101,3070,-784,271,437,-957,1810,5450,45,25,876
1391160,817608,786548,821473,788705,3120,3066,-1008,113,331,-970,1526,4789,25,24,875
1392161,817744,786644,821670,788902,3272,3087,-1128,-282,241,-1092,1454,4338,25,24,875
1393162,817896,786744,821867,789099,3193,3104,-1178,-739,114,-1311,1542,4090,36,34,875
1394163,818024,786844,822064,789296,3374,3148,-1185,-1359,-24,-1265,1091,3745,36,34,875
1395164,818136,786976,822261,789493,3512,2977,-1153,-1860,-103,-1215,436,3978,38,24,875
1396165,818276,787076,822458,789690,3362,3220,-1089,-2300,-140,-1338,232,4236,38,24,875
1397166,818400,787196,822655,789887,3495,3129,-1022,-2584,-176,-1449,2,4697,19,31,873
1398167,818512,787316,822852,790084,3609,3164,-964,-2814,-203,-1664,-250,4819,19,31,873
1399168,818644,787436,823049,790281,3513,3198,-925,-3056,-222,-1930,-210,4727,26,33,873
1400169,818776,787572,823246,790478,3543,3126,-902,-3253,-265,-2071,-8,4936,26,33,873
1401170,818916,787680,823443,790675,3518,3340,-861,-3341,-342,-2211,257,5199,22,26,871
1402171,819044,787820,823640,790872,3624,3166,-816,-3338,-422,-2293,302,5465,22,26,871
1403172,819200,787940,823837,791069,3468,3325,-779,-3281,-505,-2350,584,5575,22,28,871
1404173,819356,788064,824034,791266,3487,3333,-730,-3216,-600,-2446,796,5716,22,28,871
1405174,819508,788192,824231,791463,3533,3339,-680,-3069,-686,-2442,621,5922,31,37,872
1406175,819668,788324,824428,791660,3500,3343,-625,-2947,-751,-2342,511,5686,31,37,872
1407176,819824,788448,824625,791857,3544,3426,-552,-2882,-797,-2264,449,5423,24,34,871
1408177,819992,788576,824822,792054,3483,3432,-450,-2891,-816,-2214,237,5273,24,34,871
1409178,820136,788716,825019,792251,3657,3382,-327,-2947,-809,-2098,136,5068,42,24,870
1410179,820288,788836,825216,792448,3628,3542,-178,-3030,-777,-1998,63,5061,42,24,870
