"Data file recorded 2014/9/22  15:34:17"
"%  Right Stride Frequency         = 3.0"
"%  Left Stride Frequency         = 3.0"
"%  Phase (Fractional)         = 32768.0"
"%  Experiment.py "
"%  Motor Gains    = [1800, 200, 100, 0, 0, 1800, 200, 100, 0, 0]
"% Columns: "
"% time | Right Leg Pos | Left Leg Pos | Commanded Right Leg Pos | Commanded Left Leg Pos | DCR | DCL | GyroX | GryoY | GryoZ | AX | AY | AZ | RBEMF | LBEMF | VBatt "
11143,2409012,2427880,2385678,2483982,-3800,3800,-4,133,239,364,-359,4127,10,8,893
12137,2409004,2427892,2385875,2484179,-3800,3800,-3,133,240,347,-373,4060,9,-8,894
13138,2408976,2427956,2386072,2484376,-3800,3800,-4,119,241,317,-387,4031,9,-8,894
14139,2408880,2428080,2386269,2484573,-3800,3800,-6,126,236,336,-380,4066,-34,12,852
15140,2408660,2428252,2386466,2484770,-3800,3800,-13,162,218,310,-253,4050,-34,12,852
16141,2408412,2428448,2386663,2484967,-3800,3800,-22,168,195,355,-157,4114,-60,19,854
17142,2408104,2428664,2386860,2485164,-3800,3800,-31,175,172,532,146,4020,-60,19,854
18143,2407728,2428908,2387057,2485361,-3800,3800,-54,130,148,591,286,4097,-82,46,855
19144,2407272,2429148,2387254,2485558,-3800,3800,-88,179,129,448,333,4230,-82,46,855
20146,2406812,2429436,2387451,2485755,-3800,3800,-120,214,115,454,529,4149,-88,42,856
21134,2406228,2429716,2387648,2485952,-3327,3800,-153,181,92,877,696,3915,-88,42,856
22135,2405644,2429988,2387845,2486149,-2986,3800,-197,126,65,1440,826,3963,-118,40,858
23136,2405024,2430248,2388042,2486346,-2406,3800,-282,129,31,2160,1328,3925,-118,40,858
24137,2404344,2430504,2388239,2486543,-1649,3800,-341,44,-29,2873,1858,3517,-121,44,861
25138,2403696,2430712,2388436,2486740,-1481,3800,-422,-88,-91,3320,1813,3680,-121,44,861
26139,2403048,2430904,2388633,2486937,-1112,3800,-490,-71,-141,3184,1338,3941,-132,34,864
27140,2402392,2431088,2388830,2487134,-690,3800,-584,-62,-213,2876,1006,3777,-132,34,864
28141,2401780,2431280,2389027,2487331,-612,3800,-659,-34,-302,2845,783,3929,-111,27,867
29142,2401256,2431428,2389224,2487528,-848,3800,-771,130,-368,2700,183,4453,-111,27,867
30143,2400724,2431600,2389421,2487725,-480,3800,-885,475,-378,2133,-540,4741,-87,24,869
31144,2400268,2431752,2389618,2487922,-670,3800,-988,809,-342,1258,-1155,4950,-87,24,869
32145,2399872,2431928,2389815,2488119,-786,3800,-1063,1069,-254,841,-1545,4960,-69,28,870
33146,2399468,2432096,2390012,2488316,-474,3800,-1113,1356,-147,498,-1492,4904,-69,28,870
34147,2399156,2432252,2390209,2488513,-827,3800,-1113,1523,-77,-403,-1218,4384,-70,35,869
35148,2398856,2432428,2390406,2488710,-686,3800,-1015,1385,-88,-1263,-893,3660,-70,35,869
36149,2398588,2432584,2390603,2488907,-683,3800,-888,1088,-156,-1658,-521,3537,-60,19,867
37150,2398340,2432748,2390800,2489104,-614,3800,-750,803,-225,-1924,-284,3600,-60,19,867
38151,2398176,2432888,2390997,2489301,-981,3800,-648,573,-237,-2037,-733,3847,-38,33,866
39152,2398016,2433064,2391194,2489498,-851,3800,-592,436,-72,-1872,-1568,4330,-38,33,866
40153,2397884,2433248,2391391,2489695,-883,3800,-604,510,266,-1780,-1540,5007,-25,41,867
41154,2397796,2433492,2391588,2489892,-1034,3800,-638,615,632,-1792,-1392,4921,-25,41,867
42155,2397724,2433704,2391785,2490089,-1016,3800,-651,580,924,-2086,-1762,4536,-2,34,868
43156,2397724,2433948,2391982,2490286,-1382,3800,-646,551,1174,-2664,-2335,4838,-2,34,868
44157,2397700,2434192,2392179,2490483,-1136,3800,-591,456,1388,-3158,-2291,4482,-8,54,868
45158,2397692,2434412,2392376,2490680,-1147,3800,-481,318,1544,-3261,-2458,4423,-8,54,868
46158,2397684,2434644,2392573,2490877,-1058,3800,-399,408,1706,-3298,-2851,5058,0,37,866
47159,2397676,2434904,2392770,2491074,-968,3800,-384,580,1946,-3189,-3488,5289,0,37,866
48160,2397668,2435092,2392967,2491271,-879,3800,-432,830,2245,-2587,-3867,5553,-7,35,866
49161,2397664,2435272,2393164,2491468,-817,3800,-509,1124,2582,-2168,-3887,5595,-7,35,866
50163,2397656,2435428,2393361,2491665,-702,3800,-580,1293,2900,-2005,-3341,5442,-4,27,867
51163,2397676,2435588,2393558,2491862,-800,3800,-612,1328,3098,-1686,-2251,4894,-4,27,867
52164,2397668,2435720,2393755,2492059,-536,3800,-565,1117,3183,-1392,-1110,4229,-5,20,867
53166,2397676,2435832,2393952,2492256,-554,3800,-453,840,3216,-1073,-295,4160,-5,20,867
54167,2397684,2435944,2394149,2492453,-472,3800,-324,537,3252,-701,133,4026,-2,17,868
55168,2397668,2436068,2394346,2492650,-228,3800,-200,166,3328,-197,458,4126,-2,17,868
56168,2397676,2436144,2394543,2492847,-296,3800,-110,-91,3426,305,952,4626,-4,9,867
57169,2397664,2436220,2394740,2493044,-79,3800,-25,-319,3491,510,1524,4450,-4,9,867
58171,2397664,2436280,2394937,2493241,-69,3800,114,-738,3482,436,1906,4123,1,8,867
59171,2397652,2436368,2395134,2493438,97,3800,354,-1229,3412,244,1693,3878,1,8,867
60172,2397668,2436436,2395331,2493635,1,3800,682,-1867,3273,-97,1392,3536,-3,12,868
61173,2397660,2436556,2395528,2493832,242,3800,1072,-2519,3042,-476,1237,3452,-3,12,868
62174,2397684,2436680,2395725,2494029,117,3800,1411,-3045,2694,-889,437,3936,6,14,869
63175,2397676,2436816,2395922,2494226,407,3800,1562,-3115,2334,-814,-2177,5079,6,14,869
64176,2397684,2436972,2396119,2494423,389,3800,981,-2185,1781,-391,-9999,2353,-5,33,869
65177,2397692,2437108,2396316,2494620,472,3800,480,-1498,1472,-1232,-3454,4844,-5,33,869
66178,2397704,2437252,2396513,2494817,528,3800,397,-1206,1409,-1015,-320,5445,8,26,869
67179,2397692,2437440,2396710,2495014,770,3800,582,-1521,1370,-781,772,4179,8,26,869
68180,2397712,2437640,2396907,2495211,647,3800,747,-1837,1290,-281,1296,4516,20,41,869
69181,2397732,2437812,2397104,2495408,725,3800,714,-1939,1255,284,1387,4844,20,41,869
70182,2397776,2438008,2397301,2495605,642,3800,631,-2000,1341,272,1006,4642,5,37,867
71183,2397832,2438164,2397498,2495802,629,3800,485,-1855,1496,125,471,5394,5,37,867
72184,2397908,2438344,2397695,2495999,557,3800,430,-1833,1636,-261,375,4272,8,36,867
73185,2397984,2438508,2397892,2496196,610,3800,510,-2165,1722,-681,713,3366,8,36,867
74186,2398080,2438712,2398089,2496393,529,3800,681,-2509,1760,-782,947,3595,10,42,868
75187,2398148,2438908,2398286,2496590,761,3800,879,-2883,1832,-806,687,3343,10,42,868
76188,2398228,2439088,2398483,2496787,738,3800,1036,-2979,1966,-826,551,4209,13,33,868
77189,2398320,2439292,2398680,2496984,709,3800,1086,-2795,2146,-851,378,5001,13,33,868
78190,2398388,2439488,2398877,2497181,915,3800,1135,-2501,2262,-1131,492,4811,11,28,867
79191,2398488,2439716,2399074,2497378,758,3800,1273,-2252,2233,-1590,750,4609,11,28,867
80192,2398596,2439924,2399271,2497575,747,3800,1469,-2125,2114,-1790,790,4427,25,47,867
81193,2398700,2440128,2399468,2497772,813,3800,1635,-1908,1969,-1554,615,4829,25,47,867
82194,2398796,2440404,2399665,2497969,908,3800,1752,-1598,1860,-1361,232,4795,36,48,868
83195,2398912,2440704,2399862,2498166,819,3800,1837,-1236,1816,-1204,-333,4882,36,48,868
84196,2399020,2440968,2400059,2498363,908,3800,1891,-835,1796,-910,-626,4847,17,65,869
85198,2399120,2441272,2400256,2498560,1001,3800,1956,-550,1780,-658,-652,4354,17,65,869
86199,2399244,2441632,2400453,2498757,883,3800,2039,-358,1747,-353,-490,4132,17,59,869
87200,2399384,2441992,2400650,2498954,809,3800,2141,-302,1689,51,-331,3572,17,59,869
88200,2399500,2442332,2400847,2499151,994,3800,2238,-369,1623,490,-184,3334,39,77,869
89202,2399604,2442672,2401044,2499348,1110,3800,2309,-452,1579,948,-175,3169,39,77,869
90203,2399748,2443140,2401241,2499545,884,3800,2350,-593,1542,1511,-15,2863,30,66,870
91203,2399876,2443572,2401438,2499742,1015,3800,2357,-783,1463,1801,169,2597,30,66,870
92204,2400000,2443996,2401635,2499939,1072,3800,2358,-1036,1341,1969,230,2392,40,88,868
93212,2400152,2444508,2402062,2500366,1018,3800,2343,-1248,1202,2307,215,2513,40,88,868
94206,2400276,2445064,2402259,2500563,1226,3800,2286,-1411,1054,2549,196,2741,25,93,871
95207,2400424,2445588,2402456,2500760,1097,3800,2165,-1468,866,2536,-12,2973,25,93,871
96208,2400548,2446324,2402653,2500957,1280,3800,1982,-1435,641,2590,-383,3157,44,120,871
97209,2400700,2446956,2402850,2501154,1125,3800,1775,-1347,425,2684,-653,3137,44,120,871
98210,2400856,2447724,2403047,2501351,1118,3800,1562,-1246,222,2642,-744,3254,37,132,872
99211,2401012,2448448,2403244,2501548,1137,3800,1359,-1188,40,2898,-666,2899,37,132,872
100212,2401160,2449292,2403441,2501745,1209,3800,1199,-1239,-172,3004,-310,2616,32,142,873
101213,2401284,2450196,2403638,2501942,1391,3800,1085,-1417,-409,3201,-215,2137,32,142,873
102214,2401432,2451044,2403835,2502139,1264,3800,1029,-1698,-666,3477,-67,1673,28,169,872
103215,2401604,2451940,2404032,2502336,1124,3800,1020,-2141,-936,3772,55,1231,28,169,872
104216,2401752,2452792,2404229,2502533,1297,3800,1055,-2567,-1192,4116,-69,1282,46,181,872
105217,2401864,2453732,2404426,2502730,1559,3800,1039,-2782,-1406,4418,-736,1968,46,181,872
106219,2402044,2454708,2404623,2502927,1143,3800,955,-2687,-1492,4733,-1562,2927,43,180,874
107219,2402216,2455696,2404820,2503124,1204,3800,816,-2310,-1441,4921,-2393,3700,43,180,874
108220,2402412,2456680,2405017,2503321,1055,3800,707,-1848,-1379,4837,-3166,3570,44,184,873
109221,2402616,2457732,2405214,2503518,1002,3800,672,-1500,-1427,4535,-3708,3189,44,184,873
110223,2402768,2458664,2405411,2503715,1348,3800,720,-1281,-1604,4155,-3936,2770,56,180,875
111223,2402956,2459600,2405608,2503912,1127,3800,828,-1168,-1820,3953,-4206,2506,56,180,875
112224,2403132,2460720,2405805,2504109,1212,3800,990,-993,-1994,3855,-4599,2639,44,178,877
113225,2403324,2461668,2406002,2504306,1114,3800,1158,-663,-2109,3910,-4518,3087,44,178,877
114226,2403500,2462608,2406199,2504503,1225,3800,1299,-151,-2177,4022,-4259,3488,42,171,874
115227,2403704,2463588,2406396,2504700,1047,3800,1420,438,-2194,4084,-3798,3619,42,171,874
116228,2403876,2464520,2406593,2504897,1258,3800,1539,1128,-2129,4208,-3315,3694,56,186,876
117229,2404072,2465360,2406790,2505094,1109,3800,1650,1781,-2009,4443,-2690,3506,56,186,876
118230,2404272,2466376,2406987,2505291,1084,3800,1763,2252,-1966,4208,-1421,2796,59,175,876
119231,2404476,2467244,2407184,2505488,1056,3800,1916,2468,-1981,3951,-302,2048,59,175,876
120232,2404684,2468112,2407381,2505685,1027,3800,2019,2713,-1954,4190,711,2465,50,179,875
121233,2404904,2468916,2407578,2505882,942,3800,2022,3176,-1927,3891,1963,2971,50,179,875
122235,2405092,2469848,2407775,2506079,1147,3800,2010,3696,-1967,2945,2712,2696,59,176,875
123235,2405272,2470800,2407972,2506276,1204,3800,2014,4154,-2012,2564,3058,2474,59,176,875
124236,2405468,2471740,2408169,2506473,1105,3800,1949,4703,-2059,2372,3936,3043,56,188,875
125237,2405648,2472608,2408366,2506670,1213,3800,1784,5327,-2192,1965,4473,3147,56,188,875
126239,2405820,2473424,2408563,2506867,1275,3800,1573,5747,-2386,1920,4473,2330,57,165,874
127239,2405972,2474296,2408760,2507064,1420,3800,1321,5888,-2557,2175,4072,1596,57,165,874
128240,2406180,2475072,2408957,2507261,1066,3800,1023,5786,-2634,2045,4293,1201,52,154,874
129241,2406344,2476036,2409154,2507458,1356,3800,666,5645,-2639,1587,4151,1153,52,154,874
130242,2406512,2476760,2409351,2507655,1344,3800,344,5435,-2541,928,3749,953,35,169,874
131243,2406668,2477612,2409548,2507852,1438,3800,39,5250,-2357,527,3190,1243,35,169,874
132244,2406808,2478540,2409745,2508049,1563,3800,-355,4991,-2216,298,3103,1172,47,169,873
133245,2406928,2479492,2409942,2508246,1723,3800,-744,4579,-2127,102,2569,706,47,169,873
134246,2407068,2480544,2410139,2508443,1623,3800,-1094,4017,-1976,40,1879,424,48,191,874
135247,2407172,2481492,2410336,2508640,1890,3800,-1392,3162,-1730,42,1336,-162,48,191,874
136248,2407272,2482388,2410533,2508837,1958,3800,-1758,2502,-1434,190,559,935,24,207,872
137249,2407408,2483440,2410730,2509034,1760,3800,-2173,1990,-1072,36,-306,1092,24,207,872
138250,2407540,2484468,2410927,2509231,1815,3800,-2525,1325,-652,236,-1688,1112,48,209,873
139251,2407684,2485536,2411124,2509428,1763,3800,-3241,1424,124,787,-4339,4421,48,209,873
140252,2407828,2486700,2411321,2509625,1788,3800,-4437,2172,1370,455,-6590,5460,46,194,874
141253,2407932,2487668,2411518,2509822,2079,3800,-5514,2585,2460,-32,-5676,3967,46,194,874
142254,2408076,2488600,2411715,2510019,1853,3800,-5946,2092,2940,-285,-3161,1606,39,192,873
143255,2408204,2489552,2411912,2510216,1984,3800,-5802,803,2964,-445,-1294,337,39,192,873
144256,2408312,2490484,2412109,2510413,2149,3800,-5641,-413,2855,-436,-998,1612,38,182,870
145257,2408448,2491500,2412306,2510610,2001,3800,-5690,-1085,2807,-446,-754,3230,38,182,870
146258,2408564,2492364,2412503,2510807,2163,3800,-5838,-1223,2956,-561,-577,4416,32,198,870
147259,2408744,2493284,2412700,2511004,1771,3800,-5945,-1043,3236,-640,-584,5379,32,198,870
148260,2408892,2494220,2412897,2511201,1994,3800,-5950,-917,3459,-1094,-182,5562,30,194,870
149261,2409024,2495128,2413094,2511398,2122,3800,-5836,-896,3625,-1612,-357,5743,30,194,870
150262,2409164,2496016,2413291,2511595,2098,3800,-5639,-968,3813,-1754,-672,5342,48,193,873
151251,2409284,2496992,2413488,2511792,2258,2925,-5439,-1214,3992,-1672,113,5230,48,193,873
152264,2409416,2497784,2413685,2511989,2213,3800,-5174,-1369,4130,-1653,1201,5781,29,176,870
153265,2409560,2498512,2413882,2512186,2162,3800,-4858,-1435,4212,-1331,2076,6123,29,176,870
154267,2409692,2499148,2414079,2512383,2265,3800,-3471,352,4401,-1390,2049,22577,41,139,872
155267,2409840,2499696,2414276,2512580,2188,3800,-477,5395,4783,-2751,2047,32767,41,139,872
156269,2410008,2500172,2414473,2512777,2077,3800,1235,7500,4929,-2278,2700,8672,44,88,867
157269,2410164,2500540,2414670,2512974,2171,3800,1459,7052,4849,-2880,2986,5306,44,88,867
158270,2410312,2500792,2414867,2513171,2243,3800,1063,5649,4749,-3503,3717,4451,41,52,863
159271,2410476,2500988,2415064,2513368,2159,3800,864,4910,4596,-4059,3942,5112,41,52,863
160272,2410616,2501072,2415261,2513565,2335,3800,835,4355,4283,-4576,4776,4240,47,26,863
161273,2410740,2501112,2415458,2513762,2467,3800,729,3910,3877,-4601,3140,5038,47,26,863
162274,2410852,2501144,2415655,2513959,2580,3800,761,3157,3646,-4893,516,5539,38,9,860
163275,2410948,2501148,2415852,2514156,2726,3800,1686,1056,3587,-6622,-1551,10347,38,9,860
164276,2411024,2501160,2416049,2514353,2905,3800,2413,-703,3518,-5596,-473,6592,31,2,858
165277,2411104,2501168,2416246,2514550,2932,3800,2314,-1807,3424,-5139,-226,4101,31,2,858
166278,2411200,2501200,2416443,2514747,2878,3800,1753,-2227,3305,-4335,-1452,5165,19,-1,856
167280,2411296,2501236,2416640,2514944,2923,3800,711,-2065,2263,2035,-6976,2147,19,-1,856
168280,2411436,2501248,2416837,2515141,2674,3800,-308,-2167,1352,-1420,-3734,4070,26,1,853
169281,2411584,2501272,2417034,2515338,2647,3800,-949,-2438,1250,-3595,-1689,5461,26,1,853
170282,2411708,2501276,2417231,2515535,2830,3800,-1383,-3420,1571,-3112,-1801,4875,39,16,855
171283,2411820,2501300,2417428,2515732,2943,3800,-1598,-4475,1868,-1778,-996,6214,39,16,855
172284,2411920,2501332,2417625,2515929,3062,3800,-1681,-5857,2039,-802,-796,6336,27,16,857
173285,2411992,2501380,2417822,2516126,3293,3800,-1840,-6730,1902,2316,-2270,6530,27,16,857
174286,2412056,2501412,2418019,2516323,3403,3800,-2135,-7125,1447,4623,-3277,4949,12,16,855
175287,2412124,2501460,2418216,2516520,3436,3800,-2301,-7775,1421,1349,-1603,5271,12,16,855
176295,2412204,2501504,2418446,2516750,3428,3800,-2726,-8057,1250,4494,-3122,3357,29,7,853
177289,2412316,2501532,2418643,2516947,3266,3800,-3484,-7990,812,4970,-2653,926,29,7,853
178290,2412448,2501576,2418840,2517144,3170,3800,-3844,-8251,703,1411,-569,3007,18,11,852
179291,2412592,2501596,2419037,2517341,3120,3800,-3705,-9057,936,289,59,3711,18,11,852
180292,2412784,2501604,2419234,2517538,2824,3800,-3289,-9848,1217,67,104,4388,31,7,852
181293,2413024,2501600,2419431,2517735,2506,3800,-2988,-10011,1352,268,-101,6168,31,7,852
182294,2413236,2501620,2419628,2517932,2675,3800,-2535,-9526,1383,279,-300,8772,42,7,854
183295,2413468,2501604,2419825,2518129,2536,3800,-1595,-7942,1022,4364,762,17998,42,7,854
184296,2413708,2501616,2420022,2518326,2469,3800,-646,-6517,411,4479,407,9894,39,13,858
185297,2413928,2501620,2420219,2518523,2585,3800,-196,-6070,140,-150,-442,6752,39,13,858
186298,2414192,2501620,2420416,2518720,2282,3800,94,-5750,41,-685,-505,6778,55,2,858
187299,2414444,2501644,2420613,2518917,2333,3800,484,-5430,-60,-651,-1130,6362,55,2,858
188300,2414736,2501620,2420810,2519114,2043,3800,1028,-4824,-156,-1023,-1531,6825,59,-2,858
189301,2415000,2501628,2421007,2519311,2189,3800,1594,-4022,-228,-1486,-1289,6964,59,-2,858
190302,2415260,2501628,2421204,2519508,2189,3800,2125,-3259,-312,-1315,-962,6568,56,-2,858
191303,2415556,2501640,2421401,2519705,1921,3800,2602,-2491,-411,-540,-674,6441,56,-2,858
192304,2415820,2501648,2421598,2519902,2093,3800,3038,-1772,-477,-16,-183,5693,48,-2,858
193305,2416096,2501636,2421795,2520099,1984,3800,3435,-1253,-503,-109,60,5085,48,-2,858
194306,2416380,2501648,2421992,2520296,1897,3800,3869,-849,-564,-516,210,4480,47,-2,861
195307,2416620,2501656,2422189,2520493,2154,3800,4359,-692,-663,-264,346,3449,47,-2,861
196308,2416932,2501644,2422386,2520690,1654,3800,4802,-575,-764,709,564,2909,63,8,861
197309,2417228,2501656,2422583,2520887,1712,3800,5142,-544,-850,1063,749,2345,63,8,861
198310,2417500,2501656,2422780,2521084,1830,3800,5383,-439,-867,801,380,2702,48,13,860
199311,2417756,2501656,2422977,2521281,1905,3800,5551,-142,-825,516,-134,2987,48,13,860
200312,2417984,2501660,2423174,2521478,2067,3800,5686,175,-773,711,63,2611,59,-2,862
201313,2418224,2501664,2423371,2521675,1974,3800,5786,491,-762,1126,222,2429,59,-2,862
202314,2418476,2501660,2423568,2521872,1876,3800,5835,707,-763,1255,-182,1960,61,-2,859
203315,2418712,2501672,2423765,2522069,1960,3800,5837,931,-717,721,-1095,2091,61,-2,859
204316,2418920,2501664,2423962,2522266,2131,3800,5797,1337,-640,177,-1770,2513,54,-4,860
205317,2419132,2501676,2424159,2522463,2101,3800,5716,1835,-596,376,-1762,2165,54,-4,860
206318,2419384,2501664,2424356,2522660,1827,3800,5571,2324,-597,1034,-1634,1992,48,3,860
207319,2419640,2501672,2424553,2522857,1778,3800,5386,2809,-583,1331,-1974,1752,48,3,860
208320,2419924,2501684,2424750,2523054,1565,3800,5179,3266,-541,1033,-2590,1843,59,5,860
209321,2420220,2501680,2424947,2523251,1448,3800,4962,3802,-490,473,-2937,1786,59,5,860
210322,2420452,2501692,2425144,2523448,1833,3800,4735,4198,-474,298,-2756,1197,52,2,861
211323,2420704,2501696,2425341,2523645,1685,3800,4500,4376,-545,825,-2406,357,52,2,861
212324,2420944,2501696,2425538,2523842,1742,3800,4271,4355,-675,1306,-2309,-272,53,-1,862
213325,2421240,2501716,2425735,2524039,1349,3800,4034,4311,-726,1423,-2738,-75,53,-1,862
214326,2421500,2501728,2425932,2524236,1547,3800,3712,4438,-650,1221,-3401,685,44,1,861
215327,2421740,2501736,2426129,2524433,1654,3800,3355,4589,-509,665,-3331,424,44,1,861
216329,2421968,2501764,2426326,2524630,1717,3800,3049,4592,-471,631,-2389,-184,57,14,863
217330,2422252,2501772,2426523,2524827,1329,3800,2770,4428,-570,1170,-1581,-763,57,14,863
218331,2422492,2501800,2426720,2525024,1587,3800,2489,4097,-651,1472,-1232,-980,67,8,862
219332,2422756,2501832,2426917,2525221,1407,3800,2180,3813,-624,1416,-1172,-593,67,8,862
220333,2422960,2501860,2427114,2525418,1780,3800,1860,3597,-531,984,-902,-445,52,18,864
221334,2423156,2501908,2427311,2525615,1831,3800,1543,3411,-477,848,-209,-424,52,18,864
222335,2423420,2501944,2427508,2525812,1378,3800,1221,3215,-501,1229,533,-675,58,7,863
223336,2423652,2502008,2427705,2526009,1564,3800,903,2830,-527,1549,967,-1114,58,7,863
224336,2423868,2502048,2427902,2526206,1655,3800,595,2440,-513,1402,1068,-932,63,3,858
225338,2424076,2502100,2428099,2526403,1701,3800,296,2126,-467,568,1008,-571,63,3,858
226339,2424228,2502148,2428296,2526600,2072,3800,18,1842,-455,19,1286,-424,46,4,862
227340,2424400,2502192,2428493,2526797,1959,3800,-253,1558,-499,450,1832,-502,46,4,862
228341,2424584,2502264,2428690,2526994,1890,3800,-518,1176,-553,1006,2146,-863,23,8,862
229342,2424812,2502312,2428887,2527191,1602,3800,-800,692,-563,1322,2224,-826,23,8,862
230343,2424992,2502404,2429084,2527388,1911,3800,-1127,392,-511,911,1884,-126,39,19,862
231344,2425192,2502472,2429281,2527585,1785,3800,-1480,253,-441,66,1649,549,39,19,862
232344,2425336,2502512,2429478,2527782,2160,3800,-1835,276,-402,-264,1891,955,30,9,862
233346,2425460,2502580,2429675,2527979,2317,3800,-2145,250,-400,-102,2404,662,30,9,862
234347,2425616,2502628,2429872,2528176,2136,3800,-2409,-35,-442,374,2940,-3,22,12,861
235348,2425780,2502692,2430069,2528373,2101,3800,-2654,-539,-516,878,3186,-399,22,12,861
236349,2425916,2502728,2430266,2528570,2304,3800,-2919,-1098,-576,1086,3031,-334,40,5,857
237350,2426092,2502756,2430463,2528767,2064,3800,-3261,-1482,-560,976,2251,472,40,5,857
238351,2426328,2502784,2430660,2528964,1672,3800,-3629,-1769,-476,781,1956,646,48,3,860
239352,2426524,2502804,2430857,2529161,1924,3800,-4001,-1980,-391,730,1854,1075,48,3,860
240353,2426704,2502820,2431054,2529358,2032,3800,-4348,-2220,-353,798,1854,840,33,0,857
241354,2426928,2502808,2431251,2529555,1746,3800,-4650,-2700,-367,950,1859,297,33,0,857
242355,2427132,2502828,2431448,2529752,1869,3800,-4941,-3289,-393,1314,1591,419,44,9,861
243356,2427340,2502844,2431645,2529949,1840,3800,-5228,-3804,-385,1515,1069,515,44,9,861
244357,2427592,2502848,2431842,2530146,1541,3800,-5498,-4333,-351,1456,488,658,34,-1,861
245358,2427804,2502840,2432039,2530343,1786,3800,-5773,-4704,-323,1421,-27,1522,34,-1,861
246358,2428048,2502848,2432236,2530540,1566,3800,-6101,-4790,-319,1425,-558,2709,56,13,860
247359,2428340,2502852,2432433,2530737,1225,3800,-6458,-4663,-335,1404,-1428,3113,56,13,860
248360,2428588,2502864,2432630,2530934,1479,3800,-6768,-4559,-331,1422,-2132,3117,43,7,862
249362,2428832,2502868,2432827,2531131,1483,3800,-7018,-4564,-306,1388,-2728,3111,43,7,862
250363,2429120,2502876,2433024,2531328,1169,3800,-7205,-4684,-304,1429,-3020,3043,40,1,864
251364,2429392,2502880,2433221,2531525,1237,3800,-7323,-4834,-305,1367,-3474,3041,40,1,864
252365,2429632,2502892,2433418,2531722,1419,3800,-7400,-4964,-274,1373,-3790,3488,41,0,863
253366,2429900,2502912,2433615,2531919,1213,3800,-7466,-4907,-205,1475,-4094,4280,41,0,863
254367,2430164,2502908,2433812,2532116,1210,3800,-7509,-4715,-111,1792,-4049,4753,58,-2,864
255368,2430416,2502928,2434009,2532313,1261,3800,-7517,-4420,-6,2093,-3752,5084,58,-2,864
256369,2430652,2502944,2434206,2532510,1344,3800,-7467,-4172,67,2212,-3146,5027,48,-2,863
257370,2430920,2502964,2434403,2532707,1114,3800,-7391,-4036,104,2349,-2496,5141,48,-2,863
258371,2431144,2502972,2434600,2532904,1378,3800,-7233,-3877,130,2502,-2122,5439,40,0,862
259381,2431368,2503000,2434830,2533134,1381,3800,-6970,-3729,148,2825,-1997,5792,40,0,862
260373,2431608,2503020,2435027,2533331,1263,3800,-3169,2340,266,5648,-2080,32767,54,-1,864
261374,2431832,2503044,2435224,2533528,1352,3800,2664,11362,497,5274,-1199,32767,54,-1,864
262375,2432068,2503048,2435421,2533725,1260,3800,5375,13361,497,4624,1055,491,45,0,863
263376,2432300,2503052,2435618,2533922,1271,3800,5070,10437,395,4744,1540,-336,45,0,863
264377,2432508,2503056,2435815,2534119,1417,3800,4395,7068,407,5148,-499,-688,41,11,863
265378,2432688,2503064,2436012,2534316,1599,3800,3524,5691,937,4861,-4461,3364,41,11,863
266379,2432900,2503076,2436209,2534513,1394,3800,2930,5504,1628,3883,-3382,2406,43,13,863
267380,2433072,2503096,2436406,2534710,1655,3800,2657,4531,1821,4039,-196,498,43,13,863
268381,2433272,2503108,2436603,2534907,1479,3800,2632,3052,1603,3531,508,-489,48,-3,861
269381,2433472,2503120,2436800,2535104,1479,3800,2594,1191,1474,2295,-735,-277,48,-3,861
270383,2433680,2503136,2436997,2535301,1424,3800,2279,193,1433,2347,-1398,2317,36,15,862
271383,2433856,2503172,2437194,2535498,1634,3800,1837,-50,1373,2040,-1423,3448,36,15,862
272384,2434072,2503212,2437391,2535695,1377,3800,1143,610,1298,1208,-2300,7194,30,2,860
273385,2434248,2503236,2437588,2535892,1636,3800,449,1862,1220,926,-3132,7344,30,2,860
274387,2434428,2503272,2437785,2536089,1620,3800,167,2403,1183,485,-2323,5130,45,12,862
275388,2434596,2503308,2437982,2536286,1708,3800,128,2893,1135,-258,-1583,6178,45,12,862
276389,2434756,2503348,2438179,2536483,1775,3800,104,3323,995,-516,-1112,5587,41,7,862
277389,2434928,2503412,2438376,2536680,1712,3800,89,3743,775,-922,-907,5499,41,7,862
278391,2435096,2503444,2438573,2536877,1750,3800,96,4320,609,-1283,-642,6011,35,5,861
279391,2435276,2503472,2438770,2537074,1683,3800,194,4785,447,-1217,-383,5187,35,5,861
280392,2435440,2503496,2438967,2537271,1798,3800,292,5201,267,-1244,-341,5437,34,1,860
281393,2435588,2503516,2439164,2537468,1921,3800,403,5610,126,-1355,54,5172,34,1,860
282395,2435756,2503528,2439361,2537665,1809,3800,469,5833,34,-1138,25,4688,32,8,862
283396,2435944,2503560,2439558,2537862,1689,3800,512,6004,9,-969,-174,4548,32,8,862
284397,2436104,2503576,2439755,2538059,1881,3800,607,5952,55,-980,20,3785,24,-1,860
285398,2436304,2503596,2439952,2538256,1630,3800,762,5734,48,-906,236,3148,24,-1,860
286399,2436488,2503604,2440149,2538453,1736,3800,948,5303,-49,-1119,429,2479,44,-1,862
287400,2436672,2503616,2440346,2538650,1743,3800,1135,4751,-169,-1289,631,2167,44,-1,862
288401,2436836,2503628,2440543,2538847,1883,3800,1271,4200,-284,-1141,439,2044,22,-2,862
289402,2437004,2503652,2440740,2539044,1871,3800,1345,3630,-356,-1219,176,1990,22,-2,862
290403,2437172,2503680,2440937,2539241,1885,3800,1363,3095,-344,-1399,-60,2143,31,5,860
291404,2437364,2503680,2441134,2539438,1737,3800,1382,2497,-264,-1308,-416,1641,31,5,860
292405,2437516,2503700,2441331,2539635,2008,3800,1366,1888,-127,-1373,-627,1975,29,5,860
293406,2437692,2503704,2441528,2539832,1868,3800,1281,1547,39,-1631,-744,2792,29,5,860
294407,2437896,2503724,2441725,2540029,1691,3800,1184,1236,169,-1929,-945,2421,42,1,861
295408,2438112,2503736,2441922,2540226,1608,3800,1126,813,247,-2043,-986,2195,42,1,861
296408,2438276,2503744,2442119,2540423,1948,3800,1073,317,285,-2042,-802,2199,29,-1,860
297409,2438452,2503752,2442316,2540620,1884,3800,1013,-182,306,-1848,-813,2271,29,-1,860
298411,2438616,2503752,2442513,2540817,1974,3800,929,-485,374,-1839,-919,2783,39,-3,861
299412,2438804,2503752,2442710,2541014,1828,3800,820,-634,528,-1862,-1083,3229,39,-3,861
300413,2438956,2503756,2442907,2541211,2074,3800,666,-603,726,-1597,-1256,3720,24,-3,859
301414,2439124,2503752,2443104,2541408,1988,3800,511,-556,895,-1586,-1096,3720,24,-3,859
302415,2439304,2503756,2443301,2541605,1921,3800,392,-605,1004,-1647,-842,3472,44,-4,860
303416,2439488,2503744,2443498,2541802,1902,3800,285,-740,1049,-1410,-684,3372,44,-4,860
304417,2439664,2503752,2443695,2541999,1962,3800,194,-912,1061,-1306,-480,3204,36,-5,859
305417,2439836,2503756,2443892,2542196,1999,3800,120,-1099,1056,-1088,-227,3231,36,-5,859
306419,2439980,2503764,2444089,2542393,2198,3800,63,-1270,1046,-792,-80,3157,43,-4,860
307420,2440152,2503756,2444286,2542590,2034,3800,-10,-1465,1061,-557,-70,3233,43,-4,860
308421,2440276,2503772,2444483,2542787,2367,3800,-89,-1576,1104,-333,-116,3418,42,-3,860
309422,2440416,2503744,2444680,2542984,2293,3800,-158,-1740,1123,-248,-102,3253,42,-3,860
310423,2440564,2503760,2444877,2543181,2266,3800,-199,-1920,1099,-188,-53,3216,30,11,859
311424,2440668,2503768,2445074,2543378,2583,3800,-210,-2085,1033,-95,43,3278,30,11,859
312424,2440812,2503752,2445271,2543575,2356,3800,-188,-2263,944,27,-10,3198,39,-4,857
313425,2441012,2503776,2445468,2543772,2006,3800,-139,-2443,843,48,26,3278,39,-4,857
314426,2441168,2503768,2445665,2543969,2300,3800,-97,-2560,734,59,245,3413,43,13,856
315428,2441352,2503772,2445862,2544166,2131,3800,-85,-2658,599,150,484,3359,43,13,856
316429,2441516,2503776,2446059,2544363,2272,3800,-118,-2702,448,232,560,3578,34,7,859
317430,2441656,2503776,2446256,2544560,2448,3800,-184,-2687,308,211,465,3715,34,7,859
318431,2441800,2503776,2446453,2544757,2447,3800,-277,-2646,185,282,191,3852,41,-3,859
319431,2441960,2503784,2446650,2544954,2365,3800,-383,-2487,72,333,133,4140,41,-3,859
320433,2442084,2503788,2446847,2545151,2622,3800,-493,-2291,-47,322,319,4337,40,0,857
321433,2442212,2503776,2447044,2545348,2628,3800,-614,-2111,-203,239,150,4208,40,0,857
322435,2442340,2503780,2447241,2545545,2659,3800,-741,-1952,-368,371,319,4234,41,-4,856
323436,2442476,2503776,2447438,2545742,2637,3800,-898,-1700,-500,664,539,4526,41,-4,856
324436,2442612,2503796,2447635,2545939,2665,3800,-1083,-1416,-599,852,477,4555,30,-2,855
325437,2442736,2503788,2447832,2546136,2773,3800,-1261,-1167,-679,888,208,4417,30,-2,855
326438,2442868,2503788,2448029,2546333,2753,3800,-1426,-945,-730,979,-148,4432,21,-3,856
327440,2442980,2503796,2448226,2546530,2916,3800,-1561,-802,-751,1055,-489,4145,21,-3,856
328440,2443088,2503796,2448423,2546727,2981,3800,-1670,-795,-755,1100,-719,3910,21,1,855
329441,2443244,2503808,2448620,2546924,2700,3800,-1744,-839,-744,1213,-844,3775,21,1,855
330443,2443372,2503788,2448817,2547121,2906,3800,-1772,-973,-724,1308,-993,3467,42,-1,854
331444,2443508,2503804,2449014,2547318,2884,3800,-1741,-1139,-701,1380,-1098,3392,42,-1,854
332445,2443664,2503808,2449211,2547515,2778,3800,-1666,-1319,-669,1489,-1041,3343,25,0,855
333446,2443788,2503812,2449408,2547712,3011,3800,-1573,-1472,-625,1604,-1005,3555,25,0,855
334447,2443916,2503816,2449605,2547909,3018,3800,-1479,-1534,-577,1655,-956,3831,38,-3,854
335447,2444076,2503824,2449802,2548106,2835,3800,-1382,-1565,-525,1682,-822,4008,38,-3,854
336448,2444228,2503816,2449999,2548303,2906,3800,-1281,-1487,-473,1703,-624,4363,44,-1,853
337449,2444380,2503832,2450196,2548500,2927,3800,-1162,-1354,-424,1685,-402,4573,44,-1,853
338450,2444540,2503828,2450393,2548697,2895,3800,-1034,-1115,-382,1739,-158,4895,32,-2,855
339452,2444660,2503828,2450590,2548894,3179,3800,-906,-833,-349,1786,87,5213,32,-2,855
340452,2444812,2503848,2450787,2549091,3000,3800,-785,-440,-328,1817,320,5557,44,-2,854
341453,2444984,2503852,2450984,2549288,2887,3800,-677,10,-321,1892,533,5886,44,-2,854
342461,2445108,2503876,2451214,2549518,3235,3800,-578,533,-313,1916,678,6157,44,1,851
343456,2445264,2503888,2451411,2549715,3054,3800,-474,1079,-305,1991,723,6441,44,1,851
344456,2445392,2503884,2451608,2549912,3261,3800,-152,2073,-279,1972,313,9909,44,1,853
345457,2445564,2503900,2451805,2550109,2998,3800,403,3421,-239,1883,7,12279,44,1,853
346459,2445688,2503916,2452002,2550306,3331,3800,745,4138,-247,2102,641,6131,39,1,853
347460,2445832,2503932,2452199,2550503,3230,3800,828,4258,-265,2316,782,5196,39,1,853
348461,2445952,2503940,2452396,2550700,3415,3800,843,4110,-295,2399,817,4558,38,0,853
349462,2446076,2503980,2452593,2550897,3424,3800,901,3944,-327,2366,703,4243,38,0,853
350463,2446200,2503988,2452790,2551094,3457,3800,1003,3688,-358,2241,596,3658,32,5,852
351464,2446332,2504016,2452987,2551291,3437,3800,1098,3412,-391,2241,431,3524,32,5,852
352465,2446444,2504040,2453184,2551488,3600,3800,1169,3070,-419,2130,338,3154,25,3,848
353466,2446556,2504052,2453381,2551685,3640,3800,1229,2570,-427,1993,182,2883,25,3,848
354467,2446664,2504048,2453578,2551882,3705,3800,1264,2073,-426,1955,64,3027,18,11,850
355481,2446752,2504036,2453775,2552079,3800,3800,1287,1613,-414,1744,4,3029,18,11,850
356469,2446864,2504056,2453972,2552276,3768,3800,1284,1262,-396,1483,-79,3350,29,9,847
357470,2446988,2504056,2454169,2552473,3726,3800,1262,1050,-389,1273,-88,3532,29,9,847
358470,2447132,2504064,2454366,2552670,3626,3800,1218,871,-382,1076,-22,3744,41,7,847
359471,2447256,2504072,2454563,2552867,3785,3800,1146,828,-375,919,113,4095,41,7,847
360472,2447408,2504076,2454760,2553064,3630,3800,1047,773,-372,732,257,4135,42,13,847
361473,2447560,2504076,2454957,2553261,3651,3800,927,805,-369,634,453,4392,42,13,847
362487,2447680,2504084,2455154,2553458,3800,3800,779,951,-378,542,834,4643,42,3,847
363488,2447808,2504100,2455351,2553655,3800,3800,623,1106,-414,524,1305,4518,42,3,847
364489,2447928,2504120,2455548,2553852,3800,3800,487,1260,-450,562,1531,4521,19,1,849
365490,2448024,2504148,2455745,2554049,3800,3800,376,1354,-464,534,1640,4312,19,1,849
366491,2448144,2504172,2455942,2554246,3800,3800,268,1386,-460,487,1551,4245,15,2,846
367492,2448220,2504212,2456139,2554443,3800,3800,167,1436,-447,401,1392,4125,15,2,846
368493,2448300,2504244,2456336,2554640,3800,3800,92,1388,-424,216,1164,3832,14,3,846
369494,2448372,2504312,2456533,2554837,3800,3800,44,1310,-404,156,934,3683,14,3,846
370495,2448460,2504364,2456730,2555034,3800,3800,20,1198,-379,96,691,3464,14,8,847
371496,2448532,2504468,2456927,2555231,3800,3800,5,1023,-344,35,493,3373,14,8,847
372497,2448592,2504552,2457124,2555428,3800,3800,-3,825,-313,-16,326,3262,8,26,847
373498,2448676,2504648,2457321,2555625,3800,3800,0,564,-291,-37,118,3127,8,26,847
374499,2448760,2504752,2457518,2555822,3800,3800,2,380,-252,-37,-96,3298,31,25,847
375500,2448840,2504864,2457715,2556019,3800,3800,-5,258,-197,-47,-281,3415,31,25,847
376501,2448924,2504996,2457912,2556216,3800,3800,-15,182,-131,-50,-409,3445,30,28,846
377502,2449032,2505096,2458109,2556413,3800,3800,-20,111,-63,-6,-342,3520,30,28,846
378503,2449132,2505228,2458306,2556610,3800,3800,2,11,-5,-71,-222,3307,35,38,847
379504,2449260,2505332,2458503,2556807,3800,3800,44,-143,33,-131,-125,3378,35,38,847
380505,2449360,2505452,2458700,2557004,3800,3800,93,-205,71,-119,-125,3594,30,39,846
381506,2449492,2505572,2458897,2557201,3800,3800,141,-206,138,-86,-141,3747,30,39,846
382507,2449636,2505692,2459094,2557398,3800,3800,177,-61,223,-137,-132,4023,37,40,849
383508,2449748,2505844,2459291,2557595,3800,3800,212,106,311,-261,-158,4112,37,40,849
384509,2449852,2505992,2459488,2557792,3800,3800,246,317,403,-311,-90,4319,26,39,849
385510,2449968,2506152,2459685,2557989,3800,3800,272,568,497,-293,6,4497,26,39,849
386511,2450076,2506280,2459882,2558186,3800,3800,297,848,611,-357,6,4448,26,23,848
387512,2450180,2506408,2460079,2558383,3800,3800,344,1100,725,-444,209,4331,26,23,848
388513,2450312,2506536,2460276,2558580,3800,3800,405,1302,813,-391,512,4167,20,27,847
389514,2450452,2506652,2460473,2558777,3800,3800,465,1511,888,-319,718,4188,20,27,847
390515,2450588,2506776,2460670,2558974,3800,3800,524,1673,967,-334,840,4020,20,39,847
391516,2450692,2506916,2460867,2559171,3800,3800,593,1767,1047,-390,970,3882,20,39,847
392517,2450844,2507088,2461064,2559368,3800,3800,655,1835,1115,-431,1113,3978,21,41,849
393518,2450960,2507264,2461261,2559565,3800,3800,720,1886,1165,-466,1296,3688,21,41,849
394519,2451104,2507440,2461458,2559762,3800,3800,800,1834,1174,-571,1490,3357,36,26,849
395520,2451268,2507596,2461655,2559959,3800,3800,878,1746,1144,-662,1636,3256,36,26,849
396522,2451408,2507748,2461852,2560156,3800,3800,932,1654,1087,-742,1634,3391,42,34,850
397522,2451564,2507908,2462049,2560353,3800,3800,943,1651,1025,-789,1482,3584,42,34,850
398524,2451736,2508076,2462246,2560550,3800,3800,922,1636,974,-855,1301,3600,37,45,849
399524,2451896,2508256,2462443,2560747,3800,3800,864,1671,934,-830,1119,3766,37,45,849
400525,2452044,2508448,2462640,2560944,3800,3800,767,1725,900,-734,1035,3792,33,49,848
401526,2452256,2508640,2462837,2561141,3800,3800,647,1777,870,-701,992,3608,33,49,848
402527,2452408,2508828,2463034,2561338,3800,3800,509,1768,840,-566,981,3648,26,43,849
403528,2452584,2509040,2463231,2561535,3800,3800,365,1687,813,-334,1122,3399,26,43,849
404529,2452784,2509224,2463428,2561732,3800,3800,231,1505,776,-154,1283,3201,33,36,850
405530,2452964,2509428,2463625,2561929,3800,3800,100,1271,713,-68,1271,3041,33,36,850
406531,2453160,2509628,2463822,2562126,3800,3800,-25,953,640,75,1285,2780,52,51,850
407532,2453384,2509900,2464019,2562323,3800,3800,-136,608,558,183,1383,2755,52,51,850
408533,2453580,2510180,2464216,2562520,3800,3800,-248,302,469,375,1410,2866,37,49,851
409534,2453796,2510520,2464413,2562717,3800,3800,-365,-6,360,447,1497,2956,37,49,851
410535,2454032,2510804,2464610,2562914,3800,3800,-496,-221,233,525,1511,3332,54,57,848
411536,2454232,2511084,2464807,2563111,3800,3800,-614,-425,84,627,1578,3310,54,57,848
412537,2454432,2511464,2465004,2563308,3800,3800,-712,-585,-72,662,1616,3429,37,65,850
413538,2454660,2511820,2465201,2563505,3800,3800,-797,-733,-223,629,1723,3416,37,65,850
414539,2454912,2512208,2465398,2563702,3800,3800,-873,-855,-343,688,1684,3500,52,75,852
415540,2455128,2512576,2465595,2563899,3800,3800,-937,-938,-434,879,1530,3665,52,75,852
416541,2455368,2513012,2465792,2564096,3800,3800,-979,-975,-485,963,1203,3764,50,72,851
417542,2455620,2513440,2465989,2564293,3800,3800,-998,-1030,-500,1014,1070,3867,50,72,851
418543,2455872,2513880,2466186,2564490,3800,3800,-978,-1076,-494,1016,1033,3710,48,82,853
419544,2456136,2514516,2466383,2564687,3800,3800,-903,-1177,-466,950,1007,3605,48,82,853
420545,2456436,2515196,2466580,2564884,3800,3800,-795,-1206,-425,842,847,3790,57,109,854
421546,2456704,2515736,2466777,2565081,3800,3800,-695,-1160,-391,718,517,4116,57,109,854
422547,2456980,2516440,2466974,2565278,3800,3800,-608,-921,-359,436,-389,4679,72,136,854
423548,2457276,2517128,2467171,2565475,3800,3800,-532,-525,-305,-31,-1474,5176,72,136,854
424549,2457556,2517852,2467368,2565672,3800,3800,-335,-207,-269,4,-801,4443,73,143,856
425557,2457828,2518744,2467598,2565902,3800,3800,-2,-80,-340,271,264,3911,73,143,856
426551,2458128,2519492,2467795,2566099,3800,3800,386,182,-459,126,-41,4560,56,142,858
427552,2458400,2520392,2467992,2566296,3800,3800,696,780,-546,-2,-313,5485,56,142,858
428553,2458668,2521184,2468189,2566493,3800,3800,915,1548,-534,144,-717,5750,72,169,857
429542,2458980,2522092,2468386,2566690,3660,3800,1128,2308,-400,47,-1183,5523,72,169,857
430555,2459248,2523044,2468583,2566887,3800,3800,1420,2906,-265,-415,-1232,4959,63,185,858
431556,2459500,2523952,2468780,2567084,3800,3800,1804,3287,-239,-596,-1053,4282,63,185,858
432545,2459804,2524820,2468977,2567281,3613,3800,2236,3569,-262,-659,-1463,4097,70,177,858
433545,2460140,2525672,2469174,2567478,3354,3800,2665,3881,-272,-578,-2092,3896,70,177,858
434547,2460452,2526492,2469371,2567675,3454,3800,3056,4232,-259,-507,-3114,3861,79,169,857
435548,2460776,2527248,2469568,2567872,3325,3800,3378,4598,-227,-697,-3825,3744,79,169,857
436548,2461180,2528080,2469765,2568069,2736,3800,3695,4826,-213,-662,-3611,3231,68,163,861
437550,2461572,2528872,2469962,2568266,2728,3800,4072,5619,-245,-318,-2726,3837,68,163,861
438551,2461988,2529576,2470159,2568463,2482,3800,4209,5837,-385,-596,-2300,2630,93,165,861
439552,2462472,2530264,2470356,2568660,1933,3800,4328,5871,-685,-513,-1816,2075,93,165,861
440552,2462896,2530896,2470553,2568857,2209,3800,4393,5732,-1080,-711,-771,1585,94,142,864
441553,2463324,2531560,2470750,2569054,2085,3800,4416,5411,-1473,-627,69,1074,94,142,864
442555,2463804,2532172,2470947,2569251,1637,3800,4427,5093,-1818,-518,599,1087,92,126,868
443556,2464212,2532756,2471144,2569448,1995,3800,4398,4886,-2139,-764,878,1425,92,126,868
444557,2464652,2533344,2471341,2569645,1690,3800,4370,4700,-2514,-1150,1030,907,80,136,865
445558,2465108,2533888,2471538,2569842,1477,3800,4332,4156,-2965,-1404,591,126,80,136,865
446559,2465524,2534420,2471735,2570039,1632,3800,4204,3794,-3353,-1336,-320,1090,88,103,866
447559,2465960,2534936,2471932,2570236,1403,3800,3939,3605,-3683,-1654,-164,1094,88,103,866
448560,2466388,2535440,2472129,2570433,1353,3800,3637,3205,-4026,-1790,63,609,82,103,868
449561,2466764,2535912,2472326,2570630,1601,3800,3345,2829,-4403,-1726,621,894,82,103,868
450563,2467108,2536404,2472523,2570827,1737,3800,3077,2323,-4737,-1773,321,389,73,92,868
451564,2467508,2536924,2472720,2571024,1299,3800,2769,1802,-4959,-1645,117,450,73,92,868
452564,2467900,2537376,2472917,2571221,1264,3800,2432,978,-5068,-1544,587,-332,72,91,867
453565,2468292,2537976,2473114,2571418,1180,3800,2108,-176,-5069,-855,1002,-838,72,91,867
454567,2468712,2538500,2473311,2571615,908,3800,1708,-1164,-4977,-570,1342,-545,92,89,866
455567,2469036,2539016,2473508,2571812,1452,3800,1266,-2537,-4829,-1043,961,-1525,92,89,866
456568,2469376,2539596,2473705,2572009,1290,3800,772,-3796,-4680,-618,45,-485,65,105,868
457569,2469704,2540136,2473902,2572206,1308,3800,257,-4839,-4458,-302,-271,-475,65,105,868
458571,2470020,2540804,2474099,2572403,1332,3800,-267,-6136,-4094,451,-1420,-780,71,108,868
459571,2470344,2541476,2474296,2572600,1227,3800,-1047,-6939,-3413,2152,-3514,1605,71,108,868
460572,2470676,2541932,2474493,2572797,1118,3800,-3197,-6031,-1982,3498,-7098,8413,73,110,869
461573,2471016,2542496,2474690,2572994,1006,3800,-6239,-4016,-68,3631,-10147,9141,73,110,869
462575,2471332,2543104,2474887,2573191,1105,3800,-8510,-3399,1398,2655,-8839,3226,83,99,867
463575,2471632,2543864,2475084,2573388,1160,3800,-8881,-5515,1960,1947,-4087,-3716,83,99,867
464576,2471960,2544556,2475281,2573585,928,3800,-8396,-8824,1907,2441,-3310,-4178,77,135,871
465577,2472208,2545320,2475478,2573782,1407,3800,-8324,-11374,1956,2937,-4416,-1191,77,135,871
466579,2472440,2546128,2475675,2573979,1491,3800,-8919,-12473,2443,3339,-5245,2434,66,169,870
467580,2472712,2546964,2475872,2574176,1209,3800,-9783,-12482,3034,3595,-5312,4673,66,169,870
468580,2472908,2547908,2476069,2574373,1686,3800,-10198,-12717,3565,3515,-5791,3691,47,180,871
469581,2473108,2548876,2476266,2574570,1659,3800,-7732,-16132,3622,7505,-8337,-1997,47,180,871
470582,2473332,2549744,2476463,2574767,1498,3800,-3764,-16185,3731,10772,-9582,16786,49,187,873
471583,2473492,2550684,2476660,2574964,1916,3800,-100,-4016,4134,11564,-2337,32767,49,187,873
472584,2473684,2551620,2476857,2575161,1718,3800,2356,5966,4318,3303,-978,24582,61,180,871
473585,2473848,2552520,2477054,2575358,1908,3800,2404,7658,4410,433,-260,7506,61,180,871
474587,2474008,2553484,2477251,2575555,1950,3800,2008,4707,4484,164,833,1021,47,183,870
475587,2474164,2554572,2477448,2575752,1994,3800,1901,1745,4451,706,629,1562,47,183,870
476588,2474340,2555516,2477645,2575949,1879,3800,2112,349,4492,-500,938,951,37,193,870
477589,2474500,2556464,2477842,2576146,1995,3800,2351,-677,4706,-502,912,1734,37,193,870
478591,2474620,2557384,2478039,2576343,2280,3800,2245,-375,4994,234,-266,5741,37,188,870
479592,2474736,2558276,2478236,2576540,2341,3800,2101,-298,5467,-1534,-1314,4408,37,188,870
480593,2474812,2559244,2478433,2576737,2645,3800,2008,-434,5986,-1985,-2245,4961,42,183,870
481594,2474876,2560084,2478630,2576934,2779,3800,1843,-377,6283,-1610,-2128,4400,42,183,870
482595,2474928,2560836,2478827,2577131,2919,3800,1801,-729,6519,-1737,-1551,3244,23,165,867
483596,2474964,2561560,2479024,2577328,3090,3800,1783,-778,6719,-1271,-804,3885,23,165,867
484597,2474988,2562228,2479221,2577525,3242,3800,1825,-1063,6871,-1018,-842,2846,28,145,863
485598,2475024,2562764,2479418,2577722,3238,3800,1909,-1109,6919,-1816,-481,3729,28,145,863
486599,2475072,2563336,2479615,2577919,3230,3800,1968,-746,6701,-3056,252,4088,7,122,858
487600,2475124,2563756,2479812,2578116,3270,3800,2031,-759,6318,-3734,123,3237,7,122,858
488601,2475180,2564072,2480009,2578313,3307,3800,2066,-260,5948,-3958,974,4729,7,78,853
489602,2475284,2564336,2480206,2578510,3048,3800,2093,158,5504,-4259,1528,3396,7,78,853
490603,2475372,2564532,2480403,2578707,3197,3800,2052,218,4929,-4012,669,2663,9,57,854
491603,2475488,2564716,2480600,2578904,3059,3800,2003,-16,4375,-3749,-61,1823,9,57,854
492604,2475672,2564820,2480797,2579101,2641,3800,1966,-521,3946,-3362,-599,1232,36,39,854
493605,2475844,2564916,2480994,2579298,2728,3800,1900,-920,3605,-2988,-1081,1341,36,39,854
494606,2476004,2564980,2481191,2579495,2820,3800,1857,-1433,3434,-3068,-2104,1344,50,14,854
495608,2476176,2565036,2481388,2579692,2757,3800,1822,-1831,3398,-2404,-2710,1821,50,14,854
496609,2476320,2565100,2481585,2579889,2956,3800,1593,-2051,3336,-1712,-2667,2544,45,24,855
497609,2476420,2565172,2481782,2580086,3275,3800,1169,-2338,3198,-1384,-2572,2507,45,24,855
498611,2476536,2565260,2481979,2580283,3211,3800,693,-2765,2951,-352,-2042,1943,19,12,854
499612,2476660,2565392,2482176,2580480,3195,3800,265,-3397,2662,1028,-1388,1375,19,12,854
500613,2476780,2565596,2482373,2580677,3254,3800,-173,-4207,2369,1738,-1557,1211,34,39,851
501614,2476956,2565796,2482570,2580874,2915,3800,-561,-5173,2021,1754,-1982,367,34,39,851
502614,2477128,2566084,2482767,2581071,2952,3800,-894,-6348,1648,1702,-1478,331,44,50,854
503616,2477304,2566360,2482964,2581268,2938,3800,-1358,-6837,1441,1948,-1516,3111,44,50,854
504616,2477436,2566676,2483161,2581465,3242,3800,-1869,-6952,1438,2260,-958,3012,49,66,857
505617,2477572,2566968,2483358,2581662,3245,3800,-2219,-7398,1463,2848,376,2163,49,66,857
506619,2477672,2567332,2483555,2581859,3514,3800,-2413,-7966,1389,4145,1444,2258,25,60,857
507620,2477748,2567700,2483752,2582056,3718,3800,-2569,-8463,1269,5257,1938,2357,25,60,857
508627,2477856,2568100,2483982,2582286,3573,3800,-2749,-8990,1105,5318,2153,2136,14,68,855
509621,2477976,2568476,2484179,2582483,3532,3800,-2907,-9327,985,5087,1742,2999,14,68,855
510623,2478132,2568896,2484376,2582680,3326,3800,-3129,-9116,870,4341,1082,4634,39,89,851
511624,2478380,2569296,2484573,2582877,2731,3800,-3348,-8544,754,3493,430,5326,39,89,851
512625,2478624,2569728,2484770,2583074,2736,3800,-3501,-7859,595,2723,231,5574,40,81,855
513625,2478832,2570200,2484967,2583271,2958,3800,-3590,-6936,441,2049,-137,6479,40,81,855
514627,2479064,2570668,2485164,2583468,2793,3800,-3582,-5679,427,1355,-995,7228,63,88,860
515628,2479248,2571116,2485361,2583665,3100,3800,-3447,-4439,501,730,-1677,6984,63,88,860
516629,2479484,2571580,2485558,2583862,2759,3800,-3161,-3240,570,325,-2554,6593,40,91,859
517630,2479784,2572120,2485755,2584059,2315,3800,-2753,-2126,639,319,-2839,6028,40,91,859
518630,2480040,2572676,2485952,2584256,2566,3800,-2276,-1054,724,117,-2705,5967,50,92,858
519632,2480324,2573348,2486149,2584453,2353,3800,-1731,38,886,-972,-3058,5779,50,92,858
520633,2480664,2573936,2486346,2584650,1941,3800,-1108,1013,1140,-1849,-2796,5188,73,120,863
521634,2480984,2574608,2486543,2584847,2013,3800,-519,1931,1413,-1454,-2275,4877,73,120,863
522635,2481308,2575204,2486740,2585044,1934,3800,54,2797,1670,-918,-1946,4155,69,127,864
523636,2481648,2575948,2486937,2585241,1772,3800,658,3259,1932,-915,-1768,3019,69,127,864
524637,2481988,2576668,2487134,2585438,1710,3800,1278,3492,2193,-1235,-1408,2650,70,135,867
525625,2482280,2577460,2487331,2585635,1969,3449,1847,3696,2488,-1605,-680,2220,70,135,867
526626,2482624,2578240,2487528,2585832,1581,3270,2331,3911,2829,-1347,323,2097,85,150,867
527627,2482972,2579048,2487725,2586029,1490,2827,2739,4094,3137,-1000,1155,1879,85,150,867
528628,2483276,2579936,2487922,2586226,1719,2026,3107,4236,3427,-742,1257,1560,62,159,870
529629,2483560,2580776,2488119,2586423,1807,2044,3457,4232,3753,-466,1289,1163,62,159,870
530630,2483928,2581748,2488316,2586620,1208,880,3742,4273,4108,-120,1568,1393,64,163,875
531631,2484248,2582544,2488513,2586817,1455,1717,3948,4476,4437,-50,2074,1565,64,163,875
532632,2484528,2583380,2488710,2587014,1668,1187,4147,4545,4704,148,2119,955,60,158,877
533633,2484840,2584180,2488907,2587211,1419,1147,4341,4627,4912,729,1976,1015,60,158,877
534634,2485132,2584964,2489104,2587408,1503,991,4495,4755,5077,966,1911,1086,73,151,880
535635,2485464,2585828,2489301,2587605,1195,197,4611,4903,5179,1110,1712,1040,73,151,880
536636,2485820,2586536,2489498,2587802,975,949,4696,5096,5213,1291,1310,1108,79,163,882
537637,2486124,2587296,2489695,2587999,1254,376,4734,5444,5226,1532,778,1535,79,163,882
538638,2486428,2587976,2489892,2588196,1208,664,4671,6095,5233,1921,-95,2489,64,132,885
539639,2486788,2588636,2490089,2588393,786,586,4502,6978,5226,2036,-1166,2942,64,132,885
540640,2487088,2589248,2490286,2588590,1117,703,4330,7816,5204,2110,-2336,2435,58,128,885
541640,2487408,2589800,2490483,2588787,939,922,4173,8602,5109,2084,-3388,2372,58,128,885
542642,2487720,2590304,2490680,2588984,938,1087,3999,9258,4941,2152,-4340,2146,58,115,885
543642,2488040,2590712,2490877,2589181,835,1595,3842,9776,4696,2498,-4571,1490,58,115,885
544644,2488356,2591184,2491074,2589378,808,1073,3714,10061,4409,2835,-4387,795,58,80,883
545645,2488736,2591604,2491271,2589575,329,1300,3579,10194,4100,3089,-4084,644,58,80,883
546646,2489004,2591944,2491468,2589772,997,1737,3367,10317,3816,3521,-3701,570,76,82,882
547647,2489296,2592200,2491665,2589969,807,2235,3121,10403,3542,3624,-2832,135,76,82,882
548648,2489600,2592556,2491862,2590166,685,1540,2874,10267,3168,3435,-1267,-513,52,64,885
549649,2489860,2592888,2492059,2590363,933,1630,2592,9919,2587,3334,-61,-783,52,64,885
550650,2490064,2593184,2492256,2590560,1280,1811,2276,9451,1895,3246,589,-991,51,69,879
551651,2490312,2593432,2492453,2590757,983,2088,1884,9073,1208,3141,1269,-831,51,69,879
552652,2490584,2593724,2492650,2590954,800,1771,1457,8669,573,3025,2161,-987,43,55,880
553653,2490776,2594000,2492847,2591151,1303,1835,1020,8155,3,3290,3136,-1060,43,55,880
554654,2490984,2594256,2493044,2591348,1199,1935,656,7604,-596,3141,3953,-1515,55,60,877
555655,2491192,2594488,2493241,2591545,1194,2068,386,6804,-1249,2501,4521,-2158,55,60,877
556656,2491380,2594688,2493438,2591742,1324,2267,164,5974,-1915,1962,4682,-1869,32,52,878
557657,2491544,2594928,2493635,2591939,1488,1997,-90,5306,-2484,1595,4319,-1363,32,52,878
558658,2491704,2595124,2493832,2592136,1530,2271,-402,4792,-2973,1408,4323,-1205,48,47,877
559659,2491896,2595340,2494029,2592333,1333,2138,-793,4465,-3449,999,4524,-472,48,47,877
560660,2492064,2595576,2494226,2592530,1496,1995,-1234,4315,-3914,119,4434,106,47,41,876
561661,2492256,2595752,2494423,2592727,1349,2379,-1632,4124,-4352,-611,3418,-182,47,41,876
562662,2492404,2595972,2494620,2592924,1645,2093,-1925,3795,-4709,-1141,2223,-628,32,36,876
563663,2492592,2596172,2494817,2593121,1399,2217,-2153,3318,-4960,-1599,1704,-886,32,36,876
564664,2492788,2596324,2495014,2593318,1351,2536,-2324,2758,-5088,-2149,1245,-1081,39,39,873
565665,2492972,2596532,2495211,2593515,1431,2180,-2463,2146,-5064,-2657,711,-1106,39,39,873
566666,2493116,2596736,2495408,2593712,1706,2202,-2593,1495,-4930,-2668,124,-1045,45,49,874
567667,2493308,2596928,2495605,2593909,1408,2278,-2730,840,-4742,-2569,-689,-825,45,49,874
568668,2493480,2597144,2495802,2594106,1544,2119,-2880,82,-4492,-2648,-1854,-850,26,49,875
569669,2493660,2597352,2495999,2594303,1502,2164,-3048,-799,-4169,-2540,-2977,-919,26,49,875
570670,2493860,2597528,2496196,2594500,1376,2372,-3224,-1764,-3749,-2321,-3760,-886,49,36,875
571671,2494096,2597732,2496393,2594697,1135,2194,-3374,-2839,-3251,-2144,-4336,-1132,49,36,875
572672,2494304,2597948,2496590,2594894,1305,2109,-3479,-4170,-2796,-1895,-4827,-1510,34,40,875
573673,2494472,2598172,2496787,2595091,1569,2048,-3551,-5610,-2387,-1824,-5359,-1372,34,40,875
574674,2494688,2598372,2496984,2595288,1260,2195,-3610,-7036,-1959,-1638,-6139,-914,27,52,876
575675,2494868,2598592,2497181,2595485,1494,2060,-3709,-8313,-1518,-1214,-6605,-400,27,52,876
576676,2495060,2598776,2497378,2595682,1421,2290,-3864,-9456,-1073,-612,-6462,316,45,52,875
577677,2495264,2598980,2497575,2595879,1343,2161,-4977,-9089,-612,605,-6420,7070,45,52,875
578678,2495436,2599192,2497772,2596076,1555,2104,-6903,-7658,-123,661,-8047,7971,46,42,875
579679,2495628,2599392,2497969,2596273,1432,2177,-7862,-7964,198,1054,-5276,769,46,42,875
580680,2495844,2599572,2498166,2596470,1275,2309,-7894,-9612,376,1734,-3299,174,28,33,875
581681,2496064,2599772,2498363,2596667,1240,2182,-8187,-11258,632,2298,-3711,2264,28,33,875
582682,2496236,2599960,2498560,2596864,1552,2260,-8955,-11830,936,2963,-3146,4192,30,39,875
583683,2496432,2600192,2498757,2597061,1402,1970,-9880,-12124,1201,3644,-1753,4388,30,39,875
584684,2496632,2600408,2498954,2597258,1377,2060,-10747,-12265,1421,4437,-1902,5511,39,55,876
585685,2496832,2600612,2499151,2597455,1376,2132,-7775,-8485,1662,9770,-2531,28890,39,55,876
586686,2496996,2600816,2499348,2597652,1615,2128,2204,10267,1144,21859,1019,32767,35,37,876
587687,2497188,2601032,2499545,2597849,1443,2044,9111,20267,1045,8393,-1577,25698,35,37,876
588688,2497392,2601240,2499742,2598046,1365,2089,9052,18252,1443,5712,-167,2970,44,33,875
589689,2497652,2601392,2499939,2598243,989,2458,6819,11963,1736,5408,728,-5068,44,33,875
590690,2497820,2601616,2500136,2598440,1576,1996,5558,6265,1774,5915,758,-6197,32,37,876
591699,2498028,2601808,2500366,2598670,1337,2211,4898,3237,1994,4920,-259,-2404,32,37,876
592691,2498228,2602012,2500563,2598867,1386,2132,4105,1699,2341,4049,-658,-173,30,33,874
593693,2498432,2602200,2500760,2599064,1359,2236,3023,567,2550,3844,-828,544,30,33,874
594694,2498632,2602400,2500957,2599261,1382,2159,2130,-1006,2659,2534,252,-366,32,48,876
595695,2498812,2602596,2501154,2599458,1515,2184,1561,-2803,2762,1734,265,619,32,48,876
596696,2499028,2602776,2501351,2599655,1282,2291,1089,-4073,2847,1315,-495,1217,49,47,875
597697,2499208,2602952,2501548,2599852,1515,2324,811,-5056,2997,-331,-1188,1825,49,47,875
598698,2499412,2603112,2501745,2600049,1363,2440,661,-5571,3226,-1597,-2108,3166,29,42,874
599699,2499608,2603312,2501942,2600246,1413,2188,668,-5737,3383,-2596,-2984,3496,29,42,874
600700,2499808,2603488,2502139,2600443,1388,2347,831,-5803,3324,-4319,-2982,3985,44,39,874
601701,2499996,2603708,2502336,2600640,1467,2061,987,-5273,3163,-5446,-3905,6099,44,39,874
602702,2500188,2603912,2502533,2600837,1445,2157,1084,-4406,2934,-6181,-3620,6097,44,34,875
603703,2500332,2604100,2502730,2601034,1768,2261,1213,-3517,2719,-7002,-2473,5993,44,34,875
604704,2500520,2604260,2502927,2601231,1497,2451,1311,-2482,2522,-6839,-1138,6782,22,47,876
605705,2500696,2604464,2503124,2601428,1582,2173,1356,-972,2365,-6202,-221,7800,22,47,876
606706,2500868,2604696,2503321,2601625,1618,1982,1363,354,2250,-6580,930,6645,27,43,873
607706,2501028,2604900,2503518,2601822,1711,2154,1491,1203,2167,-6510,1013,5201,27,43,873
608707,2501192,2605108,2503715,2602019,1700,2123,1694,1807,2139,-5704,1035,4778,45,35,874
609709,2501352,2605300,2503912,2602216,1743,2224,1960,2184,2209,-5125,1175,3898,45,35,874
610710,2501524,2605480,2504109,2602413,1678,2307,2157,2339,2384,-4042,1286,3313,26,47,873
611711,2501688,2605680,2504306,2602610,1744,2179,2239,2149,2611,-3274,781,2311,26,47,873
612712,2501896,2605932,2504503,2602807,1464,1830,2235,1815,2841,-2755,1110,2137,42,52,873
613713,2502100,2606184,2504700,2603004,1487,1805,2205,1198,3004,-2183,1631,999,42,52,873
614714,2502276,2606420,2504897,2603201,1671,1887,2211,238,3166,-1252,1753,62,29,40,874
615715,2502468,2606648,2505094,2603398,1575,1923,2249,-867,3374,-354,1575,-434,29,40,874
616716,2502656,2606892,2505291,2603595,1603,1802,2331,-2128,3565,197,1196,-983,34,41,877
617717,2502820,2607056,2505488,2603792,1769,2316,2393,-3336,3666,430,686,-484,34,41,877
618718,2503028,2607176,2505685,2603989,1489,2624,2362,-4227,3705,776,207,568,40,30,876
619719,2503208,2607312,2505882,2604186,1673,2550,2197,-4679,3774,1278,-184,1766,40,30,876
620720,2503396,2607456,2506079,2604383,1627,2523,1945,-4777,3893,1473,-423,2751,41,28,872
621721,2503608,2607644,2506276,2604580,1471,2251,1702,-4713,3977,1477,-587,3071,41,28,872
622722,2503812,2607848,2506473,2604777,1518,2148,1500,-4517,3968,1598,-701,3499,35,35,871
623723,2503988,2608116,2506670,2604974,1703,1716,1339,-4167,3927,1642,-936,3958,35,35,871
624724,2504192,2608416,2506867,2605171,1525,1469,1198,-3724,3872,1576,-1096,4473,35,53,874
625724,2504372,2608624,2507064,2605368,1684,2040,1074,-3204,3791,1686,-1039,4597,35,53,874
626726,2504536,2608940,2507261,2605565,1798,1311,970,-2553,3672,1696,-802,4861,31,60,877
627727,2504740,2609264,2507458,2605762,1546,1205,867,-1777,3450,1527,-510,5144,31,60,877
628728,2504904,2609592,2507655,2605959,1810,1122,792,-1020,3118,1126,-378,5124,29,65,875
629729,2505076,2609860,2507852,2606156,1772,1465,774,-310,2730,844,-380,5023,29,65,875
630730,2505268,2610160,2508049,2606353,1650,1219,791,453,2350,789,-132,4989,40,61,879
631731,2505416,2610480,2508246,2606550,1947,1039,847,1119,2036,836,-109,4676,40,61,879
632732,2505540,2610784,2508443,2606747,2129,1091,920,1726,1831,939,-359,4635,41,61,877
633733,2505668,2611052,2508640,2606944,2136,1284,1009,2292,1696,939,-459,4406,41,61,877
634734,2505812,2611436,2508837,2607141,2060,476,1135,2795,1573,764,-219,3954,24,55,878
635735,2505928,2611780,2509034,2607338,2270,661,1302,3122,1426,551,258,3360,24,55,878
636736,2506032,2612100,2509231,2607535,2387,756,1486,3217,1258,353,894,2667,29,75,876
637737,2506168,2612404,2509428,2607732,2214,808,1655,3172,1063,183,1500,2351,29,75,876
638738,2506272,2612740,2509625,2607929,2456,546,1796,3066,847,-7,1953,2015,19,77,878
639739,2506372,2613144,2509822,2608126,2525,29,1904,2873,645,-137,2230,1797,19,77,878
640740,2506528,2613464,2510019,2608323,2193,499,1964,2706,476,-256,2393,1714,35,58,878
641740,2506684,2613708,2510216,2608520,2212,953,2003,2499,350,-462,2449,1504,35,58,878
642742,2506832,2613984,2510413,2608717,2284,717,2047,2316,246,-694,2457,1537,27,65,877
643743,2506992,2614260,2510610,2608914,2225,681,2085,2189,168,-896,2209,1708,27,65,877
644744,2507124,2614504,2510807,2609111,2430,860,2103,2128,130,-1077,1793,1893,47,51,877
645745,2507264,2614752,2511004,2609308,2406,811,2081,2158,110,-1267,1542,2038,47,51,877
646746,2507412,2614928,2511201,2609505,2378,1269,2021,2246,75,-1533,1574,2127,31,43,878
647747,2507540,2615108,2511398,2609702,2534,1251,1923,2385,35,-1867,1605,2266,31,43,878
648748,2507676,2615280,2511595,2609899,2512,1311,1781,2534,2,-2008,1479,2292,24,47,876
649749,2507796,2615460,2511792,2610096,2647,1267,1577,2722,-14,-1984,1396,2431,24,47,876
650750,2507916,2615680,2511989,2610293,2680,1006,1298,2952,7,-1970,1434,2746,18,35,874
651751,2508032,2615832,2512186,2610490,2742,1450,970,3264,37,-1801,1813,2821,18,35,874
652752,2508164,2615988,2512383,2610687,2672,1442,634,3443,84,-1385,2095,2371,28,44,872
653753,2508300,2616144,2512580,2610884,2674,1459,331,3408,164,-1062,2226,1817,28,44,872
654754,2508400,2616316,2512777,2611081,2943,1369,44,3204,234,-776,2368,1381,37,27,870
655755,2508516,2616440,2512974,2611278,2879,1700,-264,2871,267,-559,2462,1207,37,27,870
656756,2508648,2616604,2513171,2611475,2808,1464,-588,2446,289,-360,2313,1184,21,41,871
657756,2508776,2616752,2513368,2611672,2864,1584,-932,2065,314,-50,2278,1335,21,41,871
658758,2508912,2616892,2513565,2611869,2842,1658,-1327,1834,315,381,2457,2020,21,26,869
659759,2509080,2617064,2513762,2612066,2656,1468,-1779,1744,305,879,2310,2544,21,26,869
660760,2509216,2617236,2513959,2612263,2884,1478,-2222,1631,261,1331,2102,2315,35,40,869
661761,2509364,2617404,2514156,2612460,2831,1515,-2669,1463,139,1618,2153,2402,35,40,869
662762,2509536,2617552,2514353,2612657,2693,1660,-3155,1295,-85,1763,2271,2796,27,24,871
663763,2509672,2617700,2514550,2612854,2945,1681,-3669,1227,-369,1974,2166,3181,27,24,871
664764,2509812,2617820,2514747,2613051,2946,1889,-4175,1290,-673,2021,1621,3506,24,40,869
665765,2509972,2617952,2514944,2613248,2838,1841,-4660,1419,-968,1957,927,3962,24,40,869
666766,2510124,2618104,2515141,2613445,2909,1735,-5117,1670,-1244,1882,65,4517,25,32,869
667767,2510284,2618260,2515338,2613642,2876,1727,-5512,1903,-1488,1819,-761,4474,25,32,869
668768,2510460,2618432,2515535,2613839,2787,1638,-5809,2009,-1699,1764,-1020,4114,45,42,869
669768,2510608,2618580,2515732,2614036,2984,1809,-6015,1932,-1929,1825,-752,3706,45,42,869
670769,2510764,2618744,2515929,2614233,2953,1722,-6142,1639,-2203,1871,-364,3408,27,36,869
671770,2510932,2618896,2516126,2614430,2892,1816,-6199,1287,-2494,1922,-452,3365,27,36,869
672771,2511092,2619052,2516323,2614627,2959,1808,-6196,1086,-2761,1758,-954,3887,25,27,869
673772,2511236,2619148,2516520,2614824,3084,2226,-6157,1025,-2973,1466,-1532,4455,25,27,869
674780,2511380,2619328,2516750,2615054,3122,1722,-6072,1097,-3131,1289,-1882,4947,27,28,867
675775,2511500,2619476,2516947,2615251,3307,1944,-5936,1211,-3246,1094,-1888,5119,27,28,867
676776,2511612,2619616,2517144,2615448,3396,2018,-5754,1325,-3343,741,-1728,5476,22,28,864
677777,2511748,2619764,2517341,2615645,3273,1988,-3870,3575,-3073,-1768,-4958,28286,22,28,864
678778,2511876,2619916,2517538,2615842,3355,1982,365,9677,-2237,-4265,-7541,32767,35,40,865
679779,2511976,2620052,2517735,2616039,3573,2108,2839,12000,-1988,258,-813,7555,35,40,865
680780,2512088,2620180,2517932,2616236,3537,2188,3071,10711,-2319,902,640,1652,37,25,864
681781,2512172,2620296,2518129,2616433,3763,2298,2464,8215,-2688,1291,99,721,37,25,864
682782,2512276,2620408,2518326,2616630,3680,2359,2152,6730,-2766,1682,-879,2457,26,32,861
683783,2512376,2620528,2518523,2616827,3749,2342,2086,5970,-2570,1325,-1224,2523,26,32,861
684784,2512488,2620628,2518720,2617024,3712,2510,2078,5337,-2381,1325,-1602,2466,25,21,859
685785,2512600,2620744,2518917,2617221,3751,2444,2054,4394,-2382,753,-1239,1473,25,21,859
686786,2512748,2620868,2519114,2617418,3548,2425,1997,2901,-2548,-29,-990,732,20,33,858
687787,2512908,2620980,2519311,2617615,3491,2538,2003,1344,-2798,-352,-1325,875,20,33,858
688788,2513052,2621080,2519508,2617812,3616,2654,1930,-22,-3031,-742,-1949,1669,22,25,858
689789,2513176,2621220,2519705,2618009,3774,2428,1844,-811,-3170,-1445,-2764,3462,22,25,858
690790,2513324,2621340,2519902,2618206,3646,2587,1673,-1138,-3211,-1933,-3370,4603,42,25,860
691804,2513436,2621444,2520099,2618403,3800,2727,1537,-1187,-3188,-2589,-3651,5112,42,25,860
692804,2513552,2621560,2520296,2618600,3800,2688,1381,-1148,-3118,-3165,-3539,5692,17,20,857
693805,2513656,2621656,2520493,2618797,3800,2856,1241,-972,-3046,-3456,-2944,5819,17,20,857
694806,2513752,2621784,2520690,2618994,3800,2686,1093,-842,-2995,-3581,-2014,5611,17,33,856
695807,2513828,2621888,2520887,2619191,3800,2876,977,-785,-2950,-3675,-1343,5269,17,33,856
696808,2513920,2622004,2521084,2619388,3800,2837,841,-695,-2896,-3640,-886,5291,10,33,854
697809,2513988,2622108,2521281,2619585,3800,2952,695,-675,-2793,-3423,-361,4946,10,33,854
698810,2514040,2622216,2521478,2619782,3800,2966,525,-667,-2600,-3152,212,4821,27,26,853
699812,2514104,2622324,2521675,2619979,3800,3004,344,-813,-2339,-2778,827,4323,27,26,853
700813,2514148,2622464,2521872,2620176,3800,2829,194,-1135,-2074,-2299,1426,3600,10,25,854
701813,2514208,2622588,2522069,2620373,3800,2960,88,-1651,-1811,-1767,1855,3136,10,25,854
702814,2514268,2622716,2522266,2620570,3800,2965,35,-2307,-1537,-1271,2073,2492,24,34,854
703815,2514300,2622832,2522463,2620767,3800,3075,10,-3147,-1261,-865,2142,1974,24,34,854
704816,2514328,2622936,2522660,2620964,3800,3191,4,-4001,-987,-528,2282,1804,21,28,854
705817,2514364,2623060,2522857,2621161,3800,3098,-15,-4813,-741,-283,2226,2010,21,28,854
706818,2514408,2623184,2523054,2621358,3800,3129,-30,-5469,-534,-87,1777,2257,3,24,852
707820,2514440,2623276,2523251,2621555,3800,3375,-37,-6035,-327,99,1170,2462,3,24,852
708821,2514484,2623424,2523448,2621752,3800,3047,-38,-6406,-100,445,589,2983,20,23,851
709822,2514536,2623556,2523645,2621949,3800,3174,-43,-6625,154,641,71,3457,20,23,851
710823,2514576,2623692,2523842,2622146,3800,3176,-33,-6703,425,659,-386,3662,24,22,848
711824,2514644,2623840,2524039,2622343,3800,3123,-9,-6651,684,664,-692,3816,24,22,848
712825,2514716,2623972,2524236,2622540,3800,3250,27,-6482,908,576,-808,4078,20,22,852
713825,2514788,2624120,2524433,2622737,3800,3172,52,-6161,1104,557,-986,4582,20,22,852
714826,2514876,2624264,2524630,2622934,3800,3220,74,-5718,1291,648,-1207,4736,20,37,853
715827,2515008,2624408,2524827,2623131,3800,3243,97,-5178,1453,758,-1355,4844,20,37,853
716828,2515136,2624584,2525024,2623328,3800,3052,120,-4583,1575,855,-1384,4812,21,37,853
717829,2515252,2624740,2525221,2623525,3800,3195,151,-4044,1658,836,-1585,4513,21,37,853
718830,2515352,2624900,2525418,2623722,3800,3186,199,-3529,1722,885,-1750,4393,29,27,851
719831,2515452,2625052,2525615,2623919,3800,3256,276,-3017,1767,895,-1752,4198,29,27,851
720832,2515548,2625180,2525812,2624116,3800,3435,380,-2563,1785,884,-1821,4073,33,40,851
721833,2515636,2625336,2526009,2624313,3800,3278,503,-2055,1786,901,-1894,4037,33,40,851
722834,2515728,2625472,2526206,2624510,3800,3430,640,-1624,1782,899,-1952,3729,32,26,851
723835,2515788,2625592,2526403,2624707,3800,3564,795,-1194,1773,1015,-1984,3537,32,26,851
724836,2515852,2625744,2526600,2624904,3800,3383,957,-854,1765,1038,-1958,3087,27,27,851
725837,2515912,2625884,2526797,2625101,3800,3482,1132,-625,1765,1020,-1873,2773,27,27,851
726838,2515964,2626032,2526994,2625298,3800,3454,1301,-439,1752,1069,-1688,2755,15,37,849
727839,2515988,2626212,2527191,2625495,3800,3261,1460,-252,1720,1090,-1403,2699,15,37,849
728840,2516024,2626368,2527388,2625692,3800,3429,1606,-27,1673,1073,-1171,2663,19,32,850
729841,2516044,2626540,2527585,2625889,3800,3340,1751,151,1621,997,-1032,2417,19,32,850
730842,2516040,2626724,2527782,2626086,3800,3271,1888,262,1565,982,-890,2276,18,33,850
731843,2516052,2626904,2527979,2626283,3800,3304,1991,390,1491,934,-667,2301,18,33,850
732845,2516068,2627104,2528176,2626480,3800,3177,2052,473,1404,848,-419,2176,15,49,850
733845,2516076,2627288,2528373,2626677,3800,3282,2077,557,1303,854,-30,2274,15,49,850
734846,2516080,2627472,2528570,2626874,3800,3288,2053,666,1182,886,357,2442,14,33,851
735847,2516084,2627656,2528767,2627071,3800,3293,1954,887,1036,983,744,2775,14,33,851
736848,2516108,2627856,2528964,2627268,3800,3192,1791,1194,893,1006,930,2962,17,50,851
737849,2516108,2628052,2529161,2627465,3800,3218,1568,1519,766,1010,1101,3161,17,50,851
738850,2516128,2628232,2529358,2627662,3800,3325,1297,1874,638,984,1286,3349,18,49,849
739851,2516132,2628440,2529555,2627859,3800,3145,996,2156,493,879,1368,3155,18,49,849
740853,2516168,2628656,2529752,2628056,3800,3087,678,2339,338,773,1203,2863,13,39,850
741854,2516180,2628876,2529949,2628253,3800,3051,336,2416,193,738,1014,2835,13,39,850
742855,2516204,2629104,2530146,2628450,3800,2987,-32,2484,62,702,833,2792,20,50,849
743856,2516240,2629316,2530343,2628647,3800,3081,-396,2451,-49,568,644,2503,20,50,849
744857,2516272,2629512,2530540,2628844,3800,3181,-765,2357,-129,533,481,2395,17,39,853
745858,2516280,2629712,2530737,2629041,3800,3155,-1128,2127,-193,555,460,2168,17,39,853
746859,2516280,2629896,2530934,2629238,3800,3260,-1488,1822,-243,490,244,2072,5,34,852
747860,2516280,2630092,2531131,2629435,3800,3186,-1862,1499,-247,501,40,2208,5,34,852
748861,2516284,2630256,2531328,2629632,3800,3400,-2237,1191,-204,516,5,2308,14,45,851
749862,2516284,2630448,2531525,2629829,3800,3226,-2594,864,-159,376,151,2273,14,45,851
750863,2516292,2630588,2531722,2630026,3800,3577,-2914,514,-135,260,364,2290,9,38,851
751864,2516292,2630716,2531919,2630223,3800,3682,-3224,172,-131,123,388,2579,9,38,851
752865,2516296,2630848,2532116,2630420,3800,3685,-3521,-135,-111,-22,293,2823,16,25,849
753865,2516292,2630992,2532313,2630617,3800,3634,-3784,-413,-76,-168,304,2962,16,25,849
754867,2516296,2631172,2532510,2630814,3800,3416,-4029,-653,-17,-248,91,3319,-4,23,847
755868,2516304,2631340,2532707,2631011,3800,3504,-4245,-830,74,-425,-335,3442,-4,23,847
756869,2516300,2631516,2532904,2631208,3800,3463,-4429,-991,173,-606,-658,3712,17,41,847
757877,2516316,2631684,2533134,2631438,3800,3540,-4565,-1159,236,-882,-710,3819,17,41,847
758870,2516324,2631876,2533331,2631635,3800,3393,-4636,-1321,264,-1047,-629,3998,17,31,848
759871,2516332,2632060,2533528,2631832,3800,3448,-4640,-1474,302,-1061,-510,4156,17,31,848
760872,2516356,2632268,2533725,2632029,3800,3293,-4599,-1559,357,-1059,-320,4454,17,50,849
761873,2516364,2632468,2533922,2632226,3800,3342,-4507,-1615,414,-1079,-162,4541,17,50,849
762875,2516404,2632664,2534119,2632423,3800,3368,-4360,-1694,473,-1081,-63,4591,19,37,848
763875,2516448,2632868,2534316,2632620,3800,3315,-4131,-1728,540,-1176,-411,5339,19,37,848
764876,2516512,2633096,2534513,2632817,3800,3150,-2551,-126,632,-401,-1410,24029,20,50,850
765878,2516584,2633332,2534710,2633014,3800,3083,528,3612,783,-518,-3003,32767,20,50,850
766879,2516676,2633540,2534907,2633211,3800,3253,2433,5063,854,-1374,-1288,7928,16,45,851
767879,2516756,2633720,2535104,2633408,3800,3435,2673,4202,816,-1357,-175,2701,16,45,851
768881,2516848,2633892,2535301,2633605,3800,3496,2384,2696,765,-897,-338,2312,27,34,853
769881,2516952,2634128,2535498,2633802,3800,3079,2289,1686,810,-583,-536,2623,27,34,853
770882,2517064,2634360,2535695,2633999,3800,3089,2393,1039,925,-540,-360,2564,34,43,851
771884,2517176,2634616,2535892,2634196,3800,2913,2455,596,1019,-264,-258,3199,34,43,851
772884,2517288,2634848,2536089,2634393,3800,3048,2422,66,1067,-512,-404,2628,37,46,853
773886,2517384,2635052,2536286,2634590,3800,3219,2399,-689,1050,-1093,-370,1989,37,46,853
774887,2517476,2635312,2536483,2634787,3800,2842,2360,-1308,938,-1136,-304,2711,30,54,853
775888,2517568,2635552,2536680,2634984,3800,2948,2295,-1796,781,-1317,-830,3007,30,54,853
776889,2517668,2635820,2536877,2635181,3800,2742,2218,-2045,651,-1352,-1227,3568,35,46,852
777890,2517752,2636072,2537074,2635378,3800,2817,2122,-2124,536,-1310,-1208,3966,35,46,852
778891,2517852,2636292,2537271,2635575,3800,3006,1983,-2057,426,-1381,-804,4314,18,51,854
779892,2517944,2636512,2537468,2635772,3800,2996,1838,-1924,358,-1328,-680,4433,18,51,854
780893,2518052,2636732,2537665,2635969,3800,2986,1716,-1880,292,-1091,-378,3958,12,41,855
781893,2518144,2636988,2537862,2636166,3800,2735,1612,-1884,212,-1003,45,3905,12,41,855
782895,2518228,2637312,2538059,2636363,3800,2254,1528,-1867,113,-931,635,3805,29,53,854
783895,2518348,2637576,2538256,2636560,3800,2600,1440,-1951,-6,-818,752,3525,29,53,854
784896,2518444,2637820,2538453,2636757,3800,2703,1335,-1972,-96,-596,917,3645,15,62,854
785897,2518572,2638076,2538650,2636954,3800,2602,1229,-1964,-117,-307,1325,3512,15,62,854
786899,2518680,2638368,2538847,2637151,3800,2336,1137,-2015,-144,-95,1729,3216,39,64,856
787900,2518796,2638700,2539044,2637348,3800,2026,1066,-2136,-216,55,2174,2954,39,64,856
788900,2518892,2638972,2539241,2637545,3800,2367,999,-2297,-276,291,2221,2958,35,65,857
789902,2519012,2639220,2539438,2637742,3800,2495,915,-2387,-278,578,2088,3124,35,65,857
790903,2519112,2639500,2539635,2637939,3800,2259,845,-2459,-252,614,2010,2876,24,61,860
791904,2519220,2639804,2539832,2638136,3800,2061,766,-2443,-221,712,1849,3225,24,61,860
792904,2519328,2640100,2540029,2638333,3800,2067,637,-2304,-183,861,1508,3561,16,47,857
793906,2519424,2640404,2540226,2638530,3800,1970,483,-2077,-150,752,1044,3671,16,47,857
794907,2519532,2640688,2540423,2638727,3800,2057,371,-1840,-138,531,656,3513,31,57,859
795908,2519628,2640952,2540620,2638924,3800,2151,305,-1612,-156,386,200,3404,31,57,859
796909,2519716,2641280,2540817,2639121,3800,1694,270,-1474,-194,348,-57,3266,25,60,858
797910,2519816,2641628,2541014,2639318,3800,1501,266,-1352,-218,419,-332,2885,25,60,858
798911,2519912,2641948,2541211,2639515,3800,1622,280,-1313,-217,597,-587,2654,32,63,859
799912,2520012,2642248,2541408,2639712,3800,1701,314,-1282,-185,798,-746,2581,32,63,859
800913,2520104,2642604,2541605,2639909,3800,1281,369,-1261,-144,850,-785,2449,33,60,861
801914,2520204,2642964,2541802,2640106,3800,1184,435,-1224,-117,943,-856,2501,33,60,861
802915,2520312,2643300,2541999,2640303,3800,1272,486,-1178,-110,1048,-863,2513,13,78,861
803915,2520404,2643660,2542196,2640500,3800,1050,535,-1077,-120,1267,-594,2591,13,78,861
804916,2520512,2644068,2542393,2640697,3800,657,567,-923,-145,1561,-371,2850,32,70,863
805917,2520628,2644448,2542590,2640894,3800,751,583,-708,-185,1765,-183,2883,32,70,863
806919,2520756,2644772,2542787,2641091,3800,1044,593,-457,-242,1977,69,2894,35,79,863
807920,2520904,2645132,2542984,2641288,3800,747,584,-226,-308,2269,296,2953,35,79,863
808920,2521072,2645496,2543181,2641485,3800,648,569,-4,-385,2377,378,2956,29,75,862
809921,2521208,2645880,2543378,2641682,3800,440,539,232,-477,2458,300,2978,29,75,862
810923,2521416,2646196,2543575,2641879,3800,811,508,463,-572,2597,312,2879,44,75,866
811924,2521576,2646500,2543772,2642076,3800,839,480,675,-661,2706,266,2837,44,75,866
812925,2521760,2646816,2543969,2642273,3800,711,467,871,-755,2708,25,2789,48,56,867
813925,2521952,2647084,2544166,2642470,3800,979,476,1029,-846,2685,-402,2576,48,56,867
814927,2522144,2647392,2544363,2642667,3800,679,510,1133,-937,2694,-602,2284,45,62,865
815927,2522340,2647636,2544560,2642864,3800,1057,574,1205,-1026,2653,-802,2373,45,62,865
816929,2522564,2647872,2544757,2643061,3800,1089,633,1299,-1117,2541,-1254,2552,49,49,865
817929,2522808,2648140,2544954,2643258,3800,857,695,1452,-1205,2544,-1594,2620,49,49,865
818931,2523068,2648408,2545151,2643455,3800,825,750,1736,-1274,2641,-1816,2905,62,46,864
819932,2523344,2648664,2545348,2643652,3800,873,812,1989,-1372,2648,-1539,2765,62,46,864
820932,2523616,2648936,2545545,2643849,3800,739,875,2272,-1491,2592,-1588,2931,54,54,866
821933,2523924,2649148,2545742,2644046,3800,1106,953,2580,-1603,2367,-1583,2855,54,54,866
822935,2524288,2649336,2545939,2644243,3800,1259,1035,2862,-1710,2178,-1516,2922,51,54,866
823936,2524640,2649564,2546136,2644440,3800,996,1115,3164,-1814,2030,-1389,2816,51,54,866
824936,2524992,2649848,2546333,2644637,3800,607,1210,3420,-1899,1962,-1094,2549,77,52,866
825937,2525408,2650120,2546530,2644834,3800,648,1295,3602,-1934,1880,-828,2633,77,52,866
826939,2525844,2650396,2546727,2645031,3800,587,1360,3829,-1945,1638,-994,2740,73,43,867
827939,2526272,2650584,2546924,2645228,3800,1139,1375,4304,-2014,992,-1329,3312,73,43,867
828941,2526764,2650684,2547121,2645425,3800,1730,1420,4726,-2160,401,-1137,2793,96,54,867
829941,2527264,2650924,2547318,2645622,3800,836,1520,4926,-2312,450,-870,2404,96,54,867
830943,2527764,2651172,2547515,2645819,3800,762,1644,5127,-2432,252,-951,2332,105,43,866
831943,2528280,2651432,2547712,2646016,3800,658,1749,5310,-2526,-266,-1168,2135,105,43,866
832945,2528852,2651636,2547909,2646213,3800,1004,1827,5492,-2614,-644,-1148,2282,104,60,868
833946,2529412,2651828,2548106,2646410,3800,1081,1875,5630,-2736,-967,-884,2080,120,40,869
834947,2529960,2652004,2548303,2646607,3800,1189,1944,5744,-2913,-1247,-668,1719,120,40,869
835948,2530620,2652196,2548500,2646804,3800,1090,1972,5798,-3099,-1448,-536,1728,110,38,869
836948,2531176,2652412,2548697,2647001,3800,931,2011,5768,-3261,-1642,-366,1493,110,38,869
837949,2531792,2652620,2548894,2647198,3800,975,1999,5701,-3409,-1831,-208,1329,123,48,869
838951,2532444,2652816,2549091,2647395,3800,1049,2046,5626,-3553,-2190,-219,1069,123,48,869
839952,2533076,2652988,2549288,2647592,3800,1209,2054,5387,-3680,-2603,-210,944,124,48,868
840960,2533728,2653144,2549518,2647822,3800,1341,2093,5171,-3813,-2822,-314,828,124,48,868
841953,2534436,2653300,2549715,2648019,3800,1358,2076,4849,-3934,-3007,-372,685,135,36,869
842955,2535132,2653500,2549912,2648216,3800,1080,2064,4481,-4017,-3304,-427,487,135,36,869
843956,2535832,2653648,2550109,2648413,3800,1426,1988,4174,-4076,-3698,-547,983,128,41,870
844944,2536648,2653800,2550306,2648610,3054,1420,1854,4002,-4101,-4034,-730,1413,128,41,870
845945,2537404,2653968,2550503,2648807,3185,1331,1692,3930,-4061,-4377,-1113,1702,150,31,869
846946,2538172,2654108,2550700,2649004,2862,1531,1549,3735,-3961,-4858,-1088,1415,150,31,869
847947,2538980,2654264,2550897,2649201,2345,1448,1477,3322,-3843,-5151,-843,1033,144,31,874
848948,2539728,2654396,2551094,2649398,2480,1625,1411,2756,-3732,-5152,-664,961,144,31,874
849948,2540448,2654524,2551291,2649595,2427,1679,1374,2038,-3581,-5230,-151,401,174,35,876
850950,2541204,2654656,2551488,2649792,1960,1682,1304,1184,-3312,-5090,-91,412,174,35,876
851951,2541864,2654772,2551685,2649989,2357,1817,1193,202,-2953,-4726,67,266,140,45,874
852952,2542464,2654980,2551882,2650186,2557,1236,1067,-950,-2575,-4354,597,113,140,45,874
853953,2542996,2655196,2552079,2650383,2837,1177,887,-2109,-2161,-3838,682,418,115,44,874
854954,2543576,2655380,2552276,2650580,2371,1382,660,-3369,-1684,-3176,589,287,115,44,874
855955,2544032,2655576,2552473,2650777,3034,1307,383,-4714,-1204,-2409,766,400,96,42,874
856956,2544412,2655748,2552670,2650974,3430,1467,82,-6135,-785,-1366,1050,107,96,42,874
857957,2544776,2655920,2552867,2651171,3458,1477,-234,-7858,-448,-319,676,-249,72,28,872
858958,2545108,2656072,2553064,2651368,3600,1620,-946,-8933,-80,1248,182,2566,72,28,872
859971,2545372,2656216,2553261,2651565,3800,1693,-3195,-8178,531,2901,-2186,9338,57,42,867
860972,2545620,2656396,2553458,2651762,3800,1474,-5351,-7757,1055,3302,-3910,3662,57,42,867
861973,2545796,2656572,2553655,2651959,3800,1507,-7146,-8292,1443,4509,-4587,3580,55,24,862
862974,2545924,2656704,2553852,2652156,3800,1810,-8687,-9060,2054,5144,-7913,3598,55,24,862
863975,2546048,2656832,2554049,2652353,3800,1865,-9758,-10642,2447,5695,-5839,871,30,22,862
864976,2546152,2656956,2554246,2652550,3800,1921,-10360,-12394,2404,6858,-3344,1138,30,22,862
865977,2546332,2657076,2554443,2652747,3800,1979,-9910,-15574,1642,11025,-7716,646,40,29,860
866978,2546540,2657188,2554640,2652944,3800,2065,-8705,-19514,-88,17697,-14200,11087,40,29,860
867980,2546760,2657316,2554837,2653141,3800,1995,-7040,-19775,-622,11165,-3222,17119,43,24,861
868980,2546952,2657416,2555034,2653338,3800,2211,-654,-8391,-336,11258,2371,32767,43,24,861
869981,2547148,2657524,2555231,2653535,3800,2201,5756,2143,135,5005,-1933,32767,47,24,859
870982,2547332,2657644,2555428,2653732,3800,2158,6929,3181,365,3808,485,3215,47,24,859
871984,2547532,2657756,2555625,2653929,3800,2245,5771,-577,-31,3731,2196,-822,47,27,858
872985,2547800,2657892,2555822,2654126,3800,2121,4462,-4171,-670,4228,2815,501,47,27,858
873986,2548036,2658036,2556019,2654323,3800,2094,3852,-5007,-894,2400,3710,3771,55,38,858
874987,2548224,2658168,2556216,2654520,3800,2196,3635,-4675,-897,1471,3345,4627,55,38,858
875988,2548368,2658316,2556413,2654717,3800,2117,3379,-3897,-852,793,1585,6194,45,33,859
876989,2548456,2658436,2556610,2654914,3800,2326,3170,-3224,-365,-1058,286,6484,45,33,859
877990,2548528,2658560,2556807,2655111,3800,2332,2973,-2871,100,-1650,1406,4636,24,27,858
878991,2548624,2658712,2557004,2655308,3800,2176,2795,-2813,196,-2214,1913,3627,24,27,858
879992,2548748,2658844,2557201,2655505,3800,2329,2795,-3009,333,-3506,1746,3060,33,25,856
880993,2548896,2658992,2557398,2655702,3800,2250,2968,-3017,485,-3950,1369,2984,33,25,856
881993,2549112,2659152,2557595,2655899,3800,2190,3039,-2548,695,-4133,504,4583,41,25,857
882995,2549340,2659280,2557792,2656096,3800,2420,2918,-1353,980,-4569,1504,6794,41,25,857
883996,2549556,2659424,2557989,2656293,3800,2343,2670,640,1422,-3836,-112,8621,47,22,859
884997,2549748,2659568,2558186,2656490,3800,2365,2422,2683,1821,-3878,-171,7727,47,22,859
885998,2549876,2659716,2558383,2656687,3800,2361,2255,4132,2194,-4826,-399,6233,40,24,858
886998,2549988,2659860,2558580,2656884,3800,2409,2169,4685,2355,-4538,-493,3511,40,24,858
888000,2550128,2659984,2558777,2657081,3800,2566,2165,4578,2291,-3909,-607,1719,32,26,856
889001,2550300,2660128,2558974,2657278,3800,2463,2157,4228,2130,-3490,-196,1127,32,26,856
890002,2550588,2660256,2559171,2657475,3800,2593,2161,3726,2075,-1888,-897,171,43,42,857
891003,2550780,2660364,2559368,2657672,3800,2756,2127,3176,2125,-1135,-1146,145,43,42,857
892004,2551048,2660500,2559565,2657869,3800,2608,2066,2787,2361,-799,-1808,816,61,21,857
893004,2551264,2660624,2559762,2658066,3800,2714,1869,2439,2612,264,-1780,728,61,21,857
894005,2551504,2660728,2559959,2658263,3800,2880,1593,1818,2792,1172,-1370,-159,43,28,856
895006,2551792,2660836,2560156,2658460,3800,2893,1329,797,2904,1880,-841,-1169,43,28,856
896007,2552012,2660968,2560353,2658657,3800,2772,1119,-414,2926,3053,-576,-1804,48,23,854
897009,2552304,2661120,2560550,2658854,3800,2666,937,-1766,2861,3387,160,-2067,48,23,854
898009,2552588,2661288,2560747,2659051,3800,2578,750,-2977,2756,3156,398,-1174,56,32,857
899010,2552864,2661440,2560944,2659248,3800,2697,512,-3767,2555,3122,595,-243,56,32,857
899999,2553240,2661560,2561141,2659445,3366,2931,232,-4397,2285,3248,837,-36,65,28,856
901000,2553556,2661688,2561338,2659642,3689,2911,-62,-4815,2006,3687,1081,708,65,28,856
902001,2553848,2661808,2561535,2659839,3800,2994,-412,-4990,1699,4024,1175,1366,64,43,860
903002,2554216,2661948,2561732,2660036,3250,2894,-785,-4901,1431,3900,394,2335,64,43,860
904002,2554668,2662092,2561929,2660233,2615,2892,-1175,-4469,1205,3204,3,3266,76,25,856
905004,2554952,2662224,2562126,2660430,3628,2995,-1521,-3928,953,2544,-133,3412,76,25,856
906005,2555280,2662372,2562323,2660627,3297,2917,-1843,-3182,567,2522,221,3807,87,32,862
907006,2555632,2662512,2562520,2660824,3080,2991,-2093,-2447,146,2616,159,3541,87,32,862
908007,2556156,2662672,2562717,2661021,1863,2882,-2308,-1882,-196,2823,-159,3364,81,37,859
909008,2556404,2662860,2562914,2661218,3566,2711,-2515,-1268,-487,2500,-193,3633,81,37,859
910009,2556732,2662996,2563111,2661415,3010,3062,-2677,-657,-757,2059,-177,3214,69,46,865
911010,2557228,2663116,2563308,2661612,1830,3196,-2792,-154,-997,2304,-184,2940,69,46,865
912011,2557524,2663252,2563505,2661809,3038,3122,-2870,245,-1160,2539,-323,2661,67,38,860
913012,2557836,2663428,2563702,2662006,2888,2882,-2930,604,-1298,2225,-160,2736,67,38,860
914013,2558320,2663564,2563899,2662203,1688,3157,-2912,856,-1479,1976,-34,1984,67,28,861
915014,2558656,2663752,2564096,2662400,2553,2836,-2818,685,-1639,2009,-111,866,67,28,861
916015,2559056,2663916,2564293,2662597,2065,3001,-2715,588,-1722,1990,-192,1458,71,44,865
917016,2559504,2664132,2564490,2662794,1656,2668,-2610,518,-1754,1740,51,1242,71,44,865
918017,2559896,2664284,2564687,2662991,1921,3086,-2468,119,-1789,1866,475,232,79,39,865
919018,2560304,2664448,2564884,2663188,1729,3026,-2353,-252,-1771,2044,221,566,79,39,865
920019,2560716,2664624,2565081,2663385,1611,2960,-2285,-620,-1677,1700,-40,541,77,31,867
921020,2561104,2664796,2565278,2663582,1678,2996,-2202,-1012,-1583,1668,119,471,77,31,867
922021,2561500,2664968,2565475,2663779,1541,3006,-2134,-1301,-1526,1717,242,879,65,40,868
923022,2561880,2665168,2565672,2663976,1561,2830,-2062,-1446,-1424,1356,-399,1280,65,40,868
924032,2562260,2665384,2565902,2664206,1496,2736,-2030,-1483,-1275,1155,-489,1761,89,54,868
925024,2562620,2665620,2566099,2664403,1550,2594,-1976,-1446,-1144,1060,-7,1833,89,54,868
926025,2562976,2665800,2566296,2664600,1505,2950,-1968,-1294,-1046,1110,141,2291,79,45,871
927026,2563364,2666012,2566493,2664797,1223,2744,-2003,-978,-958,967,-119,2627,79,45,871
928027,2563724,2666220,2566690,2664994,1327,2764,-2071,-756,-844,858,-286,2530,59,53,868
929028,2564080,2666444,2566887,2665191,1282,2652,-2123,-462,-736,1149,-380,2916,59,53,868
930029,2564440,2666672,2567084,2665388,1186,2612,-2200,-83,-635,1348,-473,3043,60,50,871
931030,2564764,2666896,2567281,2665585,1356,2625,-2317,444,-508,1203,-586,3636,60,50,871
932031,2565100,2667156,2567478,2665782,1221,2373,-2474,1080,-332,816,-739,4220,64,42,873
933032,2565428,2667412,2567675,2665979,1213,2372,-2607,1682,-172,585,-580,4028,64,42,873
934033,2565704,2667656,2567872,2666176,1504,2425,-2709,2270,-62,579,-445,4073,49,56,874
935034,2565972,2667908,2568069,2666373,1523,2351,-2802,2765,36,710,-603,4008,49,56,874
936035,2566280,2668148,2568266,2666570,1224,2407,-2871,3088,161,949,-948,3687,62,47,873
937035,2566532,2668376,2568463,2666767,1551,2468,-2908,3333,318,1161,-1147,3482,62,47,873
938037,2566796,2668668,2568660,2666964,1447,2026,-2916,3536,498,1187,-1321,3446,46,58,873
939038,2567036,2668900,2568857,2667161,1578,2385,-2950,3755,666,1101,-1512,3682,46,58,873
940039,2567272,2669156,2569054,2667358,1587,2209,-3010,3874,809,1030,-1660,3734,42,58,873
941040,2567520,2669396,2569251,2667555,1489,2289,-3080,3998,942,1079,-1671,3884,42,58,873
942041,2567756,2669660,2569448,2667752,1548,2110,-3116,4091,1071,1039,-1669,3895,45,49,873
943042,2567984,2669896,2569645,2667949,1584,2268,-3101,4073,1180,819,-1839,3696,45,49,873
944043,2568216,2670168,2569842,2668146,1544,2009,-3036,3961,1266,763,-1791,3684,38,63,874
945044,2568424,2670440,2570039,2668343,1689,1976,-2949,3865,1340,845,-1645,3694,38,63,874
946045,2568628,2670728,2570236,2668540,1712,1835,-2860,3784,1425,799,-1716,3947,54,48,875
947046,2568816,2671016,2570433,2668737,1816,1795,-2768,3791,1516,417,-1699,4478,54,48,875
948047,2569036,2671280,2570630,2668934,1606,1915,-2691,3926,1588,14,-1618,5127,55,64,875
949048,2569272,2671568,2570827,2669131,1490,1725,-2643,4194,1634,-238,-1397,5739,55,64,875
950049,2569464,2671868,2571024,2669328,1767,1604,-2593,4508,1711,-532,-1472,5750,34,57,874
951050,2569648,2672176,2571221,2669525,1823,1505,-1950,5313,1861,-1133,-1883,10533,34,57,874
952051,2569848,2672472,2571418,2669722,1722,1536,516,9893,2265,-2745,-3500,32767,52,48,876
953051,2570040,2672688,2571615,2669919,1775,2027,2841,12938,2422,-1238,-718,14232,52,48,876
954053,2570208,2672852,2571812,2670116,1937,2366,3367,12449,2269,-532,616,2061,33,50,876
955054,2570424,2673044,2572009,2670313,1629,2192,3066,10443,2066,-418,585,1321,33,50,876
956055,2570600,2673256,2572206,2670510,1889,2060,2722,8901,2004,-70,77,2650,29,43,870
957056,2570788,2673488,2572403,2670707,1818,1919,2568,8324,2167,-112,19,3376,29,43,870
958057,2570976,2673808,2572600,2670904,1822,1314,2519,7676,2390,-138,29,2405,26,53,871
959058,2571112,2674092,2572797,2671101,2175,1501,2461,6847,2450,-272,611,2197,26,53,871
960058,2571252,2674352,2572994,2671298,2175,1622,2428,5529,2335,-975,1545,974,25,69,876
961060,2571404,2674700,2573191,2671495,2120,1006,2452,4054,2111,-1278,1913,889,25,69,876
962061,2571552,2675028,2573388,2671692,2167,1072,2457,2815,1868,-1527,1609,1434,22,73,872
963062,2571676,2675300,2573585,2671889,2349,1389,2452,1794,1716,-2119,1118,2389,22,73,872
964063,2571804,2675636,2573782,2672086,2355,927,2359,1377,1662,-2308,157,4137,45,68,876
965064,2571920,2675948,2573979,2672283,2466,1026,2287,1258,1655,-2684,-865,4344,45,68,876
966065,2572088,2676232,2574176,2672480,2154,1162,2246,1195,1642,-3223,-1416,5025,48,69,875
967066,2572300,2676512,2574373,2672677,1873,1150,2194,1349,1561,-3491,-1687,5636,48,69,875
968067,2572456,2676828,2574570,2672874,2242,872,2149,1443,1389,-3798,-1008,5231,36,74,875
969068,2572632,2677204,2574767,2673071,2126,417,2107,1603,1172,-3931,-416,5555,36,74,875
970069,2572772,2677544,2574964,2673268,2377,578,2064,1773,974,-3863,-251,5393,28,57,877
971070,2572940,2677820,2575161,2673465,2215,944,2001,1971,863,-3680,-227,5303,28,57,877
972071,2573076,2678108,2575358,2673662,2442,828,1924,2194,844,-3419,-128,5298,41,68,876
973072,2573228,2678424,2575555,2673859,2362,599,1867,2244,877,-3017,-38,4605,41,68,876
974073,2573372,2678724,2575752,2674056,2435,653,1839,2076,931,-2573,-232,4076,34,64,875
975074,2573504,2678996,2575949,2674253,2540,794,1854,1748,989,-2233,-171,3476,34,64,875
976075,2573624,2679188,2576146,2674450,2649,1295,1902,1245,1018,-1837,179,2845,39,38,875
977076,2573788,2679372,2576343,2674647,2389,1350,1941,720,1018,-1406,504,2629,39,38,875
978077,2573892,2679588,2576540,2674844,2805,1141,1974,85,1013,-1197,1012,2287,37,42,872
979078,2573984,2679772,2576737,2675041,2927,1346,1983,-516,992,-917,1862,2245,37,42,872
980079,2574088,2679972,2576934,2675238,2893,1244,1952,-1087,979,-730,2035,2323,17,31,871
981080,2574192,2680156,2577131,2675435,2935,1349,1889,-1493,999,-784,1602,2760,17,31,871
982080,2574300,2680312,2577328,2675632,2949,1541,1802,-1700,1039,-936,1319,3151,17,44,867
983082,2574436,2680456,2577525,2675829,2802,1638,1707,-1899,1072,-1003,1141,3101,17,44,867
984082,2574564,2680580,2577722,2676026,2883,1794,1598,-1968,1080,-933,815,3442,39,40,868
985083,2574684,2680720,2577919,2676223,2967,1718,1482,-1976,1033,-948,740,3484,39,40,868
986084,2574832,2680864,2578116,2676420,2815,1716,1352,-1982,925,-981,640,3487,37,24,868
987086,2574924,2681016,2578313,2676617,3211,1684,1184,-1895,780,-882,523,3780,37,24,868
988087,2575052,2681196,2578510,2676814,3017,1517,956,-1739,636,-685,549,3876,25,24,868
989088,2575152,2681356,2578707,2677011,3236,1657,659,-1475,506,-378,850,4069,25,24,868
990088,2575268,2681524,2578904,2677208,3171,1619,319,-1229,386,-273,1230,3950,17,29,867
991090,2575376,2681720,2579101,2677405,3261,1443,-35,-1017,263,-138,1513,3898,17,29,867
992090,2575492,2681900,2579298,2677602,3248,1550,-404,-732,119,179,1656,4102,25,31,866
993091,2575616,2682060,2579495,2677799,3231,1691,-766,-565,-27,412,1619,3747,25,31,866
994092,2575740,2682228,2579692,2677996,3263,1653,-1123,-437,-172,758,1296,3716,25,33,866
995094,2575864,2682408,2579889,2678193,3296,1584,-1460,-409,-317,1150,976,3441,25,33,866
996095,2576012,2682596,2580086,2678390,3169,1537,-1774,-452,-463,1464,769,3175,39,38,865
997096,2576128,2682808,2580283,2678587,3405,1380,-2090,-537,-614,1720,480,3102,39,38,865
998096,2576260,2682992,2580480,2678784,3334,1559,-2391,-732,-746,1846,44,2784,27,45,866
999098,2576396,2683156,2580677,2678981,3337,1699,-2683,-952,-857,2002,-471,3052,27,45,866
1000099,2576520,2683308,2580874,2679178,3445,1793,-2969,-1015,-944,2007,-803,3298,21,27,864
1001099,2576656,2683444,2581071,2679375,3398,1918,-3218,-1119,-1014,1899,-1196,3278,21,27,864
1002100,2576772,2683620,2581268,2679572,3559,1677,-3409,-1210,-1083,1883,-1705,3322,39,29,864
1003102,2576884,2683808,2581465,2679769,3623,1606,-3532,-1320,-1160,1823,-2123,3266,39,29,864
1004103,2576996,2684000,2581662,2679966,3660,1582,-3608,-1393,-1230,1782,-2403,3457,27,35,862
1005104,2577096,2684200,2581859,2680163,3779,1529,-3659,-1418,-1315,1660,-2394,3731,27,35,862
1006105,2577200,2684380,2582056,2680360,3795,1661,-3675,-1386,-1434,1423,-2108,4050,27,50,861
1007126,2577284,2684568,2582286,2680590,3800,1628,-3675,-1167,-1578,1268,-1823,4669,27,50,861
1008120,2577388,2684732,2582483,2680787,3800,1793,-3656,-858,-1706,1200,-1682,4851,31,40,861
1009121,2577500,2684912,2582680,2680984,3800,1699,-3617,-426,-1831,1137,-1318,5401,31,40,861
1010121,2577596,2685088,2582877,2681181,3800,1733,-3556,48,-1975,1057,-697,5527,33,30,860
1011123,2577696,2685248,2583074,2681378,3800,1848,-3430,337,-2142,1157,3,4967,33,30,860
1012124,2577768,2685396,2583271,2681575,3800,1944,-3255,521,-2323,1282,814,5024,29,44,860
1013125,2577852,2685560,2583468,2681772,3800,1858,-3102,713,-2492,1219,1312,5354,29,44,860
1014126,2577928,2685680,2583665,2681969,3800,2166,-2984,999,-2590,1257,1177,5749,27,43,859
1015127,2578012,2685820,2583862,2682166,3800,2066,-2189,2340,-2499,587,-345,14872,27,43,859
1016127,2578104,2685952,2584059,2682363,3800,2143,-186,6138,-2109,-854,-2018,32767,29,27,857
1017128,2578220,2686072,2584256,2682560,3800,2251,1132,7719,-2001,1178,1158,6346,29,27,857
1018129,2578336,2686196,2584453,2682757,3800,2257,1438,7006,-2156,1783,2062,2547,28,40,858
1019131,2578456,2686316,2584650,2682954,3800,2316,1289,5362,-2332,1875,1903,1831,28,40,858
1020132,2578552,2686456,2584847,2683151,3800,2215,1218,4376,-2395,1789,1188,2973,17,26,858
1021133,2578664,2686596,2585044,2683348,3800,2240,1202,3880,-2325,1230,316,3383,17,26,858
1022134,2578740,2686720,2585241,2683545,3800,2371,1214,3551,-2209,1075,-414,3454,32,22,857
1023135,2578828,2686856,2585438,2683742,3800,2322,1184,3179,-2135,1005,-499,3395,32,22,857
1024136,2578912,2686968,2585635,2683939,3800,2509,1138,2545,-2104,481,-441,2820,16,25,856
1025137,2578984,2687080,2585832,2684136,3800,2546,1094,1847,-2133,221,-468,2960,16,25,856
1026137,2579048,2687200,2586029,2684333,3800,2530,1061,1260,-2198,-65,-621,3008,16,23,853
1027138,2579108,2687312,2586226,2684530,3800,2616,1041,811,-2242,-579,-915,3510,16,23,853
1028140,2579168,2687428,2586423,2684727,3800,2626,1003,712,-2269,-924,-1483,4428,16,20,854
1029140,2579176,2687536,2586620,2684924,3800,2715,939,743,-2275,-1212,-1859,4667,16,20,854
1030141,2579200,2687648,2586817,2685121,3800,2726,853,901,-2247,-1468,-1993,5153,-3,31,853
1031142,2579216,2687776,2587014,2685318,3800,2656,764,1048,-2209,-1616,-1789,4926,-3,31,853
1032143,2579228,2687888,2587211,2685515,3800,2794,696,1049,-2179,-1733,-1484,4607,16,35,853
1033144,2579228,2688012,2587408,2685712,3800,2750,668,1039,-2129,-1810,-1160,4484,16,35,853
1034145,2579260,2688108,2587605,2685909,3800,2969,674,934,-2059,-1834,-847,4010,16,22,853
1035146,2579260,2688248,2587802,2686106,3800,2718,683,774,-1982,-1790,-570,3907,16,22,853
1036148,2579296,2688340,2587999,2686303,3800,3064,678,647,-1894,-1596,-72,3982,18,37,852
1037149,2579360,2688456,2588196,2686500,3800,2949,684,440,-1803,-1346,564,3533,18,37,852
1038149,2579440,2688568,2588393,2686697,3800,3011,699,116,-1706,-1036,1019,3208,22,37,851
1039151,2579536,2688692,2588590,2686894,3800,2968,719,-308,-1582,-931,1569,2894,22,37,851
1040151,2579652,2688796,2588787,2687091,3800,3133,756,-820,-1419,-956,1730,2675,26,30,852
1041152,2579784,2688932,2588984,2687288,3800,2960,786,-1238,-1257,-1119,1183,2845,26,30,852
1042153,2579912,2689072,2589181,2687485,3800,2960,814,-1535,-1107,-1569,722,3054,29,30,852
1043154,2580048,2689200,2589378,2687682,3800,3064,855,-1753,-947,-1591,700,3104,29,30,852
1044156,2580180,2689332,2589575,2687879,3800,3068,909,-2029,-771,-1160,511,3013,40,32,853
1045157,2580308,2689484,2589772,2688076,3800,2963,956,-2213,-579,-1090,271,3140,40,32,853
1046158,2580424,2689620,2589969,2688273,3800,3090,1017,-2426,-364,-1301,-44,2911,39,31,847
1047159,2580544,2689756,2590166,2688470,3800,3115,1078,-2665,-165,-1322,-352,2812,39,31,847
1048159,2580628,2689884,2590363,2688667,3800,3196,1124,-2803,38,-1121,-718,3165,14,30,852
1049160,2580704,2690068,2590560,2688864,3800,2851,1157,-2806,276,-973,-1117,3307,14,30,852
1050161,2580748,2690236,2590757,2689061,3800,2964,1196,-2805,522,-813,-1585,3345,27,39,850
1051162,2580792,2690404,2590954,2689258,3800,2976,1239,-2796,756,-652,-1868,3386,27,39,850
1052164,2580816,2690556,2591151,2689455,3800,3096,1284,-2752,983,-406,-1941,3433,18,40,852
1053165,2580804,2690696,2591348,2689652,3800,3196,1311,-2648,1186,-223,-2014,3376,18,40,852
1054165,2580808,2690840,2591545,2689849,3800,3194,1337,-2604,1350,-223,-1953,3178,14,28,850
1055166,2580808,2691004,2591742,2690046,3800,3084,1355,-2591,1489,30,-1839,3218,14,28,850
1056167,2580812,2691136,2591939,2690243,3800,3311,1355,-2502,1614,423,-1673,3258,11,29,849
1057168,2580804,2691300,2592136,2690440,3800,3126,1344,-2438,1726,563,-1345,3137,11,29,849
1058169,2580820,2691468,2592333,2690637,3800,3113,1320,-2422,1814,855,-877,3139,14,48,849
1059170,2580820,2691656,2592530,2690834,3800,2992,1269,-2382,1872,1250,-388,3149,14,48,849
1060172,2580824,2691828,2592727,2691031,3800,3103,1198,-2311,1913,1609,2,2987,15,49,850
1061172,2580820,2692016,2592924,2691228,3800,3007,1115,-2286,1943,1848,328,2881,15,49,850
1062173,2580816,2692236,2593121,2691425,3800,2796,1025,-2348,1957,1999,566,2660,14,51,851
1063174,2580820,2692440,2593318,2691622,3800,2893,925,-2462,1948,2156,753,2636,14,51,851
1064176,2580828,2692652,2593515,2691819,3800,2836,804,-2510,1909,2226,755,2636,-5,37,852
1065176,2580828,2692852,2593712,2692016,3800,2910,654,-2562,1846,2193,602,2752,-5,37,852
1066177,2580828,2693040,2593909,2692213,3800,2989,479,-2493,1781,2186,442,2997,14,37,852
1067179,2580828,2693220,2594106,2692410,3800,3047,279,-2330,1725,2221,179,3241,14,37,852
1068180,2580832,2693412,2594303,2692607,3800,2973,55,-2086,1675,2164,-3,3452,-4,44,851
1069181,2580832,2693576,2594500,2692804,3800,3162,-164,-1868,1629,2057,-89,3396,-4,44,851
1070181,2580828,2693744,2594697,2693001,3800,3150,-373,-1684,1570,1997,-160,3387,11,47,850
1071182,2580848,2693908,2594894,2693198,3800,3189,-586,-1492,1503,1903,-198,3516,11,47,850
1072183,2580848,2694088,2595091,2693395,3800,3097,-829,-1184,1396,1666,45,3845,12,33,849
1073184,2580868,2694288,2595288,2693592,3800,2971,-1093,-852,1235,1610,439,3783,12,33,849
1074185,2580904,2694452,2595485,2693789,3800,3210,-1349,-543,1085,1707,405,3745,7,37,849
1075187,2580940,2694600,2595682,2693986,3800,3331,-1625,-162,988,1678,263,4269,7,37,849
1076187,2580988,2694740,2595879,2694183,3800,3406,-1913,213,898,1541,378,4068,22,39,851
1077188,2581076,2694888,2596076,2694380,3800,3377,-2162,443,763,1240,461,3539,22,39,851
1078189,2581164,2695028,2596273,2694577,3800,3452,-2350,488,604,976,315,3277,31,40,849
1079190,2581252,2695184,2596470,2694774,3800,3370,-2479,397,462,850,253,2786,31,40,849
1080191,2581356,2695316,2596667,2694971,3800,3549,-2550,201,337,701,152,2468,26,24,849
1081192,2581472,2695444,2596864,2695168,3800,3604,-2577,-104,223,511,79,2256,26,24,849
1082193,2581596,2695608,2597061,2695365,3800,3394,-2571,-466,129,380,-133,2151,30,39,849
1083194,2581712,2695752,2597258,2695562,3800,3542,-2529,-841,49,170,-245,2020,30,39,849
1084195,2581836,2695936,2597455,2695759,3800,3298,-2447,-1237,-9,-115,-184,2080,35,29,847
1085197,2581932,2696104,2597652,2695956,3800,3410,-2350,-1517,-45,-226,-128,2508,35,29,847
1086197,2582028,2696264,2597849,2696153,3800,3477,-2266,-1580,-59,-337,-113,3321,24,31,849
1087199,2582120,2696412,2598046,2696350,3800,3573,-2184,-1478,-60,-611,-322,3801,24,31,849
1088199,2582216,2696592,2598243,2696547,3800,3381,-2096,-1285,-68,-879,-711,4208,28,33,849
1089201,2582292,2696776,2598440,2696744,3800,3361,-2007,-984,-97,-1177,-853,4640,28,33,849
1090208,2582400,2696960,2598670,2696974,3800,3382,-1894,-652,-143,-1291,-664,4784,14,37,846
1091203,2582492,2697116,2598867,2697171,3800,3575,-1739,-393,-197,-1156,-245,4507,14,37,846
1092204,2582600,2697252,2599064,2697368,3800,3726,-1557,-136,-234,-952,225,4645,27,32,850
1093204,2582700,2697408,2599261,2697565,3800,3619,-1389,155,-243,-758,543,4935,27,32,850
1094218,2582788,2697536,2599458,2697762,3800,3800,-1242,442,-237,-646,656,5097,21,32,847
1095206,2582884,2697696,2599655,2697959,3800,3641,-1078,717,-225,-645,664,5075,21,32,847
1096220,2582988,2697820,2599852,2698156,3800,3800,-882,961,-212,-684,694,5068,32,22,847
1097221,2583072,2697956,2600049,2698353,3800,3800,-679,1168,-198,-647,750,5165,32,22,847
1098222,2583172,2698064,2600246,2698550,3800,3800,-492,1391,-180,-519,856,5216,17,37,847
1099223,2583276,2698176,2600443,2698747,3800,3800,-335,1611,-143,-368,941,5322,17,37,847
1100224,2583368,2698292,2600640,2698944,3800,3800,-217,1858,-86,-180,987,5480,22,29,846
1101225,2583476,2698396,2600837,2699141,3800,3800,-112,1993,-29,-168,1166,5283,22,29,846
1102226,2583600,2698488,2601034,2699338,3800,3800,10,2067,8,-188,1193,5035,15,17,846
1103227,2583720,2698588,2601231,2699535,3800,3800,145,2001,28,-175,1283,4727,15,17,846
1104228,2583848,2698684,2601428,2699732,3800,3800,300,1885,43,-248,1402,4534,17,24,845
1105229,2583984,2698780,2601625,2699929,3800,3800,455,1688,50,-277,1345,4351,17,24,845
1106230,2584128,2698884,2601822,2700126,3800,3800,595,1473,67,-316,1119,4315,37,25,846
1107231,2584280,2698996,2602019,2700323,3800,3800,670,1343,128,-379,771,4758,37,25,846
1108232,2584428,2699120,2602216,2700520,3800,3800,686,1263,219,-551,545,4695,34,24,847
1109233,2584592,2699244,2602413,2700717,3800,3800,657,1160,313,-662,523,4654,34,24,847
1110234,2584736,2699380,2602610,2700914,3800,3800,631,1063,373,-741,859,4462,43,26,847
1111235,2584872,2699532,2602807,2701111,3800,3800,630,856,372,-951,1116,4070,43,26,847
1112236,2585020,2699716,2603004,2701308,3800,3800,638,579,329,-1054,1046,4047,21,43,847
1113237,2585140,2699872,2603201,2701505,3800,3800,643,326,304,-1222,790,4085,21,43,847
1114238,2585288,2700048,2603398,2701702,3800,3800,631,85,321,-1285,573,4187,22,29,847
1115239,2585436,2700220,2603595,2701899,3800,3800,604,-78,369,-1241,404,4221,22,29,847
1116240,2585592,2700380,2603792,2702096,3800,3800,558,-309,436,-1190,464,4033,22,35,847
1117241,2585740,2700552,2603989,2702293,3800,3800,447,-751,521,-978,732,3900,22,35,847
1118242,2585924,2700724,2604186,2702490,3800,3800,392,-1034,533,-884,687,3835,26,46,847
1119243,2586108,2700916,2604383,2702687,3800,3800,346,-1339,558,-798,504,3932,26,46,847
1120244,2586276,2701108,2604580,2702884,3800,3800,304,-1564,607,-682,193,4092,49,43,847
1121245,2586488,2701308,2604777,2703081,3800,3800,246,-1732,704,-497,30,4298,49,43,847
1122246,2586700,2701532,2604974,2703278,3800,3800,164,-1845,833,-331,-27,4366,41,36,847
1123247,2586912,2701760,2605171,2703475,3800,3800,63,-1882,945,-247,-126,4599,41,36,847
1124248,2587128,2701980,2605368,2703672,3800,3800,-20,-1946,1017,-291,-5,4420,39,44,850
1125249,2587364,2702204,2605565,2703869,3800,3800,-102,-1976,1049,-176,127,4880,39,44,850
1126237,2587564,2702448,2605762,2704066,3800,3719,-169,-1906,1051,-52,291,4979,59,49,848
1127238,2587776,2702748,2605959,2704263,3800,3324,-206,-1872,1015,-12,607,4777,59,49,848
1128239,2588004,2703052,2606156,2704460,3800,3252,-228,-1828,942,206,925,4839,48,58,848
1129240,2588188,2703300,2606353,2704657,3800,3580,-210,-1867,853,501,1329,4378,48,58,848
1130241,2588396,2703592,2606550,2704854,3800,3263,-147,-2025,733,627,1660,4240,40,52,852
1131242,2588608,2703920,2606747,2705051,3800,2982,-83,-2163,581,730,1734,4467,40,52,852
1132243,2588796,2704252,2606944,2705248,3800,2897,-46,-2208,451,787,1274,4693,38,69,851
1133244,2588960,2704584,2607141,2705445,3800,2838,-28,-2165,331,1060,1517,4845,38,69,851
1134246,2589156,2704912,2607338,2705642,3800,2805,8,-2081,205,1320,1677,4850,35,76,855
1135247,2589348,2705268,2607535,2705839,3800,2560,48,-1946,77,1447,1693,4947,35,76,855
1136248,2589524,2705644,2607732,2706036,3800,2357,68,-1792,-46,1482,1574,5186,46,66,856
1137248,2589708,2705980,2607929,2706233,3800,2547,77,-1603,-160,1612,1526,5134,46,66,856
1138249,2589892,2706292,2608126,2706430,3800,2646,98,-1406,-275,1573,1244,5059,41,81,856
1139251,2590076,2706740,2608323,2706627,3800,1686,146,-1267,-410,1395,895,4951,41,81,856
1140252,2590264,2707160,2608520,2706824,3800,1763,189,-1144,-554,1303,592,4947,36,81,857
1141252,2590456,2707528,2608717,2707021,3800,2013,236,-996,-687,1251,199,4713,36,81,857
1142254,2590676,2707916,2608914,2707218,3800,1803,306,-930,-796,1217,-78,4365,48,87,861
1143254,2590940,2708372,2609111,2707415,3800,1264,398,-896,-881,1072,-617,4260,48,87,861
1144255,2591216,2708800,2609308,2707612,3800,1337,503,-991,-941,1100,-942,3844,64,83,861
1145256,2591508,2709224,2609505,2707809,3800,1263,626,-1107,-967,1162,-1237,3739,64,83,861
1146257,2591804,2709648,2609702,2708006,3800,1163,750,-1181,-956,1325,-1438,3810,59,80,864
1147259,2592188,2710076,2609899,2708203,3800,1035,832,-1137,-912,1494,-1488,4049,59,80,864
1148259,2592596,2710464,2610096,2708400,3800,1201,909,-1127,-863,1667,-1014,3754,59,90,864
1149260,2593020,2710956,2610293,2708597,3800,422,1008,-1083,-812,1807,-440,3926,59,90,864
1150262,2593540,2711424,2610490,2708794,3800,452,1106,-944,-768,1833,-150,4093,84,87,866
1151263,2594092,2711812,2610687,2708991,3800,868,1200,-802,-771,1601,-245,4031,84,87,866
1152263,2594684,2712176,2610884,2709188,3800,943,1339,-668,-821,1189,-459,3711,108,91,870
1153265,2595352,2712604,2611081,2709385,3800,441,1494,-534,-914,950,-748,3788,108,91,870
1154265,2596008,2712924,2611278,2709582,3800,1062,1667,-391,-1011,946,-922,3678,123,74,870
1155267,2596700,2713212,2611475,2709779,3800,1221,1831,-114,-1026,909,-1423,4023,123,74,870
1156268,2597484,2713584,2611672,2709976,3800,619,2063,265,-997,343,-1769,3769,129,63,872
1157268,2598196,2713916,2611869,2710173,3800,809,2304,533,-977,-158,-2002,3761,129,63,872
1158257,2598960,2714248,2612066,2710370,3688,748,2593,983,-961,-379,-1849,3952,144,74,869
1159258,2599828,2714528,2612263,2710567,2745,1036,2847,1330,-961,-604,-2015,3672,144,74,869
1160258,2600600,2714796,2612460,2710764,3095,1080,3111,1873,-987,-1234,-2704,4286,157,72,870
1161259,2601388,2715128,2612657,2710961,2738,619,3318,2549,-986,-2064,-3562,4589,157,72,870
1162260,2602252,2715404,2612854,2711158,1972,934,3562,3153,-964,-2348,-3717,3860,165,70,876
1163262,2603028,2715724,2613051,2711355,2269,604,3817,3508,-897,-2321,-3365,3185,165,70,876
1164263,2603784,2716068,2613248,2711552,2150,388,4153,3678,-799,-2410,-3045,2506,153,58,877
1165264,2604568,2716388,2613445,2711749,1720,484,4470,3637,-691,-2342,-3234,1923,153,58,877
1166264,2605260,2716652,2613642,2711946,2079,803,4790,3530,-550,-2317,-3480,1495,147,65,879
1167266,2605928,2716772,2613839,2712143,2023,1736,5046,3248,-307,-1916,-3580,1103,147,65,879
1168267,2606536,2716948,2614036,2712340,2219,1395,5247,2839,-2,-1326,-3448,535,149,55,882
1169268,2607156,2717188,2614233,2712537,1960,975,5353,2320,288,-877,-3001,361,149,55,882
1170268,2607660,2717412,2614430,2712734,2552,1062,5410,1656,497,-170,-2456,-192,130,57,874
1171270,2608132,2717704,2614627,2712931,2632,594,5385,985,665,686,-2207,-39,130,57,874
1172271,2608620,2717984,2614824,2713128,2405,632,5327,200,815,1256,-1902,-644,104,56,877
1173279,2609048,2718260,2615054,2713358,2694,635,5200,-567,928,1467,-2068,-451,104,56,877
1174273,2609472,2718472,2615251,2713555,2620,1028,4977,-1000,959,1566,-1801,226,98,59,876
1175274,2609900,2718668,2615448,2713752,2496,1128,4654,-1544,879,1894,-1214,55,98,59,876
1176275,2610320,2718908,2615645,2713949,2449,833,4267,-1642,745,2508,-1302,1240,96,50,875
1177276,2610768,2719120,2615842,2714146,2164,1001,3758,-1424,630,2618,-1321,1964,96,50,875
1178277,2611164,2719348,2616039,2714343,2403,886,3167,-1073,485,2197,-1758,2590,85,51,875
1179278,2611596,2719548,2616236,2714540,2075,1059,2477,-363,320,1843,-2042,3816,85,51,875
1180279,2612012,2719736,2616433,2714737,2079,1137,1807,496,133,1635,-1711,3765,75,29,876
1181280,2612396,2719860,2616630,2714934,2198,1568,1038,1091,-213,1695,-663,2993,75,29,876
1182280,2612776,2719996,2616827,2715131,2144,1519,283,1616,-635,1552,-236,2944,74,33,876
1183282,2613104,2720140,2617024,2715328,2412,1491,-515,2095,-1001,1561,-318,3113,74,33,876
1184283,2613440,2720224,2617221,2715525,2302,1915,-1260,2518,-1349,1679,-802,2587,66,38,873
1185284,2613760,2720320,2617418,2715722,2348,1883,-1938,2789,-1662,1219,-1258,2294,66,38,873
1186284,2614024,2720472,2617615,2715919,2670,1552,-2602,2946,-1929,1004,-1556,2257,49,21,873
1187286,2614216,2720628,2617812,2716116,3123,1544,-3257,2854,-2251,915,-1033,1045,49,21,873
1188287,2614420,2720756,2618009,2716313,3045,1749,-3769,2249,-2528,556,-738,-284,48,22,870
1189288,2614608,2720888,2618206,2716510,3150,1752,-4199,1468,-2675,907,-984,-102,48,22,870
1190289,2614836,2721024,2618403,2716707,2887,1752,-4667,588,-2744,934,-1464,-336,31,25,867
1191290,2615068,2721120,2618600,2716904,2847,2046,-5077,-283,-2782,130,-1777,-386,31,25,867
1192291,2615232,2721240,2618797,2717101,3287,1929,-5425,-1204,-2824,-577,-2484,-161,48,17,866
1193291,2615380,2721344,2618994,2717298,3410,2068,-5775,-2122,-2833,-662,-3229,474,48,17,866
1194292,2615540,2721464,2619191,2717495,3351,2002,-6141,-2636,-2766,-721,-3563,1819,22,32,865
1195294,2615720,2721576,2619388,2717692,3234,2089,-6664,-2610,-2476,-509,-4615,3725,22,32,865
1196295,2615980,2721668,2619585,2717889,2708,2259,-7299,-2473,-2116,-777,-4251,4032,32,20,862
1197296,2616204,2721764,2619782,2718086,2921,2277,-7732,-2382,-1958,-1643,-3363,4060,32,20,862
1198296,2616436,2721900,2619979,2718283,2856,2054,-7851,-2605,-1816,-1891,-3144,3244,47,35,864
1199298,2616648,2722036,2620176,2718480,2976,2080,-7783,-2975,-1636,-2051,-2979,3752,47,35,864
1200299,2616812,2722184,2620373,2718677,3290,2025,-7661,-3215,-1460,-1820,-1786,4383,29,16,864
1201300,2616972,2722288,2620570,2718874,3333,2341,-7510,-3433,-1356,-1123,-835,4494,29,16,864
1202301,2617148,2722420,2620767,2719071,3243,2194,-7348,-3498,-1335,-541,-813,4867,38,33,864
1203302,2617380,2722544,2620964,2719268,2879,2275,-7150,-3714,-1362,-499,-685,4833,38,33,864
1204303,2617624,2722676,2621161,2719465,2783,2253,-6488,-3367,-1460,829,-521,9403,57,21,860
1205303,2617884,2722820,2621358,2719662,2656,2201,-1587,5267,-2161,12458,417,32767,57,21,860
1206305,2618160,2722956,2621555,2719859,2522,2278,3693,12770,-2903,6511,-1262,27362,41,26,865
1207305,2618372,2723076,2621752,2720056,2916,2410,5351,13439,-2971,806,-978,1656,41,26,865
1208307,2618620,2723196,2621949,2720253,2669,2443,4364,9992,-2452,2042,-1730,19,39,39,867
1209307,2618880,2723348,2622146,2720450,2567,2263,3400,6551,-1870,2898,-2095,-1485,39,39,867
1210308,2619196,2723548,2622343,2720647,2165,1961,2880,4491,-1437,2844,-1425,257,62,43,864
1211310,2619472,2723752,2622540,2720844,2382,1933,2614,2894,-1164,1980,-1661,-296,62,43,864
1212311,2619772,2723932,2622737,2721041,2186,2089,2244,1392,-1005,1920,-1930,135,55,41,867
1213312,2620048,2724080,2622934,2721238,2303,2311,1930,-428,-790,1974,-1196,-1002,55,41,867
1214313,2620376,2724236,2623131,2721435,1920,2278,1527,-2497,-580,2217,-624,-173,61,40,869
1215314,2620688,2724360,2623328,2721632,1971,2510,1019,-3771,-550,2463,-1042,1964,61,40,869
1216315,2621036,2724536,2623525,2721829,1679,2193,429,-4493,-473,1882,-1891,3216,67,30,868
1217316,2621324,2724680,2623722,2722026,2015,2415,46,-4727,-291,1580,-2388,4413,67,30,868
1218316,2621644,2724836,2623919,2722223,1761,2358,-38,-5045,-240,1773,-840,4002,67,28,869
1219318,2621952,2724968,2624116,2722420,1788,2536,109,-5473,-300,1508,-309,4448,67,28,869
1220319,2622244,2725092,2624313,2722617,1847,2618,217,-5361,-350,1071,-708,6185,71,31,869
1221320,2622560,2725244,2624510,2722814,1645,2463,245,-4950,-407,421,-903,6547,71,31,869
1222321,2622876,2725420,2624707,2723011,1593,2321,244,-4231,-496,130,-254,7530,47,42,870
1223322,2623184,2725580,2624904,2723208,1594,2437,254,-3296,-639,296,691,7647,47,42,870
1224323,2623484,2725708,2625101,2723405,1600,2666,370,-2490,-799,256,613,7177,66,26,871
1225324,2623824,2725820,2625298,2723602,1287,2804,532,-1528,-959,-111,753,7940,66,26,871
1226324,2624144,2725972,2625495,2723799,1358,2573,733,-617,-1110,-564,1094,7593,63,24,870
1227326,2624452,2726120,2625692,2723996,1384,2619,904,229,-1262,-466,1287,7124,63,24,870
1228327,2624784,2726268,2625889,2724193,1176,2640,1115,925,-1393,-637,1409,6361,66,23,870
1229328,2625088,2726424,2626086,2724390,1304,2608,1404,1174,-1510,-812,1657,5070,66,23,870
1230328,2625344,2726588,2626283,2724587,1578,2572,1751,1187,-1611,-353,1560,4354,43,41,871
1231330,2625624,2726760,2626480,2724784,1392,2532,2132,984,-1638,-7,1476,3427,43,41,871
1232331,2625928,2726940,2626677,2724981,1195,2490,2485,607,-1605,368,1518,2909,47,44,871
1233332,2626236,2727120,2626874,2725178,1122,2497,2762,70,-1582,754,1639,2220,47,44,871
1234333,2626536,2727304,2627071,2725375,1127,2477,2952,-576,-1549,993,1719,2115,45,37,871
1235334,2626792,2727464,2627268,2725572,1376,2643,3057,-1062,-1482,1289,1870,2228,45,37,871
1236335,2627080,2727640,2627465,2725769,1136,2551,3126,-1641,-1408,1480,2092,1356,61,45,872
1237336,2627360,2727820,2627662,2725966,1149,2534,3173,-2396,-1350,1570,2214,1106,61,45,872
1238337,2627656,2728044,2627859,2726163,1006,2247,3173,-3119,-1327,1611,2102,1050,47,45,870
1239338,2627892,2728244,2628056,2726360,1364,2395,3100,-3822,-1348,1470,1770,951,47,45,870
1240339,2628140,2728420,2628253,2726557,1266,2554,2951,-4308,-1388,1321,1326,1553,49,49,873
1241340,2628416,2728600,2628450,2726754,1056,2536,2715,-4549,-1410,1328,858,2226,49,49,873
1242341,2628692,2728764,2628647,2726951,1022,2650,2394,-4500,-1398,1469,387,2825,44,51,873
1243342,2628920,2728984,2628844,2727148,1308,2290,2022,-4268,-1342,1350,-15,3261,44,51,873
1244343,2629172,2729216,2629041,2727345,1134,2199,1620,-3957,-1220,1047,-672,3405,50,45,873
1245344,2629372,2729440,2629238,2727542,1458,2236,1145,-3550,-987,767,-1958,3507,50,45,873
1246345,2629592,2729656,2629435,2727739,1323,2278,687,-3223,-798,604,-1255,2800,42,37,874
1247346,2629804,2729864,2629632,2727936,1366,2323,340,-3149,-741,576,-235,2219,42,37,874
1248346,2629968,2730080,2629829,2728133,1680,2264,40,-3104,-731,617,-226,2266,49,54,872
1249347,2630172,2730292,2630026,2728330,1427,2282,-288,-2938,-665,682,-22,2563,49,54,872
1250348,2630384,2730504,2630223,2728527,1371,2275,-576,-2749,-535,941,702,2305,31,37,873
1251350,2630580,2730692,2630420,2728724,1471,2429,-790,-2631,-452,1384,1820,2126,31,37,873
1252350,2630768,2730880,2630617,2728921,1525,2433,-996,-2504,-435,1681,2770,2369,35,50,873
1253352,2630972,2731080,2630814,2729118,1422,2355,-1220,-2286,-438,1935,3287,2494,35,50,873
1254352,2631132,2731284,2631011,2729315,1713,2327,-1444,-2044,-420,2063,3423,2529,43,50,872
1255353,2631328,2731480,2631208,2729512,1489,2378,-1636,-1868,-384,2037,3605,2347,43,50,872
1256363,2631504,2731696,2631438,2729742,1637,2258,-1770,-1742,-349,2090,3614,2170,37,48,872
1257355,2631704,2731900,2631635,2729939,1486,2330,-1868,-1666,-328,2218,3438,1898,37,48,872
1258356,2631896,2732112,2631832,2730136,1538,2272,-1938,-1632,-301,2368,3203,1943,31,32,871
1259358,2632096,2732336,2632029,2730333,1487,2185,-2042,-1510,-270,2340,2771,2252,31,32,871
1260358,2632272,2732528,2632226,2730530,1646,2387,-2202,-1300,-268,2160,2094,2605,31,50,871
1261359,2632424,2732736,2632423,2730727,1816,2282,-2402,-933,-277,1992,1338,2903,31,50,871
1262360,2632588,2732964,2632620,2730924,1756,2143,-2609,-548,-296,1852,637,3013,30,50,873
1263361,2632788,2733168,2632817,2731121,1529,2289,-2791,-148,-327,1746,-157,3096,30,50,873
1264362,2632932,2733380,2633014,2731318,1903,2232,-2919,273,-340,1570,-1066,3188,34,44,871
1265364,2633124,2733576,2633211,2731515,1605,2333,-2980,763,-330,1407,-1912,3288,34,44,871
1266365,2633328,2733768,2633408,2731712,1527,2359,-2973,1295,-305,1199,-2710,3381,27,46,872
1267366,2633500,2733972,2633605,2731909,1738,2281,-2907,1923,-283,933,-3405,3616,27,46,872
1268367,2633660,2734168,2633802,2732106,1829,2330,-2820,2597,-270,687,-4024,3731,45,49,871
1269368,2633852,2734360,2633999,2732303,1631,2358,-2731,3250,-264,500,-4335,3714,45,49,871
1270369,2634028,2734556,2634196,2732500,1740,2333,-2664,3849,-261,388,-4401,3791,30,36,870
1271370,2634216,2734788,2634393,2732697,1669,2092,-2633,4404,-235,270,-4199,3749,30,36,870
1272371,2634420,2734972,2634590,2732894,1566,2397,-2627,4920,-178,270,-3675,3624,42,37,871
1273372,2634628,2735176,2634787,2733091,1536,2269,-2620,5314,-98,358,-2875,3258,42,37,871
1274373,2634840,2735356,2634984,2733288,1505,2426,-2573,5593,-14,524,-2048,2939,40,51,873
1275374,2635052,2735596,2635181,2733485,1498,2032,-2489,5741,47,682,-1236,2577,40,51,873
1276375,2635256,2735836,2635378,2733682,1545,2012,-2360,5709,81,663,-763,2202,51,57,873
1277376,2635452,2736116,2635575,2733879,1596,1725,-2240,5632,111,718,-669,2397,51,57,873
1278377,2635628,2736336,2635772,2734076,1730,2089,-2158,5687,157,678,-658,2740,51,41,874
1279378,2635828,2736560,2635969,2734273,1578,2052,-2128,5830,233,587,-588,3198,51,41,874
1280379,2636000,2736764,2636166,2734470,1764,2174,-2136,6005,324,523,-400,3410,27,55,874
1281380,2636232,2736992,2636363,2734667,1374,2010,-2172,6176,390,411,-209,3572,27,55,874
1282381,2636404,2737272,2636560,2734864,1760,1648,-2225,6434,408,168,-186,3873,30,48,872
1283382,2636572,2737516,2636757,2735061,1798,1852,-2277,6620,372,-170,-177,3770,30,48,872
1284383,2636728,2737804,2636954,2735258,1891,1537,-2316,6749,281,-316,-219,3796,35,51,875
1285384,2636888,2738004,2637151,2735455,1882,2084,-2338,6982,189,-292,-571,4124,35,51,875
1286385,2637028,2738152,2637348,2735652,2032,2431,-2323,7194,125,-478,-1107,4171,22,49,874
1287386,2637168,2738284,2637545,2735849,2057,2558,-2272,7391,56,-744,-1574,4390,22,49,874
1288387,2637292,2738432,2637742,2736046,2189,2480,-2206,7556,-50,-1040,-1707,4420,22,42,872
1289388,2637396,2738580,2637939,2736243,2356,2500,-2136,7665,-182,-1185,-1539,4366,22,42,872
1290389,2637528,2738776,2638136,2736440,2210,2201,-2050,7666,-350,-1337,-1380,4248,43,34,868
1291390,2637708,2738996,2638333,2736637,1917,2041,-1916,7554,-559,-1557,-1366,4079,43,34,868
1292391,2637864,2739252,2638530,2736834,2085,1789,-1733,7428,-775,-1726,-1543,4087,47,42,865
1293392,2638024,2739560,2638727,2737031,2076,1415,-1527,7249,-953,-1834,-1792,4020,47,42,865
1294393,2638188,2739796,2638924,2737228,2066,1847,-1321,6975,-1067,-1997,-1834,4110,48,71,872
1295394,2638328,2740144,2639121,2737425,2241,1081,-1112,6640,-1111,-2147,-1731,3825,48,71,872
1296395,2638468,2740448,2639318,2737622,2266,1308,-895,6157,-1117,-2288,-1720,3553,30,55,875
1297396,2638612,2740732,2639515,2737819,2265,1394,-682,5591,-1104,-2447,-1819,3440,30,55,875
1298397,2638744,2740992,2639712,2738016,2369,1516,-465,4947,-1099,-2718,-1795,3343,42,54,875
1299398,2638864,2741308,2639909,2738213,2478,1112,339,3879,-1008,-4187,-2550,6479,42,54,875
1300399,2638996,2741616,2640106,2738410,2431,1114,2718,1928,-529,-7259,-4524,20005,30,63,873
1301400,2639100,2741896,2640303,2738607,2647,1251,4228,1106,-76,-3900,-2509,8905,30,63,873
1302401,2639236,2742176,2640500,2738804,2475,1215,4212,1044,182,-3034,-1250,5336,39,67,872
1303402,2639364,2742508,2640697,2739001,2555,829,3640,1561,277,-3001,-612,6278,39,67,872
1304403,2639496,2742880,2640894,2739198,2559,501,3254,1865,303,-3227,354,5366,18,71,871
1305404,2639588,2743176,2641091,2739395,2855,933,3096,1785,300,-3189,1096,5076,18,71,871
1306405,2639688,2743464,2641288,2739592,2849,942,2982,1728,255,-2987,1624,4986,38,71,873
1307406,2639816,2743784,2641485,2739789,2704,687,2867,1423,225,-2945,1773,4123,38,71,873
1308407,2639948,2744112,2641682,2739986,2708,578,2678,1273,240,-2595,1392,4776,28,69,871
1309408,2640080,2744432,2641879,2740183,2737,574,2434,1015,297,-2279,1120,4108,28,69,871
1310409,2640216,2744724,2642076,2740380,2739,707,2219,642,401,-2000,732,4012,30,57,873
1311410,2640352,2745004,2642273,2740577,2766,744,2008,365,515,-1673,545,3943,30,57,873
1312411,2640472,2745292,2642470,2740774,2901,653,1853,-208,617,-1545,602,2970,22,62,873
1313412,2640624,2745524,2642667,2740971,2720,987,1722,-815,684,-1173,610,3177,22,62,873
1314413,2640760,2745772,2642864,2741168,2847,863,1587,-1418,688,-909,816,2700,33,46,871
1315414,2640884,2746000,2643061,2741365,2955,974,1453,-2119,668,-783,545,2513,33,46,871
1316415,2641016,2746184,2643258,2741562,2934,1254,1308,-2636,638,-474,125,2961,21,37,872
1317416,2641144,2746368,2643455,2741759,2990,1259,1165,-3103,608,-369,-347,2980,21,37,872
1318417,2641288,2746552,2643652,2741956,2913,1264,1015,-3330,575,-279,-401,3717,37,43,870
1319418,2641416,2746772,2643849,2742153,3044,1028,845,-3458,506,-324,-41,3664,37,43,870
1320419,2641564,2746952,2644046,2742350,2941,1284,632,-3486,383,-326,195,4045,40,36,869
1321420,2641680,2747160,2644243,2742547,3177,1103,316,-3145,189,-284,920,5220,40,36,869
1322421,2641832,2747348,2644440,2742744,2973,1231,-47,-2864,-23,-34,1533,4698,40,45,869
1323422,2641960,2747504,2644637,2742941,3153,1448,-398,-2588,-213,260,1676,4729,40,45,869
1324423,2642084,2747668,2644834,2743138,3211,1413,-719,-2297,-371,408,2084,4669,21,44,867
1325424,2642236,2747836,2645031,2743335,3056,1400,-1013,-2077,-538,507,2318,4399,21,44,867
1326425,2642344,2748036,2645228,2743532,3371,1197,-1267,-1870,-715,496,2094,4134,32,41,866
1327426,2642460,2748220,2645425,2743729,3357,1302,-1453,-1852,-888,170,1763,3571,32,41,866
1328427,2642552,2748400,2645622,2743926,3554,1333,-1609,-1807,-1077,129,1685,3804,14,37,867
1329428,2642648,2748572,2645819,2744123,3574,1393,-1774,-1629,-1266,25,1238,3976,14,37,867
1330429,2642744,2748724,2646016,2744320,3618,1537,-1918,-1496,-1405,-195,677,3918,23,28,865
1331430,2642836,2748872,2646213,2744517,3691,1584,-2024,-1295,-1506,-278,166,4031,23,28,865
1332431,2642936,2749004,2646410,2744714,3684,1711,-2089,-1186,-1592,-477,-158,3691,23,42,864
1333432,2643040,2749176,2646607,2744911,3700,1471,-2136,-1145,-1659,-568,-551,3700,23,42,864
1334446,2643132,2749348,2646804,2745108,3800,1481,-2176,-1149,-1708,-438,-896,3544,20,31,862
1335447,2643220,2749504,2647001,2745305,3800,1598,-2196,-1238,-1746,-345,-1147,3337,20,31,862
1336448,2643300,2749676,2647198,2745502,3800,1508,-2204,-1231,-1806,-282,-1263,3689,30,31,860
1337448,2643376,2749872,2647395,2745699,3800,1359,-2197,-1160,-1882,-272,-1559,3757,30,31,860
1338449,2643460,2750024,2647592,2745896,3800,1652,-2193,-1077,-1947,-198,-1973,4078,26,45,860
1339458,2643548,2750148,2647822,2746126,3800,1873,-2188,-881,-1956,-96,-2144,4400,26,45,860
1340451,2643644,2750284,2648019,2746323,3800,1824,-2173,-790,-1919,112,-1858,4219,25,24,859
1341453,2643772,2750456,2648216,2746520,3800,1610,-2151,-744,-1894,558,-1239,4326,25,24,859
1342453,2643864,2750596,2648413,2746717,3800,1834,-2127,-703,-1891,1021,-530,4270,21,25,859
1343455,2643988,2750736,2648610,2746914,3800,1858,-2112,-726,-1890,1494,-11,4315,21,25,859
1344455,2644116,2750864,2648807,2747111,3800,1962,-2108,-657,-1871,1810,183,4757,27,37,860
1345456,2644212,2751004,2649004,2747308,3800,1912,-1443,286,-1850,2979,207,12834,27,37,860
1346457,2644300,2751128,2649201,2747505,3800,2043,458,3842,-2055,5853,412,32767,25,28,858
1347459,2644392,2751264,2649398,2747702,3800,1994,1727,5519,-2194,2885,291,6723,25,28,858
1348460,2644464,2751388,2649595,2747899,3800,2101,1881,5117,-2212,2501,827,3274,26,21,857
1349460,2644536,2751484,2649792,2748096,3800,2320,1563,3822,-2160,2923,900,2453,26,21,857
