"Data file recorded 2014/9/24  14:53:11"
"%  Right Stride Frequency         = 5.0"
"%  Left Stride Frequency         = 5.0"
"%  Phase (Fractional)         = 32768.0"
"%  Experiment.py "
"%  Motor Gains    = [1800, 200, 100, 0, 0, 1800, 200, 100, 0, 0]
"% Columns: "
"% time | Right Leg Pos | Left Leg Pos | Commanded Right Leg Pos | Commanded Left Leg Pos | DCR | DCL | GyroX | GryoY | GryoZ | AX | AY | AZ | RBEMF | LBEMF | VBatt "
11238,4195292,4563980,4199727,4560175,2154,-1467,-322,-2878,773,486,-525,4031,-10,-10,876
12230,4195312,4563980,4200054,4560502,2164,-1324,-322,-2883,774,475,-523,4034,-10,-10,876
13232,4195320,4563980,4200381,4560829,2381,-1181,-322,-2899,776,476,-526,4008,-11,-12,877
14233,4195424,4563968,4200708,4561156,1880,-957,-320,-2929,777,456,-520,4022,-11,-12,877
15234,4195552,4563972,4201035,4561483,1818,-916,-320,-2875,785,518,-706,4009,13,-17,864
16234,4195732,4563968,4201362,4561810,1559,-722,-319,-2889,797,585,-787,3964,13,-17,864
17236,4195940,4563976,4201689,4562137,1437,-657,-324,-2962,810,618,-894,4024,35,-9,867
18237,4196144,4563948,4202016,4562464,1517,-276,-337,-2930,824,602,-921,4083,35,-9,867
19238,4196328,4563928,4202343,4562791,1707,-174,-351,-2890,834,607,-812,4033,43,-18,869
20238,4196540,4563924,4202670,4563118,1583,-129,-365,-2976,841,642,-575,4054,43,-18,869
21240,4196796,4563920,4202997,4563445,1341,17,-368,-2972,839,677,-634,4141,54,10,871
22241,4197072,4563916,4203324,4563772,1239,162,-356,-2875,841,613,-886,4192,54,10,871
23242,4197320,4563924,4203651,4564099,1450,227,-333,-2823,859,635,-1374,4178,38,11,871
24243,4197604,4563920,4203978,4564426,1245,448,-290,-2851,871,644,-1213,3999,38,11,871
25244,4197864,4563924,4204305,4564753,1426,540,-248,-2869,869,698,-1576,4104,47,0,871
26245,4198152,4563912,4204632,4565080,1269,789,-214,-2808,858,745,-1581,4135,47,0,871
27246,4198388,4563916,4204959,4565407,1635,831,-175,-2821,844,864,-1163,3994,42,-2,871
28246,4198692,4563924,4205286,4565734,1221,947,-124,-2807,816,955,-1132,3964,42,-2,871
29248,4198960,4563924,4205613,4566061,1474,1141,-78,-2804,771,913,-948,4020,38,5,870
30248,4199228,4563924,4205940,4566388,1501,1284,-22,-2767,719,803,-941,4060,38,5,870
31250,4199508,4563924,4206267,4566715,1448,1429,44,-2760,664,690,-624,3932,38,13,870
32250,4199776,4563924,4206594,4567042,1550,1573,136,-2805,594,603,282,3635,38,13,870
33252,4200060,4563952,4206921,4567369,1471,1530,222,-2917,506,547,883,3511,57,12,867
34253,4200336,4564016,4207248,4567696,1544,1422,318,-3037,400,679,1076,3186,57,12,867
35254,4200652,4564096,4207575,4568023,1300,1430,429,-3253,266,985,1391,2954,48,23,866
36254,4200932,4564176,4207902,4568350,1547,1540,550,-3392,110,1227,1556,3179,48,23,866
37256,4201220,4564232,4208229,4568677,1516,1810,640,-3545,-37,1408,1176,3183,48,16,866
38257,4201560,4564292,4208556,4569004,1186,1903,696,-3651,-192,1511,808,3129,48,16,866
39257,4201828,4564376,4208883,4569331,1664,1861,688,-3684,-354,1671,421,3210,62,15,867
40258,4202128,4564456,4209210,4569658,1477,1996,612,-3639,-517,1962,237,3348,62,15,867
41260,4202428,4564524,4209537,4569985,1490,2185,488,-3460,-641,2073,-312,3705,50,11,866
42261,4202724,4564640,4209864,4570312,1530,1979,332,-3057,-708,1706,-1049,4472,50,11,866
43262,4202960,4564772,4210191,4570639,1946,1966,152,-2479,-722,1173,-1604,4942,56,20,865
44262,4203292,4564912,4210518,4570966,1345,1999,-3,-1926,-682,1012,-1789,4692,56,20,865
45264,4203540,4565072,4210845,4571293,1907,1948,-128,-1434,-584,1087,-1675,4402,45,35,865
46265,4203828,4565240,4211172,4571620,1675,1969,-216,-1124,-426,962,-1734,3895,45,35,865
47266,4204084,4565400,4211499,4571947,1908,2094,-287,-937,-215,639,-2065,3463,46,35,864
48266,4204336,4565600,4211826,4572274,1967,1901,-339,-875,41,335,-2031,3160,46,35,864
49268,4204588,4565776,4212153,4572601,2001,2119,-395,-983,346,368,-1606,2842,57,28,864
50269,4204884,4565956,4212480,4572928,1742,2159,-437,-1169,654,451,-963,2388,57,28,864
51269,4205116,4566140,4212807,4573255,2184,2199,-458,-1442,943,243,-753,2138,45,32,864
52270,4205388,4566332,4213134,4573582,1961,2210,-483,-1682,1203,-26,-850,2306,45,32,864
53271,4205624,4566560,4213461,4573909,2226,2029,-529,-1812,1442,-173,-1168,2683,60,41,863
54273,4205916,4566792,4213788,4574236,1894,2048,-597,-1777,1690,-301,-1278,3141,60,41,863
55273,4206200,4567016,4214115,4574563,1964,2144,-684,-1595,1948,-543,-1442,3495,46,47,862
56274,4206456,4567240,4214442,4574890,2172,2191,-791,-1395,2184,-699,-1525,3560,46,47,862
57276,4206728,4567428,4214769,4575217,2097,2478,-877,-1205,2408,-687,-1779,3693,55,40,864
58277,4207008,4567648,4215096,4575544,2070,2327,-916,-993,2617,-680,-2199,3568,55,40,864
59278,4207236,4567880,4215423,4575871,2439,2295,-867,-871,2790,-749,-2384,3219,50,51,861
60278,4207560,4568100,4215750,4576198,1843,2419,-752,-898,2907,-881,-1821,2929,50,51,861
61279,4207852,4568344,4216077,4576525,2060,2307,-608,-1001,2962,-712,-997,2847,61,36,861
62280,4208116,4568532,4216404,4576852,2264,2720,-504,-1023,2994,-384,-623,3085,61,36,861
63281,4208424,4568740,4216731,4577179,1999,2648,-446,-1006,3051,-423,-415,3210,46,53,861
64282,4208716,4568992,4217058,4577506,2115,2408,-431,-1014,3080,-494,154,3036,46,53,861
65284,4209032,4569200,4217385,4577833,1972,2736,-406,-1209,3084,-442,423,2649,67,49,859
66285,4209392,4569428,4217712,4578160,1684,2657,-389,-1489,3111,-383,387,2496,67,49,859
67285,4209676,4569652,4218039,4578487,2180,2729,-372,-1749,3177,-381,322,2585,49,39,860
68286,4209932,4569884,4218366,4578814,2388,2722,-361,-1996,3249,-424,439,2685,49,39,860
69287,4210164,4570084,4218693,4579141,2581,2980,-372,-2071,3313,-455,423,3323,68,48,860
70289,4210420,4570304,4219020,4579468,2464,2904,-406,-2014,3369,-547,263,3721,68,48,860
71290,4210724,4570552,4219347,4579795,2176,2765,-409,-1980,3404,-641,208,3609,50,54,856
72290,4211032,4570824,4219674,4580122,2160,2641,-376,-1940,3427,-758,274,3770,50,54,856
73291,4211344,4571104,4220001,4580449,2144,2613,-331,-1915,3409,-830,462,3874,80,49,857
74292,4211628,4571368,4220328,4580776,2339,2743,-320,-1834,3363,-841,339,4237,80,49,857
75293,4211916,4571652,4220655,4581103,2333,2639,-312,-1708,3325,-910,265,4245,75,63,860
76294,4212224,4571944,4220982,4581430,2218,2606,-291,-1650,3299,-868,142,4172,75,63,860
77295,4212480,4572220,4221309,4581757,2575,2730,-239,-1664,3279,-769,-401,4048,74,58,858
78296,4212740,4572512,4221636,4582084,2582,2647,-173,-1756,3211,-884,389,3904,74,58,858
79297,4213028,4572824,4221963,4582411,2426,2531,-174,-1828,3094,-847,1193,4304,50,47,859
80298,4213304,4573060,4222290,4582738,2525,3048,670,-333,2964,849,1857,18254,50,47,859
81299,4213556,4573216,4222617,4583065,2709,3625,2418,3217,2780,1743,2162,29968,67,35,856
82313,4213844,4573316,4222944,4583392,2504,3800,3290,4637,2659,-351,1428,4992,67,35,856
83314,4214100,4573416,4223271,4583719,2737,3800,3062,3772,2545,-823,1557,2017,47,35,855
84315,4214348,4573512,4223598,4584046,2822,3800,2506,2154,2383,-752,1567,1571,47,35,855
85316,4214640,4573608,4223925,4584373,2565,3800,1987,1164,2043,-1031,2675,2479,50,21,849
86317,4214908,4573740,4224252,4584700,2743,3800,1391,889,1636,-1222,2885,3987,50,21,849
87318,4215184,4573876,4224579,4585027,2717,3800,669,1037,1256,-795,2699,4668,69,35,848
88319,4215464,4574084,4224906,4585354,2715,3800,-70,988,873,-803,2733,3905,69,35,848
89308,4215744,4574352,4225233,4585681,2736,3591,-697,489,483,-864,2606,2951,46,44,849
90309,4215988,4574608,4225560,4586008,3000,3699,-1213,-257,171,-620,1192,2530,46,44,849
91310,4216244,4574968,4225887,4586335,2958,3037,-1572,-1253,35,-378,127,1825,48,68,849
92311,4216508,4575484,4226214,4586662,2938,1981,-1849,-2062,12,97,83,2985,48,68,849
93319,4216756,4575892,4215784,4576232,184,-268,-970,-786,4,2839,-1650,21050,59,87,850
94313,4217016,4576440,4216111,4576559,138,-1239,838,1851,-44,3273,-2584,25887,59,87,850
95314,4217232,4576884,4216438,4576886,462,-641,1770,1828,-75,850,-555,1314,67,91,859
96314,4217376,4577240,4216765,4577213,992,-103,1672,24,64,816,-1523,805,67,91,859
97316,4217448,4577616,4217092,4577540,1554,-250,1316,-1755,354,1052,-3012,1741,19,83,871
98316,4217504,4577920,4217419,4577867,1773,210,1092,-2740,639,1031,-3248,2608,19,83,871
99317,4217536,4578188,4217746,4578194,2053,461,1046,-3299,843,904,-3118,3068,6,52,872
100318,4217556,4578400,4218073,4578521,2263,862,935,-3411,889,719,-2982,4631,6,52,872
101319,4217576,4578616,4218400,4578848,2398,885,722,-3364,692,72,-2004,4887,18,38,869
102320,4217596,4578848,4218727,4579175,2533,827,472,-3321,274,-287,-920,5170,18,38,869
103321,4217588,4579080,4219054,4579502,2855,869,204,-3040,-246,-110,75,5937,-6,39,864
104322,4217608,4579300,4219381,4579829,2816,991,-68,-2597,-635,104,-516,6227,-6,39,864
105324,4217632,4579512,4219708,4580156,2924,1092,-374,-1924,-825,161,-1483,6842,-3,50,863
106324,4217664,4579700,4220035,4580483,3003,1303,-642,-1321,-953,-158,-745,6313,-3,50,863
107326,4217732,4579880,4220362,4580810,2893,1417,-810,-963,-1107,-130,-418,5781,18,47,861
108326,4217816,4580132,4220689,4581137,2900,1000,-836,-748,-1251,61,-874,5218,18,47,861
109327,4217912,4580352,4221016,4581464,2928,1247,-707,-846,-1323,6,-1820,4187,27,48,859
110328,4218048,4580568,4221343,4581791,2762,1322,-501,-1034,-1373,-137,-2104,4005,27,48,859
111330,4218192,4580756,4221670,4582118,2793,1558,-303,-1258,-1415,-233,-2000,3688,27,49,861
112330,4218368,4580936,4221997,4582445,2660,1673,-78,-1527,-1444,-186,-1749,3532,27,49,861
113332,4218540,4581096,4222324,4582772,2754,1871,179,-1829,-1467,-235,-1410,3131,41,47,860
114332,4218760,4581288,4222651,4583099,2501,1731,444,-2279,-1465,-302,-1082,2866,41,47,860
115334,4218960,4581460,4222978,4583426,2683,1924,662,-2747,-1433,-415,-681,2673,36,40,860
116334,4219196,4581644,4223305,4583753,2499,1913,850,-3338,-1398,-920,-666,2014,36,40,860
117335,4219452,4581832,4223632,4584080,2406,1949,1038,-3936,-1371,-1432,-1581,2185,58,29,861
118336,4219676,4581992,4223959,4584407,2652,2198,1222,-4320,-1286,-1968,-3251,2828,58,29,861
119337,4219904,4582168,4224286,4584734,2671,2165,1379,-4517,-1120,-2342,-3939,3272,58,36,860
120338,4220156,4582336,4224613,4585061,2555,2285,1504,-4534,-941,-2455,-3827,3547,58,36,860
121340,4220432,4582460,4224940,4585388,2429,2650,1612,-4537,-788,-2619,-3665,3405,45,28,858
122340,4220676,4582596,4225267,4585715,2666,2659,1720,-4612,-610,-2380,-3400,3154,45,28,858
123342,4220948,4582736,4225594,4586042,2516,2717,1827,-4864,-367,-2055,-2352,2490,64,25,859
124342,4221212,4582884,4225921,4586369,2594,2747,1838,-5008,-157,-2322,-1684,3405,64,25,859
125344,4221488,4583048,4226248,4586696,2542,2719,1763,-4923,-29,-2362,-1283,3820,66,31,856
126344,4221760,4583212,4226575,4587023,2592,2791,1721,-4954,52,-1970,-854,2977,66,31,856
127346,4222072,4583380,4226902,4587350,2350,2837,1719,-5103,189,-1406,-868,2820,46,29,856
128346,4222364,4583552,4227229,4587677,2491,2880,1703,-5297,361,-990,-705,2845,46,29,856
129348,4222640,4583716,4227556,4588004,2615,3003,1668,-5476,549,-292,-842,2723,49,31,855
130348,4223000,4583900,4227883,4588331,2076,2942,1645,-5663,703,146,-882,2700,49,31,855
131349,4223308,4584060,4228210,4588658,2411,3166,1630,-5891,757,541,-157,2634,54,32,856
132350,4223628,4584276,4228537,4588985,2340,2866,1613,-6075,720,1069,621,2687,54,32,856
133351,4223996,4584460,4228864,4589312,2023,3130,1617,-6344,720,1549,1007,2408,77,32,857
134352,4224332,4584672,4229191,4589639,2220,3006,1598,-6521,708,1905,1486,2762,77,32,857
135354,4224716,4584876,4229518,4589966,1896,3111,1518,-6564,668,2398,1648,3285,77,43,856
136354,4225072,4585076,4229845,4590293,2059,3192,1382,-6385,626,2779,1663,3796,77,43,856
137356,4225440,4585240,4230172,4590620,1966,3490,1227,-6117,542,3049,1602,4042,61,35,856
138357,4225808,4585424,4230499,4590947,1949,3429,1088,-5811,423,3246,1159,4085,61,35,856
139357,4226224,4585612,4230826,4591274,1611,3467,976,-5517,275,3274,1026,4144,79,38,856
140358,4226596,4585812,4231153,4591601,1867,3448,876,-5263,72,3180,1066,4020,79,38,856
141359,4226948,4586008,4231480,4591928,1982,3532,804,-5032,-165,3139,1023,3766,84,50,855
142360,4227328,4586204,4231807,4592255,1785,3591,753,-4884,-394,3174,1016,3544,84,50,855
143368,4227748,4586388,4232168,4592616,1510,3744,717,-4794,-623,3059,936,3376,68,47,855
144375,4228140,4586572,4232495,4592943,1657,3800,705,-4734,-866,2739,923,3070,68,47,855
145376,4228516,4586752,4232822,4593270,1736,3800,725,-4777,-1155,2296,1183,2690,88,40,855
146364,4228944,4586964,4233149,4593597,1367,3751,753,-4883,-1487,1932,1140,2596,88,40,855
147365,4229300,4587236,4233476,4593924,1806,3402,766,-4916,-1804,1621,659,2752,69,45,853
148379,4229672,4587436,4233803,4594251,1687,3800,779,-4894,-2056,1324,129,2723,69,45,853
149367,4230092,4587684,4234130,4594578,1347,3644,806,-4852,-2231,1041,-162,2547,80,60,856
150368,4230488,4587932,4234457,4594905,1467,3681,818,-4851,-2374,648,125,2539,80,60,856
151369,4230872,4588200,4234784,4595232,1518,3583,793,-4799,-2467,324,196,2707,88,61,854
152371,4231320,4588444,4235111,4595559,1065,3770,741,-4770,-2482,165,-103,2554,88,61,854
153372,4231700,4588716,4235438,4595886,1468,3621,661,-4760,-2420,40,-367,2438,77,62,854
154373,4232120,4588984,4235765,4596213,1177,3673,566,-4816,-2279,-185,-624,2113,77,62,854
155386,4232588,4589232,4236092,4596540,816,3800,501,-4959,-2084,-372,-655,1800,72,55,857
156375,4232984,4589496,4236419,4596867,1237,3764,456,-5142,-1851,-458,-579,1814,72,55,857
157376,4233380,4589776,4236746,4597194,1207,3685,440,-5361,-1616,-537,-209,1658,82,50,856
158377,4233752,4590076,4237073,4597521,1338,3574,422,-5593,-1389,-626,133,1676,82,50,856
159390,4234180,4590336,4237400,4597848,945,3800,396,-5807,-1174,-791,365,1699,92,66,855
160391,4234568,4590600,4237727,4598175,1168,3800,343,-5965,-942,-887,583,1925,92,66,855
161392,4234936,4590872,4238054,4598502,1276,3800,259,-6113,-673,-638,596,2034,69,63,857
162393,4235332,4591152,4238381,4598829,1070,3800,160,-6192,-372,-547,778,2125,69,63,857
163381,4235656,4591460,4238708,4599156,1523,3642,49,-6246,-39,-570,732,2264,65,63,855
164383,4236004,4591752,4239035,4599483,1364,3758,-87,-6297,306,-354,668,2431,65,63,855
165384,4236336,4592064,4239362,4599810,1462,3642,-234,-6273,657,-287,898,2861,72,53,856
166385,4236668,4592372,4239689,4600137,1461,3676,-413,-6162,1008,-237,1139,3021,72,53,856
167385,4236968,4592704,4240016,4600464,1673,3526,-598,-6042,1358,29,1027,3002,77,75,855
168387,4237308,4593036,4240343,4600791,1418,3524,-780,-5915,1729,317,1121,3252,77,75,855
169388,4237628,4593424,4240670,4601118,1546,3150,-965,-5840,2089,733,1332,3145,69,72,855
170389,4237940,4593752,4240997,4601445,1604,3525,-1183,-5883,2400,1184,1538,2944,69,72,855
171390,4238280,4594084,4241324,4601772,1424,3500,-1427,-5897,2673,1383,1541,3164,68,73,857
172391,4238584,4594400,4241651,4602099,1659,3606,-1683,-6004,2914,1681,1381,2976,68,73,857
173392,4238872,4594720,4241978,4602426,1777,3586,-1952,-6065,3176,1877,1046,3475,53,69,855
174392,4239212,4595036,4242305,4602753,1447,3617,-2266,-5881,3470,1531,570,4152,53,69,855
175393,4239520,4595372,4242632,4603080,1656,3490,-2617,-5612,3751,1308,232,4372,73,60,856
176407,4239816,4595656,4242959,4603407,1745,3800,-2951,-5376,3969,1172,342,4548,73,60,856
177396,4240124,4595952,4243286,4603734,1679,3775,-3235,-5208,4092,1090,569,4509,58,57,856
178397,4240428,4596296,4243613,4604061,1715,3469,-3460,-5140,4131,1065,555,4363,58,57,856
179398,4240708,4596596,4243940,4604388,1886,3758,-3647,-5123,4161,847,118,4482,52,60,854
180399,4240980,4596924,4244267,4604715,1961,3583,-3815,-5102,4231,730,-392,4598,52,60,854
181400,4241296,4597220,4244594,4605042,1692,3799,-3944,-5134,4271,931,-620,4197,66,51,855
182401,4241576,4597540,4244921,4605369,1937,3653,-4016,-5359,4228,871,-531,3787,66,51,855
183414,4241840,4597816,4245248,4605696,2066,3800,-4068,-5609,4152,755,-894,4187,53,51,855
184415,4242120,4598076,4245575,4606023,1987,3800,-4134,-5836,4084,639,-1456,4431,53,51,855
185416,4242396,4598312,4245902,4606350,2035,3800,-4170,-6040,4043,480,-1723,4514,67,45,854
186417,4242620,4598568,4246229,4606677,2406,3800,-4161,-6227,4026,415,-1941,4651,67,45,854
187418,4242900,4598812,4246556,4607004,2077,3800,-4136,-6398,4025,378,-2330,4825,63,53,852
188419,4243160,4599076,4246883,4607331,2233,3800,-4125,-6564,4064,344,-2583,5418,63,53,852
189420,4243412,4599336,4247210,4607658,2317,3800,-4107,-6578,4113,266,-2671,5794,52,60,851
190421,4243700,4599576,4247537,4607985,2110,3800,-4050,-6601,4115,205,-2519,5638,52,60,851
191422,4243988,4599836,4247864,4608312,2127,3800,-3932,-6663,4057,357,-2158,5745,58,42,850
192423,4244248,4600092,4248191,4608639,2332,3800,-2947,-5589,3932,2114,-1725,16445,58,42,850
193431,4244524,4600376,4248552,4609000,2271,3800,-153,-458,3479,6459,-545,32767,46,49,851
194425,4244760,4600660,4248879,4609327,2562,3800,1784,2095,3170,1418,-1146,10137,46,49,851
195426,4245008,4600916,4249206,4609654,2521,3800,2113,1481,3145,76,-966,3691,68,47,851
196427,4245248,4601176,4249533,4609981,2611,3800,1697,-623,3241,340,-1198,2601,68,47,851
197428,4245524,4601480,4249860,4610308,2409,3800,1485,-2013,3358,664,-1570,3295,44,62,850
198429,4245760,4601744,4250187,4610635,2700,3800,1481,-3082,3509,443,-1302,2912,44,62,850
199430,4245984,4601992,4250514,4610962,2821,3800,1580,-3970,3581,437,-895,3140,48,55,850
200431,4246252,4602264,4250841,4611289,2573,3800,1613,-4700,3600,244,-573,3930,48,55,850
201432,4246488,4602512,4251168,4611616,2813,3800,1654,-5504,3627,-68,-437,3839,50,55,848
202433,4246752,4602780,4251495,4611943,2667,3800,1645,-5978,3599,257,-448,4973,50,55,848
203434,4247000,4603080,4251822,4612270,2803,3800,1618,-6294,3540,290,-228,5322,69,54,849
204435,4247232,4603420,4252149,4612597,2945,3800,1571,-6273,3483,225,-392,6587,69,54,849
205436,4247468,4603732,4252476,4612924,2961,3800,1508,-5896,3391,156,-884,7340,61,59,850
206437,4247732,4604052,4252803,4613251,2815,3800,1497,-5657,3282,255,-225,6769,61,59,850
207438,4247972,4604424,4253130,4613578,3004,3800,1511,-5260,3087,799,683,7403,58,63,849
208426,4248208,4604828,4253457,4613905,3070,3719,1539,-4857,2861,925,682,7045,58,63,849
209440,4248464,4605172,4253784,4614232,2977,3800,1569,-4371,2666,537,315,7780,65,67,849
210429,4248696,4605572,4254111,4614559,3170,3708,1652,-3823,2552,279,85,7564,65,67,849
211429,4248916,4606008,4254438,4614886,3293,3437,1805,-3558,2416,447,618,6693,44,68,849
212430,4249160,4606388,4254765,4615213,3181,3766,1998,-3254,2208,930,1068,6614,44,68,849
213444,4249456,4606736,4255092,4615540,2870,3800,2228,-3284,2003,1496,1058,5200,60,70,846
214432,4249744,4607224,4255419,4615867,2938,3014,2453,-3299,1863,1476,530,5601,60,70,846
215433,4250032,4607696,4255746,4616194,2957,3052,2699,-3289,1805,715,495,5175,73,80,849
216434,4250360,4608116,4256073,4616521,2707,3337,2939,-3426,1724,157,808,4890,73,80,849
217436,4250696,4608636,4256400,4616848,2654,2629,3126,-3287,1626,236,984,5307,55,84,854
218437,4251036,4609164,4256727,4617175,2625,2492,3330,-3440,1561,650,1566,3963,55,84,854
219438,4251416,4609728,4257054,4617502,2353,2165,3511,-3432,1528,852,977,4535,84,99,854
220438,4251744,4610328,4257381,4617829,2679,1822,3664,-3339,1540,137,753,4260,84,99,854
221440,4252148,4610832,4257708,4618156,2171,2345,3824,-3395,1619,-486,330,4175,73,100,859
222441,4252560,4611444,4258035,4618483,2085,1546,3936,-3121,1675,-405,172,4664,73,100,859
223442,4252928,4611992,4258362,4618810,2342,1851,4044,-2904,1688,-591,380,3929,74,117,860
224442,4253308,4612524,4258689,4619137,2245,1862,4096,-2577,1631,-746,192,4652,74,117,860
225444,4253760,4613180,4259016,4619464,1741,943,4072,-2087,1583,-967,-303,4863,86,104,864
226445,4254188,4613728,4259343,4619791,1848,1522,4016,-1543,1638,-927,-635,4975,86,104,864
227446,4254564,4614332,4259670,4620118,2152,1052,3956,-860,1744,-610,-689,4734,81,114,864
228446,4255044,4614892,4259997,4620445,1436,1226,3949,-563,1898,-428,-632,3271,81,114,864
229447,4255456,4615420,4260324,4620772,1825,1338,3952,-382,2082,-367,-374,3374,92,104,866
230448,4255852,4616080,4260651,4621099,1895,368,3948,-270,2269,-116,-333,2666,92,104,866
231449,4256320,4616572,4260978,4621426,1384,1347,3993,-325,2366,195,125,1482,78,110,868
232450,4256756,4617172,4261305,4621753,1538,553,4044,-497,2371,173,15,1243,78,110,868
233451,4257172,4617708,4261632,4622080,1623,862,4057,-615,2410,386,-528,1518,102,97,869
234452,4257660,4618248,4261959,4622407,1104,743,3935,-352,2549,943,-947,2531,102,97,869
235454,4258112,4618812,4262286,4622734,1275,490,3772,69,2708,1177,-788,2293,105,108,869
236454,4258520,4619380,4262613,4623061,1515,360,3617,442,2753,1135,-828,1975,105,108,869
237455,4259012,4619960,4262940,4623388,919,175,3500,698,2701,971,-904,1562,83,102,870
238456,4259532,4620496,4263267,4623715,659,358,3404,829,2629,1093,-1007,1213,83,102,870
239457,4259928,4620976,4263594,4624042,1405,642,3316,1041,2565,1415,-1348,1194,83,112,870
240458,4260432,4621496,4263921,4624369,653,307,3215,1308,2525,1566,-1509,1130,83,112,870
241459,4260872,4622012,4264248,4624696,1003,250,3093,1636,2496,1653,-1734,1327,86,89,873
242461,4261340,4622456,4264575,4625023,767,649,2943,2005,2447,1616,-1897,1370,86,89,873
243470,4261776,4622880,4264936,4625384,935,747,2752,2432,2373,1699,-1881,1460,73,85,873
244462,4262140,4623252,4265263,4625711,1369,1052,2534,2953,2245,1824,-1513,1287,73,85,873
245463,4262608,4623560,4265590,4626038,658,1461,2334,3340,2089,1814,-1195,817,71,76,871
246464,4263084,4623856,4265917,4626365,543,1550,2157,3668,1934,1840,-907,699,71,76,871
247465,4263424,4624268,4266244,4626692,1388,789,1962,3931,1758,1737,-342,298,88,66,868
248466,4263860,4624572,4266571,4627019,741,1474,1734,4115,1499,1681,226,-83,88,66,868
249468,4264228,4624844,4266898,4627346,1148,1699,1427,4186,1155,1866,498,-166,67,73,870
250469,4264612,4625112,4267225,4627673,1024,1750,1012,4380,772,2068,868,174,67,73,870
251469,4265044,4625400,4267552,4628000,678,1643,560,4428,307,1872,1243,-786,81,47,869
252470,4265412,4625672,4267879,4628327,1061,1767,152,4043,-264,1632,1655,-2052,81,47,869
253471,4265804,4625916,4268206,4628654,882,1980,-172,3447,-870,1501,1728,-2453,85,51,867
254472,4266228,4626144,4268533,4628981,640,2123,-453,2793,-1410,1461,1640,-2549,85,51,867
255473,4266588,4626372,4268860,4629308,1026,2168,-730,2188,-1837,1359,1547,-2333,76,57,867
256474,4266956,4626640,4269187,4629635,958,1944,-1024,1821,-2172,1223,1878,-1946,76,57,867
257475,4267388,4626900,4269514,4629962,513,2024,-1288,1469,-2504,1040,2264,-2307,59,48,866
258477,4267712,4627180,4269841,4630289,1189,1921,-1501,1029,-2891,653,2466,-2527,59,48,866
259477,4268040,4627436,4270168,4630616,1165,2102,-1704,659,-3297,63,2645,-2420,58,57,866
260479,4268384,4627676,4270495,4630943,1057,2241,-1935,265,-3646,-279,2366,-2456,58,57,866
261479,4268724,4627960,4270822,4631270,1076,1985,-2171,-200,-3929,-620,2363,-2816,59,56,866
262480,4269024,4628232,4271149,4631597,1339,2085,-2380,-753,-4201,-716,2552,-3048,59,56,866
263481,4269360,4628516,4271476,4631924,1110,2030,-2613,-1300,-4418,-518,2051,-3017,52,56,865
264482,4269620,4628772,4271803,4632251,1616,2236,-2845,-1974,-4502,-500,1475,-3134,52,56,865
265483,4269920,4628996,4272130,4632578,1378,2483,-3075,-2706,-4433,-73,968,-3158,50,63,865
266485,4270196,4629252,4272457,4632905,1550,2315,-3310,-3519,-4286,530,869,-3458,50,63,865
267486,4270500,4629548,4272784,4633232,1386,2078,-3575,-4355,-4050,1082,210,-3405,43,57,862
268486,4270768,4629848,4273111,4633559,1637,2066,-3859,-5184,-3664,1311,-1112,-3362,43,57,862
269488,4270988,4630172,4273438,4633886,1985,1919,-4172,-5902,-3124,1008,-1889,-2672,62,70,862
270488,4271248,4630476,4273765,4634213,1765,2054,-4549,-6414,-2507,704,-1829,-1584,62,70,862
271490,4271520,4630812,4274092,4634540,1715,1851,-5011,-6635,-1815,924,-2278,-699,60,65,864
272490,4271768,4631136,4274419,4634867,1899,1928,-5559,-6578,-981,1421,-3029,206,60,65,864
273491,4272008,4631424,4274746,4635194,1989,2171,-6216,-6245,-45,1708,-3394,1598,51,55,863
274492,4272228,4631704,4275073,4635521,2161,2242,-6879,-5803,871,1744,-3170,1855,51,55,863
275493,4272460,4632008,4275400,4635848,2128,2103,-7458,-5573,1652,1942,-2793,1330,57,66,863
276494,4272672,4632296,4275727,4636175,2304,2221,-7939,-5651,2315,2415,-2703,754,57,66,863
277495,4272924,4632580,4276054,4636502,2088,2265,-8334,-6115,2886,2746,-2639,-33,44,64,860
278496,4273208,4632876,4276381,4636829,1907,2205,-8627,-6799,3342,2858,-2798,-371,44,64,860
279497,4273448,4633136,4276708,4637156,2221,2460,-8879,-7675,3644,2872,-3065,-413,39,52,860
280498,4273704,4633472,4277035,4637483,2153,1982,-9125,-8446,3800,3001,-3489,-14,39,52,860
281499,4273936,4633816,4277362,4637810,2345,1925,-9343,-9014,3806,3102,-3612,931,50,64,862
282500,4274192,4634108,4277689,4638137,2227,2266,-9500,-9335,3678,2977,-3731,1638,50,64,862
283502,4274476,4634376,4278016,4638464,2072,2443,-9564,-9496,3497,2801,-3961,2428,58,49,862
284502,4274796,4634684,4278343,4638791,1850,2202,-9535,-9432,3324,2747,-4444,3447,58,49,862
285504,4275072,4634976,4278670,4639118,2149,2319,-9510,-9002,3193,2722,-5059,5155,51,67,861
286504,4275352,4635340,4278997,4639445,2145,1852,-9514,-8022,3077,2561,-5769,6933,51,67,861
287506,4275592,4635620,4279324,4639772,2434,2399,-9500,-6867,2926,2458,-5941,7395,44,61,862
288506,4275796,4635876,4279651,4640099,2714,2581,-9421,-5645,2683,2357,-5553,7940,44,61,862
289508,4276056,4636200,4279978,4640426,2394,2159,-4566,3405,2379,8276,-5056,32767,58,59,861
290508,4276344,4636528,4280305,4640753,2237,2134,5435,23363,1907,11837,-4744,32767,58,59,861
291510,4276620,4636900,4280632,4641080,2335,1839,10639,29896,1307,7085,-2504,10518,53,61,856
292511,4276932,4637216,4280959,4641407,2117,2195,10235,26723,799,7139,-1164,-431,53,61,856
293519,4277212,4637556,4281320,4641768,2354,2055,8862,20126,316,7432,-1224,-7143,76,69,861
294513,4277468,4637880,4281647,4642095,2536,2158,7989,14575,-53,6885,-1186,-7665,76,69,861
295513,4277744,4638244,4281974,4642422,2433,1893,7931,11418,-240,5698,-252,-5984,68,65,861
296514,4278004,4638596,4282301,4642749,2564,1957,7627,8108,-557,5355,1160,-7469,68,65,861
297516,4278260,4638816,4282628,4643076,2621,2830,7210,4524,-1133,4190,2301,-7730,46,57,860
298516,4278520,4639004,4282955,4643403,2626,3092,6620,1162,-1587,2465,2941,-4933,46,57,860
299518,4278804,4639164,4283282,4643730,2496,3341,5351,-685,-1694,2176,1587,-337,50,47,860
300518,4279060,4639364,4283609,4644057,2704,3148,3821,-1885,-1722,419,2025,-580,50,47,860
301520,4279308,4639580,4283936,4644384,2788,3098,1609,-1659,-2053,-923,5436,6266,51,45,853
302520,4279584,4639868,4284263,4644711,2637,2665,-716,-694,-2663,-2798,4339,5610,51,45,853
303522,4279860,4640168,4284590,4645038,2660,2603,-2201,-1297,-3393,-5332,4114,353,48,58,853
304522,4280112,4640476,4284917,4645365,2844,2562,-2715,-3104,-4085,-6841,4623,-1274,48,58,853
305524,4280408,4640856,4285244,4645692,2584,2090,-2858,-4846,-4714,-7377,4121,-541,50,70,856
306524,4280664,4641232,4285571,4646019,2866,2094,-2917,-6113,-5052,-8693,3028,-49,50,70,856
307526,4280944,4641628,4285898,4646346,2738,1940,-3007,-6940,-4946,-9650,1361,1794,63,77,857
308526,4281228,4642116,4286225,4646673,2732,1295,-3133,-6981,-4397,-9721,-565,4116,63,77,857
309527,4281500,4642524,4286552,4647000,2833,1760,-3343,-6454,-3368,-9994,-2144,5815,70,87,858
310528,4281756,4642912,4286879,4647327,2965,1860,-3372,-5614,-2166,-10421,-2898,6274,70,87,858
311529,4282072,4643380,4287206,4647654,2596,1299,-3277,-5176,-1024,-10772,-3051,5735,69,80,861
312530,4282340,4643792,4287533,4647981,2923,1611,-3130,-4767,73,-10697,-3075,6324,69,80,861
313532,4282628,4644152,4287860,4648308,2816,1923,-2950,-4270,1170,-10124,-3298,6442,70,78,857
314532,4282916,4644596,4288187,4648635,2834,1347,-2814,-3673,2160,-9739,-3152,7066,70,78,857
315534,4283244,4645016,4288514,4648962,2584,1458,-2716,-3119,2968,-9119,-2704,6595,55,77,860
316535,4283520,4645356,4288841,4649289,2933,1952,-2657,-2738,3618,-7827,-2491,6203,55,77,860
317536,4283808,4645752,4289168,4649616,2876,1573,-2602,-2358,4122,-6154,-1830,6805,61,80,861
318536,4284132,4646192,4289495,4649943,2653,1249,-1980,-961,4415,-3070,-1003,16427,61,80,861
319537,4284428,4646624,4289822,4650270,2843,1254,-870,1327,4491,-870,-773,20378,73,79,859
320538,4284728,4646932,4290149,4650597,2831,2037,-371,2056,4560,-1500,-475,5644,73,79,859
321539,4285068,4647272,4290476,4650924,2576,1832,-551,1430,4648,-262,125,3921,61,70,862
322540,4285364,4647608,4290803,4651251,2866,1854,-895,384,4655,1173,551,3264,61,70,862
323541,4285680,4647920,4291130,4651578,2747,2011,-1097,-613,4520,2235,1234,2862,54,73,858
324542,4286036,4648180,4291457,4651905,2485,2366,-1199,-1632,4244,3174,1697,2562,54,73,858
325543,4286376,4648460,4291784,4652232,2580,2263,-1276,-2659,3875,4099,958,2454,69,53,859
326544,4286700,4648712,4292111,4652559,2682,2472,-1309,-3772,3472,4642,561,2449,69,53,859
327545,4287080,4648924,4292438,4652886,2310,2773,-1280,-4829,3019,4874,402,2720,70,42,859
328546,4287440,4649116,4292765,4653213,2422,2958,-1249,-5747,2404,5035,483,2893,70,42,859
329547,4287800,4649320,4293092,4653540,2408,2938,-1211,-6649,1600,4926,535,3104,78,50,857
330548,4288164,4649508,4293419,4653867,2368,3100,-1191,-7381,663,4735,365,3941,78,50,857
331549,4288568,4649716,4293746,4654194,2085,3027,-884,-7326,-256,4656,-1135,9508,78,47,856
332550,4288960,4649952,4294073,4654521,2132,2893,-49,-5779,-970,3672,-3456,19183,78,47,856
333552,4289304,4650200,4294400,4654848,2426,2854,412,-4820,-1722,3220,-1995,7810,88,50,855
334552,4289708,4650452,4294727,4655175,2018,2863,308,-4820,-2590,2639,-1774,5660,88,50,855
335553,4290084,4650684,4295054,4655502,2173,3031,9,-5109,-3437,2160,-2286,5674,73,63,856
336554,4290464,4650956,4295381,4655829,2125,2806,-143,-5194,-4117,1792,-2573,5785,73,63,856
337555,4290860,4651220,4295708,4656156,1996,2885,-161,-5202,-4611,1355,-2443,5436,86,49,858
338557,4291252,4651480,4296035,4656483,1993,2940,-113,-5250,-4968,991,-2577,5136,86,49,858
339557,4291636,4651732,4296362,4656810,2019,3024,-63,-5377,-5202,496,-2496,4867,88,58,858
340558,4292068,4651972,4296689,4657137,1674,3138,21,-5707,-5344,-19,-1999,4137,88,58,858
341559,4292480,4652252,4297016,4657464,1762,2910,140,-6203,-5435,-565,-1695,3647,70,59,858
342560,4292852,4652504,4297343,4657791,1993,3119,286,-6766,-5415,-1116,-2294,3420,70,59,858
343568,4293296,4652812,4297704,4658152,1508,2793,477,-7307,-5241,-1511,-2637,3390,96,58,858
344562,4293708,4653096,4298031,4658479,1671,2963,671,-7775,-4938,-1836,-2386,3382,96,58,858
345563,4294104,4653340,4298358,4658806,1742,3251,859,-8220,-4527,-2165,-2082,3272,88,70,856
346564,4294568,4653628,4298685,4659133,1258,2994,1048,-8615,-4040,-2346,-1738,3417,88,70,856
347565,4294964,4653956,4299012,4659460,1652,2744,1254,-8947,-3528,-2624,-1386,3454,93,65,859
348567,4295376,4654256,4299339,4659787,1516,2932,1461,-9205,-3023,-2907,-1041,3551,93,65,859
349568,4295784,4654552,4299666,4660114,1506,2972,1683,-9412,-2515,-3198,-781,3500,74,61,860
350568,4296200,4654832,4299993,4660441,1418,3093,1911,-9568,-1979,-3498,-530,3662,74,61,860
351569,4296644,4655148,4300320,4660768,1192,2874,2157,-9604,-1395,-3655,-485,3951,89,63,860
352570,4297084,4655476,4300647,4661095,1168,2800,2402,-9502,-747,-3611,-539,4171,89,63,860
353572,4297584,4655816,4300974,4661422,718,2720,2625,-9271,-55,-3523,-620,4396,93,74,859
354573,4298012,4656164,4301301,4661749,1124,2662,2816,-8860,595,-3495,-493,4735,93,74,859
355573,4298408,4656480,4301628,4662076,1295,2868,2992,-8447,1128,-3475,-230,4741,86,64,861
356575,4298864,4656796,4301955,4662403,864,2874,3172,-8107,1537,-3306,28,4497,86,64,861
357576,4299292,4657116,4302282,4662730,994,2853,3404,-7792,1846,-3005,367,3985,82,80,861
358577,4299684,4657432,4302609,4663057,1192,2883,3647,-7690,2132,-2539,481,3404,82,80,861
359577,4300152,4657764,4302936,4663384,655,2783,3890,-7725,2472,-1845,281,3019,76,60,862
360579,4300504,4658100,4303263,4663711,1370,2755,4069,-7815,2826,-1228,308,2814,76,60,862
361580,4300888,4658432,4303590,4664038,1145,2779,4171,-7819,3120,-588,580,2887,66,76,861
362580,4301288,4658780,4303917,4664365,1014,2671,4177,-7855,3324,163,830,2741,66,76,861
363581,4301660,4659132,4304244,4664692,1169,2636,4172,-7903,3463,643,1036,2466,83,84,862
364582,4301992,4659528,4304571,4665019,1418,2332,4161,-8056,3505,1025,1537,2045,83,84,862
365583,4302328,4659844,4304898,4665346,1389,2837,4108,-8224,3463,1575,1875,2010,75,62,863
366584,4302664,4660148,4305225,4665673,1386,2923,4015,-8466,3419,2069,1833,1756,75,62,863
367585,4303012,4660468,4305552,4666000,1302,2828,3875,-8707,3360,2528,2157,1793,72,72,862
368586,4303344,4660776,4305879,4666327,1401,2912,3690,-8875,3228,2733,2386,1765,72,72,862
369587,4303676,4661092,4306206,4666654,1398,2868,3467,-8985,3056,2869,2091,1816,76,58,860
370588,4303980,4661400,4306533,4666981,1584,2927,3225,-9059,2896,3155,1793,2171,76,58,860
371589,4304292,4661684,4306860,4667308,1541,3097,2933,-8948,2789,3219,1419,2651,76,69,860
372590,4304636,4662000,4307187,4667635,1335,2903,2630,-8687,2819,3041,771,2813,76,69,860
373591,4304952,4662304,4307514,4667962,1514,2989,2386,-8441,2920,2658,815,2516,55,60,859
374592,4305248,4662572,4307841,4668289,1654,3241,2169,-8201,3034,2214,540,2873,55,60,859
375593,4305572,4662892,4308168,4668616,1480,2921,1908,-7726,3130,2006,531,3539,67,53,860
376594,4305872,4663168,4308495,4668943,1643,3219,1552,-7077,3240,1764,340,4098,67,53,860
377596,4306156,4663440,4308822,4669270,1762,3270,1144,-6336,3406,1476,67,4229,61,48,857
378596,4306464,4663684,4309149,4669597,1621,3482,768,-5696,3602,1342,264,3661,61,48,857
379597,4306768,4663924,4309476,4669924,1657,3546,459,-5299,3783,1423,499,2905,65,44,857
380598,4307040,4664152,4309803,4670251,1882,3666,177,-5126,3921,1556,741,2419,65,44,857
381600,4307308,4664396,4310130,4670578,1933,3603,-85,-5079,4046,1543,754,2081,50,40,855
382600,4307592,4664652,4310457,4670905,1853,3560,-343,-5042,4186,1349,355,2123,50,40,855
383602,4307860,4664892,4310784,4671232,1978,3701,-601,-4927,4330,1069,-52,2326,62,45,854
384602,4308112,4665132,4311111,4671559,2112,3740,-845,-4763,4468,1009,-265,2289,62,45,854
385616,4308372,4665352,4311438,4671886,2093,3800,-1072,-4613,4577,920,-393,2336,62,42,854
386604,4308616,4665596,4311765,4672213,2229,3800,-1285,-4500,4652,742,-366,2412,62,42,854
387605,4308860,4665876,4312092,4672540,2267,3598,-1483,-4347,4697,645,-376,2623,59,45,851
388606,4309140,4666160,4312419,4672867,2062,3593,-1672,-4109,4723,485,-471,2781,59,45,851
389607,4309432,4666432,4312746,4673194,2004,3693,-1812,-3952,4721,496,-308,2605,55,50,850
390621,4309676,4666676,4313073,4673521,2341,3800,-1906,-3829,4679,756,-180,2596,55,50,850
391609,4309928,4666988,4313400,4673848,2324,3489,-1979,-3659,4603,645,-356,2760,67,52,853
392610,4310164,4667280,4313727,4674175,2465,3631,-2043,-3456,4529,409,-676,2878,67,52,853
393618,4310408,4667572,4314088,4674536,2468,3662,-2065,-3356,4451,411,-781,2663,65,63,851
394625,4310684,4667832,4314415,4674863,2290,3800,-2021,-3343,4342,572,-366,2545,65,63,851
395613,4310908,4668128,4314742,4675190,2661,3683,-1932,-3388,4172,820,57,2519,63,59,851
396627,4311132,4668384,4315069,4675517,2708,3800,-1846,-3412,3972,1104,-29,2692,63,59,851
397616,4311372,4668776,4315396,4675844,2646,3089,-1762,-3425,3752,1263,103,2898,55,70,851
398616,4311564,4669108,4315723,4676171,3006,3462,-1721,-3288,3541,1232,-128,3575,55,70,851
399630,4311772,4669384,4316050,4676498,2959,3800,-1732,-2969,3322,1143,-314,4141,40,77,849
400618,4311980,4669740,4316377,4676825,3013,3325,-1762,-2695,3082,1426,47,4103,40,77,849
401619,4312236,4670096,4316704,4677152,2745,3313,-1730,-2605,2797,2051,965,3600,39,71,849
402620,4312448,4670428,4317031,4677479,3072,3462,-1700,-2534,2446,2428,1209,3808,39,71,849
403621,4312680,4670796,4317358,4677806,2988,3221,-1718,-2340,2137,2267,596,4381,49,76,850
404622,4312892,4671192,4317685,4678133,3165,3017,-1765,-2050,1953,1779,-411,4873,49,76,850
405624,4313092,4671572,4318012,4678460,3297,3094,-1782,-1861,1786,1609,-411,4403,52,73,850
406625,4313316,4671936,4318339,4678787,3193,3180,-1771,-1827,1565,1887,-285,4105,51,79,851
407625,4313588,4672264,4318666,4679114,2918,3406,-1732,-1896,1310,2394,-128,3735,51,79,851
408626,4313832,4672696,4318993,4679441,3131,2711,-1677,-2113,1080,2340,-54,3667,54,85,851
409627,4314072,4673136,4319320,4679768,3195,2613,-1651,-2157,922,1632,-487,4258,54,85,851
410628,4314344,4673512,4319647,4680095,3020,2992,-1609,-2175,806,1020,-323,4239,63,93,853
411629,4314608,4673956,4319974,4680422,3099,2517,-1523,-2237,655,784,-62,4145,63,93,853
412630,4314872,4674444,4320301,4680749,3127,2172,-1405,-2288,499,959,110,4104,64,90,853
413631,4315168,4674868,4320628,4681076,2942,2532,-1277,-2413,360,1144,460,3941,64,90,853
414633,4315456,4675432,4320955,4681403,3010,1553,-1158,-2354,261,759,77,4705,56,105,857
415634,4315776,4675956,4321282,4681730,2814,1718,-986,-2271,272,159,114,4417,56,105,857
416635,4316072,4676372,4321609,4682057,2979,2355,-780,-2225,324,-294,243,4820,57,90,859
417636,4316404,4676920,4321936,4682384,2753,1434,-633,-1868,328,-504,261,5597,57,90,859
418637,4316764,4677424,4322263,4682711,2564,1632,-449,-1682,333,-240,509,4446,81,106,857
419638,4317092,4677896,4322590,4683038,2765,1769,-206,-1586,403,140,336,4494,81,106,857
420639,4317476,4678436,4322917,4683365,2391,1252,18,-1459,534,-348,85,4960,73,90,861
421640,4317864,4678940,4323244,4683692,2341,1400,211,-1272,723,-804,-307,5059,73,90,861
422641,4318248,4679396,4323571,4684019,2342,1644,406,-973,900,-423,-16,5075,68,111,862
423642,4318648,4679968,4323898,4684346,2211,812,594,-611,1047,-318,238,5259,68,111,862
424643,4319096,4680456,4324225,4684673,1858,1268,727,-112,1128,-574,260,5707,85,95,863
425644,4319472,4680996,4324552,4685000,2288,850,883,182,1164,-726,329,4894,85,95,863
426645,4319904,4681516,4324879,4685327,1893,890,1059,483,1191,-451,545,5125,71,111,866
427646,4320292,4681996,4325206,4685654,2141,1074,1200,881,1248,-139,383,5287,71,111,866
428647,4320760,4682512,4325533,4685981,1580,767,1339,1190,1274,-339,351,4721,86,92,867
429647,4321188,4683048,4325860,4686308,1787,550,1477,1457,1293,-281,221,4704,86,92,867
430649,4321568,4683532,4326187,4686635,2064,807,1611,1592,1329,309,391,4136,100,105,869
431650,4322032,4684028,4326514,4686962,1480,659,1745,1589,1372,892,554,3568,100,105,869
432651,4322508,4684528,4326841,4687289,1341,558,1862,1471,1398,1023,420,3247,81,96,865
433652,4322944,4685044,4327168,4687616,1544,376,1956,1326,1463,1185,-208,3321,81,96,865
434653,4323392,4685568,4327495,4687943,1417,239,1966,1368,1559,1515,-772,3640,88,94,870
435654,4323812,4686040,4327822,4688270,1551,501,1956,1474,1617,1758,-679,3507,88,94,870
436655,4324332,4686512,4328149,4688597,842,438,1911,1703,1604,1788,-929,3909,104,82,870
437656,4324728,4686960,4328476,4688924,1588,535,1829,1990,1549,1935,-1094,3950,104,82,870
438657,4325156,4687376,4328803,4689251,1344,696,1733,2248,1476,2364,-1223,3909,94,74,872
439658,4325680,4687732,4329130,4689578,658,1059,1647,2555,1400,2704,-1298,3763,94,74,872
440658,4326104,4688180,4329457,4689905,1241,432,1594,2729,1298,2771,-1179,3131,79,68,870
441660,4326512,4688584,4329784,4690232,1306,673,1574,2769,1134,2772,-999,2735,79,68,870
442661,4327016,4688904,4330111,4690559,629,1201,1518,2871,915,2524,-1038,3019,86,60,869
443671,4327420,4689140,4330472,4690920,1236,1781,1392,3248,648,2249,-830,3422,86,60,869
444663,4327888,4689396,4330799,4691247,774,1688,1258,3695,348,1811,-728,3352,75,60,869
445664,4328276,4689680,4331126,4691574,1248,1532,1136,4087,16,1188,-407,3146,75,60,869
446665,4328640,4689972,4331453,4691901,1382,1498,1037,4473,-382,765,112,3026,67,62,868
447666,4329004,4690272,4331780,4692228,1366,1460,885,4926,-824,464,324,3110,67,62,868
448667,4329448,4690448,4332107,4692555,815,2301,676,5437,-1265,153,494,3001,87,53,867
449668,4329864,4690728,4332434,4692882,952,1673,443,5860,-1714,-115,807,2461,87,53,867
450669,4330248,4690996,4332761,4693209,1127,1774,229,5896,-2231,-380,1036,1604,65,46,865
451669,4330612,4691256,4333088,4693536,1237,1853,58,5730,-2840,-690,1487,852,65,46,865
452670,4330996,4691500,4333415,4693863,1087,1991,-122,5306,-3528,-1141,2235,76,83,53,866
453671,4331348,4691736,4333742,4694190,1277,2081,-327,4699,-4176,-1455,1773,-206,83,53,866
454672,4331692,4691976,4334069,4694517,1319,2095,-566,4148,-4654,-1555,906,-132,67,54,865
455674,4332036,4692228,4334396,4694844,1313,2053,-782,3555,-4945,-1459,273,-449,67,54,865
456674,4332396,4692480,4334723,4695171,1198,2087,-972,2829,-5070,-1119,-207,-813,61,43,864
457676,4332760,4692720,4335050,4695498,1158,2200,-1153,1791,-5071,-859,-314,-1559,61,43,864
458676,4333120,4692936,4335377,4695825,1168,2400,-1314,533,-5021,-636,-254,-2178,74,39,864
459678,4333452,4693152,4335704,4696152,1342,2449,-1447,-939,-4904,-434,-477,-2680,74,39,864
460678,4333752,4693392,4336031,4696479,1554,2338,-1539,-2534,-4677,-208,-342,-3163,53,58,863
461680,4334072,4693652,4336358,4696806,1432,2244,-1665,-4135,-4315,102,-279,-2929,53,58,863
462680,4334372,4693892,4336685,4697133,1570,2407,-1817,-5567,-3859,37,-365,-2408,66,47,862
463682,4334684,4694164,4337012,4697460,1502,2232,-2036,-6662,-3240,3,-1087,-1078,66,47,862
464682,4334956,4694468,4337339,4697787,1777,2042,-2329,-7340,-2565,-178,-1091,-8,44,57,861
465684,4335224,4694700,4337666,4698114,1828,2535,-2693,-7721,-1893,-130,-957,890,44,57,861
466685,4335440,4694984,4337993,4698441,2202,2230,-3069,-7857,-1241,-117,-794,1311,41,68,861
467686,4335704,4695304,4338320,4698768,1930,2008,-3431,-8042,-594,-94,-860,1407,41,68,861
468686,4335908,4695612,4338647,4699095,2360,2092,-3791,-8322,57,47,-1012,1564,35,59,859
469688,4336120,4695920,4338974,4699422,2361,2101,-4095,-8653,689,309,-844,1202,35,59,859
470688,4336332,4696244,4339301,4699749,2412,2003,-4411,-8929,1329,678,-1082,1529,50,65,860
471690,4336564,4696544,4339628,4700076,2329,2166,-4753,-9142,1979,739,-1310,1809,50,65,860
472691,4336792,4696860,4339955,4700403,2398,2071,-5096,-9317,2637,881,-1634,2228,36,63,860
473692,4337060,4697140,4340282,4700730,2174,2317,-5415,-9357,3263,1418,-1886,2638,36,63,860
474692,4337324,4697420,4340609,4701057,2228,2339,-5713,-9339,3817,1960,-1984,2930,44,69,860
475694,4337556,4697728,4340936,4701384,2471,2173,-5991,-9336,4256,2269,-2062,3104,44,69,860
476694,4337768,4697976,4341263,4701711,2646,2583,-6207,-9483,4548,2490,-2150,2839,59,51,859
477696,4338064,4698272,4341590,4702038,2136,2297,-6409,-9575,4687,2893,-2163,3320,59,51,859
478696,4338292,4698568,4341917,4702365,2606,2312,-6655,-9646,4674,3276,-2203,3459,47,71,856
479698,4338584,4698848,4342244,4702692,2221,2434,-6888,-9618,4559,3553,-2337,3811,47,71,856
480699,4338888,4699196,4342571,4703019,2157,2000,-7080,-9485,4406,3698,-2518,4433,47,63,858
481700,4339176,4699516,4342898,4703346,2275,2179,-7242,-9128,4262,3955,-2960,5353,47,63,858
482701,4339476,4699796,4343225,4703673,2212,2450,-7407,-8489,4151,4245,-3431,6402,64,58,861
483702,4339804,4700056,4343552,4704000,2038,2606,-7560,-7714,4038,4474,-3664,6797,64,58,861
484703,4340104,4700352,4343879,4704327,2225,2394,-6382,-5803,3823,6838,-3263,14828,55,64,859
485704,4340428,4700644,4344206,4704654,2078,2436,-310,6962,2530,22294,-1303,32767,55,64,859
486705,4340724,4700984,4344533,4704981,2266,2131,5617,17007,1293,11621,-2386,28014,52,64,858
487706,4341036,4701264,4344860,4705308,2174,2528,6744,17160,785,5770,-961,-150,52,64,858
488707,4341264,4701520,4345187,4705635,2743,2709,5651,12818,643,5961,-27,-3446,52,66,858
489708,4341496,4701836,4345514,4705962,2761,2340,4731,8165,464,5896,-458,-5150,52,66,858
490709,4341836,4702160,4345841,4706289,2081,2292,4463,5342,348,5221,-1062,-3664,55,65,856
491710,4342132,4702496,4346168,4706616,2370,2214,4353,3289,465,4567,-1863,-2762,55,65,856
492711,4342432,4702780,4346495,4706943,2358,2558,4089,1599,565,3932,-1847,-2107,77,58,860
493719,4342752,4703108,4346856,4707304,2252,2298,3715,-115,562,2476,-1002,-1803,77,58,860
494713,4343032,4703448,4347183,4707631,2523,2219,3462,-2050,413,1006,-218,-2210,57,60,858
495714,4343304,4703816,4347510,4707958,2598,2027,3131,-3748,76,-196,200,-775,57,60,858
496714,4343572,4704152,4347837,4708285,2650,2224,2806,-4727,-209,-1516,179,1290,54,55,858
497716,4343824,4704392,4348164,4708612,2784,2862,2412,-5144,-441,-2501,745,2382,54,55,858
498717,4344100,4704592,4348491,4708939,2657,3169,2068,-5069,-659,-3574,1004,3464,53,37,857
499717,4344392,4704800,4348818,4709266,2573,3172,1684,-4706,-894,-5051,1863,4697,53,37,857
500719,4344644,4705008,4349145,4709593,2856,3225,1265,-3959,-1177,-5710,2107,5788,57,36,852
501719,4344896,4705296,4349472,4709920,2890,2744,861,-3033,-1399,-6331,2423,5988,57,36,852
502720,4345136,4705624,4349799,4710247,3005,2494,526,-2176,-1470,-7112,2833,5820,51,58,851
503721,4345432,4705908,4350126,4710574,2669,2789,253,-1506,-1399,-7434,2699,5561,51,58,851
504722,4345668,4706292,4350453,4710901,3085,2139,55,-831,-1143,-7737,2413,5694,52,89,855
505724,4345940,4706696,4350780,4711228,2885,1981,-105,-37,-706,-7905,1984,6176,52,89,855
506724,4346228,4707096,4351107,4711555,2804,1975,-321,732,-161,-7591,1484,6313,61,93,856
507725,4346508,4707580,4351434,4711882,2875,1382,-567,1420,486,-7153,1024,5950,61,93,856
508726,4346792,4708056,4351761,4712209,2869,1368,-749,1650,1997,-5636,-501,3575,58,97,858
509727,4347076,4708480,4352088,4712536,2889,1651,-762,1290,2777,-4813,-599,3240,58,97,858
510728,4347348,4708960,4352415,4712863,2989,1234,-765,767,3510,-3769,-821,2559,48,84,860
511729,4347604,4709368,4352742,4713190,3121,1649,-790,285,4156,-2809,-1331,3056,48,84,860
512730,4347904,4709724,4353069,4713517,2859,1962,-884,-12,4676,-2054,-1403,3397,58,72,860
513732,4348192,4710200,4353396,4713844,2952,1148,-1096,-350,4964,-1500,-1135,3373,58,72,860
514733,4348504,4710588,4353723,4714171,2810,1671,-1395,-694,4952,-825,-908,3451,69,80,858
515734,4348828,4710916,4354050,4714498,2737,2047,-1721,-1081,4738,-59,-806,3485,69,80,858
516735,4349120,4711276,4354377,4714825,2954,1833,-2055,-1503,4399,701,-770,3481,75,73,860
517736,4349420,4711696,4354704,4715152,2917,1417,-2417,-1925,3966,1338,-657,3739,75,73,860
518736,4349684,4712112,4355031,4715479,3170,1404,-2823,-2306,3452,1930,-181,4128,53,77,858
519737,4350024,4712476,4355358,4715806,2691,1714,-3241,-2538,2854,2687,334,4505,53,77,858
520738,4350324,4712860,4355685,4716133,2953,1564,-3612,-2703,2220,3315,1068,4615,71,89,858
521740,4350652,4713220,4356012,4716460,2779,1700,-3861,-2961,1589,3566,2236,4506,71,89,858
522741,4350992,4713556,4356339,4716787,2699,1846,-3999,-3232,957,3907,2334,4616,74,62,859
523742,4351336,4713888,4356666,4717114,2668,1870,-4039,-3502,369,4179,995,4512,74,62,859
524742,4351680,4714220,4356993,4717441,2661,1869,-3968,-3849,-150,4280,30,4402,79,58,859
525744,4352044,4714556,4357320,4717768,2521,1840,-3089,-3052,-648,5584,-1138,14924,79,58,859
526744,4352384,4714816,4357647,4718095,2666,2345,-969,357,-1199,6597,-2427,32767,67,50,860
527745,4352724,4715044,4357974,4718422,2662,2590,453,1654,-1749,3693,-893,6062,67,50,860
528746,4353128,4715248,4358301,4718749,2229,2794,727,869,-2265,3290,-670,2910,59,46,857
529748,4353484,4715484,4358628,4719076,2517,2635,519,-692,-2684,3169,-1073,2404,59,46,857
530749,4353868,4715716,4358955,4719403,2318,2703,350,-1809,-3031,2674,-625,2664,67,41,856
531749,4354280,4715940,4359282,4719730,2107,2798,237,-2479,-3310,2004,-401,3064,67,41,856
532751,4354656,4716128,4359609,4720057,2311,3085,112,-2908,-3538,1343,-637,3441,88,38,856
533752,4355040,4716328,4359936,4720384,2237,3067,-32,-3235,-3778,600,-551,3703,88,38,856
534753,4355456,4716532,4360263,4720711,1999,3096,-78,-3662,-4028,-434,-1591,3439,91,54,855
535753,4355900,4716756,4360590,4721038,1774,3017,-53,-4002,-4199,-1138,-3240,3800,91,54,855
536755,4356316,4716980,4360917,4721365,1910,3064,43,-4221,-4278,-1934,-3770,4213,81,50,856
537756,4356708,4717220,4361244,4721692,2033,3003,151,-4205,-4270,-2651,-4108,4752,81,50,856
538757,4357132,4717420,4361571,4722019,1791,3310,281,-4068,-4218,-3234,-4052,4853,95,58,857
539758,4357560,4717640,4361898,4722346,1723,3233,432,-4046,-4124,-3769,-3962,4440,95,58,857
540758,4357984,4717860,4362225,4722673,1705,3281,606,-4082,-3966,-4083,-4000,4342,88,59,856
541759,4358416,4718168,4362552,4723000,1610,2739,794,-4207,-3762,-4241,-3425,3997,88,59,856
542760,4358820,4718436,4362879,4723327,1752,3016,991,-4417,-3535,-4495,-2846,3729,72,57,856
543768,4359240,4718724,4363240,4723688,1627,2924,1194,-4616,-3251,-4549,-2439,3527,72,57,856
544762,4359712,4719024,4363567,4724015,1240,2862,1398,-4881,-2916,-4465,-1875,3302,87,56,858
545764,4360112,4719312,4363894,4724342,1658,2955,1600,-5185,-2540,-4362,-1740,3268,87,56,858
546765,4360508,4719628,4364221,4724669,1653,2786,1804,-5518,-2116,-4161,-1700,3007,76,72,861
547766,4360952,4719956,4364548,4724996,1303,2711,2016,-6008,-1672,-3852,-1595,2508,76,72,861
548767,4361336,4720244,4364875,4725323,1653,2979,2238,-6592,-1237,-3640,-1320,2128,91,70,860
549768,4361772,4720544,4365202,4725650,1281,2917,2437,-7223,-820,-3356,-1008,1975,91,70,860
550769,4362244,4720876,4365529,4725977,993,2716,2613,-7914,-414,-2962,-826,1821,77,70,859
551769,4362692,4721188,4365856,4726304,1090,2849,2748,-8559,-4,-2373,-494,2054,77,70,859
552770,4363128,4721516,4366183,4726631,1118,2749,2876,-9041,419,-1827,-276,2199,85,60,861
553772,4363564,4721836,4366510,4726958,1071,2803,3002,-9528,823,-1471,-111,2119,85,60,861
554773,4364036,4722148,4366837,4727285,782,2861,3159,-10054,1227,-985,-65,2053,97,63,860
555774,4364464,4722468,4367164,4727612,1014,2815,3323,-10603,1625,-607,53,1901,97,63,860
556774,4364876,4722772,4367491,4727939,1077,2926,3449,-10985,1903,-439,410,2648,100,70,862
557776,4365324,4723032,4367818,4728266,799,3232,3500,-11099,2037,-409,709,3196,100,70,862
558776,4365760,4723392,4368145,4728593,827,2593,3491,-11178,2119,34,771,3040,70,69,861
559778,4366120,4723720,4368472,4728920,1288,2794,3508,-11302,2320,731,493,2937,70,69,861
560778,4366536,4724052,4368799,4729247,899,2767,3482,-11213,2589,1154,687,3780,89,74,862
561780,4366904,4724404,4369126,4729574,1181,2632,3388,-10943,2810,1324,524,4086,89,74,862
562781,4367248,4724768,4369453,4729901,1324,2542,3204,-10501,2896,1370,1184,4547,63,64,862
563782,4367596,4725140,4369780,4730228,1290,2473,2998,-9922,2850,1504,1905,4638,63,64,862
564782,4367932,4725456,4370107,4730555,1362,2829,2790,-9450,2724,1782,2124,4225,64,62,861
565784,4368240,4725800,4370434,4730882,1546,2648,2627,-9118,2638,1922,1993,3891,64,62,861
566785,4368604,4726140,4370761,4731209,1180,2668,2494,-8944,2658,2252,1749,3234,67,61,861
567785,4368924,4726436,4371088,4731536,1458,2958,2363,-8828,2723,2616,1493,2944,67,61,861
568786,4369216,4726736,4371415,4731863,1649,2946,2209,-8717,2825,2923,1049,3056,57,59,861
569788,4369524,4727048,4371742,4732190,1558,2878,2033,-8564,2952,2883,967,2984,57,59,861
570789,4369860,4727352,4372069,4732517,1379,2939,1845,-8403,3056,2524,997,2950,73,68,859
571790,4370164,4727644,4372396,4732844,1590,3031,1668,-8173,3086,1903,1005,2973,73,68,859
572790,4370456,4727924,4372723,4733171,1681,3127,1510,-8010,3109,1432,819,2598,67,65,859
573792,4370780,4728196,4373050,4733498,1482,3202,1357,-7885,3123,1201,1069,2604,67,65,859
574792,4371092,4728464,4373377,4733825,1565,3254,1099,-7564,3205,1254,920,3622,74,63,857
575793,4371384,4728752,4373704,4734152,1705,3148,793,-7098,3440,1357,447,3538,74,63,857
576794,4371696,4729012,4374031,4734479,1588,3353,584,-6790,3634,1218,1189,2806,51,56,856
577796,4371984,4729232,4374358,4734806,1755,3651,469,-6674,3779,1142,1323,2426,51,56,856
578797,4372284,4729452,4374685,4735133,1693,3699,300,-6497,3949,1332,1086,3041,57,53,856
579810,4372584,4729656,4375012,4735460,1704,3800,-7,-6063,4126,1285,991,3777,57,53,856
580799,4372836,4729928,4375339,4735787,2038,3454,-397,-5369,4279,1131,839,4227,55,49,853
581800,4373124,4730168,4375666,4736114,1831,3693,-767,-4761,4346,1070,1063,3760,55,49,853
582801,4373424,4730400,4375993,4736441,1768,3786,-1076,-4419,4325,1116,1338,3241,66,38,853
583814,4373660,4730608,4376320,4736768,2208,3800,-1354,-4155,4295,1192,1205,3203,66,38,853
584815,4373900,4730808,4376647,4737095,2223,3800,-1639,-3881,4294,1057,903,3290,67,36,852
585816,4374156,4731008,4376974,4737422,2154,3800,-1935,-3557,4348,870,330,3508,67,36,852
586817,4374424,4731252,4377301,4737749,2106,3800,-2158,-3261,4399,606,57,3102,46,40,849
587818,4374692,4731456,4377628,4738076,2132,3800,-2266,-3260,4389,355,-204,2393,46,40,849
588819,4374980,4731700,4377955,4738403,2025,3800,-2254,-3371,4340,311,-632,2233,50,37,850
589820,4375260,4731916,4378282,4738730,2096,3800,-2217,-3523,4347,441,-1249,2439,50,37,850
590821,4375472,4732132,4378609,4739057,2572,3800,-2200,-3577,4406,446,-1634,2678,66,38,851
591822,4375712,4732404,4378936,4739384,2435,3800,-2171,-3596,4447,184,-1777,2624,66,38,851
592823,4375976,4732652,4379263,4739711,2314,3800,-2050,-3697,4387,-1,-1644,2496,65,42,850
593831,4376228,4732916,4379624,4740072,2438,3800,-1898,-3775,4266,110,-1656,2706,65,42,850
594825,4376436,4733172,4379951,4740399,2765,3800,-1721,-3837,4111,599,-1206,2741,54,49,850
595826,4376672,4733448,4380278,4740726,2631,3800,-1561,-3832,3948,909,-908,3278,54,49,850
596827,4376896,4733704,4380605,4741053,2752,3800,-1433,-3639,3777,540,-838,4044,59,51,846
597828,4377072,4733996,4380932,4741380,3119,3800,-1362,-3236,3575,89,-1001,4832,59,51,846
598816,4377280,4734332,4381259,4741707,2972,3743,-1312,-2782,3334,73,-951,5087,32,71,846
599830,4377508,4734648,4381586,4742034,2892,3800,-1257,-2413,3009,713,-21,4673,32,71,846
600831,4377712,4734936,4381913,4742361,3097,3800,-1181,-2168,2610,1588,865,4245,44,60,847
601820,4377948,4735288,4382240,4742688,2937,3658,-1124,-2089,2239,1719,938,4102,44,60,847
602821,4378204,4735700,4382567,4743015,2844,3248,-1144,-1932,1996,1227,-286,4972,44,77,847
603822,4378404,4736056,4382894,4743342,3251,3586,-1185,-1656,1854,991,-715,4819,44,77,847
604822,4378628,4736400,4383221,4743669,3147,3655,-1156,-1668,1720,1256,-484,3865,44,82,851
605824,4378912,4736820,4383548,4743996,2792,3141,-1098,-1874,1553,1610,-363,3660,44,82,851
606824,4379176,4737236,4383875,4744323,2945,3128,-1062,-2183,1375,1607,-187,3392,52,83,848
607825,4379452,4737624,4384202,4744650,2894,3277,-1060,-2378,1267,1209,-765,3815,52,83,848
608826,4379740,4738020,4384529,4744977,2837,3199,-1054,-2489,1268,626,-981,4195,48,71,851
609827,4380000,4738492,4384856,4745304,3041,2661,-1014,-2606,1266,272,-556,4096,48,71,851
610829,4380260,4738928,4385183,4745631,3072,2839,-972,-2730,1158,399,-50,3950,61,99,852
611830,4380580,4739324,4385510,4745958,2701,3061,-881,-3062,985,809,576,3209,61,99,852
612831,4380876,4739852,4385837,4746285,2866,2149,-797,-3280,909,818,173,3955,78,81,853
613832,4381160,4740396,4386164,4746612,2961,1954,-730,-3380,964,227,-52,4359,78,81,853
614833,4381488,4740892,4386491,4746939,2686,2181,-658,-3334,1060,-379,-190,4728,75,111,856
615833,4381820,4741496,4386818,4747266,2660,1386,-557,-3183,1109,-366,241,4715,75,111,856
616835,4382148,4741952,4387145,4747593,2685,2255,-428,-3112,1115,-86,394,4571,79,96,858
617836,4382508,4742552,4387472,4747920,2472,1236,-325,-2888,1170,-90,-125,5250,79,96,858
618837,4382824,4743072,4387799,4748247,2753,1653,-172,-2774,1290,-621,-103,4715,82,107,858
619838,4383188,4743624,4388126,4748574,2438,1355,34,-2661,1394,-659,158,4886,82,107,858
620838,4383540,4744200,4388453,4748901,2503,1096,257,-2483,1461,-150,629,4846,77,100,859
621840,4383916,4744728,4388780,4749228,2332,1309,494,-2288,1531,95,962,4960,77,100,859
622841,4384240,4745224,4389107,4749555,2659,1435,637,-1846,1547,-224,632,5864,60,114,862
623842,4384640,4745776,4389434,4749882,2153,987,758,-1352,1495,-415,606,5838,60,114,862
624842,4385044,4746296,4389761,4750209,2095,1103,880,-720,1414,9,584,6112,69,106,862
625844,4385412,4746872,4390088,4750536,2302,645,997,-55,1359,309,444,6041,69,106,862
626845,4385808,4747364,4390415,4750863,2098,1097,1113,393,1352,235,453,5487,91,104,865
627846,4386320,4747848,4390742,4751190,1293,1079,1303,647,1326,439,985,4663,91,104,865
628847,4386704,4748404,4391069,4751517,2069,530,1546,616,1253,745,1043,3786,74,109,865
629847,4387064,4748884,4391396,4751844,2205,937,1754,564,1163,1230,729,3804,74,109,865
630848,4387536,4749432,4391723,4752171,1442,416,1910,475,1144,1636,383,3411,94,105,866
631849,4387956,4749996,4392050,4752498,1727,212,2047,407,1202,1969,-181,3281,94,105,866
632850,4388384,4750448,4392377,4752825,1633,858,2179,363,1256,2067,-563,3072,93,97,868
633852,4388856,4751016,4392704,4753152,1296,27,2329,189,1230,2194,-485,2601,93,97,868
634852,4389260,4751564,4393031,4753479,1688,56,2414,194,1194,2378,-924,3476,98,104,867
635853,4389656,4751960,4393358,4753806,1707,976,2413,441,1176,2399,-1295,3924,98,104,867
636855,4390128,4752528,4393685,4754133,1170,-205,2386,843,1144,2518,-1424,3977,79,86,869
637855,4390600,4752964,4394012,4754460,1107,573,2402,1285,1065,2596,-1511,3778,79,86,869
638856,4390988,4753360,4394339,4754787,1605,793,2425,1640,945,2659,-1369,3732,88,74,869
639857,4391400,4753792,4394666,4755114,1419,521,2440,2054,801,2840,-1292,3838,88,74,869
640858,4391900,4754152,4394993,4755441,794,958,2438,2460,641,2864,-962,3622,77,63,867
641859,4392336,4754488,4395320,4755768,1146,1104,2429,2913,421,2718,-799,3602,77,63,867
642860,4392744,4754724,4395647,4756095,1286,1769,2361,3477,171,2455,-824,3803,85,66,868
643871,4393196,4754980,4396008,4756456,971,1690,2247,4123,-89,1971,-683,3698,85,66,868
644863,4393632,4755260,4396335,4756783,1024,1562,2139,4727,-371,1480,-461,3263,94,52,866
645864,4394004,4755532,4396662,4757110,1406,1636,2040,5224,-696,971,-34,2871,94,52,866
646864,4394428,4755768,4396989,4757437,1038,1901,1898,5646,-1057,504,192,2435,72,47,867
647865,4394800,4755984,4397316,4757764,1343,2076,1682,5941,-1410,151,157,2097,72,47,867
648866,4395184,4756248,4397643,4758091,1244,1803,1467,6115,-1789,-114,427,1744,72,47,865
649868,4395664,4756488,4397970,4758418,577,1992,1238,6231,-2269,-356,976,1344,72,47,865
650868,4396056,4756716,4398297,4758745,1099,2111,1001,6202,-2850,-608,1408,783,69,36,863
651870,4396416,4756936,4398624,4759072,1285,2208,741,5876,-3513,-1104,2148,17,69,36,863
652870,4396768,4757152,4398951,4759399,1325,2282,455,5329,-4221,-1450,2346,-610,67,48,864
653871,4397148,4757332,4399278,4759726,1127,2573,110,4724,-4831,-1445,1589,-574,67,48,864
654872,4397480,4757556,4399605,4760053,1425,2343,-254,4167,-5201,-1227,384,-438,59,49,862
655873,4397816,4757804,4399932,4760380,1396,2229,-612,3547,-5292,-976,-480,-555,59,49,862
656874,4398176,4758068,4400259,4760707,1232,2156,-958,2903,-5202,-921,-679,-772,69,41,862
657875,4398500,4758328,4400586,4761034,1459,2212,-1276,2004,-5065,-1040,-99,-1595,69,41,862
658876,4398792,4758584,4400913,4761361,1675,2268,-1515,694,-4944,-997,617,-2687,54,61,862
659878,4399112,4758824,4401240,4761688,1504,2407,-1704,-1053,-4820,-643,909,-3529,54,61,862
660878,4399416,4759128,4401567,4762015,1614,2017,-1888,-2869,-4613,-238,893,-3818,73,56,862
661880,4399740,4759420,4401894,4762342,1490,2109,-2086,-4625,-4258,-153,800,-3587,73,56,862
662880,4400088,4759688,4402221,4762669,1332,2285,-2322,-6193,-3724,-90,550,-2769,53,53,861
663881,4400384,4759996,4402548,4762996,1670,2044,-2633,-7414,-3057,191,239,-1561,53,53,861
664882,4400640,4760248,4402875,4763323,1953,2428,-3031,-8185,-2348,224,179,-673,44,55,862
665884,4400908,4760516,4403202,4763650,1904,2354,-3440,-8791,-1642,-107,298,-262,44,55,862
666884,4401156,4760828,4403529,4763977,2063,2086,-3875,-9366,-973,-166,228,333,58,50,862
667886,4401400,4761132,4403856,4764304,2126,2146,-4375,-9681,-356,189,327,1281,58,50,862
668886,4401628,4761452,4404183,4764631,2269,2051,-4918,-9752,268,425,-214,1807,60,68,860
669888,4401860,4761832,4404510,4764958,2287,1653,-5533,-9519,1007,491,-1747,3012,60,68,860
670888,4402088,4762164,4404837,4765285,2356,1951,-6183,-9067,1858,295,-2582,4089,59,60,860
671889,4402316,4762480,4405164,4765612,2400,2057,-6735,-8465,2640,510,-2012,4474,59,60,860
672890,4402564,4762780,4405491,4765939,2310,2169,-7203,-7901,3285,1187,-1868,4500,59,63,861
673891,4402840,4763064,4405818,4766266,2158,2289,-7581,-7546,3819,1647,-1693,4064,59,63,861
674892,4403072,4763380,4406145,4766593,2476,2094,-7901,-7353,4224,2044,-1540,4092,42,63,858
675893,4403336,4763684,4406472,4766920,2304,2180,-8126,-7301,4487,2603,-1758,3674,42,63,858
676895,4403632,4763944,4406799,4767247,2118,2485,-8325,-7302,4643,3154,-2319,4125,52,51,859
677896,4403856,4764204,4407126,4767574,2614,2514,-8461,-7314,4721,3486,-2646,3786,52,51,859
678897,4404164,4764496,4407453,4767901,2098,2331,-8531,-7483,4732,3708,-2638,3733,68,67,859
679897,4404452,4764832,4407780,4768228,2241,2053,-8547,-7625,4720,3867,-2740,4063,68,67,859
680899,4404732,4765192,4408107,4768555,2312,1888,-8512,-7698,4692,4143,-2737,4165,61,58,856
681900,4405040,4765480,4408434,4768882,2146,2357,-8401,-7691,4662,4560,-3149,4516,61,58,856
682901,4405340,4765808,4408761,4769209,2209,2107,-8211,-7630,4630,4761,-3481,5137,52,58,860
683902,4405676,4766128,4409088,4769536,1980,2160,-7182,-6603,4521,6369,-3309,11024,52,58,860
684903,4406016,4766460,4409415,4769863,1950,2084,-1323,5022,3317,22151,-849,32767,57,65,859
685904,4406304,4766756,4409742,4770190,2292,2324,5170,15678,2016,13413,-2471,32767,57,65,859
686904,4406568,4767020,4410069,4770517,2471,2551,6921,16239,1457,5336,-655,-794,50,68,860
687905,4406824,4767332,4410396,4770844,2553,2259,6185,12106,1310,5318,39,-2552,50,68,860
688906,4407072,4767656,4410723,4771171,2638,2186,5263,7468,1197,5308,-766,-4506,73,67,858
689908,4407380,4767948,4411050,4771498,2272,2402,5139,4752,1077,4592,-1189,-3403,73,67,858
690909,4407684,4768248,4411377,4771825,2308,2364,5129,2745,1096,3880,-1599,-2409,59,63,857
691909,4408000,4768608,4411704,4772152,2239,1976,4890,1345,1149,3473,-2149,-831,59,63,857
692911,4408292,4768948,4412031,4772479,2405,2095,4458,-5,1127,1912,-1360,-769,59,72,859
693919,4408588,4769316,4412392,4772840,2409,1918,4106,-1687,844,200,263,-1655,59,72,859
694913,4408892,4769684,4412719,4773167,2370,1901,3810,-3378,304,-822,745,-1298,55,65,860
695913,4409164,4769932,4413046,4773494,2594,2686,3604,-4762,-214,-2029,1075,-182,55,65,860
696914,4409396,4770144,4413373,4773821,2887,2962,3375,-5534,-571,-2829,947,1269,56,41,859
697916,4409696,4770380,4413700,4774148,2475,2853,3090,-5707,-784,-3566,585,2854,56,41,859
698916,4409960,4770608,4414027,4774475,2729,2947,2744,-5299,-852,-4702,701,4671,50,40,855
699917,4410220,4770868,4414354,4774802,2783,2777,2341,-4362,-901,-5243,952,6260,50,40,855
700919,4410496,4771168,4414681,4775129,2707,2540,1960,-3267,-993,-5722,1611,6057,68,63,854
701920,4410776,4771428,4415008,4775456,2703,2821,1671,-2429,-1066,-6470,2476,5490,68,63,854
702920,4411000,4771780,4415335,4775783,3100,2235,1455,-1781,-1070,-6728,2607,5330,65,72,854
703921,4411276,4772128,4415662,4776110,2798,2251,1227,-1102,-972,-6975,2758,5411,65,72,854
704922,4411556,4772448,4415989,4776437,2795,2430,998,-293,-761,-7279,2640,5603,61,70,855
705924,4411832,4772812,4416316,4776764,2842,2140,697,410,-430,-7058,1772,5441,61,70,855
706925,4412100,4773188,4416643,4777091,2919,2044,355,1191,79,-6542,1025,5977,59,72,857
707925,4412388,4773544,4416970,4777418,2812,2157,-8,2044,704,-5988,583,5835,59,72,857
708927,4412652,4773936,4417297,4777745,2991,1904,-367,2515,1255,-5439,86,4621,47,87,856
709928,4412900,4774380,4417624,4778072,3126,1529,-699,2627,1683,-4817,-385,3877,47,87,856
710929,4413192,4774792,4417951,4778399,2868,1692,-992,2500,2025,-3850,-1096,3533,69,85,858
711930,4413444,4775192,4418278,4778726,3152,1736,-1337,2313,2294,-2830,-1734,3197,69,85,858
712931,4413708,4775684,4418605,4779053,3106,1089,-1715,1840,2503,-2023,-1675,2265,51,101,859
713932,4414020,4776216,4418932,4779380,2812,749,-2081,1107,2649,-827,-1678,1641,51,101,859
714933,4414304,4776652,4419259,4779707,3007,1302,-2392,164,2741,246,-1457,1123,63,89,858
715934,4414580,4777148,4419586,4780034,3080,853,-2674,-917,2750,828,-1053,855,63,89,858
716935,4414856,4777632,4419913,4780361,3104,860,-2910,-2142,2668,1490,-953,709,49,93,862
717936,4415148,4778012,4420240,4780688,3020,1487,-3097,-3317,2539,2087,-807,1106,49,93,862
718936,4415436,4778420,4420567,4781015,3063,1277,-3269,-4271,2379,2784,-469,1907,69,98,860
719937,4415776,4778892,4420894,4781342,2734,814,-3439,-4962,2164,3379,-545,2692,69,98,860
720938,4416092,4779232,4421221,4781669,2889,1633,-3590,-5443,1886,3670,-631,3583,78,81,858
721939,4416416,4779540,4421548,4781996,2842,1842,-3702,-5618,1542,3739,-742,4579,78,81,858
722940,4416724,4779816,4421875,4782323,2951,2065,-3777,-5528,1111,3728,-627,5195,57,60,862
723941,4417108,4780088,4422202,4782650,2452,2114,-3820,-5413,560,3593,-92,5487,57,60,862
724942,4417452,4780340,4422529,4782977,2696,2273,-3853,-5175,-101,3227,209,6021,82,47,858
725944,4417784,4780556,4422856,4783304,2769,2547,-3845,-4747,-805,2712,-94,6542,82,47,858
726944,4418152,4780740,4423183,4783631,2527,2811,-3430,-3731,-1458,2149,-1092,10746,68,46,859
727945,4418504,4780952,4423510,4783958,2617,2686,-1719,208,-1871,1500,-3842,32767,68,46,859
728946,4418856,4781160,4423837,4784285,2607,2765,-54,3251,-2343,1385,-2221,14924,81,56,855
729948,4419228,4781400,4424164,4784612,2464,2604,370,3736,-2925,1461,-2178,5409,81,56,855
730948,4419616,4781632,4424491,4784939,2338,2696,215,2770,-3450,1427,-2522,3811,82,53,854
731949,4419984,4781828,4424818,4785266,2446,2979,68,1656,-3870,1435,-1955,3240,82,53,854
732950,4420400,4782036,4425145,4785593,2108,2958,82,906,-4152,926,-1257,3094,82,41,857
733952,4420808,4782276,4425472,4785920,2123,2796,140,64,-4332,605,-1315,2404,82,41,857
734952,4421196,4782492,4425799,4786247,2221,2996,188,-792,-4505,241,-1110,2107,78,42,854
735953,4421600,4782756,4426126,4786574,2088,2724,257,-2017,-4623,-518,-1359,1324,78,42,854
736954,4421980,4782972,4426453,4786901,2216,3073,398,-3349,-4729,-902,-1453,982,75,61,857
737956,4422412,4783180,4426780,4787228,1846,3176,526,-4734,-4779,-1243,-1258,525,75,61,857
738956,4422844,4783436,4427107,4787555,1801,2909,642,-6070,-4694,-1672,-1707,990,86,48,858
739957,4423268,4783712,4427434,4787882,1809,2807,691,-7065,-4482,-1862,-2984,1907,86,48,858
740958,4423684,4783984,4427761,4788209,1821,2856,753,-7849,-4164,-2338,-3163,2321,98,71,856
741960,4424104,4784280,4428088,4788536,1755,2721,846,-8317,-3803,-2768,-3026,3331,98,71,856
742961,4424584,4784568,4428415,4788863,1314,2789,976,-8682,-3431,-3118,-2804,3518,75,58,857
743968,4425000,4784832,4428776,4789224,1691,2983,1149,-9028,-3054,-3494,-2197,3628,75,58,857
744962,4425408,4785112,4429103,4789551,1705,2904,1343,-9244,-2666,-3544,-1712,3951,76,60,859
745964,4425832,4785376,4429430,4789878,1564,3033,1523,-9420,-2256,-3485,-1508,4148,76,60,859
746964,4426264,4785656,4429757,4790205,1469,2954,1669,-9445,-1812,-3428,-1291,4698,83,65,858
747966,4426672,4785948,4430084,4790532,1584,2895,1782,-9287,-1354,-3304,-1117,5018,83,65,858
748966,4427160,4786252,4430411,4790859,1013,2831,1856,-9029,-894,-3231,-901,5348,74,56,858
749968,4427564,4786560,4430738,4791186,1505,2815,1923,-8611,-411,-3045,-848,5668,74,56,858
750969,4427988,4786844,4431065,4791513,1338,2985,2033,-8276,70,-2767,-730,5375,97,63,859
751970,4428504,4787148,4431392,4791840,681,2871,2173,-7999,523,-2501,-658,5165,97,63,859
752970,4428964,4787488,4431719,4792167,973,2642,2331,-7771,913,-2342,-131,4790,78,66,858
753972,4429432,4787800,4432046,4792494,861,2824,2443,-7660,1183,-1881,710,4530,78,66,858
754973,4429876,4788112,4432373,4792821,961,2831,2546,-7699,1360,-1376,1061,3919,95,76,862
755974,4430252,4788376,4432700,4793148,1364,3160,2677,-7868,1516,-920,1415,3506,95,76,862
756974,4430688,4788676,4433027,4793475,942,2947,2817,-8108,1636,-452,1649,3178,99,63,861
757976,4431084,4788996,4433354,4793802,1162,2827,2940,-8373,1729,-20,1668,3015,99,63,861
758977,4431528,4789356,4433681,4794129,811,2563,3048,-8786,1826,518,1363,2559,73,73,859
759978,4431920,4789680,4434008,4794456,1108,2790,3153,-9216,1910,1109,1106,2300,73,73,859
760978,4432316,4790024,4434335,4794783,1053,2659,3246,-9606,1959,1399,1482,2088,79,76,861
761980,4432736,4790360,4434662,4795110,863,2706,3292,-10070,1972,1698,1488,2136,79,76,861
762980,4433072,4790668,4434989,4795437,1384,2890,3313,-10388,1971,1964,1519,2544,68,73,861
763981,4433416,4791004,4435316,4795764,1326,2712,3314,-10586,1986,2004,2068,2625,68,73,861
764982,4433748,4791328,4435643,4796091,1400,2790,3288,-10691,1999,2190,2268,2828,75,59,860
765983,4434088,4791648,4435970,4796418,1345,2818,3220,-10644,2029,2150,1941,3175,75,59,860
766984,4434424,4791940,4436297,4796745,1366,3009,3136,-10456,2076,1953,1585,3343,57,74,861
767985,4434752,4792236,4436624,4797072,1416,2999,3020,-10283,2118,2034,1160,3268,57,74,861
768986,4435048,4792512,4436951,4797399,1630,3147,2884,-10012,2196,1880,892,3471,67,53,860
769987,4435352,4792844,4437278,4797726,1590,2796,2695,-9636,2334,1588,620,3853,67,53,860
770988,4435696,4793148,4437605,4798053,1333,2982,2464,-9058,2494,1370,417,4149,72,55,858
771989,4436008,4793424,4437932,4798380,1540,3180,2186,-8279,2699,967,203,4822,72,55,858
772990,4436296,4793668,4438259,4798707,1708,3418,1881,-7396,2957,654,127,4854,75,61,859
773991,4436600,4793928,4438586,4799034,1618,3348,1607,-6619,3227,508,321,4437,75,61,859
774992,4436924,4794200,4438913,4799361,1495,3299,1340,-5932,3548,405,224,4437,53,43,856
775993,4437200,4794448,4439240,4799688,1818,3484,1033,-5219,3934,427,0,4542,53,43,856
776994,4437480,4794656,4439567,4800015,1814,3788,710,-4581,4309,481,141,4046,52,37,855
777996,4437808,4794872,4439894,4800342,1513,3787,421,-4227,4608,588,655,3219,52,37,855
779009,4438096,4795064,4440221,4800669,1781,3800,198,-4151,4832,929,986,2264,58,35,852
780010,4438344,4795260,4440548,4800996,2066,3800,7,-4210,4997,1069,1194,2027,58,35,852
780998,4438644,4795524,4440875,4801323,1754,3635,-194,-4237,5122,895,1060,2348,69,53,852
782012,4438908,4795716,4441202,4801650,2007,3800,-407,-4196,5181,703,737,2429,69,53,852
783013,4439160,4795932,4441529,4801977,2116,3800,-609,-4146,5196,694,377,2466,62,38,850
784014,4439428,4796124,4441856,4802304,2041,3800,-770,-4081,5191,787,273,2400,62,38,850
785015,4439664,4796308,4442183,4802631,2281,3800,-921,-4028,5178,871,-82,2598,60,47,849
786016,4439928,4796492,4442510,4802958,2135,3800,-1075,-3862,5168,602,-703,2998,60,47,849
787017,4440216,4796704,4442837,4803285,2002,3800,-1170,-3712,5122,271,-896,2793,64,43,847
788018,4440500,4796924,4443164,4803612,2047,3800,-1216,-3701,5027,294,-1083,2452,64,43,847
789019,4440760,4797148,4443491,4803939,2227,3800,-1229,-3669,4900,425,-1083,2741,56,46,850
790020,4441004,4797368,4443818,4804266,2364,3800,-1276,-3506,4695,434,-668,3229,56,46,850
791021,4441244,4797588,4444145,4804593,2427,3800,-1330,-3255,4466,423,-1073,3334,44,56,850
792022,4441468,4797828,4444472,4804920,2574,3800,-1347,-3115,4243,478,-658,3191,44,56,850
793023,4441712,4798072,4444799,4805247,2486,3800,-1351,-2999,3982,795,-30,3374,58,52,849
794031,4441968,4798304,4445160,4805608,2457,3800,-1379,-2880,3697,1309,360,3379,58,52,849
795025,4442180,4798540,4445487,4805935,2784,3800,-1400,-2796,3410,1677,673,3407,44,48,848
796026,4442380,4798756,4445814,4806262,2915,3800,-1416,-2700,3130,1685,732,3627,44,48,848
797027,4442588,4799004,4446141,4806589,2918,3800,-1426,-2592,2901,1367,307,3851,40,53,847
798028,4442784,4799236,4446468,4806916,3051,3800,-1461,-2468,2698,1161,3,4148,40,53,847
799029,4442972,4799436,4446795,4807243,3163,3800,-1496,-2343,2456,1490,255,3824,45,46,847
800030,4443200,4799724,4447122,4807570,2957,3800,-1520,-2459,2173,2190,404,3238,45,46,847
801031,4443444,4800032,4447449,4807897,2895,3800,-1544,-2589,1868,2334,320,3450,59,54,847
802032,4443660,4800300,4447776,4808224,3119,3800,-1607,-2596,1626,1630,-315,4132,59,54,847
803033,4443868,4800612,4448103,4808551,3222,3800,-1661,-2474,1457,1025,-479,4265,50,68,847
804034,4444084,4800960,4448430,4808878,3221,3800,-1683,-2451,1283,696,-488,4104,50,68,847
805035,4444312,4801304,4448757,4809205,3191,3800,-1700,-2501,1055,883,-233,3943,56,75,846
806036,4444564,4801636,4449084,4809532,3075,3800,-1679,-2714,818,1227,217,3378,56,75,846
807038,4444804,4801992,4449411,4809859,3189,3800,-1640,-2964,663,1058,43,3653,48,68,846
808025,4445056,4802416,4449738,4810186,3148,3538,-1595,-3064,605,383,-330,4267,48,68,846
809026,4445296,4802872,4450065,4810513,3262,3282,-1525,-3060,589,-190,-510,4287,47,75,847
810028,4445568,4803284,4450392,4810840,3087,3522,-1431,-3083,547,-472,-347,4228,47,75,847
811028,4445828,4803712,4450719,4811167,3192,3379,-1305,-3150,465,-376,23,4189,48,86,847
812030,4446124,4804204,4451046,4811494,2981,2908,-1158,-3307,379,-95,208,4020,48,86,847
813030,4446432,4804656,4451373,4811821,2916,3104,-1031,-3228,377,-357,-546,4693,62,91,850
814031,4446756,4805232,4451700,4812148,2818,2221,-889,-3133,509,-920,-802,4688,62,91,850
815032,4447088,4805772,4452027,4812475,2767,2354,-735,-3029,716,-1146,-750,5111,67,111,854
816034,4447448,4806284,4452354,4812802,2578,2449,-631,-2702,913,-1216,-824,5501,67,111,854
817034,4447804,4806900,4452681,4813129,2592,1673,-475,-2615,1030,-918,48,4363,72,111,857
818036,4448144,4807428,4453008,4813456,2687,2136,-250,-2715,1112,-547,403,3969,72,111,857
819036,4448520,4808076,4453335,4813783,2441,1246,-8,-2879,1251,-651,311,4181,63,116,857
820037,4448884,4808676,4453662,4814110,2501,1427,200,-2904,1442,-736,218,4694,63,116,857
821038,4449260,4809248,4453989,4814437,2406,1496,421,-2812,1659,-502,242,4596,79,116,858
822039,4449612,4809840,4454316,4814764,2546,1255,644,-2654,1831,-388,427,4845,79,116,858
823040,4450000,4810396,4454643,4815091,2295,1381,795,-2326,1888,-693,237,5537,75,125,862
824042,4450372,4811008,4454970,4815418,2375,906,919,-1975,1922,-418,-81,5476,75,125,862
825042,4450796,4811652,4455297,4815745,2008,567,1027,-1480,1998,297,97,5951,89,109,862
826044,4451132,4812184,4455624,4816072,2556,1178,1105,-927,2062,449,519,5744,89,109,862
827044,4451552,4812764,4455951,4816399,1991,768,1211,-569,2007,140,989,5188,76,110,864
828046,4451944,4813212,4456278,4816726,2138,1541,1345,-299,1844,372,1281,4922,76,110,864
829046,4452376,4813852,4456605,4817053,1843,203,1480,-100,1727,1189,1047,4641,78,116,862
830048,4452820,4814376,4456932,4817380,1717,843,1584,155,1702,1883,765,4611,78,116,862
831048,4453248,4814980,4457259,4817707,1773,221,1680,232,1723,2124,534,3973,102,106,863
832049,4453684,4815548,4457586,4818034,1676,341,1798,217,1736,2260,-18,3740,102,106,863
833050,4454136,4816064,4457913,4818361,1522,583,1909,269,1697,2413,-253,3613,87,102,867
834052,4454592,4816640,4458240,4818688,1441,100,2014,284,1618,2594,-482,3408,87,102,867
835052,4455032,4817128,4458567,4819015,1492,579,2075,436,1489,2829,-643,3906,95,100,869
836053,4455460,4817644,4458894,4819342,1524,322,2099,716,1365,2998,-878,3992,95,100,869
837054,4455924,4818124,4459221,4819669,1238,479,2116,1104,1236,3186,-1147,4158,100,95,870
838055,4456392,4818624,4459548,4819996,1152,278,2141,1465,1073,3182,-1472,3853,100,95,870
839056,4456876,4819040,4459875,4820323,984,765,2194,1764,890,3181,-1728,3600,84,94,869
840058,4457256,4819420,4460202,4820650,1611,967,2244,2013,719,3260,-2119,3515,84,94,869
841058,4457752,4819828,4460529,4820977,813,756,2303,2384,565,3200,-2281,3346,76,63,869
842060,4458264,4820164,4460856,4821304,632,1202,2347,2775,374,3020,-2004,3174,76,63,869
843060,4458684,4820440,4461183,4821631,1167,1600,2357,3171,116,2825,-1612,3238,81,74,867
844071,4459112,4820772,4461544,4821992,1087,1264,2335,3621,-170,2475,-1206,3126,81,74,867
845062,4459512,4821044,4461871,4822319,1231,1663,2297,4195,-458,1960,-1158,3116,73,54,869
846064,4459928,4821332,4462198,4822646,1092,1580,2260,4757,-766,1242,-896,3032,73,54,869
847064,4460320,4821584,4462525,4822973,1214,1838,2167,5380,-1082,719,-773,3069,88,61,867
848066,4460712,4821848,4462852,4823300,1186,1792,1995,6038,-1415,490,-602,2841,88,61,867
849066,4461128,4822112,4463179,4823627,998,1819,1770,6510,-1792,262,-98,2244,76,44,866
850068,4461524,4822360,4463506,4823954,1092,1954,1542,6804,-2246,76,516,1724,76,44,866
851069,4461948,4822596,4463833,4824281,875,2070,1300,6762,-2793,-174,1072,737,74,50,864
852069,4462344,4822812,4464160,4824608,1021,2244,1072,6417,-3390,-439,1367,-321,74,50,864
853070,4462684,4823072,4464487,4824935,1365,1998,832,5834,-3943,-425,1274,-920,82,45,864
854071,4463064,4823328,4464814,4825262,1092,2055,599,5155,-4372,-248,1404,-1208,82,45,864
855072,4463392,4823576,4465141,4825589,1417,2140,304,4414,-4657,-99,1326,-1178,77,44,864
856073,4463752,4823816,4465468,4825916,1203,2228,-32,3708,-4766,49,617,-1174,77,44,864
857074,4464128,4824036,4465795,4826243,1081,2401,-340,2912,-4734,173,523,-1443,72,39,864
858076,4464448,4824252,4466122,4826570,1435,2475,-608,1927,-4658,97,845,-2120,72,39,864
859076,4464732,4824504,4466449,4826897,1679,2284,-832,678,-4597,-21,1391,-2795,49,57,862
860077,4465048,4824724,4466776,4827224,1484,2531,-1030,-732,-4546,-16,1808,-3341,49,57,862
861078,4465368,4824972,4467103,4827551,1463,2391,-1253,-2227,-4447,-39,2007,-3480,61,52,860
862079,4465664,4825196,4467430,4827878,1627,2587,-1515,-3652,-4237,-167,2121,-3078,61,52,860
863080,4465968,4825456,4467757,4828205,1587,2392,-1821,-4904,-3897,-170,1983,-2323,57,58,859
864081,4466224,4825712,4468084,4828532,1919,2449,-2204,-5820,-3456,55,1605,-1550,57,58,859
865082,4466476,4825964,4468411,4828859,1977,2508,-2628,-6434,-2916,232,1268,-826,56,47,860
866083,4466688,4826244,4468738,4829186,2277,2353,-3063,-6860,-2277,188,915,-265,56,47,860
867084,4466948,4826520,4469065,4829513,2008,2402,-3525,-7312,-1579,151,621,-12,35,54,859
868085,4467160,4826848,4469392,4829840,2358,2076,-4008,-7700,-888,297,576,364,35,54,859
869086,4467372,4827148,4469719,4830167,2410,2264,-4530,-7990,-241,565,188,730,55,61,858
870087,4467608,4827472,4470046,4830494,2300,2116,-5059,-8199,371,624,-217,855,55,61,858
871088,4467820,4827792,4470373,4830821,2500,2145,-5530,-8454,989,513,-674,901,35,53,859
872089,4468088,4828068,4470700,4831148,2177,2443,-6009,-8606,1623,778,-1432,1722,35,53,859
873091,4468328,4828328,4471027,4831475,2391,2572,-6782,-8143,2416,1182,-3751,3905,42,54,857
874092,4468572,4828588,4471354,4831802,2403,2603,-7631,-7674,3251,1516,-4047,3263,42,54,857
875092,4468808,4828896,4471681,4832129,2493,2311,-8152,-7732,3847,1948,-3198,1899,36,68,857
876093,4469072,4829188,4472008,4832456,2347,2428,-8450,-8093,4223,2400,-3434,2291,36,68,857
877094,4469328,4829476,4472335,4832783,2429,2471,-8698,-8320,4520,2846,-4244,2878,64,59,856
878095,4469588,4829712,4472662,4833110,2433,2836,-8913,-8498,4761,3211,-4784,2712,64,59,856
879096,4469908,4829996,4472989,4833437,2062,2556,-9080,-8609,4930,3400,-4975,3221,49,54,858
880097,4470212,4830316,4473316,4833764,2173,2334,-9155,-8657,5031,3594,-4849,3970,49,54,858
881098,4470468,4830644,4473643,4834091,2505,2284,-9120,-8535,5081,3741,-4920,4384,67,50,854
882100,4470748,4830908,4473970,4834418,2376,2713,-8964,-8469,5125,3882,-4960,4179,67,50,854
883101,4471076,4831192,4474297,4834745,2076,2607,-8729,-8373,5096,4075,-4269,4784,52,62,859
884101,4471424,4831480,4474624,4835072,1943,2600,-8443,-8106,4971,4237,-3791,5706,52,62,859
885103,4471724,4831772,4474951,4835399,2255,2591,-6233,-5357,4740,7633,-3275,19708,69,57,856
886103,4472040,4832112,4475278,4835726,2160,2286,1392,9976,3496,21295,735,32767,69,57,856
887104,4472280,4832372,4475605,4836053,2675,2816,7617,19926,2460,9357,-1239,19619,67,60,858
888105,4472480,4832668,4475932,4836380,2980,2606,8690,19318,2006,5571,-90,-1188,67,60,858
889106,4472808,4832988,4476259,4836707,2181,2460,7360,14095,1753,5547,659,-4502,50,71,859
890108,4473112,4833316,4476586,4837034,2342,2409,6610,9301,1391,5218,-31,-5924,50,71,859
891109,4473376,4833640,4476913,4837361,2620,2437,6402,6317,1145,4291,-583,-3821,77,67,854
892109,4473704,4833988,4477240,4837688,2220,2278,6337,4309,1097,3983,-1138,-3073,77,67,854
893110,4473984,4834344,4477567,4838015,2542,2216,5865,2578,1025,3630,-472,-1807,52,69,858
894118,4474256,4834704,4477928,4838376,2631,2192,5355,612,800,1643,855,-3008,52,69,858
895112,4474552,4835128,4478255,4838703,2496,1751,5048,-1836,321,164,1609,-3427,60,63,858
896113,4474788,4835384,4478582,4839030,2912,2833,4646,-3698,-166,-523,1302,-1053,60,63,858
897114,4475052,4835604,4478909,4839357,2764,3105,4222,-4997,-460,-1946,1930,-281,51,64,856
898115,4475312,4835804,4479236,4839684,2820,3287,3709,-5839,-742,-2940,2308,1008,51,64,856
899116,4475576,4836008,4479563,4840011,2824,3317,3125,-6060,-1062,-4109,1949,2878,61,50,852
900117,4475836,4836240,4479890,4840338,2879,3183,2432,-5778,-1270,-5073,2273,4558,61,50,852
901118,4476072,4836496,4480217,4840665,3069,3066,1366,-4458,-1396,-5056,3025,7830,68,52,850
902119,4476336,4836788,4480544,4840992,2923,2857,-177,-2373,-1521,-5754,4289,9941,68,52,850
903120,4476592,4837120,4480871,4841319,3005,2606,-1605,-324,-1677,-7191,4226,8944,49,74,851
904121,4476844,4837460,4481198,4841646,3064,2551,-2380,637,-1807,-7988,3037,5182,49,74,851
905122,4477120,4837824,4481525,4841973,2937,2385,-2559,538,-1699,-8295,562,3230,53,77,853
906124,4477384,4838240,4481852,4842300,3040,2022,-2626,275,-1282,-8127,-2072,3796,53,77,853
907124,4477660,4838700,4482179,4842627,2988,1689,-2705,132,-682,-7732,-3219,3488,67,85,853
908125,4477940,4839156,4482506,4842954,2985,1659,-2784,222,90,-7275,-3733,3948,67,85,853
909126,4478200,4839696,4482833,4843281,3140,1040,-2802,245,938,-6672,-3809,3396,62,111,856
910127,4478460,4840200,4483160,4843608,3171,1188,-2731,-141,1750,-5874,-3774,2485,62,111,856
911128,4478740,4840660,4483487,4843935,3068,1406,-2575,-810,2537,-5166,-3568,2015,62,92,858
912129,4479032,4841204,4483814,4844262,3009,785,-2378,-1576,3230,-4128,-3216,1882,62,92,858
913130,4479324,4841676,4484141,4844589,3025,1173,-2216,-2257,3772,-2955,-2294,2286,67,110,859
914131,4479660,4842132,4484468,4844916,2747,1217,-2142,-2884,4116,-2073,-1297,2780,67,110,859
915132,4479956,4842596,4484795,4845243,3011,1107,-2120,-3359,4280,-1080,-1031,3058,64,98,861
916133,4480252,4843012,4485122,4845570,3026,1369,-2095,-3867,4294,-287,-630,3140,64,98,861
917134,4480528,4843380,4485449,4845897,3174,1651,-2100,-4318,4169,293,-207,3589,67,80,860
918135,4480880,4843716,4485776,4846224,2689,1848,-2161,-4642,3876,744,482,3937,67,80,860
919136,4481184,4844052,4486103,4846551,3000,1844,-2273,-4846,3390,1116,2157,4507,59,71,858
920137,4481512,4844404,4486430,4846878,2851,1733,-2486,-4827,2788,1722,2284,5460,59,71,858
921138,4481868,4844688,4486757,4847205,2664,2178,-2816,-4508,2171,2456,1311,6493,78,64,859
922140,4482188,4844968,4487084,4847532,2893,2223,-3141,-3988,1617,2855,892,6909,78,64,859
923140,4482528,4845288,4487411,4847859,2763,1977,-3381,-3446,1101,3136,929,7105,60,54,858
924141,4482908,4845608,4487738,4848186,2491,1980,-2595,-1489,503,5603,1080,20924,60,54,858
925142,4483256,4845908,4488065,4848513,2683,2118,-738,2254,-307,7256,1657,31238,64,54,857
926143,4483608,4846168,4488392,4848840,2648,2398,308,3541,-1024,3576,1175,5517,64,54,857
927144,4484000,4846428,4488719,4849167,2370,2428,346,2587,-1546,3180,-334,3174,77,68,859
928145,4484380,4846664,4489046,4849494,2422,2618,240,1073,-1936,3381,-1207,2433,77,68,859
929146,4484748,4846940,4489373,4849821,2480,2392,235,-81,-2223,3475,-2239,2429,82,58,855
930147,4485160,4847180,4489700,4850148,2169,2655,297,-898,-2391,3294,-2975,2545,82,58,855
931148,4485560,4847424,4490027,4850475,2213,2667,288,-1767,-2531,3036,-2885,2348,73,57,856
932149,4485956,4847656,4490354,4850802,2208,2785,237,-2641,-2717,2422,-1824,2280,73,57,856
933150,4486364,4847900,4490681,4851129,2099,2746,186,-3603,-2969,1460,-973,2189,89,43,857
934151,4486800,4848120,4491008,4851456,1877,2945,99,-4461,-3281,736,-811,2498,89,43,857
935152,4487192,4848336,4491335,4851783,2123,3018,64,-5172,-3584,-56,-1028,2809,70,46,856
936153,4487604,4848596,4491662,4852110,1962,2774,96,-5669,-3784,-736,-2033,3418,70,46,856
937154,4488032,4848796,4491989,4852437,1818,3206,153,-5850,-3864,-1382,-3331,4279,94,60,857
938156,4488444,4849052,4492316,4852764,1882,2887,208,-5868,-3848,-2082,-3822,4775,94,60,857
939157,4488852,4849292,4492643,4853091,1871,3026,291,-5744,-3777,-2653,-4046,5023,83,48,857
940158,4489340,4849568,4492970,4853418,1302,2824,401,-5635,-3678,-3150,-3792,5001,83,48,857
941159,4489756,4849844,4493297,4853745,1714,2848,555,-5567,-3566,-3650,-2948,4863,88,53,857
942159,4490188,4850144,4493624,4854072,1568,2710,717,-5501,-3456,-4011,-1906,4890,88,53,857
943160,4490624,4850448,4493951,4854399,1496,2696,881,-5429,-3300,-4061,-1563,4749,85,61,860
944168,4491028,4850724,4494312,4854760,1678,2909,1058,-5414,-3050,-4029,-1465,4585,85,61,860
945162,4491440,4851004,4494639,4855087,1590,2906,1258,-5455,-2710,-3954,-1458,4340,94,64,859
946164,4491928,4851288,4494966,4855414,1046,2900,1479,-5549,-2317,-3800,-1338,4013,94,64,859
947165,4492328,4851600,4495293,4855741,1564,2732,1710,-5749,-1888,-3558,-1227,3722,78,61,858
948166,4492752,4851908,4495620,4856068,1372,2767,1963,-6127,-1449,-3345,-1132,3098,78,61,858
949167,4493204,4852200,4495947,4856395,1143,2883,2217,-6592,-1016,-3082,-976,2673,72,71,860
950167,4493640,4852484,4496274,4856722,1195,2953,2472,-7159,-598,-2773,-833,2303,72,71,860
951169,4494104,4852784,4496601,4857049,961,2865,2692,-7737,-189,-2345,-414,2319,92,56,858
952169,4494540,4853092,4496928,4857376,1088,2824,2901,-8310,216,-2010,-127,2138,92,56,858
953170,4495056,4853448,4497255,4857703,506,2512,3121,-8883,616,-1646,-6,1941,88,79,860
954172,4495476,4853752,4497582,4858030,1065,2848,3319,-9410,986,-1307,142,2147,88,79,860
955173,4495836,4854048,4497909,4858357,1426,2913,3505,-9894,1296,-1142,365,2281,106,63,860
956174,4496304,4854380,4498236,4858684,690,2686,3667,-10253,1538,-1054,498,2409,106,63,860
957175,4496732,4854712,4498563,4859011,895,2685,3792,-10442,1719,-847,639,2763,80,81,861
958176,4497136,4855044,4498890,4859338,1012,2684,3860,-10624,1849,-510,735,2839,80,81,861
959177,4497544,4855420,4499217,4859665,952,2388,3913,-10698,1987,-123,549,3174,75,77,863
960178,4497940,4855780,4499544,4859992,996,2474,3948,-10585,2114,-26,1212,3401,75,77,863
961178,4498296,4856092,4499871,4860319,1235,2782,3919,-10505,2199,180,1474,3287,76,72,860
962180,4498660,4856420,4500198,4860646,1168,2682,3862,-10338,2268,472,1510,3513,76,72,860
963181,4498992,4856724,4500525,4860973,1366,2843,3799,-10116,2353,573,1651,3449,78,73,861
964181,4499300,4857096,4500852,4861300,1525,2399,3709,-9897,2438,781,1597,3358,78,73,861
965182,4499664,4857428,4501179,4861627,1159,2648,3585,-9661,2537,923,1498,3444,67,63,861
966183,4499992,4857740,4501506,4861954,1384,2780,3454,-9407,2662,1039,1401,3214,67,63,861
967184,4500280,4858040,4501833,4862281,1651,2867,3320,-9199,2794,1370,1181,2810,73,62,861
968185,4500584,4858364,4502160,4862608,1562,2720,3188,-9020,2938,1450,1124,2751,73,62,861
969186,4500904,4858668,4502487,4862935,1465,2856,3021,-8865,3088,1454,946,2738,67,72,860
970187,4501204,4858988,4502814,4863262,1602,2760,2833,-8711,3252,1477,795,2526,67,72,860
971189,4501500,4859260,4503141,4863589,1642,3085,2641,-8517,3454,1176,694,2558,71,67,859
972190,4501824,4859524,4503468,4863916,1468,3163,2416,-8246,3708,966,444,2719,71,67,859
973191,4502128,4859808,4503795,4864243,1603,3057,2165,-7969,3978,815,284,2712,61,45,858
974192,4502428,4860068,4504122,4864570,1641,3238,1894,-7645,4247,668,260,2779,61,45,858
975192,4502732,4860312,4504449,4864897,1626,3375,1565,-7213,4446,721,559,3282,69,43,855
976194,4503004,4860552,4504776,4865224,1850,3440,1129,-6537,4659,916,276,3926,69,43,855
977194,4503280,4860764,4505103,4865551,1848,3666,638,-5789,4903,1108,446,3948,66,40,856
978196,4503592,4861000,4505430,4865878,1630,3557,209,-5314,5051,1305,1066,2994,66,40,856
979197,4503848,4861236,4505757,4866205,2011,3598,-149,-5097,5097,1544,1376,2545,57,56,854
980198,4504120,4861452,4506084,4866532,1937,3773,-525,-4900,5109,1636,1370,2662,57,56,854
981199,4504424,4861688,4506411,4866859,1747,3689,-921,-4696,5119,1763,1246,2527,62,48,854
982212,4504672,4861896,4506738,4867186,2131,3800,-1291,-4512,5106,1801,1203,2433,62,48,854
983213,4504908,4862092,4507065,4867513,2247,3800,-1600,-4383,5032,1640,1164,2258,43,45,850
984214,4505168,4862308,4507392,4867840,2127,3800,-1885,-4364,4939,1571,707,2207,43,45,850
985215,4505436,4862544,4507719,4868167,2104,3800,-2125,-4413,4858,1434,475,2026,46,45,849
986216,4505692,4862768,4508046,4868494,2210,3800,-2299,-4456,4779,1139,77,2041,46,45,849
987217,4505980,4862968,4508373,4868821,2027,3800,-2391,-4521,4670,1092,-94,1750,50,36,850
988218,4506240,4863172,4508700,4869148,2233,3800,-2415,-4630,4569,1118,-327,1946,50,36,850
989219,4506496,4863396,4509027,4869475,2289,3800,-2419,-4627,4445,1010,-280,2449,56,50,849
990220,4506716,4863612,4509354,4869802,2562,3800,-2413,-4478,4231,818,-250,2828,56,50,849
991221,4506956,4863828,4509681,4870129,2475,3800,-2371,-4266,3962,481,-520,3104,43,46,849
992222,4507188,4864068,4510008,4870456,2568,3800,-2277,-4004,3644,287,-370,3372,43,46,849
993223,4507412,4864276,4510335,4870783,2663,3800,-2202,-3621,3300,490,-388,3976,61,49,847
994231,4507656,4864500,4510696,4871144,2590,3800,-2167,-3082,2980,973,-130,4327,61,49,847
995225,4507872,4864724,4511023,4871471,2814,3800,-2129,-2606,2720,1357,-18,4217,53,39,847
996226,4508060,4864908,4511350,4871798,3051,3800,-2103,-2124,2515,1113,-433,4553,53,39,847
997227,4508296,4865188,4511677,4872125,2792,3800,-2086,-1753,2302,643,-652,4476,39,66,847
998228,4508488,4865480,4512004,4872452,3127,3800,-2031,-1499,2055,823,-531,4052,39,66,847
999229,4508704,4865752,4512331,4872779,3026,3800,-1961,-1482,1794,1506,-116,3510,37,62,846
1000230,4508968,4865992,4512658,4873106,2755,3800,-1866,-1541,1542,2116,520,3193,37,62,846
1001231,4509196,4866276,4512985,4873433,3024,3800,-1783,-1769,1351,2014,486,3038,52,54,846
1002232,4509380,4866620,4513312,4873760,3362,3800,-1738,-1947,1247,1364,-284,3606,52,54,846
1003233,4509604,4866952,4513639,4874087,3159,3800,-1752,-1949,1188,816,-779,4230,57,69,846
1004235,4509832,4867264,4513966,4874414,3178,3800,-1751,-1934,1108,904,-571,4076,57,69,846
1005235,4510048,4867608,4514293,4874741,3302,3800,-1724,-2003,993,1452,-122,3871,63,61,844
1006224,4510304,4867992,4514620,4875068,3084,3631,-1679,-2126,884,1473,52,3951,63,61,844
1007225,4510580,4868388,4514947,4875395,2983,3527,-1675,-2099,832,903,-538,4794,57,79,845
1008226,4510812,4868760,4515274,4875722,3300,3659,-1693,-1906,853,263,-736,5018,57,79,845
1009226,4511032,4869200,4515601,4876049,3423,3185,-1647,-1836,836,-210,-45,4686,57,89,847
1010228,4511312,4869656,4515928,4876376,3070,3030,-1559,-1831,696,-269,480,4666,57,89,847
1011228,4511592,4870084,4516255,4876703,3092,3162,-1407,-1978,495,-81,799,4050,55,93,847
1012230,4511868,4870568,4516582,4877030,3139,2744,-1270,-2131,349,95,559,4434,55,93,847
1013231,4512176,4871068,4516909,4877357,2948,2569,-1167,-2094,365,-314,-242,4962,68,79,851
1014231,4512480,4871576,4517236,4877684,2985,2441,-1057,-2034,493,-968,-541,5051,68,79,851
1015232,4512788,4872148,4517563,4878011,2969,1934,-957,-1776,590,-1376,-739,5487,69,112,853
1016233,4513148,4872672,4517890,4878338,2630,2149,-765,-1760,643,-1176,-134,4497,69,112,853
1017234,4513476,4873188,4518217,4878665,2831,2117,-539,-1934,719,-477,76,4358,82,98,854
1018236,4513796,4873752,4518544,4878992,2885,1714,-349,-1975,868,-463,-327,4676,82,98,854
1019236,4514220,4874300,4518871,4879319,2193,1718,-128,-2154,1073,-907,-6,4128,74,105,858
1020238,4514588,4874892,4519198,4879646,2526,1328,129,-2227,1271,-685,147,4698,74,105,858
1021238,4514952,4875496,4519525,4879973,2535,1132,380,-2275,1435,-443,377,4472,84,97,858
1022240,4515272,4875984,4519852,4880300,2814,1786,595,-2139,1557,-572,208,5094,84,97,858
1023240,4515736,4876632,4520179,4880627,1855,646,739,-1913,1604,-859,-82,5364,67,118,862
1024242,4516112,4877184,4520506,4880954,2384,1148,875,-1752,1655,-461,-157,5316,67,118,862
1025242,4516484,4877752,4520833,4881281,2391,943,1003,-1357,1729,49,152,5785,81,100,860
1026244,4516912,4878324,4521160,4881608,1997,811,1094,-895,1771,64,358,5834,81,100,860
1027245,4517372,4878788,4521487,4881935,1740,1426,1140,-406,1767,-178,332,6061,76,101,862
1028246,4517768,4879388,4521814,4882262,2110,457,1206,-1,1726,136,855,5576,76,101,862
1029247,4518172,4879948,4522141,4882589,2027,605,1322,214,1655,875,1132,4709,84,116,865
1030247,4518620,4880484,4522468,4882916,1700,664,1436,337,1592,1420,909,4518,84,116,865
1031248,4519044,4881100,4522795,4883243,1808,37,1569,341,1588,1648,489,4118,93,111,866
1032249,4519504,4881620,4523122,4883570,1524,553,1673,428,1635,1964,-297,4328,93,111,866
1033250,4519964,4882184,4523449,4883897,1467,174,1749,541,1675,2187,-623,4076,91,113,867
1034251,4520348,4882668,4523776,4884224,1918,605,1839,604,1613,2362,-437,3782,91,113,867
1035252,4520832,4883156,4524103,4884551,1224,510,1911,711,1468,2545,-741,3899,82,110,868
1036253,4521304,4883652,4524430,4884878,1236,386,1964,859,1337,2745,-1030,4082,82,110,868
1037255,4521716,4884212,4524757,4885205,1575,-116,1996,1092,1224,3166,-1241,4114,99,89,867
1038256,4522156,4884652,4525084,4885532,1350,584,2038,1400,1075,3295,-1402,3845,99,89,867
1039256,4522640,4885056,4525411,4885859,1007,775,2096,1615,877,3227,-1453,3679,100,77,868
1040257,4523072,4885408,4525738,4886186,1286,1090,2164,1827,655,3292,-1519,3488,100,77,868
1041258,4523536,4885680,4526065,4886513,1027,1615,2200,2104,409,3106,-1495,3505,96,78,869
1042259,4524080,4885992,4526392,4886840,432,1371,2158,2600,151,2759,-1514,4139,96,78,869
1043260,4524476,4886280,4526719,4887167,1327,1538,2108,3178,-108,2389,-1337,3967,79,69,867
1044270,4524864,4886560,4527080,4887528,1365,1624,2068,3658,-382,1957,-1013,3479,79,69,867
1045262,4525312,4886820,4527407,4887855,937,1778,2075,4169,-677,1323,-664,3341,72,64,868
1046263,4525744,4887036,4527734,4888182,992,2103,2034,4671,-1020,807,-160,3063,72,64,868
1047264,4526160,4887304,4528061,4888509,1053,1804,1903,5100,-1364,404,-207,2934,69,55,865
1048265,4526548,4887584,4528388,4888836,1202,1750,1714,5425,-1717,58,-14,2576,69,55,865
1049266,4526916,4887816,4528715,4889163,1309,2091,1527,5737,-2127,-20,486,2371,88,45,863
1050268,4527296,4888056,4529042,4889490,1211,2080,1320,5922,-2577,-167,818,1999,88,45,863
1051268,4527684,4888280,4529369,4889817,1135,2226,1105,5884,-3089,-664,978,973,63,41,864
1052269,4528056,4888492,4529696,4890144,1215,2351,903,5491,-3653,-939,1286,-183,63,41,864
1053270,4528412,4888788,4530023,4890471,1302,1840,711,4847,-4187,-876,1605,-601,79,61,863
1054271,4528752,4889024,4530350,4890798,1398,2256,465,4043,-4580,-719,1457,-782,79,61,863
1055272,4529124,4889288,4530677,4891125,1178,2109,182,3219,-4759,-571,642,-980,58,43,862
1056273,4529472,4889512,4531004,4891452,1319,2404,-88,2368,-4714,-269,-65,-1033,58,43,862
1057274,4529792,4889748,4531331,4891779,1497,2370,-331,1433,-4526,-61,-158,-1533,73,43,862
1058275,4530124,4889972,4531658,4892106,1421,2490,-550,210,-4324,-66,375,-2255,73,43,862
1059276,4530448,4890244,4531985,4892433,1472,2215,-749,-1183,-4144,-36,837,-2687,65,43,861
1060277,4530776,4890492,4532312,4892760,1447,2400,-983,-2629,-3938,64,1063,-2702,65,43,861
1061278,4531108,4890780,4532639,4893087,1420,2167,-1265,-3986,-3658,-36,1154,-2478,64,45,859
1062279,4531396,4891040,4532966,4893414,1712,2373,-1543,-5261,-3270,-171,1145,-2199,64,45,859
1063280,4531656,4891256,4533293,4893741,1917,2697,-1852,-6315,-2786,-60,1102,-1534,52,58,861
1064281,4531932,4891552,4533620,4894068,1840,2211,-2219,-7100,-2250,165,943,-722,52,58,861
1065282,4532184,4891844,4533947,4894395,2023,2252,-2631,-7615,-1646,104,817,-183,48,54,860
1066283,4532400,4892124,4534274,4894722,2297,2348,-3079,-8065,-996,76,530,145,48,54,860
1067284,4532648,4892412,4534601,4895049,2133,2315,-3565,-8444,-340,336,354,752,49,61,860
1068285,4532872,4892740,4534928,4895376,2328,2066,-4068,-8637,288,533,14,1315,49,61,860
1069287,4533092,4893048,4535255,4895703,2400,2199,-4650,-8518,948,787,-1119,2261,53,65,858
1070288,4533332,4893384,4535582,4896030,2314,2021,-5248,-8306,1666,682,-1683,2529,53,65,858
1071289,4533580,4893660,4535909,4896357,2299,2419,-5753,-8236,2331,818,-1257,2549,56,64,857
1072290,4533808,4893900,4536236,4896684,2468,2683,-6197,-8106,2889,1445,-1292,2883,56,64,857
1073291,4534044,4894172,4536563,4897011,2458,2507,-6628,-8062,3371,1967,-1450,2790,35,65,857
1074292,4534316,4894440,4536890,4897338,2259,2559,-7006,-8109,3810,2339,-2069,2605,35,65,857
1075293,4534528,4894736,4537217,4897665,2684,2398,-7316,-8348,4159,2674,-2371,2282,47,50,856
1076293,4534776,4895032,4537544,4897992,2495,2412,-7537,-8632,4407,3083,-2878,2599,47,50,856
1077294,4535056,4895264,4537871,4898319,2316,2854,-7727,-8849,4569,3548,-3485,2927,42,67,857
1078295,4535368,4895560,4538198,4898646,2123,2469,-7884,-9059,4686,3795,-3659,2820,42,67,857
1079296,4535636,4895864,4538525,4898973,2424,2430,-7986,-9277,4780,3930,-3308,3334,46,65,857
1080297,4535936,4896180,4538852,4899300,2237,2360,-8013,-9336,4856,4090,-3311,3743,46,65,857
1081298,4536228,4896488,4539179,4899627,2302,2419,-7965,-9435,4909,4379,-3320,3700,69,64,858
1082300,4536508,4896784,4539506,4899954,2399,2508,-7858,-9417,4929,4633,-3411,4504,69,64,858
1083300,4536884,4897096,4539833,4900281,1777,2415,-7656,-9201,4892,4850,-3536,5438,59,66,858
1084301,4537204,4897424,4540160,4900608,2132,2316,-7425,-8651,4744,4906,-3257,6540,59,66,858
1085302,4537480,4897724,4540487,4900935,2429,2503,-3616,-2034,4023,14738,-931,32767,53,67,857
1086304,4537748,4897980,4540814,4901262,2506,2810,3742,12219,2451,21110,856,32767,53,67,857
1087304,4537964,4898336,4541141,4901589,2881,2172,7491,17267,1575,6585,-1405,3837,51,68,859
1088305,4538228,4898676,4541468,4901916,2608,2267,7165,14582,1324,5579,-141,-682,51,68,859
1089306,4538540,4899016,4541795,4902243,2316,2263,6248,9865,1157,5477,-88,-4465,53,73,855
1090308,4538868,4899316,4542122,4902570,2215,2524,5746,6146,981,5153,-935,-3830,53,73,855
1091309,4539164,4899664,4542449,4902897,2430,2216,5789,4379,936,4263,-1517,-1826,60,64,857
1092309,4539456,4900064,4542776,4903224,2471,1860,5554,2975,1007,4145,-2018,-975,60,64,857
1093310,4539760,4900476,4543103,4903551,2407,1748,5147,1786,983,3017,-1371,-1054,66,78,857
1094318,4540040,4900816,4543464,4903912,2593,2208,4812,-11,802,1134,-115,-2120,66,78,857
1095312,4540296,4901040,4543791,4904239,2775,2978,4529,-1880,452,460,412,-1998,68,77,859
1096313,4540580,4901268,4544118,4904566,2619,2998,4301,-3489,78,-703,986,-1306,68,77,859
1097314,4540836,4901492,4544445,4904893,2826,3069,4098,-4682,-187,-2030,1516,-160,71,40,857
1098315,4541084,4901768,4544772,4905220,2912,2766,3779,-5182,-434,-2745,1534,1728,71,40,857
1099316,4541364,4902040,4545099,4905547,2733,2817,3245,-4820,-655,-4031,1696,4775,61,58,853
1100317,4541616,4902344,4545426,4905874,2942,2628,2540,-3514,-806,-4847,1593,7170,61,58,853
1101318,4541860,4902644,4545753,4906201,3029,2665,1785,-1981,-1003,-5329,2219,7110,62,68,853
1102320,4542136,4903036,4546080,4906528,2853,2062,1179,-709,-1229,-6274,3201,6352,62,68,853
1103320,4542376,4903464,4546407,4906855,3116,1794,712,296,-1410,-6822,3071,6174,55,85,854
1104322,4542616,4903912,4546734,4907182,3155,1616,335,1171,-1423,-7113,1638,5769,55,85,854
1105322,4542880,4904372,4547061,4907509,3034,1483,-9,1972,-1143,-7192,-313,5641,49,79,856
1106324,4543188,4904788,4547388,4907836,2768,1719,-280,2837,-633,-6757,-1655,5703,49,79,856
1107325,4543460,4905312,4547715,4908163,3017,958,-508,3471,-21,-6215,-1922,4838,55,97,856
1108325,4543724,4905824,4548042,4908490,3096,953,-699,3764,614,-5713,-1938,3991,55,97,856
1109326,4544020,4906288,4548369,4908817,2911,1193,-847,3595,1258,-4924,-2219,2761,69,87,859
1110328,4544292,4906760,4548696,4909144,3086,1080,-946,3177,1913,-4089,-2314,2216,69,87,859
1111328,4544588,4907184,4549023,4909471,2950,1338,-1113,2727,2528,-3249,-1915,2356,78,99,859
1112329,4544912,4907552,4549350,4909798,2778,1670,-1353,2205,3052,-2282,-1578,2011,78,99,859
1113330,4545220,4907964,4549677,4910125,2886,1358,-1595,1452,3443,-1520,-1517,1291,79,83,860
1114332,4545516,4908364,4550004,4910452,2976,1401,-1791,636,3701,-890,-1261,1269,79,83,860
1115332,4545832,4908696,4550331,4910779,2857,1825,-2032,-120,3754,-371,-287,1754,57,67,858
1116334,4546132,4908976,4550658,4911106,2969,2171,-2295,-911,3541,-81,1695,1469,57,67,858
1117334,4546416,4909280,4550985,4911433,3089,2031,-2573,-1755,3100,100,2677,1459,71,73,857
1118336,4546736,4909596,4551312,4911760,2868,1961,-2943,-2415,2533,349,2714,2436,71,73,857
1119336,4547040,4909892,4551639,4912087,2980,2100,-3401,-2756,1958,803,2052,3570,76,69,855
1120337,4547340,4910196,4551966,4912414,3016,2061,-3855,-2889,1478,1167,535,4303,76,69,855
1121338,4547640,4910492,4552293,4912741,3029,2125,-4238,-2890,1100,1582,-362,4627,52,70,857
1122339,4547984,4910796,4552620,4913068,2748,2086,-4510,-2957,679,1634,1330,4701,52,70,857
1123340,4548308,4911072,4552947,4913395,2875,2283,-4669,-3091,152,1538,2759,4618,75,66,856
1124341,4548652,4911368,4553274,4913722,2744,2172,-4716,-3346,-395,1549,1576,4436,75,66,856
1125342,4549004,4911628,4553601,4914049,2684,2427,-4623,-3527,-837,1556,-593,4635,65,61,857
1126343,4549332,4911848,4553928,4914376,2834,2724,-4433,-3666,-1225,1307,-1431,4882,65,61,857
1127344,4549676,4912108,4554255,4914703,2728,2505,-4267,-3735,-1609,1029,-2121,5304,79,49,856
1128345,4550084,4912352,4554582,4915030,2292,2641,-4153,-3794,-1950,924,-2773,5517,79,49,856
1129346,4550428,4912588,4554909,4915357,2686,2732,-3026,-2157,-2015,-253,-5178,21121,74,47,854
1130347,4550808,4912832,4555236,4915684,2438,2719,-269,2691,-1682,-2011,-7113,32767,74,47,854
1131348,4551232,4913088,4555563,4916011,2122,2676,1498,4660,-1802,1,-2582,8121,84,61,857
1132349,4551612,4913332,4555890,4916338,2374,2787,1656,3551,-2356,42,-369,2136,84,61,857
1133350,4552016,4913564,4556217,4916665,2192,2905,1227,1243,-2933,283,-1672,931,87,50,856
1134351,4552480,4913804,4556544,4916992,1756,2894,1029,-516,-3207,595,-3316,1393,87,50,856
1135353,4552872,4914032,4556871,4917319,2179,3013,1034,-1676,-3189,25,-3835,1848,89,61,856
1136354,4553288,4914256,4557198,4917646,1991,3084,1099,-2837,-3066,122,-3993,1141,89,61,856
1137354,4553700,4914524,4557525,4917973,1979,2835,1074,-4138,-2999,-336,-2931,1084,90,62,857
1138356,4554172,4914792,4557852,4918300,1541,2862,1084,-5626,-2990,-916,-1628,715,90,62,857
1139357,4554604,4915064,4558179,4918627,1746,2862,1130,-7084,-3080,-1102,-602,783,84,53,854
1140358,4555012,4915328,4558506,4918954,1861,2940,1234,-8395,-3133,-1743,-617,1055,84,53,854
1141359,4555488,4915608,4558833,4919281,1371,2862,1330,-9454,-3097,-2133,-768,2185,89,61,859
1142359,4555916,4915924,4559160,4919608,1627,2642,1384,-9995,-2991,-2301,-1682,3449,89,61,859
1143360,4556352,4916200,4559487,4919935,1530,2916,1419,-10208,-2753,-2765,-2546,4360,85,64,857
1144368,4556784,4916468,4559848,4920296,1524,3007,1460,-10106,-2469,-2940,-2055,5046,85,64,857
1145362,4557224,4916768,4560175,4920623,1425,2820,1494,-10025,-2229,-3114,-1353,4955,96,74,859
1146364,4557660,4917036,4560502,4920950,1403,3047,1541,-9908,-2011,-3292,-767,5340,96,74,859
1147364,4558156,4917340,4560829,4921277,954,2832,1612,-9715,-1819,-3220,-177,5167,87,73,858
1148365,4558564,4917692,4561156,4921604,1470,2522,1684,-9573,-1622,-3244,-37,5014,87,73,858
1149366,4558992,4918000,4561483,4921931,1300,2806,1766,-9325,-1347,-3185,-89,5519,99,73,857
1150367,4559508,4918316,4561810,4922258,668,2762,1845,-9113,-1014,-2939,-118,5096,99,73,857
1151369,4559964,4918648,4562137,4922585,986,2660,1970,-8923,-665,-2793,-126,4841,79,64,861
1152370,4560416,4918988,4562464,4922912,957,2605,2128,-8828,-306,-2668,141,4509,79,64,861
1153370,4560844,4919344,4562791,4923239,1063,2493,2283,-8871,4,-2153,542,4078,88,72,862
1154371,4561344,4919696,4563118,4923566,537,2508,2455,-8962,316,-1769,642,3610,88,72,862
1155373,4561768,4920048,4563445,4923893,970,2497,2654,-9150,641,-1459,996,3039,80,81,862
1156373,4562156,4920404,4563772,4924220,1169,2460,2855,-9504,919,-1105,1263,2519,80,81,862
1157374,4562612,4920772,4564099,4924547,687,2368,3046,-9897,1179,-877,1592,2523,96,90,864
1158375,4563028,4921136,4564426,4924874,898,2378,3253,-10285,1484,-481,1508,2127,96,90,864
1159376,4563436,4921568,4564753,4925201,913,1907,3441,-10763,1745,-16,1634,1839,77,78,861
1160377,4563832,4921912,4565080,4925528,958,2451,3597,-11080,2007,269,1351,2386,77,78,861
1161378,4564172,4922264,4565407,4925855,1302,2391,3723,-11200,2268,256,1253,2550,68,71,862
1162380,4564496,4922620,4565734,4926182,1404,2353,3835,-11358,2488,528,1126,2308,68,71,862
1163381,4564844,4922948,4566061,4926509,1245,2528,3916,-11384,2722,846,1078,2735,55,70,863
1164381,4565172,4923312,4566388,4926836,1370,2288,3964,-11151,2956,950,1263,3185,55,70,863
1165382,4565496,4923616,4566715,4927163,1396,2673,3954,-10841,3180,997,1263,3348,79,73,862
1166383,4565828,4923952,4567042,4927490,1344,2470,3909,-10361,3400,869,1610,4047,79,73,862
1167384,4566116,4924268,4567369,4927817,1637,2601,3811,-9558,3553,746,2033,4554,72,66,862
1168385,4566416,4924560,4567696,4928144,1574,2767,3678,-8693,3628,725,1962,4504,72,66,862
1169386,4566740,4924808,4568023,4928471,1425,3077,3556,-7945,3679,679,1735,4046,54,53,861
1170387,4567036,4925140,4568350,4928798,1614,2551,3440,-7302,3725,791,1440,3749,54,53,861
1171388,4567336,4925396,4568677,4929125,1602,3058,3296,-6747,3778,819,1127,3365,52,53,858
1172389,4567632,4925640,4569004,4929452,1640,3170,3125,-6231,3889,710,778,3273,52,53,858
1173390,4567928,4925872,4569331,4929779,1654,3287,2909,-5682,4073,689,638,3297,53,40,858
1174391,4568240,4926088,4569658,4930106,1561,3437,2637,-5153,4312,827,562,3377,53,40,858
1175392,4568500,4926328,4569985,4930433,1916,3325,2367,-4644,4520,978,872,3016,57,56,856
1176393,4568808,4926596,4570312,4930760,1624,3177,2117,-4381,4627,1094,1145,2165,57,56,856
1177394,4569076,4926840,4570639,4931087,1900,3365,1849,-4288,4707,1286,813,1960,53,44,854
1178395,4569340,4927072,4570966,4931414,1953,3483,1521,-4247,4821,1639,640,1922,53,44,854
1179396,4569648,4927312,4571293,4931741,1687,3472,1131,-4151,4951,1965,355,1820,66,49,856
1180397,4569916,4927516,4571620,4932068,1963,3752,701,-4072,5061,2051,67,1689,66,49,856
1181398,4570132,4927764,4571947,4932395,2337,3512,267,-4096,5119,1824,-184,1596,54,55,852
1182399,4570396,4928024,4572274,4932722,2066,3467,-173,-4136,5115,1699,-563,1649,54,55,852
1183400,4570660,4928280,4572601,4933049,2093,3524,-628,-4105,5066,1800,-795,1816,57,60,850
1184401,4570904,4928540,4572928,4933376,2255,3530,-1081,-4053,4999,1996,-870,1848,57,60,850
1185415,4571196,4928760,4573255,4933703,1971,3800,-1492,-4046,4926,2110,-853,1716,53,58,852
1186403,4571464,4929016,4573582,4934030,2147,3635,-1815,-4127,4822,2029,-673,1399,53,58,852
1187404,4571708,4929304,4573909,4934357,2335,3453,-2029,-4414,4666,2044,-461,892,58,58,851
1188418,4571952,4929540,4574236,4934684,2371,3800,-2166,-4689,4477,1969,-640,1166,58,58,851
1189419,4572216,4929784,4574563,4935011,2274,3800,-2312,-4819,4290,1708,-970,1690,56,41,851
1190420,4572448,4930024,4574890,4935338,2517,3800,-2451,-4828,4125,1550,-1274,2061,56,41,851
1191421,4572664,4930252,4575217,4935665,2665,3800,-2551,-4755,3948,1493,-1030,2252,46,40,849
1192422,4572936,4930480,4575544,4935992,2341,3800,-2545,-4671,3721,1489,-457,2097,46,40,849
1193410,4573156,4930768,4575871,4936319,2713,3678,-2492,-4653,3449,1722,-194,2262,58,48,847
1194418,4573356,4931088,4576232,4936680,2909,3497,-2408,-4657,3139,1813,28,2560,58,48,847
1195412,4573572,4931364,4576559,4937007,2858,3795,-2343,-4383,2822,1509,-284,3530,43,60,849
1196426,4573768,4931620,4576886,4937334,3042,3800,-2310,-3883,2545,970,-441,4075,43,60,849
1197414,4573944,4931944,4577213,4937661,3234,3530,-2233,-2801,2084,934,-211,4345,52,69,848
1198415,4574180,4932324,4577540,4937988,2899,3158,-2171,-2347,1839,1538,177,4101,52,69,848
1199416,4574412,4932648,4577867,4938315,2967,3510,-2102,-2029,1604,1718,376,3988,53,67,844
1200418,4574644,4932952,4578194,4938642,3010,3646,-2052,-1685,1451,1224,-284,4432,53,67,844
1201419,4574860,4933352,4578521,4938969,3158,3016,-2047,-1324,1355,650,-867,4525,43,62,851
1202420,4575084,4933724,4578848,4939296,3155,3172,-2002,-1100,1235,477,-707,3821,43,62,851
1203421,4575308,4934120,4579175,4939623,3201,2993,-1935,-1124,1107,937,-553,3266,53,64,846
1204422,4575576,4934428,4579502,4939950,2952,3552,-1856,-1345,1020,1457,-428,2905,53,64,846
1205423,4575852,4934820,4579829,4940277,2925,3000,-1839,-1562,957,1157,-566,3357,50,79,847
1206424,4576124,4935280,4580156,4940604,2975,2517,-1828,-1613,932,535,-885,3496,50,79,847
1207425,4576376,4935648,4580483,4940931,3134,3075,-1743,-1797,944,139,-764,3000,71,84,849
1208425,4576668,4936096,4580810,4941258,2900,2523,-1617,-2077,949,185,-412,3240,71,84,849
1209426,4576948,4936608,4581137,4941585,2996,2043,-1523,-2281,917,471,83,3446,68,94,854
1210428,4577248,4937060,4581464,4941912,2884,2364,-1439,-2473,868,752,374,3234,68,94,854
1211428,4577580,4937588,4581791,4942239,2683,1801,-1321,-2629,907,648,111,3434,70,97,855
1212429,4577896,4938096,4582118,4942566,2789,1848,-1158,-2809,1035,149,58,3851,70,97,855
1213430,4578204,4938548,4582445,4942893,2847,2143,-1059,-2627,1149,-227,99,4920,59,87,856
1214431,4578564,4939180,4582772,4943220,2509,885,-966,-2395,1213,-118,305,4514,59,87,856
1215432,4578940,4939684,4583099,4943547,2388,1608,-808,-2283,1279,150,158,4492,57,110,857
1216433,4579276,4940144,4583426,4943874,2635,1826,-655,-2014,1360,100,77,5185,57,110,857
1217434,4579692,4940708,4583753,4944201,2097,1072,-509,-1722,1487,-297,-224,5243,72,107,862
1218436,4580068,4941216,4584080,4944528,2326,1343,-354,-1310,1627,-262,-284,5531,72,107,862
1219437,4580448,4941720,4584407,4944855,2278,1291,-203,-806,1695,-103,74,5738,87,98,859
1220437,4580832,4942308,4584734,4945182,2229,651,-87,-259,1666,-34,451,6050,87,98,859
1221438,4581256,4942764,4585061,4945509,1938,1421,71,255,1613,164,603,5693,84,92,863
1222439,4581620,4943272,4585388,4945836,2296,1016,257,621,1555,531,1001,5592,84,92,863
1223440,4581980,4943808,4585715,4946163,2308,750,388,1175,1510,802,867,6126,92,94,864
1224441,4582388,4944216,4586042,4946490,1973,1515,521,1597,1437,752,1029,5322,92,94,864
1225442,4582828,4944728,4586369,4946817,1724,785,706,1769,1341,858,1129,4746,83,90,862
1226444,4583248,4945316,4586696,4947144,1809,195,933,1733,1261,1386,1214,4183,83,90,862
1227444,4583652,4945756,4587023,4947471,1876,1071,1141,1626,1210,1945,1028,3787,83,95,862
1228445,4584068,4946272,4587350,4947798,1762,513,1305,1545,1173,2247,845,3742,83,95,862
1229446,4584468,4946772,4587677,4948125,1831,537,1416,1524,1196,2156,-52,4006,78,100,867
1230448,4584936,4947288,4588004,4948452,1345,354,1475,1621,1226,2199,-501,4161,78,100,867
1231448,4585384,4947844,4588331,4948779,1417,4,1524,1724,1170,2413,-414,3942,77,89,867
1232449,4585784,4948272,4588658,4949106,1685,760,1529,1944,1055,2473,-753,4503,77,89,867
1233450,4586208,4948704,4588985,4949433,1493,689,1510,2259,937,2471,-991,4577,84,96,869
1234452,4586680,4949204,4589312,4949760,1130,188,1504,2566,855,2634,-1417,4271,84,96,869
1235453,4587108,4949612,4589639,4950087,1361,727,1529,2848,808,2692,-1740,4121,99,91,867
1236453,4587516,4950004,4589966,4950414,1451,799,1589,3063,736,2582,-1732,3778,99,91,867
1237454,4588004,4950416,4590293,4950741,880,636,1665,3092,589,2522,-1383,3271,92,77,868
1238455,4588400,4950760,4590620,4951068,1426,1054,1709,3171,395,2373,-988,3456,92,77,868
1239456,4588796,4951060,4590947,4951395,1396,1341,1693,3531,181,2041,-778,4074,96,67,867
1240457,4589332,4951288,4591274,4951722,430,1835,1653,4084,-66,1676,-273,4028,96,67,867
1241459,4589696,4951520,4591601,4952049,1489,1852,1594,4514,-346,1195,199,3639,72,51,867
1242460,4590080,4951836,4591928,4952376,1339,1332,1562,4792,-679,613,604,2851,72,51,867
1243460,4590528,4952080,4592255,4952703,886,1818,1521,4956,-1064,66,851,2606,88,53,866
1244471,4590916,4952324,4592616,4953064,1250,1870,1465,5173,-1477,-460,1018,2637,88,53,866
1245462,4591316,4952568,4592943,4953391,1142,1906,1358,5401,-1858,-954,784,2566,76,47,866
1246464,4591700,4952832,4593270,4953718,1218,1809,1262,5570,-2239,-1209,880,2201,76,47,866
1247464,4592088,4953056,4593597,4954045,1167,2104,1091,5762,-2657,-1393,1389,2210,86,57,864
1248465,4592456,4953300,4593924,4954372,1274,2017,835,5790,-3134,-1685,1712,1717,86,57,864
1249466,4592820,4953544,4594251,4954699,1283,2053,522,5530,-3660,-1843,1956,966,67,45,863
1250468,4593188,4953756,4594578,4955026,1240,2304,193,5043,-4173,-1901,2119,397,67,45,863
1251469,4593524,4953972,4594905,4955353,1436,2327,-129,4422,-4598,-1884,1632,-151,78,50,863
1252470,4593888,4954232,4595232,4955680,1245,2083,-390,3536,-4886,-1759,1076,-816,78,50,863
1253470,4594204,4954520,4595559,4956007,1551,1925,-564,2406,-4987,-1575,790,-1418,76,45,862
1254471,4594544,4954768,4595886,4956334,1395,2210,-705,1063,-4938,-1247,610,-1955,76,45,862
1255472,4594892,4955012,4596213,4956661,1336,2271,-844,-433,-4804,-1072,654,-2682,66,42,863
1256473,4595212,4955240,4596540,4956988,1514,2416,-984,-2187,-4594,-950,659,-3104,66,42,863
1257474,4595528,4955484,4596867,4957315,1545,2352,-1143,-3998,-4309,-620,634,-3140,63,47,862
1258476,4595820,4955716,4597194,4957642,1710,2469,-1348,-5746,-3950,-376,630,-2942,63,47,862
1259476,4596164,4956012,4597521,4957969,1378,2084,-1605,-7236,-3497,-364,575,-2322,72,59,860
1260477,4596484,4956268,4597848,4958296,1531,2365,-1881,-8525,-2924,-385,277,-1672,72,59,860
1261478,4596800,4956528,4598175,4958623,1562,2369,-2190,-9585,-2250,-171,33,-951,62,48,859
1262479,4597108,4956772,4598502,4958950,1620,2507,-2584,-10370,-1565,99,-2,-120,62,48,859
1263480,4597384,4957004,4598829,4959277,1843,2623,-3039,-10802,-908,-34,92,793,62,64,860
1264481,4597596,4957292,4599156,4959604,2293,2292,-3794,-10639,-209,-138,-775,3308,62,64,860
1265482,4597848,4957624,4599483,4959931,2077,2014,-4900,-9953,615,-51,-2534,4192,37,65,860
1266484,4598080,4957944,4599810,4960258,2244,2093,-5744,-9808,1351,143,-1603,1570,37,65,860
1267485,4598300,4958240,4600137,4960585,2366,2257,-6131,-10335,1822,573,-346,675,41,63,858
1268486,4598520,4958536,4600464,4960912,2414,2272,-6373,-10928,2131,686,-549,1747,41,63,858
1269486,4598772,4958840,4600791,4961239,2247,2232,-6703,-11186,2502,794,-1583,2802,55,58,858
1270487,4598976,4959160,4601118,4961566,2601,2135,-7117,-11132,3014,1564,-2665,2830,55,58,858
1271488,4599244,4959408,4601445,4961893,2228,2621,-7593,-10913,3585,2373,-3131,3552,54,51,856
1272489,4599496,4959664,4601772,4962220,2361,2602,-7994,-10683,4110,2871,-3248,3897,54,51,856
1273490,4599708,4959920,4602099,4962547,2662,2634,-8181,-10803,4483,3295,-3130,3329,50,53,857
1274492,4599940,4960168,4602426,4962874,2579,2719,-8184,-11032,4715,3887,-2859,3473,50,53,857
1275492,4600212,4960460,4602753,4963201,2354,2460,-8202,-11116,4844,4419,-2567,3968,35,58,856
1276493,4600448,4960748,4603080,4963528,2619,2502,-8202,-11164,4902,4786,-2392,4000,35,58,856
1277494,4600736,4961040,4603407,4963855,2312,2494,-8142,-11112,4949,4859,-2567,4693,65,56,853
1278495,4601044,4961340,4603734,4964182,2196,2455,-8005,-10878,5044,5025,-2956,5381,65,56,853
1279496,4601304,4961636,4604061,4964509,2526,2495,-7775,-10483,5146,5449,-3337,6384,48,48,855
1280497,4601600,4961940,4604388,4964836,2315,2456,-3816,-3411,4494,17836,-1696,32767,48,48,855
1281498,4601904,4962252,4604715,4965163,2276,2413,3212,10187,2756,23987,-159,32767,51,73,857
1282500,4602180,4962532,4605042,4965490,2473,2634,6751,14552,1835,6720,-871,2392,51,73,857
1283501,4602520,4962844,4605369,4965817,2069,2441,6382,11703,1679,5713,-123,-32,72,61,857
1284501,4602856,4963160,4605696,4966144,2090,2422,5544,7544,1694,5711,-438,-3089,72,61,857
1285502,4603128,4963436,4606023,4966471,2515,2694,5147,4276,1675,5857,-1134,-2945,66,69,856
1286503,4603376,4963736,4606350,4966798,2699,2557,5269,2678,1701,5454,-1570,-1430,66,69,856
1287504,4603632,4964084,4606677,4967125,2682,2248,5198,1223,1774,5066,-1367,-1213,59,70,858
1288505,4603932,4964436,4607004,4967452,2420,2213,4952,17,1848,4153,-2018,-528,59,70,858
1289506,4604260,4964748,4607331,4967779,2244,2470,4582,-1095,1861,2379,-1950,576,70,75,856
1290508,4604552,4965040,4607658,4968106,2485,2611,4122,-1838,1772,1625,-2210,1400,70,75,856
1291508,4604864,4965392,4607985,4968433,2367,2226,3774,-2637,1578,929,-1518,214,80,58,857
1292510,4605148,4965792,4608312,4968760,2562,1894,3513,-3367,1307,-265,-958,1489,80,58,857
1293510,4605408,4966224,4608639,4969087,2741,1649,3170,-3504,1035,-1214,-919,2923,71,73,855
1294518,4605708,4966476,4609000,4969448,2519,2822,2743,-3363,755,-2415,-306,3687,71,73,855
1295512,4605960,4966728,4609327,4969775,2853,2856,2353,-2787,583,-3227,-728,4853,66,74,859
1296513,4606228,4966968,4609654,4970102,2779,2970,1991,-1833,516,-3357,-275,5629,66,74,859
1297514,4606512,4967220,4609981,4970429,2699,2928,1675,-565,465,-4070,220,6724,64,55,855
1298515,4606772,4967532,4610308,4970756,2879,2560,1374,634,480,-4872,-85,6527,64,55,855
1299516,4607016,4967836,4610635,4971083,3016,2620,1082,1615,513,-4993,339,5754,48,48,852
1300517,4607292,4968160,4610962,4971410,2839,2498,752,2549,525,-5315,1010,5647,48,48,852
1301518,4607540,4968520,4611289,4971737,3050,2259,363,3377,569,-5771,923,5447,70,65,854
1302519,4607796,4968892,4611616,4972064,3031,2164,-13,3890,649,-6016,679,4275,70,65,854
1303520,4608084,4969312,4611943,4972391,2849,1825,-305,4077,804,-5956,388,3351,57,76,854
1304521,4608356,4969804,4612270,4972718,2975,1302,-543,4078,1073,-5436,-84,2921,57,76,854
1305522,4608648,4970208,4612597,4973045,2866,1819,-766,3914,1439,-4871,-428,2577,54,100,854
1306523,4608928,4970664,4612924,4973372,2962,1439,-946,3579,1847,-4480,-99,1803,54,100,854
1307524,4609212,4971160,4613251,4973699,2956,1114,-1077,2936,2233,-3711,0,1165,63,93,858
1308525,4609492,4971572,4613578,4974026,3003,1603,-1200,2195,2619,-2755,-252,1238,63,93,858
1309526,4609756,4972048,4613905,4974353,3132,1137,-1336,1504,2966,-2190,-24,1394,58,97,859
1310527,4610064,4972540,4614232,4974680,2866,965,-1417,677,3199,-1832,-163,559,58,97,859
1311528,4610372,4972952,4614559,4975007,2874,1429,-1430,-396,3379,-1275,-872,328,59,99,858
1312529,4610692,4973276,4614886,4975334,2804,1980,-1477,-1322,3540,-628,-1085,1103,59,99,858
1313530,4611000,4973632,4615213,4975661,2888,1768,-1587,-2068,3583,-333,154,1576,77,68,860
1314531,4611304,4973988,4615540,4975988,2924,1755,-1762,-2711,3422,-293,1209,2173,77,68,860
1315532,4611588,4974312,4615867,4976315,3069,1957,-2056,-3083,3073,70,1434,3329,64,59,856
1316533,4611928,4974580,4616194,4976642,2713,2334,-2498,-3111,2599,477,1851,4357,64,59,856
1317534,4612228,4974896,4616521,4976969,2976,2038,-2990,-3003,2054,655,2067,4647,55,75,857
1318535,4612528,4975216,4616848,4977296,2989,2018,-3424,-2875,1504,833,1966,5058,55,75,857
1319536,4612876,4975548,4617175,4977623,2681,1940,-3772,-2654,1041,1202,633,5702,59,65,856
1320537,4613188,4975892,4617502,4977950,2913,1858,-4070,-2241,653,1131,583,6189,59,65,856
1321538,4613524,4976244,4617829,4978277,2759,1798,-4321,-1825,212,821,1635,5907,70,59,854
1322539,4613884,4976592,4618156,4978604,2596,1814,-4514,-1715,-341,803,2443,5448,70,59,854
1323540,4614204,4976908,4618483,4978931,2850,2020,-4583,-1711,-865,1126,1078,5270,68,63,857
1324541,4614508,4977208,4618810,4979258,2961,2131,-4497,-1736,-1232,1308,-788,5073,68,63,857
1325542,4614832,4977472,4619137,4979585,2838,2384,-4345,-1937,-1458,1276,-1962,4757,74,57,858
1326543,4615240,4977804,4619464,4979912,2279,1958,-4204,-2315,-1603,1318,-2452,4486,74,57,858
1327544,4615604,4978088,4619791,4980239,2537,2277,-3144,-1238,-1553,1020,-4241,17977,78,70,856
1328545,4615968,4978328,4620118,4980566,2522,2591,-814,2251,-1284,150,-5714,32767,78,70,856
1329546,4616376,4978560,4620445,4980893,2213,2683,678,3118,-1402,1012,-2037,4639,74,62,860
1330547,4616772,4978804,4620772,4981220,2258,2644,936,1506,-1835,1027,-16,758,74,62,860
1331549,4617164,4979060,4621099,4981547,2255,2601,702,-830,-2318,1174,666,427,68,57,856
1332550,4617616,4979312,4621426,4981874,1826,2659,526,-2586,-2602,1013,-1342,973,68,57,856
1333551,4618024,4979520,4621753,4982201,2066,2988,494,-3811,-2617,484,-3196,1487,73,52,856
1334551,4618396,4979740,4622080,4982528,2272,2960,507,-4764,-2549,137,-4282,2109,73,52,856
1335553,4618844,4979948,4622407,4982855,1744,3088,505,-5534,-2532,-332,-4280,2730,79,48,857
1336553,4619256,4980200,4622734,4983182,1933,2846,602,-6330,-2573,-1013,-3652,2620,79,48,857
1337554,4619672,4980484,4623061,4983509,1870,2666,762,-7161,-2719,-1355,-2408,2619,71,52,854
1338556,4620144,4980740,4623388,4983836,1456,2873,952,-7805,-2880,-1934,-1426,3208,71,52,854
1339557,4620552,4980992,4623715,4984163,1821,2931,1097,-8288,-2971,-2299,-903,3777,94,63,857
