"Data file recorded 2014/9/24  14:15:49"
"%  Right Stride Frequency         = 9.0"
"%  Left Stride Frequency         = 9.0"
"%  Phase (Fractional)         = 32768.0"
"%  Experiment.py "
"%  Motor Gains    = [1800, 200, 100, 0, 0, 1800, 200, 100, 0, 0]
"% Columns: "
"% time | Right Leg Pos | Left Leg Pos | Commanded Right Leg Pos | Commanded Left Leg Pos | DCR | DCL | GyroX | GryoY | GryoZ | AX | AY | AZ | RBEMF | LBEMF | VBatt "
10721,33160056,34140232,33142846,34158654,-3800,3800,521,755,-1136,406,-344,4058,-13,-1,855
11722,33160024,34140200,33143452,34159260,-3800,3800,518,752,-1138,408,-337,4033,-5,-8,855
12723,33159980,34140232,33144058,34159866,-3800,3800,519,751,-1139,395,-348,4023,-5,-8,855
13724,33159880,34140420,33144664,34160472,-3800,3800,524,756,-1152,366,-127,4041,-22,26,813
14725,33159748,34140624,33145270,34161078,-3800,3800,524,790,-1175,288,-89,4179,-22,26,813
15726,33159540,34140840,33145876,34161684,-3800,3800,498,845,-1197,210,-219,4180,-44,42,815
16714,33159340,34141100,33146482,34162290,-3788,3800,450,844,-1209,133,-346,4149,-44,42,815
17715,33159088,34141356,33147088,34162896,-3089,3800,398,852,-1233,-27,4,4148,-56,54,816
18716,33158728,34141680,33147694,34163502,-1991,3800,349,874,-1251,-146,-148,4217,-56,54,816
19717,33158420,34141984,33148300,34164108,-1917,3800,290,918,-1253,-197,-263,4128,-53,44,821
20719,33158156,34142292,33148906,34164714,-1811,3800,234,872,-1224,-163,-598,3915,-53,44,821
21720,33157900,34142584,33149512,34165320,-1485,3800,182,760,-1173,-97,-823,3740,-40,39,827
22721,33157680,34142856,33150118,34165926,-1348,3800,156,569,-1101,-153,-1097,3663,-40,39,827
23722,33157468,34143088,33150724,34166532,-1040,3800,166,335,-1003,-183,-1337,3701,-44,43,828
24722,33157260,34143332,33151330,34167138,-708,3800,188,172,-900,-137,-1546,3901,-44,43,828
25724,33157108,34143508,33151936,34167744,-726,3800,201,63,-818,-90,-1646,3926,-28,45,828
26724,33156996,34143656,33152542,34168350,-662,3800,184,12,-753,101,-1888,4223,-28,45,828
27726,33156928,34143776,33153148,34168956,-642,3800,141,-43,-682,266,-2010,4296,-11,23,831
28727,33156884,34143884,33153754,34169562,-507,3800,89,-30,-573,389,-2238,4572,-11,23,831
29728,33156872,34143968,33154360,34170168,-435,3800,36,71,-408,613,-2526,4804,-3,23,830
30728,33156872,34143988,33154966,34170774,-245,3800,-27,151,-199,850,-2613,4891,-3,23,830
31729,33156888,34144004,33155572,34171380,-86,3800,-82,229,16,1074,-2441,4795,0,4,829
32730,33156896,34144016,33156178,34171986,226,3800,-117,207,183,1226,-2216,4313,0,4,829
33731,33156904,34144016,33156784,34172592,489,3800,-152,52,304,1330,-2080,4229,13,10,830
34732,33156928,34144040,33157390,34173198,645,3800,-203,-39,401,1469,-1876,4358,13,10,830
35733,33156960,34144036,33157996,34173804,847,3800,-259,-114,514,1708,-1815,4557,2,1,828
36754,33157004,34144060,33158624,34174432,3800,3800,-328,-84,648,1927,-1638,4859,2,1,828
37748,33157020,34144104,33159230,34175038,3800,3800,-397,-4,765,2000,-1228,4983,18,12,829
38736,33157208,34144140,33159836,34175644,3728,3800,-450,113,835,2058,-990,4988,18,12,829
39750,33157380,34144116,33160442,34176250,3800,3800,-474,201,886,2080,-952,5022,30,18,812
40738,33157696,34144116,33161048,34176856,3248,3800,-472,265,892,2048,-698,4926,30,18,812
41739,33158056,34144160,33161654,34177462,3082,3800,-458,235,814,2009,-419,4742,68,9,814
42740,33158440,34144192,33162260,34178068,3030,3800,-414,206,701,1923,-343,4767,68,9,814
43741,33158952,34144216,33162866,34178674,2272,3800,-363,192,574,1931,-313,4822,67,5,818
44742,33159352,34144268,33163472,34179280,3063,3800,-298,218,438,1998,-411,4731,67,5,818
45743,33159780,34144344,33164078,34179886,2967,3800,-217,313,312,1875,-712,4951,93,22,819
46744,33160292,34144376,33164684,34180492,2485,3800,-107,437,170,1578,-932,4972,93,22,819
47745,33160800,34144424,33165290,34181098,2554,3800,20,575,-6,1271,-913,5034,102,8,815
48746,33161336,34144436,33165896,34181704,2409,3800,150,781,-200,1027,-865,5202,102,8,815
49747,33161816,34144492,33166502,34182310,2816,3800,285,984,-395,1110,-688,5006,94,17,822
50748,33162408,34144564,33167108,34182916,2123,3800,434,1152,-610,1143,-485,4872,94,17,822
51749,33162900,34144624,33167714,34183522,2799,3800,584,1265,-857,1067,-20,4566,91,13,823
52750,33163416,34144692,33168320,34184128,2690,3800,788,1274,-1137,1104,283,4004,91,13,823
53751,33164036,34144756,33168926,34184734,2034,3800,1002,1224,-1385,1048,254,3966,105,11,824
54752,33164556,34144816,33169532,34185340,2698,3800,1249,1242,-1577,777,247,4288,105,11,824
55753,33165100,34144868,33170138,34185946,2576,3800,1560,1308,-1797,487,469,3904,106,17,822
56754,33165768,34144960,33170744,34186552,1775,3800,1922,1270,-2035,251,128,3702,106,17,822
57755,33166352,34145076,33171350,34187158,2311,3800,2284,1293,-2240,305,255,3849,114,17,822
58756,33166928,34145168,33171956,34187764,2375,3800,2598,1332,-2473,380,1277,3713,114,17,822
59757,33167548,34145288,33172562,34188370,2095,3800,2935,1150,-2749,368,1562,2895,116,34,826
60758,33168120,34145416,33173168,34188976,2411,3800,3294,867,-3039,973,1480,2646,116,34,826
61759,33168712,34145560,33173774,34189582,2293,3800,3601,566,-3278,2033,1140,2339,126,45,825
62760,33169444,34145696,33174380,34190188,1364,3800,3833,165,-3525,3047,1169,1934,126,45,825
63768,33170208,34145860,33175008,34190816,1105,3800,4034,-180,-3764,3308,1159,1810,134,48,824
64762,33170868,34146024,33175614,34191422,1731,3800,4202,-421,-4025,2390,840,2262,134,48,824
65763,33171528,34146180,33176220,34192028,1708,3800,4331,-334,-4340,1315,426,3203,127,42,829
66764,33172184,34146356,33176826,34192634,1712,3800,4398,47,-4681,597,490,3782,127,42,829
67765,33172752,34146564,33177432,34193240,2280,3800,4418,493,-5080,839,1009,3708,111,42,827
68766,33173364,34146768,33178038,34193846,2004,3800,4334,903,-5504,1410,1306,3408,111,42,827
69767,33173956,34146996,33178644,34194452,2136,3800,4217,1194,-5876,1781,928,2862,103,57,825
70768,33174472,34147196,33179250,34195058,2651,3800,4057,1405,-6134,1830,407,2813,103,57,825
71769,33175008,34147404,33179856,34195664,2558,3800,3894,1842,-6241,1248,142,3218,108,55,827
72770,33175564,34147604,33180462,34196270,2456,3800,3666,2336,-6168,508,-223,3318,108,55,827
73771,33176128,34147796,33181068,34196876,2425,3800,3438,2507,-6022,558,85,2279,102,39,824
74772,33176592,34147984,33181674,34197482,3113,3800,3221,2596,-5851,769,500,2076,102,39,824
75773,33177060,34148144,33182280,34198088,3149,3800,3006,2640,-5597,606,599,1647,93,32,824
76787,33177404,34148264,33182886,34198694,3800,3800,2763,2533,-5238,334,391,1157,93,32,824
77775,33177876,34148332,33183492,34199300,3301,3800,2302,2510,-4672,411,310,2132,100,36,818
78776,33178332,34148440,33184098,34199906,3468,3800,1409,3166,-3675,1189,-1469,3808,100,36,818
79777,33178756,34148532,33184704,34200512,3749,3800,742,3353,-2735,716,-1046,754,85,31,816
80791,33179184,34148564,33185310,34201118,3800,3800,582,2962,-2130,61,210,305,85,31,816
81779,33179628,34148632,33185916,34201724,3776,3800,517,2345,-1664,-123,238,537,77,32,814
82793,33180052,34148700,33186522,34202330,3800,3800,141,2303,-1147,197,224,2282,77,32,814
83794,33180452,34148744,33187128,34202936,3800,3800,-581,2946,-500,-216,-189,3530,87,16,816
84795,33180904,34148796,33187734,34203542,3800,3800,-1291,3748,43,-633,381,3626,87,16,816
85796,33181324,34148852,33188340,34204148,3800,3800,-1661,4169,438,-786,738,2958,95,21,815
86797,33181744,34148892,33188946,34204754,3800,3800,-1799,4533,756,-920,864,3854,95,21,815
87798,33182200,34148944,33189552,34205360,3800,3800,-1959,5134,973,-946,872,4638,84,12,813
88799,33182696,34149012,33190158,34205966,3800,3800,-2255,5949,1098,-1306,1085,5402,84,12,813
89800,33183108,34149068,33190764,34206572,3800,3800,-2607,6841,1126,-1661,1408,5749,88,23,816
90808,33183516,34149140,33191392,34207200,3800,3800,-2959,7658,982,-1583,2276,5587,88,23,816
91802,33183980,34149224,33191998,34207806,3800,3800,-3245,8272,619,-1752,3363,5298,105,29,814
92803,33184396,34149280,33192604,34208412,3800,3800,-3470,8645,92,-1881,4344,5021,105,29,814
93804,33184784,34149316,33193210,34209018,3800,3800,-3676,8784,-594,-1896,5116,4536,84,26,816
94805,33185228,34149408,33193816,34209624,3800,3800,-3860,8737,-1408,-1975,5476,4055,84,26,816
95806,33185632,34149472,33194422,34210230,3800,3800,-3985,8439,-2211,-1647,5223,3183,87,15,815
96807,33186044,34149552,33195028,34210836,3800,3800,-4114,7909,-2882,-1191,4247,3164,87,15,815
97808,33186488,34149620,33195634,34211442,3800,3800,-3966,7553,-3380,-748,3110,5695,87,23,815
98809,33186916,34149652,33196240,34212048,3800,3800,-749,11356,-3774,2568,1147,32767,87,23,815
99810,33187332,34149696,33196846,34212654,3800,3800,5468,17079,-4032,2244,-2345,32767,79,26,816
100811,33187796,34149760,33197452,34213260,3800,3800,9026,18048,-4288,882,700,10458,79,26,816
101812,33188176,34149804,33198058,34213866,3800,3800,8948,14921,-4496,750,1706,-2555,80,19,814
102813,33188540,34149872,33198664,34214472,3800,3800,7625,11300,-4684,1303,779,-2414,80,19,814
103814,33188952,34149892,33199270,34215078,3800,3800,6579,8868,-4705,1142,-361,-1019,65,13,813
104815,33189320,34149920,33199876,34215684,3800,3800,5396,7812,-4468,1248,-1964,2098,65,13,813
105816,33189676,34149956,33200482,34216290,3800,3800,3717,7494,-4291,708,-2634,2592,74,17,814
106817,33190064,34150024,33201088,34216896,3800,3800,2122,6383,-4361,-529,-2615,-220,74,17,814
107818,33190424,34150108,33201694,34217502,3800,3800,1207,4097,-4669,-491,-2494,-3309,64,8,815
108819,33190744,34150148,33202300,34218108,3800,3800,1009,711,-5180,-484,-569,-5716,64,8,815
109820,33191104,34150196,33202906,34218714,3800,3800,1050,-2502,-5692,-652,-308,-4021,79,8,813
110821,33191444,34150220,33203512,34219320,3800,3800,915,-4642,-5926,-725,-2428,-1178,79,8,813
111822,33191740,34150256,33204118,34219926,3800,3800,591,-5940,-5815,-932,-3010,978,54,23,813
112823,33192040,34150356,33204724,34220532,3800,3800,197,-6474,-5514,-903,-2181,2959,54,23,813
113824,33192404,34150464,33205330,34221138,3800,3800,-223,-6799,-5292,-917,-1209,3868,64,13,813
114825,33192720,34150604,33205936,34221744,3800,3800,-504,-7046,-5245,-1338,-493,4003,64,13,813
115826,33193028,34150716,33206542,34222350,3800,3800,-565,-7462,-5307,-1994,-129,3324,68,36,814
116827,33193388,34150856,33207148,34222956,3800,3800,-458,-8110,-5412,-2260,-255,2858,68,36,814
117837,33193720,34151028,33207776,34223584,3800,3800,-455,-8305,-5499,-2271,-382,5184,77,45,815
118829,33194032,34151252,33208382,34224190,3800,3800,-514,-7942,-5509,-2351,-876,6165,77,45,815
119830,33194388,34151540,33208988,34224796,3800,3800,-485,-7438,-5399,-2420,-1599,5932,58,66,816
120831,33194704,34151836,33209594,34225402,3800,3800,-346,-6941,-5177,-2569,-1346,6089,58,66,816
121832,33195012,34152124,33210200,34226008,3800,3800,-193,-6464,-4918,-2226,-758,6287,56,70,816
122833,33195332,34152376,33210806,34226614,3800,3800,-9,-6052,-4667,-1817,-228,5659,56,70,816
123834,33195676,34152664,33211412,34227220,3800,3800,239,-5945,-4393,-1533,364,4855,50,57,815
124835,33195960,34153004,33212018,34227826,3800,3800,536,-5912,-4055,-800,510,4657,50,57,815
125836,33196328,34153320,33212624,34228432,3800,3800,878,-5966,-3616,-245,705,4375,57,76,815
126837,33196792,34153624,33213230,34229038,3800,3800,1259,-5930,-3095,179,946,4467,57,76,815
127838,33197236,34153916,33213836,34229644,3800,3800,1662,-5990,-2592,411,1172,3720,70,61,817
128839,33197660,34154248,33214442,34230250,3800,3800,2096,-6216,-2172,514,1555,3305,70,61,817
129840,33198196,34154556,33215048,34230856,3800,3800,2540,-6432,-1802,748,1895,3338,107,72,818
130841,33198776,34154848,33215654,34231462,3800,3800,2974,-6637,-1434,946,1784,3217,107,72,818
131842,33199304,34155108,33216260,34232068,3800,3800,3357,-6677,-1070,920,1408,3549,113,70,818
132843,33199976,34155360,33216866,34232674,3800,3800,3744,-6640,-769,863,1613,3417,113,70,818
133844,33200608,34155608,33217472,34233280,3800,3800,4116,-6499,-533,902,1520,3577,135,62,819
134845,33201264,34155812,33218078,34233886,3800,3800,4543,-6310,-326,508,1333,3419,135,62,819
135846,33201992,34156008,33218684,34234492,3800,3800,4875,-5918,-121,-215,520,4233,133,35,817
136847,33202680,34156144,33219290,34235098,3800,3800,5169,-5269,91,-732,-152,4563,133,35,817
137848,33203360,34156316,33219896,34235704,3800,3800,5427,-4569,339,-960,-538,4595,145,29,819
138849,33204168,34156432,33220502,34236310,3800,3800,5690,-3700,540,-1436,-788,4852,145,29,819
139850,33204896,34156572,33221108,34236916,3800,3800,5934,-2919,630,-1970,-831,4279,123,47,818
140851,33205652,34156700,33221714,34237522,3800,3800,6134,-2089,702,-2283,-1337,4617,123,47,818
141852,33206412,34156876,33222320,34238128,3800,3800,6254,-1215,794,-2493,-1054,4332,152,32,817
142853,33207320,34157020,33222926,34238734,3800,3800,6272,-492,848,-2788,-344,3700,152,32,817
143854,33208116,34157164,33223532,34239340,3800,3800,6267,-1,834,-3212,-18,2729,161,36,820
144862,33208880,34157324,33224160,34239968,3800,3800,6267,22,775,-3179,306,1521,161,36,820
145856,33209732,34157460,33224766,34240574,3800,3800,6291,-28,737,-3160,327,1166,171,36,819
146857,33210500,34157612,33225372,34241180,3800,3800,6292,-196,803,-3370,-23,887,171,36,819
147858,33211304,34157756,33225978,34241786,3800,3800,6271,-284,991,-3508,-345,1045,184,32,819
148859,33212196,34157900,33226584,34242392,3800,3800,6185,-469,1307,-3636,-153,879,184,32,819
149860,33212916,34158068,33227190,34242998,3800,3800,6112,-665,1708,-3495,-38,759,172,39,821
150861,33213692,34158228,33227796,34243604,3800,3800,6007,-1000,2174,-3338,-19,470,172,39,821
151862,33214516,34158392,33228402,34244210,3800,3800,5884,-1416,2708,-2891,105,395,156,45,819
152863,33215200,34158552,33229008,34244816,3800,3800,5679,-1827,3308,-1788,234,238,156,45,819
153864,33215924,34158712,33229614,34245422,3800,3800,5412,-2295,3925,-826,232,60,156,47,819
154865,33216636,34158860,33230220,34246028,3800,3800,5080,-2903,4491,97,335,-406,156,47,819
155866,33217308,34159012,33230826,34246634,3800,3800,4652,-3744,4930,1035,882,-647,132,43,817
156867,33217848,34159180,33231432,34247240,3800,3800,4101,-4199,5213,2013,1499,910,132,43,817
157868,33218536,34159360,33232038,34247846,3800,3800,3346,-4083,5338,2539,2203,2352,115,39,817
158869,33219072,34159496,33232644,34248452,3800,3800,2392,-3616,5276,2764,3370,3084,115,39,817
159870,33219652,34159704,33233250,34249058,3800,3800,1329,-3037,5053,3016,4057,3407,121,42,818
160871,33220228,34159912,33233856,34249664,3800,3800,277,-2438,4711,3460,4824,3667,121,42,818
161872,33220820,34160116,33234462,34250270,3800,3800,-720,-1687,4256,3545,4978,3994,129,36,817
162873,33221336,34160316,33235068,34250876,3800,3800,-1580,-1218,3696,3044,5223,3011,129,36,817
163874,33221904,34160516,33235674,34251482,3800,3800,-2340,-735,3033,2403,5009,3326,108,42,817
164875,33222528,34160696,33236280,34252088,3800,3800,-3021,-583,2181,2403,5784,2130,108,42,817
165876,33223020,34160920,33236886,34252694,3800,3800,-3641,-336,1267,2554,5781,2631,113,41,818
166877,33223580,34161148,33237492,34253300,3800,3800,-4133,-51,482,2302,4540,2251,113,41,818
167878,33224168,34161376,33238098,34253906,3800,3800,-4439,-26,-202,2136,3812,1903,102,41,817
168879,33224696,34161612,33238704,34254512,3800,3800,-4662,185,-832,2318,3668,2375,102,41,817
169880,33225216,34161824,33239310,34255118,3800,3800,-4861,245,-1462,2330,3330,1743,119,58,817
170881,33225840,34162036,33239916,34255724,3800,3800,-5005,473,-2157,1995,2950,2324,119,58,817
171889,33226328,34162280,33240544,34256352,3800,3800,-5153,763,-2832,1726,2702,2463,116,47,818
172883,33226900,34162540,33241150,34256958,3800,3800,-5211,1175,-3413,1991,2110,2739,116,47,818
173884,33227460,34162776,33241756,34257564,3800,3800,-5228,1653,-3901,1984,1787,2722,120,44,815
174885,33227996,34163032,33242362,34258170,3800,3800,-5192,1879,-4312,1721,1492,2286,120,44,815
175886,33228520,34163276,33242968,34258776,3800,3800,-5110,2160,-4680,1836,900,2574,96,63,818
176887,33229100,34163508,33243574,34259382,3800,3800,-4956,2258,-5034,1937,726,1686,96,63,818
177888,33229660,34163800,33244180,34259988,3800,3800,-4712,2359,-5382,2101,455,1723,117,73,818
178889,33230172,34164108,33244786,34260594,3800,3800,-4389,2364,-5711,1817,-22,1579,117,73,818
179890,33230840,34164392,33245392,34261200,3800,3800,-4044,2381,-5960,1405,-630,1957,122,55,817
180891,33231464,34164696,33245998,34261806,3800,3800,-3674,2577,-6159,1034,-1256,2528,122,55,817
181892,33232036,34164972,33246604,34262412,3800,3800,-3276,2805,-6342,571,-1133,2704,116,74,819
182893,33232632,34165348,33247210,34263018,3800,3800,-2864,3275,-6523,289,-211,3527,116,74,819
183894,33233312,34165704,33247816,34263624,3800,3800,-2442,3609,-6679,502,74,2895,105,72,819
184895,33233880,34166028,33248422,34264230,3800,3800,-1962,3702,-6788,967,-21,2533,105,72,819
185896,33234544,34166380,33249028,34264836,3800,3800,-1468,3645,-6881,1071,292,2235,118,80,819
186897,33235236,34166788,33249634,34265442,3800,3800,-1003,3364,-6859,1405,219,2149,118,80,819
187898,33235884,34167156,33250240,34266048,3800,3800,-669,3337,-6652,1662,113,3484,119,71,819
188899,33236588,34167508,33250846,34266654,3800,3800,-496,3443,-6333,1620,554,3448,119,71,819
189900,33237356,34167884,33251452,34267260,3800,3800,-398,3476,-6110,1700,1550,2989,118,87,819
190901,33238064,34168292,33252058,34267866,3800,3800,-319,3324,-5926,1747,2166,2788,118,87,819
191902,33238796,34168692,33252664,34268472,3800,3800,-255,3103,-5656,1720,2138,3150,138,65,819
192903,33239584,34169056,33253270,34269078,3800,3800,-305,3014,-5278,1451,1578,3562,138,65,819
193904,33240312,34169444,33253876,34269684,3800,3800,-577,3261,-4480,1399,-656,4657,157,89,820
194905,33241032,34169900,33254482,34270290,3800,3800,-1012,3427,-2993,1144,-3734,3450,157,89,820
195906,33241928,34170328,33255088,34270896,3800,3800,-1301,3162,-1507,559,-2377,2316,154,97,822
196907,33242584,34170776,33255694,34271502,3800,3800,-1445,2716,-616,189,1014,2748,154,97,822
197908,33243276,34171264,33256300,34272108,3800,3800,-1485,2377,-223,-34,2477,3075,147,91,822
198916,33244008,34171764,33256928,34272736,3800,3800,-1521,2067,117,-495,2122,2783,147,91,822
199910,33244728,34172224,33257534,34273342,3800,3800,-1820,2337,938,-300,147,5304,139,94,823
200911,33245420,34172800,33258140,34273948,3800,3800,-2036,2896,2129,-394,-902,4855,139,94,823
201912,33246156,34173304,33258746,34274554,3800,3800,-2011,3373,3127,-1000,-445,5148,155,116,821
202913,33246836,34173960,33259352,34275160,3800,3800,-1764,3949,4013,-734,-841,5550,155,116,821
203914,33247532,34174524,33259958,34275766,3800,3800,-1564,4661,4912,-807,-1363,6247,157,114,823
204915,33248224,34175124,33260564,34276372,3800,3800,-1426,5647,5813,-1311,-1579,6935,157,114,823
205916,33248932,34175788,33261170,34276978,3800,3800,-1320,6641,6554,-1713,-1489,6393,151,120,823
206917,33249536,34176456,33261776,34277584,3800,3800,-1162,7481,7114,-1844,-2009,6010,151,120,823
207918,33250144,34177300,33262382,34278190,3800,3800,-879,8162,7591,-1557,-2141,5716,134,127,824
208919,33250748,34177956,33262988,34278796,3800,3800,-523,8761,8040,-734,-2389,5494,134,127,824
209920,33251256,34178704,33263594,34279402,3800,3800,-108,9359,8429,43,-2321,5176,124,141,822
210921,33251744,34179444,33264200,34280008,3800,3800,368,9919,8706,686,-2131,4808,124,141,822
211922,33252220,34180256,33264806,34280614,3800,3800,910,10285,8819,1470,-1928,3927,92,135,822
212923,33252608,34180932,33265412,34281220,3800,3800,1404,10544,8641,1894,-1240,3904,92,135,822
213924,33252984,34181736,33266018,34281826,3800,3800,1851,10701,8208,2260,-629,3102,92,150,820
214925,33253368,34182392,33266624,34282432,3800,3800,2164,10668,7517,2880,138,2728,92,150,820
215926,33253672,34183012,33267230,34283038,3800,3800,2392,10548,6458,2874,1004,2027,80,121,821
216927,33253928,34183536,33267836,34283644,3800,3800,2481,10079,4891,2417,608,763,80,121,821
217928,33254236,34184052,33268442,34284250,3800,3800,2415,9489,2801,1830,1082,880,52,109,819
218929,33254468,34184484,33269048,34284856,3800,3800,1958,9420,382,1141,1259,3440,52,109,819
219930,33254720,34184744,33269654,34285462,3800,3800,1192,10141,-1862,1826,-120,4993,45,78,815
220931,33254996,34184980,33270260,34286068,3800,3800,349,10790,-3944,1558,90,3989,45,78,815
221932,33255244,34185132,33270866,34286674,3800,3800,-275,10827,-6194,420,1856,2189,61,49,815
222933,33255476,34185264,33271472,34287280,3800,3800,-588,9918,-8878,-370,3592,-410,61,49,815
223934,33255748,34185288,33272078,34287886,3800,3800,-827,8618,-11484,-434,2278,-528,56,10,811
224935,33256044,34185260,33272684,34288492,3800,3800,-1144,7364,-13550,-508,453,-62,56,10,811
225945,33256296,34185212,33273312,34289120,3800,3800,-1447,6386,-14930,-1119,-631,743,63,16,809
226937,33256584,34185220,33273918,34289726,3800,3800,-1582,3803,-15124,-9392,-2591,-815,63,16,809
227938,33256948,34185236,33274524,34290332,3800,3800,-1572,-1011,-14057,-11373,-6679,-688,54,18,809
228939,33257212,34185268,33275130,34290938,3800,3800,-874,-4715,-12739,-9473,-11355,10913,54,18,809
229940,33257504,34185300,33275736,34291544,3800,3800,3796,-1735,-10778,-15155,-17695,32767,55,9,812
230941,33257904,34185376,33276342,34292150,3800,3800,9144,2011,-9020,-12433,-10183,32767,55,9,812
231942,33258260,34185540,33276948,34292756,3800,3800,9968,2553,-8292,-3107,-4457,6780,79,31,813
232943,33258604,34185780,33277554,34293362,3800,3800,7420,2680,-7352,-310,-6208,9601,79,31,813
233944,33259036,34186012,33278160,34293968,3800,3800,3889,4152,-5855,3041,-2329,12211,82,61,811
234945,33259396,34186280,33278766,34294574,3800,3800,1359,5630,-4485,4597,-11,7085,82,61,811
235946,33259768,34186536,33279372,34295180,3800,3800,726,4165,-3513,3099,632,-2705,83,64,815
236947,33260188,34186796,33279978,34295786,3800,3800,1324,348,-3280,2426,2528,-7205,83,64,815
237948,33260580,34187056,33280584,34296392,3800,3800,1997,-4488,-3525,2726,2894,-9046,67,63,816
238949,33260988,34187336,33281190,34296998,3800,3800,2224,-8418,-3518,3432,2983,-6010,67,63,816
239950,33261340,34187704,33281796,34297604,3800,3800,1686,-10432,-3081,4948,2772,-821,64,76,817
240951,33261772,34188100,33282402,34298210,3800,3800,426,-10502,-2389,6203,3413,4381,64,76,817
241952,33262176,34188568,33283008,34298816,3800,3800,-831,-9853,-1652,5477,3123,5517,79,96,818
242953,33262568,34189032,33283614,34299422,3800,3800,-1404,-9880,-1067,4772,2232,3074,79,96,818
243954,33263048,34189512,33284220,34300028,3800,3800,-1355,-10837,-775,4086,2919,1686,84,92,819
244955,33263492,34189972,33284826,34300634,3800,3800,-1162,-11541,-807,3209,4159,3535,84,92,819
245956,33263984,34190472,33285432,34301240,3800,3800,-1137,-11547,-1164,2526,4538,5091,99,88,817
246957,33264536,34191028,33286038,34301846,3800,3800,-1165,-11018,-1701,1791,4292,6069,99,88,817
247958,33265076,34191588,33286644,34302452,3800,3800,-1144,-10070,-2195,1365,3570,7395,100,107,820
248959,33265712,34192172,33287250,34303058,3800,3800,-1149,-8564,-2531,1772,1757,9384,100,107,820
249960,33266416,34192708,33287856,34303664,3800,3800,-1206,-6596,-2696,1746,1463,10833,132,107,819
250961,33267152,34193348,33288462,34304270,3800,3800,-1210,-4531,-2827,1264,2641,10838,132,107,819
251962,33267880,34193960,33289068,34304876,3800,3800,-1132,-2661,-3076,1152,2823,9898,134,132,823
252970,33268692,34194692,33289696,34305504,3800,3800,-1026,-1129,-3299,920,1225,9253,134,132,823
253964,33269420,34195428,33290302,34306110,3800,3800,-828,-59,-3421,563,5,7681,151,148,824
254965,33270256,34196008,33290908,34306716,3800,3800,-572,561,-3475,384,-865,6632,151,148,824
255966,33271176,34196672,33291514,34307322,3800,3800,-280,929,-3460,217,-1355,5608,179,138,824
256967,33272028,34197500,33292120,34307928,3800,3800,40,934,-3429,22,-1866,4373,179,138,824
257968,33272920,34198424,33292726,34308534,3800,3800,377,720,-3378,-322,-2759,3635,186,155,826
258969,33273796,34199240,33293332,34309140,3800,3800,691,381,-3201,-1179,-3428,3485,186,155,826
259970,33274808,34200052,33293938,34309746,3800,3800,990,67,-2803,-1789,-4052,3414,185,188,828
260971,33275656,34200944,33294544,34310352,3800,3800,1403,-444,-2352,-2852,-3919,2236,185,188,828
261972,33276540,34201748,33295150,34310958,3800,3800,1826,-1366,-1889,-3817,-3905,1459,194,198,829
262973,33277460,34202740,33295756,34311564,3800,3800,2286,-2342,-1389,-4255,-4061,1257,194,198,829
263974,33278288,34203776,33296362,34312170,3800,3800,2637,-3351,-720,-4467,-4607,1515,165,208,830
264975,33279068,34204788,33296968,34312776,3800,3800,3007,-4210,164,-4856,-5012,1867,165,208,830
265976,33279896,34205764,33297574,34313382,3800,3800,3310,-5020,1099,-5053,-4881,2199,181,197,829
266977,33280556,34206668,33298180,34313988,3800,3800,3641,-5832,1914,-4556,-4558,1787,181,197,829
267978,33281236,34207548,33298786,34314594,3800,3800,3951,-6677,2593,-3278,-4295,1681,148,187,827
268979,33281912,34208496,33299392,34315200,3800,3800,4242,-7488,3218,-1798,-4490,1569,148,187,827
269980,33282524,34209336,33299998,34315806,3800,3800,4460,-8178,3845,-792,-4331,2156,147,179,825
270981,33283092,34210184,33300604,34316412,3800,3800,4639,-8581,4348,-499,-4173,2866,147,179,825
271982,33283772,34211060,33301210,34317018,3800,3800,4713,-8448,4688,-445,-4110,4254,135,188,825
272983,33284388,34211920,33301816,34317624,3800,3800,4717,-8132,4874,-319,-3610,4180,135,188,825
273984,33285016,34212824,33302422,34318230,3800,3800,4655,-7536,4905,266,-2013,4870,141,193,826
274985,33285688,34213900,33303028,34318836,3800,3800,4564,-7280,4858,1816,-721,3898,141,193,826
275986,33286356,34214880,33303634,34319442,3800,3800,4482,-6801,4755,3334,-178,4914,137,201,827
276987,33286920,34215804,33304240,34320048,3800,3800,4458,-6302,4638,4328,-148,4351,137,201,827
277988,33287576,34216744,33304846,34320654,3800,3800,4495,-5955,4419,4972,-205,4124,127,200,825
278989,33288072,34217696,33305452,34321260,3800,3800,4518,-5527,4077,5249,3,4294,127,200,825
279997,33288604,34218660,33306080,34321888,3800,3800,4547,-5252,3629,5011,641,3566,120,183,825
280990,33289124,34219436,33306686,34322494,3800,3800,4650,-4927,3106,5137,421,3435,120,183,825
281992,33289692,34220172,33307292,34323100,3800,3800,4730,-4365,2607,5152,703,4492,118,160,824
282993,33290204,34220768,33307898,34323706,3800,3800,4622,-3223,2125,4836,716,6294,118,160,824
283994,33290744,34221272,33308504,34324312,3800,3800,4255,-1269,1599,4489,226,8614,117,115,822
284995,33291464,34221680,33309110,34324918,3800,3800,3728,1318,1070,3689,-1,9874,117,115,822
285996,33292152,34221988,33309716,34325524,3800,3800,3166,3718,438,3715,758,8558,112,77,820
286997,33292904,34222164,33310322,34326130,3800,3800,2879,5137,-315,3706,1617,5023,112,77,820
287998,33293688,34222240,33310928,34326736,3800,3800,2874,5679,-1011,3650,1718,3047,147,42,819
288999,33294488,34222264,33311534,34327342,3800,3800,2859,5984,-1621,3940,1912,3079,147,42,819
290000,33295296,34222280,33312140,34327948,3800,3800,2493,6633,-2134,3653,2242,4258,155,19,817
291001,33296196,34222296,33312746,34328554,3800,3800,2139,7125,-2698,2499,2594,2032,155,19,817
292002,33297144,34222332,33313352,34329160,3800,3800,1895,7028,-3380,2248,3557,493,177,15,818
293003,33298032,34222384,33313958,34329766,3800,3800,1643,6650,-4083,2250,4106,256,177,15,818
294004,33298988,34222464,33314564,34330372,3800,3800,1320,6198,-4626,2457,3949,-51,172,11,818
295005,33299960,34222552,33315170,34330978,3800,3800,1044,5593,-4934,2576,3819,-1155,172,11,818
296006,33300920,34222652,33315776,34331584,3800,3800,906,4370,-5213,2166,4346,-3581,167,24,819
297007,33302024,34222788,33316382,34332190,3800,3800,949,2719,-5542,1951,4457,-4375,167,24,819
298008,33302964,34222948,33316988,34332796,3800,3800,914,1450,-5699,1958,3569,-2589,158,33,820
299009,33303900,34223120,33317594,34333402,3800,3800,570,1455,-5371,1873,1020,1703,158,33,820
300010,33304916,34223300,33318200,34334008,3800,3800,-49,2722,-4821,896,691,4456,175,50,819
301011,33305852,34223480,33318806,34334614,3800,3800,-613,3990,-4450,77,2287,3306,175,50,819
302012,33306740,34223736,33319412,34335220,3800,3800,-927,4526,-4249,-435,3504,1286,181,46,820
303013,33307664,34224008,33320018,34335826,3800,3800,-1088,4396,-4107,-1137,4522,181,181,46,820
304014,33308480,34224260,33320624,34336432,3800,3800,-1136,4028,-3964,-1724,5156,-280,186,61,822
305015,33309336,34224532,33321230,34337038,3800,3800,-1082,3716,-3851,-2075,5734,-288,186,61,822
306016,33310140,34224808,33321836,34337644,3800,3800,-1004,3536,-3714,-2642,5458,-146,191,74,821
307024,33311008,34225104,33322464,34338272,3800,3800,-1018,3576,-3436,-3280,4865,755,191,74,821
308018,33311760,34225480,33323070,34338878,3800,3800,-1182,3937,-3059,-4021,4111,2138,171,78,822
309019,33312500,34225920,33323676,34339484,3800,3800,-1686,5461,-2402,-3622,2332,6560,171,78,822
310020,33313276,34226364,33324282,34340090,3800,3800,-2450,8036,-1552,-3076,1759,8458,166,86,822
311021,33313980,34226888,33324888,34340696,3800,3800,-3257,10230,-1189,-3606,3037,6044,166,86,822
312022,33314616,34227444,33325494,34341302,3800,3800,-3760,11439,-1307,-3326,2707,3990,157,121,821
313023,33315344,34228020,33326100,34341908,3800,3800,-4125,11858,-1727,-2776,2496,2895,157,121,821
314024,33315964,34228732,33326706,34342514,3800,3800,-4516,11820,-2245,-1892,2241,1792,142,119,823
315025,33316540,34229340,33327312,34343120,3800,3800,-4823,11439,-2712,-1195,1984,670,142,119,823
316026,33317164,34230072,33327918,34343726,3800,3800,-5084,10823,-2986,-53,671,364,142,137,823
317027,33317712,34230736,33328524,34344332,3800,3800,-5277,9959,-3021,1079,-546,-575,142,137,823
318028,33318220,34231484,33329130,34344938,3800,3800,-5441,8729,-2877,2154,-1469,-1102,117,152,823
319029,33318736,34232276,33329736,34345544,3800,3800,-5609,7372,-2700,3178,-2138,-1277,117,152,823
320030,33319184,34233052,33330342,34346150,3800,3800,-5694,5615,-2615,3581,-2515,-2341,95,133,823
321031,33319608,34233860,33330948,34346756,3800,3800,-5638,3695,-2627,3913,-3254,-2305,95,133,823
322032,33320024,34234632,33331554,34347362,3800,3800,-5538,1845,-2714,4223,-4270,-1849,82,142,821
323032,33320464,34235492,33332160,34347968,3800,3800,-5425,231,-2831,4467,-4737,-1175,82,142,821
324034,33320876,34236260,33332766,34348574,3800,3800,-5220,-1163,-2962,4720,-5069,-644,97,176,821
325035,33321276,34237244,33333372,34349180,3800,3800,-4962,-2371,-3154,4861,-5425,213,97,176,821
326036,33321728,34238168,33333978,34349786,3800,3800,-4655,-3214,-3414,4758,-5901,1600,79,188,823
327037,33322148,34239060,33334584,34350392,3800,3800,-4308,-3606,-3728,4554,-6260,3016,79,188,823
328038,33322580,34240092,33335190,34350998,3800,3800,-3966,-3472,-4094,4072,-6475,4674,79,173,823
329039,33323020,34241044,33335796,34351604,3800,3800,-3563,-2919,-4500,3496,-6259,5909,79,173,823
330040,33323456,34242120,33336402,34352210,3800,3800,-3121,-1969,-4930,3143,-6051,7232,98,195,824
331040,33323892,34243144,33337008,34352816,3800,3800,-1704,508,-5228,2976,-7706,19343,98,195,824
332042,33324364,34244084,33337614,34353422,3800,3800,2013,8386,-5275,3529,-9946,32767,108,189,823
333043,33324836,34245048,33338220,34354028,3800,3800,4872,13322,-5565,3340,-5607,15467,108,189,823
334053,33325316,34245968,33338848,34354656,3800,3800,5685,13901,-6072,3151,-4271,4696,106,185,823
335045,33325896,34246856,33339454,34355262,3800,3800,5497,12343,-6527,3772,-4472,2861,106,185,823
336046,33326460,34247792,33340060,34355868,3800,3800,5465,11325,-6853,4546,-4559,2708,103,180,824
337047,33327100,34248656,33340666,34356474,3800,3800,5713,10376,-6992,4401,-3728,733,103,180,824
338048,33327940,34249524,33341272,34357080,3800,3800,6176,9075,-7139,4698,-2758,-1018,132,180,824
339049,33328644,34250324,33341878,34357686,3800,3800,6591,7307,-7346,4364,-1985,-1749,132,180,824
340050,33329356,34251196,33342484,34358292,3800,3800,6925,5518,-7430,3308,-2013,-1522,148,187,824
341051,33330236,34252008,33343090,34358898,3800,3800,7157,4069,-7437,2495,-2369,-971,148,187,824
342052,33331076,34252792,33343696,34359504,3800,3800,7277,2794,-7421,1363,-2678,-603,158,164,826
343052,33331804,34253524,33344302,34360110,3800,3800,7271,2165,-7387,185,-3235,1220,158,164,826
344054,33332752,34254216,33344908,34360716,3800,3800,7155,1955,-7381,-1614,-3214,1807,180,164,826
345054,33333656,34254928,33345514,34361322,3800,3800,7014,1940,-7465,-3716,-2386,2458,180,164,826
346043,33334680,34255568,33346120,34361928,3144,3800,6776,2110,-7685,-4944,-1141,2984,192,145,826
347044,33335676,34256376,33346726,34362534,3150,3800,6404,2449,-7993,-6262,-277,3362,192,145,826
348046,33336716,34257068,33347332,34363140,2687,3800,5939,2981,-8417,-7993,391,3943,182,155,827
349047,33337716,34257772,33347938,34363746,2766,3800,5428,3755,-8886,-9145,615,4400,182,155,827
350047,33338740,34258420,33348544,34364352,2434,3800,4892,4905,-9254,-9784,603,5145,196,130,830
351048,33339804,34259132,33349150,34364958,1985,3800,4411,5906,-9457,-9932,629,4265,196,130,830
352050,33340672,34259872,33349756,34365564,3095,3800,3956,6415,-9490,-10012,356,3447,216,138,831
353050,33341588,34260648,33350362,34366170,2661,3800,3585,6699,-9213,-10220,-598,3174,216,138,831
354051,33342516,34261324,33350968,34366776,2447,3800,3382,6704,-8584,-10024,-1324,2027,212,147,833
355052,33343380,34262000,33351574,34367382,2734,3800,3235,6379,-7638,-9527,-1836,1168,212,147,833
356054,33344120,34262856,33352180,34367988,3452,3800,3132,5551,-6465,-9282,-1973,-281,179,143,828
357054,33344880,34263608,33352786,34368594,3261,3800,3026,4013,-5186,-8784,-2402,-1733,179,143,828
358068,33345544,34264576,33353392,34369200,3800,3800,2929,2331,-3831,-8486,-2785,-1562,140,155,830
359069,33346076,34265440,33353998,34369806,3800,3800,2756,579,-2406,-8012,-2841,-1725,140,155,830
360070,33346604,34266328,33354604,34370412,3800,3800,2587,-1523,-966,-6776,-2534,-2725,133,192,829
361078,33347012,34267096,33355232,34371040,3800,3800,2405,-3935,425,-5320,-1762,-3418,133,192,829
362072,33347348,34268044,33355838,34371646,3800,3800,2077,-6731,1738,-2946,-1181,-4375,88,195,824
363073,33347616,34269136,33356444,34372252,3800,3800,1682,-10000,2913,-454,-983,-5942,88,195,824
364074,33347836,34270080,33357050,34372858,3800,3800,957,-13020,4007,1695,226,-3804,69,187,823
365075,33348044,34271056,33357656,34373464,3800,3800,-978,-14086,4851,2968,190,3573,69,187,823
366076,33348260,34271984,33358262,34374070,3800,3800,-3823,-13729,5955,3408,-5189,5372,50,192,821
367077,33348548,34272872,33358868,34374676,3800,3800,-6192,-14005,7310,4565,-4335,2281,50,192,821
368078,33348880,34273716,33359474,34375282,3800,3800,-7060,-16031,8260,5818,-698,-2413,55,173,820
369079,33349240,34274624,33360080,34375888,3800,3800,-7161,-18592,8602,5717,1192,-896,55,173,820
370080,33349696,34275496,33360686,34376494,3800,3800,-7132,-20198,8823,5238,422,2255,85,181,821
371081,33350080,34276332,33361292,34377100,3800,3800,-7078,-21343,9120,6439,515,1613,85,181,821
372082,33350528,34277176,33361898,34377706,3800,3800,-6835,-22781,9486,9160,379,345,96,175,823
373083,33351000,34278040,33362504,34378312,3800,3800,-6508,-23958,9770,11175,1199,2390,96,175,823
374084,33351396,34279004,33363110,34378918,3800,3800,-6291,-24312,9780,10760,1167,4863,91,182,823
375085,33351760,34279852,33363716,34379524,3800,3800,-6061,-24038,9603,8883,-1070,6433,91,182,823
376086,33352092,34280672,33364322,34380130,3800,3800,-5819,-22717,9260,8038,-593,9658,65,183,823
377087,33352376,34281488,33364928,34380736,3800,3800,-5743,-20414,8715,8024,1665,12481,65,183,823
378088,33352792,34282224,33365534,34381342,3800,3800,-5611,-17444,8139,7724,1080,14166,81,173,821
379089,33353260,34282920,33366140,34381948,3800,3800,-5336,-13994,7544,6891,925,15256,81,173,821
380090,33353796,34283572,33366746,34382554,3800,3800,-5034,-10605,6827,5981,193,14708,96,122,822
381091,33354236,34284096,33367352,34383160,3800,3800,-4771,-7023,5850,3959,-251,15850,96,122,822
382092,33354852,34284564,33367958,34383766,3800,3800,-4567,-3751,4929,1828,-1508,14419,103,105,821
383093,33355416,34284924,33368564,34384372,3800,3800,-4363,-961,4079,1041,-1145,13119,103,105,821
384094,33356004,34285216,33369170,34384978,3800,3800,-4005,1406,3197,1668,185,11214,114,78,820
385095,33356528,34285472,33369776,34385584,3800,3800,-3467,2841,2113,1964,1677,8037,114,78,820
386096,33357208,34285620,33370382,34386190,3800,3800,-2791,3334,794,2251,2961,5183,123,51,817
387097,33357728,34285700,33370988,34386796,3800,3800,-1838,2911,-628,1817,3393,2560,123,51,817
388105,33358284,34285776,33371616,34387424,3800,3800,-737,2171,-1926,1420,2041,2319,111,26,815
389099,33358932,34285852,33372222,34388030,3800,3800,255,1776,-2998,1503,2058,3116,111,26,815
390100,33359484,34285916,33372828,34388636,3800,3800,850,1423,-3860,1090,1900,3237,113,29,814
391101,33360052,34286016,33373434,34389242,3800,3800,1149,1318,-4530,1547,757,3846,113,29,814
392102,33360788,34286092,33374040,34389848,3800,3800,1298,1264,-4756,2820,-1311,4190,132,29,816
393103,33361456,34286164,33374646,34390454,3800,3800,1451,1391,-4595,3334,-1463,4325,132,29,816
394104,33362268,34286272,33375252,34391060,3800,3800,1733,827,-4441,2568,-1001,1487,136,36,816
395105,33363012,34286396,33375858,34391666,3800,3800,2164,-611,-4430,2064,-1238,-264,136,36,816
396106,33363804,34286520,33376464,34392272,3800,3800,2405,-1712,-4295,2412,-1939,1725,142,45,818
397107,33364508,34286708,33377070,34392878,3800,3800,1677,-1295,-3711,2515,-4375,6580,142,45,818
398108,33365304,34286904,33377676,34393484,3800,3800,1258,-1294,-3290,2433,-1385,1224,153,50,818
399109,33366132,34287084,33378282,34394090,3800,3800,1299,-1952,-3140,2964,-272,1595,153,50,818
400110,33366940,34287264,33378888,34394696,3800,3800,1330,-2298,-2998,3966,-806,3718,158,45,817
401111,33367804,34287432,33379494,34395302,3800,3800,1053,-1920,-2875,4917,-539,5113,158,45,817
402112,33368704,34287628,33380100,34395908,3800,3800,219,-301,-2529,4568,-2769,9121,153,53,819
403113,33369584,34287816,33380706,34396514,3800,3800,-301,874,-2205,4286,-44,5487,153,53,819
404114,33370388,34288000,33381312,34397120,3800,3800,-382,1768,-2097,4264,2033,6366,147,43,819
405102,33371328,34288200,33381918,34397726,3421,3800,-350,2481,-2006,3894,2547,6533,147,43,819
406116,33372072,34288380,33382524,34398332,3800,3800,-317,3596,-1838,3919,2598,7288,171,43,819
407104,33372952,34288568,33383130,34398938,3619,3800,-290,4964,-1682,3166,2631,7689,171,43,819
408118,33373700,34288716,33383736,34399544,3800,3800,-257,6379,-1549,2125,2457,8397,164,39,821
409118,33374360,34288848,33384342,34400150,3800,3800,-212,8062,-1391,2055,1821,9562,164,39,821
410120,33375064,34288960,33384948,34400756,3800,3800,-40,10088,-1155,1970,1385,12128,136,45,818
411120,33375808,34289068,33385554,34401362,3800,3800,171,11994,-964,1693,2072,9138,136,45,818
412122,33376456,34289160,33386160,34401968,3800,3800,362,13433,-808,1558,2031,7868,146,22,814
413123,33377100,34289228,33386766,34402574,3800,3800,561,14743,-652,1497,1823,7966,146,22,814
414124,33377700,34289272,33387372,34403180,3800,3800,806,16119,-494,1527,1492,7555,137,12,817
415132,33378292,34289316,33388000,34403808,3800,3800,1059,17174,-369,1423,921,6375,137,12,817
416126,33378856,34289332,33388606,34404414,3800,3800,1289,17943,-288,817,41,5801,138,23,816
417127,33379420,34289328,33389212,34405020,3800,3800,1529,18358,-290,-15,-779,4802,138,23,816
418128,33379888,34289364,33389818,34405626,3800,3800,1812,18613,-359,-338,-1629,4324,113,18,815
419129,33380320,34289392,33390424,34406232,3800,3800,2125,18714,-516,-730,-1859,3600,113,18,815
420130,33380788,34289420,33391030,34406838,3800,3800,2373,18712,-743,-1221,-2159,3486,82,19,811
421131,33381152,34289428,33391636,34407444,3800,3800,2583,18486,-1053,-1570,-2237,2883,82,19,811
422132,33381476,34289432,33392242,34408050,3800,3800,2783,18036,-1513,-1971,-1633,2146,84,10,812
423133,33381752,34289456,33392848,34408656,3800,3800,2938,17377,-2121,-2237,-1244,1601,84,10,812
424134,33382028,34289508,33393454,34409262,3800,3800,3089,16437,-2808,-2500,-898,571,67,6,812
425135,33382212,34289572,33394060,34409868,3800,3800,3197,15262,-3491,-2678,-926,304,67,6,812
426136,33382368,34289676,33394666,34410474,3800,3800,3246,14095,-4102,-2597,-1095,397,41,23,811
427137,33382540,34289768,33395272,34411080,3800,3800,3214,12901,-4639,-2385,-956,412,41,23,811
428138,33382640,34289888,33395878,34411686,3800,3800,3130,11633,-5175,-2000,-173,293,33,19,810
429139,33382700,34290020,33396484,34412292,3800,3800,3049,10101,-5660,-1663,295,-557,33,19,810
430140,33382784,34290224,33397090,34412898,3800,3800,3092,7174,-5870,-4493,-180,-3267,9,39,808
431141,33382812,34290416,33397696,34413504,3800,3800,3335,2008,-5741,-6932,-1121,-5869,9,39,808
432142,33382864,34290596,33398302,34414110,3800,3800,3582,-3658,-5439,-6507,-1585,-4634,17,51,809
433143,33382944,34290824,33398908,34414716,3800,3800,3721,-7413,-5019,-3743,-1579,-1639,17,51,809
434144,33383028,34291100,33399514,34415322,3800,3800,3683,-8488,-4510,-845,-1561,2099,12,62,810
435145,33383136,34291328,33400120,34415928,3800,3800,3568,-8223,-3967,-205,-1113,3544,12,62,810
436146,33383244,34291616,33400726,34416534,3800,3800,3441,-8289,-3428,-239,-340,3729,13,53,811
437147,33383424,34291860,33401332,34417140,3800,3800,3233,-8336,-2926,72,404,5099,13,53,811
438148,33383616,34292164,33401938,34417746,3800,3800,2970,-8292,-2411,129,544,5259,29,66,812
439149,33383832,34292460,33402544,34418352,3800,3800,2621,-8010,-1913,60,1054,6125,29,66,812
440150,33384092,34292736,33403150,34418958,3800,3800,2175,-7536,-1408,322,1722,6621,36,53,813
441151,33384360,34293000,33403756,34419564,3800,3800,1683,-7068,-848,963,2394,6488,36,53,813
442161,33384628,34293260,33404384,34420192,3800,3800,1240,-6321,-191,1652,2724,7299,58,61,814
443153,33384964,34293572,33404990,34420798,3800,3800,892,-5401,524,1468,3618,7467,58,61,814
444154,33385280,34293856,33405596,34421404,3800,3800,582,-4633,1235,1537,4286,7160,72,61,812
445155,33385612,34294124,33406202,34422010,3800,3800,266,-3939,1851,2128,4456,6781,72,61,812
446156,33385960,34294380,33406808,34422616,3800,3800,31,-3447,2334,2210,4456,6022,64,50,814
447157,33386320,34294624,33407414,34423222,3800,3800,-76,-3243,2691,1886,4388,5093,64,50,814
448158,33386664,34294940,33408020,34423828,3800,3800,-101,-3362,2932,1768,4199,4193,65,62,815
449159,33387028,34295244,33408626,34424434,3800,3800,6,-3563,3121,2038,3883,3919,65,62,815
450160,33387372,34295516,33409232,34425040,3800,3800,396,-3818,3425,2568,3651,3494,58,61,815
451161,33387716,34295788,33409838,34425646,3800,3800,619,-4002,3587,2367,3020,3287,58,61,815
452162,33388072,34296056,33410444,34426252,3800,3800,857,-4234,3706,2049,2469,2884,63,69,815
453163,33388444,34296444,33411050,34426858,3800,3800,1163,-4538,3714,1637,2037,2337,63,69,815
454164,33388804,34296748,33411656,34427464,3800,3800,1586,-4891,3655,1137,1196,2220,76,54,814
455165,33389184,34297036,33412262,34428070,3800,3800,2063,-5153,3510,895,480,2425,76,54,814
456166,33389608,34297300,33412868,34428676,3800,3800,2526,-5136,3301,897,-70,3087,81,71,815
457167,33389972,34297640,33413474,34429282,3800,3800,3023,-4874,3073,825,-508,3249,81,71,815
458168,33390360,34298024,33414080,34429888,3800,3800,3469,-4474,2814,618,-992,3784,76,73,815
459168,33390752,34298332,33414686,34430494,3800,3800,3865,-3895,2502,439,-1221,4094,76,73,815
460170,33391140,34298656,33415292,34431100,3800,3800,4247,-3232,2135,425,-972,4047,70,65,816
461171,33391540,34298996,33415898,34431706,3800,3800,4664,-2595,1715,453,-807,3546,70,65,816
462172,33391992,34299376,33416504,34432312,3800,3800,5147,-2156,1271,702,-382,2902,67,66,816
463173,33392392,34299744,33417110,34432918,3800,3800,5623,-1736,863,1120,-148,2925,67,66,816
464174,33392804,34300136,33417716,34433524,3800,3800,5963,-1122,499,1731,781,3589,91,77,815
465175,33393300,34300512,33418322,34434130,3800,3800,6087,-97,359,2449,422,4686,91,77,815
466176,33393788,34300956,33418928,34434736,3800,3800,6078,1087,414,2907,480,4530,88,91,816
467177,33394260,34301384,33419534,34435342,3800,3800,6054,2199,354,2943,1680,4250,88,91,816
468178,33394864,34301784,33420140,34435948,3800,3800,6083,2928,136,2992,2005,2827,104,81,818
469186,33395408,34302376,33420768,34436576,3800,3800,6118,3424,-164,3031,2233,2336,104,81,818
470180,33395984,34302904,33421374,34437182,3800,3800,6105,3875,-464,2896,2403,2150,97,101,819
471181,33396588,34303408,33421980,34437788,3800,3800,6056,4329,-684,2898,2478,1990,97,101,819
472182,33397236,34304016,33422586,34438394,3800,3800,5940,4806,-844,2863,2586,2017,122,104,819
473183,33397896,34304536,33423192,34439000,3800,3800,5830,5234,-1051,2704,2865,1552,122,104,819
474184,33398572,34305200,33423798,34439606,3800,3800,5667,5529,-1226,2685,2324,1092,122,107,820
475185,33399292,34305860,33424404,34440212,3800,3800,5546,5649,-1389,2324,2426,465,122,107,820
476186,33399972,34306540,33425010,34440818,3800,3800,5357,5719,-1556,1865,2170,624,143,132,821
477187,33400700,34307212,33425616,34441424,3800,3800,5132,5867,-1678,1466,1679,707,143,132,821
478187,33401520,34307956,33426222,34442030,3800,3800,4867,6089,-1735,975,1479,901,144,127,822
479189,33402248,34308656,33426828,34442636,3800,3800,4576,6343,-1756,375,1417,735,144,127,822
480190,33403040,34309440,33427434,34443242,3800,3800,4279,6450,-1839,-380,1769,85,146,142,823
481191,33403896,34310140,33428040,34443848,3800,3800,4025,6398,-1998,-693,2082,-264,146,142,823
482192,33404732,34310972,33428646,34444454,3800,3800,3683,6452,-2245,-836,2261,221,152,138,824
483193,33405560,34311648,33429252,34445060,3800,3800,3176,6586,-2580,-1150,2745,474,152,138,824
484194,33406412,34312488,33429858,34445666,3800,3800,2513,6725,-3081,-1740,3219,493,157,160,825
485195,33407264,34313268,33430464,34446272,3800,3800,1749,6808,-3827,-2496,3426,353,157,160,825
486196,33408088,34314088,33431070,34446878,3800,3800,998,6847,-4668,-2855,2523,338,187,155,826
487197,33408944,34314804,33431676,34447484,3800,3800,313,6857,-5494,-3231,1722,185,187,155,826
488198,33409820,34315492,33432282,34448090,3800,3800,-355,6943,-6147,-3946,953,862,169,144,825
489199,33410576,34316112,33432888,34448696,3800,3800,-1032,7316,-6506,-4510,-429,1956,169,144,825
490200,33411344,34316800,33433494,34449302,3800,3800,-1744,7753,-6541,-4387,-1463,2104,174,144,825
491201,33412096,34317412,33434100,34449908,3800,3800,-2467,7886,-6259,-2999,-2538,1339,174,144,825
492202,33412736,34318080,33434706,34450514,3800,3800,-3094,7447,-5866,-1499,-3131,-171,154,140,822
493203,33413332,34318712,33435312,34451120,3800,3800,-3584,6255,-5539,-444,-1969,-2241,154,140,822
494204,33413936,34319400,33435918,34451726,3800,3800,-3860,4026,-5361,569,-1466,-4584,146,132,823
495205,33414376,34320048,33436524,34452332,3800,3800,-4091,1570,-5237,1230,-1514,-4536,146,132,823
496213,33414788,34320760,33437152,34452960,3800,3800,-4246,-918,-4955,987,-1637,-4903,91,147,822
497207,33415140,34321432,33437758,34453566,3800,3800,-4606,-3025,-4572,1726,-2046,-3229,91,147,822
498208,33415428,34322092,33438364,34454172,3800,3800,-5221,-4475,-4161,2452,-2659,-723,74,127,817
499209,33415616,34322688,33438970,34454778,3800,3800,-5845,-5452,-3723,2867,-2666,-315,74,127,817
500210,33415712,34323336,33439576,34455384,3800,3800,-6276,-6833,-3324,3305,-3153,-1891,40,114,817
501211,33415716,34323892,33440182,34455990,3800,3800,-6609,-8571,-2972,3002,-3738,-1306,40,114,817
502212,33415696,34324632,33440788,34456596,3800,3800,-7085,-9646,-2654,2710,-3938,1366,15,121,814
503213,33415668,34325252,33441394,34457202,3800,3800,-7594,-10301,-2372,2975,-4747,1507,15,121,814
504214,33415672,34325972,33442000,34457808,3800,3800,-8126,-10583,-1992,3167,-6535,3348,11,143,815
505215,33415680,34326712,33442606,34458414,3800,3800,-9088,-9928,-1281,3248,-8685,6862,11,143,815
506216,33415668,34327316,33443212,34459020,3800,3800,-10456,-8935,-289,3261,-11152,7015,11,125,816
507217,33415652,34328004,33443818,34459626,3800,3800,-11449,-8262,561,3353,-9962,5671,11,125,816
508218,33415672,34328764,33444424,34460232,3800,3800,-11762,-8326,1034,3523,-8409,4433,10,137,815
509219,33415672,34329480,33445030,34460838,3800,3800,-11612,-8801,1252,3918,-8384,4075,10,137,815
510220,33415664,34330368,33445636,34461444,3800,3800,-11257,-9457,1530,4162,-8688,3701,-2,153,815
511221,33415652,34331164,33446242,34462050,3800,3800,-10785,-10000,1920,4447,-8983,3902,-2,153,815
512222,33415656,34332012,33446848,34462656,3800,3800,-10428,-10149,2274,4819,-8382,5458,10,157,817
513223,33415660,34333048,33447454,34463262,3800,3800,-5566,-2842,2436,14291,-13220,32767,10,157,817
514224,33415660,34333936,33448060,34463868,3800,3800,4835,16068,1928,22161,-15899,32767,15,179,818
515225,33415660,34334800,33448666,34464474,3800,3800,9941,22876,1801,6768,-7217,-3007,15,179,818
516226,33415652,34335688,33449272,34465080,3800,3800,9705,20253,2206,4985,-6089,-945,-1,180,817
517227,33415664,34336636,33449878,34465686,3800,3800,7905,14308,2703,5120,-6015,-4716,-1,180,817
518228,33415656,34337552,33450484,34466292,3800,3800,6747,10567,3320,5304,-7530,-2993,17,191,818
519229,33415660,34338548,33451090,34466898,3800,3800,6373,8717,4201,4563,-7508,-1671,17,191,818
520230,33415656,34339516,33451696,34467504,3800,3800,6200,6980,4845,4457,-5540,-2826,0,180,816
521231,33415652,34340424,33452302,34468110,3800,3800,6113,4767,5091,2997,-3210,-3405,0,180,816
522232,33415660,34341352,33452908,34468716,3800,3800,6038,2248,5181,1391,-1816,-2737,2,202,817
523239,33415660,34342240,33453536,34469344,3800,3800,5637,639,5151,1226,-1626,97,2,202,817
524234,33415652,34343044,33454142,34469950,3800,3800,5205,-495,5135,-348,-1208,519,13,200,818
525235,33415660,34343940,33454748,34470556,3800,3800,4410,-566,5092,-1484,-588,4770,13,200,818
526236,33415668,34344780,33455354,34471162,3800,3800,2620,1551,4722,-1955,1355,12333,3,183,817
527237,33415676,34345508,33455960,34471768,3800,3800,504,4530,4161,-3774,1787,12541,3,183,817
528238,33415688,34346232,33456566,34472374,3800,3800,-793,6111,3641,-4754,-233,6662,-2,157,817
529239,33415684,34346912,33457172,34472980,3800,3800,-1190,5914,3224,-5711,-1479,3162,-2,157,817
530240,33415692,34347616,33457778,34473586,3800,3800,-1236,4829,2915,-6974,-1275,1562,8,128,817
531241,33415704,34348240,33458384,34474192,3800,3800,-1239,3535,2530,-7652,-1340,95,8,128,817
532242,33415688,34348804,33458990,34474798,3800,3800,-1295,2383,2084,-8286,-964,47,17,132,814
533243,33415708,34349280,33459596,34475404,3800,3800,-1379,1426,1732,-8411,-691,387,17,132,814
534244,33415712,34349768,33460202,34476010,3800,3800,-1446,566,1543,-7729,-1176,831,9,103,814
535245,33415716,34350156,33460808,34476616,3800,3800,-1514,-65,1635,-7147,-1787,2065,9,103,814
536246,33415720,34350560,33461414,34477222,3800,3800,-1569,-565,1992,-6528,-2583,2260,1,89,813
537247,33415720,34350888,33462020,34477828,3800,3800,-1581,-1282,2452,-5582,-2664,1575,1,89,813
538248,33415720,34351160,33462626,34478434,3800,3800,-1533,-2268,2960,-4913,-2451,1262,-3,66,811
539249,33415716,34351372,33463232,34479040,3800,3800,-1396,-3602,3391,-4405,-2042,-16,-3,66,811
540250,33415728,34351524,33463838,34479646,3800,3800,-1185,-5373,3680,-3874,-1370,-866,-4,45,810
541251,33415740,34351676,33464444,34480252,3800,3800,-923,-7234,3824,-3278,-778,-790,-4,45,810
542252,33415716,34351832,33465050,34480858,3800,3800,-670,-9019,3862,-2123,-216,-364,10,46,806
543252,33415744,34351960,33465656,34481464,3800,3800,-652,-10160,3905,-636,503,2349,10,46,806
544253,33415784,34352072,33466262,34482070,3800,3800,-882,-10509,4013,279,878,4562,10,24,808
545255,33415796,34352168,33466868,34482676,3800,3800,-1098,-10521,4173,812,1175,4979,10,24,808
546256,33415816,34352208,33467474,34483282,3800,3800,-1174,-10537,4321,1368,1898,5440,-1,14,809
547257,33415868,34352204,33468080,34483888,3800,3800,-1155,-10453,4307,1664,2781,6120,-1,14,809
548258,33415912,34352248,33468686,34484494,3800,3800,-1133,-10009,4184,2452,3188,7469,16,5,808
549259,33415964,34352292,33469292,34485100,3800,3800,-1140,-9310,3952,2541,3566,7866,16,5,808
550269,33416044,34352352,33469920,34485728,3800,3800,-1096,-8599,3653,2313,3768,7659,7,12,808
551261,33416156,34352404,33470526,34486334,3800,3800,-1061,-7726,3278,2371,4465,8854,7,12,808
552262,33416236,34352412,33471132,34486940,3800,3800,-1081,-6352,2849,2549,5063,10590,12,15,809
553263,33416360,34352408,33471738,34487546,3800,3800,-1020,-4965,2468,2689,5077,9858,12,15,809
554264,33416516,34352468,33472344,34488152,3800,3800,-834,-3785,2164,2930,4947,9429,36,11,805
555265,33416660,34352508,33472950,34488758,3800,3800,-592,-2602,1920,2946,5219,9911,36,11,805
556266,33416856,34352580,33473556,34489364,3800,3800,-306,-1371,1682,2428,5340,9534,33,19,809
557267,33417036,34352608,33474162,34489970,3800,3800,58,-390,1427,1828,4913,8362,33,19,809
558268,33417252,34352644,33474768,34490576,3800,3800,534,296,1211,1470,4426,7439,25,24,810
559269,33417436,34352680,33475374,34491182,3800,3800,1089,708,1005,1069,4015,6603,25,24,810
560270,33417820,34352764,33475980,34491788,3800,3800,1700,1236,812,453,3479,6471,57,27,810
561271,33418160,34352860,33476586,34492394,3800,3800,2257,1903,665,-668,2893,6636,57,27,810
562272,33418652,34352928,33477192,34493000,3800,3800,2711,2782,525,-1584,2438,7055,61,16,811
563273,33419148,34353024,33477798,34493606,3800,3800,3115,3854,319,-2137,2382,7102,61,16,811
564274,33419812,34353116,33478404,34494212,3800,3800,3532,4779,40,-2364,2170,6164,108,30,812
565275,33420376,34353220,33479010,34494818,3800,3800,3973,5360,-300,-2039,1779,5112,108,30,812
566276,33421056,34353344,33479616,34495424,3800,3800,4452,5582,-567,-1617,1378,3771,129,27,814
567277,33421780,34353448,33480222,34496030,3800,3800,4939,5631,-768,-1608,1206,2899,129,27,814
568278,33422480,34353596,33480828,34496636,3800,3800,5381,5655,-840,-1650,394,2299,141,34,816
569279,33423168,34353720,33481434,34497242,3800,3800,5807,5533,-794,-1295,304,1353,141,34,816
570280,33423964,34353824,33482040,34497848,3800,3800,6184,5481,-728,-437,130,1365,141,34,816
571281,33424688,34353936,33482646,34498454,3800,3800,6538,5620,-665,-41,-513,1272,141,34,816
572282,33425452,34354048,33483252,34499060,3800,3800,6842,5683,-599,274,-1124,966,135,39,817
573283,33426316,34354148,33483858,34499666,3800,3800,7114,5784,-687,514,-539,670,135,39,817
574284,33427228,34354244,33484464,34500272,3800,3800,7321,5869,-881,496,-561,357,142,39,818
575285,33428188,34354332,33485070,34500878,3800,3800,7434,5935,-1184,-66,-862,-84,142,39,818
576285,33429060,34354444,33485676,34501484,3800,3800,7431,5974,-1628,-941,-1161,-330,175,31,817
577294,33430104,34354512,33486304,34502112,3800,3800,7351,6113,-2155,-1098,-1192,33,175,31,817
578288,33431076,34354612,33486910,34502718,3800,3800,7111,6593,-2590,-325,-1616,1329,179,21,818
579289,33432020,34354668,33487516,34503324,3800,3800,6738,7671,-2828,149,-2034,2834,179,21,818
580290,33433068,34354732,33488122,34503930,3800,3800,6301,9185,-2934,77,-1995,3723,174,17,818
581291,33433988,34354756,33488728,34504536,3800,3800,5875,10477,-3154,-164,-1461,2755,174,17,818
582292,33434920,34354820,33489334,34505142,3800,3800,5484,11257,-3614,-110,-384,1293,171,21,818
583293,33435868,34354840,33489940,34505748,3800,3800,5047,11539,-4210,480,99,108,171,21,818
584294,33436776,34354880,33490546,34506354,3800,3800,4601,11502,-4731,1091,-81,-616,162,20,818
585295,33437640,34354908,33491152,34506960,3800,3800,4170,11273,-5042,1333,-721,-904,162,20,818
586296,33438628,34354960,33491758,34507566,3800,3800,3791,10986,-5216,1533,-536,-1164,166,21,817
587296,33439400,34354996,33492364,34508172,3800,3800,3400,10553,-5345,1563,108,-1653,166,21,817
588298,33440272,34355036,33492970,34508778,3800,3800,3023,9916,-5446,1422,235,-2027,170,10,816
589299,33441160,34355080,33493576,34509384,3800,3800,2725,9057,-5534,1009,513,-2583,170,10,816
590300,33442044,34355140,33494182,34509990,3800,3800,2497,8057,-5632,509,800,-2636,170,17,819
591301,33442852,34355208,33494788,34510596,3800,3800,2287,7208,-5799,-216,987,-2096,170,17,819
592302,33443748,34355316,33495394,34511202,3800,3800,1937,6563,-6074,-1241,1584,-1676,190,21,819
593302,33444704,34355432,33496000,34511808,3800,3800,1489,5936,-6483,-2257,2209,-1547,190,21,819
594304,33445620,34355536,33496606,34512414,3800,3800,997,5599,-6913,-3079,2494,-520,178,23,820
595305,33446492,34355660,33497212,34513020,3800,3800,503,5420,-7196,-3781,2162,-182,178,23,820
596306,33447428,34355808,33497818,34513626,3800,3800,-39,5433,-7295,-4193,1899,271,177,31,820
597307,33448256,34355952,33498424,34514232,3800,3800,-573,5186,-7218,-3884,1770,-594,177,31,820
598308,33449028,34356128,33499030,34514838,3800,3800,-997,4359,-7060,-2218,1421,-1903,155,39,818
599308,33449884,34356368,33499636,34515444,3800,3800,-1261,3340,-6787,-726,1438,-2091,155,39,818
600310,33450560,34356700,33500242,34516050,3800,3800,-1497,2054,-6485,-589,1578,-2939,134,56,818
601310,33451240,34357088,33500848,34516656,3800,3800,-1762,993,-6217,-1449,1326,-2069,134,56,818
602312,33451940,34357464,33501454,34517262,3800,3800,-1998,-24,-5735,-2483,1109,-2247,124,74,817
603312,33452588,34357988,33502060,34517868,3800,3800,-2209,-1340,-5147,-1122,1079,-3080,124,74,817
604321,33453216,34358508,33502688,34518496,3800,3800,-2566,-2686,-4566,189,1450,-2304,137,95,819
605315,33453888,34359064,33503294,34519102,3800,3800,-3116,-3675,-3861,44,206,-827,137,95,819
606316,33454480,34359700,33503900,34519708,3800,3800,-3610,-4773,-2980,-215,-1492,-1919,116,126,820
607317,33455064,34360296,33504506,34520314,3800,3800,-3971,-5972,-2053,-436,-1373,-1457,116,126,820
608318,33455716,34361044,33505112,34520920,3800,3800,-4199,-6938,-1169,115,-1141,-1083,134,133,819
609318,33456300,34361760,33505718,34521526,3800,3800,-4526,-7352,-443,105,-1057,1030,134,133,819
610321,33456860,34362548,33506324,34522132,3800,3800,-4872,-7434,186,-939,-1275,1905,128,144,820
611321,33457396,34363324,33506930,34522738,3800,3800,-5090,-7666,727,-903,-1732,1086,128,144,820
612323,33457972,34364132,33507536,34523344,3800,3800,-5212,-8121,1141,-158,-1487,1094,123,152,822
613324,33458496,34365008,33508142,34523950,3800,3800,-5282,-8244,1587,173,-2191,2528,123,152,822
614325,33459052,34365924,33508748,34524556,3800,3800,-5297,-8243,2120,286,-2855,2813,123,152,822
615325,33459704,34366860,33509354,34525162,3800,3800,-5238,-8319,2609,903,-2355,2880,123,152,822
616327,33460280,34367772,33509960,34525768,3800,3800,-5017,-8375,3006,1968,-1544,2732,120,189,823
617327,33460976,34368692,33510566,34526374,3800,3800,-4631,-8578,3191,2505,-506,2305,120,189,823
618329,33461744,34369768,33511172,34526980,3800,3800,-4261,-8849,3243,2594,-460,2679,138,197,824
619329,33462488,34370776,33511778,34527586,3800,3800,-3864,-8971,3229,2871,-724,2830,138,197,824
620331,33463244,34371832,33512384,34528192,3800,3800,-3444,-9023,3060,3322,-868,2873,167,199,824
621331,33464084,34372876,33512990,34528798,3800,3800,-3053,-8887,2791,3060,-1838,3447,167,199,824
622333,33464964,34374008,33513596,34529404,3800,3800,-2731,-8578,2495,2487,-2823,4392,153,208,827
623333,33465820,34375020,33514202,34530010,3800,3800,-2494,-7980,2165,2536,-3586,5280,153,208,827
624335,33466816,34376028,33514808,34530616,3800,3800,-2275,-7074,1875,2249,-4806,5960,157,205,827
625335,33467728,34377116,33515414,34531222,3800,3800,-2016,-6040,1586,1662,-5208,6194,157,205,827
626337,33468640,34378160,33516020,34531828,3800,3800,-1652,-5067,1252,1059,-5314,6320,178,203,828
627338,33469720,34379152,33516626,34532434,3800,3800,-1225,-4038,971,669,-5537,6908,178,203,828
628339,33470632,34380056,33517232,34533040,3800,3800,-781,-2839,743,688,-5435,7128,174,209,828
629340,33471528,34380968,33517838,34533646,3800,3800,-297,-1967,519,928,-4811,6147,174,209,828
630341,33472428,34381836,33518444,34534252,3800,3800,309,-1621,231,1353,-3873,4891,211,177,828
631348,33473444,34382696,33519072,34534880,3800,3800,981,-1636,-105,1995,-3516,4130,211,177,828
632342,33474312,34383532,33519678,34535486,3800,3800,1529,-1718,-379,2874,-3123,4253,204,166,827
633343,33475156,34384316,33520284,34536092,3800,3800,1936,-1676,-567,2980,-2127,4364,204,166,827
634344,33476072,34385136,33520890,34536698,3800,3800,2200,-1716,-813,2571,-1839,3866,202,166,827
635345,33476936,34385856,33521496,34537304,3800,3800,2451,-1983,-1234,2468,-1255,2985,202,166,827
636346,33477752,34386636,33522102,34537910,3800,3800,2645,-2277,-1736,2349,-930,3292,187,169,827
637347,33478608,34387432,33522708,34538516,3800,3800,2752,-2359,-2241,2010,-611,3986,187,169,827
638348,33479476,34388120,33523314,34539122,3800,3800,2640,-2267,-2672,1849,-1177,4802,173,152,825
639349,33480204,34388816,33523920,34539728,3800,3800,2488,-1912,-3018,1609,-1176,5419,173,152,825
640350,33481052,34389412,33524526,34540334,3800,3800,2170,-1295,-3390,1859,-260,6480,150,147,824
641351,33481840,34390124,33525132,34540940,3800,3800,1840,-745,-3799,2349,996,5704,150,147,824
642352,33482548,34390824,33525738,34541546,3800,3800,1609,-678,-4254,2149,2450,4325,150,129,823
643353,33483348,34391556,33526344,34542152,3800,3800,1466,-599,-4576,2291,2798,5387,150,129,823
644355,33483944,34392264,33526950,34542758,3800,3800,1348,-209,-4667,2702,2822,6019,156,150,824
645355,33484676,34392880,33527556,34543364,3800,3800,1206,405,-4471,2400,2782,6633,156,150,824
646356,33485304,34393524,33528162,34543970,3800,3800,1050,996,-4033,2355,2504,6495,137,126,823
647357,33485948,34394272,33528768,34544576,3800,3800,734,1705,-3451,2760,2439,7643,137,126,823
648359,33486600,34394976,33529374,34545182,3800,3800,147,2746,-2810,2292,977,8404,135,144,823
649359,33487268,34395824,33529980,34545788,3800,3800,-87,3211,-2328,1688,1656,5230,135,144,823
650360,33487856,34396684,33530586,34546394,3800,3800,-81,2824,-1999,1019,2720,4497,137,179,822
651361,33488456,34397500,33531192,34547000,3800,3800,-152,2640,-1488,1609,1723,5553,137,179,822
652363,33489044,34398464,33531798,34547606,3800,3800,-389,2326,-529,2368,505,4554,134,178,822
653364,33489648,34399444,33532404,34548212,3800,3800,-835,2049,568,2526,-746,4882,134,178,822
654364,33490296,34400308,33533010,34548818,3800,3800,-1708,2195,1566,2324,-1456,6523,133,188,823
655365,33490876,34401240,33533616,34549424,3800,3800,-2526,2169,2143,2254,91,5508,133,188,823
656366,33491604,34402196,33534222,34550030,3800,3800,-2954,1725,2245,2925,1843,5053,146,197,824
657367,33492212,34403136,33534828,34550636,3800,3800,-3142,1275,2248,3974,2441,7103,146,197,824
658377,33492908,34404160,33535456,34551264,3800,3800,-3161,1118,2377,5325,2719,8516,142,194,825
659369,33493592,34405104,33536062,34551870,3800,3800,-3056,996,2585,6088,3256,8559,142,194,825
660371,33494192,34405940,33536668,34552476,3800,3800,-3129,1302,2798,6104,2578,10031,132,200,825
661371,33494884,34406808,33537274,34553082,3800,3800,-3545,2399,2865,5768,2336,11358,132,200,825
662372,33495664,34407616,33537880,34553688,3800,3800,-3913,3532,2721,5675,2867,10012,138,186,825
663373,33496460,34408412,33538486,34554294,3800,3800,-3136,5597,2632,4295,1684,22426,138,186,825
664375,33497244,34409292,33539092,34554900,3800,3800,-2177,7170,2341,4203,3078,12741,150,180,824
665375,33498140,34410120,33539698,34555506,3800,3800,-2654,8321,1737,4200,4153,9448,150,180,824
666376,33498932,34410828,33540304,34556112,3800,3800,-3633,8460,910,3388,3811,4935,154,183,826
667377,33499760,34411532,33540910,34556718,3800,3800,-3916,7098,109,3424,1973,975,154,183,826
668378,33500596,34412204,33541516,34557324,3800,3800,-3682,5647,-398,4014,6,1832,167,175,825
669380,33501376,34412904,33542122,34557930,3800,3800,-3450,4544,-674,3696,-1133,2250,167,175,825
670380,33502144,34413428,33542728,34558536,3800,3800,-2731,4757,-865,694,-2457,9556,148,126,823
671381,33502840,34413932,33543334,34559142,3800,3800,-550,7389,-703,-3251,-5579,31889,148,126,823
672382,33503640,34414388,33543940,34559748,3800,3800,1474,9430,-777,-1522,-2410,15336,156,103,822
673383,33504352,34414732,33544546,34560354,3800,3800,2115,9148,-1244,-612,-254,2529,156,103,822
674384,33504864,34415060,33545152,34560960,3800,3800,2087,7596,-1753,-899,-2053,2616,153,88,820
675386,33505560,34415332,33545758,34561566,3800,3800,2682,6507,-2077,-2246,-4178,9665,153,88,820
676387,33506096,34415536,33546364,34562172,3800,3800,4600,6416,-1864,-4473,-6719,19323,132,65,817
677387,33506624,34415688,33546970,34562778,3800,3800,6509,6420,-1500,-3310,-6472,13367,132,65,817
678388,33507176,34415804,33547576,34563384,3800,3800,7133,5685,-1540,-2095,-3714,3055,117,47,816
679389,33507600,34415912,33548182,34563990,3800,3800,6906,4392,-1900,-2889,-2192,1578,117,47,816
680391,33508032,34416000,33548788,34564596,3800,3800,6584,3104,-2380,-2538,-1884,867,100,26,814
681391,33508464,34416040,33549394,34565202,3800,3800,6379,1818,-2750,-2512,-2016,857,100,26,814
682392,33508796,34416044,33550000,34565808,3800,3800,6147,1032,-3002,-2984,-2257,2569,85,18,813
683393,33509116,34416072,33550606,34566414,3800,3800,5636,795,-3238,-3010,-2706,4725,85,18,813
684395,33509420,34416104,33551212,34567020,3800,3800,4778,1377,-3315,-3017,-3448,7075,79,12,812
685402,33509716,34416136,33551840,34567648,3800,3800,3603,2526,-3092,-2755,-4246,8116,79,12,812
686396,33509972,34416172,33552446,34568254,3800,3800,2127,3898,-2762,-2246,-2859,9418,54,13,810
687397,33510212,34416176,33553052,34568860,3800,3800,871,4710,-2627,-3060,-1283,7050,54,13,810
688398,33510480,34416196,33553658,34569466,3800,3800,505,4245,-2758,-3498,-214,4549,62,11,810
689399,33510688,34416256,33554264,34570072,3800,3800,1483,3077,-2902,-3794,7,13133,62,11,810
690400,33510936,34416328,33554870,34570678,3800,3800,2318,2456,-2698,-2312,-392,11504,53,27,810
691401,33511192,34416404,33555476,34571284,3800,3800,2026,2072,-2262,-867,-218,4474,53,27,810
692403,33511428,34416472,33556082,34571890,3800,3800,1423,1389,-1972,-715,26,2639,64,11,807
693403,33511700,34416544,33556688,34572496,3800,3800,1064,456,-1790,-983,-65,2400,64,11,807
694405,33512024,34416616,33557294,34573102,3800,3800,919,-518,-1645,-1209,367,2582,50,15,811
695405,33512272,34416732,33557900,34573708,3800,3800,849,-1287,-1522,-979,722,2853,50,15,811
696407,33512536,34416864,33558506,34574314,3800,3800,823,-1852,-1397,-691,1229,3027,54,23,810
697407,33512784,34417024,33559112,34574920,3800,3800,793,-2231,-1307,-582,1579,3552,54,23,810
698408,33513016,34417196,33559718,34575526,3800,3800,786,-2497,-1253,-870,1630,3996,57,37,810
699409,33513224,34417324,33560324,34576132,3800,3800,827,-2710,-1208,-924,1757,4046,57,37,810
700410,33513468,34417448,33560930,34576738,3800,3800,874,-2914,-1183,-511,2279,3853,44,28,811
701411,33513736,34417592,33561536,34577344,3800,3800,907,-2997,-1136,-402,2775,4184,44,28,811
702412,33513972,34417768,33562142,34577950,3800,3800,958,-2989,-1030,-446,2238,4523,46,31,812
703413,33514228,34417960,33562748,34578556,3800,3800,1059,-2908,-863,-133,1636,4574,46,31,812
704414,33514516,34418108,33563354,34579162,3800,3800,1212,-2682,-696,-25,1708,5017,54,29,811
705415,33514752,34418224,33563960,34579768,3800,3800,1416,-2311,-586,-205,1629,5099,54,29,811
706416,33515024,34418352,33564566,34580374,3800,3800,1677,-2074,-531,-396,1342,4584,48,26,812
707417,33515288,34418516,33565172,34580980,3800,3800,1997,-1808,-491,-451,1285,4645,48,26,812
708419,33515512,34418704,33565778,34581586,3800,3800,2310,-1390,-463,-327,1604,4859,42,41,810
709419,33515736,34418928,33566384,34582192,3800,3800,2614,-915,-505,-430,1927,4853,42,41,810
710420,33515992,34419172,33566990,34582798,3800,3800,2876,-360,-588,-580,1988,5390,53,44,812
711421,33516192,34419420,33567596,34583404,3800,3800,3139,159,-793,-556,1985,4640,53,44,812
712429,33516416,34419644,33568224,34584032,3800,3800,3526,329,-1113,-648,1218,2979,58,50,813
713423,33516668,34419872,33568830,34584638,3800,3800,3986,430,-1339,-249,658,3279,58,50,813
714424,33516916,34420088,33569436,34585244,3800,3800,4329,621,-1378,391,170,3517,53,54,813
715425,33517132,34420352,33570042,34585850,3800,3800,4570,738,-1344,501,513,2660,53,54,813
716427,33517392,34420576,33570648,34586456,3800,3800,4836,660,-1390,393,1566,1671,42,42,811
717428,33517664,34420756,33571254,34587062,3800,3800,5095,395,-1560,378,1975,1289,42,42,811
718428,33517892,34420932,33571860,34587668,3800,3800,5319,114,-1761,315,1737,1166,50,37,811
719429,33518128,34421096,33572466,34588274,3800,3800,5502,-129,-1823,633,518,1178,50,37,811
720430,33518416,34421280,33573072,34588880,3800,3800,5653,-282,-1794,1083,-18,943,60,42,811
721431,33518636,34421428,33573678,34589486,3800,3800,5776,-663,-1763,910,42,135,60,42,811
722432,33518880,34421572,33574284,34590092,3800,3800,5918,-1166,-1737,773,103,-125,53,31,811
723433,33519168,34421704,33574890,34590698,3800,3800,6032,-1584,-1685,869,198,272,53,31,811
724434,33519396,34421868,33575496,34591304,3800,3800,6113,-1703,-1593,895,600,801,47,31,812
725435,33519616,34422028,33576102,34591910,3800,3800,6156,-1628,-1476,786,745,974,47,31,812
726436,33519932,34422204,33576708,34592516,3800,3800,6170,-1478,-1330,652,637,1154,51,34,811
727437,33520180,34422320,33577314,34593122,3800,3800,6160,-1214,-1155,580,585,1356,51,34,811
728438,33520408,34422464,33577920,34593728,3800,3800,6107,-966,-979,513,828,1089,51,24,812
729439,33520680,34422576,33578526,34594334,3800,3800,6049,-734,-847,372,1088,990,51,24,812
730440,33520992,34422676,33579132,34594940,3800,3800,5966,-508,-726,266,1258,1062,57,25,810
731441,33521200,34422816,33579738,34595546,3800,3800,5863,-197,-601,429,1428,1116,57,25,810
732442,33521448,34422980,33580344,34596152,3800,3800,5697,184,-472,605,1682,1156,44,32,811
733443,33521732,34423144,33580950,34596758,3800,3800,5524,487,-356,625,1869,528,44,32,811
734444,33521960,34423312,33581556,34597364,3800,3800,5355,595,-248,729,2065,-12,58,30,811
735445,33522164,34423504,33582162,34597970,3800,3800,5175,544,-128,899,2268,-481,58,30,811
736446,33522484,34423672,33582768,34598576,3800,3800,4976,339,-9,1164,2370,-876,54,33,812
737447,33522728,34423860,33583374,34599182,3800,3800,4751,99,102,1403,2489,-1090,54,33,812
738448,33522960,34424048,33583980,34599788,3800,3800,4516,-166,214,1537,2748,-1186,49,34,812
739456,33523256,34424228,33584608,34600416,3800,3800,4273,-426,306,1678,2905,-1369,49,34,812
740450,33523536,34424500,33585214,34601022,3800,3800,4019,-755,349,1755,3144,-1640,54,47,811
741452,33523760,34424748,33585820,34601628,3800,3800,3761,-1063,356,1876,3305,-1623,54,47,811
742453,33524048,34424992,33586426,34602234,3800,3800,3462,-1340,354,2052,3370,-1350,55,50,810
743453,33524388,34425260,33587032,34602840,3800,3800,3139,-1520,356,2077,3515,-1105,55,50,810
744454,33524688,34425492,33587638,34603446,3800,3800,2790,-1655,333,2108,3711,-1055,70,55,813
745455,33525012,34425736,33588244,34604052,3800,3800,2456,-1759,247,2098,3914,-1269,70,55,813
746456,33525428,34426052,33588850,34604658,3800,3800,2102,-1880,118,2115,4051,-1113,56,72,814
747457,33525824,34426392,33589456,34605264,3800,3800,1722,-1887,-8,2210,3875,-722,56,72,814
748458,33526276,34426724,33590062,34605870,3800,3800,1285,-1809,-109,2307,3893,-384,82,67,815
749460,33526748,34426988,33590668,34606476,3800,3800,850,-1667,-214,2273,4102,-351,82,67,815
750460,33527232,34427332,33591274,34607082,3800,3800,470,-1527,-348,2179,4645,-371,76,64,815
751461,33527732,34427704,33591880,34607688,3800,3800,141,-1379,-516,2132,4887,-327,76,64,815
752462,33528268,34428056,33592486,34608294,3800,3800,-194,-1195,-662,2093,4725,-93,82,82,815
753464,33528800,34428364,33593092,34608900,3800,3800,-545,-955,-764,2119,4646,43,82,82,815
754464,33529344,34428828,33593698,34609506,3800,3800,-916,-745,-886,1880,4700,-89,102,83,816
755465,33529948,34429196,33594304,34610112,3800,3800,-1255,-627,-1062,1770,4290,-173,102,83,816
756466,33530512,34429572,33594910,34610718,3800,3800,-1551,-521,-1213,1966,3802,-126,99,85,815
757468,33531096,34429924,33595516,34611324,3800,3800,-1801,-416,-1285,2041,3409,-81,99,85,815
758469,33531776,34430364,33596122,34611930,3800,3800,-2032,-311,-1303,1874,3233,-171,116,88,817
759469,33532380,34430800,33596728,34612536,3800,3800,-2212,-319,-1331,1682,3057,-366,116,88,817
760470,33533024,34431192,33597334,34613142,3800,3800,-2377,-350,-1350,1484,2854,-279,126,82,817
761471,33533708,34431616,33597940,34613748,3800,3800,-2540,-338,-1338,1233,2399,145,126,82,817
762472,33534468,34432100,33598546,34614354,3800,3800,-2698,-196,-1296,802,2002,442,121,90,818
763473,33535228,34432528,33599152,34614960,3800,3800,-2880,-55,-1246,323,1472,677,121,90,818
764475,33535956,34433028,33599758,34615566,3800,3800,-3028,210,-1168,-109,864,1046,137,98,819
765475,33536776,34433636,33600364,34616172,3800,3800,-3166,476,-1056,-440,579,1315,137,98,819
766485,33537504,34434164,33600992,34616800,3800,3800,-3280,741,-927,-513,374,1302,173,114,820
767477,33538260,34434836,33601598,34617406,3800,3800,-3438,985,-750,-673,-194,1693,173,114,820
768478,33539120,34435496,33602204,34618012,3800,3800,-3564,1307,-510,-1028,-442,2203,159,118,822
769479,33539888,34436244,33602810,34618618,3800,3800,-3678,1666,-260,-1553,-276,2455,159,118,822
770480,33540596,34436984,33603416,34619224,3800,3800,-3754,2010,-19,-2170,-201,2542,155,158,823
771481,33541404,34437828,33604022,34619830,3800,3800,-3832,2212,242,-2374,-126,2488,155,158,823
772482,33542112,34438660,33604628,34620436,3800,3800,-3891,2280,516,-1950,-255,2540,167,147,824
773483,33542804,34439604,33605234,34621042,3800,3800,-4058,2397,780,-1713,-371,3157,167,147,824
774485,33543572,34440540,33605840,34621648,3800,3800,-4202,2395,1053,-1427,-300,2547,153,176,824
775485,33544256,34441392,33606446,34622254,3800,3800,-4302,2048,1276,-844,-204,1726,153,176,824
776486,33544964,34442408,33607052,34622860,3800,3800,-4394,1739,1470,-124,-262,2373,140,182,825
777487,33545636,34443292,33607658,34623466,3800,3800,-4593,1620,1675,333,-516,3094,140,182,825
778488,33546404,34444132,33608264,34624072,3800,3800,-4872,1719,1783,863,-431,3426,151,192,824
779489,33547080,34444988,33608870,34624678,3800,3800,-5188,1721,1804,982,-800,3767,151,192,824
780490,33547772,34445832,33609476,34625284,3800,3800,-5569,1916,1736,1651,-960,4713,147,179,824
781491,33548508,34446676,33610082,34625890,3800,3800,-5986,2205,1529,1998,-1224,4914,147,179,824
782492,33549120,34447460,33610688,34626496,3800,3800,-6342,2380,1190,2214,-991,4531,141,177,824
783493,33549792,34448120,33611294,34627102,3800,3800,-6602,2325,681,2275,-461,3775,141,177,824
784494,33550464,34448884,33611900,34627708,3800,3800,-6766,1991,98,2410,-1418,3356,138,151,821
785495,33551012,34449588,33612506,34628314,3800,3800,-7007,2056,-393,2367,-2717,5462,138,151,821
786496,33551748,34450304,33613112,34628920,3800,3800,-7148,2185,-836,2087,-2970,4664,140,146,822
787497,33552288,34450980,33613718,34629526,3800,3800,-7231,2130,-1366,2328,-2434,4697,140,146,822
788498,33552988,34451688,33614324,34630132,3800,3800,-7159,2009,-2002,2978,-1117,3951,125,150,822
789499,33553576,34452284,33614930,34630738,3800,3800,-7156,1822,-2668,3544,-295,4428,125,150,822
790500,33554384,34452972,33615536,34631344,3800,3800,-7169,1955,-3289,4061,-526,5108,123,138,822
791501,33555032,34453556,33616142,34631950,3800,3800,-7625,2737,-3648,4913,-1025,7903,123,138,822
792502,33555828,34454180,33616748,34632556,3800,3800,-7836,3113,-4174,3915,-959,4366,143,119,822
793510,33556696,34454808,33617376,34633184,3800,3800,-7746,2849,-4859,3328,-1648,3910,143,119,822
794504,33557496,34455456,33617982,34633790,3800,3800,-7971,3077,-5211,3062,-3830,6951,160,126,822
795505,33558272,34456068,33618588,34634396,3800,3800,-8377,3696,-5409,2401,-3135,6431,160,126,822
796506,33559232,34456740,33619194,34635002,3800,3800,-8629,4008,-5775,2105,-1135,5306,152,123,821
797507,33560156,34457484,33619800,34635608,3800,3800,-8635,4008,-6146,2453,-1536,4962,152,123,821
798508,33560988,34458112,33620406,34636214,3800,3800,-8517,3714,-6261,2653,-2734,4368,158,147,823
799509,33562024,34458712,33621012,34636820,3800,3800,-8159,3459,-5971,2386,-4218,5671,158,147,823
800510,33563124,34459272,33621618,34637426,3800,3800,-5264,8092,-5036,-794,-7813,32767,178,116,824
801511,33564180,34460068,33622224,34638032,3800,3800,-1431,13505,-4302,360,-4159,32767,178,116,824
802512,33565156,34460768,33622830,34638638,3800,3800,65,14018,-4223,2583,305,527,175,136,825
803513,33566220,34461536,33623436,34639244,3800,3800,2,11057,-4340,2683,1079,-1977,203,158,827
804514,33567216,34462440,33624042,34639850,3800,3800,-260,7535,-4492,3655,1429,-3124,203,158,827
805515,33568188,34463232,33624648,34640456,3800,3800,-122,5170,-4456,4101,1319,-1983,198,168,826
806517,33569120,34464108,33625254,34641062,3800,3800,58,3345,-4261,3895,-31,-1902,198,168,826
807517,33570044,34464964,33625860,34641668,3800,3800,-212,2526,-3963,2421,-2957,1526,181,182,825
808519,33570764,34465776,33626466,34642274,3800,3800,-700,2292,-3523,-329,-4616,3005,181,182,825
809519,33571616,34466724,33627072,34642880,3800,3800,-995,1894,-3276,-717,-3959,2484,188,186,826
810520,33572344,34467616,33627678,34643486,3800,3800,-1042,1577,-3266,-391,-3468,3681,188,186,826
811521,33573048,34468520,33628284,34644092,3800,3800,-670,2198,-3073,-1528,-4811,10548,168,191,826
812522,33573796,34469396,33628890,34644698,3800,3800,1682,7350,-2196,-5086,-10707,32767,168,191,826
813523,33574384,34470232,33629496,34645304,3800,3800,4236,12093,-1446,-4576,-7245,27180,145,187,826
814524,33574960,34471028,33630102,34645910,3800,3800,4980,13320,-1086,-1856,-4071,5559,145,187,826
815525,33575480,34471932,33630708,34646516,3800,3800,4434,12428,-953,-970,-4456,3847,136,167,824
816526,33576020,34472660,33631314,34647122,3800,3800,3713,11444,-716,-1768,-6328,4998,136,167,824
817527,33576484,34473352,33631920,34647728,3800,3800,3943,11346,-215,-2071,-8900,15385,115,147,820
818528,33576924,34473900,33632526,34648334,3800,3800,6122,12182,13,945,-11112,32632,115,147,820
819529,33577388,34474476,33633132,34648940,3800,3800,8057,12920,-22,607,-8719,20339,109,121,820
820537,33577820,34475000,33633760,34649568,3800,3800,8080,12144,-150,-1492,-5385,2579,109,121,820
821531,33578264,34475440,33634366,34650174,3800,3800,6919,10740,-437,-1976,-4968,1514,99,90,818
822532,33578724,34475844,33634972,34650780,3800,3800,5590,9347,-848,-2690,-3602,1825,99,90,818
823533,33579192,34476188,33635578,34651386,3800,3800,4633,7993,-1426,-3966,-3059,2712,108,75,817
824534,33579668,34476456,33636184,34651992,3800,3800,5013,6333,-1840,-8471,-5692,15404,108,75,817
825535,33580208,34476748,33636790,34652598,3800,3800,5344,4958,-2164,-7666,-4246,12585,99,75,816
826536,33580692,34477024,33637396,34653204,3800,3800,4324,3882,-2757,-5373,-1252,4177,99,75,816
827537,33581212,34477272,33638002,34653810,3800,3800,2875,2528,-3583,-6024,-455,2310,110,47,814
828538,33581720,34477488,33638608,34654416,3800,3800,1813,642,-4420,-6427,-600,1569,110,47,814
829539,33582276,34477676,33639214,34655022,3800,3800,1213,-1476,-5047,-6158,-741,1204,103,56,814
830540,33582740,34477872,33639820,34655628,3800,3800,819,-3576,-5449,-5661,-859,1185,103,56,814
831541,33583276,34478056,33640426,34656234,3800,3800,476,-5412,-5651,-4911,-1109,1810,113,54,815
832542,33583848,34478272,33641032,34656840,3800,3800,206,-6862,-5676,-3883,-1072,2472,113,54,815
833543,33584412,34478456,33641638,34657446,3800,3800,46,-8009,-5557,-2841,-1203,2780,95,47,815
834544,33584964,34478656,33642244,34658052,3800,3800,-45,-8849,-5289,-1959,-1321,3053,95,47,815
835545,33585560,34478844,33642850,34658658,3800,3800,-109,-9633,-4907,-1037,-1572,2700,124,48,816
836546,33586144,34479044,33643456,34659264,3800,3800,-119,-10474,-4518,-559,-1414,2183,124,48,816
837547,33586760,34479352,33644062,34659870,3800,3800,-71,-11535,-4184,-741,-1072,1924,122,64,817
838548,33587400,34479616,33644668,34660476,3800,3800,-68,-12429,-3878,-295,-750,3017,122,64,817
839549,33587992,34479908,33645274,34661082,3800,3800,-107,-12809,-3459,832,-632,4253,128,61,816
840550,33588588,34480216,33645880,34661688,3800,3800,-91,-12772,-2902,1419,-531,4907,128,61,816
841551,33589208,34480556,33646486,34662294,3800,3800,66,-12554,-2352,1498,-778,5520,125,79,817
842552,33589832,34480932,33647092,34662900,3800,3800,416,-12300,-1921,1363,-937,6011,125,79,817
843553,33590400,34481312,33647698,34663506,3800,3800,1236,-11257,-1671,2434,-698,13185,121,78,818
844554,33591032,34481684,33648304,34664112,3800,3800,2429,-9435,-1557,2699,-556,15811,121,78,818
845555,33591704,34482088,33648910,34664718,3800,3800,3239,-8380,-1335,1177,-908,6666,132,91,818
846556,33592336,34482500,33649516,34665324,3800,3800,3678,-8065,-1032,1055,-586,5805,132,91,818
847564,33593084,34482924,33650144,34665952,3800,3800,4044,-7812,-853,1641,-37,5983,127,96,818
848558,33593772,34483436,33650750,34666558,3800,3800,4441,-7290,-809,1737,309,6031,127,96,818
849559,33594464,34483912,33651356,34667164,3800,3800,4956,-6936,-818,1561,366,5129,124,96,819
850560,33595180,34484392,33651962,34667770,3800,3800,5495,-6650,-876,1289,690,5032,124,96,819
851561,33595956,34484904,33652568,34668376,3800,3800,6051,-6362,-929,756,1211,4790,155,105,819
852562,33596700,34485436,33653174,34668982,3800,3800,6603,-6042,-970,429,1471,4676,155,105,819
853563,33597452,34486016,33653780,34669588,3800,3800,7163,-5674,-1001,0,1673,4853,147,118,820
854564,33598268,34486532,33654386,34670194,3800,3800,7758,-5276,-994,-449,1789,4770,147,118,820
855565,33599020,34487028,33654992,34670800,3800,3800,8368,-4916,-983,-791,1772,4025,158,115,821
856566,33599856,34487472,33655598,34671406,3800,3800,8994,-4845,-997,-1284,2034,2963,158,115,821
857567,33600708,34487976,33656204,34672012,3800,3800,9562,-4827,-973,-1498,1888,3054,158,96,821
858568,33601536,34488416,33656810,34672618,3800,3800,10058,-4709,-857,-1490,1392,2993,158,96,821
859569,33602380,34488936,33657416,34673224,3800,3800,10419,-4438,-624,-2049,925,3131,174,103,822
860570,33603228,34489376,33658022,34673830,3800,3800,10735,-3908,-339,-3151,894,3561,174,103,822
861571,33604096,34489752,33658628,34674436,3800,3800,10980,-3337,-70,-3998,969,3329,173,90,821
862572,33604892,34490164,33659234,34675042,3800,3800,11200,-2922,161,-4290,1161,2453,173,90,821
863573,33605796,34490556,33659840,34675648,3800,3800,11399,-2715,420,-4341,936,1786,178,90,819
864574,33606596,34490928,33660446,34676254,3800,3800,11549,-2448,715,-4444,300,1854,178,90,819
865575,33607404,34491188,33661052,34676860,3800,3800,11615,-2225,1044,-5039,-4,1314,162,81,820
866576,33608276,34491552,33661658,34677466,3800,3800,11680,-2035,1430,-5085,-201,1041,162,81,820
867577,33609052,34491876,33662264,34678072,3800,3800,11667,-1900,1891,-4664,-386,846,152,58,820
868578,33609760,34492164,33662870,34678678,3800,3800,11640,-1942,2426,-3949,-619,191,152,58,820
869579,33610492,34492396,33663476,34679284,3800,3800,11563,-2347,3017,-2492,-894,-994,160,70,818
870580,33611220,34492668,33664082,34679890,3800,3800,11406,-3120,3546,-470,-1022,-1862,160,70,818
871581,33611884,34492964,33664688,34680496,3800,3800,11117,-3929,4063,1316,-906,-2268,148,65,817
872583,33612544,34493220,33665294,34681102,3800,3800,10790,-4857,4565,1809,-441,-2894,148,65,817
873583,33613280,34493444,33665900,34681708,3800,3800,10436,-5836,4964,1555,-613,-3024,121,60,816
874594,33613920,34493648,33666528,34682336,3800,3800,10039,-6612,5329,1989,-653,-2585,121,60,816
875585,33614620,34493864,33667134,34682942,3800,3800,9533,-6967,5686,2559,-277,-1584,136,48,817
876587,33615220,34494156,33667740,34683548,3800,3800,8663,-6645,6050,3129,-465,345,136,48,817
877587,33615884,34494408,33668346,34684154,3800,3800,7753,-5952,6389,2758,-532,483,119,44,816
878588,33616432,34494676,33668952,34684760,3800,3800,6948,-5087,6669,2434,9,1142,119,44,816
879589,33617148,34494924,33669558,34685366,3800,3800,6333,-3989,6822,2419,559,1863,129,66,816
880591,33617708,34495164,33670164,34685972,3800,3800,5467,-2146,6812,2904,1837,4981,129,66,816
881591,33618356,34495496,33670770,34686578,3800,3800,4380,172,6661,3299,2042,5311,125,71,817
882592,33618992,34495852,33671376,34687184,3800,3800,3601,1721,6430,2949,1747,1554,125,71,817
883593,33619644,34496200,33671982,34687790,3800,3800,2980,2772,6048,2365,2842,2169,132,71,815
884595,33620328,34496568,33672588,34688396,3800,3800,2155,4184,5299,2537,5073,3275,132,71,815
885595,33621016,34496900,33673194,34689002,3800,3800,1188,5648,4334,2665,6160,2517,136,77,818
886597,33621736,34497396,33673800,34689608,3800,3800,421,6823,3237,2910,7278,864,136,77,818
887597,33622428,34497860,33674406,34690214,3800,3800,-221,7437,2015,3580,8636,-347,147,88,819
888599,33623272,34498272,33675012,34690820,3800,3800,-733,7720,830,4525,9145,-1416,147,88,819
889599,33624164,34498808,33675618,34691426,3800,3800,-1169,7579,-268,6047,9131,-2736,138,91,819
890600,33624948,34499344,33676224,34692032,3800,3800,-1487,7418,-1222,7180,8278,-3032,138,91,819
891601,33625792,34499860,33676830,34692638,3800,3800,-1717,7318,-1844,7348,6514,-2858,164,111,821
892603,33626856,34500512,33677436,34693244,3800,3800,-1829,7201,-2241,7015,5883,-2798,164,111,821
893604,33627724,34501032,33678042,34693850,3800,3800,-1986,7107,-2596,6837,6152,-2829,178,104,821
894604,33628672,34501680,33678648,34694456,3800,3800,-2239,7145,-2968,7222,5802,-2989,178,104,821
895605,33629712,34502296,33679254,34695062,3800,3800,-2373,6906,-3330,7353,5180,-4473,188,122,823
896607,33630620,34502952,33679860,34695668,3800,3800,-2287,6001,-3721,7197,4922,-5993,188,122,823
897608,33631580,34503576,33680466,34696274,3800,3800,-2039,4903,-4076,6854,3628,-5890,182,131,823
898608,33632544,34504388,33681072,34696880,3800,3800,-1671,4359,-4226,6066,2074,-4307,182,131,823
899609,33633456,34505104,33681678,34697486,3800,3800,-1246,4397,-4142,4837,1294,-3254,194,134,824
900610,33634340,34505840,33682284,34698092,3800,3800,-880,4713,-4030,4330,1294,-2181,194,134,824
901618,33635296,34506604,33682912,34698720,3800,3800,-667,5971,-3944,4003,1077,437,176,165,824
902612,33636184,34507436,33683518,34699326,3800,3800,-712,8048,-3779,3197,-119,2695,176,165,824
903613,33637056,34508224,33684124,34699932,3800,3800,-1146,11122,-3315,2753,-2613,6267,198,167,826
904614,33637904,34509104,33684730,34700538,3800,3800,-1698,14369,-2885,2010,-1865,5835,198,167,826
905615,33638860,34509960,33685336,34701144,3800,3800,-1951,16798,-2916,1668,161,2336,199,176,825
906616,33639712,34510756,33685942,34701750,3800,3800,-1960,18364,-3311,1250,131,1219,199,176,825
907617,33640600,34511572,33686548,34702356,3800,3800,-2110,19919,-3759,804,-560,2642,195,172,826
908618,33641520,34512280,33687154,34702962,3800,3800,-2513,21853,-4160,1310,-1103,3151,195,172,826
909620,33642420,34513100,33687760,34703568,3800,3800,-2820,23355,-4480,2027,-988,315,174,167,826
910620,33643256,34513760,33688366,34704174,3800,3800,-2963,23940,-4878,2166,133,-1614,174,167,826
911621,33644128,34514520,33688972,34704780,3800,3800,-3097,23834,-5403,2043,574,-2587,183,167,825
912622,33644860,34515316,33689578,34705386,3800,3800,-3281,23483,-5982,2011,845,-3221,183,167,825
913623,33645504,34516136,33690184,34705992,3800,3800,-3617,22840,-6629,2398,1329,-3906,145,176,824
914624,33646228,34517016,33690790,34706598,3800,3800,-4017,21848,-7434,2597,2068,-4952,145,176,824
915625,33646888,34517772,33691396,34707204,3800,3800,-4358,20252,-8381,2941,2422,-6213,139,153,822
916626,33647504,34518648,33692002,34707810,3800,3800,-4736,18146,-9465,2917,2745,-7028,139,153,822
917627,33648112,34519360,33692608,34708416,3800,3800,-5271,16209,-10787,1945,3877,-5691,133,157,822
918628,33648788,34520064,33693214,34709022,3800,3800,-5762,14565,-12445,457,5524,-5403,133,157,822
919629,33649400,34520736,33693820,34709628,3800,3800,-6027,12847,-14301,-182,5582,-5937,140,147,822
920630,33649956,34521532,33694426,34710234,3800,3800,-6169,11211,-15898,445,4288,-5420,140,147,822
921631,33650556,34522268,33695032,34710840,3800,3800,-6419,9432,-16976,1304,2368,-5807,120,154,821
922632,33651112,34523108,33695638,34711446,3800,3800,-6778,7491,-17595,1291,1184,-6046,120,154,821
923633,33651628,34523812,33696244,34712052,3800,3800,-7201,5413,-17910,127,-140,-6137,120,157,822
924634,33652188,34524688,33696850,34712658,3800,3800,-7645,3480,-17973,-807,-2733,-5760,120,157,822
925635,33652652,34525536,33697456,34713264,3800,3800,-7969,1799,-17669,-1497,-5527,-4861,106,176,821
926636,33653104,34526308,33698062,34713870,3800,3800,-8263,721,-16995,-2342,-7023,-3068,106,176,821
927637,33653560,34527264,33698668,34714476,3800,3800,-8500,48,-16033,-3739,-7764,-2103,87,196,819
928645,33653960,34528244,33699296,34715104,3800,3800,-8631,-605,-14944,-5306,-8096,-1720,87,196,819
929639,33654364,34529152,33699902,34715710,3800,3800,-8691,-1046,-13804,-6228,-7591,-642,74,209,821
930640,33654744,34530116,33700508,34716316,3800,3800,-8787,-1251,-12576,-7007,-7405,305,74,209,821
931641,33655092,34531204,33701114,34716922,3800,3800,-8862,-1329,-11250,-7688,-7992,814,80,212,822
932642,33655464,34532252,33701720,34717528,3800,3800,-8902,-1445,-9904,-8457,-7813,1437,80,212,822
933643,33655824,34533320,33702326,34718134,3800,3800,-8913,-1413,-8648,-9023,-7594,2349,77,207,822
934644,33656164,34534348,33702932,34718740,3800,3800,-8928,-1413,-7518,-9269,-7714,2420,77,207,822
935645,33656544,34535296,33703538,34719346,3800,3800,-8894,-1601,-6430,-9445,-7409,2318,79,204,822
936646,33656916,34536388,33704144,34719952,3800,3800,-8796,-2704,-5249,-11648,-7336,1365,79,204,822
937648,33657392,34537280,33704750,34720558,3800,3800,-8506,-6667,-3852,-16036,-7838,-2126,91,201,820
938648,33657788,34538192,33705356,34721164,3800,3800,-7972,-12171,-2289,-16276,-8188,-1252,91,201,820
939649,33658220,34539040,33705962,34721770,3800,3800,1193,-16358,-1428,-2806,-3844,32767,91,192,821
940651,33658712,34539928,33706568,34722376,3800,3800,13185,-15774,-1738,5190,-2785,32767,91,192,821
941652,33659192,34540880,33707174,34722982,3800,3800,16768,-13539,-1055,-5998,-6269,11041,105,183,821
942653,33659680,34541872,33707780,34723588,3800,3800,12736,-9158,632,-3960,-5819,21327,105,183,821
943653,33660280,34542760,33708386,34724194,3800,3800,6706,-2001,3380,-3064,-11881,26271,111,200,822
944654,33660828,34543628,33708992,34724800,3800,3800,2541,1461,6059,-8576,-8977,13428,111,200,822
945655,33661428,34544460,33709598,34725406,3800,3800,1836,-1080,6863,-7677,-745,-42,131,192,822
946656,33662068,34545264,33710204,34726012,3800,3800,2763,-6359,6467,-5209,3262,-2911,131,192,822
947657,33662688,34546032,33710810,34726618,3800,3800,3552,-9183,5980,-1324,3843,-542,131,156,822
948658,33663296,34546712,33711416,34727224,3800,3800,3815,-10732,5711,30,3901,-1511,131,156,822
949659,33664008,34547304,33712022,34727830,3800,3800,3648,-11602,5544,-102,5023,1267,141,124,821
950660,33664708,34547888,33712628,34728436,3800,3800,3328,-12180,5477,871,3213,2832,141,124,821
951661,33665428,34548396,33713234,34729042,3800,3800,3051,-12528,5534,1346,894,3638,149,120,821
952662,33666252,34548840,33713840,34729648,3800,3800,2959,-12688,5729,-46,-249,4268,149,120,821
953663,33667012,34549320,33714446,34730254,3800,3800,2818,-12898,5856,-641,-443,4735,153,88,819
954664,33667760,34549664,33715052,34730860,3800,3800,2525,-12682,5694,-301,-74,5961,153,88,819
955672,33668480,34550004,33715680,34731488,3800,3800,1722,-11867,5253,-1504,1101,8087,157,72,819
956666,33669288,34550372,33716286,34732094,3800,3800,498,-10482,4573,-2441,1928,9452,157,72,819
957667,33670028,34550708,33716892,34732700,3800,3800,-691,-9340,3904,-2826,2005,8828,147,83,819
958668,33670708,34551044,33717498,34733306,3800,3800,-1508,-8501,3425,-2360,1180,7777,147,83,819
959669,33671432,34551356,33718104,34733912,3800,3800,-2061,-8536,3109,-1817,835,5303,155,63,817
960670,33672032,34551688,33718710,34734518,3800,3800,-2529,-9054,3080,-1805,3,5831,155,63,817
961671,33672608,34551968,33719316,34735124,3800,3800,-3011,-9709,3203,-722,251,7619,127,72,816
962672,33673180,34552244,33719922,34735730,3800,3800,-3325,-10279,3194,1936,2075,8543,127,72,816
963673,33673612,34552520,33720528,34736336,3800,3800,-3429,-10964,3167,5141,2206,11258,112,62,816
964675,33674024,34552760,33721134,34736942,3800,3800,-3351,-11594,3199,7537,1481,12268,112,62,816
965675,33674388,34553024,33721740,34737548,3800,3800,-3317,-12620,3344,8979,57,11121,68,66,815
966676,33674732,34553312,33722346,34738154,3800,3800,-3335,-13868,3602,10068,-1794,9728,68,66,815
967677,33674988,34553560,33722952,34738760,3800,3800,-3246,-15327,3781,8834,-1336,7333,68,46,813
968678,33675240,34553840,33723558,34739366,3800,3800,-2685,-15591,3706,8838,-1345,13556,68,46,813
969679,33675452,34554164,33724164,34739972,3800,3800,-768,-13150,3297,10431,-3251,31836,55,52,813
970680,33675572,34554596,33724770,34740578,3800,3800,1323,-10238,3034,8470,-3825,24607,55,52,813
971681,33675660,34555000,33725376,34741184,3800,3800,2140,-9394,3194,5631,-3330,6181,24,90,810
972682,33675732,34555412,33725982,34741790,3800,3800,2223,-10016,3374,6087,-3193,3866,24,90,810
973683,33675768,34555920,33726588,34742396,3800,3800,2501,-10927,3498,5825,-3470,3803,23,100,812
974684,33675792,34556464,33727194,34743002,3800,3800,3038,-10951,3657,5314,-3426,5630,23,100,812
975685,33675840,34557076,33727800,34743608,3800,3800,3689,-10184,3806,5729,-3034,5837,24,124,813
976686,33675884,34557688,33728406,34744214,3800,3800,4335,-9051,4021,5343,-2932,7003,24,124,813
977687,33675928,34558308,33729012,34744820,3800,3800,4823,-7087,4276,4190,-3226,9679,8,120,813
978688,33675948,34559020,33729618,34745426,3800,3800,5251,-4914,4481,3340,-3698,9429,8,120,813
979689,33675952,34559696,33730224,34746032,3800,3800,5691,-2395,4673,2772,-4085,10181,-2,129,814
980690,33675940,34560480,33730830,34746638,3800,3800,6212,483,4926,1793,-4386,10602,-2,129,814
981691,33675940,34561356,33731436,34747244,3800,3800,6799,3432,5181,1040,-4849,10384,0,159,813
982701,33675972,34562160,33732064,34747872,3800,3800,7428,6322,5420,466,-4873,9790,0,159,813
983693,33676028,34563004,33732670,34748478,3800,3800,8089,9105,5625,389,-4687,8804,15,157,814
984694,33676104,34563796,33733276,34749084,3800,3800,8778,11746,5797,507,-5121,7703,15,157,814
985695,33676364,34564748,33733882,34749690,3800,3800,9416,14235,5968,39,-5648,7054,35,164,817
986697,33676684,34565740,33734488,34750296,3800,3800,9997,16767,6136,60,-6450,6526,35,164,817
987697,33677104,34566612,33735094,34750902,3800,3800,10500,19255,6344,503,-6960,5592,59,181,819
988698,33677464,34567592,33735700,34751508,3800,3800,10910,21609,6597,1246,-7075,4551,59,181,819
989699,33677952,34568508,33736306,34752114,3800,3800,11230,23311,6798,2454,-6614,2047,121,183,822
990700,33678552,34569452,33736912,34752720,3800,3800,11485,23933,6827,3513,-5794,-621,121,183,822
991701,33679232,34570516,33737518,34753326,3800,3800,11639,24002,6641,3980,-5116,-1804,134,193,823
992702,33679800,34571524,33738124,34753932,3800,3800,11682,23668,6329,3886,-4836,-3150,134,193,823
993703,33680360,34572456,33738730,34754538,3800,3800,11510,23045,6058,3978,-5034,-3433,122,200,822
994704,33681052,34573384,33739336,34755144,3800,3800,11106,22488,6019,4685,-5203,-3022,122,200,822
995705,33681636,34574328,33739942,34755750,3800,3800,10517,21971,6107,5871,-4403,-3129,134,196,823
996706,33682392,34575280,33740548,34756356,3800,3800,9789,21459,6057,6490,-2904,-3275,134,196,823
997707,33683156,34576304,33741154,34756962,3800,3800,9109,20563,5762,5623,-2239,-4711,149,194,824
998708,33683952,34577268,33741760,34757568,3800,3800,8638,19000,5271,4559,-2236,-6902,149,194,824
999709,33684676,34578220,33742366,34758174,3800,3800,8354,16799,4670,3888,-2036,-8652,170,186,825
1000710,33685624,34579100,33742972,34758780,3800,3800,8101,14377,4077,4082,-1841,-9343,170,186,825
1001711,33686524,34579984,33743578,34759386,3800,3800,7810,12039,3564,4226,-1846,-9325,185,201,825
1002712,33687396,34580924,33744184,34759992,3800,3800,7350,9906,3132,4093,-1345,-8771,185,201,825
1003713,33688476,34581884,33744790,34760598,3800,3800,6808,7980,2691,4602,-597,-8332,205,194,825
1004715,33689320,34582856,33745396,34761204,3800,3800,6086,6705,2363,5014,-800,-6605,205,194,825
1005715,33690364,34583864,33746002,34761810,3800,3800,5185,5908,2103,4223,-774,-6032,199,201,825
1006716,33691440,34584836,33746608,34762416,3800,3800,4163,5367,1513,3393,1222,-5769,199,201,825
1007717,33692520,34585748,33747214,34763022,3800,3800,3127,5133,456,2230,3345,-4861,190,198,827
1008718,33693572,34586656,33747820,34763628,3800,3800,2171,4971,-894,2216,4252,-5260,190,198,827
1009726,33694660,34587592,33748448,34764256,3800,3800,1303,4718,-2180,2485,4103,-5445,207,176,827
1010720,33695788,34588576,33749054,34764862,3800,3800,627,4806,-3067,2454,3116,-4855,207,176,827
1011721,33696748,34589368,33749660,34765468,3800,3800,13,4928,-3551,1975,2483,-5092,206,187,827
1012722,33697752,34590412,33750266,34766074,3800,3800,-615,5313,-3810,1271,2543,-4193,206,187,827
1013723,33698808,34591384,33750872,34766680,3800,3800,-1363,5712,-4119,1171,3734,-4580,199,195,827
1014724,33699720,34592496,33751478,34767286,3800,3800,-1983,5873,-4451,1320,3419,-5537,199,195,827
1015725,33700736,34593548,33752084,34767892,3800,3800,-2500,5769,-4490,1072,2546,-5930,204,210,828
1016726,33701644,34594608,33752690,34768498,3800,3800,-2865,5236,-4293,96,2609,-6966,204,210,828
1017727,33702544,34595696,33753296,34769104,3800,3800,-3199,4568,-3974,-271,2632,-7051,186,216,828
1018728,33703412,34596624,33753902,34769710,3800,3800,-3537,3821,-3508,-545,2784,-7386,186,216,828
1019729,33704344,34597792,33754508,34770316,3800,3800,-3896,2997,-2978,-323,3180,-7596,179,234,830
1020731,33705160,34599104,33755114,34770922,3800,3800,-4264,2279,-2488,-709,3062,-6750,179,234,830
1021731,33705924,34600196,33755720,34771528,3800,3800,-4655,2005,-2069,-1182,2721,-5645,174,236,829
1022732,33706764,34601268,33756326,34772134,3800,3800,-5093,1917,-1701,-1366,2874,-5415,174,236,829
1023733,33707480,34602272,33756932,34772740,3800,3800,-5510,1672,-1313,-1370,2742,-5733,151,203,827
1024734,33708204,34603228,33757538,34773346,3800,3800,-5909,1244,-902,-1078,1715,-5499,151,203,827
1025735,33708860,34604240,33758144,34773952,3800,3800,-6300,812,-532,-1330,1135,-5147,150,189,826
1026736,33709612,34605036,33758750,34774558,3800,3800,-6671,307,-249,-1870,1090,-5246,150,189,826
1027737,33710204,34605856,33759356,34775164,3800,3800,-6987,-178,-2,-2039,694,-4855,146,189,822
1028739,33710768,34606712,33759962,34775770,3800,3800,-7291,-463,187,-1882,-331,-3649,146,189,822
1029739,33711360,34607440,33760568,34776376,3800,3800,-7533,-712,251,-2037,-1126,-3758,115,174,821
1030740,33711896,34608236,33761174,34776982,3800,3800,-7733,-1169,196,-2087,-2181,-3707,115,174,821
1031741,33712380,34609112,33761780,34777588,3800,3800,-7827,-1693,167,-1790,-3773,-2788,117,166,821
1032742,33712944,34609852,33762386,34778194,3800,3800,-7806,-2191,191,-1742,-4743,-2210,117,166,821
1033743,33713472,34610584,33762992,34778800,3800,3800,-7689,-2681,185,-2041,-5741,-1772,108,159,820
1034744,33714040,34611296,33763598,34779406,3800,3800,-7506,-3127,112,-2135,-6617,-1223,108,159,820
1035745,33714628,34611980,33764204,34780012,3800,3800,-7287,-3433,-24,-2060,-7229,-414,118,144,821
1036753,33715216,34612652,33764832,34780640,3800,3800,-7069,-3770,-261,-1895,-6944,-361,118,144,821
1037747,33715856,34613256,33765438,34781246,3800,3800,-6837,-4350,-621,-2063,-4957,-225,120,126,819
1038748,33716496,34613820,33766044,34781852,3800,3800,-6642,-4902,-1123,-2867,-3535,883,120,126,819
1039749,33717120,34614280,33766650,34782458,3800,3800,-6644,-5267,-1784,-3892,-3657,2232,144,112,819
1040750,33717760,34614760,33767256,34783064,3800,3800,-6805,-5269,-2586,-4793,-3731,3508,144,112,819
1041751,33718384,34615156,33767862,34783670,3800,3800,-7149,-4825,-3446,-5505,-3876,5162,124,99,819
1042752,33719088,34615496,33768468,34784276,3800,3800,-7678,-4025,-4406,-6338,-3158,6298,124,99,819
1043753,33719700,34615788,33769074,34784882,3800,3800,-7913,-4134,-5349,-8680,-4709,5408,112,83,818
1044754,33720304,34616060,33769680,34785488,3800,3800,1990,-13863,-4668,-28283,-10489,32767,112,83,818
1045755,33720948,34616276,33770286,34786094,3800,3800,11203,-13816,-1900,-18338,-2405,32767,136,51,817
1046756,33721560,34616456,33770892,34786700,3800,3800,5916,2052,418,-6974,7051,32767,136,51,817
1047757,33722104,34616612,33771498,34787306,3800,3800,-55,10970,-1247,-7289,14071,32767,104,50,815
1048758,33722776,34616748,33772104,34787912,3800,3800,175,6525,-4277,-12293,2867,6975,104,50,815
1049759,33723408,34616852,33772710,34788518,3800,3800,1834,-1165,-6231,-11968,1297,-2034,110,27,814
1050760,33723976,34616936,33773316,34789124,3800,3800,2907,-6049,-6807,-7671,28,-2268,110,27,814
1051761,33724652,34617024,33773922,34789730,3800,3800,3152,-8443,-6803,-1474,-616,-3528,120,22,813
1052762,33725244,34617088,33774528,34790336,3800,3800,3106,-10292,-6544,1002,-1333,-3042,120,22,813
1053763,33725888,34617140,33775134,34790942,3800,3800,3140,-12500,-5895,1734,-1761,-3612,123,26,813
1054764,33726576,34617188,33775740,34791548,3800,3800,3299,-15433,-5105,3338,-1425,-4257,123,26,813
1055765,33727208,34617252,33776346,34792154,3800,3800,3238,-18034,-4069,4519,-1234,-3000,126,15,814
1056766,33727856,34617344,33776952,34792760,3800,3800,3193,-20092,-2956,4512,-596,-2585,126,15,814
1057767,33728548,34617432,33777558,34793366,3800,3800,3074,-21727,-2054,4606,-368,-1278,131,15,814
1058768,33729228,34617524,33778164,34793972,3800,3800,3115,-22660,-1254,3727,380,859,131,15,814
1059769,33729908,34617640,33778770,34794578,3800,3800,3097,-22673,-425,2672,990,3615,140,27,811
1060770,33730624,34617764,33779376,34795184,3800,3800,3151,-21845,292,725,1216,4724,140,27,811
1061771,33731412,34617888,33779982,34795790,3800,3800,3332,-20835,894,-2065,2095,5521,149,37,815
1062772,33732140,34618048,33780588,34796396,3800,3800,3681,-19360,1355,-3866,3016,6916,149,37,815
1063780,33732920,34618196,33781216,34797024,3800,3800,4064,-17260,1707,-5210,3786,8407,131,45,816
1064774,33733732,34618412,33781822,34797630,3800,3800,4415,-14398,2137,-6910,3521,10105,131,45,816
1065775,33734436,34618640,33782428,34798236,3800,3800,4802,-11199,2730,-8431,2239,10408,147,59,817
1066776,33735228,34618868,33783034,34798842,3800,3800,5140,-8017,3335,-9140,2638,10892,147,59,817
1067777,33736052,34619092,33783640,34799448,3800,3800,5278,-4081,3819,-8715,3506,13313,166,62,818
1068779,33736836,34619296,33784246,34800054,3800,3800,5394,-175,4273,-8297,2924,11688,166,62,818
1069779,33737552,34619564,33784852,34800660,3800,3800,5765,2856,4789,-8621,1949,8578,168,59,818
1070780,33738352,34619848,33785458,34801266,3800,3800,6325,4713,5297,-8574,1801,5737,168,59,818
1071781,33739084,34620112,33786064,34801872,3800,3800,6895,5863,5765,-7193,1875,4082,154,53,817
1072782,33739756,34620388,33786670,34802478,3800,3800,7344,6501,6247,-4941,2284,2734,154,53,817
1073783,33740512,34620640,33787276,34803084,3800,3800,7569,6910,6748,-1714,2827,2069,144,71,818
1074784,33741124,34620924,33787882,34803690,3800,3800,7705,6584,7118,871,3409,-1047,144,71,818
1075785,33741784,34621280,33788488,34804296,3800,3800,8082,5089,7259,2474,3816,-4820,121,72,818
1076787,33742456,34621608,33789094,34804902,3800,3800,8690,2634,7234,3271,3712,-6954,121,72,818
1077787,33743076,34621892,33789700,34805508,3800,3800,9290,-136,7206,3884,2983,-6980,136,58,817
1078788,33743744,34622160,33790306,34806114,3800,3800,9552,-2069,7536,4960,260,-3729,136,58,817
1079789,33744424,34622480,33790912,34806720,3800,3800,9462,-3003,8007,5153,-558,-1848,116,74,817
1080790,33745148,34622848,33791518,34807326,3800,3800,9275,-3705,8109,4706,368,-2439,116,74,817
1081791,33745820,34623228,33792124,34807932,3800,3800,9270,-4920,7811,4273,978,-4131,129,78,817
1082792,33746624,34623536,33792730,34808538,3800,3800,9284,-5988,7346,4133,771,-2591,129,78,817
1083793,33747392,34623920,33793336,34809144,3800,3800,8951,-6082,6892,3857,-128,686,162,74,818
1084794,33748188,34624336,33793942,34809750,3800,3800,8328,-5121,6474,3748,-1101,2668,162,74,818
1085795,33748988,34624712,33794548,34810356,3800,3800,7714,-3970,6019,3509,-1193,2058,155,93,819
1086796,33749868,34625120,33795154,34810962,3800,3800,7311,-3119,5404,3310,-1,1112,155,93,819
1087797,33750720,34625580,33795760,34811568,3800,3800,6946,-2220,4680,3541,555,2058,167,90,820
1088798,33751564,34626024,33796366,34812174,3800,3800,6489,-1024,4081,4296,226,2574,167,90,820
1089799,33752508,34626420,33796972,34812780,3800,3800,5909,401,3563,5038,469,2746,156,87,820
1090809,33753456,34626940,33797600,34813408,3800,3800,5326,1872,2989,5393,1198,2485,156,87,820
1091801,33754368,34627424,33798206,34814014,3800,3800,4645,3486,2340,6259,2005,3629,185,87,822
1092802,33755408,34627896,33798812,34814620,3800,3800,3822,5294,1716,7269,2453,3837,185,87,822
1093803,33756372,34628424,33799418,34815226,3800,3800,3032,6963,1134,7667,2875,2593,178,99,819
1094804,33757328,34628956,33800024,34815832,3800,3800,2433,8138,539,7893,3076,793,178,99,819
1095805,33758396,34629408,33800630,34816438,3800,3800,1964,8793,-39,7978,3226,-824,194,103,823
1096806,33759524,34630000,33801236,34817044,3800,3800,1531,9113,-553,8140,3211,-1594,194,103,823
1097807,33760568,34630624,33801842,34817650,3800,3800,1100,9406,-931,8463,2750,-1917,199,114,823
1098808,33761544,34631260,33802448,34818256,3800,3800,568,9756,-1217,8858,3156,-1778,199,114,823
1099809,33762568,34631892,33803054,34818862,3800,3800,108,9977,-1535,8982,3893,-2537,202,128,824
1100810,33763528,34632556,33803660,34819468,3800,3800,-235,10050,-1895,8854,3955,-2817,202,128,824
1101811,33764472,34633252,33804266,34820074,3800,3800,-403,10149,-2223,8094,3814,-3175,177,139,824
1102812,33765472,34633932,33804872,34820680,3800,3800,-365,9970,-2452,7227,3244,-4116,177,139,824
1103813,33766436,34634732,33805478,34821286,3800,3800,-172,9770,-2575,6714,2637,-4039,195,154,823
1104814,33767244,34635532,33806084,34821892,3800,3800,65,9931,-2556,5828,1955,-3117,195,154,823
1105815,33768208,34636316,33806690,34822498,3800,3800,150,10666,-2527,4876,2200,-1845,192,151,824
1106816,33769076,34637076,33807296,34823104,3800,3800,44,11783,-2507,3796,1837,-975,192,151,824
1107817,33769960,34637832,33807902,34823710,3800,3800,-219,13220,-2437,3059,1060,97,198,173,825
1108818,33770912,34638652,33808508,34824316,3800,3800,-708,15116,-2344,2877,1236,1645,198,173,825
1109819,33771820,34639436,33809114,34824922,3800,3800,-1330,17404,-2317,2203,1974,2359,199,154,825
1110820,33772760,34640224,33809720,34825528,3800,3800,-1783,19277,-2492,717,2029,360,199,154,825
1111821,33773788,34640900,33810326,34826134,3800,3800,-2085,20469,-2947,-320,3860,-1361,206,145,826
1112822,33774656,34641588,33810932,34826740,3800,3800,-2343,21282,-3771,-1099,5192,-2060,206,145,826
1113823,33775516,34642204,33811538,34827346,3800,3800,-2541,21804,-4798,-1584,4925,-2696,182,136,825
1114824,33776292,34642900,33812144,34827952,3800,3800,-2731,21961,-5918,-1427,4325,-3680,182,136,825
1115825,33777136,34643404,33812750,34828558,3800,3800,-3125,21845,-7187,-742,4449,-4263,147,123,821
1116826,33777864,34643948,33813356,34829164,3800,3800,-3628,21157,-8594,648,3595,-5928,147,123,821
1117834,33778572,34644540,33813984,34829792,3800,3800,-4325,19871,-9774,3264,262,-5835,151,127,821
1118828,33779320,34645104,33814590,34830398,3800,3800,-5418,19404,-10474,3674,-3709,-1946,151,127,821
1119829,33780012,34645704,33815196,34831004,3800,3800,-6279,18922,-11128,1321,-2776,-4578,156,128,821
1120830,33780720,34646364,33815802,34831610,3800,3800,-6624,17528,-12096,-565,-1198,-7106,156,128,821
1121831,33781452,34647016,33816408,34832216,3800,3800,-6505,11715,-13694,1637,-3005,-10991,152,128,821
1122832,33782112,34647556,33817014,34832822,3800,3800,-6513,8389,-14072,1490,-4287,-10819,152,128,821
1123833,33782796,34648144,33817620,34833428,3800,3800,-6700,5719,-14338,-423,-5615,-7536,150,119,822
1124834,33783520,34648656,33818226,34834034,3800,3800,-6937,4007,-14534,-1938,-6819,-5297,150,119,822
1125835,33784156,34649276,33818832,34834640,3800,3800,-7035,2372,-14582,-1727,-7245,-6428,149,108,818
1126836,33784780,34649804,33819438,34835246,3800,3800,-7166,500,-14434,-1376,-7963,-5999,149,108,818
1127837,33785456,34650432,33820044,34835852,3800,3800,-7213,-899,-14017,-3168,-8638,-3723,126,109,818
1128838,33786028,34651068,33820650,34836458,3800,3800,-7233,-1624,-13395,-5122,-9290,-1721,126,109,818
1129839,33786616,34651636,33821256,34837064,3800,3800,-7322,-1914,-12579,-5993,-10342,-465,120,125,820
1130840,33787192,34652344,33821862,34837670,3800,3800,-7472,-1693,-11646,-6377,-11007,1541,120,125,820
1131841,33787748,34653072,33822468,34838276,3800,3800,-7771,-850,-10760,-7290,-11096,3911,105,130,820
1132842,33788324,34653808,33823074,34838882,3800,3800,-7905,-308,-9951,-8649,-10731,2511,105,130,820
1133843,33788848,34654512,33823680,34839488,3800,3800,-7893,-244,-9068,-9936,-10729,2778,97,144,819
1134845,33789440,34655164,33824286,34840094,3800,3800,-7650,-2652,-7893,-14426,-11055,-671,97,144,819
1135845,33789968,34656012,33824892,34840700,3800,3800,-7337,-8206,-6389,-17679,-11395,-2043,103,147,819
1136847,33790508,34656796,33825498,34841306,3800,3800,-7006,-14182,-4344,-19497,-10226,589,103,147,819
1137847,33791120,34657572,33826104,34841912,3800,3800,-6762,-17529,-2055,-15705,-9394,5483,100,164,819
1138848,33791688,34658500,33826710,34842518,3800,3800,-6343,-18063,-279,-12896,-8620,8765,100,164,819
1139849,33792252,34659356,33827316,34843124,3800,3800,3657,-20018,-242,1584,-301,32767,106,191,822
1140851,33792920,34660192,33827922,34843730,3800,3800,14942,-19980,-862,1723,-469,32767,106,191,822
1141851,33793504,34661104,33828528,34844336,3800,3800,17476,-16111,-399,-5072,-5169,18739,125,198,823
1142853,33794136,34662212,33829134,34844942,3800,3800,12912,-9130,1112,-4195,-7100,26646,125,198,823
1143853,33794820,34663168,33829740,34845548,3800,3800,7610,-2388,3370,-4663,-10336,23407,145,191,824
1144861,33795448,34664128,33830368,34846176,3800,3800,5138,2228,5472,-2618,-6532,16193,145,191,824
1145855,33796128,34665096,33830974,34846782,3800,3800,4722,3372,6526,-2059,-916,9435,144,197,825
1146856,33796940,34666032,33831580,34847388,3800,3800,5137,3284,6593,-1212,2409,6622,144,197,825
1147857,33797712,34667024,33832186,34847994,3800,3800,5070,2188,6284,-427,3636,2507,155,187,824
1148858,33798488,34667900,33832792,34848600,3800,3800,4720,665,5831,-446,4492,827,155,187,824
1149859,33799260,34668820,33833398,34849206,3800,3800,4011,-698,5525,-788,4564,1811,147,194,824
1150861,33800048,34669724,33834004,34849812,3800,3800,3316,-2093,5459,-609,3791,919,147,194,824
1151861,33800808,34670548,33834610,34850418,3800,3800,2459,-3218,5686,1525,4281,3036,158,193,824
1152862,33801532,34671404,33835216,34851024,3800,3800,1709,-4323,6150,2921,3740,2540,158,193,824
1153863,33802292,34672400,33835822,34851630,3800,3800,1321,-6231,6468,3470,4123,-426,165,184,825
1154864,33802944,34673204,33836428,34852236,3800,3800,844,-8527,6613,4583,4813,-650,165,184,825
1155865,33803544,34674036,33837034,34852842,3800,3800,-178,-10761,6550,4886,5057,-575,147,187,824
1156867,33804188,34674860,33837640,34853448,3800,3800,-1236,-13577,6256,5623,5806,-3853,147,187,824
1157867,33804700,34675620,33838246,34854054,3800,3800,-2302,-16134,5782,6859,6338,-709,125,173,823
1158869,33805208,34676420,33838852,34854660,3800,3800,-3408,-17576,5158,7499,5960,3125,125,173,823
1159869,33805692,34677056,33839458,34855266,3800,3800,-4186,-18709,4553,8868,5297,1688,114,138,820
1160871,33806112,34677656,33840064,34855872,3800,3800,-4554,-20465,4011,9754,4918,-473,114,138,820
1161871,33806480,34678180,33840670,34856478,3800,3800,-4779,-21935,3602,8862,2018,1891,93,118,819
1162872,33806820,34678648,33841276,34857084,3800,3800,-5430,-21643,3305,8020,1247,7939,93,118,819
1163873,33807080,34679044,33841882,34857690,3800,3800,-6031,-20863,3022,6628,-347,6588,51,85,816
1164875,33807300,34679396,33842488,34858296,3800,3800,-6213,-20119,2663,5343,-1459,6587,51,85,816
1165875,33807500,34679644,33843094,34858902,3800,3800,-6061,-19558,2273,4833,-984,6750,42,71,814
1166876,33807620,34679940,33843700,34859508,3800,3800,-5703,-18629,1802,4350,-1090,8736,42,71,814
1167877,33807660,34680224,33844306,34860114,3800,3800,-5152,-16614,1247,2933,-2409,13821,16,44,811
1168878,33807668,34680484,33844912,34860720,3800,3800,-4434,-14266,687,1134,-2851,12213,16,44,811
1169879,33807688,34680688,33845518,34861326,3800,3800,-3806,-11613,254,828,-3878,13285,17,45,805
1170880,33807672,34680852,33846124,34861932,3800,3800,-3316,-8494,91,150,-3514,14153,17,45,805
1171888,33807676,34681024,33846752,34862560,3800,3800,-2970,-5289,53,-365,-2797,13901,-2,41,804
1172882,33807696,34681252,33847358,34863166,3800,3800,-2711,-2153,-62,-473,-3094,13947,-2,41,804
1173883,33807672,34681476,33847964,34863772,3800,3800,-2377,777,-281,-780,-3214,13216,17,52,805
1174884,33807672,34681700,33848570,34864378,3800,3800,-1770,3090,-531,-157,-2992,10584,17,52,805
1175885,33807684,34681896,33849176,34864984,3800,3800,-1045,4533,-680,664,-3296,8474,17,36,805
1176886,33807688,34682040,33849782,34865590,3800,3800,-236,5446,-679,1017,-3213,6949,17,36,805
1177887,33807656,34682196,33850388,34866196,3800,3800,609,5703,-715,1211,-2525,4276,18,35,805
1178888,33807692,34682364,33850994,34866802,3800,3800,1570,5285,-812,1435,-2359,2518,18,35,805
1179889,33807696,34682552,33851600,34867408,3800,3800,2532,4592,-747,1884,-3085,1993,13,31,805
1180890,33807668,34682720,33852206,34868014,3800,3800,3335,3951,-455,2788,-3368,1833,13,31,805
1181891,33807676,34682900,33852812,34868620,3800,3800,3917,3435,-11,3365,-3008,1988,1,28,804
1182892,33807752,34683032,33853418,34869226,3800,3800,4408,2849,448,3127,-2542,1394,1,28,804
1183893,33807812,34683172,33854024,34869832,3800,3800,4842,2143,797,2358,-2755,1431,16,45,805
1184894,33808036,34683340,33854630,34870438,3800,3800,5175,1794,1018,923,-3100,2392,16,45,805
1185895,33808320,34683524,33855236,34871044,3800,3800,5494,1707,1227,-854,-3132,2634,32,40,810
1186896,33808648,34683740,33855842,34871650,3800,3800,5822,1789,1438,-1979,-2180,2987,32,40,810
1187897,33809040,34684036,33856448,34872256,3800,3800,6104,2082,1522,-1802,-225,3845,73,63,813
1188898,33809492,34684428,33857054,34872862,3800,3800,6280,2490,1629,-658,-151,3768,73,63,813
1189899,33810032,34684836,33857660,34873468,3800,3800,6434,2839,1783,-381,199,3217,107,85,815
1190900,33810644,34685264,33858266,34874074,3800,3800,6619,3070,2010,-1009,725,3259,107,85,815
1191901,33811188,34685764,33858872,34874680,3800,3800,6752,3399,2338,-1502,-19,3678,108,103,817
1192902,33811780,34686264,33859478,34875286,3800,3800,6875,3921,2718,-2259,-589,3584,108,103,817
1193903,33812380,34686920,33860084,34875892,3800,3800,7019,4279,2939,-2907,243,2571,110,106,817
1194904,33812988,34687536,33860690,34876498,3800,3800,7071,4542,2894,-2992,1210,2400,110,106,817
1195905,33813584,34688156,33861296,34877104,3800,3800,6999,4684,2722,-2475,1512,1896,134,136,820
1196906,33814272,34688884,33861902,34877710,3800,3800,6852,4896,2574,-1400,1094,1588,134,136,820
1197907,33814948,34689620,33862508,34878316,3800,3800,6699,5106,2497,-625,592,1216,146,140,821
1198917,33815820,34690468,33863136,34878944,3800,3800,6490,5327,2449,65,782,1426,146,140,821
1199910,33816596,34691344,33863742,34879550,3800,3800,6168,5805,2477,594,43,2046,151,165,823
1200910,33817352,34692168,33864348,34880156,3800,3800,5818,6429,2578,1106,192,2153,151,165,823
1201911,33818216,34693120,33864954,34880762,3800,3800,5443,7084,2714,1551,180,2224,153,183,825
1202912,33818980,34694080,33865560,34881368,3800,3800,5176,7503,2788,1737,281,1384,153,183,825
1203913,33819724,34694968,33866166,34881974,3800,3800,4991,7728,2813,2207,113,802,160,188,824
1204915,33820556,34696068,33866772,34882580,3800,3800,4886,7560,2820,2564,-319,-484,160,188,824
1205915,33821376,34697088,33867378,34883186,3800,3800,4834,7076,2754,2536,-512,-1291,168,194,825
1206916,33822128,34698076,33867984,34883792,3800,3800,4788,6473,2576,2158,-759,-1645,168,194,825
1207917,33822996,34699076,33868590,34884398,3800,3800,4703,6018,2382,1942,-1200,-1041,162,210,825
1208919,33823788,34700092,33869196,34885004,3800,3800,4556,5936,2265,2411,-1367,-37,162,210,825
1209919,33824632,34701264,33869802,34885610,3800,3800,4395,6002,2141,2727,-1219,-264,168,213,826
1210920,33825548,34702216,33870408,34886216,3800,3800,4299,5925,1940,2782,-1571,-641,168,213,826
1211921,33826440,34703236,33871014,34886822,3800,3800,4311,5820,1711,2639,-2139,-569,164,205,826
1212922,33827200,34704304,33871620,34887428,3800,3800,4384,5858,1526,2247,-2844,-164,164,205,826
1213923,33828060,34705252,33872226,34888034,3800,3800,4440,6133,1421,1976,-3545,384,175,218,826
1214924,33828972,34706236,33872832,34888640,3800,3800,4493,6498,1303,1743,-3466,242,175,218,826
1215925,33829736,34707380,33873438,34889246,3800,3800,4528,7035,1145,1744,-3678,903,157,207,825
1216926,33830572,34708404,33874044,34889852,3800,3800,4527,7897,964,1737,-3715,1455,157,207,825
1217927,33831500,34709372,33874650,34890458,3800,3800,4514,8855,779,1937,-3019,1100,162,217,826
1218928,33832316,34710256,33875256,34891064,3800,3800,4530,9536,551,2464,-1555,70,162,217,826
1219929,33833076,34711204,33875862,34891670,3800,3800,4554,9824,248,2977,-740,-787,166,204,826
1220931,33833972,34712236,33876468,34892276,3800,3800,4547,9924,-101,3326,-117,-1254,166,204,826
1221931,33834780,34713108,33877074,34892882,3800,3800,4515,9847,-440,2948,-122,-1618,169,200,827
1222932,33835572,34714056,33877680,34893488,3800,3800,4400,9732,-932,2134,451,-1605,169,200,827
1223933,33836452,34715048,33878286,34894094,3800,3800,4115,9576,-1718,1661,1849,-1774,181,204,827
1224934,33837236,34716020,33878892,34894700,3800,3800,3682,9403,-2805,1649,2561,-1902,181,204,827
1225942,33838000,34716900,33879520,34895328,3800,3800,3099,9077,-4027,1823,3274,-2042,176,178,825
1226936,33838800,34717884,33880126,34895934,3800,3800,2575,8590,-5141,1876,3553,-2559,176,178,825
1227937,33839460,34718708,33880732,34896540,3800,3800,1998,8179,-6099,1465,3781,-1839,158,185,825
1228938,33840028,34719636,33881338,34897146,3800,3800,1336,8069,-6954,1247,3652,-1499,158,185,825
1229939,33840564,34720360,33881944,34897752,3800,3800,634,7909,-7657,1416,3782,-1817,135,167,823
1230940,33840944,34721236,33882550,34898358,3800,3800,42,7244,-8249,1841,3474,-3354,135,167,823
1231941,33841224,34722116,33883156,34898964,3800,3800,-437,5898,-8665,2550,2815,-4709,72,178,820
1232942,33841428,34723188,33883762,34899570,3800,3800,-820,4225,-8776,3253,2108,-5023,72,178,820
1233943,33841540,34724136,33884368,34900176,3800,3800,-1143,2485,-8507,3270,1714,-4962,41,191,817
1234944,33841580,34725024,33884974,34900782,3800,3800,-1429,918,-7906,3047,1255,-4154,41,191,817
1235945,33841580,34725896,33885580,34901388,3800,3800,-1739,-439,-7145,3004,1255,-3613,5,200,816
1236946,33841580,34726920,33886186,34901994,3800,3800,-2085,-1774,-6403,3400,1290,-3305,5,200,816
1237947,33841592,34727992,33886792,34902600,3800,3800,-2490,-2911,-5630,3852,1416,-2306,20,197,816
1238948,33841604,34728996,33887398,34903206,3800,3800,-3435,-3268,-4768,3685,1958,1107,20,197,816
1239949,33841608,34730072,33888004,34903812,3800,3800,-5699,-1520,-4142,2932,3176,8543,19,206,818
1240950,33841612,34731064,33888610,34904418,3800,3800,-8954,1966,-3865,3023,4531,12275,19,206,818
1241951,33841604,34732060,33889216,34905024,3800,3800,-11522,4464,-3836,3146,5624,6618,12,220,817
1242952,33841612,34733048,33889822,34905630,3800,3800,-12279,3826,-3800,2253,4284,-2045,12,220,817
1243953,33841628,34734116,33890428,34906236,3800,3800,-11848,1105,-3784,1191,4399,-4771,1,212,817
1244954,33841656,34735112,33891034,34906842,3800,3800,-11266,-1750,-3766,704,4313,-4108,1,212,817
1245955,33841700,34736016,33891640,34907448,3800,3800,-11018,-3677,-3712,573,3973,-2184,5,214,818
1246956,33841752,34736936,33892246,34908054,3800,3800,-11253,-4075,-3330,688,1269,3070,5,214,818
1247957,33841848,34737840,33892852,34908660,3800,3800,-11825,-2721,-2421,79,-1575,8289,18,200,816
1248958,33841972,34738704,33893458,34909266,3800,3800,-12420,-873,-1539,-2262,-1477,9177,18,200,816
1249959,33842076,34739484,33894064,34909872,3800,3800,-12685,298,-1233,-4181,162,7369,24,170,817
1250960,33842240,34740188,33894670,34910478,3800,3800,-12714,1006,-1580,-5407,1813,7772,24,170,817
1251961,33842400,34740852,33895276,34911084,3800,3800,-10498,5177,-1824,-8455,-2673,29235,36,138,817
1252969,33842580,34741480,33895904,34911712,3800,3800,628,21675,-167,-16386,-21299,32767,36,138,817
1253963,33842764,34742024,33896510,34912318,3800,3800,13170,32202,891,-5743,-13284,32767,50,111,816
1254964,33842944,34742524,33897116,34912924,3800,3800,16575,32066,554,-1888,534,2506,50,111,816
1255965,33843160,34742992,33897722,34913530,3800,3800,14082,26533,-368,-1323,1269,-3702,31,108,814
1256966,33843360,34743380,33898328,34914136,3800,3800,11348,21296,-1117,-4386,599,-4754,31,108,814
1257967,33843568,34743732,33898934,34914742,3800,3800,9734,15399,-384,-16847,-1222,-5362,41,84,813
