"Data file recorded 2014/9/24  13:57:30"
"%  Right Stride Frequency         = 5.0"
"%  Left Stride Frequency         = 5.0"
"%  Phase (Fractional)         = 32768.0"
"%  Experiment.py "
"%  Motor Gains    = [1800, 200, 100, 0, 0, 1800, 200, 100, 0, 0]
"% Columns: "
"% time | Right Leg Pos | Left Leg Pos | Commanded Right Leg Pos | Commanded Left Leg Pos | DCR | DCL | GyroX | GryoY | GryoZ | AX | AY | AZ | RBEMF | LBEMF | VBatt "
10716,10228948,11046488,10228451,11047651,93,873,516,751,-1138,347,-480,4106,8,2,892
11718,10228944,11046500,10228778,11047978,288,911,516,752,-1137,374,-475,4051,8,2,892
12719,10228952,11046484,10229105,11048305,353,1237,517,754,-1138,367,-478,4082,1,9,889
13720,10228948,11046496,10229432,11048632,573,1200,520,750,-1137,351,-492,4071,1,9,889
14721,10228948,11046500,10229759,11048959,692,1393,523,740,-1140,368,-460,4060,-12,-5,886
15722,10228952,11046508,10230086,11049286,810,1508,527,759,-1142,390,-500,4088,-12,-5,886
16722,10228952,11046512,10230413,11049613,979,1676,532,749,-1143,365,-379,4074,-1,-4,884
17723,10228968,11046524,10230740,11049940,1015,1765,539,754,-1143,388,-503,4052,-1,-4,884
18724,10228996,11046544,10231067,11050267,1072,1851,549,747,-1144,376,-493,4058,-5,-1,881
19725,10229032,11046556,10231394,11050594,1150,2040,559,735,-1141,438,-581,4043,-5,-1,881
20727,10229068,11046600,10231721,11050921,1278,1964,574,716,-1139,467,-605,4022,3,10,879
21727,10229116,11046624,10232048,11051248,1327,2224,591,705,-1148,461,-455,4047,3,10,879
22728,10229176,11046664,10232375,11051575,1369,2251,602,724,-1153,464,-579,4009,-4,13,878
23729,10229236,11046728,10232702,11051902,1488,2217,616,705,-1155,523,-489,3944,-4,13,878
24731,10229332,11046800,10233029,11052229,1365,2280,636,693,-1154,545,-496,3950,1,21,874
25732,10229440,11046856,10233356,11052556,1386,2500,660,675,-1149,536,-568,3955,1,21,874
26732,10229580,11046916,10233683,11052883,1270,2594,667,723,-1136,445,-868,4158,8,6,875
27734,10229732,11046996,10234010,11053210,1272,2578,664,761,-1131,361,-919,4183,8,6,875
28735,10229912,11047092,10234337,11053537,1163,2582,671,827,-1139,431,-924,4109,31,27,874
29736,10230116,11047176,10234664,11053864,1068,2765,689,834,-1149,433,-830,4010,31,27,874
30736,10230316,11047280,10234991,11054191,1149,2739,701,839,-1142,431,-764,4076,23,29,874
31738,10230512,11047400,10235318,11054518,1233,2731,703,839,-1106,424,-768,3973,23,29,874
32738,10230708,11047572,10235645,11054845,1291,2476,702,809,-1079,366,-664,3807,37,20,873
33740,10230916,11047712,10235972,11055172,1269,2759,701,748,-1055,352,-761,3785,37,20,873
34740,10231140,11047868,10236299,11055499,1216,2736,706,638,-1054,371,-451,3637,36,22,873
35742,10231368,11048032,10236626,11055826,1235,2759,714,558,-1065,393,-367,3722,36,22,873
36743,10231588,11048192,10236953,11056153,1333,2858,724,549,-1069,415,-463,3802,31,37,872
37743,10231836,11048344,10237280,11056480,1194,2987,749,481,-1097,463,46,3591,31,37,872
38744,10232120,11048512,10237607,11056807,989,2959,775,356,-1133,630,-179,3625,38,27,873
39745,10232348,11048668,10237934,11057134,1383,3110,794,270,-1171,766,-166,3574,38,27,873
40747,10232656,11048800,10238261,11057461,893,3348,821,104,-1206,969,6,3215,58,34,873
41747,10232892,11048984,10238588,11057788,1384,3086,867,-66,-1240,1296,-19,3180,58,34,873
42748,10233172,11049164,10238915,11058115,1130,3178,928,-284,-1274,1621,-46,3035,43,42,870
43750,10233420,11049392,10239242,11058442,1367,2924,1003,-512,-1354,1791,405,2955,43,42,870
44751,10233640,11049628,10239569,11058769,1590,2915,1102,-680,-1478,1955,849,3120,33,39,870
45752,10233932,11049856,10239896,11059096,1156,3010,1238,-813,-1587,2234,666,3163,33,39,870
46752,10234212,11050096,10240223,11059423,1253,2975,1384,-964,-1683,2456,499,3226,43,52,870
47754,10234436,11050328,10240550,11059750,1649,3069,1551,-961,-1761,2407,-81,3396,43,52,870
48754,10234696,11050588,10240877,11060077,1455,2925,1678,-923,-1822,2270,-316,3544,39,44,872
49755,10234928,11050860,10241204,11060404,1673,2876,1762,-771,-1845,2054,-423,3854,39,44,872
50756,10235184,11051112,10241531,11060731,1556,3036,1766,-494,-1830,1596,-274,4373,41,44,871
51757,10235440,11051380,10241858,11061058,1588,2964,1704,-131,-1780,1297,-249,4458,41,44,871
52759,10235668,11051624,10242185,11061385,1807,3152,1614,191,-1708,1253,-44,4331,39,60,871
53759,10235892,11051912,10242512,11061712,1879,2896,1538,486,-1589,1217,55,4243,39,60,871
54760,10236124,11052244,10242839,11062039,1871,2621,1475,758,-1424,1173,-185,4061,52,74,869
55761,10236360,11052608,10243166,11062366,1888,2406,1443,953,-1224,964,-432,3766,52,74,869
56763,10236560,11052892,10243493,11062693,2170,2927,1433,990,-1015,893,-460,3453,56,74,870
57764,10236828,11053216,10243820,11063020,1772,2680,1432,904,-804,1111,-472,3129,56,74,870
58765,10237056,11053556,10244147,11063347,2068,2576,1410,790,-574,1187,-401,2986,45,55,869
59786,10237296,11053872,10244508,11063708,3753,3800,1355,753,-310,1079,-611,3207,45,55,869
60792,10237516,11054248,10244835,11064035,3800,3800,1256,760,-19,1015,-1035,3395,40,70,871
61780,10237804,11054612,10245162,11064362,3520,3800,1161,771,289,1015,-1060,3491,40,70,871
62768,10238124,11055064,10245489,11064689,3324,3517,1096,783,576,994,-818,3337,69,79,854
63770,10238508,11055492,10245816,11065016,2901,3624,1035,716,829,1023,-732,3257,69,79,854
64770,10238892,11055920,10246143,11065343,2877,3581,942,691,1053,1043,-699,3491,68,99,859
65772,10239252,11056444,10246470,11065670,3013,2897,828,777,1222,1088,-394,3730,68,99,859
66772,10239552,11056908,10246797,11065997,3402,3214,718,884,1316,1125,-86,3740,81,93,862
67774,10239880,11057340,10247124,11066324,3228,3369,625,1059,1360,1120,-47,4135,81,93,862
68775,10240252,11057796,10247451,11066651,2935,3164,539,1390,1384,1162,110,4599,88,76,861
69776,10240624,11058236,10247778,11066978,2916,3216,471,1679,1341,1071,639,4274,88,76,861
70777,10241012,11058620,10248105,11067305,2791,3543,412,1852,1183,1059,1164,4094,72,93,864
71777,10241348,11059104,10248432,11067632,3114,2850,342,1878,993,1016,1475,4069,72,93,864
72778,10241684,11059556,10248759,11067959,3111,2997,283,2042,873,1136,1459,4350,69,87,862
73780,10242032,11059972,10249086,11068286,3027,3184,243,2209,840,1131,1208,4207,69,87,862
74780,10242344,11060404,10249413,11068613,3261,3040,263,2307,903,845,743,4238,82,103,864
75782,10242652,11060944,10249740,11068940,3295,2273,331,2372,967,465,786,4337,82,103,864
76783,10242968,11061344,10250067,11069267,3251,3117,460,2307,955,186,816,3887,74,100,864
77784,10243276,11061688,10250394,11069594,3312,3462,639,2263,902,57,141,4190,74,100,864
78784,10243560,11062096,10250721,11069921,3481,3027,875,2312,863,21,-103,4498,68,80,860
79786,10243868,11062604,10251048,11070248,3341,2325,1166,2502,893,-8,-718,5004,68,80,860
80786,10244180,11063156,10251375,11070575,3324,1952,2129,3917,1044,-145,-742,15137,77,112,859
81788,10244504,11063744,10251702,11070902,3252,1613,4054,7332,1283,-315,579,29375,77,112,859
82788,10244840,11064240,10252029,11071229,3175,2116,5262,8861,1369,-101,1673,6317,69,120,867
83790,10245168,11064728,10252356,11071556,3225,2096,5449,8307,1352,-224,2443,2593,69,120,867
84790,10245488,11065240,10252683,11071883,3279,1866,5273,7018,1327,-45,2064,2371,82,107,869
85791,10245780,11065832,10253010,11072210,3472,1251,5220,6370,1393,-278,692,3218,82,107,869
86792,10246092,11066364,10253337,11072537,3354,1537,5285,6188,1615,-875,-873,3912,74,111,868
87793,10246404,11066928,10253664,11072864,3362,1234,5334,6570,1841,-1218,-1923,5218,74,111,868
88794,10246680,11067468,10253991,11073191,3611,1291,5239,7056,1881,-2003,-1856,5553,77,97,870
89796,10246968,11067880,10254318,11073518,3554,2055,5014,7611,1720,-2550,-1957,6103,77,97,870
90797,10247228,11068380,10254645,11073845,3761,1430,4638,8460,1342,-3027,-1652,6924,57,90,866
91811,10247472,11068876,10254972,11074172,3800,1382,4140,9312,758,-3619,-273,6582,57,90,866
92799,10247784,11069316,10255299,11074499,3481,1683,3603,9961,31,-3417,890,5786,64,105,865
93800,10248084,11069816,10255626,11074826,3570,1233,3083,10194,-702,-3023,1372,4691,64,105,865
94800,10248420,11070260,10255953,11075153,3342,1533,2552,10137,-1389,-2867,1604,4016,73,87,867
95802,10248804,11070656,10256280,11075480,3019,1803,2030,9712,-2041,-2617,1770,2767,73,87,867
96802,10249168,11071080,10256607,11075807,3129,1587,1595,8851,-2579,-2116,1598,1448,85,95,869
97804,10249560,11071480,10256934,11076134,2927,1706,1195,7954,-2949,-1745,1088,1360,85,95,869
98804,10249984,11071820,10257261,11076461,2685,2076,701,6925,-3226,-1582,789,898,85,76,870
99806,10250376,11072108,10257588,11076788,2858,2419,166,5694,-3421,-1040,999,342,85,76,870
100807,10250748,11072368,10257915,11077115,2965,2625,-225,4322,-3519,-313,1063,-77,87,66,870
101808,10251124,11072632,10258242,11077442,2920,2628,-546,2937,-3565,102,1016,76,87,66,870
102809,10251512,11072884,10258569,11077769,2819,2737,-834,1638,-3526,286,1038,200,64,64,865
103810,10251892,11073112,10258896,11078096,2847,2932,-1054,454,-3410,566,1859,498,64,64,865
104810,10252240,11073312,10259223,11078423,3039,3163,-1319,-472,-3324,354,2156,1422,82,40,866
105811,10252616,11073500,10259550,11078750,2844,3300,-1578,-1161,-3245,-77,1281,2014,82,40,866
106812,10252968,11073648,10259877,11079077,2985,3629,-1827,-1601,-3199,-735,894,2855,77,32,862
107814,10253328,11073812,10260204,11079404,2921,3602,-2081,-1720,-3212,-1226,1009,4144,77,32,862
108814,10253664,11073968,10260531,11079731,3068,3729,-2388,-1435,-3281,-1382,813,5427,62,40,858
109822,10253976,11074132,10260892,11080092,3242,3767,-2695,-1003,-3410,-1841,509,5569,62,40,858
110829,10254284,11074288,10261219,11080419,3276,3800,-2950,-580,-3558,-2719,-7,5943,59,37,856
111830,10254608,11074400,10261546,11080746,3178,3800,-3147,56,-3646,-3360,-1015,6839,59,37,856
112831,10254896,11074580,10261873,11081073,3423,3800,-3281,725,-3659,-3443,-1585,6619,68,37,853
113832,10255184,11074740,10262200,11081400,3441,3800,-3328,1176,-3694,-3360,-858,5895,68,37,853
114833,10255500,11074920,10262527,11081727,3272,3800,-3301,1374,-3781,-3476,-672,5431,52,52,853
115821,10255804,11075156,10262854,11082054,3359,3736,-3193,1373,-3920,-3763,-1154,5040,52,52,853
116835,10256108,11075336,10263181,11082381,3370,3800,-3007,1238,-4028,-3834,-1655,4760,69,48,853
117836,10256428,11075516,10263508,11082708,3274,3800,-2761,980,-4001,-3327,-2284,4176,69,48,853
118837,10256700,11075672,10263835,11083035,3600,3800,-2488,542,-3822,-2570,-2888,3609,53,42,854
119838,10256968,11075828,10264162,11083362,3652,3800,-2185,-169,-3559,-1948,-3106,2942,53,42,854
120839,10257272,11076020,10264489,11083689,3438,3800,-1684,-1229,-3339,-1061,-3052,2965,46,38,852
121840,10257596,11076220,10264816,11084016,3316,3800,-364,-2557,-3384,1022,-2833,9791,46,38,852
122841,10257884,11076436,10265143,11084343,3559,3800,1044,-3805,-3476,494,-2448,6858,65,38,851
123843,10258172,11076648,10265470,11084670,3579,3800,1674,-4954,-3352,-517,-2263,1965,65,38,851
124843,10258472,11076880,10265797,11084997,3516,3800,1848,-5920,-3101,-261,-2257,2025,68,46,852
125844,10258744,11077092,10266124,11085324,3717,3800,2026,-6738,-2833,124,-2203,2240,68,46,852
126845,10259056,11077340,10266451,11085651,3475,3800,2317,-7487,-2624,525,-2006,2597,50,46,852
127846,10259384,11077596,10266778,11085978,3376,3800,2636,-8093,-2509,685,-1611,3118,50,46,852
128847,10259688,11077816,10267105,11086305,3538,3800,2928,-8488,-2453,658,-1198,3759,67,47,851
129848,10260016,11078068,10267432,11086632,3388,3800,3126,-8454,-2442,854,-697,4906,67,47,851
130849,10260396,11078316,10267759,11086959,3041,3800,3234,-7991,-2401,833,-623,5923,75,63,853
131850,10260748,11078572,10268086,11087286,3207,3800,3267,-7215,-2337,672,-563,6818,75,63,853
132851,10261120,11078896,10268413,11087613,3063,3800,3291,-6372,-2284,704,-434,6802,74,53,855
133852,10261520,11079176,10268740,11087940,2858,3800,3349,-5610,-2269,700,-170,6483,74,53,855
134853,10261872,11079444,10269067,11088267,3148,3800,3403,-4883,-2280,654,40,6522,62,66,854
135854,10262236,11079684,10269394,11088594,3058,3800,3439,-4258,-2282,755,264,6164,62,66,854
136855,10262640,11079928,10269721,11088921,2776,3800,3474,-3696,-2248,1080,700,5720,64,50,854
137856,10262988,11080196,10270048,11089248,3118,3800,3523,-3319,-2207,1173,1100,5029,64,50,854
138857,10263348,11080476,10270375,11089575,3030,3800,3579,-3104,-2202,1186,1523,4500,68,67,857
139858,10263716,11080748,10270702,11089902,2964,3800,3643,-3076,-2189,1118,1662,3910,68,67,857
140859,10264120,11081044,10271029,11090229,2706,3800,3721,-3271,-2139,1199,1816,2854,70,71,857
141860,10264468,11081324,10271356,11090556,3047,3800,3798,-3677,-2051,1529,1936,2140,70,71,857
142861,10264824,11081648,10271683,11090883,2987,3800,3833,-4083,-1890,1611,2003,2087,73,54,857
143862,10265236,11081988,10272010,11091210,2600,3800,3784,-4358,-1675,1422,2000,2744,73,54,857
144863,10265584,11082288,10272337,11091537,2992,3800,3646,-4371,-1456,1244,2036,3352,64,64,857
145864,10265972,11082608,10272664,11091864,2717,3800,3469,-4169,-1268,1081,2651,3816,64,64,857
146865,10266388,11082944,10272991,11092191,2504,3800,3241,-3839,-1113,1081,2958,4069,79,61,859
147866,10266764,11083260,10273318,11092518,2734,3800,2956,-3503,-947,1101,2882,4192,79,61,859
148867,10267160,11083644,10273645,11092845,2579,3800,2652,-3146,-736,1110,2663,4320,85,80,859
149868,10267564,11083964,10273972,11093172,2498,3800,2342,-2765,-509,932,2584,4085,85,80,859
150869,10267940,11084324,10274299,11093499,2652,3800,2032,-2504,-279,564,2466,3778,73,83,860
151870,10268344,11084680,10274626,11093826,2444,3800,1750,-2344,-29,301,2447,3532,73,83,860
152871,10268820,11085004,10274953,11094153,1930,3800,1498,-2301,232,230,2394,3204,78,73,861
153872,10269236,11085332,10275280,11094480,2267,3800,1275,-2238,511,-15,2053,3247,78,73,861
154873,10269656,11085700,10275607,11094807,2203,3800,1065,-2164,817,-385,1707,3222,93,61,861
155874,10270084,11086024,10275934,11095134,2109,3800,877,-2125,1121,-879,1308,3039,93,61,861
156875,10270516,11086328,10276261,11095461,2039,3800,697,-2126,1430,-1156,970,3127,91,78,860
157876,10270940,11086636,10276588,11095788,2048,3800,539,-2104,1760,-1138,773,3137,91,78,860
158877,10271324,11086924,10276915,11096115,2273,3800,386,-2179,2091,-1147,633,3025,94,58,862
159885,10271756,11087252,10277276,11096476,1943,3800,247,-2258,2402,-1211,536,3075,94,58,862
160879,10272116,11087508,10277603,11096803,2380,3800,108,-2375,2686,-1035,511,3130,76,61,862
161880,10272524,11087756,10277930,11097130,2045,3800,-14,-2452,2939,-738,490,3196,76,61,862
162881,10272940,11087972,10278257,11097457,1957,3800,-170,-2488,3184,-767,217,3679,69,58,862
163882,10273332,11088184,10278584,11097784,2080,3800,-354,-2360,3440,-825,-61,4291,69,58,862
164883,10273684,11088408,10278911,11098111,2320,3800,-553,-2297,3646,-479,204,4090,72,53,862
165884,10274048,11088648,10279238,11098438,2229,3800,-684,-2376,3749,-12,662,3598,72,53,862
166885,10274392,11088844,10279565,11098765,2348,3800,-768,-2610,3753,391,1176,3448,70,52,862
167886,10274728,11089036,10279892,11099092,2395,3800,-846,-2858,3716,793,1048,3653,70,52,862
168887,10275056,11089204,10280219,11099419,2445,3800,-925,-3143,3677,1222,859,3519,69,50,859
169888,10275316,11089388,10280546,11099746,2901,3800,-1003,-3413,3615,1411,712,3641,69,50,859
170889,10275568,11089584,10280873,11100073,2985,3800,-1072,-3676,3534,1486,185,3791,59,40,859
171890,10275856,11089764,10281200,11100400,2778,3800,-1147,-3939,3457,1691,-387,4085,59,40,859
172891,10276128,11089900,10281527,11100727,2903,3800,-1211,-4213,3363,2180,-360,3946,46,41,856
173892,10276368,11090060,10281854,11101054,3142,3800,-1225,-4516,3230,2685,-216,3873,46,41,856
174893,10276580,11090196,10282181,11101381,3369,3800,-1212,-4746,3073,2826,-458,4103,36,37,856
175894,10276776,11090332,10282508,11101708,3527,3800,-1196,-4904,2930,2738,-888,4597,36,37,856
176895,10276972,11090472,10282835,11102035,3586,3800,-1132,-5055,2780,2780,-1080,4473,49,24,853
177896,10277152,11090608,10283162,11102362,3753,3800,-1023,-5145,2598,3201,-982,4651,49,24,853
178897,10277368,11090756,10283489,11102689,3577,3800,-889,-5104,2420,3886,-661,4896,51,42,850
179911,10277512,11090920,10283816,11103016,3800,3800,-797,-4977,2320,3995,-1185,5481,51,42,850
180912,10277616,11091172,10284143,11103343,3800,3800,-751,-4521,2308,3512,-1430,6476,22,38,849
181913,10277720,11091480,10284470,11103670,3800,3800,-694,-3971,2330,3228,-1578,6387,22,38,849
182914,10277792,11091800,10284797,11103997,3800,3800,-638,-3376,2305,3279,-1419,6505,23,53,847
183915,10277872,11092076,10285124,11104324,3800,3800,-581,-2808,2219,3343,-1114,6395,23,53,847
184916,10277952,11092464,10285451,11104651,3800,3800,-509,-2374,2115,3895,-1042,5936,27,80,849
185917,10278064,11092900,10285778,11104978,3800,3800,-449,-1895,2030,4165,-1155,6142,27,80,849
186918,10278200,11093300,10286105,11105305,3800,3800,-361,-1382,2025,3629,-1661,6024,17,78,851
187920,10278424,11093840,10286432,11105632,3800,3800,-232,-740,2043,3010,-1914,6230,17,78,851
188920,10278696,11094344,10286759,11105959,3800,3800,-43,-8,2076,2358,-1557,6375,55,97,851
189921,10278976,11094872,10287086,11106286,3800,3800,201,711,2158,2193,-1097,6286,55,97,851
190897,10279372,11095488,10287413,11106613,3312,3355,472,1517,2231,2358,-332,6301,71,120,853
191898,10279760,11096100,10287740,11106940,3337,3257,800,2187,2258,2277,1218,5608,71,120,853
192899,10280160,11096836,10288067,11107267,3231,2305,1162,2719,2260,2129,1765,5518,92,119,856
193900,10280648,11097520,10288394,11107594,2613,2476,1566,3338,2253,1740,1660,5397,92,119,856
194900,10281084,11098220,10288721,11107921,2891,2213,2022,4084,2281,1173,1630,5477,85,145,862
195902,10281548,11098916,10289048,11108248,2657,2077,2544,4768,2355,845,1768,4943,85,145,862
196903,10282004,11099744,10289375,11108575,2652,1034,3151,5093,2461,169,1480,3740,88,160,871
197904,10282532,11100432,10289702,11108902,2115,1753,3809,5407,2580,-271,1418,3548,88,160,871
198905,10283044,11101316,10290029,11109229,2135,284,4469,5703,2723,98,1014,3200,84,160,873
199905,10283536,11102084,10290356,11109556,2189,817,4962,6264,2929,455,68,4056,84,160,873
200907,10284120,11102908,10290683,11109883,1503,250,5186,7293,3261,494,-991,5252,115,142,877
201907,10284704,11103596,10291010,11110210,1391,943,5329,8354,3524,433,-822,4555,115,142,877
202908,10285200,11104392,10291337,11110537,1867,63,5536,9092,3574,32,-619,3323,105,141,879
203910,10285772,11105180,10291664,11110864,1286,-89,5899,9495,3473,-399,-440,2242,105,141,879
204911,10286316,11105804,10291991,11111191,1366,807,6245,9828,3369,-131,-825,2581,99,151,884
205912,10286768,11106412,10292318,11111518,1887,784,6481,10451,3371,319,-1383,3172,99,151,884
206913,10287300,11107064,10292645,11111845,1298,368,6624,11279,3444,572,-1747,3194,95,122,886
207914,10287684,11107596,10292972,11112172,2200,1028,6699,12031,3450,918,-1768,2658,95,122,886
208915,10288108,11108180,10293299,11112499,1909,591,6652,12591,3383,1463,-1635,2365,99,112,881
209925,10288600,11108692,10293660,11112860,1427,976,6454,13193,3286,2339,-1666,2452,99,112,881
210916,10289096,11109176,10293987,11113187,1328,1083,6196,13643,3106,2680,-1542,1525,87,95,879
211918,10289596,11109700,10294314,11113514,1228,747,5915,13871,2790,2638,-1347,848,87,95,879
212919,10290100,11110184,10294641,11113841,1126,929,5310,14089,2026,2733,-1876,321,90,92,881
213920,10290488,11110604,10294968,11114168,1825,1289,4940,14266,1743,3004,-2036,284,90,92,881
214921,10290892,11111084,10295295,11114495,1692,846,4565,14223,1477,3035,-2182,-547,89,75,884
215922,10291332,11111496,10295622,11114822,1419,1235,4203,14041,1191,3103,-2337,-823,89,75,884
216922,10291920,11111812,10295949,11115149,380,1841,3778,13944,878,3106,-1809,-618,109,68,879
217923,10292416,11112156,10296276,11115476,881,1658,3293,13828,486,3099,-1523,-1054,109,68,879
218924,10292964,11112492,10296603,11115803,460,1706,2818,13593,38,3093,-1271,-1344,106,59,882
219926,10293568,11112756,10296930,11116130,-11,2184,2372,13447,-443,2870,-844,-1285,106,59,882
220927,10293956,11113008,10297257,11116457,1313,2292,1927,13171,-1000,1910,-715,-1811,85,60,882
221928,10294372,11113232,10297584,11116784,1099,2513,1500,12922,-1678,1221,-467,-1613,85,60,882
222929,10294924,11113432,10297911,11117111,151,2720,994,12689,-2456,871,-98,-1068,80,33,879
223930,10295340,11113588,10298238,11117438,962,3070,489,12638,-3290,321,-366,-934,80,33,879
224931,10295796,11113740,10298565,11117765,656,3173,0,12594,-4192,-566,128,-1125,96,32,874
225932,10296252,11113880,10298892,11118092,600,3331,-472,12461,-5189,-1298,352,-1307,96,32,874
226932,10296676,11114040,10299219,11118419,758,3281,-933,12401,-6188,-1734,15,-1116,68,23,871
227934,10296988,11114164,10299546,11118746,1465,3595,-1357,12441,-7082,-2096,-374,-947,68,23,871
228935,10297392,11114288,10299873,11119073,857,3685,-1770,12475,-7863,-2387,-906,-972,70,36,871
229936,10297760,11114412,10300200,11119400,1064,3775,-2122,12424,-8544,-3035,-1032,-1529,70,36,871
230937,10298136,11114548,10300527,11119727,993,3785,-2329,12186,-9184,-3632,-737,-2234,77,29,865
231938,10298484,11114696,10300854,11120054,1159,3790,-2514,11883,-9731,-4014,-1554,-1932,77,29,865
232939,10298792,11114980,10301181,11120381,1418,2960,-2677,11601,-10096,-4201,-2688,-2117,71,37,865
233940,10299100,11115228,10301508,11120708,1427,3221,-2774,11014,-10214,-4239,-2935,-3017,71,37,865
234941,10299456,11115476,10301835,11121035,1115,3256,-2827,10014,-10099,-4259,-2954,-3902,66,49,864
235942,10299816,11115728,10302162,11121362,1075,3265,-2861,8703,-9799,-4615,-3081,-4200,66,49,864
236943,10300160,11116120,10302489,11121689,1169,2363,-2934,7484,-9409,-5201,-3684,-3708,65,66,870
237944,10300412,11116564,10302816,11122016,1777,1987,-3004,6366,-8929,-6081,-4256,-3570,65,66,870
238944,10300728,11116992,10303143,11122343,1382,2044,-3056,5076,-8367,-6238,-4451,-4168,57,91,871
239946,10301092,11117352,10303470,11122670,1067,2456,-3134,3251,-7766,-5576,-4633,-5064,57,91,871
240946,10301352,11117776,10303797,11122997,1746,2014,-3251,1080,-7090,-4760,-4985,-5527,73,81,876
241947,10301700,11118188,10304124,11123324,1188,2053,-3375,-1511,-6317,-3897,-5571,-6472,73,81,876
242948,10301996,11118644,10304451,11123651,1526,1722,-3532,-4306,-5387,-2823,-6464,-6325,67,83,877
243950,10302348,11119060,10304778,11123978,1166,1934,-3736,-7027,-4281,-2020,-7081,-5512,67,83,877
244950,10302688,11119428,10305105,11124305,1236,2217,-3952,-9366,-3109,-1830,-6953,-4481,66,92,877
245952,10302980,11119824,10305432,11124632,1552,2012,-4136,-11483,-1885,-1890,-6693,-3772,66,92,877
246952,10303260,11120228,10305759,11124959,1648,1930,-4365,-13361,-657,-1039,-6133,-2318,65,100,878
247954,10303564,11120716,10306086,11125286,1509,1335,-4653,-14855,462,-98,-4843,-1060,65,100,878
248954,10303812,11121092,10306413,11125613,1894,2014,-4990,-16044,1462,123,-4086,67,62,77,877
249955,10304108,11121492,10306740,11125940,1608,1833,-5344,-16948,2356,258,-3750,1258,62,77,877
250956,10304376,11121872,10307067,11126267,1809,1936,-5640,-17786,3179,620,-3098,1903,47,70,880
251958,10304608,11122224,10307394,11126594,2077,2100,-5926,-18262,3893,1381,-2141,3374,47,70,880
252958,10304808,11122516,10307721,11126921,2333,2491,-7089,-17093,4500,1877,-2603,10502,54,74,877
253960,10305004,11122848,10308048,11127248,2416,2240,-8886,-14928,5230,1304,-4908,11320,54,74,877
254961,10305200,11123104,10308375,11127575,2474,2747,-9659,-14215,5783,1702,-2166,5414,58,50,873
255962,10305456,11123368,10308702,11127902,2131,2726,-7747,-15389,5903,5347,-952,11362,58,50,873
256963,10305716,11123616,10309029,11128229,2135,2862,2765,-17375,4488,23768,812,32767,51,54,869
257964,10306004,11123836,10309356,11128556,1979,3085,10366,-13223,3946,13815,-6894,32767,51,54,869
258965,10306272,11124052,10309683,11128883,2130,3158,11089,-9883,4736,3781,-658,10130,51,49,869
259973,10306548,11124292,10310044,11129244,2118,3063,8153,-7651,5455,4441,2687,14028,51,49,869
260967,10306832,11124528,10310371,11129571,2088,3129,5712,-5054,5555,3197,3674,13499,47,55,867
261968,10307128,11124804,10310698,11129898,2027,2902,4517,-3434,5049,2152,5588,10090,47,55,867
262969,10307380,11125048,10311025,11130225,2335,3140,4410,-2320,4317,1736,5394,7316,64,52,866
263970,10307640,11125296,10311352,11130552,2316,3150,4492,-2084,3777,1022,5592,6072,64,52,866
264971,10307864,11125632,10311679,11130879,2587,2597,4692,-1639,3347,973,4203,5353,69,49,869
265972,10308108,11125952,10312006,11131206,2499,2701,4779,-1509,2899,328,4477,3795,69,49,869
266972,10308364,11126264,10312333,11131533,2456,2759,4819,-1568,2397,-530,4716,3729,62,62,864
267974,10308572,11126612,10312660,11131860,2809,2526,4637,-1376,1699,-433,4787,3797,62,62,864
268974,10308772,11126820,10312987,11132187,2916,3454,4424,-1218,1049,-814,3742,3480,52,47,866
269976,10308972,11127028,10313314,11132514,2973,3507,4176,-647,556,-1164,1586,4689,52,47,866
270977,10309168,11127232,10313641,11132841,3055,3587,3857,20,179,-1033,397,5118,44,48,866
271978,10309360,11127492,10313968,11133168,3141,3268,3416,1088,8,-785,374,6755,44,48,866
272978,10309548,11127796,10314295,11133495,3228,3004,3037,2412,92,-815,84,6429,54,65,857
273980,10309740,11128164,10314622,11133822,3263,2588,2829,3277,261,-981,352,4977,54,65,857
274980,10309920,11128500,10314949,11134149,3404,2785,2665,3944,400,-1104,532,5007,49,76,859
275982,10310084,11128984,10315276,11134476,3576,1792,2543,4397,442,-1032,1166,4105,49,76,859
276983,10310264,11129384,10315603,11134803,3542,2286,2508,4799,426,-840,801,3762,41,92,863
277996,10310388,11129788,10315930,11135130,3800,2228,2561,5103,365,-1105,433,3363,41,92,863
278997,10310544,11130216,10316257,11135457,3800,2035,2622,5277,300,-905,-679,3287,29,83,863
279998,10310696,11130588,10316584,11135784,3800,2366,2593,5636,240,-353,-830,3717,29,83,863
280999,10310860,11131024,10316911,11136111,3800,1919,2470,6287,253,-48,-935,4393,44,83,860
282000,10311012,11131488,10317238,11136438,3800,1685,2166,7312,327,456,-1005,5850,44,83,860
283001,10311152,11131916,10317565,11136765,3800,1866,1834,8214,385,660,-628,4903,36,85,859
284002,10311304,11132340,10317892,11137092,3800,1850,1578,8891,397,843,-330,4327,36,85,859
285003,10311468,11132860,10318219,11137419,3800,1166,1350,9440,253,1180,645,4314,47,97,860
286004,10311648,11133316,10318546,11137746,3800,1509,1108,9716,-75,1054,1477,3453,47,97,860
287005,10311824,11133816,10318873,11138073,3800,1159,905,9649,-503,872,1766,2204,48,89,862
288006,10311972,11134296,10319200,11138400,3800,1218,741,9351,-996,949,2069,1717,48,89,862
289007,10312156,11134740,10319527,11138727,3800,1393,604,9018,-1493,1018,2064,1899,42,100,862
290008,10312280,11135148,10319854,11139054,3800,1583,570,8609,-1950,895,2041,1364,42,100,862
291009,10312420,11135608,10320181,11139381,3800,1200,611,7968,-2320,1187,1896,1082,36,82,863
292010,10312520,11136084,10320508,11139708,3800,1035,682,7391,-2608,1520,1815,1337,36,82,863
293011,10312640,11136484,10320835,11140035,3800,1479,729,6807,-2851,1631,2006,1260,36,102,862
294012,10312764,11136904,10321162,11140362,3800,1313,773,6294,-3102,1573,2132,1391,36,102,862
295013,10312852,11137260,10321489,11140689,3800,1701,815,5760,-3351,1407,2071,1414,33,70,864
296014,10312964,11137528,10321816,11141016,3800,2278,876,5254,-3589,1215,2063,1512,33,70,864
297015,10313072,11137772,10322143,11141343,3800,2465,900,4859,-3811,680,1396,1941,13,54,863
298016,10313152,11138020,10322470,11141670,3800,2476,892,4508,-4010,-71,1144,1985,13,54,863
299017,10313264,11138232,10322797,11141997,3800,2752,857,4235,-4222,-589,1327,2157,8,39,856
300018,10313348,11138408,10323124,11142324,3800,3044,827,3937,-4439,-1076,1360,1848,8,39,856
301019,10313456,11138604,10323451,11142651,3800,2977,820,3671,-4650,-1875,1330,2051,15,33,856
302020,10313548,11138748,10323778,11142978,3800,3383,822,3493,-4895,-2646,1333,2252,15,33,856
303021,10313648,11138912,10324105,11143305,3800,3331,800,3414,-5142,-3043,843,2503,30,42,853
304022,10313768,11139052,10324432,11143632,3800,3564,742,3469,-5300,-3134,-522,2900,30,42,853
305023,10313884,11139180,10324759,11143959,3800,3728,658,3597,-5331,-3305,-1552,2921,33,24,851
306024,10313988,11139324,10325086,11144286,3800,3708,556,3694,-5301,-3694,-1230,2858,33,24,851
307038,10314092,11139448,10325413,11144613,3800,3800,440,3732,-5308,-4038,-266,2567,32,38,846
308039,10314200,11139592,10325740,11144940,3800,3800,320,3605,-5351,-4156,-297,2121,32,38,846
309040,10314292,11139744,10326067,11145267,3800,3800,239,3333,-5380,-4281,-532,1590,20,33,847
310048,10314400,11139880,10326428,11145628,3800,3800,176,2794,-5381,-4341,-555,956,20,33,847
311042,10314508,11140020,10326755,11145955,3800,3800,117,2052,-5311,-4137,-1449,453,26,36,846
312043,10314628,11140152,10327082,11146282,3800,3800,84,1189,-5075,-3898,-2812,227,26,36,846
313044,10314740,11140276,10327409,11146609,3800,3800,72,210,-4719,-3725,-2969,-366,28,37,847
314045,10314860,11140428,10327736,11146936,3800,3800,68,-1012,-4319,-3347,-2616,-906,28,37,847
315046,10314984,11140552,10328063,11147263,3800,3800,78,-2335,-3882,-3024,-2055,-1060,35,28,847
316047,10315116,11140708,10328390,11147590,3800,3800,77,-3705,-3460,-2865,-1415,-1124,35,28,847
317048,10315244,11140856,10328717,11147917,3800,3800,30,-5066,-3068,-2787,-1114,-934,15,24,847
318049,10315396,11141020,10329044,11148244,3800,3800,-53,-6211,-2677,-2836,-978,-163,15,24,847
319050,10315532,11141176,10329371,11148571,3800,3800,-149,-7045,-2270,-2913,-1190,534,40,26,847
320051,10315664,11141340,10329698,11148898,3800,3800,-265,-7642,-1840,-2953,-1758,1108,40,26,847
321052,10315828,11141464,10330025,11149225,3800,3800,-432,-8160,-1422,-2881,-1840,1480,37,29,845
322053,10315972,11141632,10330352,11149552,3800,3800,-627,-8633,-1040,-2627,-1588,1706,37,29,845
323054,10316128,11141788,10330679,11149879,3800,3800,-831,-9105,-736,-2373,-917,1835,27,27,846
324055,10316296,11141960,10331006,11150206,3800,3800,-1021,-9530,-554,-2317,-15,2020,27,27,846
325056,10316436,11142164,10331333,11150533,3800,3800,-1187,-9767,-479,-2240,610,2819,22,32,848
326057,10316596,11142372,10331660,11150860,3800,3800,-1421,-9641,-489,-2085,1271,3908,22,32,848
327058,10316776,11142584,10331987,11151187,3800,3800,-1707,-9223,-533,-1770,1422,4880,24,45,848
328059,10316916,11142804,10332314,11151514,3800,3800,-1970,-8646,-498,-1269,690,5257,24,45,848
329060,10317092,11143012,10332641,11151841,3800,3800,-2218,-8075,-367,-537,586,5610,22,46,849
330061,10317260,11143272,10332968,11152168,3800,3800,-2486,-7439,-200,404,767,6035,22,46,849
331062,10317440,11143540,10333295,11152495,3800,3800,-2743,-6831,-74,1055,1050,5883,43,61,848
332063,10317596,11143796,10333622,11152822,3800,3800,-2955,-6348,-66,1369,1511,5327,43,61,848
333064,10317764,11144040,10333949,11153149,3800,3800,-3110,-6065,-171,1734,1808,5068,44,65,847
334065,10317936,11144316,10334276,11153476,3800,3800,-3205,-5857,-292,2348,1852,5009,44,65,847
335066,10318104,11144612,10334603,11153803,3800,3800,-3279,-5614,-367,2987,1827,5334,24,54,848
336067,10318256,11144940,10334930,11154130,3800,3800,-3348,-5363,-370,3623,1544,5328,24,54,848
337068,10318428,11145212,10335257,11154457,3800,3800,-3406,-5213,-347,4099,1522,4972,36,61,847
338069,10318564,11145452,10335584,11154784,3800,3800,-3162,-4950,-355,4948,1459,6995,36,61,847
339070,10318712,11145744,10335911,11155111,3800,3800,-669,-229,-750,11273,814,32767,42,57,849
340071,10318876,11146028,10336238,11155438,3800,3800,2431,4465,-1267,8294,632,26837,42,57,849
341072,10319008,11146300,10336565,11155765,3800,3800,3403,4687,-1511,4280,1365,1103,40,60,849
342073,10319164,11146608,10336892,11156092,3800,3800,3141,2438,-1607,4139,1235,-105,40,60,849
343074,10319296,11146916,10337219,11156419,3800,3800,2661,51,-1693,4110,369,-169,40,53,849
344075,10319420,11147236,10337546,11156746,3800,3800,2444,-1090,-1708,3587,-626,1465,40,53,849
345076,10319572,11147544,10337873,11157073,3800,3800,2201,-1738,-1654,3161,-1047,1891,22,57,847
346077,10319732,11147824,10338200,11157400,3800,3800,1891,-2151,-1683,3052,-989,2323,22,57,847
347078,10319920,11148196,10338527,11157727,3800,3800,1607,-2758,-1775,2097,-768,1811,33,62,849
348079,10320084,11148532,10338854,11158054,3800,3800,1355,-3536,-1931,1445,-731,1963,33,62,849
349080,10320276,11148864,10339181,11158381,3800,3800,1091,-4074,-2146,1032,-540,2586,28,74,850
350081,10320472,11149188,10339508,11158708,3800,3800,816,-4359,-2296,365,-419,3382,28,74,850
351082,10320636,11149520,10339835,11159035,3800,3800,544,-4160,-2372,-50,-526,4444,36,74,850
352083,10320808,11149876,10340162,11159362,3800,3800,293,-3859,-2385,-652,-620,4765,36,74,850
353084,10321000,11150268,10340489,11159689,3800,3800,130,-3450,-2345,-1201,-404,5128,45,69,850
354085,10321180,11150632,10340816,11160016,3800,3800,42,-3091,-2293,-1428,-298,4914,45,69,850
355086,10321328,11150988,10341143,11160343,3800,3800,36,-2869,-2206,-1714,-273,4663,43,72,849
356087,10321496,11151348,10341470,11160670,3800,3800,67,-2628,-2034,-1969,-226,4928,43,72,849
357088,10321660,11151716,10341797,11160997,3800,3800,132,-2346,-1778,-1948,-315,4963,26,72,847
358089,10321812,11152104,10342124,11161324,3800,3800,209,-1931,-1451,-1872,-94,5397,26,72,847
359090,10321988,11152460,10342451,11161651,3800,3800,263,-1430,-1094,-1836,513,5777,42,69,850
360098,10322124,11152852,10342812,11162012,3800,3800,280,-862,-693,-1487,751,6100,42,69,850
361092,10322280,11153208,10343139,11162339,3800,3800,285,-244,-216,-1080,993,6282,24,69,850
362093,10322456,11153516,10343466,11162666,3800,3800,350,220,254,-1017,1401,5480,24,69,850
363094,10322608,11153852,10343793,11162993,3800,3800,484,427,639,-903,2096,4924,27,75,850
364095,10322772,11154240,10344120,11163320,3800,3800,647,506,948,-797,2674,4668,27,75,850
365096,10322968,11154580,10344447,11163647,3800,3800,797,536,1227,-625,2554,4710,42,62,849
366097,10323124,11154904,10344774,11163974,3800,3800,935,586,1496,-418,2357,4623,42,62,849
367098,10323296,11155252,10345101,11164301,3800,3800,1066,561,1757,-279,2309,4651,45,67,849
368099,10323480,11155620,10345428,11164628,3800,3800,1157,632,2013,14,2014,4911,45,67,849
369100,10323672,11156004,10345755,11164955,3800,3800,1215,629,2264,49,1315,4665,38,76,849
370101,10323852,11156384,10346082,11165282,3800,3800,1276,639,2464,-72,1064,4620,38,76,849
371102,10324048,11156756,10346409,11165609,3800,3800,1335,573,2498,-122,1683,4383,34,86,851
372090,10324296,11157212,10346736,11165936,3800,3518,1404,442,2366,-47,1813,4279,34,86,851
373091,10324528,11157628,10347063,11166263,3800,3730,1485,358,2179,182,1424,4583,42,97,851
374092,10324748,11158208,10347390,11166590,3800,2596,1521,388,2004,514,1109,4898,42,97,851
375093,10325040,11158748,10347717,11166917,3800,2754,1501,562,1855,705,757,5267,59,104,852
376094,10325352,11159300,10348044,11167244,3800,2582,1495,710,1669,834,774,4816,59,104,852
377095,10325732,11159876,10348371,11167571,3800,2324,1616,437,1373,1090,1426,3242,58,104,858
378096,10326240,11160444,10348698,11167898,3800,2269,1846,-216,1013,1331,1426,2705,58,104,858
379097,10326732,11161072,10349025,11168225,3800,1764,2039,-696,737,1399,258,3538,82,125,860
380098,10327272,11161736,10349352,11168552,3800,1392,2164,-836,618,1292,-1034,4031,82,125,860
381099,10327928,11162392,10349679,11168879,3800,1298,2288,-888,578,1213,-1621,4016,116,133,864
382100,10328584,11163008,10350006,11169206,3800,1423,2453,-889,489,1310,-1558,4004,116,133,864
383101,10329272,11163636,10350333,11169533,3800,1217,2630,-955,339,1246,-1749,3749,120,133,869
384102,10330068,11164256,10350660,11169860,3800,1139,2830,-1001,163,1332,-1915,3730,120,133,869
385103,10330884,11164928,10350987,11170187,3800,664,3046,-957,33,909,-2326,3943,133,139,869
386104,10331656,11165568,10351314,11170514,3800,727,3310,-852,-32,238,-2476,4177,133,139,869
387105,10332496,11166136,10351641,11170841,3800,1072,3590,-503,-17,-656,-2943,4693,145,127,871
388106,10333416,11166800,10351968,11171168,3800,325,3882,-88,49,-1535,-3092,4775,145,127,871
389107,10334312,11167356,10352295,11171495,3800,900,4177,493,129,-2304,-3343,5258,153,120,872
390108,10335212,11167940,10352622,11171822,3800,612,4527,1023,244,-3048,-3607,4787,153,120,872
391097,10336224,11168576,10352949,11172149,3680,153,4911,1539,407,-3604,-3830,4800,165,117,875
392110,10337112,11169160,10353276,11172476,3800,366,5273,2104,603,-4043,-3745,4932,165,117,875
393111,10337984,11169780,10353603,11172803,3800,12,5627,2606,832,-4312,-3455,4450,195,114,874
394099,10338928,11170224,10353930,11173130,3357,1062,5957,2944,1118,-4309,-3088,3840,195,114,874
395101,10339768,11170872,10354257,11173457,3785,-354,6302,3057,1472,-4340,-2793,3083,191,105,875
396114,10340564,11171372,10354584,11173784,3800,495,6631,3084,1889,-4406,-2831,2871,191,105,875
397102,10341444,11171768,10354911,11174111,3091,1116,6940,2942,2360,-4212,-2799,2032,170,101,875
398116,10342164,11172268,10355238,11174438,3800,390,7253,2487,2796,-3493,-2674,863,170,101,875
399104,10342904,11172684,10355565,11174765,3616,876,7494,1825,3186,-2279,-2451,87,164,94,872
400105,10343736,11173056,10355892,11175092,2822,1132,7588,1177,3603,-663,-2266,157,164,94,872
401107,10344420,11173476,10356219,11175419,3593,791,7590,567,4027,502,-2093,-137,139,80,872
402108,10345164,11173984,10356546,11175746,3036,163,7513,-17,4388,1294,-1487,-107,139,80,872
403108,10345940,11174276,10356873,11176073,2641,1528,7418,-414,4629,1883,-915,113,149,72,876
404110,10346688,11174492,10357200,11176400,2634,2052,7229,-868,4779,2438,-716,-160,149,72,876
405111,10347364,11174912,10357527,11176727,2933,737,7050,-1320,4891,2951,-569,-378,153,84,878
406111,10348072,11175296,10357854,11177054,2566,937,6802,-1638,4923,3298,-268,212,153,84,878
407112,10348900,11175656,10358181,11177381,1598,1073,6489,-1640,4855,3541,-75,943,132,86,873
408113,10349564,11176048,10358508,11177708,2477,845,6057,-1343,4719,3673,-157,1461,132,86,873
409115,10350324,11176472,10358835,11178035,1689,602,5508,-682,4548,3546,-240,2403,132,70,878
410125,10351028,11176840,10359196,11178396,1889,949,4854,360,4275,3366,417,3357,132,70,878
411116,10351728,11177156,10359523,11178723,1752,1280,4135,1583,3793,3117,1263,3432,146,79,878
412118,10352428,11177392,10359850,11179050,1589,1820,3339,2857,3131,3111,2227,3667,146,79,878
413119,10353108,11177728,10360177,11179377,1561,1191,2310,4471,2270,3225,3418,5312,143,61,880
414120,10353764,11178032,10360504,11179704,1567,1401,1189,6165,1276,3445,3838,4442,143,61,880
415120,10354368,11178276,10360831,11180031,1773,1814,17,7627,149,3818,4848,3739,136,53,878
416122,10355080,11178500,10361158,11180358,929,1984,-1157,8857,-978,4325,5171,2876,136,53,878
417122,10355684,11178720,10361485,11180685,1484,2056,-2325,9622,-2045,4589,5345,1571,124,44,879
418123,10356244,11178932,10361812,11181012,1657,2158,-3352,9813,-3057,4170,4766,-344,124,44,879
419124,10356876,11179112,10362139,11181339,1074,2422,-4130,9350,-4079,3198,3361,-2437,121,50,879
420125,10357416,11179244,10362466,11181666,1557,2809,-4620,8240,-5169,2663,3025,-4030,121,50,879
421126,10357956,11179436,10362793,11181993,1464,2493,-5044,7160,-6272,3052,3611,-3372,94,40,873
422127,10358520,11179588,10363120,11182320,1211,2821,-5581,6500,-7166,3584,3135,-2248,94,40,873
423128,10359028,11179752,10363447,11182647,1482,2818,-6077,5936,-7882,3576,2488,-2549,90,38,870
424129,10359592,11179900,10363774,11182974,1029,2997,-6354,5107,-8507,3252,2162,-3211,90,38,870
425130,10360056,11180024,10364101,11183301,1594,3237,-6440,4079,-9029,2862,496,-3289,91,26,872
426131,10360604,11180152,10364428,11183628,973,3300,-6393,3028,-9447,2455,-646,-3069,91,26,872
427132,10361104,11180268,10364755,11183955,1198,3469,-6308,2114,-9793,1898,-896,-2481,80,21,871
428134,10361576,11180404,10365082,11184282,1310,3428,-6176,1360,-10156,1369,2,-2077,80,21,871
429134,10362140,11180516,10365409,11184609,631,3673,-6063,535,-10663,786,51,-1991,96,23,869
430135,10362668,11180708,10365736,11184936,769,3234,-5953,-182,-11196,484,-1682,-961,96,23,869
431136,10363088,11180940,10366063,11185263,1404,3026,-5830,-578,-11471,268,-3351,251,88,56,867
432137,10363564,11181228,10366390,11185590,988,2693,-5650,-698,-11504,-408,-3438,890,88,56,867
433138,10364016,11181592,10366717,11185917,1084,2203,-5450,-533,-11432,-1332,-3464,2000,100,80,870
434139,10364436,11181980,10367044,11186244,1244,2027,-5194,-372,-11257,-1888,-3766,2126,100,80,870
435140,10364932,11182368,10367371,11186571,695,2002,-4979,-86,-10873,-2151,-3942,2799,81,66,874
436142,10365312,11182652,10367698,11186898,1397,2671,-4770,326,-10286,-2326,-3804,3144,81,66,874
437142,10365640,11182928,10368025,11187225,1723,2744,-4511,659,-9580,-2104,-3852,3038,72,74,877
438144,10365988,11183256,10368352,11187552,1588,2419,-4254,769,-8838,-1168,-3564,2460,72,74,877
439144,10366352,11183632,10368679,11187879,1472,2099,-4102,598,-8106,379,-3142,1926,73,70,873
440145,10366692,11184064,10369006,11188206,1617,1704,-4242,577,-7425,1543,-2580,3105,73,70,873
441146,10367036,11184520,10369333,11188533,1585,1498,-5504,2409,-6528,1639,-3472,9975,53,80,874
442147,10367328,11184924,10369660,11188860,1926,1789,-6648,3473,-5396,265,-5272,3586,53,80,874
443148,10367600,11185300,10369987,11189187,2075,1944,-6678,2713,-4493,416,-3763,-370,54,96,876
444150,10367900,11185688,10370314,11189514,1913,1843,-6269,878,-3903,884,-3225,-920,54,96,876
445150,10368220,11186144,10370641,11189841,1791,1362,-6167,-391,-3525,1032,-3062,1122,61,92,875
446151,10368512,11186540,10370968,11190168,1983,1707,-6858,-607,-3211,410,-4123,4068,61,92,875
447152,10368788,11186900,10371295,11190495,2105,1918,-7772,-428,-2913,604,-4015,4359,58,85,875
448153,10369096,11187268,10371622,11190822,1915,1851,-8832,225,-2711,2197,-2680,7114,58,85,875
449154,10369408,11187628,10371949,11191149,1896,1887,-9703,702,-2634,2279,-3686,6031,49,78,876
450156,10369736,11187956,10372276,11191476,1797,2087,-8871,2602,-2505,4428,-6848,21461,49,78,876
451157,10370052,11188328,10372603,11191803,1877,1794,-1242,13555,-2653,17048,-11222,32767,63,64,875
452158,10370320,11188656,10372930,11192130,2202,2068,6648,22888,-2588,13580,-9320,32767,63,64,875
453159,10370552,11188972,10373257,11192457,2470,2149,8010,23551,-2284,5741,-3072,2433,48,71,874
454160,10370796,11189256,10373584,11192784,2433,2369,6092,18704,-2152,4935,-677,-4793,48,71,874
455161,10371120,11189524,10373911,11193111,1934,2495,4445,13405,-2121,5408,-1140,-5418,58,54,871
456162,10371420,11189812,10374238,11193438,2097,2388,3830,9750,-1794,4527,-1477,-4670,58,54,871
457163,10371756,11190152,10374565,11193765,1868,2058,3793,6598,-1433,3964,-1938,-5776,71,69,870
458164,10372048,11190440,10374892,11194092,2159,2400,3694,3555,-1223,3755,-2020,-4934,71,69,870
459165,10372340,11190712,10375219,11194419,2175,2526,3424,782,-1016,2537,-1809,-3135,57,61,871
460173,10372660,11191008,10375580,11194780,2019,2405,2998,-1140,-884,2183,-2023,-758,57,61,871
461167,10372924,11191308,10375907,11195107,2396,2393,2617,-2650,-793,1155,-2632,-312,69,68,871
462167,10373204,11191684,10376234,11195434,2318,1896,2372,-3467,-631,-254,-2809,1982,69,68,871
463168,10373480,11192072,10376561,11195761,2365,1796,2091,-3686,-539,-1417,-2395,2927,54,61,871
464169,10373784,11192332,10376888,11196088,2202,2626,1823,-3757,-660,-3218,-1786,3386,54,61,871
465170,10374064,11192560,10377215,11196415,2373,2870,1562,-3338,-893,-4743,-1757,5233,72,65,872
466171,10374324,11192808,10377542,11196742,2528,2780,1319,-2472,-1207,-5603,-2047,5910,72,65,872
467172,10374604,11193096,10377869,11197069,2424,2548,1125,-1385,-1532,-6564,-2157,6603,64,54,867
468174,10374876,11193468,10378196,11197396,2498,2005,1049,-62,-1775,-7182,-1989,7274,64,54,867
469175,10375144,11193792,10378523,11197723,2550,2306,1096,1295,-1871,-7091,-2215,7023,67,63,866
470175,10375436,11194168,10378850,11198050,2417,1960,1179,2627,-1768,-6838,-2356,6991,67,63,866
471177,10375692,11194576,10379177,11198377,2673,1726,1319,3845,-1499,-6563,-2345,6412,57,76,871
472177,10375960,11194968,10379504,11198704,2625,1798,1543,4562,-1167,-6092,-2629,4712,57,76,871
473178,10376244,11195420,10379831,11199031,2545,1368,1825,4789,-764,-5616,-3185,3202,45,88,871
474179,10376504,11195812,10380158,11199358,2724,1716,2176,4533,-249,-4982,-3629,1686,45,88,871
475180,10376768,11196164,10380485,11199685,2728,1956,2529,3813,379,-4277,-3760,512,50,89,871
476182,10377048,11196572,10380812,11200012,2650,1570,2856,2916,1127,-3747,-3672,117,50,89,871
477183,10377296,11197008,10381139,11200339,2885,1348,3162,1996,1944,-2991,-3530,-228,70,81,869
478184,10377564,11197408,10381466,11200666,2786,1542,3449,1076,2745,-2177,-2866,-361,70,81,869
479184,10377836,11197876,10381793,11200993,2786,1055,3690,144,3501,-1654,-1966,-270,66,80,872
480186,10378048,11198376,10382120,11201320,3213,780,3863,-733,4170,-1086,-1220,7,66,80,872
481186,10378296,11198792,10382447,11201647,3024,1266,3996,-1555,4709,-679,-321,123,39,87,871
482187,10378528,11199212,10382774,11201974,3165,1201,4120,-2259,5131,-449,477,435,39,87,871
483189,10378772,11199672,10383101,11202301,3128,894,4252,-2928,5415,-115,1251,523,60,80,869
484190,10379000,11200128,10383428,11202628,3272,862,4375,-3455,5577,279,1816,1176,60,80,869
485191,10379212,11200488,10383755,11202955,3424,1448,4463,-3710,5685,637,1662,2227,51,94,870
486191,10379484,11200928,10384082,11203282,3074,899,4528,-3512,5763,873,919,3145,51,94,870
487193,10379728,11201304,10384409,11203609,3287,1277,4553,-3062,5790,949,664,3787,41,89,869
488194,10379956,11201652,10384736,11203936,3430,1444,4517,-2617,5670,1220,2164,3824,41,89,869
489195,10380216,11202032,10385063,11204263,3261,1221,4366,-2233,5374,1548,3554,3812,49,83,870
490195,10380472,11202456,10385390,11204590,3318,904,4149,-1722,4917,1334,4062,4087,49,83,870
491197,10380712,11202780,10385717,11204917,3457,1531,3807,-1135,4276,1011,4215,4465,38,77,867
492198,10380984,11203052,10386044,11205244,3282,1881,3373,-511,3528,742,3620,4418,38,77,867
493199,10381220,11203280,10386371,11205571,3548,2199,2840,126,2738,774,3432,4473,56,65,869
494200,10381448,11203484,10386698,11205898,3643,2403,2241,674,1961,938,2709,4047,56,65,869
495200,10381684,11203740,10387025,11206225,3634,2111,1665,948,1212,831,2564,3417,55,56,866
496214,10381892,11203956,10387352,11206552,3800,2409,1073,1045,457,1075,2754,2957,55,56,866
497202,10382120,11204128,10387679,11206879,3781,2753,444,953,-344,1416,3110,2201,51,44,860
498216,10382348,11204312,10388006,11207206,3800,2741,-211,610,-1209,1423,3829,1562,51,44,860
499217,10382552,11204460,10388333,11207533,3800,3046,-825,-14,-2151,1331,4563,577,38,39,857
500218,10382768,11204620,10388660,11207860,3800,3044,-1372,-1017,-3044,1594,4161,-284,38,39,857
501219,10382988,11204800,10388987,11208187,3800,2985,-1852,-2016,-3694,2155,2881,-152,51,38,856
502220,10383220,11204980,10389314,11208514,3800,3051,-2331,-2843,-4056,2529,1766,421,51,38,856
503221,10383428,11205156,10389641,11208841,3800,3142,-2801,-3444,-4175,2576,353,949,33,35,854
504222,10383628,11205336,10389968,11209168,3800,3182,-3250,-3985,-4179,2355,-887,1239,33,35,854
505223,10383840,11205508,10390295,11209495,3800,3302,-3652,-4415,-4258,2011,-841,1544,49,45,854
506224,10384032,11205688,10390622,11209822,3800,3317,-3982,-4859,-4395,1637,-964,1512,49,45,854
507225,10384212,11205848,10390949,11210149,3800,3516,-4166,-5322,-4515,1121,-1098,1584,48,51,851
508226,10384408,11206036,10391276,11210476,3800,3403,-4269,-5632,-4593,808,-1462,2401,48,51,851
509227,10384580,11206244,10391603,11210803,3800,3331,-4406,-5536,-4580,684,-2009,3627,45,36,851
510235,10384756,11206444,10391964,11211164,3800,3453,-4550,-5128,-4474,437,-2477,4406,45,36,851
511229,10384968,11206644,10392291,11211491,3800,3510,-4623,-4610,-4345,92,-2352,4845,41,41,850
512230,10385168,11206852,10392618,11211818,3800,3513,-4634,-4110,-4259,-138,-1661,5020,41,41,850
513231,10385380,11207052,10392945,11212145,3800,3620,-4533,-3633,-4208,-201,-1216,4962,52,49,851
514232,10385672,11207256,10393272,11212472,3800,3650,-4276,-3256,-4183,-457,-1104,4726,52,49,851
515233,10386000,11207464,10393599,11212799,3800,3678,-3904,-2922,-4170,-696,-1155,4906,68,42,851
516235,10386336,11207712,10393926,11213126,3800,3464,-3410,-2389,-4101,-789,-1449,5376,68,42,851
517235,10386688,11207972,10394253,11213453,3800,3419,-1925,-280,-3938,453,-2489,20070,77,60,849
518236,10387036,11208200,10394580,11213780,3800,3664,1034,5325,-3595,885,-4582,32767,77,60,849
519224,10387428,11208420,10394907,11214107,3628,3762,2908,8232,-3322,149,-667,8485,75,47,853
520226,10387812,11208652,10395234,11214434,3655,3729,3377,8101,-3169,514,262,3529,75,47,853
521227,10388248,11208896,10395561,11214761,3283,3692,3325,6712,-3036,1048,-211,2481,63,55,851
522227,10388688,11209152,10395888,11215088,3211,3649,3498,5817,-2847,1244,-332,2131,63,55,851
523228,10389108,11209436,10396215,11215415,3296,3494,3848,5061,-2617,1219,-137,1445,70,68,853
524230,10389592,11209708,10396542,11215742,2828,3594,4216,4377,-2469,1226,-237,1663,70,68,853
525231,10390112,11209984,10396869,11216069,2520,3594,4484,3678,-2369,1100,-242,1895,91,72,857
526232,10390612,11210256,10397196,11216396,2570,3644,4655,3061,-2300,850,-679,2297,91,72,857
527232,10391164,11210512,10397523,11216723,2147,3776,4699,2550,-2270,623,-954,2580,89,47,859
528234,10391708,11210784,10397850,11217050,2103,3701,4631,2173,-2247,80,-889,3232,89,47,859
529247,10392300,11211016,10398177,11217377,1688,3800,4489,2023,-2196,-22,-1155,3551,117,67,861
530248,10392900,11211256,10398504,11217704,1519,3800,4311,1918,-2121,-79,-1116,3590,117,67,861
531236,10393508,11211556,10398831,11218031,1347,3622,4081,1883,-2040,-303,-636,4186,100,56,859
532238,10394108,11211844,10399158,11218358,1278,3715,3797,1930,-1927,-350,-649,4471,100,56,859
533239,10394736,11212124,10399485,11218685,971,3787,3515,2050,-1787,-305,-331,4500,128,69,863
534239,10395256,11212476,10399812,11219012,1563,3327,3207,2234,-1660,-425,479,4575,128,69,863
535240,10395784,11212776,10400139,11219339,1425,3666,2893,2297,-1592,-676,909,4147,114,75,864
536242,10396364,11213108,10400466,11219666,989,3464,2566,2125,-1569,-987,1013,3836,114,75,864
537242,10396868,11213396,10400793,11219993,1387,3758,2251,1991,-1530,-1469,885,3836,98,78,867
538243,10397320,11213720,10401120,11220320,1658,3535,1926,1736,-1483,-1716,721,3154,98,78,867
539244,10397800,11214092,10401447,11220647,1417,3217,1591,1265,-1430,-1912,555,2874,81,63,869
540246,10398264,11214400,10401774,11220974,1457,3626,1273,805,-1298,-2428,458,2980,81,63,869
541246,10398672,11214732,10402101,11221301,1772,3475,973,391,-1105,-2900,-25,2879,94,67,865
542248,10399068,11215052,10402428,11221628,1818,3554,631,40,-846,-3401,-300,3042,94,67,865
543248,10399520,11215400,10402755,11221955,1413,3372,322,-348,-528,-3856,34,2978,76,66,865
544250,10399920,11215724,10403082,11222282,1707,3524,70,-957,-198,-3814,278,2264,76,66,865
545250,10400280,11216084,10403409,11222609,1944,3286,-110,-1793,126,-3707,370,1834,91,64,865
546264,10400680,11216364,10403736,11222936,1661,3800,-173,-2762,464,-3605,517,1089,91,64,865
547252,10401020,11216684,10404063,11223263,2032,3563,-215,-3926,807,-3422,511,692,59,71,865
548267,10401364,11216952,10404390,11223590,1999,3800,-230,-5086,1163,-3568,523,907,59,71,865
549268,10401744,11217220,10404717,11223917,1752,3800,-311,-6103,1555,-3677,241,1289,74,57,863
550256,10402072,11217516,10405044,11224244,2077,3781,-401,-7038,1963,-3564,-10,1473,74,57,863
551269,10402388,11217764,10405371,11224571,2157,3800,-554,-7814,2388,-3698,-113,2280,76,49,862
552270,10402740,11218016,10405698,11224898,1922,3800,-709,-8336,2811,-3917,-326,2763,76,49,862
553271,10402996,11218268,10406025,11225225,2554,3800,-884,-8828,3185,-3986,-482,3059,69,43,860
554272,10403304,11218460,10406352,11225552,2238,3800,-1024,-9272,3505,-3963,-465,3219,69,43,860
555273,10403624,11218656,10406679,11225879,2166,3800,-1145,-9713,3794,-3823,-453,3431,57,34,860
556274,10403904,11218848,10407006,11226206,2438,3800,-1264,-10044,4052,-3599,-485,3834,57,34,860
557275,10404200,11218976,10407333,11226533,2351,3800,-1361,-10366,4253,-3410,-266,3890,64,42,859
558276,10404468,11219108,10407660,11226860,2553,3800,-1485,-10589,4403,-2678,-360,4497,64,42,859
559277,10404740,11219284,10407987,11227187,2553,3800,-1653,-10573,4556,-1662,-596,5407,48,35,858
560285,10404980,11219396,10408348,11227548,2807,3800,-1850,-10397,4692,-1011,-320,5774,48,35,858
561279,10405208,11219512,10408675,11227875,2926,3800,-1990,-10258,4744,-427,37,5644,60,18,857
562280,10405468,11219632,10409002,11228202,2757,3800,-2037,-10289,4703,373,589,5333,60,18,857
563281,10405688,11219732,10409329,11228529,3054,3800,-2053,-10303,4595,1333,1135,5770,55,34,854
564282,10405908,11219804,10409656,11228856,3102,3800,-2130,-10112,4441,2477,1496,6732,55,34,854
565283,10406128,11219880,10409983,11229183,3150,3800,-2201,-9850,4283,4013,1656,8155,49,11,854
566284,10406284,11219952,10410310,11229510,3625,3800,-2210,-9371,4125,5526,1657,9462,49,11,854
567285,10406440,11220048,10410637,11229837,3701,3800,-2103,-9020,3867,6598,2078,9925,45,20,850
568286,10406600,11220116,10410964,11230164,3750,3800,-1898,-8684,3432,7597,2328,9881,45,20,850
569287,10406792,11220180,10411291,11230491,3611,3800,-1625,-8628,2877,7807,2157,8656,34,23,847
570288,10406980,11220256,10411618,11230818,3698,3800,-1343,-8620,2312,7263,952,8420,34,23,847
571289,10407200,11220312,10411945,11231145,3546,3800,-1071,-8248,1835,6532,-212,9143,40,20,847
572290,10407396,11220392,10412272,11231472,3753,3800,-255,-6524,1517,6905,-1824,18812,40,20,847
573304,10407524,11220428,10412599,11231799,3800,3800,639,-4485,1408,5812,-2940,14115,50,21,847
574305,10407688,11220468,10412926,11232126,3800,3800,1148,-3562,1371,4319,-2601,7139,50,21,847
575306,10407824,11220508,10413253,11232453,3800,3800,1406,-3249,1077,3675,-1505,6849,30,19,845
576307,10407996,11220552,10413580,11232780,3800,3800,1861,-3094,650,3938,-1507,5273,30,19,845
577308,10408212,11220596,10413907,11233107,3800,3800,2610,-3068,340,3994,-1472,4214,26,6,845
578296,10408468,11220664,10414234,11233434,3776,3800,3420,-2757,193,3251,-1349,5737,26,6,845
579309,10408712,11220756,10414561,11233761,3800,3800,4152,-1943,58,2624,14,6873,38,10,847
580311,10408952,11220812,10414888,11234088,3800,3800,4775,-542,-12,1722,-503,8044,38,10,847
581300,10409236,11220888,10415215,11234415,3698,3800,5414,869,25,1215,-352,7530,59,24,847
582300,10409516,11220996,10415542,11234742,3745,3800,5945,2410,44,1135,566,8765,59,24,847
583301,10409828,11221196,10415869,11235069,3552,3800,6371,4298,75,1183,781,8959,62,28,847
584302,10410132,11221380,10416196,11235396,3613,3800,6793,6082,126,972,1000,7773,62,28,847
585303,10410428,11221620,10416523,11235723,3678,3800,7250,7801,186,-142,864,7538,71,45,849
586304,10410768,11221856,10416850,11236050,3399,3800,7704,9240,298,-942,571,6908,71,45,849
587305,10411120,11222104,10417177,11236377,3314,3800,8097,10721,481,-369,-160,6701,68,53,848
588306,10411472,11222452,10417504,11236704,3304,3800,8434,12060,750,798,-679,5296,68,53,848
589307,10411840,11222864,10417831,11237031,3187,3800,8736,12990,989,1294,-847,4013,82,76,853
590308,10412196,11223220,10418158,11237358,3251,3800,8907,13608,1137,1144,-1038,3314,82,76,853
591309,10412572,11223624,10418485,11237685,3105,3800,8964,13841,1199,730,-695,1821,88,74,854
592310,10412916,11224076,10418812,11238012,3299,3800,8943,13856,1171,1041,-273,850,88,74,854
593311,10413268,11224504,10419139,11238339,3240,3800,8879,13470,1102,1337,-618,-338,65,86,856
594312,10413576,11225040,10419466,11238666,3524,3800,8744,13030,1035,1413,-1151,-331,65,86,856
595313,10413940,11225536,10419793,11238993,3159,3800,8576,12435,975,1310,-1459,-1158,71,87,856
596314,10414288,11226020,10420120,11239320,3250,3800,8355,11747,929,1343,-1613,-1397,71,87,856
597315,10414624,11226596,10420447,11239647,3322,3800,8054,11244,865,961,-1569,-995,78,104,854
598316,10414936,11227148,10420774,11239974,3480,3800,7749,10613,699,351,-1169,-1669,78,104,854
599317,10415300,11227772,10421101,11240301,3140,3800,7379,10006,398,661,-854,-1401,58,105,856
600318,10415692,11228464,10421428,11240628,2937,3800,6841,9454,-46,927,75,-1482,58,105,856
601306,10416020,11229176,10421755,11240955,3338,3510,6141,8970,-608,619,655,-1167,65,123,856
602307,10416320,11229896,10422082,11241282,3527,3289,5409,8486,-1244,-146,1148,-1315,65,123,856
603308,10416736,11230728,10422409,11241609,2764,2369,4721,7845,-1944,-109,1977,-1764,70,148,860
604310,10417108,11231492,10422736,11241936,3020,2604,4060,7231,-2655,767,2434,-1803,70,148,860
605310,10417452,11232416,10423063,11242263,3188,1344,3381,6662,-3280,950,2342,-1699,77,161,860
606312,10417856,11233228,10423390,11242590,2780,1833,2702,6126,-3778,530,2040,-1391,77,161,860
607312,10418232,11234096,10423717,11242917,2935,1247,2057,5647,-4166,369,2014,-1212,68,155,867
608313,10418600,11234972,10424044,11243244,2968,958,1490,5259,-4506,590,1925,-1395,68,155,867
609314,10418984,11235796,10424371,11243571,2844,1065,1016,4799,-4783,681,687,-1461,69,176,870
610324,10419360,11236672,10424732,11243932,2888,516,607,4308,-4917,691,-832,-1022,69,176,870
611316,10419732,11237504,10425059,11244259,2894,570,312,3940,-4923,780,-972,-921,80,165,873
612317,10420124,11238252,10425386,11244586,2742,911,123,3541,-4887,760,-943,-1316,80,165,873
613318,10420492,11238972,10425713,11244913,2875,915,-42,3018,-4848,524,-1056,-1558,80,157,875
614320,10420832,11239672,10426040,11245240,3045,877,-164,2467,-4777,402,-1248,-1435,80,157,875
615321,10421156,11240180,10426367,11245567,3147,1999,-307,2081,-4706,423,-960,-939,69,123,875
616322,10421528,11240812,10426694,11245894,2829,1091,-401,1793,-4662,415,-981,-1073,69,123,875
617322,10421872,11241316,10427021,11246221,2997,1814,-375,1449,-4637,299,-1181,-1270,55,119,872
618323,10422208,11242004,10427348,11246548,3044,506,-230,1133,-4623,190,-1180,-1012,55,119,872
619324,10422584,11242524,10427675,11246875,2774,1473,-53,1054,-4557,371,-1764,-352,60,121,872
620326,10422924,11243084,10428002,11247202,2994,1120,89,1216,-4478,344,-2159,323,60,121,872
621326,10423296,11243692,10428329,11247529,2775,698,241,1618,-4409,205,-2311,935,76,107,871
622328,10423716,11244264,10428656,11247856,2435,816,444,2108,-4378,9,-2457,1028,76,107,871
623328,10424168,11244768,10428983,11248183,2181,1164,671,2727,-4412,79,-2430,1324,83,102,872
624330,10424612,11245232,10429310,11248510,2181,1354,905,3399,-4473,253,-2621,1555,83,102,872
625330,10425200,11245692,10429637,11248837,1167,1322,1224,3873,-4595,244,-2243,620,84,92,877
626331,10425624,11246120,10429964,11249164,2150,1477,1531,4226,-4797,120,-1523,560,84,92,877
627332,10426096,11246536,10430291,11249491,1787,1514,1712,4689,-5056,53,-1114,708,78,90,876
628333,10426612,11246916,10430618,11249818,1430,1717,1835,4954,-5407,-89,-532,-304,78,90,876
629334,10427036,11247328,10430945,11250145,1963,1479,1952,4885,-5853,272,-245,-1179,95,78,876
630336,10427540,11247708,10431272,11250472,1387,1657,2008,4579,-6333,945,306,-1695,95,78,876
631336,10428064,11248044,10431599,11250799,1175,1928,1990,4031,-6749,1552,459,-2137,98,80,876
632338,10428504,11248332,10431926,11251126,1651,2246,1886,3187,-7042,1848,321,-2652,98,80,876
633338,10428912,11248692,10432253,11251453,1817,1782,1719,2305,-7227,1800,-10,-2542,68,62,878
634339,10429344,11249032,10432580,11251780,1621,1902,1514,1362,-7359,1390,114,-2827,68,62,878
635340,10429784,11249360,10432907,11252107,1522,1977,1307,332,-7414,1044,276,-2865,87,79,875
636342,10430136,11249672,10433234,11252434,2061,2084,1059,-736,-7366,1199,511,-2578,87,79,875
637342,10430484,11250004,10433561,11252761,2078,1957,745,-1707,-7217,1711,1106,-2270,67,60,876
638344,10430844,11250340,10433888,11253088,1989,1929,333,-2688,-6951,1870,1327,-2111,67,60,876
639344,10431164,11250668,10434215,11253415,2242,1979,-109,-3740,-6583,1614,1555,-2155,71,72,872
640345,10431468,11250940,10434542,11253742,2353,2354,-593,-4728,-6141,1516,2005,-1642,71,72,872
641346,10431792,11251228,10434869,11254069,2230,2271,-1275,-5245,-5578,2014,2581,391,68,60,873
642347,10432116,11251532,10435196,11254396,2232,2182,-3290,-3772,-4743,2624,1344,7858,68,60,873
643348,10432408,11251884,10435523,11254723,2448,1872,-6291,-865,-3858,3791,5094,10288,70,62,868
644349,10432740,11252200,10435850,11255050,2196,2102,-9339,2130,-3586,4157,10681,10058,70,62,868
645350,10433024,11252504,10436177,11255377,2516,2188,-10901,2105,-3824,2479,9190,-405,66,58,871
646351,10433320,11252792,10436504,11255704,2455,2305,-11750,282,-4119,2874,9540,-1756,66,58,871
647353,10433668,11253100,10436831,11256031,2121,2190,-12599,-1922,-4118,3095,8841,-2691,66,52,871
648353,10433980,11253356,10437158,11256358,2354,2546,-13585,-3790,-3921,2887,7419,-2272,66,52,871
649355,10434264,11253652,10437485,11256685,2548,2310,-14520,-5489,-3662,2554,5958,-2217,48,59,869
650355,10434560,11253924,10437812,11257012,2488,2485,-15154,-7181,-3383,2775,4189,-2055,48,59,869
651356,10434844,11254172,10438139,11257339,2581,2670,-15598,-8671,-2829,3229,1084,-548,59,48,867
652358,10435156,11254436,10438466,11257666,2414,2599,-15932,-9747,-1927,3049,-1750,1464,59,48,867
653358,10435452,11254692,10438793,11257993,2529,2680,-16331,-10135,-902,3080,-3028,3780,48,45,866
654359,10435728,11254932,10439120,11258320,2676,2819,-16528,-10546,-126,2938,-2620,2647,48,45,866
655360,10435920,11255240,10439447,11258647,3261,2403,-16352,-11275,271,2585,-1950,2249,57,66,867
656362,10436124,11255536,10439774,11258974,3242,2492,-12287,-6522,16,8878,-3978,30248,57,66,867
657362,10436316,11255852,10440101,11259301,3376,2373,-1118,14278,-829,19443,-10428,32767,57,67,864
658363,10436600,11256120,10440428,11259628,2821,2699,6392,24850,-1651,5608,60,13757,57,67,864
659364,10436864,11256424,10440755,11259955,2974,2485,7321,22656,-2282,2874,2820,-4672,61,66,862
660372,10437136,11256780,10441116,11260316,2965,2163,5409,15160,-2723,3245,980,-7746,61,66,862
661367,10437412,11257124,10441443,11260643,2962,2231,3964,9911,-2851,3713,-3504,-5415,68,73,864
662367,10437676,11257508,10441770,11260970,3066,1957,2666,7766,-2163,3626,-7628,-1037,68,73,864
663368,10437992,11257788,10442097,11261297,2746,2629,1479,6490,-1333,3677,-7750,-2741,61,76,866
664369,10438292,11258024,10442424,11261624,2859,2944,-38,4784,-1042,3364,-7447,-1996,61,76,866
665370,10438572,11258276,10442751,11261951,3005,2877,-1737,3208,-1044,1794,-7616,-665,48,54,865
666371,10438896,11258628,10443078,11262278,2732,2243,-3227,1535,-1129,1887,-7594,-1762,48,54,865
667372,10439220,11259028,10443405,11262605,2735,1911,-3908,-831,-1438,1935,-5374,-4488,74,72,863
668373,10439532,11259520,10443732,11262932,2817,1264,-3974,-3504,-1876,1320,-3802,-3904,74,72,863
669374,10439856,11259992,10444059,11263259,2745,1326,-4028,-5262,-2341,1414,-4820,-625,78,96,868
670375,10440188,11260388,10444386,11263586,2692,1771,-4256,-6156,-2602,899,-6243,1330,78,96,868
671376,10440512,11260664,10444713,11263913,2745,2544,-4435,-6077,-2591,196,-6894,4337,59,82,872
672378,10440832,11261136,10445040,11264240,2774,1257,-4535,-5261,-2505,-164,-7500,6058,59,82,872
673378,10441200,11261624,10445367,11264567,2457,1086,-4552,-4129,-2485,-1183,-6954,7687,70,91,871
674379,10441544,11262072,10445694,11264894,2600,1284,-4370,-2777,-2599,-2095,-5206,8111,70,91,871
675380,10441876,11262540,10446021,11265221,2673,1097,-4046,-1384,-2913,-2558,-3969,8070,72,87,871
676381,10442224,11262940,10446348,11265548,2565,1491,-3669,159,-3215,-2957,-3905,8937,72,87,871
677382,10442560,11263328,10446675,11265875,2637,1539,-3250,1955,-3257,-2818,-4014,9732,72,78,873
678383,10442888,11263736,10447002,11266202,2687,1379,-2741,3839,-3033,-2778,-4672,9703,72,78,873
679385,10443284,11264124,10447329,11266529,2233,1477,-2158,5718,-2631,-2967,-5203,9748,60,71,873
680386,10443640,11264444,10447656,11266856,2470,1906,-1509,7364,-2173,-3293,-5223,8888,60,71,873
681387,10443996,11264836,10447983,11267183,2459,1428,-786,8529,-1767,-3513,-5028,7438,80,69,872
682387,10444356,11265308,10448310,11267510,2420,865,-67,9459,-1455,-3632,-4291,6943,80,69,872
683389,10444716,11265788,10448637,11267837,2407,748,645,10132,-1206,-3586,-3545,6259,78,94,871
684390,10445068,11266252,10448964,11268164,2446,789,1443,10459,-929,-3459,-3670,4918,78,94,871
685390,10445484,11266576,10449291,11268491,2007,1665,2356,10271,-647,-3342,-3288,3328,74,92,875
686391,10445860,11266952,10449618,11268818,2237,1319,3288,9803,-381,-2927,-2379,2785,74,92,875
687392,10446236,11267384,10449945,11269145,2215,923,4127,9153,-89,-2648,-1918,2268,75,85,876
688393,10446608,11267812,10450272,11269472,2222,904,4838,8445,313,-2419,-2111,1990,75,85,876
689394,10447020,11268176,10450599,11269799,1935,1288,5459,7644,839,-2125,-2088,1777,68,73,875
690395,10447400,11268448,10450926,11270126,2113,1888,6018,6911,1386,-1901,-1804,2112,68,73,875
691396,10447792,11268656,10451253,11270453,2009,2340,6484,6500,1823,-2197,-1348,2920,85,50,877
692397,10448236,11268876,10451580,11270780,1634,2312,6882,6121,2120,-2798,-1378,2955,85,50,877
693398,10448608,11269112,10451907,11271107,2065,2253,7223,5839,2284,-3141,-1363,3240,74,41,873
694399,10449040,11269308,10452234,11271434,1644,2561,7473,5632,2340,-3639,-767,3657,74,41,873
695400,10449460,11269520,10452561,11271761,1679,2511,7564,5478,2209,-4236,80,3857,88,39,873
696401,10449836,11269700,10452888,11272088,1933,2777,7526,5331,1894,-4702,488,4006,88,39,873
697402,10450208,11269864,10453215,11272415,1939,2949,7417,5343,1517,-4800,529,4359,84,33,870
698403,10450600,11270032,10453542,11272742,1786,2994,7215,5408,1186,-4462,316,4326,84,33,870
699404,10450920,11270240,10453869,11273069,2239,2797,6923,5266,928,-3996,267,3780,61,34,868
700406,10451248,11270424,10454196,11273396,2190,3011,6613,4883,719,-3471,406,3192,61,34,868
701406,10451612,11270592,10454523,11273723,1949,3180,6268,4175,439,-3018,1139,2236,62,46,867
702407,10451952,11270804,10454850,11274050,2094,2957,5911,3142,10,-2760,1560,1240,62,46,867
703408,10452252,11271008,10455177,11274377,2356,3062,5516,1894,-545,-2624,1761,681,52,48,865
704409,10452568,11271204,10455504,11274704,2262,3170,5168,496,-1046,-2276,1160,286,52,48,865
705410,10452880,11271392,10455831,11275031,2293,3282,4800,-922,-1405,-1476,815,193,59,53,866
706411,10453180,11271596,10456158,11275358,2381,3237,4373,-2303,-1689,-818,993,164,59,53,866
707412,10453460,11271816,10456485,11275685,2528,3184,3902,-3690,-1951,-326,1154,23,71,52,863
708413,10453764,11272052,10456812,11276012,2388,3125,3403,-5167,-2188,236,1032,-252,71,52,863
709414,10454036,11272300,10457139,11276339,2613,3085,2893,-6711,-2366,826,975,-463,64,57,861
710422,10454292,11272528,10457500,11276700,2759,3270,2372,-8175,-2465,1244,1057,-358,64,57,861
711416,10454540,11272768,10457827,11277027,2845,3233,1900,-9576,-2504,1243,902,-369,51,43,864
712418,10454776,11272996,10458154,11277354,2961,3353,1521,-10855,-2530,1162,739,-39,51,43,864
713419,10455000,11273260,10458481,11277681,3081,3156,1177,-11899,-2561,1200,829,719,51,63,860
714420,10455236,11273520,10458808,11278008,3047,3212,771,-12515,-2607,1184,1013,1899,51,63,860
715421,10455496,11273808,10459135,11278335,2928,3055,354,-12753,-2651,806,702,2826,57,68,859
716422,10455724,11274076,10459462,11278662,3171,3207,-103,-12554,-2703,395,442,4420,57,68,859
717423,10455972,11274360,10459789,11278989,3082,3126,-552,-11932,-2759,266,493,5397,39,56,859
718424,10456188,11274652,10460116,11279316,3332,3092,-939,-11102,-2817,-55,422,5423,39,56,859
719425,10456436,11274960,10460443,11279643,3166,3001,-1233,-10348,-2922,-597,618,5335,55,65,857
720426,10456712,11275288,10460770,11279970,3015,2877,-1473,-9593,-3065,-1011,594,5518,55,65,857
721427,10456980,11275652,10461097,11280297,3092,2637,-1639,-8797,-3188,-1196,481,5451,60,81,858
722428,10457244,11275952,10461424,11280624,3145,3050,-1723,-8058,-3251,-1358,412,4942,60,81,858
723428,10457568,11276256,10461751,11280951,2772,3036,-1737,-7482,-3241,-1472,260,4572,49,59,862
724430,10457832,11276528,10462078,11281278,3175,3261,-1716,-7016,-3159,-1348,302,4381,49,59,862
725431,10458124,11276832,10462405,11281605,3017,3072,-1664,-6615,-3047,-1167,600,3876,48,65,860
726432,10458424,11277176,10462732,11281932,2980,2815,-1573,-6477,-2931,-948,928,2843,48,65,860
727433,10458736,11277492,10463059,11282259,2912,2995,-1389,-6633,-2784,-650,907,2090,66,68,859
728434,10459056,11277812,10463386,11282586,2866,2974,-1190,-6951,-2581,-291,771,1886,66,68,859
729435,10459332,11278116,10463713,11282913,3164,3086,-996,-7209,-2328,-30,846,1911,69,73,861
730435,10459636,11278404,10464040,11283240,3000,3204,-810,-7475,-2003,153,736,2040,69,73,861
731436,10459924,11278724,10464367,11283567,3118,3008,-631,-7641,-1624,417,534,2199,48,59,860
732438,10460228,11279024,10464694,11283894,3029,3146,-460,-7822,-1261,739,699,2271,48,59,860
733439,10460540,11279328,10465021,11284221,2987,3132,-271,-7855,-901,1141,1089,2830,63,58,860
734440,10460840,11279636,10465348,11284548,3075,3116,-108,-7724,-547,1184,1285,3462,63,58,860
735440,10461120,11279924,10465675,11284875,3220,3259,15,-7303,-225,1290,1588,4245,65,69,860
736442,10461440,11280224,10466002,11285202,2974,3197,137,-6705,74,1594,1966,4888,65,69,860
737443,10461748,11280532,10466329,11285529,3059,3156,225,-5912,323,1899,2399,5507,48,67,860
738444,10462044,11280872,10466656,11285856,3148,2952,245,-5052,486,2081,2804,5876,48,67,860
739444,10462396,11281184,10466983,11286183,2788,3134,203,-4092,607,2170,2814,6208,49,75,859
740445,10462724,11281492,10467310,11286510,2939,3168,110,-3034,706,2284,2778,6776,49,75,859
741447,10463032,11281756,10467637,11286837,3073,3471,-1,-1900,788,2418,2803,6877,51,65,860
742447,10463400,11282056,10467964,11287164,2681,3259,-133,-795,851,2591,2855,7008,51,65,860
743448,10463740,11282376,10468291,11287491,2850,3138,-291,265,883,2624,2866,7158,72,53,860
744449,10464108,11282656,10468618,11287818,2658,3410,-433,1206,859,2602,2930,6603,72,53,860
745451,10464484,11282916,10468945,11288145,2588,3565,-528,1856,758,2557,2936,5843,76,64,861
746452,10464844,11283192,10469272,11288472,2674,3489,-587,2202,623,2466,2857,5296,76,64,861
747465,10465228,11283412,10469599,11288799,2500,3800,-620,2356,486,2565,2730,4903,61,67,859
748454,10465628,11283712,10469926,11289126,2369,3400,-653,2410,385,2525,2073,4602,61,67,859
749455,10466056,11283968,10470253,11289453,2151,3707,-704,2394,335,2296,1443,4386,86,45,858
750469,10466480,11284200,10470580,11289780,2133,3800,-752,2247,296,2200,1231,4192,86,45,858
751469,10466876,11284396,10470907,11290107,2279,3800,-776,2006,250,2105,1115,4035,73,49,861
752470,10467308,11284600,10471234,11290434,2009,3800,-783,1742,217,1623,830,4160,73,49,861
753471,10467692,11284812,10471561,11290761,2285,3800,-779,1414,199,1017,415,4328,76,54,859
754472,10468100,11285048,10471888,11291088,2099,3800,-771,1170,188,509,336,4607,76,54,859
755473,10468548,11285252,10472215,11291415,1797,3800,-745,1006,187,42,429,4987,86,54,860
756474,10468900,11285452,10472542,11291742,2387,3800,-688,867,190,-286,591,5211,86,54,860
757475,10469256,11285628,10472869,11292069,2349,3800,-574,728,173,-577,808,5837,78,50,860
758476,10469716,11285772,10473196,11292396,1642,3800,-455,695,141,-865,987,6696,78,50,860
759477,10470104,11285948,10473523,11292723,2066,3800,-263,707,90,-1277,1119,7388,72,29,858
760485,10470452,11286116,10473884,11293084,2322,3800,-11,733,38,-1355,1103,7993,72,29,858
761480,10470812,11286252,10474211,11293411,2233,3800,288,723,25,-1508,924,8233,83,38,861
762480,10471168,11286396,10474538,11293738,2246,3800,623,677,68,-1805,781,8284,83,38,861
763481,10471484,11286536,10474865,11294065,2501,3800,991,643,130,-2269,361,8083,66,27,856
764482,10471796,11286664,10475192,11294392,2534,3800,1369,503,220,-2758,-248,7474,66,27,856
765483,10472108,11286808,10475519,11294719,2541,3800,1728,324,358,-2807,-378,6993,67,36,858
766484,10472384,11286932,10475846,11295046,2789,3800,2071,16,525,-2696,-243,6258,67,36,858
767485,10472696,11287060,10476173,11295373,2571,3800,2374,-309,752,-2668,-471,5608,49,31,856
768486,10473020,11287196,10476500,11295700,2499,3800,2648,-654,1033,-2529,-633,5150,49,31,856
769487,10473328,11287336,10476827,11296027,2607,3800,2945,-1015,1312,-2286,-429,4973,64,27,855
770488,10473668,11287468,10477154,11296354,2402,3800,3237,-1210,1559,-2161,-408,5412,64,27,855
771489,10474016,11287640,10477481,11296681,2344,3800,3530,-1330,1767,-2398,-432,5176,77,32,857
772490,10474328,11287812,10477808,11297008,2576,3800,3859,-1634,1918,-2228,-11,4474,77,32,857
773491,10474676,11288004,10478135,11297335,2343,3800,4188,-2010,2024,-1343,626,4325,77,28,856
774492,10475040,11288200,10478462,11297662,2227,3800,4466,-2196,2133,-836,1114,4681,77,28,856
775493,10475336,11288408,10478789,11297989,2666,3800,4728,-2339,2277,-1107,1036,4394,58,33,855
776494,10475608,11288644,10479116,11298316,2841,3800,4982,-2437,2428,-1177,662,4727,58,33,855
777495,10475880,11288912,10479443,11298643,2866,3800,5185,-2216,2605,-554,528,5396,53,53,858
778496,10476132,11289240,10479770,11298970,3024,3800,5257,-1683,2854,-129,128,6217,53,53,858
779497,10476404,11289568,10480097,11299297,2924,3800,5235,-1040,3153,-370,-714,6333,52,71,856
780499,10476720,11289900,10480424,11299624,2655,3800,5208,-466,3328,-443,-231,5532,52,71,856
781499,10477032,11290348,10480751,11299951,2687,3800,5237,-93,3358,445,506,4669,65,75,855
782500,10477336,11290776,10481078,11300278,2748,3800,5231,345,3371,752,267,4919,65,75,855
783501,10477688,11291204,10481405,11300605,2438,3800,5144,832,3452,321,88,5134,61,77,858
784502,10478040,11291636,10481732,11300932,2428,3800,5023,1351,3497,692,919,4802,61,77,858
785490,10478364,11292188,10482059,11301259,2604,3488,4917,1845,3474,1653,1581,4122,59,95,858
786492,10478672,11292692,10482386,11301586,2714,3712,4859,2058,3369,2067,2347,3052,59,95,858
787492,10478984,11293320,10482713,11301913,2696,2807,4767,2165,3243,2084,2250,3063,69,111,860
788494,10479316,11293892,10483040,11302240,2569,3050,4627,2273,3191,1934,1658,2978,69,111,860
789495,10479656,11294492,10483367,11302567,2514,2757,4463,2510,3060,2029,1924,2839,61,127,861
790496,10479988,11295132,10483694,11302894,2563,2371,4266,2695,2733,2084,2170,2261,61,127,861
791497,10480300,11295752,10484021,11303221,2695,2369,4033,2826,2391,1915,1801,2294,65,125,866
792498,10480652,11296532,10484348,11303548,2435,1171,3746,3035,2123,1658,1476,2731,65,125,866
793498,10481084,11297176,10484675,11303875,1890,1883,3434,3356,1877,1901,1416,2482,64,117,869
794500,10481484,11297896,10485002,11304202,2058,1237,3133,3680,1588,1949,1506,1976,64,117,869
795501,10481840,11298540,10485329,11304529,2321,1573,2850,3864,1279,1434,1067,1771,70,144,874
796502,10482292,11299316,10485656,11304856,1667,552,2539,4029,1016,1182,566,1920,70,144,874
797502,10482680,11299940,10485983,11305183,2041,1373,2237,4290,862,1574,408,1816,93,142,876
798504,10483080,11300784,10486310,11305510,1934,-229,2006,4511,784,1775,-46,1120,93,142,876
799504,10483580,11301396,10486637,11305837,1234,1097,1889,4566,733,1660,-641,559,86,125,881
800506,10483964,11302168,10486964,11306164,1934,-97,1832,4517,682,1479,-827,219,86,125,881
801506,10484320,11302756,10487291,11306491,2097,939,1774,4525,617,1474,-1187,197,95,123,880
802508,10484752,11303340,10487618,11306818,1576,851,1728,4569,565,1375,-1614,107,95,123,880
803508,10485184,11303952,10487945,11307145,1531,552,1669,4828,549,1300,-1918,750,73,112,881
804510,10485600,11304508,10488272,11307472,1593,802,1583,5410,562,1386,-2197,1752,73,112,881
805511,10486008,11305056,10488599,11307799,1607,755,1498,6250,539,1541,-2109,2228,92,118,880
806512,10486388,11305488,10488926,11308126,1760,1435,1381,7304,487,1791,-2108,2635,92,118,880
807512,10486852,11306012,10489253,11308453,1175,773,1291,8239,396,1641,-2287,2208,81,86,879
808513,10487376,11306456,10489580,11308780,713,1223,1236,8976,235,1706,-2421,1654,81,86,879
809514,10487844,11306892,10489907,11309107,1002,1225,1236,9529,27,1969,-2612,1103,87,86,878
810525,10488188,11307328,10490268,11309468,1785,1193,1264,10040,-193,2131,-2601,1047,87,86,878
811517,10488592,11307760,10490595,11309795,1377,1172,1264,10565,-408,2309,-2409,883,72,82,882
812518,10489080,11308140,10490922,11310122,781,1473,1196,10976,-620,2349,-1878,725,72,82,882
813519,10489456,11308428,10491249,11310449,1459,2067,1095,11315,-897,2097,-1713,212,67,87,878
814520,10489948,11308792,10491576,11310776,663,1575,1009,11431,-1248,1982,-2006,-605,67,87,878
815521,10490380,11309132,10491903,11311103,992,1721,901,11338,-1638,2204,-1575,-834,72,61,881
816522,10490888,11309384,10492230,11311430,437,2304,762,11221,-2104,2072,-784,-1007,72,61,881
817522,10491280,11309616,10492557,11311757,1135,2470,603,10999,-2679,2018,-217,-1636,71,53,879
818523,10491736,11309864,10492884,11312084,678,2406,441,10629,-3344,2242,183,-1915,71,53,879
819524,10492196,11310076,10493211,11312411,595,2682,317,10220,-4017,2123,211,-2057,78,50,876
820525,10492580,11310288,10493538,11312738,1044,2733,163,9741,-4651,1856,-169,-2029,78,50,876
821526,10493052,11310460,10493865,11313065,431,3051,-48,9293,-5219,1545,-627,-1995,81,49,876
822527,10493452,11310620,10494192,11313392,850,3201,-300,8851,-5753,1058,-600,-2102,81,49,876
823528,10493832,11310740,10494519,11313719,951,3542,-555,8435,-6298,503,-571,-1914,67,26,872
824529,10494276,11310948,10494846,11314046,500,3045,-826,8096,-6871,-52,-821,-1735,67,26,872
825530,10494656,11311160,10495173,11314373,877,3070,-1132,7933,-7385,-422,-1426,-1025,62,47,870
826531,10495008,11311336,10495500,11314700,1041,3363,-1472,7809,-7794,-446,-1735,-1086,62,47,870
827533,10495376,11311544,10495827,11315027,923,3215,-1804,7527,-8104,-639,-1482,-1588,55,45,871
828534,10495720,11311808,10496154,11315354,1065,2894,-2087,7027,-8372,-986,-1465,-1991,55,45,871
829534,10496040,11312056,10496481,11315681,1218,3030,-2363,6346,-8597,-1237,-1841,-2191,64,57,866
830535,10496348,11312328,10496808,11316008,1302,2904,-2586,5563,-8661,-1523,-1794,-2634,64,57,866
831536,10496684,11312692,10497135,11316335,1124,2313,-2743,4469,-8586,-1405,-1890,-3351,74,54,871
832537,10496960,11313040,10497462,11316662,1521,2405,-2911,3285,-8487,-1117,-1861,-3258,74,54,871
833538,10497248,11313396,10497789,11316989,1463,2343,-3134,2041,-8329,-849,-2654,-3186,51,60,871
834539,10497560,11313676,10498116,11317316,1320,2839,-3429,600,-8037,-196,-4636,-3489,51,60,871
835540,10497832,11313928,10498443,11317643,1594,3048,-3760,-873,-7592,-197,-5366,-3187,49,68,873
836542,10498092,11314272,10498770,11317970,1698,2467,-4110,-2259,-7030,-738,-5122,-2769,49,68,873
837543,10498336,11314592,10499097,11318297,1835,2620,-4513,-3633,-6387,-667,-5275,-2278,46,59,871
838543,10498564,11314968,10499424,11318624,1978,2249,-4951,-4786,-5627,-401,-5308,-1507,46,59,871
839545,10498800,11315340,10499751,11318951,1968,2255,-5429,-5632,-4749,-194,-5407,-673,42,83,871
840545,10499052,11315716,10500078,11319278,1902,2209,-5936,-6484,-3858,-222,-5324,-454,42,83,871
841546,10499324,11316112,10500405,11319605,1802,2055,-6418,-7510,-2973,-239,-5230,-287,50,71,871
842547,10499572,11316500,10500732,11319932,1986,2079,-6853,-8382,-2101,97,-5139,406,50,71,871
843549,10499808,11316796,10501059,11320259,2101,2667,-7296,-9048,-1294,383,-4977,1173,55,88,872
844550,10500056,11317124,10501386,11320586,2061,2468,-8383,-8498,-619,311,-4980,6851,55,88,872
845551,10500320,11317456,10501713,11320913,1990,2442,-10019,-6869,54,-224,-6263,8390,39,59,872
846552,10500624,11317724,10502040,11321240,1750,2868,-10920,-6448,682,-20,-5181,3251,39,59,872
847553,10500928,11318044,10502367,11321567,1760,2547,-11218,-6879,1213,387,-4522,3925,62,73,870
848554,10501148,11318372,10502694,11321894,2333,2497,-11427,-7476,1705,645,-4497,4492,62,73,870
849555,10501392,11318700,10503021,11322221,2219,2497,-9603,-5433,2218,4437,-4728,20575,63,55,869
850556,10501620,11318964,10503348,11322548,2363,2926,1156,12058,1553,23352,-2678,32767,63,55,869
851556,10501800,11319232,10503675,11322875,2727,2927,12770,26977,1179,14376,-8224,32767,53,60,867
852558,10502064,11319496,10504002,11323202,2231,2980,15125,27207,1859,1856,-5453,-66,53,60,867
853559,10502336,11319804,10504329,11323529,2205,2714,12583,19248,2622,-278,-2446,-6905,59,46,865
854560,10502600,11320092,10504656,11323856,2284,2858,9900,10637,3101,-1936,-2464,-6482,59,46,865
855561,10502876,11320340,10504983,11324183,2231,3143,8344,5423,3225,-546,-41,-3454,48,50,865
856562,10503124,11320588,10505310,11324510,2441,3178,7444,1737,3020,-1825,449,-4821,48,50,865
857563,10503368,11320864,10505637,11324837,2504,3026,6575,-631,2687,-832,1063,-2141,60,60,866
858563,10503596,11321164,10505964,11325164,2647,2889,5301,-1600,2251,-333,2668,1988,60,60,866
859565,10503816,11321452,10506291,11325491,2745,2982,4381,-2372,1722,-363,1772,-317,43,49,863
860573,10504040,11321700,10506652,11325852,2780,3282,3997,-3924,1302,-570,354,-1936,43,49,863
861567,10504208,11321964,10506979,11326179,3201,3211,3924,-5755,1069,-1063,-303,-1550,47,47,862
862568,10504412,11322276,10507306,11326506,3030,2918,3732,-7132,956,-1227,-384,-179,47,47,862
863568,10504648,11322636,10507633,11326833,2871,2605,3333,-7745,833,-1423,-95,1760,34,56,858
864570,10504832,11323040,10507960,11327160,3259,2297,2626,-7407,903,-1486,-914,4572,34,56,858
865570,10505020,11323340,10508287,11327487,3296,2959,2180,-7036,969,-2056,-931,2721,41,70,861
866571,10505216,11323584,10508614,11327814,3304,3346,2075,-7060,975,-2335,-989,1971,41,70,861
867572,10505424,11323828,10508941,11328141,3282,3384,2214,-7363,1006,-2719,-1832,1485,36,65,862
868574,10505604,11324108,10509268,11328468,3523,3181,2340,-7728,1056,-2952,-2294,1163,36,65,862
869575,10505816,11324488,10509595,11328795,3374,2533,2311,-7943,1060,-3308,-1901,1562,54,50,856
870575,10506012,11324824,10509922,11329122,3532,2804,2103,-7726,1050,-3436,-1176,2869,54,50,856
871576,10506212,11325220,10510249,11329449,3564,2400,1856,-7182,1109,-3299,-665,3308,40,87,856
872578,10506428,11325688,10510576,11329776,3513,1889,1679,-6491,1318,-3205,-358,3435,40,87,856
873578,10506624,11326084,10510903,11330103,3697,2310,1538,-5702,1669,-3049,-225,4034,48,83,857
874579,10506820,11326532,10511230,11330430,3754,1932,1400,-4694,2078,-2794,-101,4802,48,83,857
875593,10507012,11327008,10511557,11330757,3800,1692,1251,-3484,2475,-2674,57,5367,50,87,863
876595,10507172,11327396,10511884,11331084,3800,2216,1144,-2164,2788,-2507,427,5268,50,87,863
877595,10507340,11327836,10512211,11331411,3800,1843,1046,-978,2986,-2169,820,5091,47,84,860
878596,10507504,11328296,10512538,11331738,3800,1659,929,163,3087,-1736,1328,5283,47,84,860
879597,10507640,11328684,10512865,11332065,3800,2083,825,1203,3076,-1277,1990,4778,46,77,858
880598,10507780,11329216,10513192,11332392,3800,1094,805,1949,2949,-797,2456,3873,46,77,858
881599,10507944,11329680,10513519,11332719,3800,1459,829,2450,2763,-180,2859,3389,42,83,861
882600,10508148,11330064,10513846,11333046,3800,1935,833,2780,2564,741,3089,3001,42,83,861
883601,10508364,11330540,10514173,11333373,3800,1294,829,2887,2347,1517,3297,2074,51,89,862
884602,10508600,11330960,10514500,11333700,3800,1605,837,2680,2105,2136,3488,1548,51,89,862
885603,10508876,11331340,10514827,11334027,3800,1832,814,2404,1829,2926,3173,1822,61,95,860
886604,10509124,11331748,10515154,11334354,3800,1622,721,2177,1527,3349,2472,1927,61,95,860
887605,10509348,11332164,10515481,11334681,3800,1534,609,1987,1150,3210,2707,1798,46,89,862
888606,10509616,11332588,10515808,11335008,3800,1441,473,1799,585,3110,3468,1971,46,89,862
889607,10509836,11332988,10516135,11335335,3800,1559,252,1676,-147,3310,3574,2453,41,83,862
890609,10510068,11333412,10516462,11335662,3800,1367,-31,1735,-945,3655,3529,2956,57,84,863
891609,10510312,11333856,10516789,11335989,3800,1191,-351,1873,-1767,3595,2785,3130,57,84,863
892611,10510520,11334176,10517116,11336316,3800,1970,-1023,1896,-3547,3314,2210,3159,57,69,863
893611,10510728,11334456,10517443,11336643,3800,2241,-1337,1892,-4414,3335,1393,3152,57,69,863
894612,10510912,11334748,10517770,11336970,3800,2182,-1606,1867,-5159,3031,1363,3047,44,66,858
895613,10511068,11335020,10518097,11337297,3800,2331,-1839,1841,-5798,2599,1934,3140,44,66,858
896614,10511200,11335256,10518424,11337624,3800,2596,-2081,1817,-6302,2606,1575,3397,28,55,858
897615,10511316,11335456,10518751,11337951,3800,2878,-2304,1809,-6652,2665,760,3428,28,55,858
898616,10511440,11335668,10519078,11338278,3800,2853,-2442,1783,-6867,2389,269,3355,33,46,855
899617,10511536,11335848,10519405,11338605,3800,3119,-2504,1717,-7002,1926,-189,3423,33,46,855
900618,10511616,11336004,10519732,11338932,3800,3344,-2513,1669,-7085,1584,-666,3755,19,45,853
901619,10511708,11336184,10520059,11339259,3800,3260,-2510,1739,-7110,1482,-850,3851,19,45,853
902620,10511788,11336340,10520386,11339586,3800,3486,-2494,1795,-7073,1304,-586,3742,25,30,850
903621,10511864,11336488,10520713,11339913,3800,3615,-2487,1842,-6978,922,-278,3993,25,30,850
904622,10511944,11336636,10521040,11340240,3800,3694,-2500,1939,-6820,514,-226,4364,29,27,847
905636,10512052,11336772,10521367,11340567,3800,3800,-2497,2188,-6605,44,-598,4611,29,27,847
906624,10512152,11336948,10521694,11340894,3800,3671,-2433,2391,-6352,-644,-931,4429,30,31,846
907625,10512256,11337136,10522021,11341221,3800,3658,-2308,2541,-6070,-1344,-1345,4450,30,31,846
908626,10512376,11337344,10522348,11341548,3800,3586,-2147,2666,-5753,-1914,-1711,4521,31,33,847
909640,10512496,11337520,10522675,11341875,3800,3800,-1949,2813,-5414,-2393,-1954,4583,31,33,847
910648,10512632,11337684,10523036,11342236,3800,3800,-1706,2957,-5085,-2794,-2031,4483,37,42,848
911642,10512764,11337848,10523363,11342563,3800,3800,-1413,2999,-4791,-3123,-1499,4400,37,42,848
912643,10512888,11338012,10523690,11342890,3800,3800,-1125,3037,-4540,-3250,-693,4568,18,30,844
913644,10513052,11338208,10524017,11343217,3800,3800,-854,3093,-4290,-3197,-452,4555,18,30,844
914645,10513196,11338372,10524344,11343544,3800,3800,-580,3187,-4005,-3224,-319,4722,29,32,846
915646,10513344,11338568,10524671,11343871,3800,3800,-286,3227,-3681,-3337,-285,4689,29,32,846
916647,10513512,11338776,10524998,11344198,3800,3800,15,3243,-3344,-3352,-313,4575,20,47,846
917648,10513696,11338972,10525325,11344525,3800,3800,335,3147,-3003,-3137,-576,4337,20,47,846
918649,10513884,11339176,10525652,11344852,3800,3800,664,2979,-2651,-2907,-619,4201,27,45,847
919650,10514068,11339392,10525979,11345179,3800,3800,983,2699,-2319,-2713,-243,4019,27,45,847
920651,10514256,11339572,10526306,11345506,3800,3800,1269,2384,-2061,-2512,270,3849,49,55,847
921652,10514464,11339792,10526633,11345833,3800,3800,1521,2067,-1855,-2304,525,3992,49,55,847
922653,10514648,11340028,10526960,11346160,3800,3800,1703,1747,-1667,-2033,758,3973,49,42,847
923654,10514860,11340240,10527287,11346487,3800,3800,1831,1308,-1499,-1565,982,3846,49,42,847
924655,10515032,11340492,10527614,11346814,3800,3800,1940,840,-1317,-969,1006,3812,28,44,846
925656,10515224,11340712,10527941,11347141,3800,3800,2063,300,-1139,-453,1092,3717,28,44,846
926657,10515408,11340976,10528268,11347468,3800,3800,2176,-246,-1008,-68,1031,3858,30,58,847
927658,10515580,11341204,10528595,11347795,3800,3800,2257,-791,-905,274,987,4042,30,58,847
928659,10515760,11341448,10528922,11348122,3800,3800,2288,-1281,-827,630,1157,4359,25,42,846
929660,10515924,11341696,10529249,11348449,3800,3800,2269,-1741,-785,951,1247,4545,25,42,846
930661,10516076,11341964,10529576,11348776,3800,3800,2203,-2146,-763,1126,1267,4823,40,48,845
931662,10516236,11342188,10529903,11349103,3800,3800,2072,-2427,-742,1507,1206,5052,40,48,845
932663,10516420,11342436,10530230,11349430,3800,3800,1892,-2687,-718,1953,1086,5147,26,50,844
933664,10516596,11342720,10530557,11349757,3800,3800,1669,-2844,-688,2172,921,5439,26,50,844
934665,10516792,11342992,10530884,11350084,3800,3800,1443,-3041,-670,2196,997,5290,42,68,848
935666,10517020,11343320,10531211,11350411,3800,3800,1215,-3306,-703,2270,1256,5117,42,68,848
936667,10517280,11343612,10531538,11350738,3800,3800,981,-3559,-778,2275,1534,5310,41,59,848
937668,10517512,11343924,10531865,11351065,3800,3800,753,-3766,-874,2113,1677,5241,41,59,848
938669,10517764,11344216,10532192,11351392,3800,3800,499,-3936,-946,2061,1193,5449,61,55,848
939670,10518052,11344508,10532519,11351719,3800,3800,230,-3941,-990,1817,1133,5750,61,55,848
940671,10518344,11344836,10532846,11352046,3800,3800,-63,-3884,-1026,1722,1225,5882,56,65,850
941659,10518616,11345224,10533173,11352373,3800,3793,-350,-3878,-1078,1626,1474,5758,56,65,850
942673,10518920,11345544,10533500,11352700,3800,3800,-558,-3951,-1108,1434,1634,6014,70,64,850
943674,10519220,11345876,10533827,11353027,3800,3800,-674,-3924,-1102,1096,1684,6859,70,64,850
944675,10519524,11346208,10534154,11353354,3800,3800,-667,-3790,-1049,710,1459,7560,48,68,850
945676,10519876,11346572,10534481,11353681,3800,3800,-539,-3594,-978,181,1239,7624,48,68,850
946664,10520156,11346968,10534808,11354008,3800,3702,-363,-3584,-975,-105,1160,6661,62,72,850
947678,10520472,11347296,10535135,11354335,3800,3800,-237,-3701,-1053,-126,949,5745,62,72,850
948679,10520812,11347660,10535462,11354662,3800,3800,-175,-3840,-1150,-455,795,5218,64,79,849
949680,10521196,11348004,10535789,11354989,3800,3800,-117,-4049,-1222,-809,349,4619,64,79,849
950681,10521576,11348356,10536116,11355316,3800,3800,-38,-4272,-1244,-1118,-34,4423,77,79,849
951682,10522000,11348696,10536443,11355643,3800,3800,85,-4470,-1221,-1325,140,4296,77,79,849
952683,10522488,11349060,10536770,11355970,3800,3800,227,-4617,-1240,-1596,387,4223,95,67,851
953684,10522964,11349404,10537097,11356297,3800,3800,388,-4739,-1247,-2165,-13,4377,95,67,851
954685,10523528,11349716,10537424,11356624,3800,3800,561,-4663,-1151,-2680,-764,4896,105,69,851
955686,10524148,11350012,10537751,11356951,3800,3800,765,-4574,-1047,-2796,-695,4711,105,69,851
956687,10524764,11350292,10538078,11357278,3800,3800,999,-4431,-890,-2837,-705,4787,104,63,852
957688,10525364,11350632,10538405,11357605,3800,3800,1283,-4397,-718,-3032,-320,4476,104,63,852
958689,10526024,11350944,10538732,11357932,3800,3800,1628,-4267,-605,-3394,93,4696,119,59,852
959690,10526692,11351212,10539059,11358259,3800,3800,2007,-4037,-490,-3687,161,5104,119,59,852
960698,10527344,11351480,10539420,11358620,3800,3800,2413,-3676,-340,-3542,353,5163,121,55,851
961692,10528068,11351772,10539747,11358947,3800,3800,2760,-3346,-137,-3175,722,5262,121,55,851
962693,10528756,11352024,10540074,11359274,3800,3800,3036,-3010,71,-3089,718,5271,112,59,852
963681,10529456,11352296,10540401,11359601,3657,3800,3233,-2656,268,-3084,52,5410,112,59,852
964682,10530208,11352524,10540728,11359928,3148,3800,3407,-2182,481,-3510,-395,5585,124,47,853
965683,10530940,11352736,10541055,11360255,3097,3800,3582,-1726,726,-3752,-324,5389,124,47,853
966684,10531672,11352932,10541382,11360582,2921,3800,3779,-1422,946,-3789,91,4970,132,56,856
967685,10532480,11353128,10541709,11360909,2236,3800,4016,-1215,1166,-3692,396,4763,132,56,856
968686,10533212,11353404,10542036,11361236,2534,3800,4239,-1065,1427,-3449,-85,4580,155,59,857
969687,10533928,11353628,10542363,11361563,2465,3800,4447,-1033,1712,-3164,-234,4177,155,59,857
970688,10534664,11353852,10542690,11361890,2163,3800,4607,-1091,1988,-3035,-80,4016,144,44,858
971689,10535364,11354104,10543017,11362217,2225,3800,4723,-1166,2225,-3000,-261,3851,144,44,858
972690,10536016,11354428,10543344,11362544,2384,3800,4813,-1309,2442,-3183,-573,3765,153,59,859
973691,10536680,11354820,10543671,11362871,2162,3800,4874,-1503,2658,-3370,-793,3850,153,59,859
974680,10537340,11355272,10543998,11363198,2041,3781,4941,-1688,2910,-3367,-1332,3934,128,89,859
975681,10537908,11355720,10544325,11363525,2512,3754,4935,-1831,3177,-3025,-1897,4078,128,89,859
976682,10538452,11356260,10544652,11363852,2568,3087,4935,-2090,3429,-2088,-2019,3385,123,98,863
977683,10539052,11356824,10544979,11364179,2099,2835,4954,-2726,3575,-626,-1505,2013,123,98,863
978684,10539580,11357408,10545306,11364506,2462,2598,5017,-3615,3632,931,-839,1308,123,135,866
979684,10540072,11358064,10545633,11364833,2615,2004,5079,-4762,3621,2462,225,447,123,135,866
980686,10540652,11358640,10545960,11365160,1955,2397,5108,-5933,3632,3754,684,527,107,133,869
981687,10541044,11359260,10546287,11365487,3103,1994,5108,-6820,3680,4559,806,1139,107,133,869
982688,10541500,11359828,10546614,11365814,2647,2214,5023,-7488,3690,4839,659,1632,89,128,871
983689,10541968,11360480,10546941,11366141,2511,1547,4851,-7706,3688,5196,276,2757,89,128,871
984690,10542356,11361076,10547268,11366468,2985,1780,4654,-7901,3631,5514,827,2549,96,129,869
985690,10542756,11361824,10547595,11366795,2879,646,4413,-7755,3488,5386,729,3850,96,129,869
986692,10543208,11362444,10547922,11367122,2500,1318,4169,-7226,3294,5277,1199,4332,89,127,870
987692,10543640,11363092,10548249,11367449,2580,1003,3919,-6599,3011,5586,2209,4683,89,127,870
988694,10544044,11363732,10548576,11367776,2722,917,3673,-5496,2745,5689,2167,6047,90,140,874
989695,10544496,11364380,10548903,11368103,2368,727,3426,-4070,2517,5585,2466,6387,90,140,874
990696,10544952,11365100,10549230,11368430,2287,104,3207,-2736,2211,5629,2448,5847,72,135,874
991697,10545380,11365696,10549557,11368757,2418,762,3038,-1343,1844,5058,2314,5868,72,135,874
992698,10545796,11366392,10549884,11369084,2455,-24,3026,-159,1570,4299,1888,4663,91,122,877
993699,10546268,11366920,10550211,11369411,2042,937,3075,788,1308,3991,1445,3924,91,122,877
994700,10546736,11367572,10550538,11369738,2006,20,3083,1866,932,3277,1846,4430,78,121,876
995700,10547132,11368124,10550865,11370065,2426,546,3109,3142,683,3294,828,4326,78,121,876
996701,10547564,11368692,10551192,11370392,2156,341,3171,4233,471,3514,737,3201,81,108,879
997702,10548028,11369208,10551519,11370719,1897,584,3265,5459,200,2477,251,4145,81,108,879
998703,10548484,11369676,10551846,11371046,1891,822,3417,6695,-76,2327,34,3139,96,96,878
999704,10548960,11370204,10552173,11371373,1700,358,3600,7684,-375,2502,-205,2256,96,96,878
1000705,10549464,11370608,10552500,11371700,1449,1099,3761,8726,-632,1927,-752,2614,91,100,879
1001706,10549888,11370988,10552827,11372027,1906,1227,3937,9682,-966,1933,-11,1447,91,100,879
1002707,10550384,11371468,10553154,11372354,1383,535,4023,10330,-1315,1953,-849,837,84,91,880
1003708,10550864,11371912,10553481,11372681,1416,708,3990,11053,-1544,1854,-1476,1285,84,91,880
1004710,10551268,11372272,10553808,11373008,1858,1219,3769,12147,-1649,2274,-1729,2223,77,87,881
1005710,10551684,11372644,10554135,11373335,1744,1124,3543,13081,-1741,2817,-1431,1040,77,87,881
1006711,10552112,11373032,10554462,11373662,1625,997,3407,13666,-1859,3393,-1310,-31,88,73,878
1007712,10552520,11373416,10554789,11373989,1715,998,3315,13766,-2027,4039,-1204,-1174,88,73,878
1008714,10552928,11373700,10555116,11374316,1680,1642,3207,13737,-2184,4512,-1444,-1481,76,75,879
1009714,10553304,11373952,10555443,11374643,1858,1875,3046,13712,-2259,4251,-1523,-1701,76,75,879
1010725,10553664,11374256,10555804,11375004,1960,1575,2814,13766,-2280,4417,-1593,-1277,67,66,876
1011716,10553988,11374512,10556131,11375331,2186,1906,2438,13986,-2348,4501,-1367,-615,67,66,876
1012718,10554364,11374760,10556458,11375658,1840,1991,1982,14151,-2740,4172,-17,-1557,72,39,875
1013719,10554704,11374988,10556785,11375985,2060,2160,1473,13980,-3481,3745,933,-2456,72,39,875
1014719,10555052,11375156,10557112,11376312,2001,2606,921,13534,-4408,3075,1337,-2734,58,49,872
1015721,10555416,11375360,10557439,11376639,1886,2435,377,13076,-5459,2506,1754,-3060,58,49,872
1016722,10555768,11375520,10557766,11376966,1950,2783,-221,12637,-6551,2097,1838,-2798,66,29,867
1017723,10556144,11375680,10558093,11377293,1778,2856,-937,12575,-7582,1596,1292,-1487,66,29,867
1018723,10556524,11375836,10558420,11377620,1731,2957,-1674,12717,-8545,1014,804,-1395,70,27,867
1019724,10556892,11375984,10558747,11377947,1788,3086,-2329,12729,-9545,808,1257,-1825,70,27,867
1020726,10557228,11376116,10559074,11378274,1984,3272,-2917,12455,-10594,1010,1338,-2309,56,34,867
1021726,10557616,11376284,10559401,11378601,1633,3118,-3406,11824,-11587,1092,943,-3160,56,34,867
1022727,10557964,11376432,10559728,11378928,1874,3321,-3745,10839,-12451,764,307,-3983,78,52,864
1023729,10558312,11376664,10560055,11379255,1864,2839,-4009,9655,-13116,418,-880,-4369,78,52,864
1024730,10558724,11377020,10560382,11379582,1428,2051,-4313,8301,-13520,524,-2053,-4530,71,69,864
1025730,10559096,11377352,10560709,11379909,1658,2200,-4611,6788,-13676,672,-2619,-4873,71,69,864
1026731,10559472,11377676,10561036,11380236,1612,2252,-4799,5114,-13637,559,-2946,-5099,70,62,873
1027732,10559804,11378000,10561363,11380563,1886,2254,-4900,3383,-13478,211,-2612,-5054,70,62,873
1028734,10560196,11378328,10561690,11380890,1482,2228,-4999,1784,-13198,-281,-2614,-4274,64,63,873
1029735,10560548,11378696,10562017,11381217,1721,1961,-5120,481,-12775,-756,-2656,-3489,64,63,873
1030735,10560900,11379012,10562344,11381544,1711,2291,-5250,-648,-12213,-1053,-2866,-2966,54,61,873
1031737,10561244,11379268,10562671,11381871,1754,2698,-5441,-1603,-11552,-1433,-3053,-2068,54,61,873
1032737,10561580,11379568,10562998,11382198,1800,2435,-5654,-2452,-10828,-1471,-3161,-2051,51,63,872
1033739,10561888,11379988,10563325,11382525,1983,1645,-5867,-3433,-10083,-1342,-2884,-2030,51,63,872
1034739,10562212,11380408,10563652,11382852,1885,1605,-6142,-4142,-9370,-1577,-2517,-724,65,93,871
1035740,10562468,11380868,10563979,11383179,2342,1296,-6496,-4274,-8633,-2681,-2554,825,65,93,871
1036742,10562768,11381232,10564306,11383506,2078,1881,-6877,-4274,-7804,-3379,-3213,1255,65,89,874
1037742,10563076,11381608,10564633,11383833,2038,1784,-7269,-4174,-6903,-3038,-3254,1923,65,89,874
1038743,10563372,11381980,10564960,11384160,2126,1791,-7676,-4084,-5949,-2585,-2995,2282,64,72,872
1039745,10563672,11382364,10565287,11384487,2113,1690,-8095,-4079,-5038,-2410,-2667,2477,64,72,872
1040746,10563932,11382804,10565614,11384814,2393,1292,-8452,-4240,-4140,-2680,-2687,2371,64,85,873
1041746,10564188,11383168,10565941,11385141,2450,1751,-8826,-4390,-3256,-2354,-2568,2944,64,85,873
1042747,10564444,11383512,10566268,11385468,2481,1868,-9207,-4525,-2446,-1744,-2204,3082,57,68,873
1043748,10564724,11383856,10566595,11385795,2352,1862,-9575,-4867,-1687,-1500,-2317,3085,57,68,873
1044750,10565012,11384200,10566922,11386122,2320,1854,-10403,-4354,-890,-1221,-3896,7148,44,69,870
1045751,10565248,11384488,10567249,11386449,2685,2221,-11466,-3586,-22,-999,-4700,6594,44,69,870
1046751,10565528,11384812,10567576,11386776,2432,1999,-11873,-3830,649,-538,-3251,3143,56,62,871
1047752,10565820,11385076,10567903,11387103,2372,2401,-11768,-4810,1087,195,-3126,3608,56,62,871
1048754,10566152,11385360,10568230,11387430,2120,2296,-5328,-6834,416,13103,-2461,32767,53,58,867
1049754,10566456,11385644,10568557,11387757,2306,2315,5265,-2876,-1403,23049,-5241,32767,53,58,867
1050755,10566740,11385880,10568884,11388084,2450,2655,7627,3702,-1360,3536,-7846,25143,64,57,869
1051756,10567000,11386132,10569211,11388411,2630,2589,4612,5750,-270,218,-5056,6357,64,57,869
1052758,10567200,11386388,10569538,11388738,3061,2595,1636,5336,599,260,-2473,5399,43,58,867
1053758,10567480,11386672,10569865,11389065,2582,2440,600,4104,987,-133,943,3377,43,58,867
1054759,10567792,11386920,10570192,11389392,2389,2700,888,2330,776,-656,1175,-1130,57,44,863
1055760,10568108,11387172,10570519,11389719,2369,2709,1574,69,463,-1277,622,-2803,57,44,863
1056762,10568440,11387404,10570846,11390046,2268,2876,1938,-1980,388,-856,-374,-936,80,65,866
1057762,10568748,11387732,10571173,11390373,2426,2276,1833,-2639,490,-227,-1670,2326,80,65,866
1058764,10569040,11388060,10571500,11390700,2543,2276,1847,-3229,681,-1714,-2397,1383,53,63,864
1059764,10569368,11388376,10571827,11391027,2317,2356,1915,-3606,847,-1866,-3269,2625,53,63,864
1060773,10569648,11388724,10572188,11391388,2654,2162,2137,-4030,941,-2087,-3482,1855,58,67,866
1061767,10569928,11388936,10572515,11391715,2674,3064,2352,-4281,1119,-2694,-4387,2965,58,67,866
1062767,10570224,11389160,10572842,11392042,2589,3034,2480,-4015,1334,-3305,-4937,3955,56,57,867
1063768,10570504,11389380,10573169,11392369,2710,3107,2380,-3290,1539,-3928,-5021,5479,56,57,867
1064769,10570748,11389664,10573496,11392696,2972,2726,2267,-1970,1800,-4055,-4562,6499,51,48,861
1065770,10571004,11390004,10573823,11393023,2928,2371,2264,-774,1989,-4444,-3866,5547,51,48,861
1066771,10571284,11390344,10574150,11393350,2800,2365,2368,108,2055,-4867,-4283,4967,48,84,862
1067772,10571552,11390704,10574477,11393677,2901,2227,2507,691,1966,-4948,-3279,4004,48,84,862
1068774,10571792,11391180,10574804,11394004,3115,1438,2786,1011,1945,-4293,-3255,2859,68,88,865
1069774,10572056,11391592,10575131,11394331,2993,1800,3090,1195,2035,-3953,-3889,2693,68,88,865
1070775,10572284,11391988,10575458,11394658,3262,1871,3316,1495,2231,-3474,-4541,3371,48,84,866
1071776,10572520,11392396,10575785,11394985,3252,1760,3432,1957,2524,-2822,-4924,3636,48,84,866
1072778,10572784,11392748,10576112,11395312,3106,2100,3487,2461,2841,-2327,-4547,3443,38,89,865
1073778,10573020,11393236,10576439,11395639,3322,1180,3565,2757,3110,-1792,-3932,2831,38,89,865
1074779,10573240,11393660,10576766,11395966,3469,1538,3661,2719,3316,-1067,-3413,2257,57,78,865
1075780,10573476,11394072,10577093,11396293,3410,1576,3795,2617,3461,-543,-2055,2090,57,78,865
1076782,10573720,11394516,10577420,11396620,3397,1324,3860,2502,3474,-211,-189,1945,51,100,865
1077783,10573988,11395032,10577747,11396947,3273,792,3857,2295,3341,360,616,1859,51,100,865
1078784,10574264,11395456,10578074,11397274,3247,1324,3804,2127,3200,929,637,2330,58,87,866
1079784,10574528,11395960,10578401,11397601,3351,748,3740,2131,3117,1442,551,2847,58,87,866
1080786,10574780,11396416,10578728,11397928,3459,991,3650,2226,2986,1846,774,2942,63,98,867
1081787,10575044,11396860,10579055,11398255,3412,1015,3541,2306,2773,2190,359,3455,63,98,867
1082787,10575272,11397256,10579382,11398582,3682,1284,3441,2462,2569,2611,-852,3675,46,94,866
1083801,10575484,11397688,10579709,11398909,3800,1014,3365,2667,2393,2821,-1040,3905,46,94,866
1084803,10575708,11398152,10580036,11399236,3800,754,3303,2877,2140,2693,-18,4049,40,78,865
1085790,10575952,11398528,10580363,11399563,3717,1282,3239,3074,1754,2624,1684,3985,40,78,865
1086804,10576188,11398928,10580690,11399890,3800,1100,3143,3320,1251,2450,2886,4183,55,72,865
1087805,10576396,11399296,10581017,11400217,3800,1282,2989,3638,713,2372,3442,4473,55,72,865
1088806,10576640,11399608,10581344,11400544,3800,1640,2787,3989,173,2454,3675,4669,52,63,863
1089807,10576872,11399856,10581671,11400871,3800,2075,2571,4334,-321,2405,3672,4764,52,63,863
1090808,10577112,11400120,10581998,11401198,3800,2002,2350,4667,-758,2352,3216,4816,44,66,861
1091809,10577376,11400328,10582325,11401525,3800,2405,2185,4904,-1152,2089,2667,4307,44,66,861
1092810,10577636,11400568,10582652,11401852,3800,2243,2002,5026,-1529,1398,2455,4387,60,56,857
1093811,10577856,11400776,10582979,11402179,3800,2496,1773,5205,-1959,614,2732,4396,60,56,857
1094812,10578108,11400940,10583306,11402506,3800,2843,1536,5233,-2484,-122,3111,3825,56,40,857
1095813,10578304,11401096,10583633,11402833,3800,2968,1296,5052,-3104,-540,3545,3244,56,40,857
1096814,10578508,11401284,10583960,11403160,3800,2830,1049,4658,-3742,-695,3820,2687,30,32,854
1097815,10578712,11401456,10584287,11403487,3800,2998,742,4171,-4288,-713,3790,2458,30,32,854
1098816,10578912,11401604,10584614,11403814,3800,3227,383,3694,-4675,-600,3185,2592,41,39,851
1099817,10579080,11401780,10584941,11404141,3800,3119,-16,3158,-4936,-664,2440,2276,41,39,851
1100818,10579300,11401928,10585268,11404468,3800,3373,-384,2496,-5129,-974,1773,1843,47,37,850
1101819,10579464,11402092,10585595,11404795,3800,3345,-732,1682,-5291,-1366,1328,1653,47,37,850
1102820,10579640,11402228,10585922,11405122,3800,3604,-1045,810,-5463,-1844,1060,1645,49,40,850
1103821,10579812,11402372,10586249,11405449,3800,3636,-1295,-61,-5628,-2125,1069,1422,49,40,850
1104822,10579996,11402516,10586576,11405776,3800,3716,-1502,-950,-5732,-2165,1036,1314,40,40,847
1105823,10580148,11402708,10586903,11406103,3800,3476,-1671,-1761,-5699,-1981,402,1763,40,40,847
1106824,10580308,11402912,10587230,11406430,3800,3456,-1781,-2431,-5497,-1737,-758,2163,36,42,847
1107825,10580472,11403104,10587557,11406757,3800,3591,-1850,-3055,-5160,-1632,-1723,2303,36,42,847
1108826,10580624,11403280,10587884,11407084,3800,3758,-1886,-3631,-4784,-1739,-1781,2484,35,48,848
1109827,10580760,11403460,10588211,11407411,3800,3799,-1873,-4125,-4451,-1870,-1532,2766,35,48,848
1110835,10580904,11403656,10588572,11407772,3800,3771,-1819,-4519,-4176,-1911,-1349,3136,19,36,846
1111829,10581060,11403884,10588899,11408099,3800,3616,-1727,-4728,-3928,-1896,-1181,3834,19,36,846
1112830,10581220,11404124,10589226,11408426,3800,3580,-1623,-4676,-3701,-1862,-1140,4567,27,49,844
1113831,10581384,11404356,10589553,11408753,3800,3673,-1515,-4464,-3498,-1762,-1054,5266,27,49,844
1114832,10581544,11404600,10589880,11409080,3800,3635,-1399,-4042,-3305,-1640,-919,5893,32,60,847
1115833,10581708,11404844,10590207,11409407,3800,3672,-1267,-3532,-3149,-1334,-634,6131,32,60,847
1116834,10581888,11405076,10590534,11409734,3800,3789,-1092,-3083,-3066,-1016,-168,5992,48,60,847
1117835,10582072,11405380,10590861,11410061,3800,3351,-889,-2676,-3051,-750,330,6098,48,60,847
1118836,10582296,11405652,10591188,11410388,3800,3576,-676,-2280,-3055,-422,566,6100,55,72,846
1119837,10582516,11405940,10591515,11410715,3800,3494,-444,-1940,-3022,-81,707,5928,55,72,846
1120838,10582764,11406204,10591842,11411042,3800,3673,-183,-1712,-2949,187,839,5681,37,71,850
1121839,10582996,11406500,10592169,11411369,3800,3487,101,-1591,-2853,598,863,5542,37,71,850
1122840,10583208,11406852,10592496,11411696,3800,3127,604,-1221,-2751,1423,965,8312,34,59,850
1123841,10583448,11407140,10592823,11412023,3800,3545,1376,-474,-2680,2300,1398,11212,34,59,850
1124855,10583680,11407388,10593150,11412350,3800,3800,1923,-171,-2585,2016,1565,5694,51,62,850
1125856,10583908,11407628,10593477,11412677,3800,3800,2132,-355,-2416,2018,1559,4466,51,62,850
1126844,10584168,11407908,10593804,11413004,3800,3692,2235,-779,-2230,2089,1403,4004,49,57,847
1127845,10584372,11408220,10594131,11413331,3800,3500,2355,-1209,-2081,1996,1154,3706,49,57,847
1128846,10584596,11408536,10594458,11413658,3800,3479,2505,-1670,-1949,1880,841,3558,40,75,847
1129847,10584828,11408856,10594785,11413985,3800,3458,2580,-1967,-1810,1950,392,3926,40,75,847
1130848,10585056,11409188,10595112,11414312,3800,3382,2550,-2087,-1636,1785,210,4511,41,62,850
1131849,10585296,11409492,10595439,11414639,3800,3568,2456,-2066,-1471,1509,381,4942,41,62,850
1132850,10585544,11409796,10595766,11414966,3800,3579,2314,-1913,-1353,1315,391,5199,40,69,850
1133851,10585780,11410140,10596093,11415293,3800,3323,2159,-1738,-1266,923,430,5293,40,69,850
1134852,10586000,11410448,10596420,11415620,3800,3557,1986,-1589,-1181,639,452,5291,38,62,850
1135853,10586260,11410776,10596747,11415947,3800,3433,1804,-1509,-1121,444,756,4863,38,62,850
1136854,10586524,11411080,10597074,11416274,3800,3594,1614,-1517,-1073,280,1190,4586,62,60,850
1137855,10586764,11411396,10597401,11416601,3800,3525,1420,-1604,-1004,261,1494,4364,62,60,850
1138856,10587016,11411704,10597728,11416928,3800,3584,1227,-1794,-924,280,2036,4179,43,63,850
1139857,10587316,11412088,10598055,11417255,3800,3085,1023,-1937,-839,171,2667,4446,43,63,850
1140858,10587616,11412440,10598382,11417582,3800,3275,795,-2040,-761,7,2777,4379,66,76,851
1141859,10587936,11412764,10598709,11417909,3800,3452,559,-2204,-682,-157,2647,4156,66,76,851
1142860,10588300,11413100,10599036,11418236,3800,3375,386,-2431,-593,-446,2773,3883,58,70,854
1143861,10588656,11413452,10599363,11418563,3800,3265,247,-2768,-551,-758,2919,3545,58,70,854
1144862,10589020,11413816,10599690,11418890,3800,3174,157,-3156,-571,-995,2903,3390,74,74,851
1145863,10589408,11414152,10600017,11419217,3800,3346,112,-3563,-578,-1189,2787,3401,74,74,851
1146864,10589800,11414468,10600344,11419544,3800,3477,52,-3891,-530,-1299,2475,3828,65,63,852
1147865,10590208,11414812,10600671,11419871,3800,3296,-28,-4050,-459,-1581,2308,4167,65,63,852
1148866,10590680,11415144,10600998,11420198,3800,3369,-78,-4113,-373,-1923,1900,4170,71,58,852
1149867,10591168,11415440,10601325,11420525,3800,3609,-79,-4211,-260,-1958,1382,4060,71,58,852
1150868,10591668,11415740,10601652,11420852,3800,3597,-31,-4397,-111,-1997,1011,3979,91,72,852
1151869,10592216,11416048,10601979,11421179,3800,3556,44,-4477,44,-2180,680,4522,91,72,852
1152857,10592836,11416356,10602306,11421506,3695,3566,137,-4446,195,-2367,244,4570,123,58,852
1153871,10593400,11416640,10602633,11421833,3800,3736,276,-4420,388,-2470,-143,4664,123,58,852
1154872,10594084,11416888,10602960,11422160,3037,3800,391,-4247,625,-2207,-629,5028,129,56,853
1155860,10594748,11417220,10603287,11422487,3016,3470,488,-4064,888,-1890,-646,4897,129,56,853
1156874,10595396,11417496,10603614,11422814,2977,3800,646,-3941,1101,-1891,-305,4714,124,51,853
1157875,10596080,11417772,10603941,11423141,2596,3800,823,-3838,1251,-2455,-552,4964,124,51,853
1158876,10596808,11418056,10604268,11423468,2147,3800,1054,-3597,1352,-2994,-746,5247,126,52,858
1159864,10597496,11418372,10604595,11423795,2239,3643,1252,-3282,1465,-3001,-908,5681,126,52,858
1160872,10598152,11418692,10604956,11424156,2311,3637,1436,-2802,1649,-3092,-1229,6164,136,62,857
1161866,10598856,11419208,10605283,11424483,1847,2330,1646,-2331,1884,-3539,-1470,5939,136,62,857
1162867,10599484,11419636,10605610,11424810,2191,2836,1912,-2042,2074,-4077,-1682,5602,146,77,862
1163868,10600060,11420016,10605937,11425137,2407,3114,2232,-1901,2169,-4025,-1866,5151,146,77,862
1164870,10600688,11420472,10606264,11425464,1951,2583,2571,-1892,2229,-3472,-2174,4669,136,93,872
1165870,10601296,11420928,10606591,11425791,1953,2528,2905,-1982,2370,-2819,-3099,4569,136,93,872
1166871,10601788,11421452,10606918,11426118,2607,2017,3234,-2171,2592,-2266,-3171,4113,120,97,866
1167872,10602324,11421984,10607245,11426445,2241,1878,3606,-2665,2747,-1365,-1962,2867,120,97,866
1168873,10602800,11422452,10607572,11426772,2552,2217,4038,-3486,2832,-164,-809,1954,112,124,871
1169874,10603200,11423000,10607899,11427099,2995,1620,4387,-4392,2938,750,-1230,2223,112,124,871
1170876,10603644,11423520,10608226,11427426,2670,1711,4623,-4892,3191,1434,-2485,3219,82,93,871
1171876,10604072,11423976,10608553,11427753,2727,2055,4810,-5428,3489,2159,-2809,2540,82,93,871
1172878,10604464,11424548,10608880,11428080,2924,1224,5016,-5902,3684,2735,-2832,2783,72,98,869
1173879,10604880,11425044,10609207,11428407,2736,1624,5197,-6099,3735,2838,-2128,3332,72,98,869
1174879,10605268,11425520,10609534,11428734,2884,1685,5370,-6373,3593,3348,-948,2823,76,97,869
1175880,10605652,11426044,10609861,11429061,2885,1299,5490,-6465,3389,4442,-110,3316,76,97,869
1176881,10606080,11426524,10610188,11429388,2567,1507,5518,-6216,3280,5215,714,4231,88,96,870
1177882,10606488,11427124,10610515,11429715,2657,638,5479,-5819,3186,5824,1246,4348,88,96,870
1178883,10606860,11427672,10610842,11430042,2863,866,5397,-5248,3019,5565,1390,4981,76,97,871
1179884,10607232,11428124,10611169,11430369,2844,1412,5309,-4349,2796,4925,1487,5594,76,97,871
1180885,10607620,11428688,10611496,11430696,2718,608,5152,-3390,2505,5167,1899,5523,62,101,873
1181886,10607992,11429308,10611823,11431023,2799,130,4868,-2114,2094,5031,2632,6676,62,101,873
1182887,10608332,11429784,10612150,11431350,2994,965,4588,-579,1741,4717,2387,6486,63,102,870
1183888,10608724,11430376,10612477,11431677,2641,123,4447,596,1493,4881,1955,4847,63,102,870
1184889,10609124,11430804,10612804,11432004,2560,1104,4383,1455,1320,4859,1595,4406,89,101,874
1185890,10609492,11431336,10613131,11432331,2743,365,4328,2487,1295,4497,531,4672,89,101,874
1186891,10609912,11431900,10613458,11432658,2377,61,4154,3779,1380,4303,-552,5058,85,109,874
1187892,10610288,11432348,10613785,11432985,2631,732,3919,5078,1360,3825,-76,4704,85,109,874
1188894,10610720,11432900,10614112,11433312,2236,-16,3843,6194,1131,3159,649,3442,97,98,875
1189895,10611160,11433368,10614439,11433639,2136,447,3970,6802,787,2835,20,1538,97,98,875
1190895,10611504,11433784,10614766,11433966,2730,732,4220,7009,478,2662,-334,684,75,98,875
1191897,10611948,11434328,10615093,11434293,2055,-163,4409,7332,274,2580,-662,1088,75,98,875
1192897,10612364,11434732,10615420,11434620,2190,678,4496,8071,245,2612,-1911,1710,86,92,877
1193898,10612788,11435080,10615747,11434947,2099,1019,4384,9087,306,2858,-1867,2720,86,92,877
1194899,10613260,11435320,10616074,11435274,1735,1732,4195,10143,240,2829,-1385,2255,82,76,879
1195900,10613692,11435804,10616401,11435601,1940,138,4086,10823,-67,2272,-1263,658,82,76,879
1196902,10614168,11436068,10616728,11435928,1600,1541,4067,11028,-560,1612,-1189,-571,79,62,877
1197902,10614664,11436396,10617055,11436255,1401,1141,4002,11073,-1102,1421,-1127,-640,79,62,877
1198903,10615084,11436656,10617382,11436582,1835,1595,3729,11500,-1470,2098,-1405,886,87,66,880
1199904,10615540,11437012,10617709,11436909,1555,982,3198,12426,-1586,2894,-1248,1921,87,66,880
1200905,10616016,11437340,10618036,11437236,1364,1157,2629,13432,-1733,2928,-314,1160,91,66,879
1201906,10616432,11437644,10618363,11437563,1701,1317,2138,13862,-2101,2097,146,-521,91,66,879
1202907,10616856,11437892,10618690,11437890,1608,1702,1688,13832,-2644,1938,586,-1244,88,51,878
1203908,10617260,11438140,10619017,11438217,1700,1736,1140,13714,-3127,2256,180,-1179,88,51,878
1204910,10617660,11438436,10619344,11438544,1694,1450,490,13654,-3582,2093,326,-1512,73,58,876
1205911,10618108,11438724,10619671,11438871,1340,1517,-144,13494,-4142,1819,926,-2203,73,58,876
1206911,10618504,11438980,10619998,11439198,1635,1748,-763,13118,-4765,1763,945,-2337,82,56,875
1207912,10618884,11439204,10620325,11439525,1713,1994,-1424,12851,-5375,1762,982,-1547,82,56,875
1208913,10619264,11439396,10620652,11439852,1689,2253,-2098,12620,-5984,1517,1471,-1904,84,41,878
1209914,10619632,11439608,10620979,11440179,1746,2178,-2672,12153,-6702,921,2087,-2717,84,41,878
1210924,10620032,11439892,10621340,11440540,1529,1762,-3133,11518,-7479,310,2389,-2652,79,40,873
1211916,10620408,11440112,10621667,11440867,1659,2209,-3554,10895,-8164,266,2034,-2390,79,40,873
1212918,10620812,11440316,10621994,11441194,1450,2364,-4021,10301,-8717,521,1043,-2158,66,33,872
1213918,10621184,11440488,10622321,11441521,1630,2632,-4545,9787,-9108,382,-597,-1622,66,33,872
1214919,10621560,11440656,10622648,11441848,1584,2727,-5072,9238,-9406,-111,-1154,-1636,77,30,871
1215920,10621960,11440836,10622975,11442175,1402,2717,-5472,8522,-9728,-754,-889,-2202,77,30,871
1216921,10622308,11441052,10623302,11442502,1718,2541,-5707,7599,-10019,-1075,-1316,-2383,57,47,870
1217922,10622668,11441252,10623629,11442829,1629,2698,-5827,6624,-10196,-1137,-1979,-2410,57,47,870
1218923,10623080,11441452,10623956,11443156,1266,2753,-5902,5682,-10247,-1541,-2368,-2150,56,40,870
1219924,10623448,11441632,10624283,11443483,1523,2943,-5944,4883,-10168,-2131,-2919,-1524,56,40,870
1220925,10623820,11441784,10624610,11443810,1479,3196,-5953,4262,-9946,-2751,-3607,-732,80,40,869
1221926,10624236,11442004,10624937,11444137,1166,2818,-5929,3891,-9610,-3306,-4116,116,80,40,869
1222927,10624604,11442320,10625264,11444464,1448,2223,-5881,3697,-9208,-3836,-4299,659,61,48,868
1223928,10624952,11442624,10625591,11444791,1563,2309,-5815,3567,-8760,-4341,-4067,941,61,48,868
1224929,10625320,11442936,10625918,11445118,1420,2265,-5703,3343,-8298,-4589,-3225,830,59,56,869
1225930,10625664,11443264,10626245,11445445,1563,2166,-5564,2890,-7873,-4481,-2194,671,59,56,869
1226931,10626012,11443592,10626572,11445772,1529,2166,-5449,2313,-7462,-4172,-1762,683,76,60,871
1227932,10626356,11443932,10626899,11446099,1546,2086,-5340,1560,-7055,-3866,-1462,370,76,60,871
1228934,10626720,11444280,10627226,11446426,1405,2027,-5225,526,-6656,-3218,-1102,-176,62,66,873
1229934,10627080,11444572,10627553,11446753,1415,2392,-5152,-760,-6214,-2388,-815,-395,62,66,873
1230935,10627400,11444864,10627880,11447080,1668,2408,-5169,-1926,-5681,-1752,-756,299,65,73,874
1231936,10627736,11445188,10628207,11447407,1565,2210,-5293,-2923,-5063,-1346,-960,1041,65,73,874
1232937,10628032,11445604,10628534,11447734,1829,1597,-5490,-3701,-4387,-1206,-984,1945,65,84,873
1233938,10628360,11445980,10628861,11448061,1629,1825,-5672,-4269,-3688,-1036,-1033,2675,65,84,873
1234939,10628720,11446384,10629188,11448388,1414,1616,-5819,-4812,-3001,-625,-1411,2808,51,87,874
1235940,10629040,11446760,10629515,11448715,1667,1771,-5948,-5564,-2336,-6,-1667,2586,51,87,874
1236942,10629348,11447120,10629842,11449042,1751,1856,-6047,-6476,-1736,641,-1202,2422,67,87,874
1237943,10629672,11447500,10630169,11449369,1652,1709,-6118,-7402,-1248,1036,-1346,2613,67,87,874
1238944,10629980,11447844,10630496,11449696,1760,1926,-6175,-8238,-873,1192,-1762,3022,55,73,875
1239945,10630288,11448236,10630823,11450023,1769,1598,-6225,-9026,-562,1437,-2230,3489,55,73,875
1240946,10630608,11448588,10631150,11450350,1697,1838,-6261,-9692,-288,2011,-2577,4018,66,65,876
1241946,10630904,11448924,10631477,11450677,1861,1934,-6257,-10265,-35,2542,-2987,4333,66,65,876
1242947,10631152,11449272,10631804,11451004,2196,1850,-2998,-11806,-374,8880,-4118,28555,44,74,875
1243948,10631460,11449616,10632131,11451331,1829,1868,3993,-11872,-1546,15333,-6795,32767,44,74,875
1244950,10631752,11449912,10632458,11451658,1945,2182,5929,-8162,-1347,4762,-9526,27896,62,59,873
1245951,10632032,11450192,10632785,11451985,2040,2302,3672,-5555,-300,2232,-5481,9816,62,59,873
1246952,10632260,11450440,10633112,11452312,2409,2538,1327,-4139,197,1797,-992,8727,47,61,872
1247952,10632484,11450700,10633439,11452639,2479,2493,-435,-3479,240,1452,-333,9455,47,61,872
1248954,10632680,11450956,10633766,11452966,2712,2549,-1686,-909,98,3255,226,18704,44,45,869
1249954,10632852,11451212,10634093,11453293,2931,2581,-1728,2092,-163,3486,1039,20565,44,45,869
1250956,10633104,11451424,10634420,11453620,2464,2907,-1279,2697,-403,2573,2088,5838,37,58,866
1251956,10633352,11451632,10634747,11453947,2524,2985,-1011,1497,-677,2744,2064,1416,37,58,866
1252958,10633604,11451852,10635074,11454274,2531,2957,-835,-650,-825,2120,737,-381,50,55,862
1253959,10633880,11452080,10635401,11454601,2405,2950,-603,-2288,-836,2067,-534,504,50,55,862
1254960,10634144,11452308,10635728,11454928,2508,2995,-170,-3211,-667,1922,-2116,3521,58,39,862
1255961,10634352,11452532,10636055,11455255,2910,3065,644,-2666,-176,1144,-4116,12537,58,39,862
1256962,10634616,11452740,10636382,11455582,2589,3218,1365,-2364,264,933,-3631,4384,40,56,863
1257963,10634876,11452968,10636709,11455909,2643,3137,1773,-3416,485,230,-3377,25,40,56,863
1258964,10635116,11453248,10637036,11456236,2806,2834,1943,-4414,711,-206,-4798,2214,58,48,858
1259964,10635388,11453604,10637363,11456563,2631,2347,1984,-4590,1122,-605,-6292,3862,58,48,858
1260973,10635624,11453936,10637724,11456924,2911,2510,1975,-4027,1458,-1683,-5428,5391,65,76,862
1261967,10635884,11454292,10638051,11457251,2791,2348,2044,-3060,1703,-2327,-5083,5946,65,76,862
1262968,10636120,11454516,10638378,11457578,2982,3218,2303,-2342,1892,-2843,-5241,4832,44,50,866
1263968,10636380,11454732,10638705,11457905,2861,3318,2733,-1848,1972,-3428,-4979,4716,44,50,866
1264969,10636644,11454956,10639032,11458232,2865,3313,3252,-1279,2027,-3862,-5273,5208,58,41,865
1265970,10636892,11455256,10639359,11458559,3000,2851,3766,-543,2135,-3906,-5151,5529,58,41,865
1266971,10637184,11455616,10639686,11458886,2741,2463,4237,530,2395,-3654,-5089,6408,68,59,858
1267972,10637456,11455940,10640013,11459213,2890,2689,4528,1926,2770,-3210,-4440,7464,68,59,858
1268973,10637736,11456360,10640340,11459540,2862,2049,4682,3495,3125,-2625,-3110,7616,49,91,861
1269975,10638048,11456812,10640667,11459867,2668,1795,4814,4764,3326,-2272,-1790,6698,49,91,861
1270976,10638320,11457256,10640994,11460194,2944,1794,5014,5645,3391,-1760,-1131,5730,52,83,863
1271977,10638608,11457688,10641321,11460521,2861,1823,5179,6251,3382,-1103,-1153,5096,52,83,863
1272978,10638916,11458132,10641648,11460848,2745,1697,5311,6638,3438,-432,-1429,4476,50,84,870
1273979,10639176,11458484,10641975,11461175,3075,2262,5460,6895,3579,299,-1501,4036,50,84,870
1274979,10639472,11458924,10642302,11461502,2864,1662,5553,7175,3700,1079,-1228,4191,71,80,868
1275980,10639824,11459404,10642629,11461829,2503,1346,5570,7438,3757,1874,-1059,4158,71,80,868
1276982,10640132,11459808,10642956,11462156,2788,1787,5491,7693,3746,2628,-906,4395,54,102,865
1277983,10640444,11460400,10643283,11462483,2769,497,5366,7797,3652,2977,-324,3931,54,102,865
