"Data file recorded 2014/9/24  14:11:25"
"%  Right Stride Frequency         = 7.0"
"%  Left Stride Frequency         = 7.0"
"%  Phase (Fractional)         = 32768.0"
"%  Experiment.py "
"%  Motor Gains    = [1800, 200, 100, 0, 0, 1800, 200, 100, 0, 0]
"% Columns: "
"% time | Right Leg Pos | Left Leg Pos | Commanded Right Leg Pos | Commanded Left Leg Pos | DCR | DCL | GyroX | GryoY | GryoZ | AX | AY | AZ | RBEMF | LBEMF | VBatt "
11458,26457808,27674488,26427636,27705588,-3800,3800,496,768,-1142,507,-176,4071,5,-5,861
12459,26457812,27674480,26428104,27706056,-3800,3800,495,766,-1142,497,-179,4102,5,-5,861
13460,26457760,27674488,26428572,27706524,-3800,3800,498,765,-1145,494,-174,4114,-3,-5,861
14461,26457604,27674548,26429040,27706992,-3800,3800,499,758,-1146,495,-197,4119,-3,-5,861
15462,26457444,27674768,26429508,27707460,-3800,3800,498,758,-1138,517,-206,4136,-32,33,821
16463,26457256,27674980,26429976,27707928,-3800,3800,486,776,-1110,633,-235,4134,-32,33,821
17464,26457020,27675236,26430444,27708396,-3800,3800,477,769,-1079,806,-34,4090,-57,38,822
18465,26456672,27675456,26430912,27708864,-3800,3800,478,817,-1045,799,-44,4192,-57,38,822
19466,26456384,27675736,26431380,27709332,-3800,3800,472,896,-999,614,-108,4306,-58,41,822
20467,26455884,27676064,26431848,27709800,-3800,3800,448,968,-948,498,-33,4273,-58,41,822
21468,26455448,27676308,26432316,27710268,-3800,3800,444,945,-886,733,366,4013,-98,32,825
22469,26454916,27676560,26432784,27710736,-3800,3800,499,801,-814,1405,999,3556,-98,32,825
23470,26454360,27676772,26433252,27711204,-3800,3800,597,551,-772,2298,1845,3231,-105,40,825
24471,26453740,27677020,26433720,27711672,-3800,3800,744,271,-781,3137,2497,2975,-105,40,825
25472,26453096,27677296,26434188,27712140,-3800,3800,922,45,-800,3658,1715,3132,-112,32,825
26460,26452412,27677584,26434656,27712608,-3264,3800,1099,-30,-737,3962,562,3500,-112,32,825
27461,26451752,27677836,26435124,27713076,-2922,3800,1198,159,-633,4121,470,4524,-136,41,825
28462,26451112,27678076,26435592,27713544,-2563,3800,1205,763,-510,3618,-161,5417,-136,41,825
29463,26450484,27678344,26436060,27714012,-2159,3800,1219,1281,-455,3036,-133,4900,-134,42,829
30464,26449876,27678624,26436528,27714480,-1814,3800,1261,1769,-472,3046,-387,5095,-134,42,829
31466,26449324,27678912,26436996,27714948,-1719,3800,1259,2451,-451,3225,-562,5791,-115,40,833
32466,26448900,27679164,26437464,27715416,-2129,3800,1221,3302,-368,3264,-46,6001,-115,40,833
33467,26448488,27679408,26437932,27715884,-1819,3800,1170,4091,-299,3097,718,5790,-97,33,834
34468,26448152,27679660,26438400,27716352,-1943,3800,1131,4717,-220,3163,297,5400,-97,33,834
35469,26447912,27679956,26438868,27716820,-2234,3800,1096,5254,-103,3547,-16,5073,-75,41,833
36470,26447712,27680240,26439336,27717288,-2192,3800,1040,5745,66,3468,-100,4866,-75,41,833
37471,26447572,27680516,26439804,27717756,-2301,3800,990,6099,302,3185,-61,4580,-36,36,832
38472,26447484,27680780,26440272,27718224,-2384,3800,912,6345,539,3250,248,4205,-36,36,832
39473,26447452,27681020,26440740,27718692,-2515,3800,849,6487,758,3089,-58,3895,-31,48,831
40474,26447412,27681324,26441208,27719160,-2244,3800,815,6647,926,2754,-215,3922,-31,48,831
41475,26447404,27681616,26441676,27719628,-2236,3800,815,6648,1017,2281,-254,3391,3,51,830
42476,26447384,27681916,26442144,27720096,-1947,3800,848,6559,1031,1759,-92,3347,3,51,830
43477,26447320,27682200,26442612,27720564,-1439,3800,931,6534,984,1211,-46,3433,-11,57,831
44478,26447216,27682472,26443080,27721032,-939,3800,1053,6510,890,491,-576,3342,-11,57,831
45479,26447080,27682804,26443548,27721500,-475,3800,1149,6613,748,-359,-519,3853,-10,58,832
46480,26446960,27683132,26444016,27721968,-316,3800,1214,6717,506,-1110,1036,3776,-10,58,832
47482,26446876,27683468,26444484,27722436,-300,3800,1231,6707,99,-1518,2373,3134,-15,67,836
48482,26446796,27683820,26444952,27722904,-84,3800,1224,6607,-375,-1929,3060,2826,-15,67,836
49484,26446800,27684156,26445420,27723372,-406,3800,1190,6528,-778,-2417,2900,3087,-10,69,839
50485,26446788,27684540,26445888,27723840,-95,3800,1126,6487,-1032,-2794,2115,3093,-10,69,839
51486,26446804,27684848,26446356,27724308,-71,3800,1089,6481,-1121,-3192,1189,2960,-10,54,841
52486,26446804,27685140,26446824,27724776,234,3800,1111,6523,-1112,-3751,162,3156,-10,54,841
53487,26446808,27685460,26447292,27725244,413,3800,1145,6489,-1098,-3931,-604,2796,-3,61,841
54488,26446812,27685776,26447760,27725712,617,3800,1182,6317,-1087,-3599,-995,2596,-3,61,841
55489,26446812,27686060,26448228,27726180,848,3800,1225,6215,-1089,-3169,-114,2478,11,59,840
56490,26446784,27686316,26448696,27726648,1241,3800,1305,6015,-1062,-3094,297,1990,11,59,840
57491,26446800,27686548,26449164,27727116,1165,3800,1401,5803,-949,-3090,-915,2209,16,40,839
58492,26446828,27686768,26449632,27727584,1284,3800,1468,5553,-743,-2953,-2306,2075,16,40,839
59493,26446868,27687048,26450100,27728052,1398,3800,1510,5276,-526,-2748,-2928,1845,3,48,835
60501,26446904,27687276,26443552,27721504,1117,3800,1518,4987,-362,-2905,-3334,2050,3,48,835
61495,26446976,27687508,26444020,27721972,1066,3800,1465,4881,-243,-3421,-3333,2686,4,51,835
62496,26447064,27687700,26444488,27722440,1132,3800,1330,5053,-201,-3792,-2322,3315,4,51,835
63497,26447144,27687876,26444956,27722908,1353,3800,1164,5298,-221,-3908,-1491,3258,13,35,835
64498,26447248,27688080,26445424,27723376,1362,3800,991,5407,-294,-3781,-1139,3036,13,35,835
65499,26447368,27688252,26445892,27723844,1415,3800,804,5267,-423,-3544,-663,2452,24,28,836
66500,26447476,27688400,26446360,27724312,1648,3800,594,4942,-631,-3312,-240,2010,24,28,836
67501,26447636,27688484,26446828,27724780,1457,3800,372,4556,-966,-3528,-99,1746,19,24,835
68502,26447772,27688552,26447296,27725248,1753,3800,151,4103,-1386,-3970,-198,1689,19,24,835
69503,26447912,27688624,26447764,27725716,1872,3800,-75,3591,-1826,-3915,142,1687,36,7,831
70504,26448100,27688700,26448232,27726184,1696,3800,-308,3104,-2265,-3738,705,1811,36,7,831
71505,26448312,27688752,26448700,27726652,1658,3800,-525,2591,-2666,-3865,644,1727,23,4,830
72506,26448532,27688788,26449168,27727120,1717,3800,-698,1916,-3008,-4021,225,1336,23,4,830
73507,26448768,27688812,26449636,27727588,1719,3800,-831,1141,-3290,-4050,56,1292,47,4,831
74508,26449068,27688848,26450104,27728056,1394,3800,-924,395,-3519,-3949,102,1343,47,4,831
75509,26449356,27688888,26450572,27728524,1548,3800,-975,-436,-3695,-3806,120,1033,61,18,831
76510,26449652,27688932,26451040,27728992,1573,3800,-998,-1402,-3787,-3658,-63,894,61,18,831
77511,26449992,27688988,26451508,27729460,1355,3800,-984,-2442,-3755,-3273,-354,834,43,19,833
78512,26450296,27689040,26451976,27729928,1652,3800,-946,-3505,-3637,-2755,-416,745,43,19,833
79513,26450644,27689104,26452444,27730396,1431,3800,-889,-4573,-3469,-2500,-204,886,69,17,832
80514,26450980,27689160,26452912,27730864,1564,3800,-788,-5580,-3265,-2292,-93,1095,69,17,832
81515,26451292,27689244,26453380,27731332,1783,3800,-648,-6507,-3032,-1820,-22,1426,51,11,831
82516,26451612,27689312,26453848,27731800,1798,3800,-514,-7201,-2746,-1191,-289,2300,51,11,831
83517,26451952,27689388,26454316,27732268,1729,3800,-397,-7729,-2391,-750,-655,2877,59,23,833
84518,26452268,27689460,26454784,27732736,1947,3800,-316,-8076,-2014,-500,-625,3426,59,23,833
85519,26452620,27689540,26455252,27733204,1773,3800,-266,-8264,-1650,-253,-259,3918,72,15,832
86520,26452992,27689632,26455720,27733672,1691,3800,-240,-8358,-1334,206,324,4098,72,15,832
87521,26453352,27689728,26456188,27734140,1814,3800,-223,-8368,-1002,759,515,4469,69,30,829
88522,26453700,27689808,26456656,27734608,1943,3800,-214,-8172,-613,970,537,5083,69,30,829
89523,26454104,27689888,26457124,27735076,1621,3800,-255,-7815,-223,1182,512,5648,61,25,832
90524,26454452,27689976,26457592,27735544,2024,3800,-336,-7241,114,1444,296,6434,61,25,832
91525,26454812,27690040,26458060,27736012,1998,3800,-428,-6473,382,1424,18,6929,76,27,830
92526,26455188,27690168,26458528,27736480,1938,3800,-536,-5602,578,1501,-319,7287,76,27,830
93527,26455564,27690272,26458996,27736948,1980,3800,-684,-4629,742,1603,-553,7751,73,15,831
94528,26455936,27690388,26459464,27737416,2047,3800,-813,-3704,889,1711,-451,7566,73,15,831
95536,26456296,27690496,26459936,27737888,2172,3800,-839,-3034,1003,1955,-152,6895,64,35,832
96530,26456720,27690644,26460404,27738356,1792,3800,-794,-2544,1054,2235,354,6777,64,35,832
97531,26457100,27690788,26460872,27738824,2107,3800,-707,-2149,1100,2394,426,6412,67,29,832
98532,26457468,27690916,26461340,27739292,2226,3800,-631,-1881,1139,2647,322,5882,67,29,832
99533,26457872,27691100,26461808,27739760,2030,3800,-552,-1813,1121,2973,821,5301,85,30,832
100534,26458236,27691268,26462276,27740228,2327,3800,-449,-1944,1037,3495,1275,5067,85,30,832
101535,26458604,27691416,26462744,27740696,2346,3800,-305,-2221,895,4092,1280,4983,89,32,831
102536,26458988,27691536,26463212,27741164,2284,3800,-128,-2519,747,4352,993,5355,89,32,831
103537,26459320,27691680,26463680,27741632,2670,3800,49,-2681,603,4220,370,5975,84,40,829
104538,26459696,27691820,26464148,27742100,2436,3800,189,-2649,424,3818,-141,6921,84,40,829
105539,26460072,27691940,26464616,27742568,2477,3800,247,-2379,223,3437,-388,7645,70,34,830
106540,26460444,27692080,26465084,27743036,2546,3800,288,-2092,74,2918,-1274,7797,70,34,830
107541,26460828,27692192,26465552,27743504,2508,3800,344,-1751,-20,2513,-1643,8291,69,28,830
108542,26461148,27692324,26466020,27743972,2974,3800,412,-1310,-134,1821,-1582,8857,69,28,830
109543,26461492,27692464,26466488,27744440,2879,3800,470,-799,-283,1290,-2077,9320,84,43,829
110544,26461792,27692596,26466956,27744908,3229,3800,499,-277,-341,1399,-2847,9250,84,43,829
111545,26462116,27692696,26467424,27745376,3143,3800,560,97,-331,1320,-3016,8309,55,33,827
112546,26462376,27692772,26467892,27745844,3636,3800,669,220,-354,910,-2800,7519,55,33,827
113560,26462616,27692864,26468360,27746312,3800,3800,817,256,-347,850,-2889,7220,72,29,823
114561,26462872,27692964,26468828,27746780,3800,3800,979,204,-250,970,-3165,6790,72,29,823
115562,26463124,27693004,26469296,27747248,3800,3800,1168,65,-117,959,-2889,6291,48,24,819
116563,26463388,27693020,26469764,27747716,3800,3800,1345,-119,-29,1328,-2442,5875,48,24,819
117564,26463604,27693068,26470232,27748184,3800,3800,1535,-382,-18,1659,-1778,5298,54,6,820
118565,26463856,27693104,26470700,27748652,3800,3800,1689,-529,-77,1285,-1937,5640,54,6,820
119566,26464064,27693208,26471168,27749120,3800,3800,1788,-514,-146,1067,-2040,5826,36,23,819
120567,26464296,27693228,26471636,27749588,3800,3800,1846,-376,-265,1138,-1929,5897,36,23,819
121568,26464588,27693272,26472104,27750056,3800,3800,1886,-247,-494,1338,-1414,5501,58,17,819
122569,26464880,27693304,26472572,27750524,3800,3800,2002,-316,-828,1691,-516,4778,58,17,819
123570,26465184,27693340,26473040,27750992,3800,3800,2142,-199,-1238,1504,31,5508,68,14,819
124571,26465524,27693388,26473508,27751460,3800,3800,2336,71,-1663,710,1009,5667,68,14,819
125572,26465856,27693472,26473976,27751928,3800,3800,2621,283,-2104,597,1791,5521,59,19,817
126573,26466200,27693544,26474444,27752396,3800,3800,2943,583,-2527,1279,2297,5677,59,19,817
127574,26466580,27693624,26474912,27752864,3800,3800,3191,1026,-2893,1858,2870,6134,82,34,821
128574,26466952,27693668,26475380,27753332,3800,3800,3315,1652,-3226,1963,2783,6260,82,34,821
129576,26467296,27693740,26475848,27753800,3800,3800,3419,2038,-3518,1400,2468,5384,74,24,821
130584,26467712,27693812,26476320,27754272,3800,3800,3544,2441,-3829,1064,2142,5627,74,24,821
131578,26468104,27693872,26476788,27754740,3800,3800,3673,2926,-4090,1323,813,5295,66,9,821
132579,26468452,27693932,26477256,27755208,3800,3800,3811,3259,-4226,1468,407,4762,66,9,821
133567,26468924,27693988,26477724,27755676,3784,3800,3930,3623,-4254,1095,139,5030,89,13,821
134581,26469316,27694024,26478192,27756144,3800,3800,4029,3916,-4254,941,477,4427,89,13,821
135582,26469676,27694120,26478660,27756612,3800,3800,4116,4125,-4269,881,434,4067,76,12,820
136582,26470124,27694228,26479128,27757080,3800,3800,4170,4315,-4332,480,189,3794,76,12,820
137584,26470516,27694312,26479596,27757548,3800,3800,4179,4326,-4475,7,244,3462,85,24,820
138585,26470892,27694400,26480064,27758016,3800,3800,4108,4396,-4604,-240,-154,3677,85,24,820
139586,26471188,27694496,26480532,27758484,3800,3800,4005,4571,-4688,-718,-794,3600,81,17,821
140587,26471600,27694576,26481000,27758952,3800,3800,3907,4627,-4758,-1127,-792,3109,81,17,821
141588,26471984,27694688,26481468,27759420,3800,3800,3804,4620,-4815,-990,-409,3025,75,23,821
142589,26472348,27694780,26481936,27759888,3800,3800,3624,4813,-4791,-1011,-1040,3326,75,23,821
143590,26472724,27694844,26482404,27760356,3800,3800,3400,5100,-4648,-1048,-1594,3295,84,16,820
144590,26473144,27694936,26482872,27760824,3800,3800,3135,5319,-4472,-1050,-1134,2905,84,16,820
145591,26473556,27695028,26483340,27761292,3800,3800,2951,5201,-4475,-713,128,1727,71,36,822
146593,26473936,27695104,26483808,27761760,3800,3800,2834,4984,-4649,-414,413,1560,71,36,822
147594,26474344,27695172,26484276,27762228,3800,3800,2696,4711,-4897,-890,374,1663,80,31,820
148595,26474720,27695260,26484744,27762696,3800,3800,2518,4542,-5135,-917,369,1983,80,31,820
149595,26475140,27695328,26485212,27763164,3800,3800,2327,4402,-5338,-440,604,1577,91,29,821
150597,26475556,27695404,26485680,27763632,3800,3800,2179,4073,-5616,-516,897,793,91,29,821
151597,26475960,27695436,26486148,27764100,3800,3800,2084,3517,-5997,-900,872,521,84,20,818
152599,26476388,27695488,26486616,27764568,3800,3800,2010,2830,-6392,-758,595,523,84,20,818
153600,26476784,27695544,26487084,27765036,3800,3800,1894,2408,-6684,-231,-527,1223,85,26,820
154601,26477128,27695648,26487552,27765504,3800,3800,1775,2016,-6869,121,-1342,858,85,26,820
155602,26477504,27695692,26488020,27765972,3800,3800,1666,1317,-7004,528,-895,220,72,27,821
156602,26477872,27695768,26488488,27766440,3800,3800,1533,350,-7094,1160,364,-238,72,27,821
157604,26478212,27695828,26488956,27766908,3800,3800,1357,-686,-7154,1725,1946,-428,62,12,819
158604,26478596,27695928,26489424,27767376,3800,3800,1068,-1621,-7082,1961,2382,128,62,12,819
159606,26479048,27696044,26489892,27767844,3800,3800,644,-2426,-6868,1848,2322,411,85,19,818
160606,26479496,27696156,26490360,27768312,3800,3800,158,-2974,-6643,2046,2535,1074,85,19,818
161607,26480012,27696268,26490828,27768780,3800,3800,-411,-3215,-6403,2196,2191,1902,87,29,822
162596,26480728,27696388,26491296,27769248,3091,3800,-1080,-3294,-6084,2095,1453,2336,87,29,822
163597,26481464,27696496,26491764,27769716,2850,3800,-1911,-3135,-5710,2268,1015,3308,101,26,823
164598,26482192,27696604,26492232,27770184,2788,3800,-2845,-2736,-5375,2697,918,3932,101,26,823
165608,26482888,27696696,26492704,27770656,2891,3800,-3661,-2435,-5074,2946,974,3129,111,23,827
166600,26483648,27696772,26493172,27771124,2365,3800,-4181,-2595,-4738,2761,704,1952,111,23,827
167601,26484396,27696852,26493640,27771592,2318,3800,-4448,-3019,-4458,2579,1065,1591,149,25,829
168602,26485212,27696956,26494108,27772060,1742,3800,-4549,-3533,-4286,2664,1337,1390,145,19,829
169603,26485916,27697064,26494576,27772528,2340,3800,-4552,-3889,-4182,3006,1191,1602,145,19,829
170604,26486584,27697168,26495044,27772996,2479,3800,-4523,-4134,-4063,3260,681,2005,138,18,832
171605,26487304,27697264,26495512,27773464,2045,3800,-4496,-4083,-3919,3419,527,2927,138,18,832
172606,26487952,27697392,26495980,27773932,2417,3800,-4428,-3774,-3810,3181,320,3179,129,31,830
173607,26488648,27697520,26496448,27774400,2018,3800,-4240,-3421,-3781,3036,181,2948,129,31,830
174608,26489320,27697676,26496916,27774868,2081,3800,-3965,-3168,-3824,3102,744,2872,127,46,831
175609,26489960,27697828,26497384,27775336,2206,3800,-3718,-2720,-3894,3047,1090,3548,127,46,831
176610,26490556,27698028,26497852,27775804,2427,3800,-3547,-2045,-3961,2148,783,3948,114,41,832
177611,26491220,27698260,26498320,27776272,1917,3800,-3442,-1179,-4078,699,812,4432,114,41,832
178613,26491864,27698500,26498788,27776740,1965,3800,-3392,-358,-4217,-308,1251,4152,115,60,829
179614,26492392,27698752,26499256,27777208,2666,3800,-3435,333,-4346,-296,1667,3899,115,60,829
180615,26492876,27699020,26499724,27777676,2935,3800,-3500,1007,-4420,-150,1983,3554,104,51,832
181616,26493392,27699304,26500192,27778144,2715,3800,-3516,1546,-4417,-625,2324,3111,104,51,832
182617,26493896,27699612,26500660,27778612,2776,3800,-3473,1894,-4370,-1184,2720,2651,127,52,830
183617,26494344,27699912,26501128,27779080,3136,3800,-3422,2089,-4266,-1319,2789,2462,127,52,830
184619,26494860,27700220,26501596,27779548,2691,3800,-3386,2322,-4151,-957,2770,2255,94,75,830
185620,26495284,27700532,26502064,27780016,3286,3800,-3388,2425,-4079,-705,2216,1822,94,75,830
186621,26495704,27700836,26502532,27780484,3334,3800,-3397,2325,-3989,-547,871,1510,87,73,831
187622,26496132,27701140,26503000,27780952,3303,3800,-3381,2144,-3835,-57,-414,1368,87,73,831
188622,26496508,27701400,26503468,27781420,3669,3800,-3292,1851,-3600,505,-1290,1084,83,73,826
189623,26496888,27701676,26503936,27781888,3685,3800,-3194,1603,-3292,928,-2210,1527,83,73,826
190624,26497320,27701976,26504404,27782356,3377,3800,-3087,1420,-2977,955,-2840,1766,75,60,824
191625,26497708,27702348,26504872,27782824,3688,3800,-3001,1291,-2691,1033,-3213,2303,75,60,824
192639,26498068,27702704,26505340,27783292,3800,3800,-2916,1367,-2490,1369,-3108,2751,75,75,826
193627,26498464,27703088,26505808,27783760,3720,3800,-2911,1452,-2457,1516,-1784,2981,75,75,826
194641,26498820,27703496,26506276,27784228,3800,3800,-3004,1729,-2593,1586,-20,3913,70,87,824
195642,26499176,27703952,26506744,27784696,3800,3800,-3090,2075,-2728,1903,405,4517,70,87,824
196630,26499596,27704392,26507212,27785164,3693,3800,-3159,2767,-2776,2405,360,5785,76,87,825
197644,26499968,27704840,26507680,27785632,3800,3800,-3275,3762,-2771,2630,-402,6790,76,87,825
198645,26500312,27705356,26508148,27786100,3800,3800,-3453,4732,-2820,2833,-1052,6744,72,105,826
199646,26500704,27705788,26508616,27786568,3800,3800,-1463,9114,-3107,6820,-403,32767,72,105,826
200654,26501072,27706328,26509088,27787040,3800,3800,3112,18395,-3727,9521,426,32767,70,116,823
201648,26501464,27706856,26509556,27787508,3800,3800,5548,21992,-4184,4030,-421,4941,70,116,823
202649,26501892,27707480,26510024,27787976,3800,3800,5396,20516,-4423,3596,56,931,74,113,825
203650,26502312,27707936,26510492,27788444,3800,3800,4764,17185,-4540,4068,-1250,-1943,74,113,825
204651,26502748,27708480,26510960,27788912,3800,3800,4261,14812,-4584,4425,-3064,-712,99,122,826
205640,26503236,27709024,26511428,27789380,3536,3800,4129,13300,-4548,3322,-4378,-947,99,122,826
206653,26503672,27709624,26511896,27789848,3800,3800,4001,11747,-4681,2974,-4275,-1413,95,133,827
207654,26504108,27710308,26512364,27790316,3800,3800,3810,10005,-5052,2178,-3191,-1951,95,133,827
208655,26504556,27711016,26512832,27790784,3800,3800,3502,8002,-5450,1034,-3137,-1305,85,159,828
209644,26505020,27711788,26513300,27791252,3730,3800,2985,6711,-5817,763,-3982,517,85,159,828
210657,26505444,27712544,26513768,27791720,3800,3800,2389,5748,-6143,-359,-3534,1120,102,138,829
211658,26505872,27713332,26514236,27792188,3800,3800,1895,5059,-6428,-1252,-3053,2070,102,138,829
212659,26506312,27714084,26514704,27792656,3800,3800,1530,4533,-6724,-1662,-2244,2390,94,147,827
213660,26506728,27714984,26515172,27793124,3800,3800,1255,4076,-6974,-2754,-1360,3261,94,147,827
214661,26507128,27715756,26515640,27793592,3800,3800,1050,3923,-7227,-3540,-640,4132,91,154,829
215662,26507524,27716596,26516108,27794060,3800,3800,922,3761,-7490,-3970,-4,3968,91,154,829
216663,26507928,27717444,26516576,27794528,3800,3800,850,3716,-7693,-4363,887,4693,80,172,829
217664,26508320,27718316,26517044,27794996,3800,3800,792,3775,-7828,-4491,2035,4761,80,172,829
218665,26508732,27719224,26517512,27795464,3800,3800,698,3659,-7891,-4585,2796,4477,76,185,829
219666,26509132,27720076,26517980,27795932,3800,3800,584,3529,-7817,-4857,3386,4673,76,185,829
220667,26509512,27720864,26518448,27796400,3800,3800,1932,2586,-7257,-8430,1874,15640,94,183,829
221668,26509920,27721708,26518916,27796868,3800,3800,4404,1333,-6291,-8915,1308,19579,94,183,829
222669,26510320,27722508,26519384,27797336,3800,3800,5299,787,-5566,-4868,3280,4955,81,174,828
223670,26510728,27723304,26519852,27797804,3800,3800,4988,723,-5098,-4416,3116,4296,81,174,828
224671,26511160,27724128,26520320,27798272,3800,3800,4516,641,-4709,-4003,1786,4220,96,160,828
225672,26511536,27724932,26520788,27798740,3800,3800,4387,356,-4208,-3983,320,3987,96,160,828
226673,26511972,27725684,26521256,27799208,3800,3800,4458,-77,-3671,-3365,-715,3650,90,148,830
227674,26512440,27726400,26521724,27799676,3800,3800,4524,-795,-3204,-2712,-970,2664,90,148,830
228675,26512880,27727052,26522192,27800144,3800,3800,4495,-1581,-2770,-2206,-461,2671,90,143,828
229676,26513360,27727788,26522660,27800612,3800,3800,4403,-2431,-2430,-1674,532,1927,90,143,828
230664,26513892,27728440,26523128,27801080,3761,3800,4291,-3521,-2150,-1094,1257,1529,107,134,828
231666,26514476,27729076,26523596,27801548,3386,3800,4140,-4443,-1870,-462,1560,2119,107,134,828
232666,26515028,27729644,26524064,27802016,3551,3800,3972,-5463,-1645,-64,2234,1439,102,131,829
233668,26515616,27730188,26524532,27802484,3276,3800,3775,-6610,-1508,390,2831,1450,102,131,829
234668,26516272,27730776,26525000,27802952,2770,3800,3548,-7674,-1413,838,3159,1596,126,125,828
235676,26516864,27731308,26525472,27803424,3118,3800,3301,-8770,-1343,1246,3912,1346,126,125,828
236670,26517464,27731820,26525940,27803892,3012,3800,3033,-9841,-1381,1490,5597,1375,106,98,833
237671,26518112,27732284,26526408,27804360,2635,3800,2731,-10895,-1532,1568,7277,1310,106,98,833
238672,26518676,27732688,26526876,27804828,3119,3800,1993,-12721,-1959,2547,8495,1775,104,99,830
239673,26519256,27733068,26527344,27805296,2972,3800,1602,-13500,-2042,2937,7974,2264,104,99,830
240674,26519936,27733448,26527812,27805764,2255,3800,1186,-13999,-1923,2913,6160,3196,111,74,830
241675,26520520,27733760,26528280,27806232,2806,3800,687,-14316,-1732,2597,5356,3647,111,74,830
242676,26521120,27734012,26528748,27806700,2649,3800,112,-14117,-1555,2260,4560,5489,114,69,833
243677,26521788,27734228,26529216,27807168,2138,3800,-820,-13119,-1159,1862,2079,8188,114,69,833
244679,26522384,27734464,26529684,27807636,2533,3800,-2056,-11623,-514,1323,445,8900,111,58,830
245679,26522984,27734668,26530152,27808104,2451,3800,-3145,-10583,46,518,615,6732,111,58,830
246680,26523640,27734868,26530620,27808572,2020,3800,-3757,-10340,387,226,565,5028,120,44,830
247681,26524232,27735040,26531088,27809040,2366,3800,-3977,-10599,537,387,1053,4021,120,44,830
248682,26524748,27735200,26531556,27809508,2821,3800,-3949,-11229,585,330,1425,2767,125,32,832
249684,26525320,27735340,26532024,27809976,2428,3800,-3830,-11931,720,147,-22,2739,125,32,832
250684,26525888,27735472,26532492,27810444,2410,3800,-3687,-12435,988,-29,-1585,3619,101,28,828
251685,26526412,27735612,26532960,27810912,2661,3800,-3567,-12525,1314,-689,-2606,5076,101,28,828
252686,26526896,27735732,26533428,27811380,2906,3800,-3386,-12325,1641,-1181,-3734,5833,118,24,830
253688,26527464,27735860,26533896,27811848,2338,3800,-3106,-12052,1940,-1384,-4416,6305,118,24,830
254688,26527904,27735952,26534364,27812316,3151,3800,-2731,-11681,2126,-1262,-3829,6645,100,37,827
255689,26528352,27736064,26534832,27812784,3111,3800,-1953,-11250,2175,-282,-3359,7877,100,37,827
256690,26528820,27736192,26535300,27813252,2988,3800,5,-8543,1930,4567,-3216,28958,84,33,825
257691,26529260,27736332,26535768,27813720,3176,3800,1920,-6326,1787,2038,-3653,12856,84,33,825
258692,26529680,27736468,26536236,27814188,3324,3800,2803,-5619,1811,478,-3505,6017,97,32,826
259693,26530112,27736588,26536704,27814656,3265,3800,3083,-5286,2165,1173,-6128,7128,97,32,826
260695,26530528,27736740,26537172,27815124,3389,3800,3378,-4668,2554,2614,-5781,7095,84,43,825
261695,26530968,27736888,26537640,27815592,3254,3800,3805,-3435,2792,3483,-4255,7975,84,43,825
262696,26531428,27737068,26538108,27816060,3133,3800,4403,-2211,2755,3398,-2445,7088,76,49,825
263697,26531880,27737280,26538576,27816528,3191,3800,5009,-1175,2384,3092,-1742,6893,76,49,825
264698,26532360,27737508,26539044,27816996,3013,3800,5547,130,1928,2998,-1082,7749,105,42,827
265700,26532868,27737712,26539512,27817464,2821,3800,5938,1654,1519,3882,-472,7675,105,42,827
266700,26533424,27737928,26539980,27817932,2484,3800,6226,3175,1070,4376,87,7039,104,55,827
267701,26533904,27738152,26540448,27818400,2954,3800,6601,4478,617,3456,241,6283,104,55,827
268702,26534524,27738412,26540916,27818868,2014,3800,6997,5735,55,3279,1056,6206,104,61,829
269703,26535080,27738668,26541384,27819336,2377,3800,7369,6841,-495,3731,806,5443,104,61,829
270711,26535612,27738928,26541856,27819808,2501,3800,7711,8013,-871,3887,403,5495,117,49,831
271705,26536244,27739172,26542324,27820276,1805,3800,7972,9144,-1247,3917,796,4972,117,49,831
272706,26536732,27739388,26542792,27820744,2698,3800,8116,10107,-1729,3707,845,4526,109,62,830
273707,26537312,27739676,26543260,27821212,2075,3800,8165,11073,-2240,3383,604,4246,109,62,830
274708,26537924,27739940,26543728,27821680,1813,3800,8114,11764,-2786,3220,263,2986,101,49,830
275709,26538472,27740192,26544196,27822148,2179,3800,7980,12145,-3374,3199,-72,2223,101,49,830
276711,26539036,27740432,26544664,27822616,2038,3800,7768,12414,-3986,3254,179,1744,101,58,833
277711,26539592,27740672,26545132,27823084,2050,3800,7445,12479,-4515,3577,-1083,891,101,58,833
278712,26540260,27740884,26545600,27823552,1263,3800,7054,12460,-4924,3575,-1686,203,134,49,832
279713,26540788,27741132,26546068,27824020,2113,3800,6691,12139,-5223,3161,-1469,-716,134,49,832
280714,26541360,27741376,26546536,27824488,1793,3800,6353,11773,-5488,3057,-1218,-953,105,49,835
281715,26541988,27741636,26547004,27824956,1374,3800,5847,11567,-5588,3115,-1425,-336,105,49,835
282716,26542564,27741832,26547472,27825424,1652,3800,5035,11697,-5375,3031,-2032,206,124,47,832
283717,26543096,27742028,26547940,27825892,1900,3800,4544,11218,-5482,1874,32,-2927,124,47,832
284718,26543736,27742224,26548408,27826360,1151,3800,4245,10224,-5861,1347,524,-2948,111,47,833
285719,26544360,27742396,26548876,27826828,1183,3800,3937,9460,-6192,1310,247,-2160,111,47,833
286720,26544812,27742656,26549344,27827296,2266,3800,3409,9160,-6272,1334,-122,-834,104,58,835
287721,26545460,27742860,26549812,27827764,962,3800,2839,9228,-6138,1060,20,-400,104,58,835
288722,26545976,27743088,26550280,27828232,1767,3800,2341,9138,-6034,705,669,-1203,106,43,830
289723,26546648,27743308,26550748,27828700,703,3800,1999,8979,-5936,229,626,-1143,106,43,830
290724,26547200,27743552,26551216,27829168,1417,3800,1700,8924,-5785,-315,937,-638,116,59,833
291725,26547880,27743768,26551684,27829636,525,3800,1473,9016,-5590,-779,1072,-532,116,59,833
292726,26548396,27744068,26552152,27830104,1529,3800,1269,9270,-5359,-1286,1268,-13,105,52,834
293727,26549072,27744364,26552620,27830572,439,3800,1045,9525,-5190,-1782,1916,-139,105,52,834
294728,26549572,27744644,26553088,27831040,1526,3800,772,9647,-5139,-2164,2600,-647,104,65,835
295729,26550272,27744968,26553556,27831508,174,3800,520,9617,-5180,-2696,3200,-1021,104,65,835
296730,26550820,27745272,26554024,27831976,1090,3800,328,9507,-5281,-3173,3426,-1362,124,77,835
297732,26551376,27745648,26554492,27832444,1002,3800,182,9303,-5398,-3698,3335,-1830,124,77,835
298732,26551880,27746004,26554960,27832912,1311,3800,73,9036,-5465,-3989,3077,-1990,105,77,837
299733,26552428,27746360,26555428,27833380,1002,3800,-38,8715,-5434,-3974,2332,-2165,105,77,837
300734,26552912,27746696,26555896,27833848,1395,3800,-168,8372,-5250,-3890,1274,-2004,105,70,835
301735,26553368,27747108,26556364,27834316,1576,3800,-297,7998,-4923,-3767,943,-2055,105,70,835
302736,26553892,27747512,26556832,27834784,1127,3800,-406,7465,-4525,-3522,797,-2441,103,90,836
303737,26554352,27747876,26557300,27835252,1531,3800,-508,6804,-4096,-3280,939,-2638,103,90,836
304738,26554824,27748256,26557768,27835720,1455,3800,-579,5968,-3635,-3112,855,-3000,99,88,836
305748,26555248,27748676,26558240,27836192,1776,3800,-674,5073,-3142,-3021,920,-2857,99,88,836
306740,26555700,27749148,26558708,27836660,1609,3800,-779,4173,-2623,-3078,1184,-2737,79,87,836
307741,26556172,27749504,26559176,27837128,1483,3800,-921,3322,-2113,-2958,1404,-2506,79,87,836
308742,26556632,27749968,26559644,27837596,1562,3800,-1097,2524,-1629,-2826,1525,-2203,98,80,836
309744,26557152,27750428,26560112,27838064,1165,3800,-1320,1932,-1172,-2714,1563,-1407,98,80,836
310745,26557564,27750828,26560580,27838532,1865,3800,-1574,1467,-748,-2487,1486,-1168,85,97,835
311745,26557944,27751380,26561048,27839000,2105,3800,-1818,1008,-338,-2216,1175,-1140,85,97,835
312746,26558332,27751848,26561516,27839468,2090,3800,-2063,649,75,-2013,725,-444,84,105,835
313748,26558752,27752284,26561984,27839936,1912,3800,-2323,412,495,-1889,268,-15,84,105,835
314748,26559176,27752824,26562452,27840404,1906,3800,-2564,232,919,-1606,-237,117,87,109,835
315750,26559588,27753376,26562920,27840872,2007,3800,-2799,70,1307,-1054,-446,335,87,109,835
316750,26560024,27753908,26563388,27841340,1872,3800,-3013,-108,1655,-524,-895,194,97,123,835
317752,26560400,27754600,26563856,27841808,2287,3800,-3204,-393,1970,-381,-1447,258,97,123,835
318752,26560812,27755080,26564324,27842276,2088,3800,-3356,-655,2225,-89,-1773,488,83,115,836
319754,26561216,27755692,26564792,27842744,2167,3800,-3492,-905,2392,321,-1828,557,83,115,836
320754,26561624,27756324,26565260,27843212,2168,3800,-3561,-1177,2473,577,-1604,247,86,126,836
321756,26562040,27756904,26565728,27843680,2142,3800,-3619,-1407,2449,721,-1165,601,86,126,836
322756,26562440,27757556,26566196,27844148,2273,3800,-3710,-1455,2312,728,-1387,1205,103,126,834
323757,26562876,27758112,26566664,27844616,2062,3800,-3805,-1461,2048,718,-1284,1196,103,126,834
324758,26563292,27758724,26567132,27845084,2211,3800,-3881,-1362,1660,723,-1178,1486,99,115,835
325759,26563724,27759224,26567600,27845552,2128,3800,-3959,-1174,1201,311,-1365,1865,99,115,835
326760,26564160,27759736,26568068,27846020,2118,3800,-4071,-861,644,-111,-817,2260,88,103,835
327761,26564564,27760172,26568536,27846488,2346,3800,-4231,-452,-29,-326,-822,2274,88,103,835
328762,26565016,27760568,26569004,27846956,2054,3800,-4433,-93,-893,-780,743,2183,94,80,834
329763,26565432,27760844,26569472,27847424,2303,3800,-4712,225,-1954,-1119,908,2258,94,80,834
330764,26565844,27761088,26569940,27847892,2354,3800,-5056,481,-3084,-1527,220,2098,84,51,832
331765,26566292,27761284,26570408,27848360,2137,3800,-5426,670,-4203,-1865,539,2025,84,51,832
332766,26566684,27761424,26570876,27848828,2522,3800,-5853,831,-5242,-1881,-1392,1934,96,43,828
333767,26567112,27761536,26571344,27849296,2315,3800,-6253,849,-6076,-1936,-1517,1555,96,43,828
334768,26567496,27761624,26571812,27849764,2628,3800,-6651,605,-6808,-2087,190,901,86,15,827
335769,26567840,27761708,26572280,27850232,2934,3800,-7002,165,-7542,-2471,829,526,86,15,827
336770,26568180,27761776,26572748,27850700,3016,3800,-7298,-490,-8220,-2857,24,162,59,27,827
337771,26568544,27761820,26573216,27851168,2912,3800,-7555,-1282,-8786,-2975,-725,31,59,27,827
338772,26568824,27761820,26573684,27851636,3520,3800,-7802,-2096,-9141,-3058,-1632,185,52,4,825
339773,26569132,27761852,26574152,27852104,3417,3800,-8031,-2918,-9259,-3085,-3142,389,52,4,825
340781,26569444,27761852,26574624,27852576,3463,3800,-8259,-3789,-9118,-3106,-5004,583,64,0,821
341775,26569756,27761876,26575092,27853044,3532,3800,-8691,-4789,-8560,-4232,-6086,1664,64,0,821
342777,26570056,27761872,26575560,27853512,3682,3800,-9657,-6901,-7286,-6476,-6972,4726,65,20,821
343777,26570400,27761908,26576028,27853980,3463,3800,-1691,-13828,-5215,-10389,-5679,32767,65,20,821
344778,26570724,27761964,26576496,27854448,3652,3800,4955,-13566,-3920,3424,-4132,32767,74,21,819
345779,26571064,27762028,26576964,27854916,3609,3800,1549,-3817,-2910,867,-5311,32767,74,21,819
346780,26571412,27762136,26577432,27855384,3614,3800,-3789,2777,-2667,-1737,-4219,9489,76,27,821
347781,26571784,27762316,26577900,27855852,3507,3800,-5216,813,-3038,-1951,-4866,-5091,76,27,821
348782,26572164,27762536,26578368,27856320,3497,3800,-3603,-4281,-3135,-2100,-4155,-6203,57,39,822
349783,26572524,27762804,26578836,27856788,3670,3800,-1780,-8757,-2918,881,-5043,-6332,57,39,822
350784,26572908,27763184,26579304,27857256,3558,3800,-947,-11655,-2658,2437,-3952,-4113,76,65,824
351785,26573312,27763456,26579772,27857724,3462,3800,-897,-12788,-2050,2926,-3961,1566,76,65,824
352786,26573696,27763804,26580240,27858192,3626,3800,-6,-11836,-1560,6559,-4856,15481,85,82,824
353787,26574172,27764152,26580708,27858660,3049,3800,2244,-8951,-1522,8651,-3405,31237,85,82,824
354789,26574612,27764516,26581176,27859128,3287,3800,3754,-7843,-1418,5115,-1670,6334,76,75,824
355789,26575036,27764896,26581644,27859596,3407,3800,3414,-7947,-1245,6057,-1214,4556,76,75,824
356790,26575592,27765304,26582112,27860064,2546,3800,2525,-8294,-1178,6170,-153,4139,101,79,826
357791,26576104,27765716,26582580,27860532,2802,3800,2025,-8208,-1223,6206,251,4916,101,79,826
358792,26576584,27766140,26583048,27861000,2998,3800,1932,-7437,-1388,6810,-631,5944,111,85,830
359793,26577144,27766572,26583516,27861468,2459,3800,1892,-6548,-1634,6337,-212,6658,111,85,830
360794,26577688,27767052,26583984,27861936,2527,3800,1870,-5345,-1952,5973,1104,7456,110,99,830
361796,26578260,27767564,26584452,27862404,2308,3800,1862,-4316,-2409,6139,1847,6296,110,99,830
362796,26578872,27768060,26584920,27862872,1995,3800,1929,-3573,-2973,5945,1895,5972,123,113,833
363797,26579464,27768576,26585388,27863340,2067,3800,1987,-2604,-3506,5669,167,7105,123,113,833
364798,26580092,27769096,26585856,27863808,1773,3800,2031,-1439,-4077,5658,-278,7254,118,116,835
365799,26580784,27769684,26586324,27864276,1275,3800,2094,-287,-4769,5450,1100,6565,118,116,835
366800,26581408,27770260,26586792,27864744,1633,3800,2168,717,-5509,5196,1912,6174,140,125,835
367801,26582048,27770872,26587260,27865212,1458,3800,2245,1503,-6169,5163,1911,5698,140,125,835
368802,26582712,27771464,26587728,27865680,1223,3800,2338,2271,-6640,4827,1651,5636,114,125,838
369803,26583392,27772140,26588196,27866148,1031,3800,2535,2923,-6916,4112,119,5044,114,125,838
370804,26584020,27772884,26588664,27866616,1286,3800,2834,3284,-7079,3402,-1796,4029,123,141,840
371805,26584596,27773436,26589132,27867084,1565,3800,3210,3518,-7158,2334,-2812,3590,123,141,840
372806,26585180,27774144,26589600,27867552,1465,3800,3599,3615,-7101,1580,-3778,3329,121,129,839
373807,26585752,27774968,26590068,27868020,1495,3800,3911,3775,-6937,994,-4373,3464,121,129,839
374808,26586316,27775752,26590536,27868488,1504,3800,4171,3944,-6705,105,-4007,3052,129,140,839
375816,26586912,27776528,26591008,27868960,1251,3800,4423,4038,-6384,-480,-4368,2690,129,140,839
376810,26587456,27777380,26591476,27869428,1542,3800,4691,4002,-5975,-1058,-4314,2261,128,164,839
377812,26588036,27778200,26591944,27869896,1269,3800,4931,4002,-5488,-1979,-4134,2207,128,164,839
378812,26588592,27779004,26592412,27870364,1381,3800,5099,4027,-4934,-2867,-4293,1832,104,204,840
379813,26589112,27779956,26592880,27870832,1584,3800,5276,3911,-4313,-3585,-3809,1402,104,204,840
380814,26589600,27780944,26593348,27871300,1776,3800,5432,3790,-3644,-4036,-3079,1555,115,209,842
381815,26590088,27781940,26593816,27871768,1768,3800,5544,3808,-2906,-4146,-3000,1791,115,209,842
382816,26590520,27782872,26594284,27872236,2135,3800,5669,3858,-2187,-4512,-3314,1372,102,190,841
383817,26590956,27783892,26594752,27872704,2124,3800,5731,3732,-1486,-4915,-3702,1134,102,190,841
384818,26591376,27784784,26595220,27873172,2246,3800,5791,3709,-780,-5326,-3760,1462,92,193,839
385819,26591820,27785652,26595688,27873640,2107,3800,5712,3798,-67,-5689,-3696,1948,92,193,839
386820,26592184,27786508,26596156,27874108,2654,3800,5625,4040,627,-6190,-3074,2095,95,190,839
387821,26592564,27787400,26596624,27874576,2593,3800,5470,4265,1315,-6265,-2609,2392,95,190,839
388822,26592924,27788404,26597092,27875044,2766,3800,5298,4504,1943,-5635,-1936,1918,72,181,836
389823,26593260,27789292,26597560,27875512,2975,3800,5077,4378,2461,-4387,-938,1008,72,181,836
390824,26593556,27790180,26598028,27875980,3302,3800,4823,3932,2876,-2927,-197,296,80,191,835
391825,26593896,27791204,26598496,27876448,3084,3800,4540,3162,3233,-1838,-9,-690,80,191,835
392826,26594208,27792136,26598964,27876916,3328,3800,4243,2146,3527,-922,-634,-1112,79,202,833
393828,26594536,27793064,26599432,27877384,3290,3800,3925,1088,3757,-57,-1423,-1114,79,202,833
394828,26594880,27794128,26599900,27877852,3246,3800,3621,98,3947,949,-1941,-963,74,206,833
395829,26595220,27795072,26600368,27878320,3328,3800,3291,-765,4125,2170,-2365,-349,74,206,833
396830,26595576,27795940,26600836,27878788,3278,3800,3027,-1802,4205,3229,-2240,-1293,87,195,833
397831,26595984,27796744,26601304,27879256,2980,3800,2871,-3215,4160,4327,-2049,-2236,87,195,833
398832,26596364,27797476,26601772,27879724,3195,3800,2757,-4681,4040,4969,-1874,-1926,78,148,831
399833,26596748,27798132,26602240,27880192,3208,3800,2609,-5908,3903,4656,-2143,-815,78,148,831
400834,26597168,27798608,26602708,27880660,3005,3800,2414,-6682,3762,3725,-2470,488,85,118,829
401835,26597500,27799000,26603176,27881128,3616,3800,2204,-6712,3608,3320,-1984,2219,85,118,829
402836,26597840,27799276,26603644,27881596,3623,3800,2016,-6501,3306,3486,-101,2043,69,60,827
403837,26598240,27799416,26604112,27882064,3280,3800,1948,-6571,2858,3321,486,1319,69,60,827
404838,26598652,27799528,26604580,27882532,3231,3800,1884,-6238,2274,2510,905,3617,83,39,822
405839,26599068,27799540,26605048,27883000,3229,3800,1714,-5377,1642,1670,1241,4503,83,39,822
406840,26599572,27799544,26605516,27883468,2665,3800,1560,-4367,800,624,4034,4170,96,-3,823
407841,26599996,27799536,26605984,27883936,3185,3800,1411,-3348,-330,-660,6151,4538,96,-3,823
408842,26600424,27799560,26606452,27884404,3179,3800,1109,-2243,-1612,-1053,7585,4936,97,13,822
409844,26600880,27799572,26606920,27884872,3010,3800,620,-1087,-2880,-810,8725,4774,97,13,822
410851,26601320,27799572,26607392,27885344,3126,3800,125,-323,-4088,-967,9638,3411,83,6,822
411845,26601696,27799588,26607860,27885812,3567,3800,-163,-11,-5092,-1257,8504,2182,83,6,822
412846,26602100,27799572,26608328,27886280,3421,3800,-305,36,-5684,-1233,6815,2122,78,5,823
413847,26602476,27799588,26608796,27886748,3638,3800,-596,74,-5902,-300,6450,2375,78,5,823
414848,26602872,27799596,26609264,27887216,3545,3800,-1078,114,-5926,314,6590,1974,68,0,821
415849,26603292,27799600,26609732,27887684,3418,3800,-1537,-120,-5988,-221,6526,795,68,0,821
416850,26603684,27799596,26610200,27888152,3628,3800,-1785,-1097,-6041,-433,5536,-1199,71,14,820
417851,26604192,27799616,26610668,27888620,2886,3800,-1963,-2302,-5982,-515,4439,-985,71,14,820
418852,26604656,27799620,26611136,27889088,3164,3800,-2361,-3005,-5592,363,3191,933,96,1,822
419853,26605156,27799644,26611604,27889556,2926,3800,-3349,-2728,-4550,1457,-153,3876,96,1,822
420854,26605668,27799672,26612072,27890024,2834,3800,-4673,-2034,-3047,1288,-3048,4660,92,4,822
421855,26606172,27799688,26612540,27890492,2869,3800,-6047,-915,-1527,473,-3900,6494,92,4,822
422856,26606700,27799704,26613008,27890960,2694,3800,-7205,83,-783,651,89,6041,84,14,824
423857,26607192,27799704,26613476,27891428,2909,3800,-7897,301,-605,1129,852,3976,84,14,824
424858,26607788,27799720,26613944,27891896,2204,3800,-8352,620,-696,927,1944,5549,112,18,825
425859,26608360,27799724,26614412,27892364,2310,3800,-8597,683,-992,1543,4685,4303,112,18,825
426860,26608972,27799752,26614880,27892832,1998,3800,-8722,953,-1367,1685,3719,5440,115,18,826
427861,26609588,27799772,26615348,27893300,1909,3800,-8658,1364,-1757,1918,3187,5614,115,18,826
428862,26610228,27799804,26615816,27893768,1684,3800,-8632,2183,-2081,2871,1703,7523,130,18,829
429863,26610844,27799844,26616284,27894236,1770,3800,-8674,3246,-2391,3584,879,7773,130,18,829
430864,26611480,27799872,26616752,27894704,1572,3800,-8408,3472,-2835,3042,350,4333,125,21,830
431865,26612252,27799936,26617220,27895172,590,3800,-7830,3138,-3448,2991,-179,3988,125,21,830
432866,26612860,27800028,26617688,27895640,1554,3800,-7231,2788,-4122,3244,-275,4539,132,21,830
433867,26613512,27800112,26618156,27896108,1199,3800,-6679,2808,-4736,3257,-329,5010,132,21,830
434868,26614160,27800244,26618624,27896576,1146,3800,-6054,2879,-5185,3557,-975,4652,135,37,831
435869,26614932,27800384,26619092,27897044,239,3800,-5405,3084,-5535,3894,-1267,5687,135,37,831
436870,26615640,27800564,26619560,27897512,534,3800,-4171,4689,-5689,3679,-2392,15735,107,41,834
437871,26616160,27800732,26620028,27897980,1686,3800,-1820,8839,-5465,1991,-4661,32767,107,41,834
438872,26616844,27800932,26620496,27898448,567,3800,-77,10759,-5577,3329,-242,6861,117,56,837
439873,26617416,27801156,26620964,27898916,1223,3800,729,10297,-5981,3233,761,3143,117,56,837
440875,26618004,27801392,26621432,27899384,1070,3800,1031,8854,-6343,3250,-10,2519,94,42,833
441876,26618544,27801616,26621900,27899852,1339,3800,1387,8081,-6381,3056,-1077,3399,94,42,833
442877,26619036,27801856,26622368,27900320,1630,3800,1838,7628,-6101,2288,-1240,3075,116,44,835
443878,26619552,27802092,26622836,27900788,1459,3800,2332,7109,-5768,1820,-1153,2730,116,44,835
444878,26620084,27802320,26623304,27901256,1332,3800,2774,6676,-5464,771,-796,3066,103,55,833
445889,26620528,27802528,26623776,27901728,1895,3800,3187,6133,-5136,-500,-465,2666,103,55,833
446880,26621032,27802780,26624244,27902196,1504,3800,3518,5659,-4777,-1069,-679,3132,96,60,834
447881,26621488,27803096,26624712,27902664,1810,3800,3809,5348,-4329,-1947,-431,3533,96,60,834
448882,26621956,27803428,26625180,27903132,1735,3800,4055,5301,-3792,-2619,-170,3891,94,67,832
449884,26622444,27803788,26625648,27903600,1603,3800,4265,5303,-3221,-3326,-187,3799,94,67,832
450885,26622876,27804192,26626116,27904068,1969,3800,4415,5272,-2560,-4263,-195,4167,80,82,834
451885,26623252,27804636,26626584,27904536,2360,3800,4548,5431,-1892,-4447,-328,4189,80,82,834
452887,26623576,27805060,26627052,27905004,2749,3800,4632,5603,-1265,-4567,-780,3861,92,99,836
453887,26624000,27805560,26627520,27905472,2144,3800,4688,5737,-604,-5004,-1338,3951,92,99,836
454889,26624388,27806060,26627988,27905940,2405,3800,4770,5774,104,-5032,-1769,3298,92,104,832
455889,26624764,27806492,26628456,27906408,2521,3800,4840,5686,825,-4986,-1847,2866,92,104,832
456890,26625160,27806928,26628924,27906876,2429,3800,4836,5528,1550,-4957,-2085,2619,77,104,833
457892,26625588,27807396,26629392,27907344,2246,3800,4791,5157,2265,-4660,-2398,1699,77,104,833
458892,26625952,27807828,26629860,27907812,2693,3800,4698,4739,2955,-4449,-2682,1678,74,96,832
459893,26626320,27808332,26630328,27908280,2713,3800,4536,4364,3589,-4131,-2478,1425,74,96,832
460894,26626736,27808952,26630796,27908748,2437,3800,4334,3855,4160,-3506,-2393,812,79,106,833
461895,26627096,27809468,26631264,27909216,2834,3800,4137,3149,4568,-2839,-2269,236,79,106,833
462896,26627456,27810140,26631732,27909684,2883,3800,3898,2176,4665,-2099,-1750,-591,73,126,832
463897,26627856,27810768,26632200,27910152,2663,3800,3677,968,4529,-1324,-1531,-1345,73,126,832
464898,26628236,27811540,26632668,27910620,2828,3800,3392,-225,4356,-711,-1552,-1199,80,132,832
465900,26628636,27812296,26633136,27911088,2734,3800,2988,-1257,4225,-176,-1189,-1110,80,132,832
466900,26629056,27813096,26633604,27911556,2630,3800,2485,-2265,4032,461,548,-1128,77,147,833
467901,26629460,27813816,26634072,27912024,2759,3800,1913,-3103,3745,1043,467,-642,77,147,833
468902,26629836,27814628,26634540,27912492,2976,3800,1321,-3911,3391,1148,-196,-598,81,147,834
469903,26630296,27815452,26635008,27912960,2455,3800,763,-4681,3000,1557,-629,-416,81,147,834
470904,26630676,27816356,26635476,27913428,2995,3800,314,-5324,2608,2160,-1045,-168,100,148,835
471905,26631048,27817288,26635944,27913896,3088,3800,14,-5899,2235,2827,-1355,-186,100,148,835
472906,26631452,27818108,26636412,27914364,2917,3800,-217,-6369,1835,3463,-666,203,87,163,836
473908,26631812,27819036,26636880,27914832,3241,3800,-447,-6773,1404,3925,-188,343,87,163,836
474908,26632148,27820040,26637348,27915300,3450,3800,-759,-6975,949,4355,13,1222,82,189,833
475910,26632508,27820924,26637816,27915768,3348,3800,-1097,-6889,481,4546,-2,1925,82,189,833
476910,26632872,27821996,26638284,27916236,3370,3800,-1412,-6524,30,4614,-411,2708,79,180,832
477912,26633228,27822964,26638752,27916704,3470,3800,-1698,-5992,-395,4520,-448,3029,79,180,832
478912,26633556,27823740,26639220,27917172,3708,3800,-1930,-5392,-804,4413,-87,3145,70,183,831
479913,26633916,27824624,26639688,27917640,3556,3800,-2185,-4668,-1203,4514,-232,3668,70,183,831
480934,26634236,27825396,26640160,27918112,3800,3800,-2510,-3822,-1611,4532,39,4184,84,154,830
481928,26634536,27826116,26640628,27918580,3800,3800,-2842,-2919,-2097,4308,110,4143,84,154,830
482929,26634852,27826748,26641096,27919048,3800,3800,-3097,-2078,-2702,4090,-997,3856,64,136,829
483930,26635172,27827256,26641564,27919516,3800,3800,-3251,-1277,-3348,4129,-1779,3861,64,136,829
484931,26635480,27827680,26642032,27919984,3800,3800,-3350,-427,-3950,4156,-1918,4132,60,108,824
485932,26635820,27828036,26642500,27920452,3800,3800,-3468,452,-4509,4094,-1574,4328,60,108,824
486933,26636168,27828356,26642968,27920920,3800,3800,-3525,1134,-5153,3906,397,3645,77,74,822
487934,26636500,27828612,26643436,27921388,3800,3800,-3550,1528,-5966,3333,2300,3272,77,74,822
488935,26636880,27828772,26643904,27921856,3800,3800,-3660,1988,-6811,3093,2329,3791,58,53,820
489936,26637236,27828888,26644372,27922324,3800,3800,-3863,2421,-7447,3052,1399,3827,58,53,820
490937,26637576,27829020,26644840,27922792,3800,3800,-4140,2973,-7867,3082,739,4351,61,36,821
491938,26637944,27829180,26645308,27923260,3800,3800,-4462,3457,-8189,3023,974,4180,61,36,821
492939,26638340,27829372,26645776,27923728,3800,3800,-4763,3809,-8452,3123,1550,4092,80,43,820
493940,26638712,27829680,26646244,27924196,3800,3800,-5088,4057,-8614,3337,1881,4158,80,43,820
494941,26639080,27830024,26646712,27924664,3800,3800,-5414,4255,-8547,3719,1835,4083,74,62,822
495942,26639528,27830368,26647180,27925132,3800,3800,-5680,4226,-8325,4168,2568,3302,74,62,822
496943,26639920,27830732,26647648,27925600,3800,3800,-4737,5040,-7927,3561,2135,11386,72,82,823
497944,26640340,27831068,26648116,27926068,3800,3800,-425,12934,-6752,-608,-1764,32767,72,82,823
498945,26640776,27831428,26648584,27926536,3800,3800,3364,17750,-6024,3352,3566,12883,81,81,821
499946,26641196,27831708,26649052,27927004,3800,3800,4044,16344,-5834,4204,4432,-3143,81,81,821
500947,26641612,27832068,26649520,27927472,3800,3800,3120,12164,-5541,3995,2889,-4491,74,84,821
501948,26642060,27832484,26649988,27927940,3800,3800,2206,8812,-5092,3801,1511,-2694,74,84,821
502949,26642460,27832936,26650456,27928408,3800,3800,1277,7200,-4679,2886,2097,300,83,91,823
503950,26642896,27833436,26650924,27928876,3800,3800,512,6009,-4737,2298,2281,-533,83,91,823
504951,26643376,27833976,26651392,27929344,3800,3800,2084,3163,-4688,-3962,-2199,16592,76,103,824
505952,26643808,27834504,26651860,27929812,3800,3800,5062,902,-4282,-5640,-4045,31085,76,103,824
506940,26644304,27834964,26652328,27930280,3733,3800,5020,925,-4556,891,3906,8949,85,107,825
507941,26644844,27835476,26652796,27930748,3428,3800,3215,899,-5464,1062,3205,2315,85,107,825
508942,26645380,27835928,26653264,27931216,3424,3800,1970,-202,-6328,-579,1343,-69,88,110,825
509943,26645868,27836548,26653732,27931684,3717,3800,1478,-2434,-7017,-440,1093,-1471,88,110,825
510944,26646468,27837024,26654200,27932152,2960,3800,1088,-4366,-7633,-81,1675,146,106,122,828
511945,26646976,27837660,26654668,27932620,3520,3800,515,-5667,-8042,-95,1648,1240,106,122,828
512946,26647540,27838388,26655136,27933088,3129,3800,-297,-6412,-8051,901,-110,2670,115,125,828
513947,26648060,27838912,26655604,27933556,3383,3800,-1218,-6460,-7610,1473,-1138,5165,115,125,828
514948,26648668,27839540,26656072,27934024,2772,3800,-1859,-6102,-7138,1037,-156,5928,97,114,829
515956,26649200,27840296,26656544,27934496,3222,3800,-2091,-5837,-6965,1005,632,5063,97,114,829
516950,26649752,27840936,26657012,27934964,3062,3800,-2065,-5807,-6918,808,1406,5075,118,130,830
517951,26650356,27841720,26657480,27935432,2678,3800,-2157,-5494,-6753,818,1947,6375,118,130,830
518952,26650896,27842520,26657948,27935900,3049,3800,-2254,-4962,-6461,994,1799,6224,119,152,832
519953,26651496,27843340,26658416,27936368,2617,3800,-2346,-4542,-6128,291,2213,6212,119,152,832
520954,26652092,27844020,26658884,27936836,2586,3800,-2338,-4240,-5745,-112,1194,5759,107,165,834
521955,26652668,27844984,26659352,27937304,2666,3800,-2311,-4316,-5250,-395,-497,4908,107,165,834
522956,26653260,27845924,26659820,27937772,2512,3800,-2188,-4411,-4705,-1153,-1022,5093,138,197,835
523957,26653896,27846796,26660288,27938240,2164,3800,-1955,-4442,-4128,-2025,-1802,5147,138,197,835
524958,26654464,27847748,26660756,27938708,2547,3800,-1658,-4440,-3470,-2352,-2955,5272,110,179,837
525959,26655020,27848812,26661224,27939176,2584,3800,-1274,-4357,-2749,-2265,-3325,5427,110,179,837
526960,26655636,27849700,26661692,27939644,2146,3800,-849,-4407,-2032,-2200,-3337,4647,134,178,840
527961,26656148,27850608,26662160,27940112,2777,3800,-346,-4683,-1367,-2299,-3805,4015,134,178,840
528962,26656652,27851508,26662628,27940580,2813,3800,250,-5218,-834,-2494,-4094,3367,127,182,838
529963,26657256,27852388,26663096,27941048,2129,3800,838,-5776,-398,-2423,-4498,3344,127,182,838
530964,26657708,27853316,26663564,27941516,3087,3800,1383,-6231,-22,-2262,-4098,3463,127,171,837
531965,26658152,27854300,26664032,27941984,3148,3800,1871,-6689,334,-2151,-3554,3483,127,171,837
532966,26658620,27855240,26664500,27942452,2999,3800,2336,-7044,690,-1928,-2816,3783,92,185,838
533967,26659012,27856208,26664968,27942920,3510,3800,2819,-7317,1033,-1480,-1987,3752,92,185,838
534968,26659368,27857172,26665436,27943388,3785,3800,3321,-7542,1351,-822,-1756,3916,87,205,835
535982,26659724,27858168,26665904,27943856,3800,3800,3897,-7537,1637,-198,-1399,4023,87,205,835
536970,26660116,27859216,26666372,27944324,3645,3800,4424,-7745,1876,1170,-1456,3415,74,215,832
537984,26660460,27860156,26666840,27944792,3800,3800,4783,-7587,2092,3083,-1990,4714,74,215,832
538973,26660844,27861104,26667308,27945260,3788,3800,4988,-7298,2258,3809,-2060,4322,96,212,830
539974,26661300,27862004,26667776,27945728,3345,3800,5221,-7155,2258,3978,-3306,3511,96,212,830
540974,26661748,27862832,26668244,27946196,3405,3800,5436,-6959,2112,4282,-4889,3943,89,168,831
541975,26662196,27863588,26668712,27946664,3415,3800,5664,-6661,1927,4733,-5147,3621,89,168,831
542976,26662708,27864216,26669180,27947132,2997,3800,5921,-6267,1686,4975,-5469,3675,90,141,830
543977,26663176,27864740,26669648,27947600,3274,3800,6170,-5717,1449,4448,-6175,4611,90,141,830
544978,26663692,27865116,26670116,27948068,2954,3800,6424,-4782,1255,3450,-6341,5571,112,101,828
545979,26664168,27865464,26670584,27948536,3201,3800,6700,-3570,1050,3663,-5307,5597,112,101,828
546980,26664632,27865736,26671052,27949004,3279,3800,7012,-2634,735,4056,-4228,4501,96,73,828
547981,26665108,27865948,26671520,27949472,3202,3800,7258,-1509,344,3689,-3513,5499,96,73,828
548982,26665612,27866084,26671988,27949940,3012,3800,7476,-301,-20,3072,-3385,5179,89,43,826
549983,26666076,27866148,26672456,27950408,3265,3800,7658,849,-383,1951,-2912,5119,89,43,826
551004,26666436,27866192,26672928,27950880,3800,3800,7712,2286,-632,949,-2188,5856,77,8,825
551985,26666896,27866216,26673396,27951348,3345,3800,7648,3646,-941,1210,340,5383,77,8,825
552999,26667272,27866244,26673864,27951816,3800,3800,7341,5167,-1299,1732,1961,6078,68,4,823
554000,26667664,27866276,26674332,27952284,3800,3800,7031,6620,-1493,1542,2500,5352,68,4,823
554988,26668084,27866308,26674800,27952752,3694,3800,6697,7813,-1634,1785,3040,5039,71,17,821
555989,26668492,27866356,26675268,27953220,3796,3800,6265,9064,-1932,1367,5122,5189,71,17,821
556990,26668916,27866452,26675736,27953688,3718,3800,5829,9696,-2271,855,5783,2743,74,12,820
557991,26669356,27866516,26676204,27954156,3631,3800,5466,9550,-2851,988,7496,843,74,12,820
558992,26669904,27866612,26676672,27954624,2922,3800,4984,9515,-3429,530,7810,2447,84,22,821
559993,26670432,27866728,26677140,27955092,3022,3800,4273,10360,-3691,530,7177,4541,84,22,821
560994,26670984,27866836,26677608,27955560,2836,3800,3388,11336,-3909,1309,8840,3762,96,24,822
561995,26671568,27866984,26678076,27956028,2586,3800,2104,12366,-4181,1875,10197,4717,96,24,822
562996,26672060,27867148,26678544,27956496,3152,3800,816,12689,-4636,1085,8862,924,106,38,826
563997,26672636,27867328,26679012,27956964,2581,3800,-680,12592,-4946,479,4618,1661,106,38,826
564998,26673224,27867516,26679480,27957432,2455,3800,-2399,12615,-4984,-172,3599,1946,113,46,828
565999,26673800,27867724,26679948,27957900,2483,3800,-3818,12236,-4915,-273,3187,-709,113,46,828
567000,26674392,27867920,26680416,27958368,2330,3800,-4850,11102,-4875,329,2683,-2138,117,55,828
568001,26675060,27868096,26680884,27958836,1768,3800,-5648,9671,-5214,326,3767,-2307,117,55,828
569002,26675664,27868340,26681352,27959304,2109,3800,-6178,8059,-5910,357,3089,-3241,127,64,830
570003,26676316,27868632,26681820,27959772,1730,3800,-6602,6487,-6631,1037,1376,-2587,127,64,830
571004,26677056,27868872,26682288,27960240,1062,3800,-7162,5770,-7026,1707,-262,335,115,57,832
572006,26677704,27869128,26682756,27960708,1559,3800,-7377,5054,-7334,1167,-554,-1521,115,57,832
573006,26678384,27869428,26683224,27961176,1266,3800,-7163,4162,-7609,666,-1941,-1051,140,72,831
574007,26679144,27869800,26683692,27961644,639,3800,-6787,3299,-7212,355,-5017,-603,140,72,831
575008,26679848,27870228,26684160,27962112,885,3800,-6528,2846,-6393,-958,-7034,959,113,89,835
576009,26680472,27870680,26684628,27962580,1318,3800,-6346,2882,-6170,-1706,-4171,2043,113,89,835
577010,26681180,27871228,26685096,27963048,688,3800,-5984,2948,-6496,-2019,-3151,1659,107,104,837
578012,26681784,27871724,26685564,27963516,1280,3800,-5453,3067,-6905,-2506,-3590,2054,107,104,837
579012,26682376,27872260,26686032,27963984,1300,3800,-4892,3107,-7168,-2944,-3538,2266,114,123,837
580013,26683036,27872912,26686500,27964452,792,3800,-4388,3327,-7264,-3042,-3324,2853,114,123,837
581014,26683524,27873548,26686968,27964920,1859,3800,-4137,3779,-7318,-2875,-2814,4346,123,130,838
582015,26684084,27874244,26687436,27965388,1369,3800,-4232,5116,-7310,-2415,-2355,7369,123,130,838
583016,26684568,27874904,26687904,27965856,1838,3800,-4306,6092,-7105,-2235,-2367,4801,100,135,841
584017,26685136,27875676,26688372,27966324,1270,3800,-4090,6221,-6826,-1880,-1895,2927,100,135,841
585018,26685652,27876408,26688840,27966792,1573,3800,-3682,5959,-6484,-1672,-1485,2662,88,144,839
586029,26686136,27877284,26689312,27967264,1769,3800,-3241,5516,-6067,-1672,-1850,2216,88,144,839
587020,26686684,27878156,26689780,27967732,1335,3800,-2755,4975,-5521,-1538,-2961,1920,104,154,839
588022,26687168,27878984,26690248,27968200,1728,3800,-2171,4324,-4774,-1348,-3693,1766,104,154,839
589022,26687580,27879888,26690716,27968668,2204,3800,-1500,3673,-4003,-977,-3483,1634,98,156,838
590023,26688184,27880740,26691184,27969136,944,3800,-864,2946,-3307,-853,-3424,1908,98,156,838
591024,26688712,27881668,26691652,27969604,1393,3800,-219,2328,-2636,-707,-3538,2270,106,166,839
592025,26689132,27882608,26692120,27970072,2090,3800,419,1640,-2008,-386,-3309,1760,106,166,839
593026,26689692,27883436,26692588,27970540,1175,3800,1043,952,-1435,-91,-3254,2209,99,178,843
594027,26690128,27884364,26693056,27971008,1965,3800,1585,413,-907,190,-3351,2773,99,178,843
595028,26690568,27885376,26693524,27971476,1953,3800,2086,-131,-397,522,-3570,2333,107,179,839
596029,26691088,27886300,26693992,27971944,1431,3800,2517,-603,116,996,-3564,2703,107,179,839
597030,26691500,27887352,26694460,27972412,2130,3800,2880,-793,602,1321,-2792,3226,115,171,839
598031,26691948,27888324,26694928,27972880,1915,3800,3166,-906,1024,1485,-2192,3320,115,171,839
599032,26692420,27889228,26695396,27973348,1763,3800,3392,-849,1344,1605,-1545,3517,107,193,841
600033,26692812,27890220,26695864,27973816,2298,3800,3522,-634,1576,1734,-850,3863,107,193,841
601034,26693232,27891168,26696332,27974284,2145,3800,3614,-254,1743,1889,-631,3850,108,181,840
602035,26693660,27892052,26696800,27974752,2112,3800,3605,152,1844,1777,-516,3887,108,181,840
603036,26694084,27892964,26697268,27975220,2158,3800,3505,589,1883,1776,-642,3641,104,170,838
604037,26694488,27893824,26697736,27975688,2311,3800,3359,943,1811,1709,-358,2791,104,170,838
605038,26694884,27894604,26698204,27976156,2393,3800,3195,1065,1606,1399,248,2171,97,163,839
606039,26695288,27895464,26698672,27976624,2373,3800,3021,1089,1244,1175,533,1918,97,163,839
607040,26695652,27896328,26699140,27977092,2668,3800,2811,1205,704,804,1080,1790,73,180,838
608041,26696028,27897256,26699608,27977560,2635,3800,2511,1244,-87,464,2447,1097,73,180,838
609042,26696404,27898072,26700076,27978028,2676,3800,2138,1105,-1080,544,2861,381,82,171,836
610043,26696752,27898908,26700544,27978496,2904,3800,1726,717,-2114,639,3124,-268,82,171,836
611044,26697068,27899664,26701012,27978964,3172,3800,1272,288,-3199,639,3669,-430,81,158,834
612045,26697420,27900440,26701480,27979432,2999,3800,804,-269,-4357,643,3525,-921,81,158,834
613046,26697728,27901120,26701948,27979900,3345,3800,351,-980,-5566,715,4283,-1537,70,153,832
614047,26698040,27901864,26702416,27980368,3389,3800,-141,-1923,-6680,1108,4582,-2189,70,153,832
615048,26698352,27902528,26702884,27980836,3458,3800,-607,-2918,-7437,1640,2996,-2236,61,141,831
616049,26698640,27903276,26703352,27981304,3688,3800,-1008,-3877,-7701,2156,1515,-1880,61,141,831
617050,26698928,27904028,26703820,27981772,3768,3800,-1296,-4803,-7605,2501,1440,-1931,53,164,827
618051,26699260,27904704,26704288,27982240,3554,3800,-1632,-5722,-7343,2825,1201,-1602,53,164,827
619052,26699608,27905492,26704756,27982708,3508,3800,-2155,-6165,-6832,3603,-82,588,55,137,826
620053,26699932,27906252,26705224,27983176,3722,3800,-3338,-5354,-5843,4612,-1536,5011,55,137,826
621061,26700292,27906904,26705696,27983648,3547,3800,-4819,-4084,-4488,4587,-1676,4480,85,149,826
622055,26700676,27907764,26706164,27984116,3435,3800,-5998,-3455,-3006,4421,-912,2644,85,149,826
623056,26701036,27908608,26706632,27984584,3634,3800,-6451,-3935,-1822,3945,1327,106,79,169,828
624057,26701448,27909504,26707100,27985052,3334,3800,-6311,-5105,-1190,2885,2723,-1342,79,169,828
625058,26701852,27910540,26707568,27985520,3413,3800,-5957,-6603,-749,2385,2798,-1865,86,170,830
626059,26702272,27911472,26708036,27985988,3336,3800,-5694,-7629,-344,2262,3147,93,86,170,830
627060,26702716,27912288,26708504,27986456,3197,3800,-5046,-6943,99,2767,3541,6748,101,198,832
628061,26703184,27913240,26708972,27986924,3048,3800,1726,7635,293,10917,5919,32767,101,198,832
629062,26703656,27914216,26709440,27987392,3022,3800,10247,24061,516,6725,1884,32767,106,199,833
630063,26704080,27915244,26709908,27987860,3344,3800,12879,27623,861,3448,3130,110,106,199,833
631064,26704596,27916180,26710376,27988328,2749,3800,11816,23844,1204,3732,4264,-2210,115,191,834
632065,26705060,27917164,26710844,27988796,3076,3800,10210,18893,1354,3985,3104,-4919,115,191,834
633066,26705508,27918108,26711312,27989264,3186,3800,9390,16569,1628,2734,1378,-1794,97,205,832
634067,26706036,27919116,26711780,27989732,2661,3800,8755,15446,1939,1856,2079,-1707,97,205,832
635068,26706472,27920040,26712248,27990200,3251,3800,7925,14395,1792,1772,2454,-2263,104,213,835
636069,26706944,27921100,26712716,27990668,3025,3800,7015,12635,1480,-184,1279,-2560,104,213,835
637070,26707436,27922124,26713184,27991136,2890,3800,6172,10457,1172,-1134,-562,-3211,108,196,837
638071,26707860,27923040,26713652,27991604,3336,3800,5242,8201,623,-736,-454,-3194,108,196,837
639072,26708288,27923972,26714120,27992072,3329,3800,3584,7422,-214,-1410,833,2773,104,205,835
640073,26708788,27924904,26714588,27992540,2867,3800,1313,7912,-1398,-1810,1262,4318,104,205,835
641074,26709228,27925900,26715056,27993008,3256,3800,-332,6969,-2709,-2265,1012,-1989,91,191,833
642075,26709684,27926768,26715524,27993476,3162,3800,-1130,4485,-3756,-3054,979,-3727,91,191,833
643076,26710224,27927628,26715992,27993944,2606,3800,-1665,1676,-4452,-3435,-26,-2681,105,174,833
644077,26710728,27928452,26716460,27994412,2816,3800,-2382,-542,-4887,-3621,156,-833,105,174,833
645078,26711188,27929208,26716928,27994880,3096,3800,-3185,-2194,-5181,-4519,1273,693,105,162,832
646079,26711752,27929904,26717396,27995348,2405,3800,-3838,-3636,-5512,-4705,2392,1594,105,162,832
647080,26712240,27930576,26717864,27995816,2872,3800,-4350,-5029,-5842,-5831,3219,2925,96,135,834
648081,26712772,27931116,26718332,27996284,2570,3800,-3602,-8719,-5552,-17176,3621,6205,96,135,834
649082,26713300,27931588,26718800,27996752,2569,3800,95,-14936,-4362,-22441,2046,31776,112,106,834
650083,26713900,27931976,26719268,27997220,2062,3800,2325,-17159,-3578,-7769,2203,14022,112,106,834
651084,26714448,27932344,26719736,27997688,2353,3800,1924,-16173,-3310,-5665,2820,8899,101,75,831
652085,26714976,27932680,26720204,27998156,2453,3800,863,-14869,-3267,-6026,2243,8586,101,75,831
653086,26715572,27932932,26720672,27998624,1973,3800,172,-13772,-3206,-4256,2716,8857,90,66,832
654087,26716080,27933132,26721140,27999092,2506,3800,-140,-12574,-2987,-2949,2532,9198,90,66,832
655088,26716576,27933316,26721608,27999560,2570,3800,-385,-11281,-2741,-2235,1733,8488,103,39,829
656096,26717172,27933440,26722080,28000032,1891,3800,-637,-10728,-2480,-1945,1150,6724,103,39,829
657090,26717744,27933576,26722548,28000500,1997,3800,-797,-10179,-2226,-807,1153,6650,108,32,830
658091,26718272,27933704,26723016,28000968,2246,3800,-912,-10108,-2041,557,1329,4511,108,32,830
659092,26718908,27933796,26723484,28001436,1498,3800,-840,-10469,-1874,954,1432,3404,122,21,831
660093,26719484,27933868,26723952,28001904,1827,3800,-681,-11039,-1603,982,729,2895,122,21,831
661094,26720004,27933928,26724420,28002372,2155,3800,-429,-11597,-1247,1647,-69,2614,110,27,829
662095,26720580,27933956,26724888,28002840,1759,3800,-241,-11797,-802,1892,-495,3721,110,27,829
663096,26721128,27933980,26725356,28003308,1899,3800,-16,-11829,-340,1673,-639,3384,119,4,830
664097,26721580,27934012,26725824,28003776,2507,3800,258,-12149,19,1884,-1053,2618,119,4,830
665098,26722116,27934044,26726292,28004244,1953,3800,644,-12466,258,1898,-1293,2445,107,21,829
666099,26722560,27934080,26726760,28004712,2539,3800,1049,-12726,436,1376,-1807,2574,107,21,829
667100,26723084,27934128,26727228,28005180,2016,3800,1405,-12662,588,460,-2698,3334,108,15,827
668101,26723524,27934188,26727696,28005648,2553,3800,1730,-12376,793,-319,-3226,3955,108,15,827
669102,26723972,27934268,26728164,28006116,2513,3800,1968,-11621,1045,18,-3112,5387,81,13,827
670103,26724404,27934368,26728632,28006584,2630,3800,2233,-10280,1305,-216,-2946,6348,81,13,827
671104,26724800,27934476,26729100,28007052,2887,3800,2421,-8951,1535,-902,-2577,6367,83,23,827
672105,26725260,27934604,26729568,28007520,2492,3800,2735,-7658,1677,-928,-1917,5893,83,23,827
673106,26725692,27934784,26730036,28007988,2682,3800,3003,-6527,1786,-587,-1325,5792,78,38,827
674107,26726080,27935000,26730504,28008456,2994,3800,3289,-5269,1884,-220,-1124,5603,78,38,827
675108,26726556,27935216,26730972,28008924,2441,3800,3571,-4398,1934,-17,-900,4250,84,39,827
676109,26726972,27935440,26731440,28009392,2840,3800,3891,-3803,1907,574,-602,3521,84,39,827
677110,26727380,27935660,26731908,28009860,2917,3800,4245,-3345,1839,1667,-416,2680,92,44,826
678111,26727856,27935892,26732376,28010328,2490,3800,4548,-2933,1853,2739,-821,2618,92,44,826
679112,26728280,27936120,26732844,28010796,2835,3800,4688,-2162,2092,3069,-1947,3652,91,59,827
680113,26728692,27936400,26733312,28011264,2935,3800,4792,-1493,2321,2810,-1531,2531,91,59,827
681114,26729184,27936660,26733780,28011732,2425,3800,4785,-481,2428,3102,-2062,4066,92,54,829
682115,26729636,27936916,26734248,28012200,2683,3800,4385,1731,2763,4332,-3111,8320,92,54,829
683116,26730096,27937172,26734716,28012668,2638,3800,3912,4031,3050,4312,-1619,6357,95,49,827
684117,26730616,27937400,26735184,28013136,2241,3800,3824,5387,2930,3315,-192,3157,95,49,827
685118,26731136,27937628,26735652,28013604,2219,3800,4108,5914,2521,3020,693,1511,109,56,829
686119,26731620,27937912,26736120,28014072,2438,3800,4312,6070,1978,3586,732,1122,109,56,829
687120,26732184,27938188,26736588,28014540,1897,3800,4366,6590,1571,4070,-433,1855,105,50,830
688121,26732744,27938420,26737056,28015008,1881,3800,4342,7206,1304,4193,-761,1269,105,50,830
689122,26733204,27938640,26737524,28015476,2511,3800,4319,7668,1002,4544,-1160,664,115,58,830
690123,26733748,27938848,26737992,28015944,1954,3800,4273,7970,683,4729,-1395,392,115,58,830
691131,26734312,27939100,26738464,28016416,1789,3800,4322,8021,327,4933,-1943,-780,92,60,832
692125,26734796,27939376,26738932,28016884,2283,3800,4357,7699,-89,4717,-2472,-1699,92,60,832
693126,26735308,27939644,26739400,28017352,2089,3800,4399,7257,-507,4339,-2886,-1742,119,55,832
694127,26735884,27939888,26739868,28017820,1642,3800,4294,6900,-939,4736,-2642,-1316,119,55,832
695128,26736388,27940136,26740336,28018288,2077,3800,4148,6732,-1395,5017,-2034,-1199,87,59,831
696129,26736936,27940432,26740804,28018756,1768,3800,3925,6609,-1822,5037,-1565,-969,87,59,831
697130,26737444,27940764,26741272,28019224,2001,3800,3705,6523,-2258,4952,-788,-898,113,71,832
698131,26737996,27941088,26741740,28019692,1690,3800,3441,6505,-2669,4761,-459,-414,113,71,832
699132,26738528,27941400,26742208,28020160,1788,3800,3153,6777,-3002,4660,-293,125,100,66,831
700133,26739156,27941732,26742676,28020628,1118,3800,2837,7127,-3269,4516,-70,312,100,66,831
701134,26739704,27942148,26743144,28021096,1583,3800,2478,7692,-3465,4213,169,1018,106,88,834
702135,26740240,27942596,26743612,28021564,1629,3800,2061,8419,-3594,3966,588,1332,106,88,834
703136,26740892,27942992,26744080,28022032,824,3800,1639,9161,-3720,3588,1033,1137,101,88,836
704137,26741448,27943396,26744548,28022500,1386,3800,1239,9910,-3844,3098,1303,1325,101,88,836
705138,26741960,27943880,26745016,28022968,1642,3800,870,10612,-3943,2620,1442,1197,109,88,835
706140,26742568,27944332,26745484,28023436,981,3800,519,11266,-4019,2319,1678,1019,109,88,835
707141,26743068,27944784,26745952,28023904,1643,3800,210,11811,-4061,1927,1891,642,109,100,836
708141,26743620,27945316,26746420,28024372,1281,3800,-21,12183,-4098,1652,2045,16,109,100,836
709142,26744228,27945812,26746888,28024840,870,3800,-240,12350,-4176,1412,2059,-339,98,105,837
710143,26744772,27946252,26747356,28025308,1237,3800,-466,12404,-4265,1225,1704,-466,98,105,837
711145,26745380,27946812,26747824,28025776,777,3800,-660,12324,-4351,1105,1203,-956,117,107,837
712145,26745924,27947252,26748292,28026244,1143,3800,-816,11973,-4457,846,913,-1603,117,107,837
713146,26746464,27947804,26748760,28026712,1137,3800,-956,11534,-4594,845,556,-1706,95,94,837
714148,26747072,27948356,26749228,28027180,651,3800,-1108,11000,-4769,797,141,-2132,95,94,837
715148,26747548,27948792,26749696,28027648,1473,3800,-1226,10296,-5015,403,316,-2843,101,112,838
716149,26748196,27949344,26750164,28028116,319,3800,-1291,9542,-5324,142,153,-2781,101,112,838
717150,26748660,27949880,26750632,28028584,1472,3800,-1328,8774,-5639,-279,-209,-2893,101,96,839
718151,26749172,27950504,26751100,28029052,1153,3800,-1392,8099,-5958,-466,-393,-2509,101,96,839
719153,26749684,27951108,26751568,28029520,1133,3800,-1547,7659,-6331,-633,-174,-1822,90,107,839
720154,26750160,27951648,26752036,28029988,1356,3800,-1779,7442,-6766,-1148,581,-1135,90,107,839
721154,26750592,27952280,26752504,28030456,1647,3800,-1997,7483,-7322,-1869,1376,-639,104,109,837
722156,26751032,27952896,26752972,28030924,1609,3800,-2134,7562,-7928,-2620,1204,-577,104,109,837
723157,26751512,27953500,26753440,28031392,1355,3800,-2206,7642,-8497,-3072,1505,-589,98,111,838
724157,26751920,27954176,26753908,28031860,1831,3800,-2279,7602,-9010,-3331,1174,-680,98,111,838
725158,26752452,27954740,26754376,28032328,1028,3800,-2331,7374,-9422,-3522,337,-1288,106,129,836
726168,26752928,27955392,26754848,28032800,1377,3800,-2372,6911,-9717,-3560,333,-1793,106,129,836
727160,26753356,27955916,26755316,28033268,1695,3800,-2428,6287,-9961,-3410,798,-2257,80,123,837
728161,26753868,27956476,26755784,28033736,1151,3800,-2551,5647,-10131,-3126,532,-2045,80,123,837
729162,26754340,27957112,26756252,28034204,1400,3800,-2667,4794,-10133,-2600,-336,-2673,92,122,837
730163,26754668,27957580,26756720,28034672,2361,3800,-2794,3790,-9942,-2015,-1362,-2832,92,122,837
731164,26755104,27958128,26757188,28035140,1701,3800,-2918,2671,-9605,-1957,-739,-3177,105,110,837
732165,26755548,27958604,26757656,28035608,1662,3800,-3071,1556,-9193,-2047,-836,-2925,105,110,837
733166,26755948,27959148,26758124,28036076,1967,3800,-3252,541,-8677,-2555,-1096,-2649,87,113,833
734167,26756356,27959700,26758592,28036544,1944,3800,-3498,-498,-8048,-2672,-844,-2570,87,113,833
735168,26756760,27960144,26759060,28037012,1997,3800,-3797,-1559,-7397,-2326,-508,-2610,76,98,835
736169,26757112,27960636,26759528,28037480,2374,3800,-4204,-2458,-6749,-2462,-416,-1702,76,98,835
737170,26757452,27961132,26759996,28037948,2505,3800,-4700,-3100,-6084,-2745,-1118,-921,76,112,835
738171,26757828,27961560,26760464,28038416,2322,3800,-5226,-3779,-5405,-2773,-1903,-1024,76,112,835
739172,26758148,27962036,26760932,28038884,2737,3800,-5882,-4347,-4741,-2200,-2438,73,89,106,832
740173,26758472,27962536,26761400,28039352,2776,3800,-6764,-4560,-4090,-1811,-3124,1242,89,106,832
741174,26758812,27962972,26761868,28039820,2732,3800,-8510,-3745,-3345,-1537,-4733,5691,84,113,830
742175,26759128,27963424,26762336,28040288,2950,3800,-10248,-3012,-2650,-1267,-4221,3369,84,113,830
743176,26759472,27963856,26762804,28040756,2830,3800,-12566,-1413,-2055,369,-2162,9614,85,100,828
744177,26759848,27964256,26763272,28041224,2671,3800,-14734,-635,-1590,-1081,-3654,5299,85,100,828
745178,26760172,27964676,26763740,28041692,3060,3800,-15617,-3750,-1313,-3479,-5022,-3664,66,77,829
746180,26760508,27965112,26764208,28042160,3043,3800,-15309,-9522,-989,-4300,-7025,-5653,66,77,829
747180,26760848,27965484,26764676,28042628,3076,3800,-14869,-14696,-426,-2033,-8365,-1651,81,83,830
748181,26761188,27965908,26765144,28043096,3133,3800,-10411,-19250,-82,8181,-8571,20685,81,83,830
749182,26761520,27966356,26765612,28043564,3244,3800,3258,-17772,-1594,31892,-9605,32767,88,88,827
750183,26761860,27966756,26766080,28044032,3250,3800,9650,-1490,-2221,15207,-8728,32767,88,88,827
751184,26762244,27967272,26766548,28044500,3013,3800,6767,9503,-2152,3155,659,18270,65,96,828
752185,26762604,27967732,26767016,28044968,3211,3800,3709,9681,-2265,1392,-1142,174,65,96,828
753186,26762960,27968200,26767484,28045436,3287,3800,3292,4923,-2379,585,-1157,-2982,64,98,826
754187,26763348,27968720,26767952,28045904,3123,3800,4452,1072,-2229,687,-1617,-2841,64,98,826
755188,26763752,27969364,26768420,28046372,3052,3800,5258,-761,-2014,1434,-1965,-172,85,122,828
756189,26764148,27969792,26768888,28046840,3134,3800,5519,-1276,-1575,1207,-1838,1161,85,122,828
757190,26764568,27970316,26769356,28047308,3006,3800,5613,-1719,-1069,1093,-2284,807,75,109,829
758191,26764988,27970812,26769824,28047776,3028,3800,6043,-2882,-793,116,-2444,-1515,75,109,829
759192,26765412,27971420,26770292,28048244,3023,3800,6661,-4368,-574,-1342,-2693,-754,75,129,828
760193,26765864,27972252,26770760,28048712,2856,3800,7105,-5010,-242,-1384,-3974,1790,75,129,828
761201,26766320,27972776,26771232,28049184,2839,3800,7140,-4487,364,-1624,-5104,4541,95,130,830
762196,26766784,27973508,26771700,28049652,2792,3800,6889,-3013,1161,-2425,-5296,6922,95,130,830
763196,26767252,27974308,26772168,28050120,2768,3800,6582,-1464,1707,-3049,-4675,6098,105,140,832
764197,26767736,27975036,26772636,28050588,2662,3800,6365,-560,1860,-3498,-3573,4534,105,140,832
765198,26768196,27975904,26773104,28051056,2816,3800,6264,2,1746,-3748,-2503,3815,101,160,832
766199,26768704,27976760,26773572,28051524,2500,3800,6133,512,1439,-3848,-1619,3776,101,160,832
767200,26769192,27977612,26774040,28051992,2617,3800,5907,1179,1081,-3873,-845,4230,98,166,834
768201,26769632,27978600,26774508,28052460,2930,3800,5616,1975,788,-3024,108,4362,98,166,834
769202,26770168,27979480,26774976,28052928,2301,3800,5269,2818,519,-1942,2058,4266,111,168,836
770203,26770636,27980444,26775444,28053396,2726,3800,4934,3362,254,-1631,3408,3259,111,168,836
771204,26771092,27981348,26775912,28053864,2808,3800,4610,3434,-65,-1413,4185,1932,114,188,835
772205,26771584,27982288,26776380,28054332,2573,3800,4285,2983,-399,-640,3840,695,114,188,835
773206,26772096,27983332,26776848,28054800,2430,3800,4030,2433,-583,-17,3345,326,116,209,837
774207,26772600,27984308,26777316,28055268,2465,3800,3781,1674,-625,159,3179,-310,116,209,837
775208,26773076,27985268,26777784,28055736,2637,3800,3652,637,-666,158,3383,-1218,115,209,837
776209,26773568,27986176,26778252,28056204,2528,3800,3499,-370,-709,445,3075,-629,115,209,837
777210,26774064,27987116,26778720,28056672,2492,3800,3295,-1121,-839,602,2873,49,91,190,838
778212,26774532,27988036,26779188,28057140,2668,3800,2974,-1784,-1110,249,2659,347,91,190,838
779212,26775068,27989008,26779656,28057608,2214,3800,2521,-2302,-1480,-1,2298,1132,92,192,838
780213,26775568,27989900,26780124,28058076,2425,3800,1969,-2479,-1937,-37,2482,2176,92,192,838
781214,26776088,27990788,26780592,28058544,2278,3800,1286,-2435,-2463,90,2970,2882,96,176,837
782215,26776656,27991720,26781060,28059012,1935,3800,609,-2359,-3047,224,4042,2711,96,176,837
783216,26777168,27992620,26781528,28059480,2267,3800,-122,-2241,-3668,256,4819,3054,116,186,838
784217,26777712,27993548,26781996,28059948,2034,3800,-818,-2239,-4265,615,5245,2581,116,186,838
785218,26778272,27994436,26782464,28060416,1895,3800,-1322,-2532,-4743,1095,5115,1470,122,171,839
786219,26778796,27995232,26782932,28060884,2095,3800,-1678,-3224,-5042,1079,4176,767,122,171,839
787220,26779296,27996036,26783400,28061352,2232,3800,-1904,-3978,-5195,932,3243,700,100,176,837
788221,26779856,27996720,26783868,28061820,1818,3800,-2086,-4611,-5159,995,2017,1151,100,176,837
789222,26780356,27997360,26784336,28062288,2180,3800,-2166,-5108,-4948,955,1687,1464,108,143,837
790223,26780840,27998008,26784804,28062756,2273,3800,-2270,-5403,-4703,617,2258,2061,108,143,837
791224,26781348,27998532,26785272,28063224,2106,3800,-2375,-5571,-4533,412,2888,2401,106,115,837
792225,26781852,27998948,26785740,28063692,2116,3800,-2567,-5701,-4408,457,2374,2910,106,115,837
793226,26782328,27999280,26786208,28064160,2289,3800,-2745,-5581,-4266,-35,1839,3580,92,87,833
794227,26782752,27999660,26786676,28064628,2634,3800,-2856,-5392,-4089,-1055,925,3614,92,87,833
795228,26783324,27999940,26787144,28065096,1663,3800,-2897,-5055,-3979,-1875,-325,4437,104,59,832
796236,26783764,28000132,26787616,28065568,2503,3800,-2837,-4496,-3879,-2659,-1631,4656,104,59,832
797230,26784288,28000300,26788084,28066036,1955,3800,-2744,-4040,-3748,-3229,-2748,4639,109,58,828
798231,26784808,28000476,26788552,28066504,1957,3800,-2509,-3569,-3591,-3825,-3380,4458,109,58,828
799232,26785280,28000636,26789020,28066972,2256,3800,-2257,-3229,-3389,-4336,-3559,4695,85,30,828
800233,26785740,28000804,26789488,28067440,2336,3800,-1857,-2814,-3149,-4155,-3195,4481,85,30,828
801234,26786240,28000964,26789956,28067908,2073,3800,-1467,-2698,-2869,-3976,-2434,3846,82,28,830
802235,26786692,28001144,26790424,28068376,2380,3800,-965,-2633,-2579,-4072,-1689,3601,82,28,830
803236,26787056,28001348,26790892,28068844,2976,3800,-540,-2714,-2255,-4314,-1480,3528,91,32,830
804237,26787528,28001524,26791360,28069312,2300,3800,-93,-2874,-1797,-4053,-1775,3147,91,32,830
805238,26787900,28001740,26791828,28069780,2968,3800,314,-3245,-1177,-3646,-2062,2697,95,47,829
806239,26788276,28002020,26792296,28070248,2984,3800,698,-3763,-475,-3398,-2350,2384,95,47,829
807240,26788656,28002252,26792764,28070716,2999,3800,1052,-4327,236,-3105,-2853,2475,74,46,828
808241,26788976,28002464,26793232,28071184,3440,3800,1394,-4947,932,-2731,-3569,2317,74,46,828
809242,26789268,28002700,26793700,28071652,3693,3800,1730,-5478,1646,-2161,-3948,2744,76,43,825
810244,26789588,28002912,26794168,28072120,3583,3800,2086,-6175,2307,-912,-3517,1715,76,43,825
811244,26789892,28003124,26794636,28072588,3756,3800,2483,-7208,2874,999,-2896,1017,66,60,823
812258,26790152,28003388,26795104,28073056,3800,3800,2836,-8084,3385,2401,-2653,1887,66,60,823
813258,26790428,28003636,26795572,28073524,3800,3800,3068,-8449,3929,3159,-2952,3096,58,44,822
814260,26790680,28003872,26796040,28073992,3800,3800,3269,-8729,4461,3837,-2343,2814,58,44,822
815261,26790960,28004092,26796508,28074460,3800,3800,3199,-8469,4998,4768,-2563,5385,65,57,818
816262,26791268,28004292,26796976,28074928,3800,3800,2455,-6942,5640,5115,-4106,9046,65,57,818
817262,26791608,28004524,26797444,28075396,3800,3800,1692,-5397,6175,4904,-3724,6672,71,47,820
818264,26791948,28004792,26797912,28075864,3800,3800,1460,-4718,6423,5110,-1938,4903,71,47,820
819265,26792312,28005036,26798380,28076332,3800,3800,1717,-4416,6576,5005,-1405,4783,74,43,820
820253,26792772,28005272,26798848,28076800,3377,3800,2046,-3861,6790,5636,-801,5669,74,43,820
821267,26793156,28005500,26799316,28077268,3800,3800,2155,-2971,6836,5997,1289,5575,77,58,821
822268,26793552,28005736,26799784,28077736,3800,3800,2107,-2102,6614,5659,2846,5344,77,58,821
824270,26794316,28006256,26800720,28078672,3800,3800,1849,108,5620,4725,4820,7292,73,55,824
825271,26794672,28006492,26801188,28079140,3800,3800,1549,1890,4951,4692,4874,8117,67,46,822
826272,26795056,28006732,26801656,28079608,3800,3800,1344,3559,4651,5396,2969,6827,67,46,822
827273,26795444,28006992,26802124,28080076,3800,3800,1186,5329,4457,5352,3219,8044,79,61,820
828274,26795836,28007264,26802592,28080544,3800,3800,986,7819,4054,4540,4144,9928,79,61,820
829262,26796284,28007596,26803060,28081012,3770,3800,882,9918,3551,4394,3753,7108,76,69,820
830263,26796756,28007896,26803528,28081480,3619,3800,1057,11035,2912,4069,3538,4063,76,69,820
831271,26797312,28008184,26804000,28081952,3059,3800,1417,11679,2196,3201,3418,3394,84,67,821
832265,26797900,28008472,26804468,28082420,2808,3800,1712,12046,1382,3353,4485,2471,84,67,821
833266,26798432,28008768,26804936,28082888,3131,3800,1826,12554,622,3900,3906,2398,102,74,824
834268,26798956,28009148,26805404,28083356,3157,3800,1899,13186,190,3875,3232,2222,102,74,824
835269,26799600,28009496,26805872,28083824,2331,3800,1979,13825,-152,3996,3913,2112,113,76,828
836269,26800112,28009848,26806340,28084292,3137,3800,2127,14206,-654,3380,3935,1428,113,76,828
837270,26800680,28010184,26806808,28084760,2745,3800,2381,14316,-1223,3087,3256,361,122,86,827
838271,26801232,28010652,26807276,28085228,2810,3800,2613,14328,-1749,3361,1851,5,122,86,827
839272,26801884,28011108,26807744,28085696,2105,3800,2682,14301,-2218,2981,1270,119,109,85,828
840273,26802480,28011500,26808212,28086164,2399,3800,2483,14829,-2694,2463,685,1945,109,85,828
841274,26803120,28011972,26808680,28086632,2050,3800,2159,15508,-3153,2473,-102,1225,139,105,829
842276,26803832,28012440,26809148,28087100,1494,3800,1862,15798,-3578,2432,-260,-169,139,105,829
843276,26804484,28012880,26809616,28087568,1789,3800,1585,15760,-4002,2137,-631,-860,137,104,833
844277,26805164,28013476,26810084,28088036,1522,3800,1290,15290,-4497,1650,-756,-2155,137,104,833
845278,26805868,28013980,26810552,28088504,1269,3800,1005,14773,-5071,1348,-573,-2173,139,97,836
846279,26806492,28014476,26811020,28088972,1701,3800,682,14410,-5583,1060,-579,-1778,139,97,836
847280,26807120,28015008,26811488,28089440,1607,3800,162,14513,-5857,922,-1465,-130,136,112,836
848281,26807780,28015572,26811956,28089908,1324,3800,-463,15070,-5865,353,-1833,875,136,112,836
849282,26808396,28016152,26812424,28090376,1535,3800,-894,15386,-5977,-138,-522,-95,132,117,836
850284,26809012,28016816,26812892,28090844,1470,3800,-1137,15588,-6126,-46,-1263,230,132,117,836
851285,26809684,28017352,26813360,28091312,1031,3800,-1298,15654,-6180,-545,-1264,39,124,121,836
852285,26810312,28017972,26813828,28091780,1237,3800,-1459,15720,-6240,-1084,-934,210,124,121,836
853286,26810872,28018548,26814296,28092248,1621,3800,-1681,15721,-6403,-1652,-293,247,130,130,836
854287,26811620,28019144,26814764,28092716,324,3800,-1976,15766,-6676,-1692,545,677,130,130,836
855288,26812180,28019792,26815232,28093184,1460,3800,-2262,15685,-7028,-1911,1346,240,122,114,838
856289,26812764,28020312,26815700,28093652,1259,3800,-2438,15334,-7371,-2646,850,-503,122,114,838
857290,26813384,28020920,26816168,28094120,968,3800,-2524,14756,-7630,-3192,671,-860,114,119,841
858291,26813940,28021424,26816636,28094588,1329,3800,-2586,14093,-7814,-3639,1142,-1031,114,119,841
859292,26814460,28021964,26817104,28095056,1532,3800,-2598,13371,-7934,-4227,1127,-1319,104,120,838
860293,26814948,28022476,26817572,28095524,1724,3800,-2561,12541,-8002,-4530,-16,-1413,104,120,838
861294,26815512,28023004,26818040,28095992,1207,3800,-2528,11884,-7933,-4586,-1771,-494,106,114,836
862295,26816016,28023468,26818508,28096460,1567,3800,-2520,11282,-7695,-4789,-1433,-463,106,114,836
863296,26816488,28023984,26818976,28096928,1766,3800,-2546,10728,-7348,-4965,-2255,-192,86,113,834
864297,26817040,28024512,26819444,28097396,1229,3800,-2529,9543,-6801,-8752,-3034,-1262,86,113,834
865298,26817432,28025100,26819912,28097864,2263,3800,-2292,5511,-6050,-14481,-3482,-5677,90,104,836
866308,26817964,28025680,26820384,28098336,1362,3800,-2028,-430,-5340,-16461,-4094,-5995,90,104,836
867301,26818464,28026288,26820852,28098804,1549,3800,-1874,-6754,-4651,-18152,-4501,-5362,85,108,838
868301,26819032,28026820,26821320,28099272,1080,3800,-1856,-12088,-4021,-17345,-4651,-3194,85,108,838
869302,26819572,28027388,26821788,28099740,1224,3800,-1971,-15513,-3554,-15680,-3974,513,115,126,838
870303,26820036,28027968,26822256,28100208,1701,3800,-2176,-16798,-3228,-14121,-2780,4433,115,126,838
871304,26820424,28028472,26822724,28100676,2211,3800,-2337,-16777,-3043,-12195,-1781,5937,103,130,838
872305,26820932,28029128,26823192,28101144,1445,3800,-2459,-15881,-3069,-9869,-93,7579,103,130,838
873306,26821396,28029744,26823660,28101612,1721,3800,-2543,-13850,-3261,-7067,1009,9181,109,130,836
874307,26821836,28030392,26824128,28102080,1885,3800,-2578,-11295,-3436,-5553,1320,9120,109,130,836
875308,26822252,28031088,26824596,28102548,2058,3800,-2541,-9966,-3458,-4589,1541,6054,103,135,837
876309,26822648,28031732,26825064,28103016,2215,3800,-2477,-9722,-3290,-2134,1432,4518,103,135,837
877310,26823008,28032468,26825532,28103484,2488,3800,-2428,-10877,-2461,1784,-95,990,92,126,836
878311,26823336,28033212,26826000,28103952,2750,3800,-2484,-12573,-1960,2888,-1779,-874,92,126,836
879312,26823696,28033872,26826468,28104420,2598,3800,-2545,-14723,-1327,4190,-3895,-1430,81,136,835
880313,26824024,28034628,26826936,28104888,2860,3800,-2556,-16831,-580,5845,-5957,-1512,81,136,835
881314,26824352,28035288,26827404,28105356,2922,3800,-2533,-18915,175,7065,-7764,-1738,71,142,832
882315,26824704,28035960,26827872,28105824,2824,3800,-2426,-21241,877,7470,-9575,-2001,71,142,832
883316,26825100,28036868,26828340,28106292,2580,3800,-2297,-23422,1455,8251,-10973,-832,86,129,831
884317,26825460,28037680,26828808,28106760,2854,3800,-2288,-24946,1863,9552,-11852,950,86,129,831
885318,26825824,28038512,26829276,28107228,2875,3800,-4223,-22877,2618,11662,-15210,15149,78,146,831
886319,26826228,28039412,26829744,28107696,2654,3800,-8073,-17065,4273,14814,-16147,24795,78,146,831
887320,26826608,28040268,26830212,28108164,2843,3800,-10105,-13360,5161,13400,-11784,13403,86,162,834
888321,26827000,28041068,26830680,28108632,2803,3800,-3672,-3055,3990,25295,-3837,32767,86,162,834
889322,26827448,28042072,26831148,28109100,2461,3800,4959,7562,2159,22088,-1834,16404,83,193,836
890323,26827852,28043064,26831616,28109568,2766,3800,8491,7661,1190,12174,-555,-5149,83,193,836
891324,26828256,28044116,26832084,28110036,2795,3800,7536,2418,913,12345,2854,-3285,94,212,836
892325,26828724,28045148,26832552,28110504,2395,3800,6098,-2239,695,12930,3819,-4481,94,212,836
893326,26829124,28046204,26833020,28110972,2851,3800,4829,-3923,189,13692,5083,2076,96,223,836
894327,26829516,28047352,26833488,28111440,2935,3800,3888,-3861,-383,11453,4108,2179,96,223,836
895328,26829896,28048420,26833956,28111908,3050,3800,3614,-4436,-763,10251,1213,46,80,225,838
896329,26830324,28049468,26834424,28112376,2767,3800,3793,-5441,-825,9095,-1200,687,80,225,838
897330,26830704,28050540,26834892,28112844,3107,3800,3868,-5433,-524,7217,-2003,5556,92,221,834
898331,26831092,28051572,26835360,28113312,3093,3800,3392,-3222,-308,5897,-2063,11773,92,221,834
899333,26831476,28052612,26835828,28113780,3156,3800,2985,-1400,-633,3191,162,5880,78,231,838
900334,26831868,28053748,26836296,28114248,3140,3800,3283,-855,-1330,1527,1370,3860,78,231,838
901341,26832252,28054744,26836768,28114720,3229,3800,3839,-119,-2188,1806,687,5404,77,226,835
902335,26832696,28055744,26837236,28115188,2866,3800,4432,1308,-3107,1041,-293,5591,77,226,835
903336,26833072,28056640,26837704,28115656,3332,3800,5045,3059,-3844,-329,-2498,6055,79,207,834
904337,26833492,28057516,26838172,28116124,3079,3800,5669,4914,-4497,-993,-3019,6058,79,207,834
905338,26833924,28058388,26838640,28116592,3021,3800,6296,6669,-5068,-1538,-2543,5871,79,170,835
906339,26834364,28059116,26839108,28117060,2984,3800,6809,8599,-5546,-1233,-1730,6292,79,170,835
907340,26834752,28059788,26839576,28117528,3345,3800,7221,10560,-6025,-1254,-1153,6047,88,137,832
908341,26835192,28060360,26840044,28117996,3034,3800,7514,12644,-6494,-2258,-833,6642,88,137,832
909342,26835620,28060864,26840512,28118464,3127,3800,7588,15122,-6933,-2256,203,7562,97,127,831
910343,26836068,28061340,26840980,28118932,3012,3800,7430,17574,-7321,-1421,1326,7355,97,127,831
911344,26836540,28061748,26841448,28119400,2861,3800,7216,19381,-7661,-957,2723,5103,101,98,829
912345,26836988,28062088,26841916,28119868,3020,3800,7019,20260,-8058,-754,4102,2750,101,98,829
913346,26837444,28062428,26842384,28120336,2976,3800,6903,20297,-8486,-756,5346,819,104,70,828
914347,26837880,28062692,26842852,28120804,3116,3800,6831,19863,-8901,-381,6647,-169,104,70,828
915348,26838404,28062912,26843320,28121272,2543,3800,6846,19001,-9140,289,7108,-1729,83,58,827
916349,26838856,28063132,26843788,28121740,3001,3800,6914,17583,-9111,893,7213,-3078,83,58,827
917350,26839304,28063292,26844256,28122208,3036,3800,6987,15801,-8791,1215,7246,-3841,94,53,824
918351,26839800,28063416,26844724,28122676,2724,3800,6945,13814,-8200,1329,7114,-4067,94,53,824
919352,26840280,28063488,26845192,28123144,2820,3800,6706,11952,-7406,1371,6476,-3504,96,30,824
920353,26840748,28063536,26845660,28123612,2896,3800,6276,10143,-6686,600,6762,-3457,96,30,824
921354,26841292,28063572,26846128,28124080,2389,3800,5885,7798,-6163,-1731,6574,-5270,98,14,826
922355,26841812,28063580,26846596,28124548,2517,3800,5608,4037,-5757,-5034,5604,-7303,98,14,826
923356,26842320,28063588,26847064,28125016,2575,3800,5289,-574,-5402,-6398,3890,-7130,101,10,825
924357,26842864,28063608,26847532,28125484,2318,3800,4715,-4701,-5030,-6263,1813,-5656,101,10,825
925358,26843364,28063624,26848000,28125952,2580,3800,3979,-6982,-4551,-5311,-124,-2406,102,15,826
926359,26843868,28063624,26848468,28126420,2539,3800,3153,-7277,-3933,-5070,-1585,587,102,15,826
927360,26844396,28063652,26848936,28126888,2364,3800,2345,-6850,-3411,-4623,-2152,567,89,19,827
928361,26844928,28063692,26849404,28127356,2311,3800,1644,-6876,-3004,-4970,-2469,-209,89,19,827
929362,26845388,28063712,26849872,28127824,2766,3800,1057,-7479,-2677,-5482,-2686,-528,101,16,825
930363,26845968,28063740,26850340,28128292,1968,3800,517,-8252,-2423,-5591,-2841,-485,101,16,825
931364,26846424,28063784,26850808,28128760,2749,3800,11,-8699,-2114,-5644,-2791,258,84,12,827
932365,26846896,28063840,26851276,28129228,2648,3800,-652,-8699,-1738,-5410,-2654,1468,84,12,827
933366,26847448,28063900,26851744,28129696,2111,3800,-1283,-8707,-1352,-5413,-2578,770,96,17,829
934367,26847892,28063992,26852212,28130164,2798,3800,-1839,-9182,-919,-5137,-2476,-274,96,17,829
935368,26848376,28064104,26852680,28130632,2542,3800,-2248,-10001,-466,-4142,-2277,-1139,92,33,825
936376,26848840,28064236,26853152,28131104,2671,3800,-2543,-11189,10,-3326,-1833,-1933,92,33,825
937370,26849372,28064384,26853620,28131572,2219,3800,-2709,-12490,471,-2601,-1464,-1838,97,28,826
938371,26849844,28064564,26854088,28132040,2593,3800,-2886,-13560,880,-1590,-962,-1193,97,28,826
939372,26850300,28064732,26854556,28132508,2699,3800,-3091,-14578,1250,-802,-672,-1114,101,40,826
940373,26850808,28065000,26855024,28132976,2357,3800,-3170,-15374,1596,-301,-449,-481,101,40,826
941374,26851260,28065260,26855492,28133444,2715,3800,-3209,-15963,1944,10,-471,733,103,54,827
942375,26851704,28065508,26855960,28133912,2777,3800,-3244,-16151,2334,465,-708,1905,103,54,827
943376,26852192,28065772,26856428,28134380,2493,3800,-3276,-15941,2761,757,-709,2965,86,50,829
944377,26852568,28066092,26856896,28134848,3234,3800,-3212,-15670,3062,774,-71,2757,86,50,829
945378,26853000,28066384,26857364,28135316,2901,3800,-3080,-15473,3182,1324,614,2904,90,57,827
946379,26853452,28066720,26857832,28135784,2784,3800,-2994,-15077,3277,2018,612,4005,90,57,827
947380,26853872,28067000,26858300,28136252,3006,3800,-2976,-14284,3395,2712,588,4947,81,74,826
948381,26854260,28067312,26858768,28136720,3243,3800,-2910,-13411,3473,3332,980,4713,81,74,826
949382,26854664,28067700,26859236,28137188,3171,3800,-2767,-12508,3481,3770,1168,5195,76,77,828
950383,26855052,28068044,26859704,28137656,3307,3800,-2560,-11552,3422,4072,1146,5202,76,77,828
951384,26855432,28068352,26860172,28138124,3397,3800,-2296,-10661,3275,4460,1168,4921,74,70,824
952385,26855812,28068604,26860640,28138592,3436,3800,-1966,-9742,3097,4790,1066,4921,74,70,824
953386,26856184,28068940,26861108,28139060,3529,3800,-1591,-8732,3027,5113,661,5278,94,79,824
954387,26856556,28069288,26861576,28139528,3573,3800,-1215,-7681,3026,5242,223,5472,94,79,824
955388,26856984,28069584,26862044,28139996,3241,3800,-799,-6511,3043,5310,234,5537,69,63,824
956389,26857364,28069824,26862512,28140464,3581,3800,-355,-5254,3069,5303,233,5603,69,63,824
957390,26857764,28070068,26862980,28140932,3487,3800,61,-4016,3063,5558,259,5463,77,55,823
958391,26858168,28070368,26863448,28141400,3491,3800,395,-2647,3119,5538,-667,6050,77,55,823
959392,26858628,28070656,26863916,28141868,3145,3800,599,-922,3292,4900,-1662,7195,77,53,823
960393,26859080,28070928,26864384,28142336,3203,3800,503,1332,3265,4833,-301,9513,77,53,823
961394,26859468,28071176,26864852,28142804,3640,3800,270,4070,3356,5453,-1102,10329,86,48,822
962395,26859940,28071448,26865320,28143272,3114,3800,307,6142,3346,5801,1512,6852,86,48,822
963396,26860408,28071768,26865788,28143740,3140,3800,560,7789,3079,5876,2274,6956,100,53,824
964397,26860808,28072076,26866256,28144208,3596,3800,741,9271,2729,6653,2784,7161,100,53,824
965399,26861308,28072428,26866724,28144676,2958,3800,825,10626,2297,6406,3300,5792,95,69,826
966399,26861772,28072728,26867192,28145144,3185,3800,1038,11301,1745,6018,3547,3148,95,69,826
967401,26862256,28073148,26867660,28145612,3054,3800,1288,11403,1023,6267,4236,2450,110,71,824
968401,26862776,28073548,26868128,28146080,2807,3800,1401,11599,322,6428,3435,3011,110,71,824
969402,26863212,28073936,26868596,28146548,3348,3800,1453,12001,-160,6005,1688,2932,85,72,826
970403,26863736,28074296,26869064,28147016,2774,3800,1492,12337,-546,5585,1076,2891,85,72,826
971411,26864244,28074816,26869536,28147488,2859,3800,1551,12845,-927,4883,825,3201,86,90,829
972405,26864664,28075276,26870004,28147956,3431,3800,1589,13236,-1265,4276,-49,2734,86,90,829
973406,26865200,28075696,26870472,28148424,2677,3800,1616,13357,-1677,3808,-863,1991,105,94,828
974407,26865752,28076208,26870940,28148892,2541,3800,1548,13441,-2090,3208,-1612,2154,105,94,828
975408,26866248,28076724,26871408,28149360,2880,3800,1410,13521,-2471,3062,-2640,2032,107,105,827
976409,26866744,28077264,26871876,28149828,2869,3800,1137,13613,-2884,2856,-3317,2203,107,105,827
977410,26867344,28077836,26872344,28150296,2162,3800,854,13755,-3306,2152,-3060,1998,120,114,832
978411,26867928,28078336,26872812,28150764,2212,3800,581,13673,-3701,2063,-3270,1259,120,114,832
979412,26868456,28078928,26873280,28151232,2536,3800,279,13455,-4008,2282,-3185,1259,115,112,830
980413,26869072,28079548,26873748,28151700,1922,3800,-20,13473,-4155,2191,-2750,1843,115,112,830
981414,26869684,28080136,26874216,28152168,1885,3800,-498,13796,-3977,2415,-4061,2569,110,119,834
982415,26870288,28080864,26874684,28152636,1876,3800,-980,13846,-3663,1868,-3985,802,110,119,834
983416,26870788,28081592,26875152,28153104,2513,3800,-1148,13284,-3691,736,-2193,-881,133,124,835
984417,26871532,28082464,26875620,28153572,867,3800,-1172,12579,-4047,415,-2072,-290,133,124,835
985418,26872188,28083220,26876088,28154040,1335,3800,-1321,12221,-4402,401,-2377,1013,127,145,836
986419,26872820,28084032,26876556,28154508,1414,3800,-1547,12446,-4571,-139,-2844,2016,127,145,836
987420,26873416,28084952,26877024,28154976,1584,3800,-1716,12812,-4632,-647,-3875,1788,109,151,841
988421,26874056,28085692,26877492,28155444,1233,3800,-1792,13165,-4667,-1041,-3809,1936,109,151,841
989422,26874704,28086544,26877960,28155912,1105,3800,-1786,13530,-4746,-1522,-2486,1968,132,164,839
990424,26875412,28087268,26878428,28156380,626,3800,-1727,13881,-4852,-1824,-2064,1648,132,164,839
991424,26876080,28087968,26878896,28156848,788,3800,-1709,14200,-4919,-2277,-1842,1818,122,143,839
992425,26876788,28088696,26879364,28157316,434,3800,-1676,14548,-4964,-2767,-1486,1646,122,143,839
993426,26877412,28089440,26879832,28157784,890,3800,-1583,14800,-5070,-3303,-1082,1333,124,142,842
994427,26878036,28090244,26880300,28158252,822,3800,-1462,14891,-5349,-4154,-254,910,124,142,842
995428,26878576,28091004,26880768,28158720,1316,3800,-1402,14946,-5747,-4430,252,996,108,150,841
996429,26879284,28091836,26881236,28159188,160,3800,-1363,14816,-6190,-4286,587,256,108,150,841
997430,26879780,28092664,26881704,28159656,1474,3800,-1350,14333,-6595,-4017,1321,-349,115,172,842
998431,26880304,28093576,26882172,28160124,1274,3800,-1334,13622,-6917,-3787,1766,-971,115,172,842
999432,26880888,28094356,26882640,28160592,849,3800,-1256,12719,-7081,-3940,1446,-1179,99,183,844
1000433,26881376,28095152,26883108,28161060,1441,3800,-1172,12057,-7081,-4507,912,-132,99,183,844
1001434,26881848,28095972,26883576,28161528,1539,3800,-1164,11712,-7030,-5211,618,727,100,154,840
1002435,26882304,28096812,26884044,28161996,1645,3800,-1165,11377,-7041,-5541,196,700,100,154,840
1003436,26882740,28097616,26884512,28162464,1784,3800,-1145,10938,-7059,-5504,-1277,740,93,165,840
1004437,26883260,28098552,26884980,28162932,1236,3800,-1067,10216,-6998,-5757,-1914,53,93,165,840
1005438,26883668,28099412,26885448,28163400,1964,3800,-969,9080,-6896,-6430,-1474,-842,105,169,839
1006448,26884108,28100392,26885920,28163872,1778,3800,-835,7690,-6682,-7046,-1124,-1210,105,169,839
1007440,26884620,28101144,26886388,28164340,1308,3800,-678,6084,-6281,-7498,-1598,-1479,89,172,839
1008441,26885120,28102000,26886856,28164808,1370,3800,-541,3937,-5723,-8407,-3087,-2064,89,172,839
1009442,26885580,28103044,26887324,28165276,1624,3800,-439,1518,-4999,-9658,-4090,-1765,111,159,838
1010443,26885940,28104012,26887792,28165744,2296,3800,-183,-1975,-3433,-14332,-3234,-2558,111,159,838
1011444,26886364,28105028,26888260,28166212,1917,3800,177,-5526,-1169,-14481,-2951,-555,96,192,841
1012445,26886856,28105968,26888728,28166680,1481,3800,144,-8014,199,-8364,-4881,-476,96,192,841
1013446,26887228,28106952,26889196,28167148,2273,3800,-141,-10372,764,-6438,-5360,-1223,105,208,838
1014447,26887604,28107828,26889664,28167616,2290,3800,-472,-12421,1424,-5742,-5262,445,105,208,838
1015448,26887984,28109032,26890132,28168084,2303,3800,-830,-14570,2292,-4150,-5543,24,97,228,842
1016449,26888300,28110188,26890600,28168552,2770,3800,-1274,-16312,3137,-2186,-5227,1288,97,228,842
1017450,26888616,28111236,26891068,28169020,2838,3800,-1807,-17677,3809,-821,-4684,1676,87,215,838
1018451,26888920,28112244,26891536,28169488,2985,3800,-2344,-18684,4340,641,-4693,2269,87,215,838
1019452,26889184,28113168,26892004,28169956,3326,3800,-2885,-19378,4755,1618,-4629,2681,67,214,836
1020453,26889444,28114164,26892472,28170424,3442,3800,-3317,-19879,5164,2396,-4975,2998,67,214,836
1021454,26889740,28115036,26892940,28170892,3294,3800,-3722,-20209,5518,3219,-5139,3627,68,178,833
1022455,26890008,28115824,26893408,28171360,3558,3800,-4570,-19635,5868,4507,-5886,7977,68,178,833
1023456,26890284,28116572,26893876,28171828,3592,3800,-6418,-17012,6531,5642,-9210,14526,72,175,830
1024470,26890536,28117284,26894344,28172296,3800,3800,-8208,-14237,7178,6954,-6906,11671,72,175,830
1025458,26890848,28118080,26894812,28172764,3532,3800,-8938,-12746,7333,7180,-5735,8941,74,152,828
1026459,26891132,28118716,26895280,28173232,3788,3800,-4177,-6540,6763,16593,-7591,32767,74,152,828
1027473,26891416,28119256,26895748,28173700,3800,3800,5593,9125,4871,26848,-7174,32767,68,129,824
1028461,26891756,28119752,26896216,28174168,3577,3800,10982,15643,3488,9100,-6231,11676,68,129,824
1029462,26892088,28120224,26896684,28174636,3688,3800,10855,12677,2790,5996,-3735,-3345,77,104,823
1030463,26892496,28120644,26897152,28175104,3241,3800,9448,6698,2119,5477,-3239,-6425,77,104,823
1031464,26892944,28121088,26897620,28175572,3000,3800,8707,2379,1235,4940,-3577,-4459,91,89,825
1032465,26893372,28121440,26898088,28176040,3144,3800,8646,33,391,4042,-2964,-3618,91,89,825
1033466,26893832,28121772,26898556,28176508,2947,3800,8536,-2073,-492,3696,-1544,-4213,84,81,826
1034468,26894320,28122088,26899024,28176976,2765,3800,8154,-4079,-1557,2062,-932,-2716,84,81,826
1035468,26894780,28122400,26899492,28177444,2944,3800,7654,-5696,-2690,-40,-107,-780,111,81,827
1036469,26895248,28122720,26899960,28177912,2895,3800,6616,-5962,-3845,-398,1129,3847,111,81,827
1037470,26895716,28123040,26900428,28178380,2896,3800,5102,-4860,-4793,-1151,1343,7125,98,67,828
1038471,26896176,28123308,26900896,28178848,2951,3800,3595,-3282,-5571,-2649,1620,7833,98,67,828
1039472,26896584,28123636,26901364,28179316,3303,3800,2357,-1835,-6309,-3697,899,7758,84,67,826
1040473,26897028,28123956,26901832,28179784,3090,3800,1588,-1107,-6913,-4586,445,5787,84,67,826
1041481,26897452,28124288,26902304,28180256,3237,3800,1182,-706,-7446,-4817,752,5390,94,77,828
1042475,26897884,28124628,26902772,28180724,3204,3800,832,-256,-7890,-4961,79,5444,94,77,828
1043476,26898336,28124980,26903240,28181192,3086,3800,584,33,-8178,-5264,586,4616,93,76,826
1044477,26898788,28125324,26903708,28181660,3094,3800,388,1,-8326,-4945,670,3678,93,76,826
1045478,26899224,28125700,26904176,28182128,3209,3800,250,-314,-8314,-4358,445,3101,99,81,824
1046479,26899652,28126016,26904644,28182596,3277,3800,188,-765,-8071,-4054,421,2902,99,81,824
1047480,26900156,28126448,26905112,28183064,2787,3800,89,-1255,-7615,-3361,699,3207,84,78,827
1048481,26900628,28126820,26905580,28183532,2987,3800,-118,-1648,-6963,-2519,1454,3555,84,78,827
1049482,26901084,28127184,26906048,28184000,3093,3800,-346,-1889,-6146,-1867,2301,3806,88,81,826
1050483,26901640,28127524,26906516,28184468,2430,3800,-527,-2479,-5224,-1664,2704,2717,88,81,826
1051484,26902116,28127896,26906984,28184936,2928,3800,-432,-4051,-4403,-1743,2906,1933,103,81,826
1052485,26902592,28128296,26907452,28185404,2925,3800,1143,-6424,-3989,1605,4482,14429,103,81,826
1053486,26903088,28128648,26907920,28185872,2789,3800,2627,-7871,-3639,1545,4764,9502,104,77,831
1054487,26903596,28129092,26908388,28186340,2697,3800,2775,-8234,-3062,672,4658,3892,104,77,831
1055488,26904068,28129560,26908856,28186808,2922,3800,2127,-7927,-2355,980,4645,5666,84,87,828
1056489,26904532,28130040,26909324,28187276,2974,3800,1566,-7304,-1663,925,4629,5908,84,87,828
1057490,26905040,28130504,26909792,28187744,2683,3800,1242,-6959,-1101,1508,4320,5639,105,105,829
1058491,26905512,28131144,26910260,28188212,2906,3800,1122,-6491,-734,1802,3615,5983,105,105,829
1059492,26905984,28131760,26910728,28188680,2905,3800,1028,-6147,-526,1444,3001,5928,89,123,830
1060493,26906500,28132468,26911196,28189148,2610,3800,940,-5740,-600,1560,3190,5596,89,123,830
1061494,26907016,28133164,26911664,28189616,2590,3800,925,-5500,-926,1504,4004,4695,106,130,829
1062495,26907568,28133904,26912132,28190084,2329,3800,909,-5150,-1407,1422,4106,5679,106,130,829
1063496,26908064,28134720,26912600,28190552,2668,3800,791,-4521,-2015,1884,3338,6013,95,130,833
1064497,26908624,28135492,26913068,28191020,2228,3800,752,-4175,-2615,2061,1551,4571,95,130,833
1065498,26909116,28136328,26913536,28191488,2644,3800,848,-4095,-3279,2372,587,3884,118,147,835
1066499,26909676,28137160,26914004,28191956,2178,3800,1128,-4384,-4080,2531,-264,2362,118,147,835
1067500,26910200,28138088,26914472,28192424,2380,3800,1458,-5031,-4939,2436,-1108,1631,98,158,837
1068501,26910716,28139000,26914940,28192892,2410,3800,1914,-5652,-5799,2489,-1573,1203,98,158,837
1069502,26911276,28140008,26915408,28193360,2095,3800,2316,-6364,-6573,2514,-2185,948,111,172,836
1070503,26911756,28141012,26915876,28193828,2591,3800,2742,-6792,-7222,2189,-2519,1368,111,172,836
1071504,26912292,28141980,26916344,28194296,2211,3800,3168,-7496,-7807,1967,-1822,350,112,186,835
1072505,26912852,28142952,26916812,28194764,2022,3800,3693,-8192,-8391,2203,-1100,261,112,186,835
1073506,26913368,28143972,26917280,28195232,2277,3800,4173,-8847,-8894,2148,-521,205,98,187,834
1074507,26913856,28145112,26917748,28195700,2444,3800,4578,-9145,-9237,2308,-479,1453,98,187,834
1075508,26914432,28146120,26918216,28196168,1846,3800,4812,-8781,-9334,2386,-222,3268,110,204,839
1076516,26915000,28147188,26918688,28196640,1855,3800,4962,-7950,-9336,1809,499,4115,110,204,839
1077510,26915504,28148256,26919156,28197108,2240,3800,5161,-7020,-9405,789,369,3436,125,195,838
1078511,26916132,28149280,26919624,28197576,1396,3800,5468,-6342,-9542,-308,144,2666,125,195,838
1079512,26916688,28150296,26920092,28198044,1807,3800,5812,-5690,-9672,-968,51,2729,108,215,840
1080513,26917244,28151284,26920560,28198512,1770,3800,6096,-4759,-9640,-1073,-966,3416,108,215,840
1081514,26917804,28152300,26921028,28198980,1705,3800,6208,-3354,-9401,-932,-1554,4278,117,202,842
1082515,26918324,28153344,26921496,28199448,1932,3800,6231,-1735,-9062,-1107,-1683,4170,117,202,842
1083516,26918812,28154296,26921964,28199916,2125,3800,6329,-334,-8735,-1726,-1880,2959,110,202,839
1084517,26919364,28155208,26922432,28200384,1688,3800,6470,688,-8414,-2020,-2380,1992,110,202,839
1085518,26919832,28156392,26922900,28200852,2214,3800,6626,1648,-7995,-1933,-3129,1716,104,208,841
1086519,26920280,28157476,26923368,28201320,2349,3800,6670,2715,-7403,-1675,-3845,1879,104,208,841
1087520,26920744,28158660,26923836,28201788,2250,3800,6700,3763,-6785,-1376,-3694,1080,107,212,841
1088521,26921208,28159716,26924304,28202256,2253,3800,6795,4545,-6252,-832,-3453,-68,107,212,841
1089522,26921648,28160728,26924772,28202724,2415,3800,6899,4988,-5822,-238,-3465,-1065,117,221,839
1090523,26922072,28161756,26925240,28203192,2536,3800,6961,5256,-5489,45,-3448,-1620,117,221,839
1091524,26922612,28162876,26925708,28203660,1779,3800,6865,5402,-5260,-101,-3718,-1959,101,218,838
1092525,26923068,28163820,26926176,28204128,2310,3800,6644,5525,-5242,-119,-3285,-2536,101,218,838
1093526,26923580,28164760,26926644,28204596,1942,3800,6149,5410,-5510,266,-1971,-3021,127,205,835
1094527,26924112,28165868,26927112,28205064,1789,3800,5561,5101,-6042,477,-327,-3854,127,205,835
1095528,26924644,28166860,26927580,28205532,1762,3800,4797,4473,-6763,407,1650,-4161,118,217,836
1096529,26925140,28168092,26928048,28206000,1974,3800,4092,3871,-7439,515,1478,-3900,118,217,836
1097530,26925676,28169196,26928516,28206468,1696,3800,3329,3311,-7813,764,258,-3311,118,201,840
1098532,26926160,28170288,26928984,28206936,2014,3800,2527,2823,-7995,1347,467,-3704,118,201,840
1099532,26926616,28171428,26929452,28207404,2195,3800,1787,2002,-8071,2014,944,-4543,100,228,840
1100533,26927124,28172508,26929920,28207872,1853,3800,1264,1020,-7973,2704,569,-4572,100,228,840
1101534,26927616,28173736,26930388,28208340,1943,3800,818,-13,-7667,3239,394,-4324,115,236,841
1102535,26928032,28174784,26930856,28208808,2442,3800,513,-748,-7119,3414,302,-3122,115,236,841
1103536,26928496,28176012,26931324,28209276,2143,3800,106,-1111,-6449,3891,1204,-1976,94,242,842
1104537,26928928,28177228,26931792,28209744,2360,3800,-392,-1184,-5805,4329,2791,-1459,94,242,842
1105538,26929332,28178364,26932260,28210212,2563,3800,-1284,-460,-5198,5204,4858,1841,100,223,839
1106539,26929768,28179528,26932728,28210680,2378,3800,-2880,1339,-4617,5505,4814,4825,100,223,839
1107540,26930160,28180720,26933196,28211148,2687,3800,-4047,2084,-4065,4517,4534,-858,92,223,840
1108541,26930564,28181792,26933664,28211616,2641,3800,-4826,1630,-3694,4860,6360,-1486,92,223,840
1109542,26930968,28182816,26934132,28212084,2670,3800,-5236,855,-3458,5350,7137,-2570,97,225,839
1110543,26931336,28183856,26934600,28212552,2939,3800,-5801,189,-3224,5363,6487,-1405,97,225,839
1111551,26931816,28184912,26935072,28213024,2236,3800,-6702,310,-2824,5669,4313,539,88,231,837
1112545,26932300,28186036,26935540,28213492,2204,3800,-7524,446,-2384,5982,3975,-487,88,231,837
1113546,26932764,28187088,26936008,28213960,2332,3800,-8219,432,-1973,6209,2933,-157,105,220,836
1114547,26933236,28188104,26936476,28214428,2281,3800,-8595,-273,-1669,6118,1278,-2408,105,220,836
1115548,26933760,28189032,26936944,28214896,1932,3800,-8878,-1145,-1474,6160,133,-1700,96,214,839
1116549,26934328,28189956,26937412,28215364,1614,3800,-9329,-1693,-1366,6180,-1081,-638,96,214,839
1117550,26934688,28190736,26937880,28215832,2961,3800,-9741,-2028,-1398,6016,-1132,-1367,115,178,837
1118551,26935244,28191440,26938348,28216300,1699,3800,-9921,-2533,-1623,5063,-1109,-2171,115,178,837
1119552,26935800,28191948,26938816,28216768,1661,3800,-9999,-2956,-2071,4925,-2526,-649,104,133,837
1120553,26936328,28192356,26939284,28217236,1810,3800,-10078,-2347,-2589,4450,-4307,2242,104,133,837
1121554,26936932,28192648,26939752,28217704,1276,3800,-10087,-1355,-3141,2333,-5051,2263,114,76,835
1122555,26937576,28192856,26940220,28218172,948,3800,-10116,-175,-3858,1138,-5785,3539,114,76,835
1123556,26938072,28193000,26940688,28218640,1862,3800,-10050,1131,-4716,850,-3865,3615,106,56,832
1124557,26938492,28193112,26941156,28219108,2358,3800,-9917,2390,-5717,752,-1965,3194,106,56,832
1125558,26939000,28193152,26941624,28219576,1792,3800,-9928,3580,-6864,842,-1771,3928,110,34,834
1126559,26939612,28193164,26942092,28220044,1078,3800,-9943,4528,-7947,722,-1085,3691,110,34,834
1127560,26940124,28193188,26942560,28220512,1685,3800,-9899,4917,-9120,941,768,1460,101,11,827
1128561,26940724,28193208,26943028,28220980,1077,3800,-9702,4216,-10314,1485,1238,-1403,101,11,827
1129562,26941220,28193264,26943496,28221448,1716,3800,-9567,3239,-11024,2272,-457,-578,94,18,832
1130563,26941672,28193320,26943964,28221916,1998,3800,-9557,2290,-11149,2872,-1344,-630,94,18,832
1131564,26942220,28193400,26944432,28222384,1364,3800,-9534,1023,-10888,3424,-1651,-1543,96,24,832
1132565,26942824,28193496,26944900,28222852,954,3800,-9421,-366,-10414,4265,-2104,-1315,96,24,832
1133566,26943260,28193632,26945368,28223320,2018,3800,-9329,-1798,-9751,4356,-3869,-813,77,21,829
1134567,26943612,28193780,26945836,28223788,2595,3800,-9731,-2564,-8629,3675,-9007,1830,77,21,829
1135568,26944232,28193976,26946304,28224256,853,3800,-10487,-2803,-7310,2928,-9911,2234,95,26,833
1136569,26944652,28194156,26946772,28224724,2125,3800,-11205,-3347,-6286,2974,-7867,1658,95,26,833
1137570,26945072,28194420,26947240,28225192,2146,3800,-11930,-3945,-5576,2872,-6761,2353,94,49,826
1138571,26945552,28194708,26947708,28225660,1766,3800,-11621,-3560,-4866,1529,-7402,5889,94,49,826
1139572,26945948,28195036,26948176,28226128,2324,3800,-3047,13617,-2220,-6765,-19982,32767,70,59,829
1140573,26946292,28195400,26948644,28226596,2703,3800,7565,30685,426,642,-10666,32767,70,59,829
1141574,26946708,28195700,26949112,28227064,2277,3800,10583,31131,1294,6800,475,-6426,88,81,831
1142575,26947116,28196076,26949580,28227532,2353,3800,9131,24162,1364,5879,-247,-8060,88,81,831
1143576,26947496,28196520,26950048,28228000,2568,3800,6580,17293,1492,5080,-3765,-6634,70,90,829
1144577,26947908,28196912,26950516,28228468,2393,3800,5012,14449,2144,4119,-5525,-2408,70,90,829
1145578,26948268,28197412,26950984,28228936,2766,3800,4009,12954,3251,4504,-4854,-2413,78,97,831
1146589,26948656,28197896,26951456,28229408,2628,3800,3536,10558,4155,5521,-4014,-6079,78,97,831
1147580,26949024,28198352,26951924,28229876,2798,3800,3188,7193,4478,4056,-2336,-4372,71,102,831
1148581,26949368,28198884,26952392,28230344,3002,3800,2766,4694,4181,2315,-339,-1905,71,102,831
1149582,26949732,28199404,26952860,28230812,2924,3800,2314,2560,3339,1761,389,-2358,85,99,829
1150583,26950112,28199900,26953328,28231280,2863,3800,2007,796,2428,965,-1302,-762,85,99,829
1151584,26950444,28200552,26953796,28231748,3224,3800,1769,-76,1710,-297,-2435,1904,84,118,826
1152585,26950752,28201072,26954264,28232216,3445,3800,1611,-394,905,-1317,-2830,3264,84,118,826
1153586,26951020,28201648,26954732,28232684,3783,3800,1411,-321,-29,-2677,-3489,5143,76,111,829
1154600,26951280,28202244,26955200,28233152,3800,3800,1165,415,-1061,-3374,-3756,7449,76,111,829
1155588,26951584,28202784,26955668,28233620,3723,3800,918,1693,-2172,-3684,-3686,8034,67,114,826
1156589,26951904,28203448,26956136,28234088,3688,3800,822,3216,-3272,-4411,-2723,8441,67,114,826
1157590,26952244,28203976,26956604,28234556,3621,3800,975,4483,-4235,-4428,-1660,7637,65,124,824
1158591,26952576,28204612,26957072,28235024,3731,3800,1262,5522,-4905,-3798,-2303,7313,65,124,824
1159605,26952896,28205164,26957540,28235492,3800,3800,1626,6409,-5164,-3738,-3255,7062,71,110,824
1160593,26953244,28205752,26958008,28235960,3751,3800,2057,7077,-5118,-3506,-3874,5990,71,110,824
1161607,26953568,28206340,26958476,28236428,3800,3800,2517,7351,-4879,-2880,-4377,4942,85,105,823
1162608,26953880,28206900,26958944,28236896,3800,3800,2929,7548,-4513,-2351,-4554,4778,85,105,823
1163596,26954256,28207532,26959412,28237364,3751,3800,3331,7457,-4142,-2083,-4262,3265,85,104,824
1164610,26954600,28208132,26959880,28237832,3800,3800,3717,6770,-3745,-1950,-4282,1714,85,104,824
1165611,26954940,28208792,26960348,28238300,3800,3800,4122,5667,-3236,-1504,-4215,421,80,132,824
1166599,26955344,28209420,26960816,28238768,3718,3800,4516,4222,-2605,-867,-3822,-808,80,132,824
1167613,26955728,28210148,26961284,28239236,3800,3800,4906,2710,-1890,-729,-3549,-957,76,119,825
1168602,26956136,28210808,26961752,28239704,3758,3800,5244,1478,-1142,-654,-3376,-238,100,131,827
1169602,26956600,28211512,26962220,28240172,3411,3800,5554,448,-441,-367,-3260,16,100,131,827
1170603,26957040,28212252,26962688,28240640,3575,3800,5817,-148,182,-244,-3226,1277,103,155,826
1171604,26957472,28213188,26963156,28241108,3641,3800,6069,-383,704,-746,-3092,1970,103,155,826
1172605,26957964,28214064,26963624,28241576,3257,3800,6279,-286,1105,-1247,-2899,2963,96,165,829
1173606,26958432,28215040,26964092,28242044,3408,3800,6428,196,1377,-1669,-1980,3727,96,165,829
1174607,26958896,28215980,26964560,28242512,3436,3800,6493,997,1465,-1960,-795,4467,94,171,832
1175608,26959372,28216836,26965028,28242980,3358,3800,6471,2041,1387,-1959,150,4804,94,171,832
1176609,26959868,28217760,26965496,28243448,3222,3800,6369,3205,1176,-2261,1358,5150,103,170,831
1177610,26960352,28218752,26965964,28243916,3291,3800,6222,4436,754,-2396,2724,4993,103,170,831
1178611,26960812,28219740,26966432,28244384,3446,3800,5895,5466,-52,-2576,4308,4296,91,184,833
1179612,26961304,28220608,26966900,28244852,3237,3800,5524,6315,-1229,-2919,5356,3651,91,184,833
1180613,26961732,28221508,26967368,28245320,3655,3800,5116,7023,-2629,-3003,5695,3146,89,194,829
1181621,26962172,28222288,26967840,28245792,3595,3800,4695,7601,-4133,-2573,5773,2650,89,194,829
1182615,26962616,28223096,26968308,28246260,3582,3800,4128,8162,-5616,-1694,6345,2598,101,160,827
1183616,26963096,28223876,26968776,28246728,3353,3800,3388,8642,-6917,-509,6012,2346,101,160,827
1184617,26963528,28224600,26969244,28247196,3669,3800,2571,8614,-8145,486,6843,641,87,145,828
1185618,26964072,28225184,26969712,28247664,2937,3800,1870,7757,-9594,913,7854,-1917,87,145,828
1186619,26964572,28225864,26970180,28248132,3199,3800,1241,6381,-11239,1571,7803,-2866,116,126,828
1187620,26965084,28226468,26970648,28248600,3106,3800,509,4769,-12757,2222,7919,-3361,116,126,828
1188621,26965676,28227168,26971116,28249068,2552,3800,-250,3187,-13839,3011,7439,-3436,110,132,829
1189622,26966212,28227816,26971584,28249536,2873,3800,-1046,1736,-14357,3792,5531,-2888,110,132,829
1190623,26966764,28228516,26972052,28250004,2737,3800,-1699,141,-14607,3805,4903,-3947,121,129,833
1191624,26967384,28229088,26972520,28250472,2247,3800,-2313,-1836,-14801,3261,3949,-4839,121,129,833
1192625,26967972,28229768,26972988,28250940,2395,3800,-2977,-3789,-14983,2349,2909,-4196,107,128,832
1193626,26968544,28230384,26973456,28251408,2450,3800,-3776,-5258,-15087,1411,997,-2368,107,128,832
1194627,26969168,28231168,26973924,28251876,2058,3800,-4581,-5955,-15064,591,-218,-472,111,144,834
1195628,26969760,28231872,26974392,28252344,2204,3800,-5324,-6190,-14863,-76,-1428,680,111,144,834
1196629,26970352,28232476,26974860,28252812,2151,3800,-5979,-6045,-14460,-905,-2838,2148,125,129,835
1197630,26970908,28233180,26975328,28253280,2338,3800,-6466,-5811,-13964,-1825,-3026,2464,125,129,835
1198631,26971512,28234000,26975796,28253748,1979,3800,-6733,-5503,-13561,-2607,-2358,3153,122,144,835
1199632,26972132,28234836,26976264,28254216,1813,3800,-6901,-5080,-13195,-3279,-1861,3902,122,144,835
1200633,26972736,28235704,26976732,28254684,1854,3800,-6996,-4536,-12797,-3971,-1282,4632,120,172,837
1201634,26973376,28236552,26977200,28255152,1554,3800,-7070,-3758,-12353,-4643,-1258,5896,120,172,837
1202635,26974008,28237336,26977668,28255620,1533,3800,-7132,-2680,-11852,-4931,-1403,7056,110,192,838
1203636,26974596,28238320,26978136,28256088,1756,3800,-7116,-1504,-11262,-4717,-1263,7669,110,192,838
1204637,26975252,28239200,26978604,28256556,1249,3800,-6195,-440,-10640,-4019,-839,11941,115,200,840
1205638,26975876,28240284,26979072,28257024,1381,3800,-100,3239,-10290,941,1666,32767,115,200,840
1206639,26976472,28241284,26979540,28257492,1500,3800,8002,7189,-10387,3018,340,32767,119,225,842
1207640,26977124,28242356,26980008,28257960,1070,3800,10885,8297,-10060,-2897,813,8430,119,225,842
1208641,26977704,28243356,26980476,28258428,1472,3800,9874,7528,-9392,-2984,2068,4121,125,213,842
1209642,26978216,28244356,26980944,28258896,1877,3800,8211,6840,-8751,-2201,2418,4635,125,213,842
1210643,26978864,28245312,26981412,28259364,949,3800,6809,7028,-8137,-1977,2237,6236,135,201,842
1211644,26979472,28246400,26981880,28259832,1138,3800,5881,7267,-7683,-2053,2493,3678,135,201,842
1212645,26979984,28247384,26982348,28260300,1719,3800,5502,6063,-7550,-2435,3602,-662,122,213,843
1213646,26980588,28248324,26982816,28260768,1085,3800,5410,3943,-7553,-2260,3969,-1773,122,213,843
1214647,26981136,28249316,26983284,28261236,1399,3800,5223,1598,-7537,-1889,4143,-2337,110,207,840
1215648,26981676,28250328,26983752,28261704,1419,3800,4799,-718,-7365,-1551,3237,-2276,110,207,840
1216656,26982228,28251388,26984224,28262176,1309,3800,4193,-2608,-7007,-1411,1745,-1162,113,211,843
1217650,26982736,28252436,26984692,28262644,1567,3800,3671,-4340,-6576,-1701,1228,-1179,113,211,843
1218651,26983180,28253436,26985160,28263112,1978,3800,3150,-5819,-6126,-1823,557,217,122,228,842
1219652,26983604,28254416,26985628,28263580,2122,3800,2518,-6801,-5656,-1816,-172,1961,122,228,842
1220653,26984076,28255412,26986096,28264048,1821,3800,1783,-7509,-5177,-1517,-657,2042,91,217,839
1221654,26984508,28256452,26986564,28264516,2087,3800,1145,-8268,-4713,-963,-864,1479,91,217,839
1222655,26984928,28257320,26987032,28264984,2184,3800,606,-9490,-4368,-535,-263,458,84,173,839
1223656,26985348,28258172,26987500,28265452,2205,3800,178,-10535,-4185,-3,-250,1223,84,173,839
1224657,26985716,28258932,26987968,28265920,2574,3800,-253,-11590,-3977,-502,-982,1002,85,160,836
1225658,26986084,28259676,26988436,28266388,2619,3800,-640,-12044,-3616,-1721,-2012,3105,85,160,836
1226659,26986480,28260428,26988904,28266856,2476,3800,-1047,-11817,-3152,-2751,-2121,5046,67,134,833
1227661,26986796,28261152,26989372,28267324,3044,3800,-1451,-11200,-2731,-3127,-1578,5737,67,134,833
1228662,26987124,28261868,26989840,28267792,3030,3800,-1717,-10575,-2414,-3411,-562,5309,69,138,833
1229662,26987480,28262544,26990308,28268260,2905,3800,-1792,-10297,-2193,-3768,-325,4496,69,138,833
1230664,26987828,28263316,26990776,28268728,3008,3800,-1723,-10221,-2057,-4143,-472,4363,88,144,830
1231664,26988164,28264060,26991244,28269196,3142,3800,-1513,-10159,-1941,-4486,-458,4194,88,144,830
1232665,26988540,28264920,26991712,28269664,2932,3800,-1185,-10209,-1826,-4352,-265,3472,75,143,830
1233666,26988896,28265708,26992180,28270132,3108,3800,-834,-10373,-1698,-3884,-304,3212,75,143,830
1234668,26989268,28266520,26992648,28270600,3051,3800,-489,-10727,-1514,-3147,322,2755,79,171,832
1235669,26989696,28267432,26993116,28271068,2718,3800,-157,-11181,-1292,-2256,845,2209,79,171,832
1236669,26990120,28268284,26993584,28271536,2764,3800,210,-11850,-1005,-1838,1088,1344,73,169,832
1237670,26990472,28269220,26994052,28272004,3266,3800,537,-12768,-613,-1336,1030,1062,73,169,832
1238671,26990892,28270328,26994520,28272472,2862,3800,784,-13631,-197,-497,1484,1272,93,187,834
1239672,26991304,28271320,26994988,28272940,2937,3800,1017,-14450,185,104,1611,935,93,187,834
1240673,26991716,28272420,26995456,28273408,2963,3800,1250,-15223,444,1044,1760,1139,88,202,834
1241674,26992124,28273516,26995924,28273876,3014,3800,1384,-15623,530,2098,2111,2796,88,202,834
1242675,26992500,28274624,26996392,28274344,3256,3800,1433,-15717,692,3326,1551,3065,82,218,834
1243677,26992916,28275792,26996860,28274812,3030,3800,1516,-15789,822,4147,1775,2351,82,218,834
1244678,26993340,28276832,26997328,28275280,3000,3800,1671,-16000,810,4505,1675,2419,101,216,833
1245678,26993784,28277956,26997796,28275748,2886,3800,1800,-15760,786,4984,987,4179,101,216,833
1246680,26994208,28279136,26998264,28276216,3031,3800,1776,-14804,835,5636,-211,6106,82,206,833
1247680,26994588,28280204,26998732,28276684,3346,3800,1650,-13472,1199,6100,-3093,6777,82,206,833
1248681,26995052,28281256,26999200,28277152,2823,3800,1548,-11801,1452,5390,-2888,8132,103,200,833
1249682,26995520,28282292,26999668,28277620,2798,3800,1492,-9657,1665,4673,-4794,9208,103,200,833
1250683,26995912,28283324,27000136,28278088,3308,3800,1644,-7776,1883,4934,-4608,7454,95,196,835
1251692,26996408,28284336,27000608,28278560,2648,3800,1943,-5718,2028,4345,-5575,8951,95,196,835
1252685,26996980,28285304,27001076,28279028,2129,3800,2358,-3084,2034,3913,-5931,10182,103,206,834
1253686,26997368,28286184,27001544,28279496,3315,3800,2792,-510,1889,4561,-5607,9674,103,206,834
1254687,26998016,28287348,27002012,28279964,1611,3800,3263,2100,1730,4852,-5778,9892,114,203,839
1255688,26998656,28288324,27002480,28280432,1586,3800,3710,4908,1479,4686,-5448,10170,114,203,839
1256689,26999184,28289612,27002948,28280900,2261,3800,4136,7087,1082,5676,-5950,7780,120,223,842
1257690,26999816,28290676,27003416,28281368,1540,3800,4575,8644,619,7402,-5476,6428,120,223,842
1258691,27000416,28291732,27003884,28281836,1682,3800,5002,9855,102,8635,-3861,5112,132,214,839
1259692,27001008,28292772,27004352,28282304,1678,3800,5487,10493,-614,8790,-2386,2663,132,214,839
