"Data file recorded 2014/9/24  18:7:45"
"%  Right Stride Frequency         = 3.0"
"%  Left Stride Frequency         = 3.0"
"%  Phase (Fractional)         = 32768.0"
"%  Experiment.py "
"%  Motor Gains    = [1800, 200, 100, 0, 0, 1800, 200, 100, 0, 0]
"% Columns: "
"% time | Right Leg Pos | Left Leg Pos | Commanded Right Leg Pos | Commanded Left Leg Pos | DCR | DCL | GyroX | GryoY | GryoZ | AX | AY | AZ | RBEMF | LBEMF | VBatt "
11482,6528292,6819796,6510202,6870650,-3800,3800,-136,-704,307,795,-450,4015,-10,0,894
12476,6528296,6819804,6510399,6870847,-3800,3800,-140,-707,308,777,-463,3992,-10,0,894
13477,6528220,6819840,6510596,6871044,-3800,3800,-144,-705,304,797,-471,3947,-7,2,852
14478,6528044,6819892,6510793,6871241,-3800,3800,-139,-690,314,665,-407,4060,-7,2,852
15479,6527808,6819960,6510990,6871438,-3800,3800,-90,-579,323,914,-456,4887,-52,7,847
16480,6527520,6820020,6511187,6871635,-3800,3800,-61,-526,349,1141,-685,4833,-52,7,847
17468,6527172,6820116,6511384,6871832,-3553,3800,-90,-540,396,1141,-808,4110,-73,15,852
18469,6526784,6820248,6511581,6872029,-3049,3800,-132,-509,408,1791,-662,5084,-73,15,852
19470,6526368,6820352,6511778,6872226,-2607,3800,-166,-409,390,1796,-364,4509,-73,18,855
20471,6525936,6820480,6511975,6872423,-2234,3800,-214,-235,442,1479,-351,5146,-73,18,855
21472,6525508,6820636,6512172,6872620,-1987,3800,-292,-49,510,2437,-1500,4448,-87,19,860
22473,6525108,6820780,6512369,6872817,-1902,3800,-387,80,555,2627,113,4735,-87,19,860
23474,6524752,6820980,6512566,6873014,-1937,3800,-482,222,627,2620,-1008,4897,-76,18,863
24475,6524400,6821148,6512763,6873211,-1722,3800,-538,233,762,2255,-1303,4509,-76,18,863
25476,6524112,6821344,6512960,6873408,-1911,3800,-546,243,1002,1409,-955,5235,-65,27,862
26477,6523856,6821580,6513157,6873605,-1914,3800,-521,363,1127,2605,-1332,5552,-65,27,862
27477,6523624,6821792,6513354,6873802,-1878,3800,-448,579,1145,2441,-1330,7051,-53,39,864
28479,6523440,6822012,6513551,6873999,-2012,3800,-398,681,1238,1632,-2001,5900,-53,39,864
29480,6523264,6822208,6513748,6874196,-1900,3800,-350,669,1409,1652,-1779,5808,-23,37,864
30481,6523136,6822404,6513945,6874393,-2060,3800,-258,820,1602,1807,-1873,6886,-23,37,864
31481,6523024,6822596,6514142,6874590,-2026,3800,-188,937,1811,1313,-2525,5827,-25,40,863
32483,6522940,6822768,6514339,6874787,-2079,3800,-184,1135,2051,902,-2031,5771,-25,40,863
33484,6522816,6822972,6514536,6874984,-1689,3800,-189,1323,2294,819,-2404,5472,-20,34,862
34485,6522744,6823164,6514733,6875181,-1898,3800,-83,1563,2527,608,-2818,6437,-20,34,862
35486,6522652,6823332,6514930,6875378,-1647,3800,132,1519,2726,909,-2351,5572,-24,23,863
36487,6522584,6823520,6515127,6875575,-1683,3800,445,1121,2793,1839,-1801,4725,-24,23,863
37488,6522540,6823684,6515324,6875772,-1728,3800,810,550,2803,686,-529,4996,-1,23,862
38489,6522508,6823852,6515521,6875969,-1704,3800,1122,-218,2828,-681,-944,3279,-1,23,862
39490,6522464,6824036,6515718,6876166,-1524,3800,1448,-859,2800,-899,-681,4939,-14,26,863
40491,6522468,6824192,6515915,6876363,-1740,3800,1724,-1379,2652,-1131,-686,4308,-14,26,863
41492,6522444,6824388,6516112,6876560,-1469,3800,1852,-1841,2414,-1783,571,3496,6,25,864
42493,6522432,6824560,6516309,6876757,-1454,3800,1859,-2082,2080,-1525,901,4369,6,25,864
43494,6522444,6824740,6516506,6876954,-1524,3800,1797,-2125,1788,-2143,730,4653,10,34,864
44495,6522428,6824932,6516703,6877151,-1256,3800,1672,-2125,1604,-1736,385,4459,10,34,864
45496,6522428,6825128,6516900,6877348,-1271,3800,1611,-2041,1540,-1783,496,6386,8,20,864
46497,6522428,6825316,6517097,6877545,-1185,3800,1438,-2325,1329,347,1506,2958,8,20,864
47498,6522424,6825512,6517294,6877742,-1073,3800,1130,-2722,1111,625,2214,3553,-3,31,864
48499,6522424,6825720,6517491,6877939,-1012,3800,845,-2742,1003,1216,1749,5365,-3,31,864
49500,6522424,6825932,6517688,6878136,-927,3800,561,-2620,993,748,1425,3716,11,29,866
50501,6522416,6826148,6517885,6878333,-788,3800,375,-2607,1108,-550,1228,4403,11,29,866
51502,6522420,6826400,6518082,6878530,-779,3800,310,-2817,1219,-197,664,3640,8,42,867
52503,6522412,6826620,6518279,6878727,-615,3800,368,-3206,1297,-734,1363,3926,8,42,867
53504,6522420,6826856,6518476,6878924,-632,3800,388,-3777,1228,520,1604,2325,-8,48,868
54505,6522408,6827140,6518673,6879121,-416,3800,280,-4138,1034,868,2036,2820,-8,48,868
55506,6522412,6827420,6518870,6879318,-432,3800,57,-4076,845,373,2219,3551,-6,57,869
56507,6522412,6827768,6519067,6879515,-321,3800,-238,-3721,725,-199,3183,3403,-6,57,869
57508,6522424,6828064,6519264,6879712,-315,3800,-546,-3234,702,-492,2145,3416,-6,53,869
58509,6522404,6828388,6519461,6879909,-21,3800,-764,-2818,766,-286,694,3910,-6,53,869
59510,6522404,6828764,6519658,6880106,-59,3800,-855,-2524,844,121,564,3937,-2,62,870
60511,6522416,6829132,6519855,6880303,-54,3800,-881,-2606,868,200,1102,2553,-2,62,870
61512,6522420,6829524,6520052,6880500,81,3800,-883,-2926,934,-324,1269,2714,10,74,871
62513,6522428,6829964,6520249,6880697,138,3800,-887,-3292,953,782,919,2046,10,74,871
63514,6522424,6830384,6520446,6880894,301,3800,-893,-3499,927,632,1472,2787,7,70,872
64515,6522444,6830780,6520643,6881091,228,3800,-923,-3455,955,131,1922,2677,7,70,872
65516,6522464,6831152,6520840,6881288,306,3800,-1038,-3344,1014,568,894,1816,2,82,871
66517,6522488,6831668,6521037,6881485,357,3800,-1133,-3051,998,1083,273,2857,2,82,871
67518,6522500,6832156,6521234,6881682,512,3800,-1175,-2743,942,1104,587,2539,18,87,873
68519,6522528,6832716,6521431,6881879,486,3800,-1139,-2468,1001,96,1448,2717,18,87,873
69520,6522584,6833304,6521628,6882076,373,3800,-1065,-2393,1191,525,-868,1899,17,91,871
70520,6522624,6833916,6521825,6882273,542,3800,-916,-2411,1200,2145,2045,2092,17,91,871
71521,6522680,6834580,6522022,6882470,504,3800,-740,-2417,1256,1519,788,2364,21,125,874
72522,6522732,6835200,6522219,6882667,593,3800,-581,-2413,1336,1669,-2134,1673,21,125,874
73523,6522780,6836024,6522416,6882864,683,3800,-430,-2432,1339,2028,2598,2149,33,140,874
74524,6522872,6836740,6522613,6883061,454,3800,-461,-2647,1350,2499,-1645,-755,33,140,874
75525,6522940,6837552,6522810,6883258,660,3800,-509,-2626,1316,2830,-875,1987,16,152,874
76526,6523008,6838404,6523007,6883455,717,3800,-500,-2236,1303,2206,300,2538,16,152,874
77528,6523084,6839240,6523204,6883652,720,3800,-397,-1735,1333,1456,231,2851,25,150,875
78529,6523188,6840284,6523401,6883849,586,3800,-145,-1126,1478,733,855,4719,25,150,875
79530,6523296,6841224,6523598,6884046,600,3800,-113,-1004,1625,949,-539,34,22,168,875
80531,6523412,6842196,6523795,6884243,586,3800,-486,-1636,1509,3917,-5888,-5119,22,168,875
81531,6523552,6843268,6523992,6884440,461,3800,-582,-1690,1263,3335,-286,2925,42,177,876
82532,6523652,6844292,6524189,6884637,754,3800,-291,-953,1142,1913,1027,4603,42,177,876
83534,6523764,6845268,6524386,6884834,717,3800,99,30,1148,1713,1021,4628,43,182,877
84534,6523896,6846432,6524583,6885031,620,3800,-132,-114,1185,1676,-5585,-5971,43,182,877
85536,6524020,6847544,6524780,6885228,702,3800,-640,-732,1128,2331,-4604,-3791,47,193,877
86536,6524148,6848644,6524977,6885425,708,3800,-597,-356,1088,2103,-1890,4804,47,193,877
87537,6524280,6849664,6525174,6885622,711,3800,-541,115,866,3954,-3904,-1390,47,195,878
88538,6524420,6850728,6525371,6885819,686,3800,-808,146,373,5949,-2554,-4194,47,195,878
89540,6524556,6851936,6525568,6886016,739,3800,-1008,690,124,2396,-1852,2720,43,195,878
90541,6524700,6852996,6525765,6886213,713,3800,-1113,1440,89,1397,-3179,59,43,195,878
91542,6524848,6854056,6525962,6886410,709,3800,-1328,1870,-66,1793,-4286,-2390,52,196,877
92542,6524988,6855044,6526159,6886607,784,3800,-1510,2444,-394,2128,-1605,889,52,196,877
93550,6525176,6856052,6526586,6887034,589,3800,-1732,2742,-727,1505,-2403,-2745,52,185,878
94545,6525340,6857148,6526783,6887231,755,3800,-1722,2894,-852,-258,-2657,-502,52,185,878
95545,6525524,6858224,6526980,6887428,635,3800,-1429,3099,-750,-2137,-2434,1094,52,194,878
96546,6525696,6859316,6527177,6887625,721,3800,-1046,2921,-657,-1661,-927,-1458,52,194,878
97548,6525860,6860356,6527374,6887822,786,3800,-544,2582,-622,-1283,-232,980,36,216,879
98548,6526036,6861420,6527571,6888019,721,3800,43,2064,-482,-2908,-1131,899,36,216,879
99550,6526184,6862524,6527768,6888216,918,3800,340,1375,-546,-5148,489,489,53,194,879
100550,6526396,6863604,6527965,6888413,511,3800,319,867,-885,-6606,-569,2628,53,194,879
101552,6526576,6864680,6528162,6888610,719,3800,264,1140,-1411,-6610,-411,7554,39,182,877
102553,6526812,6865636,6528359,6888807,352,3800,304,1370,-1892,-6946,-718,6976,39,182,877
103553,6527028,6866756,6528556,6889004,469,3800,408,902,-2383,-3978,-1344,5929,45,185,877
104554,6527228,6867672,6528753,6889201,569,3800,520,29,-3120,572,-829,6360,45,185,877
105555,6527408,6868736,6528950,6889398,701,3800,590,-671,-3810,1991,-259,6474,57,174,878
106544,6527624,6869936,6529147,6889595,468,3193,695,-1320,-4195,2371,-31,4313,57,174,878
107557,6527764,6870964,6529344,6889792,968,3800,809,-1156,-4021,1442,2178,6877,55,192,878
108546,6527968,6872096,6529541,6889989,566,2849,892,59,-3500,1789,3065,8042,55,192,878
109547,6528172,6873196,6529738,6890186,563,2656,1089,1207,-3070,3371,682,7613,56,229,878
110548,6528320,6874320,6529935,6890383,934,2101,1134,1476,-2752,3326,-173,2765,56,229,878
111549,6528500,6875464,6530132,6890580,743,1563,1055,989,-2445,5077,-2426,1798,49,245,884
112550,6528708,6876696,6530329,6890777,563,561,1445,650,-2105,7374,-3622,8229,49,245,884
113551,6528876,6877832,6530526,6890974,826,751,1946,486,-1719,6882,-734,5518,58,249,885
114552,6528980,6878928,6530723,6891171,1267,609,2161,769,-1178,5285,3244,5349,58,249,885
115553,6529128,6879928,6530920,6891368,1014,858,2252,1416,-484,4647,2169,7155,50,198,889
116554,6529264,6880836,6531117,6891565,1116,1122,2508,2163,272,3549,-1195,9395,50,198,889
117555,6529448,6881728,6531314,6891762,823,919,2646,2575,963,3563,-233,6186,50,177,887
118556,6529640,6882500,6531511,6891959,775,1418,2230,2262,1467,4615,-97,241,50,177,887
119557,6529836,6883136,6531708,6892156,750,2077,1661,2209,1775,5823,-327,4500,51,140,887
120558,6529988,6883736,6531905,6892353,1046,2127,1095,2548,2039,4779,1734,4120,51,140,887
121559,6530164,6884296,6532102,6892550,905,2220,387,2675,2093,6060,-2871,903,52,105,884
122560,6530332,6884784,6532299,6892747,968,2543,-34,3385,1987,4709,-2925,9635,52,105,884
123561,6530524,6885212,6532496,6892944,821,2818,-312,4193,2220,1072,-2987,9319,30,92,880
124562,6530680,6885520,6532693,6893141,1064,3521,-602,3805,2694,-1983,-3624,4606,30,92,880
125575,6530832,6885772,6532890,6893338,1109,3800,-511,3119,3087,-4432,-4353,12636,23,48,876
126577,6530996,6886004,6533087,6893535,1049,3800,-131,2201,3099,-6513,-3412,12967,23,48,876
127577,6531136,6886228,6533284,6893732,1224,3800,33,352,2595,-3866,-4033,8548,28,42,867
128578,6531284,6886452,6533481,6893929,1197,3800,-136,-566,1679,-624,-762,12339,28,42,867
129579,6531440,6886632,6533678,6894126,1165,3800,-716,-415,714,-1868,3888,9375,40,37,866
130581,6531560,6886800,6533875,6894323,1425,3800,-1263,-138,-133,-3203,4062,9968,40,37,866
131582,6531688,6886992,6534072,6894520,1405,3800,-1346,-432,-730,-4140,2438,10284,34,35,866
132582,6531824,6887152,6534269,6894717,1382,3800,-970,-1555,-990,-4836,683,7654,34,35,866
133583,6531944,6887264,6534466,6894914,1517,3800,-150,-3542,-780,-5124,1459,7727,28,19,864
134585,6532084,6887420,6534663,6895111,1417,3800,696,-6121,-461,-1713,1321,4901,28,19,864
135586,6532216,6887536,6534860,6895308,1496,3800,1096,-7238,-325,2305,-219,9283,33,17,862
136586,6532360,6887668,6535057,6895505,1445,3800,1043,-6451,-423,3083,-212,10482,33,17,862
137587,6532508,6887788,6535254,6895702,1442,3800,620,-5202,-532,2741,-133,5970,20,31,863
138588,6532656,6887904,6535451,6895899,1464,3800,200,-4062,-438,2426,-156,8025,20,31,863
139589,6532804,6888052,6535648,6896096,1486,3800,-79,-3009,-168,3144,-420,9935,41,30,864
140590,6532928,6888200,6535845,6896293,1668,3800,-296,-2791,80,3157,-40,6121,41,30,864
141591,6533080,6888364,6536042,6896490,1514,3800,-295,-3413,198,3157,174,7086,24,27,864
142593,6533228,6888560,6536239,6896687,1562,3800,-196,-4183,250,2160,-861,6411,24,27,864
143593,6533364,6888748,6536436,6896884,1664,3800,-239,-4534,409,1439,-443,5854,23,38,864
144595,6533536,6888960,6536633,6897081,1450,3800,-392,-3978,606,2246,-139,8104,23,38,864
145595,6533692,6889188,6536830,6897278,1569,3800,-642,-3241,768,2191,-884,5478,23,50,863
146597,6533852,6889412,6537027,6897475,1561,3800,-866,-2660,911,1747,-1355,5441,23,50,863
147598,6534000,6889640,6537224,6897672,1658,3800,-964,-2196,1043,1574,-2109,6225,42,53,863
148598,6534160,6889916,6537421,6897869,1600,3800,-1015,-2084,1191,1008,-1414,4266,42,53,863
149599,6534316,6890192,6537618,6898066,1644,3800,-1084,-2241,1301,1402,-872,3568,42,51,863
150588,6534440,6890496,6537815,6898263,1876,3649,-1133,-2331,1348,1448,-214,4601,42,51,863
151601,6534588,6890756,6538012,6898460,1748,3800,-1175,-2322,1411,584,-176,3934,42,43,865
152590,6534724,6891056,6538209,6898657,1851,3604,-1243,-2322,1480,358,-554,3396,42,43,865
153591,6534896,6891360,6538406,6898854,1637,3533,-1353,-2352,1517,171,-2263,2753,36,46,864
154592,6535032,6891668,6538603,6899051,1890,3461,-1431,-2393,1650,-1486,-1755,3009,36,46,864
155593,6535188,6891980,6538800,6899248,1784,3386,-1441,-2444,1738,-946,-611,3349,27,63,866
156594,6535336,6892272,6538997,6899445,1855,3471,-1432,-2519,1664,-565,-952,2682,27,63,866
157595,6535476,6892548,6539194,6899642,1931,3538,-1374,-2574,1608,-1718,123,3113,42,51,866
158596,6535644,6892864,6539391,6899839,1770,3237,-1217,-2561,1642,-1639,-989,3513,42,51,866
159596,6535784,6893164,6539588,6900036,1970,3292,-907,-2486,1796,-2007,-632,4964,34,55,865
160597,6535924,6893432,6539785,6900233,1996,3463,-470,-2352,2069,-2793,413,5418,34,55,865
161599,6536072,6893684,6539982,6900430,1969,3540,38,-2243,2397,-3121,451,5539,21,46,867
162600,6536192,6893964,6540179,6900627,2179,3330,551,-2018,2857,-3610,564,6319,21,46,867
163601,6536328,6894236,6540376,6900824,2105,3349,736,-1879,3373,-2867,501,4196,28,47,864
164601,6536480,6894492,6540573,6901021,2026,3424,-93,-3511,2869,8339,-3210,-11608,28,47,864
165603,6536640,6894724,6540770,6901218,1993,3559,-918,-4401,1855,7671,-4269,2648,38,48,865
166603,6536796,6894972,6540967,6901415,2037,3438,-865,-3628,1800,-3905,-682,9128,38,48,865
167605,6536948,6895260,6541164,6901612,2083,3150,-412,-2366,2339,-4460,740,7322,32,54,864
168605,6537088,6895492,6541361,6901809,2183,3486,-333,-2284,2508,-134,862,162,32,54,864
169607,6537232,6895740,6541558,6902006,2183,3364,-677,-2868,2392,559,-2089,47,45,35,864
170608,6537380,6895972,6541755,6902203,2180,3450,-801,-2811,2506,-1691,-3229,5727,45,35,864
171609,6537536,6896232,6541952,6902400,2149,3248,-776,-2568,2571,-498,-1090,2559,43,41,864
172610,6537688,6896432,6542149,6902597,2195,3624,-808,-2639,2440,19,-354,705,43,41,864
173610,6537828,6896716,6542346,6902794,2296,3061,-798,-2610,2315,-715,-22,3812,23,46,865
174611,6537976,6897028,6542543,6902991,2267,2837,-768,-2450,2283,-1066,-46,2804,23,46,865
175613,6538104,6897316,6542740,6903188,2424,2948,-752,-2578,2347,-1459,199,1304,34,67,865
176621,6538244,6897588,6542970,6903418,2389,3031,-683,-2704,2410,-871,805,2179,34,67,865
177615,6538376,6897912,6543167,6903615,2469,2651,-558,-2831,2390,185,774,1883,30,70,867
178616,6538540,6898308,6543364,6903812,2284,2114,-388,-3004,2363,55,270,1551,30,70,867
179617,6538680,6898656,6543561,6904009,2460,2349,-185,-3249,2321,285,337,1270,21,72,867
180618,6538836,6898968,6543758,6904206,2379,2524,55,-3456,2335,-167,395,1786,21,72,867
181619,6538980,6899360,6543955,6904403,2479,1940,268,-3624,2320,395,455,1502,30,71,870
182620,6539160,6899744,6544152,6904600,2262,1908,399,-3790,2267,250,495,1128,30,71,870
183621,6539312,6900084,6544349,6904797,2458,2122,509,-3697,2252,-231,101,2552,44,75,871
184622,6539456,6900468,6544546,6904994,2532,1765,616,-3390,2256,130,-480,2769,44,75,871
185623,6539640,6900784,6544743,6905191,2289,2139,686,-3233,2224,840,-475,1631,28,71,872
186624,6539796,6901180,6544940,6905388,2483,1553,724,-3046,2143,1230,-108,2194,28,71,872
187625,6539956,6901528,6545137,6905585,2475,1787,777,-2700,2133,315,230,3120,31,71,873
188626,6540152,6901840,6545334,6905782,2252,1962,905,-2183,2178,8,1110,3689,31,71,873
189627,6540332,6902220,6545531,6905979,2360,1457,942,-1973,2197,680,462,1192,35,64,873
190628,6540536,6902572,6545728,6906176,2207,1565,902,-1828,2189,1175,-816,1354,35,64,873
191629,6540760,6902908,6545925,6906373,2071,1605,914,-1527,2176,1068,-500,2905,40,54,874
192630,6540948,6903188,6546122,6906570,2301,1919,978,-1095,2229,-163,425,2635,40,54,874
193631,6541156,6903500,6546319,6906767,2172,1669,943,-997,2294,457,421,281,35,73,876
194632,6541336,6903856,6546516,6906964,2356,1325,884,-834,2307,1913,-257,1957,35,73,876
195633,6541592,6904208,6546713,6907161,1856,1282,920,-353,2293,1318,-52,3341,40,64,875
196634,6541808,6904488,6546910,6907358,2099,1697,954,-1,2354,-340,646,1433,40,64,875
197635,6542008,6904784,6547107,6907555,2198,1553,896,208,2470,-709,387,1099,58,66,878
198636,6542260,6905112,6547304,6907752,1850,1297,795,628,2554,474,51,2911,58,66,878
199637,6542472,6905412,6547501,6907949,2095,1426,730,1230,2489,968,-73,2671,46,52,876
200638,6542680,6905708,6547698,6908146,2116,1409,699,1660,2402,5,-194,2135,46,52,876
201639,6542928,6905980,6547895,6908343,1844,1526,664,1994,2331,521,274,2211,56,52,878
202640,6543152,6906244,6548092,6908540,1983,1547,599,2221,2258,1188,162,1357,56,52,878
203641,6543364,6906568,6548289,6908737,2053,1117,614,2502,2260,183,192,1962,60,60,877
204642,6543604,6906884,6548486,6908934,1860,1115,774,2702,2268,170,780,1945,60,60,877
205643,6543832,6907164,6548683,6909131,1922,1304,954,2816,2215,1189,732,1495,46,61,877
206644,6544056,6907464,6548880,6909328,1936,1134,1070,3035,2156,1055,824,2196,46,61,877
207645,6544324,6907764,6549077,6909525,1631,1089,1086,3278,2159,510,710,1776,45,58,880
208646,6544536,6908108,6549274,6909722,1976,750,1034,3579,2167,869,210,1781,45,58,880
209647,6544768,6908400,6549471,6909919,1836,1033,973,3959,2153,501,163,2480,53,57,879
210648,6545028,6908700,6549668,6910116,1635,939,949,4550,2102,357,952,3554,53,57,879
211649,6545264,6908952,6549865,6910313,1767,1215,927,5091,2017,458,1350,2983,48,64,882
212650,6545480,6909264,6550062,6910510,1885,789,801,5417,1926,684,987,1847,48,64,882
213651,6545720,6909564,6550259,6910707,1717,819,632,5472,1947,-308,-3772,1235,44,53,881
214652,6545984,6909860,6550456,6910904,1539,801,774,5347,1851,1240,-4075,4620,44,53,881
215653,6546228,6910112,6550653,6911101,1644,1052,1096,4779,1617,863,-183,2816,38,48,881
216654,6546440,6910316,6550850,6911298,1838,1349,1171,3703,1431,186,-134,-54,38,48,881
217655,6546668,6910564,6551047,6911495,1726,1052,1157,3185,1284,846,1234,4195,49,40,883
218656,6546856,6910848,6551244,6911692,1980,788,1168,2704,1123,406,1145,3341,49,40,883
219657,6547072,6911080,6551441,6911889,1797,1098,1246,1918,1020,-733,-350,2544,36,37,879
220658,6547304,6911284,6551638,6912086,1683,1271,1314,1123,981,-760,-843,3893,36,37,879
221659,6547516,6911476,6551835,6912283,1802,1348,1241,715,948,-554,-1499,4744,31,40,881
222660,6547716,6911616,6552032,6912480,1877,1698,970,962,1051,-1125,-851,6948,31,40,881
223661,6547932,6911808,6552229,6912677,1770,1375,535,1363,955,747,1622,5516,29,44,879
224662,6548112,6911996,6552426,6912874,2002,1404,113,1548,766,-1159,732,5488,29,44,879
225663,6548304,6912180,6552623,6913071,1930,1435,-259,1444,620,-1964,-711,5617,36,40,877
226664,6548584,6912356,6552820,6913268,1345,1495,-623,1218,498,-477,-2589,6175,36,40,877
227665,6548804,6912548,6553017,6913465,1711,1397,-934,1253,417,-541,-3401,6909,43,23,878
228666,6549040,6912716,6553214,6913662,1595,1560,-1224,1430,287,-817,181,5290,43,23,878
229667,6549280,6912868,6553411,6913859,1551,1680,-1383,1153,135,-642,461,4629,54,25,881
230668,6549500,6912996,6553608,6914056,1667,1860,-1310,225,-89,486,-688,5098,54,25,881
231669,6549700,6913192,6553805,6914253,1791,1436,-1124,-830,-270,89,-2606,5304,39,31,879
232670,6549936,6913392,6554002,6914450,1550,1410,-1068,-1499,-353,-902,-111,4968,39,31,879
233671,6550204,6913604,6554199,6914647,1320,1329,-1170,-1958,-422,-606,1176,4202,57,37,878
234672,6550440,6913820,6554396,6914844,1503,1296,-1175,-2452,-501,-173,-1217,5716,57,37,878
235673,6550652,6914020,6554593,6915041,1647,1394,-996,-3271,-647,509,-1723,5492,40,42,879
236674,6550884,6914188,6554790,6915238,1508,1607,-837,-4277,-850,1027,-922,4555,40,42,879
237675,6551096,6914348,6554987,6915435,1627,1674,-853,-4849,-1040,1494,-1353,5555,56,29,881
238676,6551336,6914516,6555184,6915632,1434,1637,-1065,-4740,-1211,1921,-777,6322,56,29,881
239677,6551556,6914744,6555381,6915829,1549,1248,-1433,-4345,-1427,2263,-658,4717,41,48,879
240678,6551780,6914988,6555578,6916026,1514,1128,-1762,-3896,-1590,1739,-874,5507,41,48,879
241679,6551988,6915212,6555775,6916223,1609,1242,-1882,-3607,-1660,2070,-1512,5126,34,49,879
242680,6552208,6915420,6555972,6916420,1525,1337,-1899,-3610,-1723,2837,-410,4371,34,49,879
243681,6552428,6915628,6556169,6916617,1515,1332,-1853,-3632,-1776,2929,-712,4429,32,46,882
244682,6552628,6915820,6556366,6916814,1640,1434,-1760,-3583,-1812,2689,-1051,4835,32,46,882
245683,6552804,6916044,6556563,6917011,1799,1222,-1649,-3420,-1866,2710,-91,4696,47,48,880
246684,6552964,6916284,6556760,6917208,1917,1104,-1599,-3378,-1959,2991,189,3156,47,48,880
247685,6553084,6916528,6556957,6917405,2202,1059,-1584,-3472,-2156,4032,1229,3005,19,46,879
248685,6553264,6916736,6557154,6917602,1834,1279,-1610,-3415,-2374,4923,-695,3817,19,46,879
249687,6553424,6916908,6557351,6917799,1976,1515,-1650,-3118,-2477,4305,24,4687,43,32,880
250688,6553576,6917096,6557548,6917996,2047,1419,-1657,-2743,-2443,3669,1533,4666,43,32,880
251689,6553776,6917244,6557745,6918193,1747,1691,-1633,-2624,-2363,3220,-764,4085,26,23,880
252690,6553968,6917388,6557942,6918390,1799,1739,-1500,-2566,-2252,3239,-633,5127,26,23,880
253691,6554116,6917536,6558139,6918587,2096,1736,-1331,-2457,-2150,3763,331,4791,44,35,877
254692,6554244,6917720,6558336,6918784,2253,1517,-1247,-2385,-2040,3835,248,3968,44,35,877
255693,6554396,6917880,6558533,6918981,2124,1683,-1147,-2290,-1935,4715,902,4945,38,26,878
256694,6554528,6918064,6558730,6919178,2278,1539,-1004,-2178,-1916,6234,186,4970,38,26,878
257695,6554676,6918212,6558927,6919375,2200,1786,-834,-2029,-1893,6050,-2081,4899,38,25,875
258696,6554820,6918348,6559124,6919572,2249,1888,-703,-1810,-1726,4620,-3214,4749,38,25,875
259706,6554976,6918464,6559354,6919802,2207,2063,-497,-1404,-1531,4587,1322,7043,25,26,876
260698,6555160,6918580,6559551,6919999,2039,2099,-362,-977,-1288,3792,315,5453,25,26,876
261699,6555380,6918700,6559748,6920196,1805,2108,-483,-707,-817,2420,-4813,3581,29,19,874
262700,6555552,6918836,6559945,6920393,2116,2036,-596,-224,-455,3840,-2036,5829,29,19,874
263701,6555776,6918948,6560142,6920590,1780,2223,-522,535,-270,3516,-2028,6910,30,18,874
264702,6556004,6919072,6560339,6920787,1743,2180,-366,1253,-219,3804,-1914,5913,30,18,874
265703,6556240,6919192,6560536,6920984,1676,2240,-317,1716,-145,3148,-1330,4322,50,13,874
266704,6556480,6919292,6560733,6921181,1633,2408,-332,1805,57,2111,-2781,3276,50,13,874
267705,6556716,6919432,6560930,6921378,1642,2183,-204,1822,268,2353,-2896,4930,56,14,873
268706,6556968,6919560,6561127,6921575,1518,2289,98,2005,469,1806,-3241,6143,56,14,873
269707,6557224,6919696,6561324,6921772,1468,2266,326,2133,647,1182,-3285,4455,59,24,873
270708,6557452,6919796,6561521,6921969,1631,2534,347,1935,744,1100,-2486,2642,59,24,873
271709,6557720,6919940,6561718,6922166,1350,2283,240,1480,781,771,-2516,1826,42,17,875
272710,6557964,6920068,6561915,6922363,1481,2413,174,979,809,692,-2396,3062,42,17,875
273711,6558232,6920172,6562112,6922560,1300,2605,210,678,794,859,-2678,4050,51,23,873
274712,6558488,6920316,6562309,6922757,1350,2378,292,550,767,175,-2142,4823,51,23,873
275713,6558744,6920444,6562506,6922954,1325,2510,240,499,790,-457,-1291,4224,37,18,875
276714,6559012,6920568,6562703,6923151,1219,2567,46,776,796,-751,-18,4680,37,18,875
277715,6559316,6920684,6562900,6923348,948,2653,-189,892,797,-1185,807,3017,44,25,875
278716,6559588,6920840,6563097,6923545,1116,2421,-219,733,777,-1017,-611,3896,44,25,875
279717,6559856,6920976,6563294,6923742,1110,2574,-56,351,707,-577,-1308,4491,43,34,873
280718,6560140,6921108,6563491,6923939,972,2628,177,-258,537,-376,389,3318,43,34,873
281719,6560384,6921244,6563688,6924136,1202,2630,395,-992,338,-394,28,4115,57,20,876
282720,6560612,6921392,6563885,6924333,1289,2577,547,-1644,81,1021,299,3036,57,20,876
283721,6560900,6921552,6564082,6924530,875,2519,472,-2007,-180,2223,957,2473,40,36,875
284722,6561120,6921736,6564279,6924727,1291,2375,225,-1909,-283,1208,1337,2687,40,36,875
285723,6561360,6921948,6564476,6924924,1147,2194,-39,-1584,-281,1120,284,2664,54,31,875
286724,6561608,6922160,6564673,6925121,1075,2189,-305,-1130,-279,1856,1873,2718,54,31,875
287725,6561844,6922396,6564870,6925318,1133,2022,-581,-763,-174,1222,1608,1595,43,34,876
288726,6562076,6922616,6565067,6925515,1144,2112,-773,-603,91,367,-730,2418,43,34,876
289727,6562288,6922836,6565264,6925712,1263,2102,-655,-426,357,427,-653,4522,49,48,877
290728,6562536,6923048,6565461,6925909,1016,2147,-377,-756,466,674,-99,2475,49,48,877
291729,6562764,6923308,6565658,6926106,1128,1819,-150,-1475,630,-476,-677,1956,46,55,878
292730,6562952,6923540,6565855,6926303,1382,1980,13,-2204,712,1413,-576,2875,46,55,878
293731,6563152,6923784,6566052,6926500,1307,1884,140,-2678,546,2869,796,3586,33,41,879
294732,6563320,6924040,6566249,6926697,1520,1784,199,-2902,376,1241,227,3408,33,41,879
295733,6563492,6924356,6566446,6926894,1507,1357,173,-2838,196,1854,291,4046,27,61,879
296733,6563664,6924612,6566643,6927091,1518,1707,31,-2520,20,1820,49,4001,27,61,879
297735,6563856,6924868,6566840,6927288,1396,1681,-170,-2075,-25,570,269,3526,38,46,879
298736,6564004,6925132,6567037,6927485,1693,1603,-338,-1597,83,461,-67,3573,38,46,879
299737,6564180,6925364,6567234,6927682,1528,1787,-391,-954,214,1223,-120,4661,38,49,879
300738,6564324,6925624,6567431,6927879,1752,1585,-416,-481,223,2785,-326,3492,38,49,879
301739,6564484,6925844,6567628,6928076,1668,1825,-383,-326,159,2634,-217,3046,38,39,878
302740,6564632,6926108,6567825,6928273,1766,1522,-288,-330,153,1542,680,3602,38,39,878
303740,6564768,6926344,6568022,6928470,1868,1680,-161,-469,203,793,97,2488,21,56,879
304741,6564920,6926564,6568219,6928667,1788,1770,-54,-645,321,408,218,3471,21,56,879
305742,6565072,6926800,6568416,6928864,1809,1654,58,-797,566,441,-529,3554,38,54,879
306744,6565232,6927044,6568613,6929061,1775,1583,182,-861,916,945,-810,4023,38,54,879
307745,6565392,6927256,6568810,6929258,1793,1777,297,-795,1221,1917,-1342,3707,21,52,877
308746,6565544,6927464,6569007,6929455,1863,1797,339,-703,1380,2165,-437,3916,21,52,877
309747,6565696,6927680,6569204,6929652,1883,1739,315,-374,1434,2522,-487,4957,39,31,878
310748,6565856,6927860,6569401,6929849,1850,1973,272,233,1457,2834,-631,6146,39,31,878
311749,6566012,6928044,6569598,6930046,1894,1953,225,933,1464,2961,-996,6040,41,27,875
312750,6566200,6928192,6569795,6930243,1698,2200,167,1393,1508,2016,-1056,4945,41,27,875
313751,6566360,6928368,6569992,6930440,1891,2035,92,1413,1622,1228,-922,3208,26,36,875
314752,6566532,6928524,6570189,6930637,1828,2178,76,1266,1743,1667,-1833,3088,26,36,875
315753,6566716,6928688,6570386,6930834,1759,2144,221,1195,1907,1154,-2133,4430,48,21,875
316754,6566908,6928828,6570583,6931031,1711,2319,413,1250,2099,810,-1669,4395,48,21,875
317755,6567088,6929008,6570780,6931228,1795,2076,391,1217,2173,1275,-708,2701,25,25,874
318756,6567284,6929184,6570977,6931425,1696,2111,231,1260,2224,282,-984,3350,25,25,874
319757,6567448,6929316,6571174,6931622,1911,2415,106,1408,2284,-259,-1381,4056,39,38,874
320758,6567624,6929460,6571371,6931819,1846,2364,100,1624,2291,88,-498,4520,39,38,874
321759,6567808,6929592,6571568,6932016,1803,2468,100,1930,2284,51,-183,4407,43,28,875
322760,6568000,6929788,6571765,6932213,1755,2069,21,2199,2310,90,-148,3621,43,28,875
323761,6568172,6929976,6571962,6932410,1892,2123,-83,2257,2392,-605,-945,2952,46,45,872
324762,6568400,6930172,6572159,6932607,1529,2075,-75,2150,2456,-153,-676,3868,46,45,872
325763,6568576,6930372,6572356,6932804,1865,2048,93,2114,2500,584,-92,5316,43,32,876
326764,6568768,6930568,6572553,6933001,1767,2075,161,1904,2597,-1,-641,3166,43,32,876
327765,6568932,6930788,6572750,6933198,1957,1915,133,1601,2675,71,-104,3328,37,35,877
328766,6569088,6931016,6572947,6933395,2026,1851,179,1451,2666,-356,90,5460,37,35,877
329767,6569256,6931260,6573144,6933592,1964,1731,235,1267,2578,-889,283,3924,28,53,875
330768,6569408,6931520,6573341,6933789,2085,1604,231,1104,2498,-1248,-270,3827,28,53,875
331769,6569548,6931792,6573538,6933986,2186,1497,219,1144,2446,-569,748,4870,44,48,875
332770,6569696,6932120,6573735,6934183,2158,1089,167,1132,2445,-1118,-134,3434,44,48,875
333771,6569900,6932356,6573932,6934380,1806,1648,140,1083,2533,-1510,-1012,4271,33,59,876
334772,6570092,6932564,6574129,6934577,1884,1818,221,1094,2560,-807,-41,5248,33,59,876
335773,6570268,6932752,6574326,6934774,1994,1947,282,901,2520,-1213,-1410,3368,36,47,877
336774,6570444,6932920,6574523,6934971,2004,2086,397,779,2411,-513,709,4612,36,47,877
337774,6570632,6933148,6574720,6935168,1934,1697,507,656,2379,-353,997,4216,44,45,877
338775,6570784,6933400,6574917,6935365,2179,1523,545,408,2448,-949,-341,3066,44,45,877
339777,6570940,6933676,6575114,6935562,2173,1339,686,372,2547,-346,-969,5685,43,53,875
340778,6571092,6933956,6575311,6935759,2219,1278,857,422,2646,-637,-923,4600,43,53,875
341779,6571252,6934176,6575508,6935956,2186,1644,916,326,2744,-887,-1097,2977,44,67,876
342787,6571388,6934492,6575738,6936186,2378,1006,954,207,2714,145,-1831,3575,44,67,876
343781,6571540,6934792,6575935,6936383,2298,1061,1036,259,2620,-474,-1677,5116,33,71,877
344782,6571664,6935076,6576132,6936580,2506,1123,1005,306,2536,-1094,-1401,3467,33,71,877
345783,6571776,6935388,6576329,6936777,2619,898,854,388,2435,-600,-800,3973,40,68,876
346784,6571916,6935708,6576526,6936974,2470,794,670,627,2297,-155,-1154,4772,40,68,876
347785,6572052,6935980,6576723,6937171,2523,1061,511,829,2075,-79,-680,4518,20,56,876
348786,6572188,6936232,6576920,6937368,2551,1163,351,838,1830,-443,-651,3962,20,56,876
349787,6572316,6936480,6577117,6937565,2632,1165,255,903,1609,-492,-50,5338,26,62,878
350788,6572500,6936784,6577314,6937762,2289,768,183,979,1360,-249,578,5386,26,62,878
351789,6572636,6937060,6577511,6937959,2616,909,130,887,1148,-866,257,4842,27,53,876
352790,6572788,6937308,6577708,6938156,2537,1061,184,766,1008,-235,-121,6567,27,53,876
353791,6572940,6937556,6577905,6938353,2557,1039,314,581,978,-221,-479,5486,44,42,879
354792,6573108,6937796,6578102,6938550,2471,1071,392,223,982,-115,-414,4156,44,42,879
355793,6573260,6938044,6578299,6938747,2592,998,494,-29,958,22,-283,5265,27,43,875
356794,6573436,6938300,6578496,6938944,2452,923,532,-236,817,699,-40,4246,27,43,875
357795,6573600,6938520,6578693,6939141,2543,1137,437,-304,577,649,79,4526,25,38,875
358796,6573764,6938724,6578890,6939338,2558,1234,183,-277,328,46,-526,4388,25,38,875
359797,6573920,6938888,6579087,6939535,2627,1499,-27,-162,121,-368,-424,5277,44,30,877
360797,6574092,6939060,6579284,6939732,2539,1460,-115,-120,-74,-368,-479,5555,44,30,877
361799,6574244,6939224,6579481,6939929,2685,1525,-156,-223,-291,-650,-436,5040,29,30,875
362800,6574408,6939388,6579678,6940126,2625,1540,-149,-269,-488,-1056,-890,6891,29,30,875
363801,6574556,6939576,6579875,6940323,2748,1394,-151,-449,-750,-554,-1088,5932,45,29,874
364802,6574716,6939760,6580072,6940520,2690,1424,-167,-694,-1128,87,-1202,6280,45,29,874
365803,6574844,6939940,6580269,6940717,2922,1457,-282,-600,-1543,337,-610,6735,24,28,872
366804,6574996,6940136,6580466,6940914,2792,1357,-581,13,-1867,428,1937,5917,24,28,872
367805,6575132,6940360,6580663,6941111,2920,1171,-885,774,-2030,987,2107,5642,35,48,870
368806,6575264,6940560,6580860,6941308,2975,1319,-946,1164,-2108,2050,-168,5333,35,48,870
369807,6575424,6940756,6581057,6941505,2817,1346,-814,975,-2156,2653,-1182,4123,35,44,873
370808,6575564,6940992,6581254,6941702,2968,1079,-586,498,-2137,2502,-268,3919,35,44,873
371809,6575704,6941240,6581451,6941899,2994,981,-369,-103,-1996,1535,-1190,3346,32,38,871
372810,6575860,6941480,6581648,6942096,2914,1012,-193,-540,-1923,1546,-1646,3958,32,38,871
373811,6576036,6941692,6581845,6942293,2799,1181,-99,-504,-1961,1789,-1775,5114,43,39,873
374812,6576208,6941868,6582042,6942490,2836,1415,-107,-14,-2035,1325,-345,5541,43,39,873
375813,6576408,6942044,6582239,6942687,2661,1424,-236,533,-2115,384,-37,4970,32,27,874
376814,6576600,6942184,6582436,6942884,2714,1675,-372,958,-2208,196,144,5355,32,27,874
377815,6576788,6942332,6582633,6943081,2744,1647,-470,1134,-2282,-121,-473,5043,47,21,870
378816,6576980,6942492,6582830,6943278,2722,1588,-556,899,-2297,-208,-262,3557,47,21,870
379817,6577172,6942620,6583027,6943475,2725,1818,-540,473,-2337,222,-487,4603,44,29,871
380818,6577356,6942732,6583224,6943672,2782,1956,-490,31,-2378,-226,-1356,4226,44,29,871
381819,6577552,6942844,6583421,6943869,2710,1993,-428,-292,-2429,733,-1114,4416,27,16,872
382820,6577748,6942952,6583618,6944066,2711,2057,-358,-316,-2425,588,-1885,5312,27,16,872
383820,6577968,6943072,6583815,6944263,2552,2017,-387,-249,-2417,520,-770,3739,51,19,870
384822,6578184,6943156,6584012,6944460,2570,2292,-501,-122,-2323,20,-825,3922,51,19,870
385823,6578408,6943268,6584209,6944657,2509,2154,-568,93,-2222,263,-1263,4368,40,16,868
386824,6578652,6943360,6584406,6944854,2364,2325,-571,200,-2164,252,-1016,3857,40,16,868
387825,6578852,6943460,6584603,6945051,2639,2319,-544,150,-2136,549,-1397,3765,53,30,869
388826,6579108,6943596,6584800,6945248,2264,2120,-488,38,-2096,364,-973,4012,53,30,869
389827,6579340,6943728,6584997,6945445,2399,2174,-424,-191,-2069,59,-1026,3790,54,30,869
390828,6579604,6943840,6585194,6945642,2171,2337,-364,-377,-2095,463,-622,3984,54,30,869
391829,6579872,6943952,6585391,6945839,2117,2375,-380,-452,-2138,569,-18,3796,47,21,872
392830,6580132,6944060,6585588,6946036,2140,2439,-458,-429,-2141,622,-226,3722,47,21,872
393831,6580376,6944176,6585785,6946233,2221,2425,-560,-385,-2049,308,-678,3653,48,29,871
394832,6580664,6944292,6585982,6946430,1907,2461,-568,-399,-1892,41,-1053,3621,48,29,871
395833,6580912,6944412,6586179,6946627,2135,2471,-530,-479,-1801,876,-827,3597,42,26,871
396834,6581212,6944532,6586376,6946824,1766,2505,-468,-635,-1741,692,-697,2898,42,26,871
397835,6581500,6944652,6586573,6947021,1802,2539,-396,-790,-1661,388,-1062,3522,64,28,872
398836,6581784,6944796,6586770,6947218,1790,2413,-298,-839,-1592,234,-659,3220,64,28,872
399837,6582056,6944904,6586967,6947415,1833,2677,-311,-1079,-1588,483,256,1275,62,30,871
400838,6582404,6945052,6587164,6947612,1291,2450,-311,-1121,-1583,453,-321,3068,62,30,871
401839,6582696,6945152,6587361,6947809,1601,2792,-261,-1083,-1572,247,-556,3077,55,23,872
402840,6582968,6945316,6587558,6948006,1694,2408,-240,-1167,-1548,98,-124,1756,55,23,872
403841,6583312,6945444,6587755,6948203,1180,2663,-227,-1268,-1479,215,-485,2263,51,35,875
404842,6583604,6945556,6587952,6948400,1464,2801,-187,-1312,-1421,888,-1022,2647,51,35,875
405843,6583908,6945684,6588149,6948597,1343,2732,-160,-1418,-1346,318,-150,1858,52,34,874
406844,6584200,6945824,6588346,6948794,1377,2683,-150,-1648,-1251,-137,-601,1398,52,34,874
407845,6584516,6945960,6588543,6948991,1175,2734,-85,-1749,-1195,112,-958,2717,53,22,872
408846,6584804,6946104,6588740,6949188,1311,2709,-3,-1859,-1151,-150,-700,1768,53,22,872
409847,6585100,6946260,6588937,6949385,1219,2653,24,-2068,-1151,502,-552,1190,54,42,872
410848,6585400,6946400,6589134,6949582,1149,2778,93,-2141,-1158,370,-194,2586,54,42,872
411849,6585672,6946576,6589331,6949779,1291,2563,164,-2260,-1116,-635,-642,1521,50,27,871
412850,6585968,6946728,6589528,6949976,1099,2733,223,-2425,-1107,78,-453,1489,50,27,871
413851,6586272,6946896,6589725,6950173,1003,2647,277,-2475,-1111,475,-306,2357,49,27,873
414852,6586520,6947032,6589922,6950370,1331,2874,264,-2473,-1088,515,-295,1599,49,27,873
415852,6586800,6947216,6590119,6950567,1095,2580,232,-2465,-1080,852,132,2056,63,28,874
416854,6587076,6947380,6590316,6950764,1086,2721,229,-2454,-1045,576,-321,2342,63,28,874
417855,6587324,6947564,6590513,6950961,1239,2602,243,-2552,-959,132,-34,1996,56,31,872
418856,6587568,6947720,6590710,6951158,1244,2795,257,-2709,-865,422,-182,2023,56,31,872
419857,6587824,6947896,6590907,6951355,1144,2681,307,-2891,-799,684,-408,2122,53,34,874
420858,6588056,6948040,6591104,6951552,1279,2905,340,-3137,-753,784,-173,2475,53,34,874
421859,6588276,6948208,6591301,6951749,1345,2768,377,-3380,-715,529,227,1893,58,29,871
422860,6588524,6948380,6591498,6951946,1147,2755,331,-3513,-647,390,137,2574,58,29,871
423861,6588748,6948540,6591695,6952143,1287,2847,267,-3424,-614,1189,63,2830,42,40,871
424862,6588984,6948716,6591892,6952340,1194,2756,181,-3230,-571,1069,166,3346,42,40,871
425870,6589192,6948900,6592122,6952570,1380,2727,98,-3067,-521,1119,226,2828,57,28,873
426864,6589464,6949072,6592319,6952767,947,2814,55,-3029,-425,640,317,3275,57,28,873
427864,6589692,6949252,6592516,6952964,1210,2772,72,-3172,-303,581,326,2903,51,40,874
428865,6589912,6949436,6592713,6953161,1250,2753,110,-3462,-245,1353,173,2990,51,40,874
429867,6590172,6949596,6592910,6953358,973,2921,135,-3738,-212,1143,308,2970,46,29,874
430868,6590416,6949780,6593107,6953555,1053,2776,116,-3904,-174,849,636,3452,46,29,874
431868,6590640,6949984,6593304,6953752,1166,2649,34,-3910,-158,832,288,3279,47,44,873
432869,6590896,6950156,6593501,6953949,941,2861,-67,-3794,-54,-91,266,3798,47,44,873
433871,6591132,6950380,6593698,6954146,1049,2525,-118,-3424,35,792,647,5383,37,30,872
434872,6591352,6950556,6593895,6954343,1140,2835,-231,-3145,-31,2291,-556,3729,37,30,872
435873,6591564,6950728,6594092,6954540,1183,2872,-317,-2995,22,698,510,4615,36,29,874
436873,6591800,6950884,6594289,6954737,1017,2991,-347,-2891,151,1066,-339,4792,36,29,874
437875,6592012,6951064,6594486,6954934,1161,2849,-327,-2868,157,2275,18,4514,36,29,873
438876,6592228,6951220,6594683,6955131,1128,3017,-352,-2879,148,2126,299,4310,36,29,873
439877,6592456,6951428,6594880,6955328,1040,2688,-404,-2919,245,1451,-347,4274,35,44,872
440878,6592644,6951600,6595077,6955525,1294,2925,-376,-2786,327,1931,219,5778,35,44,872
441879,6592828,6951784,6595274,6955722,1325,2856,-387,-2835,396,1568,-332,3801,38,44,872
442880,6593000,6951980,6595471,6955919,1411,2783,-373,-2759,523,998,-455,5987,38,44,872
443881,6593192,6952140,6595668,6956116,1290,3025,-335,-2582,555,2144,-1093,5714,33,31,871
444882,6593332,6952316,6595865,6956313,1640,2935,-321,-2369,477,2814,-819,5615,33,31,871
445883,6593520,6952508,6596062,6956510,1345,2838,-333,-2142,453,2556,-1260,5870,33,28,871
446884,6593696,6952676,6596259,6956707,1429,3001,-334,-1944,558,1719,-739,6008,33,28,871
447885,6593876,6952844,6596456,6956904,1412,3015,-333,-1900,694,1656,-626,5220,25,38,870
448886,6594060,6953024,6596653,6957101,1393,2948,-331,-1878,837,1258,-1119,5549,25,38,870
449887,6594232,6953176,6596850,6957298,1480,3144,-271,-1730,916,1652,-1031,6739,37,31,871
450888,6594392,6953332,6597047,6957495,1571,3137,-211,-1684,916,1647,-923,5315,37,31,871
451889,6594580,6953468,6597244,6957692,1401,3290,-183,-1766,893,1468,-885,5353,35,26,871
452890,6594736,6953608,6597441,6957889,1619,3291,-134,-1730,924,773,-918,6178,35,26,871
453891,6594892,6953744,6597638,6958086,1638,3344,-114,-1664,931,1119,-1115,5487,41,35,868
454892,6595084,6953884,6597835,6958283,1415,3345,-119,-1544,920,1012,-1124,5776,41,35,868
455893,6595240,6954024,6598032,6958480,1659,3370,-99,-1392,917,794,-1612,6192,24,21,866
456894,6595384,6954172,6598229,6958677,1758,3342,-47,-1253,947,417,-1195,6010,24,21,866
457895,6595540,6954296,6598426,6958874,1702,3525,19,-1302,986,486,-1220,5412,31,21,867
458896,6595716,6954444,6598623,6959071,1586,3398,114,-1284,979,894,-1196,6298,31,21,867
459897,6595872,6954560,6598820,6959268,1730,3634,183,-1419,997,218,-772,4951,35,30,866
460898,6596056,6954732,6599017,6959465,1562,3296,247,-1552,1058,67,-815,5600,35,30,866
461899,6596204,6954864,6599214,6959662,1808,3576,313,-1718,1042,817,-954,5147,32,31,866
462900,6596368,6955008,6599411,6959859,1724,3525,371,-1800,1084,-319,-570,5514,32,31,866
463901,6596544,6955144,6599608,6960056,1658,3603,392,-1812,1083,603,-1111,5005,39,34,867
464902,6596748,6955284,6599805,6960253,1481,3603,421,-1719,1071,250,-580,5918,39,34,867
465903,6596936,6955460,6600002,6960450,1585,3388,430,-1684,1061,-55,-963,4756,45,19,864
466904,6597112,6955592,6600199,6960647,1670,3693,461,-1757,1148,-920,-269,5404,45,19,864
467905,6597296,6955760,6600396,6960844,1627,3482,483,-1877,1148,525,-922,4846,28,26,864
468906,6597464,6955924,6600593,6961041,1740,3522,555,-1942,1086,822,-174,5654,28,26,864
469907,6597652,6956072,6600790,6961238,1620,3645,570,-2026,1114,161,-651,4748,46,33,861
470921,6597864,6956200,6600987,6961435,1463,3800,541,-2054,1165,438,-379,4723,46,33,861
471909,6598048,6956356,6601184,6961632,1645,3645,489,-1992,1234,-258,-853,5186,37,30,864
472910,6598224,6956524,6601381,6961829,1705,3584,431,-1844,1213,246,-763,4763,37,30,864
473911,6598456,6956684,6601578,6962026,1339,3651,414,-1791,1239,-640,-352,4948,33,34,864
474912,6598632,6956860,6601775,6962223,1700,3561,394,-1851,1216,151,183,4424,33,34,864
475913,6598816,6957012,6601972,6962420,1655,3732,395,-2068,1186,27,446,4100,36,38,864
476914,6599020,6957176,6602169,6962617,1528,3673,375,-2233,1107,497,113,3989,36,38,864
477915,6599212,6957344,6602366,6962814,1607,3661,339,-2199,1139,-781,266,4720,53,23,863
478916,6599416,6957532,6602563,6963011,1528,3541,242,-2022,1214,-428,-627,4416,53,23,863
479917,6599620,6957708,6602760,6963208,1526,3626,174,-1757,1229,-74,-242,4928,42,30,864
480918,6599816,6957876,6602957,6963405,1577,3691,133,-1669,1154,759,-69,4296,42,30,864
481919,6599980,6958080,6603154,6963602,1792,3464,69,-1649,1109,567,122,4054,34,47,865
482920,6600156,6958304,6603351,6963799,1728,3328,-1,-1707,1138,125,-17,3578,34,47,865
483921,6600344,6958548,6603548,6963996,1657,3184,-18,-1701,1199,-202,797,4398,44,34,864
484922,6600524,6958756,6603745,6964193,1715,3405,-34,-1747,1264,-135,430,3545,44,34,864
485923,6600688,6958964,6603942,6964390,1829,3401,-74,-1737,1331,-73,-75,3999,36,47,866
486924,6600888,6959156,6604139,6964587,1604,3504,-164,-1779,1372,-20,-778,3152,36,47,866
487925,6601032,6959352,6604336,6964784,1978,3481,-248,-1788,1395,-255,-98,3710,47,39,865
488926,6601204,6959584,6604533,6964981,1814,3241,-292,-1691,1519,-1287,-571,3964,47,39,865
489927,6601364,6959816,6604730,6965178,1907,3227,-311,-1550,1771,-2325,-418,4119,36,32,864
490928,6601512,6960016,6604927,6965375,2004,3427,-329,-1418,2019,-1772,-33,3912,36,32,864
491929,6601644,6960196,6605124,6965572,2133,3560,-496,-1739,1671,4525,976,603,38,31,866
492930,6601792,6960348,6605321,6965769,2055,3756,-518,-1738,1189,3975,-514,5519,38,31,866
493930,6601920,6960532,6605518,6965966,2212,3562,-408,-1502,1175,-263,-526,5189,28,31,862
494932,6602088,6960724,6605715,6966163,1974,3516,-452,-1606,1341,49,81,871,28,31,862
495933,6602268,6960932,6605912,6966360,1908,3412,-542,-1705,1436,493,140,3210,27,29,861
496934,6602412,6961100,6606109,6966557,2157,3676,-532,-1453,1510,392,-1096,4940,27,29,861
497935,6602564,6961268,6606306,6966754,2127,3689,-512,-1235,1572,727,-1082,3036,44,28,863
498936,6602732,6961436,6606503,6966951,2041,3703,-488,-1331,1660,-66,-679,2344,44,28,863
499937,6602876,6961628,6606700,6967148,2215,3556,-450,-1465,1708,-218,-1699,3372,45,31,860
500938,6603020,6961800,6606897,6967345,2238,3693,-410,-1387,1662,458,-1149,3909,45,31,860
501939,6603184,6961996,6607094,6967542,2129,3545,-473,-1234,1532,1321,-119,2526,41,38,861
502940,6603336,6962180,6607291,6967739,2225,3626,-573,-1130,1456,1107,-482,2977,41,38,861
503941,6603480,6962412,6607488,6967936,2299,3312,-582,-977,1552,-225,-1662,3742,44,49,861
504942,6603600,6962664,6607685,6968133,2483,3164,-466,-798,1657,-395,-622,4095,44,49,861
505943,6603752,6962876,6607882,6968330,2303,3409,-317,-772,1684,-34,-251,3200,29,52,862
506944,6603884,6963120,6608079,6968527,2458,3190,-225,-896,1631,1385,-693,2625,29,52,862
507945,6604024,6963356,6608276,6968724,2434,3223,-152,-1072,1576,1334,-1303,2520,35,38,864
508953,6604152,6963656,6608506,6968954,2555,2794,-74,-1263,1581,1111,-2271,2297,35,38,864
509947,6604260,6963956,6608703,6969151,2719,2749,68,-1343,1707,-38,-1100,3216,23,54,862
510948,6604416,6964244,6608900,6969348,2438,2785,224,-1476,1877,-49,65,2727,23,54,862
511949,6604560,6964552,6609097,6969545,2537,2613,278,-1576,1968,660,87,2571,18,50,864
512950,6604712,6964880,6609294,6969742,2508,2431,289,-1505,1992,883,-514,3387,18,50,864
513951,6604852,6965224,6609491,6969939,2609,2267,254,-1387,2042,-259,-831,3120,23,54,867
514952,6605012,6965532,6609688,6970136,2501,2444,184,-1389,2142,-1095,-539,2352,23,54,867
515953,6605152,6965832,6609885,6970333,2652,2449,148,-1332,2181,217,-197,2947,46,65,869
516953,6605292,6966092,6610082,6970530,2678,2673,133,-1253,2095,1447,-391,2955,46,65,869
517955,6605472,6966484,6610279,6970727,2437,1763,137,-1067,2006,1217,-587,3288,42,59,869
518955,6605604,6966820,6610476,6970924,2766,2053,139,-917,1960,1119,-627,2866,42,59,869
519957,6605780,6967140,6610673,6971121,2501,2100,208,-690,2029,-160,403,4145,45,62,867
520958,6605972,6967404,6610870,6971318,2404,2421,241,-605,2252,-1186,827,2314,45,62,867
521959,6606176,6967772,6611067,6971515,2327,1696,209,-598,2420,823,111,2196,32,58,868
522960,6606372,6968140,6611264,6971712,2378,1622,233,-267,2410,1719,-613,4474,32,58,868
523961,6606540,6968480,6611461,6971909,2567,1734,340,32,2373,479,-521,3437,33,67,870
524962,6606748,6968756,6611658,6972106,2313,2101,452,147,2392,606,369,2733,33,67,870
525963,6606940,6969092,6611855,6972303,2416,1666,537,177,2393,1828,554,2710,51,65,874
526964,6607148,6969436,6612052,6972500,2313,1551,588,251,2366,2115,164,2512,51,65,874
527965,6607388,6969752,6612249,6972697,2095,1675,668,295,2436,58,64,2597,38,57,873
528966,6607596,6970048,6612446,6972894,2291,1756,807,386,2581,-435,308,2899,38,57,873
529967,6607788,6970348,6612643,6973091,2394,1687,888,467,2604,1254,232,2228,56,49,875
530968,6608008,6970684,6612840,6973288,2210,1402,966,735,2508,1353,74,3646,56,49,875
531969,6608200,6970984,6613037,6973485,2388,1582,1056,1060,2435,452,186,3551,44,61,873
532970,6608420,6971252,6613234,6973682,2203,1750,1054,1101,2366,684,151,1094,44,61,873
533971,6608656,6971532,6613431,6973879,2087,1640,982,1048,2318,616,-48,1680,51,45,876
534972,6608860,6971812,6613628,6974076,2285,1603,966,1280,2347,53,-240,3393,51,45,876
535973,6609064,6972132,6613825,6974273,2283,1300,984,1574,2312,420,-215,2723,51,62,874
536974,6609296,6972460,6614022,6974470,2093,1193,968,1751,2241,250,-362,2258,51,62,874
537975,6609504,6972764,6614219,6974667,2240,1297,928,1938,2192,238,-68,2779,34,46,875
538976,6609744,6973020,6614416,6974864,2022,1571,832,2184,2163,132,122,2496,34,46,875
539977,6609964,6973360,6614613,6975061,2138,983,692,2469,2133,570,-664,2309,50,64,878
540978,6610216,6973700,6614810,6975258,1914,921,624,2779,2080,682,-2636,3425,50,64,878
541979,6610472,6974004,6615007,6975455,1864,1099,700,3075,1980,1089,-861,4350,59,49,877
542980,6610704,6974292,6615204,6975652,1999,1159,670,3064,1975,839,300,2022,59,49,877
543981,6610940,6974576,6615401,6975849,1958,1146,573,2864,2059,655,368,2507,61,54,879
544982,6611200,6974916,6615598,6976046,1781,734,741,2764,2086,1026,-727,4870,61,54,879
545983,6611468,6975276,6615795,6976243,1701,537,1049,2373,1941,696,62,2519,64,51,879
546984,6611748,6975568,6615992,6976440,1591,921,1153,1636,1736,277,1022,292,64,51,879
547985,6611976,6975800,6616189,6976637,1903,1280,1084,1421,1557,1416,971,3559,58,57,882
548986,6612196,6976064,6616386,6976834,1943,1051,929,1839,1447,1569,82,4749,58,57,882
549987,6612420,6976364,6616583,6977031,1907,782,699,2421,1433,899,280,4367,39,45,882
550988,6612672,6976648,6616780,6977228,1709,843,393,2665,1597,582,235,4156,39,45,882
551989,6612916,6976860,6616977,6977425,1739,1287,161,2617,1785,1298,-1268,4111,40,48,879
552990,6613156,6977068,6617174,6977622,1746,1307,103,2461,1946,1024,-2644,4907,40,48,879
553991,6613356,6977232,6617371,6977819,1995,1596,178,2529,1979,946,404,6341,55,35,881
554992,6613572,6977432,6617568,6978016,1888,1370,184,2293,1852,567,1639,3755,55,35,881
555993,6613792,6977644,6617765,6978213,1853,1289,73,1641,1672,-667,645,2780,34,30,878
556994,6614032,6977852,6617962,6978410,1711,1309,25,869,1457,-866,-359,3979,34,30,878
557995,6614292,6978036,6618159,6978607,1558,1464,102,106,1216,-849,-349,4636,44,38,879
558996,6614532,6978208,6618356,6978804,1665,1551,189,-589,1025,-1547,-1407,4537,44,38,879
559997,6614808,6978368,6618553,6979001,1406,1643,110,-1165,870,-627,-1147,4539,37,25,879
560997,6615040,6978520,6618750,6979198,1666,1712,-156,-1507,661,459,-557,4872,37,25,879
561998,6615244,6978728,6618947,6979395,1839,1358,-475,-1476,467,128,-716,6355,62,43,879
563000,6615556,6978936,6619144,6979592,1114,1353,-786,-1363,349,-606,-314,5295,62,43,879
564000,6615836,6979132,6619341,6979789,1279,1428,-1093,-1460,222,153,-779,4823,60,34,877
565002,6616072,6979332,6619538,6979986,1537,1402,-1314,-1637,108,513,-1725,5188,60,34,877
566002,6616348,6979532,6619735,6980183,1253,1401,-1491,-1791,11,297,-1394,5734,62,41,881
567003,6616584,6979696,6619932,6980380,1487,1641,-1656,-1756,-155,1155,-78,5352,62,41,881
568004,6616856,6979876,6620129,6980577,1229,1549,-1862,-1628,-310,759,124,5309,58,40,880
569006,6617100,6980056,6620326,6980774,1384,1556,-2006,-1724,-395,652,-181,3936,58,40,880
570007,6617344,6980308,6620523,6980971,1364,1082,-1941,-2201,-454,1627,-1160,4676,56,32,879
571008,6617568,6980568,6620720,6981168,1478,1004,-1693,-2921,-553,2370,-1466,4069,56,32,879
572009,6617804,6980816,6620917,6981365,1387,1057,-1469,-3746,-635,1915,-488,3285,57,48,880
573010,6618044,6981032,6621114,6981562,1343,1248,-1383,-4348,-727,2493,-872,3198,57,48,880
574011,6618256,6981240,6621311,6981759,1512,1294,-1387,-4529,-897,3057,-987,4312,52,36,882
575012,6618496,6981424,6621508,6981956,1318,1449,-1431,-4367,-1072,2657,-838,4617,52,36,882
576013,6618704,6981664,6621705,6982153,1514,1081,-1504,-4118,-1234,2937,-93,4000,55,43,881
577014,6618912,6981900,6621902,6982350,1510,1089,-1632,-3953,-1383,3324,-574,3401,55,43,881
578015,6619092,6982112,6622099,6982547,1693,1233,-1715,-3689,-1515,3186,693,4271,41,48,880
579016,6619312,6982332,6622296,6982744,1434,1173,-1791,-3420,-1579,2616,-149,3927,41,48,880
580017,6619496,6982500,6622493,6982941,1665,1510,-1878,-3056,-1619,2929,-1334,4130,49,36,882
581018,6619632,6982696,6622690,6983138,1992,1336,-1892,-2743,-1715,3908,-164,4085,49,36,882
582019,6619784,6982844,6622887,6983335,1912,1657,-1898,-2615,-1888,4599,717,3325,34,38,882
583020,6619940,6982972,6623084,6983532,1906,1813,-1906,-2613,-2023,4153,-164,3258,34,38,882
584021,6620080,6983172,6623281,6983729,2032,1361,-1876,-2500,-1995,2676,1161,4326,20,39,877
585022,6620244,6983352,6623478,6983926,1897,1494,-1920,-2545,-1866,2923,-756,2202,20,39,877
586023,6620396,6983500,6623675,6984123,1992,1715,-1955,-2650,-1833,4769,-1242,3038,19,36,876
587024,6620524,6983664,6623872,6984320,2173,1631,-1889,-2393,-1814,4411,-2322,5353,19,36,876
588025,6620692,6983792,6624069,6984517,1937,1886,-1671,-1776,-1859,5399,-1446,6617,27,19,876
589026,6620868,6983896,6624266,6984714,1897,2077,-1364,-1037,-1929,5895,-865,6602,27,19,876
590027,6621012,6984024,6624463,6984911,2120,1957,-1056,-547,-1900,5244,-656,5544,43,31,875
591028,6621180,6984152,6624660,6985108,1984,1988,-760,-328,-1745,4487,2464,5421,43,31,875
592038,6621364,6984244,6624890,6985338,1905,2273,-702,-599,-1388,3163,108,1493,41,34,874
593030,6621536,6984388,6625087,6985535,1991,1973,-797,-861,-888,2527,-4237,1711,41,34,874
594031,6621736,6984520,6625284,6985732,1816,2076,-705,-396,-589,4294,-2151,6800,28,17,874
595032,6621908,6984660,6625481,6985929,2003,2051,-467,548,-551,5474,-2405,6609,28,17,874
596033,6622124,6984788,6625678,6986126,1719,2156,-312,1236,-517,4178,-1623,4571,45,30,874
597034,6622356,6984904,6625875,6986323,1605,2268,-266,1559,-299,2594,-1947,3818,45,30,874
598035,6622596,6985016,6626072,6986520,1537,2330,-165,1761,-22,2722,-2756,4974,52,15,873
599036,6622844,6985140,6626269,6986717,1465,2288,74,1943,269,1738,-3056,5428,52,15,873
600037,6623104,6985244,6626466,6986914,1363,2453,253,1747,530,725,-2514,2749,50,30,873
601038,6623344,6985368,6626663,6987111,1470,2361,336,1424,775,31,-2883,3199,50,30,873
602039,6623592,6985480,6626860,6987308,1398,2474,423,1391,925,784,-2972,5742,39,19,875
603040,6623844,6985592,6627057,6987505,1349,2511,331,1253,888,1442,-2901,1881,39,19,875
604041,6624076,6985712,6627254,6987702,1460,2496,163,918,818,920,-2113,2734,35,18,874
605042,6624316,6985852,6627451,6987899,1391,2396,194,866,713,1498,-1894,6658,35,18,874
606043,6624560,6985972,6627648,6988096,1347,2555,252,656,545,1681,-2806,4138,40,26,874
607044,6624808,6986140,6627845,6988293,1299,2269,258,398,534,-37,-3011,5166,40,26,874
608044,6625052,6986264,6628042,6988490,1304,2576,213,243,686,-979,-2010,5257,53,28,874
609045,6625316,6986408,6628239,6988687,1150,2475,157,297,793,-403,-23,4967,53,28,874
610047,6625544,6986512,6628436,6988884,1362,2766,154,285,833,-733,38,4350,37,27,874
611048,6625784,6986648,6628633,6989081,1270,2594,231,219,829,-666,-903,5286,37,27,874
612049,6626012,6986780,6628830,6989278,1331,2647,387,-122,790,-135,-1190,4006,48,22,875
613050,6626224,6986896,6629027,6989475,1425,2784,577,-607,721,503,-1614,4429,48,22,875
614051,6626476,6987020,6629224,6989672,1151,2766,771,-1006,619,831,-1731,4357,54,21,872
615052,6626732,6987156,6629421,6989869,1101,2719,925,-1148,529,560,-960,4763,54,21,872
616053,6626948,6987308,6629618,6990066,1343,2639,968,-1062,537,-282,-589,4155,36,21,871
617053,6627188,6987476,6629815,6990263,1175,2552,875,-884,633,-409,-108,3901,36,21,871
618055,6627428,6987648,6630012,6990460,1156,2538,685,-554,748,139,440,3786,50,39,874
619056,6627636,6987832,6630209,6990657,1352,2470,401,-418,830,471,925,1871,50,39,874
620057,6627900,6988024,6630406,6990854,973,2422,154,-302,879,781,817,3305,53,46,873
621058,6628124,6988216,6630603,6991051,1212,2425,-37,-223,834,1576,1297,2704,53,46,873
622059,6628320,6988440,6630800,6991248,1387,2213,-278,-195,689,2275,2209,1446,51,42,873
623060,6628560,6988692,6630997,6991445,1094,2015,-424,-56,628,1691,1007,3570,51,42,873
624061,6628760,6988944,6631194,6991642,1343,1991,-293,-6,738,841,-1140,3776,32,42,876
625062,6628948,6989212,6631391,6991839,1423,1861,63,-614,891,964,-1158,1879,32,42,876
626063,6629144,6989476,6631588,6992036,1374,1857,552,-1573,1055,323,-660,2695,29,53,879
627064,6629340,6989732,6631785,6992233,1374,1882,944,-2291,1254,-12,-1694,2893,29,53,879
628065,6629532,6990012,6631982,6992430,1402,1695,1064,-2631,1278,1463,153,2800,25,60,878
629065,6629704,6990304,6632179,6992627,1538,1579,949,-2417,1122,1730,121,3438,25,60,878
630067,6629904,6990584,6632376,6992824,1363,1618,676,-1837,900,838,562,3972,41,60,878
631067,6630080,6990852,6632573,6993021,1522,1663,442,-1192,727,673,-5,4324,41,60,878
632069,6630240,6991088,6632770,6993218,1639,1846,382,-803,688,433,-143,4444,45,58,878
633069,6630408,6991348,6632967,6993415,1602,1668,466,-771,690,853,617,3643,45,58,878
634071,6630560,6991640,6633164,6993612,1723,1427,560,-1038,733,444,-685,2860,42,57,879
635072,6630724,6991924,6633361,6993809,1662,1439,645,-1266,630,1566,-1138,3300,42,57,879
636073,6630880,6992164,6633558,6994006,1731,1696,771,-1228,428,362,1177,4672,25,47,879
637074,6631016,6992388,6633755,6994203,1883,1784,775,-1243,364,-1409,-625,2694,25,47,879
638075,6631172,6992672,6633952,6994400,1777,1371,712,-1318,302,-40,-232,3354,32,56,879
639076,6631320,6992912,6634149,6994597,1849,1628,621,-1195,252,554,197,4480,32,56,879
640077,6631484,6993144,6634346,6994794,1764,1663,523,-1017,361,-32,-143,3930,39,51,876
641078,6631624,6993356,6634543,6994991,1939,1781,476,-837,573,990,204,3742,39,51,876
642079,6631784,6993536,6634740,6995188,1832,1989,462,-618,860,1295,-940,3810,25,39,875
643080,6631952,6993724,6634937,6995385,1795,1943,487,-301,1091,2013,-654,4700,25,39,875
644081,6632112,6993912,6635134,6995582,1862,1947,526,120,1216,2937,-633,5358,44,35,875
645082,6632296,6994084,6635331,6995779,1718,2059,515,402,1379,2383,-1022,4376,44,35,875
646083,6632484,6994288,6635528,6995976,1697,1856,455,444,1568,2753,-226,3209,35,35,876
647084,6632628,6994472,6635725,6996173,1996,1987,466,481,1781,2481,-567,4414,35,35,876
648085,6632812,6994660,6635922,6996370,1752,1966,549,644,2003,1636,-1100,4779,23,28,875
649085,6632976,6994812,6636119,6996567,1893,2212,557,750,2181,1332,-480,3325,23,28,875
650086,6633152,6994972,6636316,6996764,1828,2178,456,839,2356,1339,-1023,3578,27,39,874
651088,6633284,6995144,6636513,6996961,2131,2114,392,1124,2490,1367,-604,5105,27,39,874
652089,6633492,6995316,6636710,6997158,1653,2126,326,1382,2538,744,-61,4082,30,37,873
653090,6633652,6995516,6636907,6997355,1969,1950,244,1467,2520,305,542,3580,30,37,873
654091,6633832,6995732,6637104,6997552,1852,1842,174,1588,2406,436,-256,4463,24,39,870
655092,6634016,6995936,6637301,6997749,1834,1914,126,1726,2316,-201,-193,4178,24,39,870
656092,6634172,6996144,6637498,6997946,2027,1884,89,1865,2226,-205,383,4273,27,34,875
657094,6634336,6996380,6637695,6998143,1993,1693,98,1925,2119,-285,-413,3840,27,34,875
658094,6634488,6996612,6637892,6998340,2088,1703,184,1852,2013,-454,592,4126,34,45,875
659096,6634652,6996848,6638089,6998537,2028,1661,270,1606,1955,-339,371,2758,34,45,875
660097,6634792,6997116,6638286,6998734,2204,1431,348,1433,1988,355,-604,3693,44,58,876
661097,6634956,6997396,6638483,6998931,2069,1319,385,1564,2049,549,62,4792,44,58,876
662098,6635080,6997756,6638680,6999128,2352,747,251,1667,2095,-559,343,3121,23,49,876
663100,6635216,6997988,6638877,6999325,2304,1532,75,1705,2107,-1183,-857,4274,23,49,876
664100,6635412,6998144,6639074,6999522,1931,2026,51,1739,2064,-964,-451,4932,27,55,876
665101,6635612,6998340,6639271,6999719,1904,1777,57,1664,1965,-672,-557,3662,27,55,876
666102,6635812,6998520,6639468,6999916,1904,1884,141,1632,1815,270,1275,5215,39,31,873
667104,6635976,6998716,6639665,7000113,2145,1784,168,1679,1775,382,1054,4151,39,31,873
668105,6636156,6998972,6639862,7000310,2052,1384,64,1473,1853,-506,550,2579,29,32,876
669106,6636320,6999212,6640059,7000507,2168,1466,62,1286,1887,-1563,-103,5165,29,32,876
670107,6636492,6999440,6640256,7000704,2130,1527,175,1203,1764,-1690,82,5072,50,44,875
671108,6636648,6999672,6640453,7000901,2249,1487,185,1105,1574,-873,656,3726,50,44,875
672108,6636816,6999972,6640650,7001098,2186,1017,92,1141,1505,-829,-22,4410,43,49,876
673109,6636964,7000304,6640847,7001295,2334,758,55,1138,1560,-1561,-483,3984,43,49,876
674111,6637144,7000572,6641044,7001492,2142,1127,111,854,1642,-1787,-1098,3858,31,63,876
675119,6637272,7000844,6641274,7001722,2512,1083,202,500,1600,-544,-470,4085,31,63,876
676113,6637412,7001136,6641471,7001919,2463,917,192,273,1509,115,-37,3730,29,57,877
677114,6637548,7001420,6641668,7002116,2516,929,49,196,1427,321,-147,3191,29,57,877
678115,6637700,7001668,6641865,7002313,2437,1132,-165,421,1305,6,-1231,4562,23,57,874
679116,6637860,7001896,6642062,7002510,2404,1243,-375,919,1195,-291,-1150,5589,23,57,874
680117,6638028,7002144,6642259,7002707,2367,1096,-534,1377,1013,286,280,5581,25,43,875
681117,6638164,7002424,6642456,7002904,2595,859,-641,1584,718,-6,888,5294,25,43,875
682119,6638316,7002676,6642653,7003101,2515,1010,-669,1601,464,-287,496,5990,39,43,876
683120,6638464,7002940,6642850,7003298,2563,906,-672,1473,274,629,314,5322,39,43,876
684121,6638640,7003184,6643047,7003495,2398,1010,-704,1292,151,891,427,4308,33,41,876
685122,6638788,7003440,6643244,7003692,2596,909,-755,1239,128,492,643,4686,33,41,876
686123,6638940,7003692,6643441,7003889,2590,910,-765,1279,210,-265,244,4621,41,38,874
687124,6639128,7003912,6643638,7004086,2370,1100,-700,1272,334,-190,-1531,4421,41,38,874
688125,6639292,7004136,6643835,7004283,2536,1063,-502,1133,403,96,-1816,4884,27,49,874
689126,6639460,7004336,6644032,7004480,2525,1212,-287,728,460,-619,-1950,4029,27,49,874
690127,6639640,7004532,6644229,7004677,2458,1237,-76,381,511,-662,-1791,5347,28,42,877
691128,6639792,7004716,6644426,7004874,2654,1319,73,110,434,74,-1337,4956,28,42,877
692129,6639968,7004912,6644623,7005071,2514,1244,118,-58,147,818,-715,4690,44,43,875
693130,6640156,7005120,6644820,7005268,2443,1165,68,-94,-208,530,-851,5343,44,43,875
694131,6640316,7005312,6645017,7005465,2635,1267,-90,17,-556,359,-854,4988,34,44,874
695131,6640460,7005540,6645214,7005662,2760,1028,-349,232,-914,-48,-561,5286,34,44,874
696132,6640624,7005748,6645411,7005859,2650,1148,-667,492,-1196,-1352,-798,4881,42,42,875
697133,6640788,7005928,6645608,7006056,2666,1331,-961,934,-1372,-1102,-569,5656,42,42,875
698134,6640956,7006108,6645805,7006253,2654,1338,-1139,1475,-1482,-507,121,5976,36,37,873
699135,6641108,7006276,6646002,7006450,2775,1426,-1159,1761,-1547,-159,-914,5108,36,37,873
700137,6641248,7006500,6646199,7006647,2876,1064,-895,1719,-1624,708,-1450,6471,38,41,873
701138,6641412,7006716,6646396,7006844,2742,1106,-440,984,-1672,520,-947,4669,38,41,873
702139,6641576,7006908,6646593,7007041,2757,1258,32,-209,-1688,678,-1288,4066,42,31,872
703140,6641764,7007088,6646790,7007238,2612,1340,381,-1246,-1749,1529,-1928,5019,42,31,872
704141,6641944,7007236,6646987,7007435,2671,1562,450,-1783,-1884,1514,-863,4646,43,29,874
705142,6642132,7007368,6647184,7007632,2626,1691,263,-1665,-1943,113,-641,5152,43,29,874
706143,6642320,7007500,6647381,7007829,2631,1719,-32,-988,-1960,-153,-1108,6241,47,38,874
707144,6642496,7007612,6647578,7008026,2716,1881,-335,-256,-1993,236,-1789,5327,47,38,874
708145,6642672,7007728,6647775,7008223,2725,1892,-495,202,-2044,495,-1768,5671,36,19,870
709146,6642856,7007832,6647972,7008420,2682,2008,-500,243,-2138,1176,-1089,4984,36,19,870
710147,6643028,7007952,6648169,7008617,2769,1942,-422,-219,-2080,-387,-1596,3385,45,15,868
711148,6643232,7008072,6648366,7008814,2567,1976,-294,-746,-2014,-267,-1615,4383,45,15,868
712149,6643432,7008200,6648563,7009011,2591,1957,-218,-1090,-2090,916,-790,4101,30,34,869
713150,6643644,7008328,6648760,7009208,2511,1987,-264,-1166,-2202,1442,-920,4241,30,34,869
714151,6643856,7008452,6648957,7009405,2505,2044,-356,-860,-2263,1551,-1151,5203,48,25,871
715152,6644076,7008576,6649154,7009602,2446,2076,-444,-401,-2255,1239,-914,4903,48,25,871
716153,6644304,7008672,6649351,7009799,2383,2296,-514,-122,-2219,996,-292,4016,37,16,871
717154,6644536,7008792,6649548,7009996,2344,2180,-525,-45,-2205,1246,-546,3680,37,16,871
718155,6644760,7008904,6649745,7010193,2383,2268,-489,-83,-2122,645,-249,3658,53,24,871
719156,6644984,7009044,6649942,7010390,2372,2118,-435,-247,-1974,533,-830,2749,53,24,871
720157,6645228,7009164,6650139,7010587,2228,2277,-345,-343,-1934,1584,-702,3638,56,35,869
721158,6645448,7009296,6650336,7010784,2369,2230,-264,-388,-1940,1363,-331,2936,56,35,869
722159,6645708,7009408,6650533,7010981,2092,2394,-230,-385,-1885,645,-344,2637,44,29,870
723160,6645956,7009540,6650730,7011178,2145,2297,-206,-325,-1797,401,-897,3008,44,29,870
724161,6646212,7009644,6650927,7011375,2071,2513,-188,-268,-1704,290,-915,2496,60,20,870
725162,6646464,7009768,6651124,7011572,2072,2421,-161,-373,-1666,759,-239,2143,60,20,870
726163,6646740,7009880,6651321,7011769,1889,2534,-121,-405,-1712,1465,-557,2832,52,32,871
727164,6647008,7009988,6651518,7011966,1907,2598,-35,-403,-1729,1163,-393,3008,52,32,871
728165,6647296,7010104,6651715,7012163,1743,2584,14,-476,-1686,897,539,2256,61,29,871
729166,6647588,7010220,6651912,7012360,1678,2620,-8,-591,-1591,660,143,1612,61,29,871
730167,6647884,7010336,6652109,7012557,1610,2657,-89,-519,-1481,681,-660,2876,62,21,869
731168,6648176,7010456,6652306,7012754,1594,2665,-117,-259,-1398,444,-468,3112,62,21,869
732169,6648452,7010588,6652503,7012951,1661,2619,-144,-207,-1378,363,-528,2256,72,19,871
733170,6648748,7010712,6652700,7013148,1492,2702,-132,-315,-1439,878,-927,2714,72,19,871
734171,6649064,7010836,6652897,7013345,1316,2734,-22,-461,-1482,681,-629,3471,59,25,871
735172,6649356,7010960,6653094,7013542,1425,2767,85,-833,-1429,51,-354,2037,59,25,871
736173,6649660,7011068,6653291,7013739,1304,2906,143,-1310,-1331,8,-141,1866,66,17,872
737174,6649936,7011192,6653488,7013936,1444,2839,153,-1645,-1228,-269,290,2519,66,17,872
738175,6650204,7011320,6653685,7014133,1464,2845,116,-1820,-1107,-685,98,2081,62,17,872
739176,6650500,7011440,6653882,7014330,1247,2930,41,-1810,-1083,276,-584,2493,62,17,872
740177,6650772,7011564,6654079,7014527,1364,2937,3,-1640,-1169,858,-518,3341,65,35,871
741178,6651072,7011716,6654276,7014724,1145,2782,-39,-1534,-1224,-29,-531,2610,65,35,871
742179,6651348,7011864,6654473,7014921,1260,2830,-51,-1608,-1262,-491,-312,2559,67,26,870
743180,6651600,7012012,6654670,7015118,1387,2851,27,-1720,-1322,-139,-278,3300,67,26,870
744181,6651888,7012172,6654867,7015315,1123,2794,108,-2011,-1350,272,-24,2079,59,34,873
745182,6652172,7012352,6655064,7015512,1109,2676,130,-2366,-1320,371,-335,2050,59,34,873
746183,6652416,7012496,6655261,7015709,1340,2925,123,-2565,-1227,-8,-100,2826,50,42,872
747184,6652704,7012632,6655458,7015906,1025,3003,102,-2720,-1111,130,-556,1887,50,42,872
748185,6652956,7012792,6655655,7016103,1227,2870,78,-2792,-1022,360,-385,2787,44,38,874
749186,6653200,7012968,6655852,7016300,1256,2780,73,-2831,-967,310,-546,2275,44,38,874
750187,6653464,7013128,6656049,7016497,1102,2896,57,-2952,-906,22,-449,2334,36,33,872
751188,6653668,7013296,6656246,7016694,1474,2860,85,-2994,-863,311,-603,3049,36,33,872
752189,6653888,7013456,6656443,7016891,1365,2927,119,-3033,-858,755,-213,2749,49,36,871
753190,6654128,7013636,6656640,7017088,1221,2809,109,-3120,-811,682,-149,2761,49,36,871
754191,6654368,7013788,6656837,7017285,1204,3005,108,-3218,-752,834,251,3094,39,36,869
755192,6654600,7013952,6657034,7017482,1238,2946,118,-3276,-691,837,428,3327,39,36,869
756193,6654852,7014112,6657231,7017679,1090,2987,122,-3333,-610,715,348,3077,47,44,873
757194,6655056,7014300,6657428,7017876,1387,2817,117,-3440,-485,221,220,3202,47,44,873
758202,6655288,7014476,6657658,7018106,1212,2917,100,-3583,-341,-60,-30,2749,55,30,871
759196,6655516,7014656,6657855,7018303,1223,2899,109,-3745,-294,410,389,3642,55,30,871
760197,6655772,7014832,6658052,7018500,1022,2934,112,-3862,-280,350,294,3038,57,38,871
761198,6655984,7014992,6658249,7018697,1292,3052,87,-3926,-258,636,137,3781,57,38,871
762199,6656224,7015192,6658446,7018894,1098,2800,36,-3932,-219,493,-75,3584,59,32,872
763200,6656464,7015360,6658643,7019091,1080,3014,5,-3802,-114,209,244,4669,59,32,872
764201,6656692,7015552,6658840,7019288,1141,2867,-75,-3526,-102,1799,-676,4759,44,28,869
765202,6656916,7015736,6659037,7019485,1156,2924,-210,-3269,-70,1065,139,4127,44,28,869
766203,6657140,7015936,6659234,7019682,1144,2823,-343,-3061,99,305,171,4821,38,37,872
767204,6657368,7016132,6659431,7019879,1105,2849,-379,-2921,225,1275,29,5139,38,37,872
768205,6657608,7016316,6659628,7020076,1012,2931,-385,-2984,310,1256,210,4415,42,31,872
769206,6657844,7016472,6659825,7020273,1020,3124,-424,-3133,362,1702,284,4168,42,31,872
770207,6658052,7016632,6660022,7020470,1191,3116,-451,-3185,406,1794,-220,5343,52,43,873
771208,6658248,7016812,6660219,7020667,1267,3000,-464,-3147,400,2037,-293,4986,52,43,873
772209,6658448,7017008,6660416,7020864,1240,2901,-462,-3070,425,1630,-373,5312,42,34,871
773210,6658612,7017228,6660613,7021061,1481,2741,-445,-2845,457,2062,-609,6205,42,34,871
774211,6658780,7017392,6660810,7021258,1469,3106,-412,-2651,507,1858,-784,5400,39,30,870
775212,6658960,7017576,6661007,7021455,1401,2988,-374,-2415,556,2034,-555,5824,39,30,870
776213,6659124,7017760,6661204,7021652,1517,2995,-331,-2283,625,1854,-1185,5340,30,30,871
777214,6659320,7017944,6661401,7021849,1317,3001,-329,-2188,736,1560,-660,5296,30,30,871
778215,6659484,7018124,6661598,7022046,1533,3034,-362,-2079,814,2034,-753,5054,25,42,870
779216,6659652,7018292,6661795,7022243,1520,3123,-374,-1882,917,1159,-877,5935,25,42,870
780217,6659832,7018472,6661992,7022440,1453,3056,-337,-1805,982,1325,-1086,5406,30,38,869
781218,6660000,7018616,6662189,7022637,1541,3305,-251,-1798,970,1599,-1040,5532,30,38,869
782219,6660192,7018752,6662386,7022834,1394,3382,-166,-1792,955,1000,-530,5486,25,26,867
783220,6660332,7018920,6662583,7023031,1745,3196,-125,-1845,1009,344,-1128,4767,25,26,867
784221,6660520,7019064,6662780,7023228,1449,3370,-67,-1764,992,1397,-1130,6208,43,35,866
785222,6660688,7019212,6662977,7023425,1587,3367,-37,-1606,968,852,-1208,5548,43,35,866
786223,6660836,7019344,6663174,7023622,1734,3496,-65,-1500,982,893,-1340,5261,34,28,865
787224,6660992,7019512,6663371,7023819,1702,3285,-70,-1372,1042,621,-1145,5900,34,28,865
788225,6661156,7019644,6663568,7024016,1667,3540,-26,-1390,1095,284,-1362,5055,31,38,866
789226,6661324,7019784,6663765,7024213,1655,3516,89,-1482,1144,187,-1189,5680,31,38,866
790227,6661496,7019956,6663962,7024410,1642,3328,208,-1700,1128,900,-1104,4920,25,23,866
791228,6661668,7020108,6664159,7024607,1653,3473,315,-1904,1093,606,-681,5259,25,23,866
792229,6661824,7020236,6664356,7024804,1772,3654,404,-2082,1137,-390,-397,5131,37,38,864
793230,6661984,7020380,6664553,7025001,1763,3578,443,-2179,1194,-203,-935,4847,37,38,864
794231,6662188,7020520,6664750,7025198,1486,3629,457,-2120,1136,836,-166,5611,26,24,864
795232,6662368,7020684,6664947,7025395,1644,3495,433,-1927,1067,394,-815,5427,26,24,864
796233,6662536,7020848,6665144,7025592,1733,3510,398,-1730,1030,257,-869,5449,48,25,862
797234,6662716,7021016,6665341,7025789,1665,3499,404,-1689,1081,-455,-978,5090,48,25,862
798235,6662904,7021160,6665538,7025986,1620,3673,440,-1776,1124,-405,-362,5188,38,22,860
799236,6663072,7021296,6665735,7026183,1758,3751,503,-1899,1110,173,-260,5162,38,22,860
800237,6663244,7021440,6665932,7026380,1745,3724,498,-2089,1063,557,30,4473,48,26,864
801238,6663460,7021620,6666129,7026577,1461,3508,444,-2251,1110,-179,-402,4313,48,26,864
802239,6663644,7021768,6666326,7026774,1668,3730,372,-2168,1121,409,-730,5302,28,21,862
803253,6663828,7021896,6666523,7026971,1674,3800,308,-1986,1086,264,-135,5046,28,21,862
804241,6664040,7022044,6666720,7027168,1493,3784,214,-1860,1060,556,-730,4591,40,29,865
805254,6664236,7022192,6666917,7027365,1594,3800,140,-1729,1088,178,-249,5263,40,29,865
806243,6664416,7022388,6667114,7027562,1702,3508,122,-1696,1113,41,-92,4153,44,38,862
807244,6664644,7022552,6667311,7027759,1389,3724,129,-1839,1136,61,322,4086,44,38,862
808245,6664828,7022708,6667508,7027956,1670,3793,135,-1934,1219,78,-11,4344,39,33,861
809258,6665008,7022860,6667705,7028153,1703,3800,59,-1991,1242,534,364,3281,39,33,861
810247,6665220,7023056,6667902,7028350,1497,3565,-10,-1834,1259,-272,-231,4744,38,34,864
811248,6665396,7023228,6668099,7028547,1731,3727,-35,-1656,1236,13,-317,4468,38,34,864
812249,6665564,7023408,6668296,7028744,1795,3685,-39,-1573,1200,128,294,4157,39,36,861
813250,6665756,7023632,6668493,7028941,1647,3400,-63,-1603,1210,-61,-344,3336,39,36,861
814251,6665916,7023836,6668690,7029138,1865,3522,-74,-1669,1223,-47,89,3763,26,38,862
815252,6666088,7024068,6668887,7029335,1801,3333,-70,-1733,1230,-196,-137,3441,26,38,862
816253,6666256,7024296,6669084,7029532,1839,3345,-18,-1619,1289,-675,-392,4925,30,36,866
817254,6666436,7024512,6669281,7029729,1772,3413,-17,-1607,1358,-669,-813,3174,30,36,866
818255,6666588,7024712,6669478,7029926,1968,3513,-98,-1716,1366,-490,767,2743,30,42,864
819256,6666740,7024908,6669675,7030123,1988,3539,-248,-1764,1444,-1164,-556,3160,30,42,864
820257,6666908,7025120,6669872,7030320,1901,3434,-263,-1458,1739,-2481,-1523,5403,46,35,864
821258,6667064,7025336,6670069,7030517,1995,3401,-303,-1302,1983,-1374,-327,3092,46,35,864
822259,6667192,7025536,6670266,7030714,2200,3501,-418,-1548,1547,4926,1745,1282,23,45,863
823260,6667336,7025720,6670463,7030911,2125,3608,-386,-1449,1108,2978,-1102,6716,23,45,863
824261,6667468,7025884,6670660,7031108,2228,3748,-280,-1170,1144,-485,-1126,4770,23,37,862
825262,6667632,7026056,6670857,7031305,2044,3710,-300,-1243,1347,-270,-429,1687,23,37,862
826263,6667788,7026260,6671054,7031502,2113,3508,-330,-1388,1381,885,87,3525,24,45,861
827264,6667964,7026460,6671251,7031699,1997,3533,-397,-1324,1402,285,-1138,3558,24,45,861
828264,6668088,7026624,6671448,7031896,2355,3773,-435,-1144,1486,-343,-233,3715,44,33,861
829266,6668252,7026824,6671645,7032093,2121,3548,-472,-1061,1569,-642,-783,3153,44,33,861
830266,6668404,7027000,6671842,7032290,2215,3708,-480,-1128,1536,522,-402,2787,37,36,861
831268,6668548,7027204,6672039,7032487,2290,3531,-404,-1137,1542,167,-1049,4091,37,36,861
832282,6668720,7027364,6672236,7032684,2126,3800,-281,-1226,1544,881,-981,3063,35,39,861
833270,6668860,7027544,6672433,7032881,2352,3707,-198,-1445,1486,905,-351,2593,35,39,861
834271,6669012,7027772,6672630,7033078,2297,3394,-172,-1500,1494,-46,-1396,2997,25,48,861
835272,6669148,7028036,6672827,7033275,2425,3141,-144,-1354,1560,-54,-1289,3837,25,48,861
836273,6669296,7028288,6673024,7033472,2372,3193,-121,-1201,1524,978,-294,3272,22,47,860
837274,6669420,7028532,6673221,7033669,2555,3223,-97,-1084,1518,144,293,3926,22,47,860
838275,6669552,7028752,6673418,7033866,2534,3364,-156,-1044,1591,264,-40,3123,21,39,864
839276,6669676,7029044,6673615,7034063,2617,2873,-245,-1181,1549,1783,423,2591,21,39,864
840277,6669784,7029360,6673812,7034260,2757,2672,-268,-1169,1535,589,-1824,3625,33,52,861
841285,6669924,7029672,6674042,7034490,2597,2662,-190,-1020,1560,543,-2833,3971,33,52,861
842279,6670084,7029960,6674239,7034687,2489,2773,-57,-926,1595,633,279,3671,30,49,863
843280,6670224,7030280,6674436,7034884,2639,2520,-14,-1046,1697,348,-112,2310,30,49,863
844281,6670360,7030628,6674633,7035081,2692,2279,7,-1125,1772,1325,-536,3429,34,70,866
845282,6670496,7030996,6674830,7035278,2720,2080,10,-1176,1802,956,-665,2959,34,70,866
846283,6670652,7031312,6675027,7035475,2614,2353,15,-1218,1918,-404,-557,2850,36,61,867
847284,6670780,7031580,6675224,7035672,2820,2623,4,-1380,2007,583,257,2202,36,61,867
848285,6670940,7031896,6675421,7035869,2638,2271,-14,-1489,2017,1369,-11,2570,23,61,869
849286,6671080,7032260,6675618,7036066,2788,1899,63,-1311,2002,1241,-373,4233,23,61,869
850287,6671248,7032584,6675815,7036263,2626,2094,173,-1129,2030,328,-330,3179,38,74,865
851288,6671448,7032892,6676012,7036460,2426,2145,235,-1067,2039,598,602,2891,38,74,865
852289,6671648,7033216,6676209,7036657,2426,1991,206,-1061,2101,-150,633,2457,45,64,868
853290,6671828,7033572,6676406,7036854,2559,1722,130,-998,2197,13,-33,2644,45,64,868
854291,6672012,7033900,6676603,7037051,2541,1839,96,-811,2236,21,-139,3202,52,62,871
855292,6672196,7034192,6676800,7037248,2548,2023,108,-600,2264,-306,137,3111,52,62,871
856293,6672388,7034540,6676997,7037445,2501,1607,127,-425,2266,738,64,2753,48,55,872
857294,6672588,7034884,6677194,7037642,2450,1569,143,-252,2173,2077,253,2985,48,55,872
858295,6672828,7035208,6677391,7037839,2182,1638,197,-49,2071,1567,216,3104,36,62,871
859296,6673040,7035496,6677588,7038036,2351,1824,330,214,2075,552,187,3812,36,62,871
860297,6673248,7035776,6677785,7038233,2372,1837,422,396,2151,598,-38,2896,59,48,873
861298,6673464,7036116,6677982,7038430,2315,1400,406,502,2185,1182,-211,2050,59,48,873
862299,6673688,7036452,6678179,7038627,2254,1364,440,695,2149,1480,88,3607,37,57,872
863300,6673908,7036744,6678376,7038824,2270,1599,522,946,2141,612,243,3285,37,57,872
864301,6674160,7037012,6678573,7039021,2046,1717,542,961,2178,566,565,1300,36,66,874
865302,6674376,7037300,6678770,7039218,2263,1553,534,898,2130,2099,476,1814,36,66,874
866303,6674616,7037636,6678967,7039415,2096,1192,633,1230,2181,91,-61,4612,53,49,875
867304,6674868,7037976,6679164,7039612,1997,1104,692,1467,2162,1139,-925,2115,53,49,875
868305,6675088,7038304,6679361,7039809,2188,1123,673,1546,2070,1091,-1990,2089,58,59,875
869306,6675340,7038564,6679558,7040006,1965,1520,652,1779,2033,388,-3032,3390,58,59,875
870307,6675572,7038872,6679755,7040203,2075,1171,580,2099,1935,896,-626,2499,43,54,878
871308,6675824,7039216,6679952,7040400,1927,882,439,2204,1837,436,132,1251,43,54,878
872309,6676064,7039544,6680149,7040597,1984,925,350,2309,1778,751,275,3193,52,52,877
873310,6676300,7039880,6680346,7040794,1993,814,354,2541,1810,1080,-571,3790,52,52,877
874311,6676568,7040156,6680543,7040991,1762,1154,352,2565,1848,1065,67,2286,55,54,878
875312,6676832,7040500,6680740,7041188,1758,665,446,2356,1777,1526,-207,2458,55,54,878
876313,6677080,7040848,6680937,7041385,1836,573,640,2123,1663,732,-200,3560,65,69,880
877314,6677348,7041132,6681134,7041582,1681,935,770,1829,1566,197,-9,1705,65,69,880
878315,6677600,7041388,6681331,7041779,1757,1084,745,1674,1406,1148,366,2440,50,55,881
879316,6677800,7041664,6681528,7041976,2082,925,613,1823,1163,2268,394,3507,50,55,881
880317,6678036,7041960,6681725,7042173,1841,757,510,2218,1030,972,-80,4552,38,57,881
881318,6678292,7042220,6681922,7042370,1691,954,297,2440,1032,959,-289,3632,38,57,881
882319,6678496,7042456,6682119,7042567,2013,1087,108,2327,1153,1071,-1015,2884,56,39,879
883320,6678724,7042636,6682316,7042764,1850,1445,100,2163,1255,1595,-1706,5602,56,39,879
884321,6678952,7042852,6682513,7042961,1837,1211,280,1985,1313,1254,-628,5288,40,50,880
885322,6679152,7043064,6682710,7043158,2011,1230,329,1578,1357,632,-277,3244,40,50,880
886323,6679360,7043284,6682907,7043355,1957,1170,244,1369,1387,230,-384,4509,54,44,876
887324,6679628,7043496,6683104,7043552,1552,1213,130,1264,1256,-138,414,3945,54,44,876
888325,6679868,7043668,6683301,7043749,1708,1474,56,901,1021,-1334,-398,3077,48,29,878
889326,6680132,7043844,6683498,7043946,1530,1458,126,594,753,-823,-1105,5381,48,29,878
890327,6680384,7044016,6683695,7044143,1582,1494,137,295,468,46,-1766,4703,42,26,880
891328,6680600,7044212,6683892,7044340,1798,1345,-36,41,237,601,-1621,4306,42,26,880
892329,6680828,7044416,6684089,7044537,1711,1292,-314,120,8,600,900,5515,43,43,879
893330,6681140,7044628,6684286,7044734,1136,1235,-514,190,-95,-495,150,5156,43,43,879
894331,6681404,7044824,6684483,7044931,1407,1336,-527,-199,-167,-178,-1198,4834,50,34,879
895332,6681632,7045044,6684680,7045128,1619,1175,-421,-971,-213,-30,-2202,4601,50,34,879
896333,6681888,7045220,6684877,7045325,1418,1460,-363,-1822,-286,273,-1144,4319,60,46,881
897334,6682156,7045384,6685074,7045522,1313,1549,-370,-2514,-369,479,-1041,4774,60,46,881
898335,6682416,7045552,6685271,7045719,1335,1537,-440,-2943,-481,665,-573,5489,60,28,880
899336,6682672,7045760,6685468,7045916,1335,1282,-578,-3320,-628,597,-445,4296,60,28,880
900337,6682912,7046004,6685665,7046113,1416,1036,-795,-3668,-795,842,-827,4928,52,50,879
901338,6683136,7046248,6685862,7046310,1505,1016,-917,-3756,-936,1136,-1009,5741,52,50,879
902339,6683376,7046476,6686059,7046507,1388,1102,-1045,-3827,-1053,1577,-543,4710,49,50,881
903340,6683616,7046708,6686256,7046704,1369,1062,-1189,-3826,-1193,2135,-900,4983,49,50,881
904341,6683844,7046892,6686453,7046901,1431,1367,-1305,-3771,-1297,1778,-731,4867,49,42,881
905342,6684092,7047108,6686650,7047098,1284,1159,-1357,-3762,-1358,1763,-785,4188,49,42,881
906343,6684284,7047392,6686847,7047295,1637,696,-1334,-3825,-1449,2447,-925,4072,54,52,881
907344,6684500,7047592,6687044,7047492,1478,1220,-1287,-3886,-1581,2863,-842,3678,54,52,881
908345,6684728,7047804,6687241,7047689,1391,1138,-1277,-3936,-1702,2487,-60,2770,31,41,881
909346,6684920,7047988,6687438,7047886,1618,1319,-1263,-3906,-1771,1931,476,3511,31,41,881
910347,6685092,7048164,6687635,7048083,1754,1378,-1193,-3664,-1836,2626,3,4426,46,25,881
911348,6685236,7048304,6687832,7048280,1953,1628,-1107,-3437,-1935,3146,414,4228,46,25,881
912349,6685388,7048460,6688029,7048477,1923,1546,-1134,-3380,-2122,4101,316,2479,29,38,879
913350,6685540,7048632,6688226,7048674,1944,1457,-1286,-3333,-2275,4671,-847,2702,29,38,879
914351,6685684,7048816,6688423,7048871,2017,1388,-1424,-2868,-2362,4877,1038,5326,40,42,876
915352,6685868,7048984,6688620,7049068,1774,1500,-1546,-2316,-2290,3443,753,4316,40,42,876
916353,6686016,7049152,6688817,7049265,2021,1513,-1677,-2203,-2093,2271,-1154,1954,23,39,877
917354,6686168,7049316,6689014,7049462,2016,1553,-1700,-2304,-1958,2737,-1307,2766,23,39,877
918355,6686340,7049464,6689211,7049659,1903,1674,-1510,-1979,-1950,3854,-712,6196,20,25,876
919356,6686484,7049596,6689408,7049856,2101,1803,-1272,-1233,-2002,5256,-506,6305,20,25,876
920357,6686604,7049700,6689605,7050053,2286,2019,-1212,-720,-2023,5998,-1409,3377,21,17,875
921358,6686788,7049840,6689802,7050250,1892,1819,-1232,-569,-1971,5703,-125,3268,21,17,875
922359,6686960,7049992,6689999,7050447,1979,1763,-1141,-395,-1803,4336,791,4887,21,32,874
923360,6687132,7050140,6690196,7050644,1990,1810,-1033,-393,-1571,3242,-709,2553,21,32,874
924370,6687340,7050260,6690426,7050874,1776,2033,-933,-340,-1310,3400,-1264,3530,22,19,875
925362,6687512,7050364,6690623,7051071,2013,2174,-848,136,-1037,3810,-1242,5582,22,19,875
926363,6687696,7050484,6690820,7051268,1943,2109,-747,1005,-898,5375,-1667,6494,34,16,875
927364,6687912,7050604,6691017,7051465,1736,2143,-626,1730,-825,4731,-1398,5322,34,16,875
928364,6688132,7050728,6691214,7051662,1701,2150,-496,2008,-652,2542,-994,4100,40,22,871
929366,6688364,7050836,6691411,7051859,1612,2289,-376,2054,-412,2311,-1520,4086,40,22,871
930367,6688596,7050948,6691608,7052056,1597,2301,-242,2102,-235,2694,-2320,4412,35,15,871
931368,6688832,7051040,6691805,7052253,1555,2473,-68,2196,24,771,-2694,5089,35,15,871
932369,6689076,7051148,6692002,7052450,1485,2413,33,2158,294,289,-1799,3482,50,23,874
933370,6689316,7051248,6692199,7052647,1491,2505,-64,1870,472,259,-1898,1673,50,23,874
934371,6689540,7051384,6692396,7052844,1581,2307,-175,1584,541,624,-2630,3649,55,32,873
935372,6689760,7051504,6692593,7053041,1595,2442,-162,1518,497,1411,-2931,5109,55,32,873
936373,6689988,7051584,6692790,7053238,1533,2743,-119,1455,412,1304,-1978,4861,50,17,873
937374,6690256,7051704,6692987,7053435,1252,2527,-100,1301,401,514,-2416,4924,50,17,873
938375,6690492,7051788,6693184,7053632,1436,2802,-90,1086,440,307,-2815,4874,41,24,873
939376,6690708,7051936,6693381,7053829,1552,2424,-1,976,476,225,-1384,5637,41,24,873
940377,6690976,7052056,6693578,7054026,1197,2633,54,876,521,-197,-1838,4245,40,13,872
941378,6691224,7052184,6693775,7054223,1300,2615,-51,831,513,126,321,3404,40,13,872
942379,6691444,7052348,6693972,7054420,1465,2404,-216,845,419,727,1785,3522,44,19,873
943380,6691704,7052480,6694169,7054617,1188,2633,-357,674,261,1005,916,2705,44,19,873
944381,6691956,7052644,6694366,7054814,1215,2448,-384,382,169,680,-111,3383,38,31,871
945382,6692164,7052844,6694563,7055011,1485,2222,-240,80,145,570,-1124,4434,38,31,871
946383,6692380,7053040,6694760,7055208,1427,2248,-28,-327,92,958,-477,3823,40,40,873
947384,6692656,7053208,6694957,7055405,1018,2436,63,-819,16,871,-132,3207,40,40,873
948385,6692840,7053404,6695154,7055602,1599,2261,50,-909,25,442,-561,4933,35,29,875
949386,6693048,7053584,6695351,7055799,1445,2370,-6,-847,42,971,241,4595,35,29,875
950387,6693284,7053776,6695548,7055996,1253,2297,-143,-921,13,1692,951,2716,54,47,874
951388,6693528,7053980,6695745,7056193,1183,2220,-339,-919,8,1182,281,3580,54,47,874
952389,6693772,7054188,6695942,7056390,1162,2190,-476,-657,102,-10,-9,4674,39,51,873
953390,6694000,7054440,6696139,7056587,1249,1891,-557,-502,228,-389,525,3463,41,52,876
954391,6694220,7054672,6696336,7056784,1289,2002,-613,-614,290,283,-163,2995,41,52,876
955392,6694412,7054912,6696533,7056981,1468,1933,-520,-605,291,1074,-832,4993,48,45,878
956393,6694604,7055164,6696730,7057178,1470,1835,-274,-897,307,706,-252,3679,48,45,878
957394,6694808,7055424,6696927,7057375,1392,1757,-8,-1390,341,530,-344,2932,36,47,877
958395,6694996,7055656,6697124,7057572,1497,1916,213,-1841,315,1626,-852,2952,36,47,877
959396,6695196,7055868,6697321,7057769,1420,2036,276,-1966,360,905,-1099,3307,46,36,879
960397,6695364,7056100,6697518,7057966,1634,1896,156,-1698,447,432,-469,3114,46,36,879
961398,6695536,7056336,6697715,7058163,1620,1854,6,-947,576,-359,-40,5508,31,45,875
962399,6695708,7056556,6697912,7058360,1631,1944,-160,-238,691,-143,-25,4053,31,45,875
963400,6695876,7056792,6698109,7058557,1670,1827,-311,3,725,773,-854,2876,40,51,877
964401,6696016,7057012,6698306,7058754,1870,1918,-130,-59,767,252,-948,3813,40,51,877
965402,6696176,7057224,6698503,7058951,1762,1961,82,-282,775,-1,-295,4265,21,37,877
966403,6696368,7057460,6698700,7059148,1564,1794,270,-586,764,-645,-791,3850,21,37,877
967404,6696520,7057724,6698897,7059345,1835,1591,278,-942,852,-991,-461,3525,30,40,875
968405,6696676,7057912,6699094,7059542,1828,2070,238,-1037,1067,-435,-595,5089,30,40,875
969406,6696852,7058132,6699291,7059739,1713,1860,258,-907,1300,290,-1050,5287,39,46,876
970407,6697016,7058344,6699488,7059936,1803,1903,324,-822,1483,738,-1227,4337,39,46,876
971408,6697164,7058536,6699685,7060133,1924,2031,425,-654,1644,1164,-1408,5674,44,35,875
972409,6697336,7058744,6699882,7060330,1786,1926,477,-425,1742,1688,-441,5291,44,35,875
973410,6697500,7058940,6700079,7060527,1851,2002,412,-256,1794,1262,-165,4611,37,45,872
974411,6697664,7059096,6700276,7060724,1866,2271,365,-70,1853,1057,-1357,5798,37,45,872
975412,6697872,7059260,6700473,7060921,1587,2235,446,-2,1990,419,-920,4894,28,30,874
976413,6698052,7059444,6700670,7061118,1770,2116,557,-102,2143,564,-998,3925,28,30,874
977414,6698232,7059604,6700867,7061315,1777,2283,665,-87,2277,679,-1547,4457,24,24,874
978415,6698420,7059784,6701064,7061512,1732,2166,708,-54,2450,117,-563,3981,24,24,874
979416,6698572,7059936,6701261,7061709,1977,2361,662,56,2641,-10,-1318,3846,40,28,873
980417,6698740,7060120,6701458,7061906,1891,2167,606,272,2698,781,-788,4938,40,28,873
981418,6698904,7060276,6701655,7062103,1930,2360,518,556,2725,219,-669,4592,38,36,871
982419,6699092,7060428,6701852,7062300,1785,2405,424,622,2756,201,-841,3454,38,36,871
983420,6699260,7060584,6702049,7062497,1923,2399,405,752,2836,162,-878,5240,26,27,870
984421,6699460,7060756,6702246,7062694,1723,2310,428,908,2925,-29,-902,4099,26,27,870
985422,6699640,7060940,6702443,7062891,1856,2241,435,998,2982,122,-324,4371,37,37,871
986423,6699820,7061160,6702640,7063088,1864,2007,447,966,3027,24,-973,3829,37,37,871
987424,6699948,7061364,6702837,7063285,2220,2104,483,826,3130,-304,-886,3802,32,40,873
988425,6700124,7061596,6703034,7063482,1929,1913,584,785,3278,370,-688,4567,32,40,873
989426,6700272,7061844,6703231,7063679,2127,1792,655,697,3319,622,-111,3918,30,48,872
990427,6700432,7062072,6703428,7063876,2068,1903,684,683,3297,-621,-336,4805,30,48,872
991428,6700580,7062324,6703625,7064073,2166,1729,697,631,3262,-1646,-223,4676,26,58,874
992429,6700692,7062588,6703822,7064270,2428,1626,706,495,3237,-828,-1046,3512,26,58,874
993430,6700868,7062884,6704019,7064467,2038,1382,743,455,3203,-565,455,4532,50,62,873
994431,6701072,7063228,6704216,7064664,1861,1018,741,429,3169,-1003,-31,3849,50,62,873
995432,6701244,7063520,6704413,7064861,2072,1302,725,385,3060,-365,-826,3795,41,48,875
996433,6701424,7063696,6704610,7065058,2031,2036,752,470,2931,-513,-663,4636,41,48,875
997434,6701616,7063904,6704807,7065255,1958,1831,794,450,2874,-1315,-1851,3838,49,32,877
998435,6701764,7064108,6705004,7065452,2255,1853,903,377,2778,-187,845,4855,49,32,877
999436,6701932,7064336,6705201,7065649,2144,1691,892,133,2737,-216,39,2690,44,42,875
1000437,6702072,7064628,6705398,7065846,2344,1249,848,-24,2713,-403,-259,4206,44,42,875
1001438,6702244,7064908,6705595,7066043,2156,1287,933,206,2737,-1347,-666,6101,26,53,874
1002439,6702384,7065104,6705792,7066240,2382,1813,952,137,2689,-1141,180,2530,26,53,874
1003440,6702540,7065388,6705989,7066437,2300,1225,941,-93,2616,-792,-656,3816,34,59,877
1004441,6702684,7065692,6706186,7066634,2399,1053,1010,-97,2462,214,-852,5132,34,59,877
1005442,6702812,7066004,6706383,7066831,2531,953,1057,-103,2413,-739,-1462,3591,26,55,874
1006443,6702944,7066332,6706580,7067028,2534,795,1062,-287,2369,-17,-553,3277,26,55,874
1007451,6703068,7066648,6706810,7067258,2632,833,999,-277,2307,367,-449,4686,21,61,875
1008445,6703232,7066956,6707007,7067455,2397,834,866,-96,2190,887,-1060,3798,21,61,875
1009446,6703372,7067224,6707204,7067652,2572,1054,683,136,1997,1089,-460,4014,32,54,875
1010447,6703540,7067444,6707401,7067849,2411,1343,478,511,1806,429,-480,4524,32,54,875
1011448,6703696,7067736,6707598,7068046,2505,852,305,907,1608,471,633,5475,28,59,875
1012449,6703852,7068016,6707795,7068243,2524,890,187,1168,1390,464,414,5156,28,59,875
1013450,6704028,7068300,6707992,7068440,2408,827,141,1206,1166,889,306,5001,43,47,876
1014451,6704176,7068560,6708189,7068637,2606,949,124,1203,993,1186,-167,5182,43,47,876
1015452,6704332,7068800,6708386,7068834,2575,1055,35,1357,862,1282,722,4144,27,55,875
1016453,6704508,7069064,6708583,7069031,2460,876,-157,1762,760,1246,2676,4196,27,55,875
1017454,6704676,7069380,6708780,7069228,2523,499,-307,2169,760,513,1596,3543,48,61,873
1018455,6704852,7069636,6708977,7069425,2483,848,-333,2123,783,514,-41,2853,48,61,873
1019456,6705028,7069852,6709174,7069622,2493,1089,-252,1736,648,1752,288,2632,39,52,876
1020457,6705228,7070048,6709371,7069819,2343,1215,-234,1174,423,1349,216,2080,39,52,876
1021458,6705412,7070216,6709568,7070016,2449,1403,-243,1009,240,933,-182,4161,52,44,874
1022459,6705604,7070408,6709765,7070213,2402,1255,-273,1146,79,690,81,4568,52,44,874
1023460,6705824,7070612,6709962,7070410,2218,1177,-324,1230,-58,-530,-120,4233,39,36,874
1024461,6705980,7070780,6710159,7070607,2637,1414,-278,1249,-250,-291,-72,6252,39,36,874
1025462,6706160,7070992,6710356,7070804,2495,1133,-236,920,-536,-224,-256,4385,48,29,876
1026463,6706372,7071168,6710553,7071001,2289,1366,-261,494,-846,-366,153,4809,48,29,876
1027464,6706552,7071352,6710750,7071198,2497,1322,-371,206,-1153,239,165,5358,31,36,874
1028465,6706732,7071540,6710947,7071395,2506,1301,-542,297,-1433,750,377,6061,31,36,874
1029466,6706920,7071724,6711144,7071592,2461,1331,-720,665,-1596,444,763,6336,41,49,874
1030467,6707100,7071972,6711341,7071789,2519,909,-894,978,-1658,687,555,5025,41,49,874
1031468,6707288,7072204,6711538,7071986,2473,994,-1016,1190,-1662,1243,338,4923,35,53,874
1032469,6707516,7072416,6711735,7072183,2211,1112,-1051,1326,-1663,1644,-426,4687,35,53,874
1033470,6707696,7072628,6711932,7072380,2519,1106,-979,1404,-1645,1407,-826,4507,49,32,876
1034471,6707880,7072800,6712129,7072577,2501,1367,-804,1197,-1600,347,-1464,3828,49,32,876
1035472,6708076,7072960,6712326,7072774,2427,1458,-588,753,-1548,205,-2268,3720,26,40,875
1036473,6708244,7073112,6712523,7072971,2615,1528,-374,363,-1503,212,-2213,4469,26,40,875
1037474,6708412,7073236,6712720,7073168,2629,1735,-243,-78,-1499,-240,-2312,3378,34,19,872
1038475,6708568,7073356,6712917,7073365,2723,1793,-232,-277,-1580,-778,-1465,4318,34,19,872
1039476,6708756,7073484,6713114,7073562,2528,1774,-307,-330,-1672,-1519,-2142,4380,41,14,870
1040477,6708928,7073592,6713311,7073759,2640,1938,-416,-160,-1864,-475,-1138,5205,41,14,870
1041478,6709124,7073700,6713508,7073956,2491,1977,-512,-21,-2006,-1178,-1415,4888,30,21,871
1042479,6709312,7073804,6713705,7074153,2545,2043,-525,-44,-2098,-486,-1432,5337,30,21,871
1043480,6709508,7073900,6713902,7074350,2496,2137,-444,-248,-2166,27,-2114,5057,30,30,870
1044481,6709724,7074020,6714099,7074547,2364,2021,-342,-507,-2176,139,-1427,4819,30,30,870
1045482,6709920,7074112,6714296,7074744,2491,2242,-296,-720,-2097,-204,-957,3722,29,23,869
1046483,6710124,7074196,6714493,7074941,2438,2343,-293,-898,-1996,184,-1186,3756,29,23,869
1047484,6710316,7074296,6714690,7075138,2517,2286,-251,-844,-1892,444,-1746,4597,52,25,869
1048485,6710560,7074372,6714887,7075335,2171,2489,-192,-843,-1806,470,-1644,3478,52,25,869
1049486,6710780,7074488,6715084,7075532,2312,2274,-121,-827,-1805,1067,-1019,3834,44,28,867
1050487,6710992,7074620,6715281,7075729,2356,2203,-54,-763,-1774,163,-817,4036,44,28,867
1051488,6711244,7074732,6715478,7075926,2083,2365,-16,-787,-1681,-607,-1237,2902,43,32,870
1052489,6711476,7074856,6715675,7076123,2194,2323,20,-859,-1603,-176,-1364,3406,43,32,870
1053490,6711720,7074972,6715872,7076320,2099,2409,88,-925,-1604,699,-1351,3265,47,21,871
1054491,6711956,7075080,6716069,7076517,2132,2498,152,-1017,-1666,1463,-1012,3346,47,21,871
1055492,6712208,7075188,6716266,7076714,2009,2537,191,-1107,-1708,1250,-364,3064,42,30,870
1056493,6712472,7075280,6716463,7076911,1905,2684,187,-1078,-1653,791,-48,3440,42,30,870
1057494,6712728,7075396,6716660,7077108,1930,2570,110,-960,-1548,950,-60,2628,41,31,870
1058495,6712984,7075512,6716857,7077305,1905,2605,-20,-873,-1428,708,157,2470,41,31,870
1059496,6713264,7075620,6717054,7077502,1719,2696,-109,-758,-1305,225,-119,2912,66,25,869
1060497,6713536,7075732,6717251,7077699,1737,2708,-156,-738,-1279,705,-230,2520,66,25,869
1061498,6713828,7075868,6717448,7077896,1571,2585,-103,-756,-1334,702,-764,2737,50,33,869
1062499,6714116,7075976,6717645,7078093,1556,2800,-3,-897,-1415,1032,-401,2976,50,33,869
1063500,6714364,7076096,6717842,7078290,1785,2759,80,-1080,-1379,594,-401,2242,44,30,871
1064501,6714688,7076212,6718039,7078487,1255,2820,87,-1298,-1303,1152,324,1911,44,30,871
1065502,6714972,7076332,6718236,7078684,1467,2829,30,-1333,-1175,847,348,2429,62,32,869
1066503,6715252,7076460,6718433,7078881,1456,2809,4,-1260,-1038,566,381,2000,62,32,869
1067504,6715540,7076584,6718630,7079078,1366,2867,-15,-1247,-919,858,-166,2095,46,34,870
1068505,6715812,7076684,6718827,7079275,1434,3060,34,-1213,-815,728,-457,2064,46,34,870
1069506,6716088,7076800,6719024,7079472,1376,2997,91,-1238,-676,205,-1153,2086,66,30,869
1070507,6716380,7076916,6719221,7079669,1234,3032,153,-1287,-638,939,-473,2271,66,30,869
1071508,6716644,7077036,6719418,7079866,1381,3042,237,-1443,-634,315,-63,2066,67,32,868
1072509,6716912,7077168,6719615,7080063,1324,2996,287,-1620,-649,311,220,2147,67,32,868
1073510,6717200,7077308,6719812,7080260,1160,2972,319,-1753,-705,680,139,2666,66,37,869
1074511,6717448,7077440,6720009,7080457,1388,3051,336,-1876,-716,-121,266,2664,66,37,869
1075512,6717696,7077576,6720206,7080654,1367,3053,297,-2029,-699,154,618,2317,44,21,870
1076513,6717952,7077716,6720403,7080851,1291,3054,198,-2146,-656,202,-224,2840,44,21,870
1077514,6718232,7077868,6720600,7081048,1105,2999,157,-2082,-600,43,-349,3845,60,32,869
1078515,6718476,7078020,6720797,7081245,1309,3020,79,-2175,-599,578,-180,2630,60,32,869
1079516,6718716,7078128,6720994,7081442,1317,3335,13,-2294,-624,890,-183,2987,49,22,870
1080517,6718960,7078296,6721191,7081639,1271,2973,-41,-2502,-604,556,-263,3314,49,22,870
1081518,6719176,7078440,6721388,7081836,1438,3147,-65,-2668,-576,432,-322,2947,36,39,866
1082519,6719408,7078616,6721585,7082033,1323,2956,-74,-2906,-575,518,-34,3141,36,39,866
1083520,6719644,7078768,6721782,7082230,1281,3127,-100,-3070,-550,390,-145,3404,39,25,864
1084521,6719876,7078928,6721979,7082427,1292,3094,-157,-3170,-515,519,45,3381,39,25,864
1085522,6720112,7079088,6722176,7082624,1250,3110,-223,-3161,-490,646,87,3586,51,40,869
1086523,6720368,7079240,6722373,7082821,1099,3181,-265,-3211,-486,491,78,3582,51,40,869
1087524,6720584,7079408,6722570,7083018,1341,3095,-255,-3272,-411,-142,-312,3802,43,32,869
1088525,6720800,7079576,6722767,7083215,1333,3108,-250,-3418,-361,433,137,3474,43,32,869
1089526,6721068,7079728,6722964,7083412,978,3228,-258,-3589,-366,474,-44,3302,36,31,869
1090534,6721296,7079920,6723194,7083642,1229,2996,-233,-3759,-375,261,-213,3775,36,31,869
1091528,6721552,7080104,6723391,7083839,1028,3053,-196,-3870,-386,284,112,4020,59,34,869
1092529,6721804,7080276,6723588,7084036,1029,3139,-210,-3975,-355,154,-3,3444,59,34,869
1093530,6722040,7080456,6723785,7084233,1112,3097,-253,-3981,-229,-91,-575,4147,40,44,870
1094531,6722276,7080628,6723982,7084430,1095,3159,-268,-3721,-199,1332,-124,5617,40,44,870
1095532,6722492,7080812,6724179,7084627,1213,3090,-328,-3509,-275,1889,-914,4287,53,42,870
1096533,6722740,7081000,6724376,7084824,990,3070,-418,-3358,-223,647,-195,4533,53,42,870
1097534,6722964,7081192,6724573,7085021,1129,3048,-447,-3132,-74,691,-493,5309,33,43,870
1098535,6723188,7081384,6724770,7085218,1118,3051,-427,-2976,24,1089,-338,4791,33,43,870
1099536,6723424,7081588,6724967,7085415,1026,2973,-420,-2910,100,1193,25,4270,53,49,871
1100537,6723644,7081780,6725164,7085612,1115,3051,-418,-2856,163,1508,265,4508,53,49,871
1101538,6723824,7081952,6725361,7085809,1373,3188,-374,-2814,211,1791,-518,4976,42,45,870
1102539,6724040,7082136,6725558,7086006,1141,3120,-290,-2912,254,1663,-891,4310,42,45,870
1103540,6724224,7082300,6725755,7086203,1346,3260,-177,-2925,255,2466,-860,5852,32,37,868
1104541,6724388,7082496,6725952,7086400,1486,3061,-117,-2790,240,2598,-1420,5073,32,37,868
1105542,6724576,7082720,6726149,7086597,1341,2875,-89,-2569,314,1573,-179,5864,28,49,866
1106543,6724740,7082904,6726346,7086794,1505,3132,-74,-2371,457,1414,-1071,4922,28,49,866
1107544,6724932,7083100,6726543,7086991,1332,3057,-49,-2255,590,1391,-116,5848,26,47,870
1108545,6725104,7083252,6726740,7087188,1469,3353,-39,-2229,722,1100,-750,4996,26,47,870
1109546,6725272,7083428,6726937,7087385,1507,3213,-33,-2170,824,1418,-1118,5913,23,43,869
1110547,6725432,7083636,6727134,7087582,1573,3010,-60,-2067,838,1921,-1003,5582,23,43,869
1111548,6725612,7083824,6727331,7087779,1456,3139,-88,-2006,853,934,69,5270,41,31,867
1112549,6725776,7083980,6727528,7087976,1571,3358,-157,-1917,915,598,-692,5439,41,31,867
1113550,6725924,7084160,6727725,7088173,1693,3216,-177,-1727,916,1899,-915,6143,25,34,868
1114551,6726124,7084292,6727922,7088370,1367,3546,-197,-1530,909,1635,-1287,5939,25,34,868
1115552,6726276,7084440,6728119,7088567,1687,3467,-186,-1442,978,842,-1161,5748,43,35,865
1116553,6726412,7084596,6728316,7088764,1814,3436,-114,-1426,1031,1071,-1455,6092,43,35,865
1117554,6726552,7084736,6728513,7088961,1815,3562,-6,-1528,1095,483,-886,5339,24,33,864
1118555,6726748,7084876,6728710,7089158,1466,3588,95,-1672,1189,230,-1365,5274,24,33,864
1119556,6726888,7085032,6728907,7089355,1841,3507,154,-1809,1257,490,-942,5025,27,31,860
1120557,6727064,7085160,6729104,7089552,1626,3713,197,-1813,1249,617,-377,5356,27,31,860
1121558,6727244,7085324,6729301,7089749,1608,3503,218,-1807,1265,-174,-456,5130,30,25,863
1122559,6727388,7085472,6729498,7089946,1857,3626,228,-1825,1294,-84,-1099,4698,30,25,863
1123560,6727556,7085624,6729695,7090143,1720,3621,256,-1744,1276,281,-450,5689,37,39,864
1124561,6727764,7085796,6729892,7090340,1466,3508,268,-1667,1254,-142,-321,4994,37,39,864
1125562,6727928,7085944,6730089,7090537,1756,3681,277,-1660,1230,-132,-811,4811,25,40,861
1126563,6728116,7086092,6730286,7090734,1610,3702,293,-1733,1225,-466,-365,5122,25,40,861
1127564,6728284,7086260,6730483,7090931,1748,3591,303,-1864,1229,-492,-814,4417,43,31,861
1128565,6728464,7086472,6730680,7091128,1681,3311,337,-1940,1186,355,-245,5506,43,31,861
1129566,6728620,7086652,6730877,7091325,1849,3519,397,-1897,1103,837,-42,5559,44,45,861
1130567,6728820,7086852,6731074,7091522,1574,3394,369,-2075,1147,-228,-440,3755,44,45,861
1131568,6729016,7087020,6731271,7091719,1599,3607,337,-2114,1192,639,-237,5246,29,40,864
1132569,6729196,7087200,6731468,7091916,1708,3541,284,-2115,1248,-130,-789,4744,29,40,864
1133570,6729396,7087388,6731665,7092113,1582,3496,216,-1969,1323,-372,-408,5065,32,28,864
1134571,6729592,7087552,6731862,7092310,1607,3661,174,-1838,1369,108,-670,5070,32,28,864
1135572,6729784,7087728,6732059,7092507,1635,3597,132,-1830,1312,655,246,4434,32,39,864
1136573,6729952,7087924,6732256,7092704,1798,3472,122,-1965,1242,247,75,4083,32,39,864
1137574,6730156,7088092,6732453,7092901,1571,3661,127,-2014,1261,-287,0,4899,31,40,861
1138575,6730348,7088284,6732650,7093098,1648,3514,123,-1968,1325,-332,-210,4309,31,40,861
1139576,6730544,7088440,6732847,7093295,1625,3758,83,-1937,1372,-552,114,3950,47,31,863
1140577,6730752,7088612,6733044,7093492,1545,3670,44,-1820,1430,-766,-569,4665,47,31,863
1141577,6730936,7088800,6733241,7093689,1701,3575,41,-1755,1474,-778,-590,4257,46,27,862
1142579,6731100,7088976,6733438,7093886,1841,3660,44,-1751,1499,-634,181,3701,46,27,862
1143580,6731292,7089184,6733635,7094083,1668,3456,9,-1873,1459,57,487,3083,37,33,863
1144581,6731452,7089416,6733832,7094280,1885,3292,-26,-1930,1328,938,683,3841,37,33,863
1145581,6731648,7089628,6734029,7094477,1661,3411,-27,-1782,1187,966,872,4789,35,45,864
1146583,6731828,7089828,6734226,7094674,1769,3486,-71,-1705,1207,-426,-596,3451,35,45,864
1147584,6731972,7090032,6734423,7094871,2018,3459,-104,-1680,1283,-567,-4,4194,27,44,864
1148585,6732128,7090220,6734620,7095068,1962,3564,-84,-1613,1288,111,-338,4359,27,44,864
1149586,6732296,7090432,6734817,7095265,1899,3407,-116,-1624,1190,969,203,3394,32,44,862
1150587,6732456,7090636,6735014,7095462,1967,3455,-201,-1701,1167,193,-130,3161,32,44,862
1151588,6732596,7090824,6735211,7095659,2117,3560,-233,-1675,1201,-220,-13,4265,23,28,862
1152589,6732732,7091012,6735408,7095856,2169,3565,-201,-1583,1246,-466,-115,4333,23,28,862
1153590,6732872,7091188,6735605,7096053,2170,3650,-207,-1590,1215,256,11,3283,27,28,861
1154591,6733004,7091364,6735802,7096250,2249,3661,-247,-1496,1166,404,-129,4085,27,28,861
1155592,6733164,7091556,6735999,7096447,2090,3564,-277,-1418,1157,21,-941,3505,44,29,860
1156593,6733324,7091748,6736196,7096644,2108,3567,-261,-1364,1192,-299,-1034,3813,44,29,860
1157593,6733492,7091936,6736393,7096841,2070,3597,-269,-1399,1184,179,-658,2807,42,27,860
1158595,6733640,7092112,6736590,7097038,2218,3682,-274,-1339,1177,-38,161,4159,42,27,860
1159596,6733788,7092296,6736787,7097235,2239,3639,-320,-1285,1180,149,-556,3075,35,29,859
1160597,6733936,7092500,6736984,7097432,2262,3512,-322,-1194,1150,448,-423,3846,35,29,859
1161598,6734088,7092688,6737181,7097629,2258,3617,-290,-1132,1113,12,-789,3623,25,45,859
1162599,6734264,7092876,6737378,7097826,2117,3622,-292,-1151,1061,331,-279,3057,25,45,859
1163600,6734404,7093060,6737575,7098023,2368,3653,-372,-1169,1018,366,-411,3172,35,40,860
1164601,6734560,7093260,6737772,7098220,2286,3552,-441,-1075,1022,122,-1572,3857,35,40,860
1165602,6734696,7093516,6737969,7098417,2439,3177,-446,-883,1011,318,-1015,4449,31,47,860
1166603,6734832,7093804,6738166,7098614,2467,2938,-432,-788,953,410,293,3704,31,47,860
1167604,6734976,7094056,6738363,7098811,2440,3140,-433,-798,1003,-741,299,3858,41,57,862
1168605,6735104,7094276,6738560,7099008,2571,3331,-480,-1084,1050,900,-981,2248,41,57,862
1169606,6735208,7094560,6738757,7099205,2762,2894,-489,-1395,959,2136,-1599,2727,36,57,862
1170607,6735324,7094852,6738954,7099402,2724,2803,-396,-1444,1002,120,-1609,4127,36,57,862
1171608,6735476,7095188,6739151,7099599,2519,2468,-248,-1340,1126,307,-759,4274,30,64,861
1172609,6735616,7095484,6739348,7099796,2621,2675,-174,-1264,1168,1405,-1010,2961,30,64,861
1173616,6735768,7095796,6739578,7100026,2580,2539,-195,-1274,1122,1757,-825,2890,30,54,866
1174611,6735896,7096128,6739775,7100223,2761,2356,-213,-1244,1152,920,-939,3774,30,54,866
1175612,6736036,7096456,6739972,7100420,2712,2324,-228,-1253,1281,241,-1363,2800,32,60,864
1176613,6736176,7096768,6740169,7100617,2737,2375,-201,-1338,1410,138,-1041,2881,32,60,864
1177614,6736308,7097080,6740366,7100814,2817,2325,-187,-1530,1483,396,-619,2212,31,54,867
1178615,6736464,7097376,6740563,7101011,2686,2382,-134,-1562,1468,1652,-276,3372,31,54,867
1179616,6736608,7097720,6740760,7101208,2785,2018,-43,-1530,1398,1928,-258,3206,30,72,866
1180617,6736772,7098064,6740957,7101405,2676,1955,50,-1515,1410,449,-317,2932,30,72,866
1181618,6736968,7098356,6741154,7101602,2476,2238,137,-1508,1510,-246,103,3040,29,58,867
1182619,6737156,7098708,6741351,7101799,2531,1796,156,-1562,1612,-62,85,2351,29,58,867
1183620,6737340,7099052,6741548,7101996,2563,1781,116,-1550,1648,284,-324,2457,33,67,868
1184620,6737540,7099376,6741745,7102193,2462,1851,105,-1407,1685,-506,-31,3231,33,67,868
1185621,6737720,7099680,6741942,7102390,2596,1930,147,-1194,1736,-189,125,3435,42,65,870
1186623,6737900,7099976,6742139,7102587,2603,1937,174,-1062,1714,1267,238,2347,42,65,870
1187624,6738116,7100324,6742336,7102784,2371,1547,195,-1015,1601,2262,336,2423,34,54,869
1188625,6738336,7100700,6742533,7102981,2337,1293,289,-822,1524,1704,407,3699,34,54,869
1189625,6738544,7100988,6742730,7103178,2408,1803,459,-599,1597,384,252,3482,56,51,872
1190626,6738780,7101260,6742927,7103375,2217,1871,584,-401,1697,779,295,2869,56,51,872
1191628,6738972,7101628,6743124,7103572,2494,1196,675,-246,1737,1281,314,2968,50,60,871
1192629,6739184,7101936,6743321,7103769,2364,1523,779,-87,1705,1655,681,3334,50,60,871
1193630,6739416,7102268,6743518,7103966,2224,1314,871,12,1732,369,862,2060,49,69,872
1194631,6739656,7102552,6743715,7104163,2156,1575,894,-85,1800,1053,1165,958,49,69,872
1195632,6739896,7102848,6743912,7104360,2138,1458,940,-74,1801,2174,860,2621,63,55,875
1196633,6740108,7103192,6744109,7104557,2307,1093,1081,303,1870,229,-178,4541,63,55,875
1197634,6740360,7103540,6744306,7104754,2034,1002,1139,602,1869,891,-1170,1708,58,66,874
1198635,6740568,7103864,6744503,7104951,2305,1096,1082,660,1851,570,-3534,1307,58,66,874
1199636,6740828,7104164,6744700,7105148,1953,1202,1033,987,1821,698,-2771,3305,39,71,877
1200637,6741064,7104540,6744897,7105345,2086,648,976,1436,1725,881,441,2400,39,71,877
1201638,6741296,7104896,6745094,7105542,2097,703,795,1603,1822,361,-81,441,43,68,877
1202639,6741560,7105200,6745291,7105739,1868,981,627,2024,1867,635,855,3761,43,68,877
1203640,6741812,7105492,6745488,7105936,1919,1015,481,2722,1891,649,-1714,3916,42,67,877
1204641,6742040,7105820,6745685,7106133,2056,732,378,3138,1794,2407,-485,1873,42,67,877
1205642,6742300,7106176,6745882,7106330,1830,487,439,3157,1723,-551,-191,2279,63,63,878
1206643,6742592,7106488,6746079,7106527,1589,712,622,3027,1655,-99,-35,1992,63,63,878
1207644,6742860,7106784,6746276,7106724,1708,768,759,2833,1511,621,-207,1430,43,66,878
1208645,6743100,7107040,6746473,7106921,1865,992,838,2709,1345,752,1327,2454,43,66,878
1209646,6743352,7107364,6746670,7107118,1766,511,883,2809,1201,1065,1037,3121,38,59,881
1210647,6743572,7107696,6746867,7107315,1956,402,802,2948,1103,1817,-504,3056,38,59,881
1211648,6743852,7107940,6747064,7107512,1546,931,651,2889,1015,373,284,1469,39,49,878
1212649,6744072,7108156,6747261,7107709,1911,1098,529,2827,1056,-629,-1611,3219,39,49,878
1213650,6744316,7108336,6747458,7107906,1741,1331,563,3160,998,1883,-490,5660,38,47,880
1214651,6744544,7108576,6747655,7108103,1829,937,521,3331,1057,475,68,3810,38,47,880
1215652,6744752,7108796,6747852,7108300,1949,1052,428,3083,1249,517,331,3094,36,40,877
1216653,6744996,7109040,6748049,7108497,1704,881,462,2549,1397,1215,-233,4316,36,40,877
1217654,6745288,7109220,6748246,7108694,1362,1288,583,1772,1447,660,-1460,3304,40,42,879
1218655,6745544,7109400,6748443,7108891,1562,1296,728,1191,1462,-404,-2532,4621,40,42,879
1219656,6745800,7109564,6748640,7109088,1537,1409,658,1166,1434,-1185,-1845,5089,58,38,879
1220657,6746044,7109788,6748837,7109285,1592,1022,317,1413,1235,-233,874,3759,58,38,879
1221658,6746268,7110040,6749034,7109482,1705,823,-58,1730,798,555,1391,5370,62,49,879
1222659,6746544,7110284,6749231,7109679,1346,853,-324,1914,447,-930,-1038,5410,62,49,879
1223660,6746796,7110488,6749428,7109876,1473,1100,-489,1743,266,-1093,-1844,4725,61,49,880
1224661,6747048,7110684,6749625,7110073,1449,1150,-596,1353,123,-227,-19,4622,61,49,880
1225662,6747292,7110836,6749822,7110270,1479,1445,-588,606,32,-1034,639,4413,38,46,882
1226663,6747508,7111040,6750019,7110467,1646,1117,-387,-455,-62,-296,-262,4799,38,46,882
1227664,6747780,7111268,6750216,7110664,1263,953,-180,-1643,-149,196,-2060,4531,38,44,880
1228665,6748032,7111504,6750413,7110861,1365,885,-152,-2485,-216,237,-2567,5157,38,44,880
1229666,6748276,7111716,6750610,7111058,1394,1028,-465,-2639,-372,910,-492,4660,60,52,879
1230667,6748504,7111952,6750807,7111255,1482,861,-960,-2255,-591,754,886,5049,60,52,879
1231668,6748728,7112192,6751004,7111452,1495,817,-1315,-1930,-800,660,-50,5209,56,49,882
1232669,6748988,7112392,6751201,7111649,1243,1066,-1402,-1973,-980,1507,-579,5534,56,49,882
1233670,6749240,7112624,6751398,7111846,1269,851,-1295,-2382,-1114,2045,-713,4981,60,34,882
1234671,6749456,7112888,6751595,7112043,1486,621,-1154,-3034,-1151,1808,-596,4181,60,34,882
1235672,6749704,7113088,6751792,7112240,1264,1019,-1010,-3812,-1158,1957,-462,3403,49,30,883
1236673,6749904,7113268,6751989,7112437,1563,1151,-925,-4455,-1251,2556,-782,3289,49,30,883
1237674,6750100,7113492,6752186,7112634,1589,864,-969,-4671,-1351,1917,-233,3625,47,32,881
1238675,6750328,7113640,6752383,7112831,1376,1361,-1122,-4474,-1358,1302,219,3990,47,32,881
1239676,6750496,7113772,6752580,7113028,1764,1490,-1303,-3998,-1376,2463,132,4750,31,28,879
1240677,6750660,7113916,6752777,7113225,1804,1438,-1485,-3597,-1487,3691,-422,3784,31,28,879
1241678,6750840,7114080,6752974,7113422,1711,1327,-1617,-3311,-1658,4351,865,4063,22,34,879
1242679,6750992,7114280,6753171,7113619,1907,1100,-1719,-3080,-1825,4717,534,4265,22,34,879
1243680,6751136,7114460,6753368,7113816,1980,1232,-1824,-2837,-1882,3724,-67,4187,38,32,877
1244681,6751316,7114600,6753565,7114013,1764,1508,-1893,-2630,-1820,3013,-161,3622,38,32,877
1245682,6751488,7114740,6753762,7114210,1825,1533,-1921,-2673,-1711,2858,-163,2954,25,18,878
1246683,6751656,7114864,6753959,7114407,1863,1665,-1847,-2736,-1570,2876,-549,3264,25,18,878
1247684,6751828,7114992,6754156,7114604,1850,1670,-1722,-2775,-1463,3861,110,3623,40,27,876
1248685,6751996,7115108,6754353,7114801,1887,1781,-1623,-2767,-1357,4113,-318,3187,40,27,876
1249686,6752132,7115220,6754550,7114998,2115,1843,-1551,-2663,-1195,4169,504,3931,38,31,875
1250687,6752248,7115340,6754747,7115195,2276,1827,-1527,-2465,-1020,4432,179,3642,38,31,875
1251688,6752416,7115460,6754944,7115392,1964,1861,-1580,-2291,-870,4121,-1424,3346,18,19,875
1252689,6752536,7115584,6755141,7115589,2298,1868,-1526,-1972,-747,4169,-2985,5206,18,19,875
1253690,6752708,7115716,6755338,7115786,1985,1846,-1275,-1236,-705,5624,-2121,7716,20,26,872
1254691,6752888,7115828,6755535,7115983,1943,2009,-912,-328,-674,5770,-564,7705,20,26,872
1255692,6753040,7115940,6755732,7116180,2139,2046,-696,166,-493,4052,-1048,4926,26,26,872
1256702,6753240,7116052,6755962,7116410,1852,2098,-649,168,-92,2242,-1805,3254,26,26,872
1257694,6753452,7116168,6756159,7116607,1771,2108,-588,145,312,2627,-1434,4278,39,18,873
1258695,6753648,7116280,6756356,7116804,1872,2171,-370,343,604,2717,-1772,5627,39,18,873
1259696,6753848,7116364,6756553,7117001,1846,2395,-69,696,773,2999,-1700,5937,41,23,872
1260697,6754088,7116492,6756750,7117198,1577,2151,110,905,813,3469,-2147,4382,41,23,872
1261698,6754292,7116596,6756947,7117395,1800,2342,119,1030,827,2987,-2351,4125,38,15,873
1262699,6754504,7116716,6757144,7117592,1744,2275,127,1306,875,2309,-2191,5591,38,15,873
1263700,6754752,7116852,6757341,7117789,1497,2203,263,1730,977,1651,-3024,6483,53,23,874
1264701,6754980,7116956,6757538,7117986,1609,2444,389,2190,1119,1158,-3848,5992,53,23,874
1265702,6755176,7117100,6757735,7118183,1810,2217,262,2033,1205,856,-2451,1493,52,16,873
1266703,6755432,7117224,6757932,7118380,1409,2375,70,1585,1331,-308,-2289,2962,52,16,873
1267704,6755656,7117344,6758129,7118577,1598,2433,97,1450,1365,960,-2573,6243,54,30,872
1268705,6755892,7117468,6758326,7118774,1506,2441,239,1308,1259,1533,-2575,4783,54,30,872
1269706,6756116,7117592,6758523,7118971,1570,2474,396,1185,1160,929,-1684,5641,46,25,872
1270707,6756364,7117716,6758720,7119168,1398,2506,457,890,1053,1221,-1465,4023,46,25,872
1271708,6756568,7117868,6758917,7119365,1671,2350,452,726,966,835,-716,4692,43,34,871
1272709,6756812,7118016,6759114,7119562,1400,2398,511,679,891,1027,-256,5641,43,34,871
1273710,6757096,7118184,6759311,7119759,1112,2286,457,388,791,1370,179,2446,47,42,873
1274711,6757356,7118364,6759508,7119956,1235,2218,213,-28,665,1595,1253,1951,47,42,873
1275712,6757600,7118568,6759705,7120153,1315,2066,-89,-12,566,1252,1163,3717,48,46,873
1276713,6757872,7118780,6759902,7120350,1108,2009,-367,270,465,1246,1092,3292,48,46,873
1277714,6758096,7118988,6760099,7120547,1396,2030,-567,527,424,598,115,3134,34,32,876
1278715,6758352,7119168,6760296,7120744,1170,2212,-588,740,426,406,-1171,4157,34,32,876
1279716,6758600,7119364,6760493,7120941,1198,2114,-409,658,468,348,-1264,4565,40,44,878
1280717,6758828,7119544,6760690,7121138,1310,2221,-214,137,476,974,-519,2312,40,44,878
1281718,6759040,7119752,6760887,7121335,1403,2041,-4,-310,409,1637,147,4141,49,50,874
1282719,6759312,7120000,6761084,7121532,996,1770,166,-557,310,1389,191,3750,49,50,874
1283720,6759520,7120220,6761281,7121729,1391,1935,144,-873,212,949,-80,1627,54,53,875
1284721,6759764,7120448,6761478,7121926,1147,1871,32,-961,188,448,813,3107,54,53,875
1285722,6760040,7120684,6761675,7122123,912,1804,-72,-783,227,305,764,3525,52,38,879
1286723,6760228,7120920,6761872,7122320,1466,1788,-234,-878,292,-279,1693,920,52,38,879
1287724,6760428,7121156,6762069,7122517,1390,1771,-320,-688,382,52,-281,4139,30,40,879
1288725,6760624,7121364,6762266,7122714,1416,1941,-249,-381,390,790,-1118,4236,30,40,879
1289726,6760840,7121588,6762463,7122911,1283,1830,-148,-486,396,47,322,1841,30,32,878
1290727,6761024,7121788,6762660,7123108,1488,1979,-9,-780,430,-124,747,3312,30,32,878
1291728,6761188,7122000,6762857,7123305,1629,1897,84,-1305,354,1120,15,2003,29,41,875
1292729,6761376,7122196,6763054,7123502,1483,1997,100,-1549,234,789,447,2857,29,41,875
1293730,6761532,7122400,6763251,7123699,1701,1945,120,-1205,227,-492,278,5472,26,37,875
1294731,6761700,7122608,6763448,7123896,1640,1916,52,-746,175,264,-1310,3973,26,37,875
1295732,6761896,7122824,6763645,7124093,1465,1857,-78,-513,-26,691,1385,3234,40,44,876
1296733,6762052,7123064,6763842,7124290,1733,1688,-185,-491,-86,-567,-471,3323,40,44,876
1297734,6762212,7123264,6764039,7124487,1725,1937,-219,-502,68,-1120,-1443,4142,21,46,876
1298735,6762372,7123444,6764236,7124684,1742,2070,-192,-469,325,-650,-1135,4797,21,46,876
1299736,6762524,7123672,6764433,7124881,1811,1757,-148,-431,496,881,-1001,4560,21,47,876
1300737,6762684,7123872,6764630,7125078,1779,1930,-108,-446,638,1530,-677,4010,21,47,876
1301738,6762856,7124072,6764827,7125275,1715,1929,-62,-460,816,1758,-1136,4044,36,34,874
1302739,6763004,7124268,6765024,7125472,1886,1956,55,-357,966,2156,-1226,5527,36,34,874
1303740,6763160,7124432,6765221,7125669,1855,2170,214,-166,1162,1399,-1364,5912,44,29,873
1304741,6763340,7124600,6765418,7125866,1713,2158,278,-157,1353,1415,-924,4089,44,29,873
1305742,6763524,7124756,6765615,7126063,1694,2251,316,-217,1522,1526,-1114,4850,28,32,874
1306743,6763676,7124920,6765812,7126260,1914,2216,408,-159,1679,1005,-1127,5183,28,32,874
1307744,6763832,7125080,6766009,7126457,1907,2258,434,-27,1851,215,-734,4132,43,36,873
1308745,6764012,7125244,6766206,7126654,1766,2247,398,168,1964,595,-692,4435,43,36,873
1309746,6764160,7125416,6766403,7126851,1987,2208,351,510,2064,408,-866,5406,38,35,872
1310747,6764312,7125572,6766600,7127048,1983,2327,254,637,2166,-247,-1423,3646,38,35,872
1311748,6764468,7125744,6766797,7127245,1976,2238,191,665,2168,-8,-122,4829,24,20,872
1312749,6764632,7125896,6766994,7127442,1941,2383,173,789,2121,-375,-651,5155,24,20,872
1313750,6764784,7126040,6767191,7127639,2036,2456,133,923,2057,-65,-17,4359,29,38,869
1314751,6764976,7126192,6767388,7127836,1788,2427,50,1116,2063,152,-792,3966,29,38,869
1315752,6765136,7126368,6767585,7128033,2006,2286,8,1285,2117,62,-330,4382,34,26,869
1316753,6765304,7126548,6767782,7128230,1968,2269,57,1549,2204,-169,-847,5164,34,26,869
1317754,6765464,7126748,6767979,7128427,2036,2143,116,1586,2294,-653,-588,3607,21,31,871
1318755,6765596,7126948,6768176,7128624,2239,2142,191,1529,2387,-457,146,4318,21,31,871
1319756,6765744,7127152,6768373,7128821,2162,2114,270,1387,2467,-230,-72,3809,40,48,872
1320757,6765872,7127356,6768570,7129018,2317,2112,327,1189,2514,-299,139,3256,40,48,872
1321757,6766040,7127524,6768767,7129215,2081,2350,353,979,2490,-435,437,3766,33,47,870
1322759,6766172,7127720,6768964,7129412,2334,2175,318,817,2414,-1284,-158,3820,33,47,870
1323760,6766308,7127904,6769161,7129609,2337,2257,220,778,2279,-1599,218,4611,48,40,870
1324761,6766496,7128120,6769358,7129806,2016,2048,54,754,2030,-1537,1081,4380,48,40,870
1325762,6766676,7128344,6769555,7130003,2075,1987,-68,885,1736,-2149,700,6779,34,40,868
1326763,6766836,7128616,6769752,7130200,2217,1655,-129,1075,1452,-2301,717,7075,34,40,868
1327764,6767028,7128928,6769949,7130397,2019,1354,-282,870,1259,-1774,676,4730,29,46,873
1328765,6767192,7129124,6770146,7130594,2210,2079,-343,635,1163,-725,501,6764,29,46,873
1329766,6767352,7129284,6770343,7130791,2251,2321,-235,527,1150,91,-186,6906,29,39,874
1330767,6767520,7129480,6770540,7130988,2215,2097,-217,186,1210,230,-60,3302,29,39,874
1331768,6767656,7129708,6770737,7131185,2441,1884,-252,-24,1307,718,1039,4562,27,48,871
1332769,6767812,7129952,6770934,7131382,2335,1763,-227,110,1482,443,909,5487,27,48,871
1333770,6767976,7130220,6771131,7131579,2301,1583,-198,10,1739,-905,-762,2530,27,36,871
1334771,6768120,7130476,6771328,7131776,2449,1632,-16,-94,2011,-1566,-2394,5040,27,36,871
1335772,6768236,7130688,6771525,7131973,2661,1900,286,67,2104,-126,-836,5818,28,51,871
1336773,6768372,7131012,6771722,7132170,2563,1144,375,106,2118,-5,-1885,1986,28,51,871
1337774,6768488,7131344,6771919,7132367,2724,1036,371,95,2047,771,-2081,3726,39,71,871
1338775,6768624,7131656,6772116,7132564,2627,1111,506,350,2006,-91,-2495,5940,39,71,871
1339783,6768776,7131956,6772346,7132794,2561,1155,542,458,2035,-885,-1854,2833,41,66,874
1340777,6768916,7132288,6772543,7132991,2662,895,454,453,2025,-508,-479,3401,41,66,874
1341778,6769080,7132608,6772740,7133188,2528,916,329,738,1915,688,-1206,5402,44,56,874
1342779,6769236,7132860,6772937,7133385,2596,1317,173,997,1693,1123,-211,3722,44,56,874
1343780,6769392,7133160,6773134,7133582,2615,972,-7,1104,1407,497,35,3541,25,59,875
1344781,6769552,7133440,6773331,7133779,2607,1060,-67,1246,1108,521,672,5210,25,59,875
1345782,6769708,7133708,6773528,7133976,2651,1105,-25,1346,901,-223,-24,4777,42,49,873
1346783,6769888,7133956,6773725,7134173,2509,1208,116,1300,751,-318,218,5102,42,49,873
1347784,6770068,7134184,6773922,7134370,2517,1319,299,1165,691,-441,161,5545,48,56,873
1348785,6770244,7134452,6774119,7134567,2552,1038,453,850,674,-582,22,4142,48,56,873
1349786,6770440,7134708,6774316,7134764,2428,1087,579,424,619,-69,39,4596,42,45,874
1350787,6770632,7134956,6774513,7134961,2456,1115,611,-15,476,130,-323,3696,42,45,874
1351788,6770816,7135200,6774710,7135158,2513,1119,552,-253,254,-60,-217,4395,50,40,874
1352789,6771016,7135400,6774907,7135355,2412,1393,352,-256,20,-163,-391,3964,50,40,874
1353789,6771180,7135588,6775104,7135552,2652,1472,82,-141,-130,-839,-1166,3873,35,46,875
1354791,6771360,7135784,6775301,7135749,2560,1422,-36,80,-237,-575,-865,5838,35,46,875
1355792,6771528,7135952,6775498,7135946,2649,1610,-59,91,-429,247,-1304,4145,46,31,873
1356793,6771692,7136192,6775695,7136143,2690,1141,-3,-97,-560,-462,-1696,4871,46,31,873
1357794,6771856,7136404,6775892,7136340,2704,1309,122,-281,-698,307,-1373,5671,38,46,871
1358795,6772044,7136620,6776089,7136537,2559,1276,183,-618,-903,1043,-853,3781,38,46,871
1359796,6772196,7136852,6776286,7136734,2805,1161,191,-876,-1086,699,-565,4884,28,37,871
1360797,6772356,7137044,6776483,7136931,2772,1413,117,-755,-1256,760,-175,5068,28,37,871
1361798,6772520,7137228,6776680,7137128,2763,1469,-108,-410,-1396,912,461,3778,44,51,873
1362799,6772708,7137424,6776877,7137325,2617,1394,-379,254,-1503,815,825,5308,44,51,873
1363800,6772888,7137648,6777074,7137522,2675,1207,-576,791,-1617,1262,18,4134,40,32,870
1364801,6773080,7137860,6777271,7137719,2603,1276,-670,1104,-1734,1201,-639,4476,40,32,870
1365802,6773272,7138060,6777468,7137916,2606,1348,-603,1230,-1858,928,-627,5139,36,41,873
