"Data file recorded 2014/9/22  16:11:7"
"%  Right Stride Frequency         = 3.0"
"%  Left Stride Frequency         = 3.0"
"%  Phase (Fractional)         = 32768.0"
"%  Experiment.py "
"%  Motor Gains    = [1800, 200, 100, 0, 0, 1800, 200, 100, 0, 0]
"% Columns: "
"% time | Right Leg Pos | Left Leg Pos | Commanded Right Leg Pos | Commanded Left Leg Pos | DCR | DCL | GyroX | GryoY | GryoZ | AX | AY | AZ | RBEMF | LBEMF | VBatt "
11942,7649584,8134572,7629942,8186998,-3800,3800,-22,178,-225,214,-68,4104,3,-9,803
12936,7649632,8134500,7630139,8187195,-3800,3800,-22,178,-223,207,-70,4130,3,-9,803
13937,7649616,8134632,7630336,8187392,-3800,3800,-21,177,-222,227,-71,4093,0,21,775
14938,7649420,8134804,7630533,8187589,-3800,3800,-22,177,-226,240,-77,4105,0,21,775
15939,7649120,8134940,7630730,8187786,-3800,3800,-30,153,-226,226,-1,4094,-39,31,764
16940,7649020,8135084,7630927,8187983,-3800,3800,-58,154,-216,179,35,4090,-39,31,764
17941,7648652,8135184,7631124,8188180,-3800,3800,-116,217,-179,109,-213,4279,-62,41,766
18929,7648176,8135308,7631321,8188377,-3227,3800,-174,286,-128,82,-70,4286,-62,41,766
19930,7647776,8135524,7631518,8188574,-3443,3800,-165,293,-113,39,723,4044,-63,35,768
20931,7647396,8135736,7631715,8188771,-3318,3800,-123,275,-119,130,910,4111,-63,35,768
21932,7646776,8135916,7631912,8188968,-1462,3800,-83,145,-89,631,764,3691,-79,20,771
22933,7646184,8136024,7632109,8189165,-1293,3800,-84,10,42,1333,225,3844,-79,20,771
23935,7645728,8136124,7632306,8189362,-1858,3800,-60,-89,223,1773,204,3654,-88,21,775
24935,7645284,8136128,7632503,8189559,-1654,3800,-18,-182,361,1993,601,3652,-88,21,775
25936,7644684,8136184,7632700,8189756,-331,3800,38,-287,420,2276,922,3596,-81,18,775
26937,7644228,8136284,7632897,8189953,-947,3800,65,-457,407,2502,1201,3548,-81,18,775
27938,7643844,8136352,7633094,8190150,-1144,3800,29,-475,340,2467,1247,3871,-88,8,778
28939,7643420,8136416,7633291,8190347,-623,3800,-58,-430,230,2150,1347,4115,-88,8,778
29940,7643024,8136448,7633488,8190544,-539,3800,-188,-203,64,1762,1483,4702,-67,10,777
30941,7642768,8136452,7633685,8190741,-1217,3800,-309,105,-167,1470,1726,4725,-67,10,777
31942,7642524,8136476,7633882,8190938,-1099,3800,-470,475,-432,1315,1610,5116,-35,15,778
32944,7642200,8136532,7634079,8191135,-372,3800,-657,923,-689,1034,1467,5267,-35,15,778
33944,7642064,8136616,7634276,8191332,-1403,3800,-897,1332,-902,700,996,5255,-39,6,777
34945,7641964,8136720,7634473,8191529,-1498,3800,-1115,1767,-1039,567,535,5268,-39,6,777
35946,7641724,8136780,7634670,8191726,-432,3800,-1307,2122,-1071,483,491,4949,-12,16,776
36947,7641672,8136756,7634867,8191923,-1500,3800,-1461,2533,-1032,329,410,5078,-12,16,776
37948,7641664,8136800,7635064,8192120,-1686,3800,-1571,2748,-938,222,313,4431,-9,17,776
38949,7641564,8136852,7635261,8192317,-981,3800,-1653,2873,-808,199,172,4387,-9,17,776
39950,7641440,8136972,7635458,8192514,-692,3800,-1696,2916,-643,90,0,4018,-4,21,774
40951,7641488,8137052,7635655,8192711,-1703,3800,-1706,2963,-449,-41,-270,4076,-4,21,774
41952,7641508,8137168,7635852,8192908,-1451,3800,-1664,2996,-210,-242,-481,4001,-10,4,778
42953,7641376,8137168,7636049,8193105,-357,3800,-1578,3028,61,-291,-683,4000,-10,4,778
43954,7641452,8137224,7636246,8193302,-1605,3800,-1461,3151,312,-384,-809,4204,-3,7,774
44955,7641524,8137248,7636443,8193499,-1526,3800,-1313,3231,519,-632,-880,4156,-3,7,774
45957,7641404,8137352,7636640,8193696,-188,3800,-1144,3334,663,-848,-1030,4390,-5,14,775
46957,7641432,8137464,7636837,8193893,-1040,3800,-977,3490,741,-1055,-1109,4480,-5,14,775
47958,7641488,8137528,7637034,8194090,-1154,3800,-834,3768,737,-1185,-1267,4935,-2,23,777
48959,7641424,8137572,7637231,8194287,-290,3800,-741,4127,662,-1299,-1449,5129,-2,23,777
49960,7641416,8137620,7637428,8194484,-550,3800,-677,4473,536,-1443,-1442,5229,5,15,776
50961,7641460,8137688,7637625,8194681,-809,3800,-652,4778,355,-1480,-1432,5164,5,15,776
51962,7641472,8137740,7637822,8194878,-529,3800,-644,4940,130,-1377,-1515,4839,16,1,778
52963,7641424,8137820,7638019,8195075,-47,3800,-634,4948,-123,-1300,-1376,4378,16,1,778
53964,7641460,8137860,7638216,8195272,-501,3800,-606,4706,-390,-1132,-999,3626,-1,14,777
54965,7641476,8137876,7638413,8195469,-298,3800,-576,4295,-651,-855,-500,3219,-1,14,777
55966,7641440,8137920,7638610,8195666,130,3800,-523,3721,-879,-566,-33,2750,3,9,778
56967,7641468,8137956,7638807,8195863,-197,3800,-419,3041,-1047,-350,153,2485,3,9,778
57968,7641496,8138020,7639004,8196060,-123,3800,-277,2279,-1139,-213,219,2335,-5,14,778
58969,7641460,8138116,7639201,8196257,379,3800,-122,1472,-1158,-69,203,2380,-5,14,778
59970,7641476,8138172,7639398,8196454,133,3800,31,684,-1106,-17,214,2361,6,18,777
60971,7641528,8138204,7639595,8196651,-29,3800,194,-105,-1000,-119,177,2511,6,18,777
61972,7641544,8138260,7639792,8196848,276,3800,352,-814,-859,-283,36,2797,5,20,779
62973,7641540,8138332,7639989,8197045,489,3800,489,-1461,-707,-477,-209,3028,5,20,779
63975,7641632,8138420,7640186,8197242,-66,3800,588,-1951,-546,-647,-528,3391,0,9,779
64975,7641668,8138556,7640383,8197439,355,3800,655,-2347,-392,-859,-554,3715,0,9,779
65976,7641676,8138652,7640580,8197636,613,3800,690,-2618,-255,-1090,-612,4061,6,20,779
66977,7641744,8138736,7640777,8197833,294,3800,684,-2740,-130,-1342,-722,4509,6,20,779
67978,7641852,8138840,7640974,8198030,83,3800,645,-2675,-25,-1542,-773,4865,7,33,779
68979,7641920,8138960,7641171,8198227,389,3800,577,-2512,63,-1705,-917,5157,7,33,779
69980,7641996,8139132,7641368,8198424,393,3800,497,-2304,139,-1857,-1026,5247,31,23,779
70981,7642120,8139300,7641565,8198621,125,3800,431,-2136,217,-1944,-1105,5178,31,23,779
71982,7642240,8139452,7641762,8198818,183,3800,396,-2007,310,-1890,-1152,4996,13,24,777
72983,7642324,8139640,7641959,8199015,458,3800,403,-1933,419,-1853,-1119,4785,13,24,777
73984,7642476,8139812,7642156,8199212,53,3800,457,-1911,535,-1740,-1040,4530,27,31,780
74985,7642580,8140008,7642353,8199409,394,3800,545,-1918,657,-1509,-1076,4361,27,31,780
75986,7642640,8140232,7642550,8199606,729,3800,650,-2004,784,-1331,-1034,4118,24,32,780
76987,7642748,8140472,7642747,8199803,467,3800,764,-2119,917,-1123,-1068,4019,24,32,780
77988,7642868,8140708,7642944,8200000,426,3800,883,-2292,1052,-842,-1066,3820,17,37,779
78989,7642960,8140920,7643141,8200197,647,3800,1009,-2512,1194,-614,-1057,3619,17,37,779
79990,7643080,8141152,7643338,8200394,507,3800,1143,-2755,1326,-466,-811,3409,35,48,779
80991,7643252,8141388,7643535,8200591,193,3800,1289,-3050,1413,-394,-529,3248,35,48,779
81992,7643388,8141648,7643732,8200788,445,3800,1432,-3291,1462,-329,-440,3415,40,56,777
82993,7643516,8141888,7643929,8200985,525,3800,1561,-3479,1487,-208,-510,3411,40,56,777
83994,7643648,8142212,7644126,8201182,529,3800,1678,-3642,1502,-4,-667,3596,27,47,780
84995,7643760,8142492,7644323,8201379,691,3800,1785,-3651,1523,134,-792,3875,27,47,780
85996,7643852,8142736,7644520,8201576,862,3800,1886,-3635,1542,193,-806,3903,34,50,781
86997,7643980,8143056,7644717,8201773,667,3800,1979,-3501,1581,327,-858,4247,34,50,781
87998,7644152,8143396,7644914,8201970,403,3800,2060,-3283,1663,444,-791,4415,39,53,779
88999,7644240,8143720,7645111,8202167,976,3800,2136,-2983,1759,528,-679,4465,39,53,779
90000,7644328,8144036,7645308,8202364,1025,3800,2182,-2682,1841,611,-429,4482,18,69,781
91001,7644528,8144364,7645505,8202561,324,3800,2218,-2331,1921,733,-467,4662,18,69,781
92002,7644596,8144728,7645702,8202758,1206,3800,2225,-1932,1987,872,-576,4824,41,66,778
93003,7644680,8145108,7645899,8202955,1155,3800,2240,-1544,2053,877,-651,4507,41,66,778
94011,7644892,8145456,7646326,8203382,450,3800,2243,-1201,2095,872,-108,4349,23,76,779
95005,7644988,8145784,7646523,8203579,1220,3800,2239,-906,2111,1041,-212,4186,23,76,779
96006,7645072,8146220,7646720,8203776,1345,3800,2221,-632,2110,1080,-167,4130,40,77,781
97007,7645304,8146676,7646917,8203973,404,3800,2199,-400,2096,1095,74,3939,40,77,781
98008,7645396,8147100,7647114,8204170,1326,3800,2142,-205,2069,1152,409,3769,29,74,779
99009,7645488,8147612,7647311,8204367,1373,3800,2069,0,2056,1187,475,3770,29,74,779
100010,7645640,8148096,7647508,8204564,1017,3800,1979,232,2057,1332,400,3687,35,89,781
101011,7645796,8148576,7647705,8204761,1011,3800,1885,449,2048,1396,455,3616,35,89,781
102012,7645868,8149196,7647902,8204958,1591,3800,1791,688,2037,1409,548,3636,36,107,781
103013,7646048,8149788,7648099,8205155,924,3800,1698,851,2028,1499,350,3541,36,107,781
104014,7646192,8150484,7648296,8205352,1173,3800,1612,1038,2005,1596,5,3580,31,121,779
105015,7646348,8151160,7648493,8205549,1116,3800,1538,1260,1978,1681,10,3577,31,121,779
106016,7646472,8151828,7648690,8205746,1349,3800,1488,1476,1913,1631,466,3476,36,122,783
107017,7646676,8152488,7648887,8205943,846,3800,1444,1681,1829,1719,316,3465,36,122,783
108018,7646836,8153216,7649084,8206140,1137,3800,1402,1889,1745,1846,53,3391,33,135,783
109019,7647016,8154056,7649281,8206337,1021,3800,1377,2058,1655,1843,-58,3325,33,135,783
110020,7647208,8154820,7649478,8206534,948,3800,1367,2218,1563,1835,-404,3336,39,153,783
111021,7647408,8155576,7649675,8206731,898,3800,1357,2359,1430,1689,-59,3201,39,153,783
112022,7647564,8156404,7649872,8206928,1191,3800,1338,2531,1274,1639,-201,3197,45,144,784
113023,7647748,8157148,7650069,8207125,1022,3800,1343,2708,1110,1584,-472,3109,45,144,784
114024,7647948,8157988,7650266,8207322,921,3800,1359,2895,932,1369,-531,3216,55,145,784
115025,7648100,8158972,7650463,8207519,1241,3800,1378,3076,749,1208,-589,3214,55,145,784
116026,7648280,8159832,7650660,8207716,1074,3800,1385,3310,569,1173,-519,3378,34,157,784
117027,7648452,8160672,7650857,8207913,1135,3800,1398,3573,396,1192,-425,3288,34,157,784
118028,7648616,8161432,7651054,8208110,1201,3800,1405,3851,200,1308,-15,3342,49,151,784
119029,7648772,8162240,7651251,8208307,1269,3800,1413,4031,-27,1350,-73,2896,49,151,784
120030,7648956,8163032,7651448,8208504,1101,3800,1438,4092,-245,1388,-358,2614,52,161,784
121031,7649132,8163856,7651645,8208701,1160,3800,1439,4114,-476,1315,-176,2471,52,161,784
122032,7649304,8164596,7651842,8208898,1197,3800,1406,3993,-800,1000,602,1852,39,143,783
123033,7649460,8165292,7652039,8209095,1315,3800,1359,3777,-1215,720,1110,1532,39,143,783
124034,7649636,8165968,7652236,8209292,1200,3800,1311,3513,-1665,504,1163,1397,53,140,784
125035,7649784,8166612,7652433,8209489,1397,3800,1246,3306,-2082,346,918,1482,53,140,784
126036,7649968,8167312,7652630,8209686,1178,3800,1138,3134,-2375,405,-61,1454,32,137,781
127037,7650144,8167996,7652827,8209883,1238,3800,961,2948,-2546,507,-486,1393,32,137,781
128038,7650264,8168552,7653024,8210080,1622,3800,734,2756,-2625,527,-628,1357,36,135,781
129039,7650392,8169176,7653221,8210277,1603,3800,494,2532,-2674,357,-298,1233,36,135,781
130040,7650596,8169752,7653418,8210474,1126,3800,268,2295,-2696,108,-92,1217,32,118,782
131041,7650736,8170388,7653615,8210671,1551,3800,53,2057,-2667,-156,30,1168,32,118,782
132042,7650852,8170948,7653812,8210868,1737,3800,-147,1840,-2624,-542,423,1158,41,117,780
133043,7651028,8171488,7654009,8211065,1372,3800,-386,1681,-2686,-1133,1128,1371,41,117,780
134044,7651140,8172052,7654206,8211262,1810,3800,-632,1459,-2925,-1745,1673,1243,29,115,779
135045,7651228,8172544,7654403,8211459,2008,3800,-886,1199,-3315,-2035,2051,1441,29,115,779
136046,7651404,8173108,7654600,8211656,1468,3800,-1141,942,-3703,-2017,2264,1448,42,99,779
137047,7651552,8173644,7654797,8211853,1666,3800,-1429,741,-3856,-1703,1776,1688,42,99,779
138048,7651640,8174204,7654994,8212050,2088,3800,-1740,549,-3600,-1437,904,1731,35,99,777
139049,7651776,8174760,7655191,8212247,1816,3800,-2052,302,-2914,-1156,488,1937,35,99,777
140050,7651912,8175244,7655388,8212444,1844,3800,-2332,73,-1953,-952,575,2032,42,119,778
141051,7651976,8175852,7655585,8212641,2352,3800,-2546,-279,-876,-886,636,1930,42,119,778
142052,7652052,8176344,7655782,8212838,2332,3800,-2690,-646,177,-829,532,2044,35,118,778
143053,7652176,8176980,7655979,8213035,2065,3800,-2781,-1204,1149,-733,502,1748,35,118,778
144054,7652252,8177620,7656176,8213232,2418,3800,-2872,-1786,1993,-515,681,1838,20,123,776
145055,7652276,8178116,7656373,8213429,2820,3800,-2988,-2434,2693,-296,797,1786,20,123,776
146056,7652424,8178636,7656570,8213626,2067,3800,-3188,-3002,3264,-180,924,2354,19,111,777
147057,7652500,8179312,7656767,8213823,2572,3800,-3467,-3578,3748,-8,478,2537,19,111,777
148058,7652548,8179880,7656964,8214020,2813,3800,-3797,-3986,4185,276,-194,3412,21,126,771
149059,7652672,8180500,7657161,8214217,2370,3800,-4256,-4113,4598,508,-539,4373,21,126,771
150060,7652804,8181224,7657358,8214414,2350,3800,-4755,-4070,5015,686,-701,4997,44,144,775
151061,7652888,8181928,7657555,8214611,2700,3800,-5092,-4064,5313,670,-160,4988,44,144,775
152062,7653000,8182740,7657752,8214808,2564,3800,-5296,-3983,5457,723,-123,5745,27,150,777
153063,7653168,8183616,7657949,8215005,2228,3800,-5383,-3712,5565,887,-749,6690,27,150,777
154064,7653296,8184556,7658146,8215202,2509,3800,-5441,-3196,5607,1103,-511,7746,45,174,777
155065,7653376,8185472,7658343,8215399,2861,3800,-5529,-2497,5508,1207,350,8337,45,174,777
156066,7653576,8186268,7658540,8215596,2111,3800,-5634,-1695,5306,1114,688,8944,33,183,780
157067,7653700,8187180,7658737,8215793,2619,3800,-5734,-824,4946,814,1135,9526,33,183,780
158068,7653836,8188124,7658934,8215990,2572,3800,-5768,5,4418,699,1624,9506,36,178,775
159068,7654020,8189044,7659131,8216187,2279,3800,-5720,746,3783,907,1525,9521,36,178,775
160070,7654228,8190108,7659328,8216384,2124,3800,-5441,1410,3104,1449,1264,9967,39,187,778
161071,7654416,8191000,7659525,8216581,2254,3800,-3084,5491,2294,4992,2073,32767,39,187,778
162072,7654608,8191808,7659722,8216778,2232,3800,2908,15310,1162,2114,534,9569,58,200,781
163073,7654824,8192612,7659919,8216975,2075,3800,3063,13638,824,2119,1050,3100,58,200,781
164074,7655024,8193436,7660116,8217172,2174,3800,2805,10735,406,2491,1169,1681,47,183,781
165075,7655228,8194180,7660313,8217369,2147,3800,2798,8493,-8,2429,1540,1669,47,183,781
166076,7655452,8195012,7660510,8217566,2011,3800,2947,6841,-270,2504,1291,1848,55,161,781
167077,7655700,8195776,7660707,8217763,1840,3800,2919,5842,-372,2205,529,3324,55,161,781
168078,7655920,8196340,7660904,8217960,2006,3800,2669,4901,-355,1086,79,3806,50,143,780
169079,7656164,8196908,7661101,8218157,1836,3800,2260,4399,-335,233,-1003,5523,50,143,780
170080,7656392,8197484,7661298,8218354,1923,3800,1825,3970,-448,-481,-1187,4935,66,129,779
171081,7656624,8198164,7661495,8218551,1884,3800,1426,3443,-701,-1466,-1104,4792,66,129,779
172082,7656868,8198744,7661692,8218748,1789,3800,1029,2847,-1045,-2167,-1178,4464,46,102,779
173083,7657108,8199244,7661889,8218945,1797,3800,674,2108,-1376,-3141,-575,4146,46,102,779
174084,7657332,8199668,7662086,8219142,1886,3800,357,1640,-1657,-4158,253,4910,52,96,779
175085,7657524,8200064,7662283,8219339,2089,3800,35,1324,-1898,-4815,431,5114,52,96,779
176086,7657748,8200492,7662480,8219536,1878,3800,-300,986,-2021,-6501,509,5413,42,93,778
177094,7657936,8200980,7662710,8219766,2122,3800,-315,-2117,-1722,-12917,-274,232,42,93,778
178088,7658116,8201420,7662907,8219963,2180,3800,-170,-6092,-994,-11341,-1675,2822,49,84,775
179089,7658340,8201760,7663104,8220160,1894,3800,-175,-7291,-158,-8514,-2631,7231,49,84,775
180090,7658512,8202060,7663301,8220357,2231,3800,-401,-6558,585,-6535,-2775,7171,53,69,773
181091,7658672,8202276,7663498,8220554,2323,3800,-510,-5987,1325,-5125,-1530,5854,53,69,773
182092,7658864,8202532,7663695,8220751,2126,3800,-405,-5903,2028,-5190,-833,5865,51,65,773
183093,7659012,8202848,7663892,8220948,2424,3800,-104,-6453,2591,-4777,-477,3610,51,65,773
184094,7659140,8203120,7664089,8221145,2580,3800,302,-7311,3024,-4613,-424,3388,51,54,771
185095,7659316,8203368,7664286,8221342,2291,3800,750,-8225,3400,-4439,-1148,2703,51,54,771
186096,7659488,8203544,7664483,8221539,2328,3800,1173,-9193,3767,-3954,-1823,2934,32,48,771
187097,7659620,8203672,7664680,8221736,2607,3800,1529,-9435,4143,-3582,-2676,4888,32,48,771
188098,7659772,8203816,7664877,8221933,2503,3800,1852,-9485,4545,-3251,-3683,4784,40,37,769
189099,7659964,8204040,7665074,8222130,2256,3800,2143,-9256,4940,-2900,-4397,5848,40,37,769
190100,7660052,8204260,7665271,8222327,2955,3800,2410,-9060,5286,-2080,-4559,5680,29,43,769
191101,7660140,8204476,7665468,8222524,3004,3800,2673,-8820,5470,-923,-4165,5451,29,43,769
192102,7660288,8204672,7665665,8222721,2651,3800,2990,-8820,5503,-459,-3420,4320,25,58,770
193103,7660444,8204836,7665862,8222918,2620,3800,3355,-9054,5363,-468,-2375,3849,25,58,770
194104,7660536,8204992,7666059,8223115,3068,3800,3712,-9279,5011,-279,-1062,3638,47,44,767
195105,7660668,8205240,7666256,8223312,2847,3800,4048,-9426,4533,121,-42,3706,47,44,767
196106,7660856,8205480,7666453,8223509,2502,3800,4314,-9358,4026,579,304,4082,48,54,770
197107,7660960,8205728,7666650,8223706,3069,3800,4519,-9238,3574,826,-159,4193,48,54,770
198108,7661148,8206016,7666847,8223903,2549,3800,4647,-8779,3281,1217,-1098,5327,34,55,768
199109,7661364,8206260,7667044,8224100,2367,3800,4690,-8063,3105,1625,-1449,5816,34,55,768
200110,7661532,8206508,7667241,8224297,2680,3800,4642,-7208,2956,1961,-1325,6001,36,62,766
201111,7661668,8206756,7667438,8224494,2908,3800,4541,-6421,2781,2220,-1042,5838,36,62,766
202112,7661884,8207044,7667635,8224691,2401,3800,4448,-5753,2552,2385,-556,5334,58,58,770
203113,7662140,8207308,7667832,8224888,2126,3800,4392,-5240,2290,2392,-296,4776,58,58,770
204114,7662312,8207668,7668029,8225085,2664,3800,4365,-4881,2016,2420,88,4104,66,75,768
205115,7662576,8208024,7668226,8225282,2060,3800,4310,-4576,1752,2411,379,3879,66,75,768
206116,7662884,8208340,7668423,8225479,1738,3800,4230,-4265,1558,2501,450,3575,55,65,774
207117,7663164,8208716,7668620,8225676,1877,3800,4126,-3893,1441,2675,438,3564,55,65,774
208118,7663400,8209092,7668817,8225873,2136,3800,4042,-3483,1370,2641,348,3483,65,74,774
209119,7663688,8209464,7669014,8226070,1772,3800,3970,-2972,1357,2606,47,3745,65,74,774
210120,7664016,8209820,7669211,8226267,1465,3800,3912,-2320,1375,2427,-67,3968,75,82,776
211121,7664236,8210260,7669408,8226464,2131,3800,3854,-1569,1402,2334,-30,4074,75,82,776
212122,7664492,8210720,7669605,8226661,1881,3800,3786,-717,1415,2322,-175,4158,68,75,776
213123,7664820,8211176,7669802,8226858,1375,3800,3708,169,1428,2236,-235,4083,68,75,776
214124,7665024,8211644,7669999,8227055,2148,3800,3608,1085,1456,2175,-357,4069,48,90,774
215125,7665260,8212132,7670196,8227252,1932,3800,3484,2057,1471,2053,-258,3987,48,90,774
216126,7665568,8212600,7670393,8227449,1434,3800,3342,2963,1445,1892,-156,3755,70,107,779
217127,7665824,8213164,7670590,8227646,1734,3800,3208,3811,1381,1834,-243,3353,70,107,779
218128,7666092,8213772,7670787,8227843,1628,3800,3089,4466,1296,1763,-239,2772,54,105,778
219129,7666424,8214460,7670984,8228040,1169,3800,2994,5040,1186,1737,-165,2327,54,105,778
220130,7666756,8215112,7671181,8228237,1111,3800,2890,5450,1054,1703,-52,1750,55,114,778
221131,7667064,8215796,7671378,8228434,1213,3800,2811,5698,903,1610,207,1231,55,114,778
222119,7667328,8216528,7671575,8228631,1460,3622,2748,5849,740,1620,369,1049,69,125,782
223120,7667648,8217244,7671772,8228828,1057,3496,2712,5933,591,1523,570,663,69,125,782
224121,7667900,8218108,7671969,8229025,1458,2281,2710,5938,494,1600,370,382,71,139,782
225123,7668152,8218928,7672166,8229222,1434,2284,2758,5847,465,1656,72,93,71,139,782
226123,7668364,8219704,7672363,8229419,1679,2307,2800,5733,483,1655,-47,-34,50,140,784
227125,7668560,8220464,7672560,8229616,1780,2160,2820,5626,541,1713,-146,-190,50,140,784
228125,7668724,8221172,7672757,8229813,1996,2263,2832,5413,666,1736,-253,-381,53,153,789
229127,7668968,8221960,7672954,8230010,1475,1505,2842,5189,845,1680,-93,-568,53,153,789
230127,7669152,8222784,7673151,8230207,1857,1006,2839,4919,1011,1495,332,-910,59,139,787
231128,7669348,8223536,7673348,8230404,1783,1214,2819,4599,1153,1391,491,-1026,59,139,787
232130,7669592,8224296,7673545,8230601,1464,917,2793,4267,1265,1246,567,-1270,56,150,791
233131,7669792,8224996,7673742,8230798,1737,1072,2747,3929,1327,1125,703,-1380,56,150,791
234132,7670028,8225528,7673939,8230995,1496,1976,2655,3672,1332,983,652,-1304,55,116,791
235133,7670256,8226208,7674136,8231192,1534,840,2465,3674,1328,1055,171,-468,55,116,791
236134,7670536,8226776,7674333,8231389,1173,1378,2168,4001,1355,1070,-674,468,61,124,790
237134,7670772,8227416,7674530,8231586,1431,734,1852,4379,1412,955,-1394,48,61,124,790
238135,7670996,8227924,7674727,8231783,1495,1423,1533,4728,1419,1130,-755,119,62,100,793
239136,7671252,8228348,7674924,8231980,1270,1850,1223,4874,1346,1375,-203,-496,62,100,793
240137,7671504,8228848,7675121,8232177,1271,1241,976,4812,1164,1132,500,-1544,54,100,794
241139,7671696,8229340,7675318,8232374,1649,1163,784,4526,861,899,1621,-2014,54,100,794
242140,7671932,8229788,7675515,8232571,1358,1328,603,4244,535,942,1866,-2094,57,94,790
243141,7672172,8230216,7675712,8232768,1315,1352,378,4108,329,888,1405,-1674,57,94,790
244142,7672356,8230636,7675909,8232965,1671,1305,130,4099,188,770,1324,-1560,39,90,791
245143,7672596,8230988,7676106,8233162,1303,1662,-158,4159,24,714,1552,-1356,39,90,791
246144,7672812,8231364,7676303,8233359,1446,1434,-483,4203,-175,702,1787,-1375,51,80,791
247145,7672976,8231696,7676500,8233556,1785,1650,-850,4144,-409,931,1817,-1476,51,80,791
248145,7673168,8232016,7676697,8233753,1613,1671,-1225,3956,-664,1078,2072,-1772,30,58,789
249146,7673364,8232300,7676894,8233950,1590,1859,-1596,3554,-969,1135,2387,-2391,30,58,789
250147,7673492,8232572,7677091,8234147,2045,1901,-1961,3006,-1318,1111,2364,-2667,49,70,787
251148,7673636,8232828,7677288,8234344,1969,1975,-2330,2497,-1576,1263,1768,-2470,49,70,787
252149,7673876,8233076,7677485,8234541,1351,2003,-2738,2042,-1688,1520,1536,-2272,31,48,787
253150,7674044,8233348,7677682,8234738,1814,1820,-3148,1567,-1672,1511,1578,-2327,31,48,787
254151,7674140,8233600,7677879,8234935,2310,1921,-3523,982,-1592,1400,1848,-2522,25,57,785
255152,7674364,8233876,7678076,8235132,1499,1736,-3889,411,-1481,1233,1780,-2344,25,57,785
256153,7674512,8234088,7678273,8235329,1995,2131,-4287,-41,-1324,1157,1298,-1984,39,46,787
257154,7674592,8234288,7678470,8235526,2473,2205,-4718,-535,-1131,1315,538,-2127,39,46,787
258156,7674808,8234456,7678667,8235723,1615,2417,-5173,-1143,-928,1707,76,-2320,41,43,787
259157,7675052,8234664,7678864,8235920,1421,2162,-5632,-1822,-711,1852,-374,-2306,41,43,787
260166,7675144,8234888,7679094,8236150,2431,2066,-6073,-2511,-480,1607,-984,-1969,33,38,780
261158,7675276,8235168,7679291,8236347,2211,1680,-6510,-3006,-232,1206,-1472,-1253,33,38,780
262159,7675492,8235380,7679488,8236544,1679,2098,-6943,-3314,11,1067,-1805,-646,27,40,786
263160,7675624,8235548,7679685,8236741,2233,2386,-7380,-3462,222,1213,-2177,-266,27,40,786
264162,7675708,8235700,7679882,8236938,2583,2506,-7810,-3641,379,1309,-2508,-128,39,43,785
265162,7675968,8235872,7680079,8237135,1456,2393,-8209,-3902,403,1234,-2627,76,39,43,785
266164,7676164,8236096,7680276,8237332,1858,2056,-8561,-4205,282,1201,-2868,459,52,51,780
267164,7676248,8236300,7680473,8237529,2608,2178,-8859,-4352,126,1458,-3436,1240,52,51,780
268166,7676448,8236500,7680670,8237726,1883,2201,-9154,-4308,74,1853,-4279,2161,47,47,783
269166,7676648,8236644,7680867,8237923,1882,2576,-9525,-3987,205,2189,-5219,3278,47,47,783
270167,7676792,8236800,7681064,8238120,2256,2519,-10042,-3357,513,2342,-6079,4512,42,45,779
271168,7676904,8236932,7681261,8238317,2494,2697,-10316,-3154,720,2360,-5110,3007,42,45,779
272169,7677120,8237108,7681458,8238514,1837,2431,-10252,-3382,718,2654,-4047,2701,33,37,782
273170,7677264,8237312,7681655,8238711,2311,2254,-10029,-3731,633,2917,-3407,2996,33,37,782
274172,7677316,8237496,7681852,8238908,2950,2385,-9770,-3953,546,3079,-2527,3769,42,30,777
275172,7677532,8237660,7682049,8239105,1918,2525,-9536,-3777,477,3252,-1664,5169,42,30,777
276173,7677736,8237820,7682246,8239302,1990,2566,-9464,-3009,412,3640,-629,7408,40,34,781
277174,7677804,8237976,7682443,8239499,2898,2610,-9193,-2478,335,3570,-695,6058,40,34,781
278175,7677964,8238148,7682640,8239696,2340,2521,-8830,-1891,204,3657,-124,7623,44,33,781
279176,7678156,8238372,7682837,8239893,2144,2184,-8493,-1057,-14,3756,363,8697,44,33,781
280178,7678300,8238600,7683034,8240090,2468,2146,-8176,-170,-292,3683,446,8835,46,55,775
281178,7678392,8238804,7683231,8240287,2840,2293,-7790,862,-579,3614,436,10235,46,55,775
282179,7678596,8239016,7683428,8240484,2137,2237,-3835,7965,-422,2642,-3174,32767,25,37,782
283180,7678772,8239216,7683625,8240681,2322,2310,4672,25200,547,1822,-7729,32767,25,37,782
284181,7678824,8239384,7683822,8240878,3162,2524,10211,-32570,770,5990,349,22092,48,41,778
285182,7679016,8239588,7684019,8241075,2290,2296,10662,31694,-48,6755,4378,-825,48,41,778
286183,7679208,8239840,7684216,8241272,2293,1972,9394,25640,-1074,7215,2968,-3852,45,57,780
287184,7679344,8240092,7684413,8241469,2671,1949,8164,21387,-1162,6810,-1979,-1434,45,57,780
288185,7679444,8240284,7684610,8241666,2940,2326,7528,18492,-423,4235,-4085,-3782,39,44,780
289186,7679644,8240484,7684807,8241863,2314,2275,6900,14246,328,-782,-4280,-5139,39,44,780
290188,7679816,8240700,7685004,8242060,2501,2166,6076,8506,638,-4601,-2728,-4531,47,59,779
291189,7679848,8240932,7685201,8242257,3450,2052,5139,2159,592,-7895,-727,-3883,47,59,779
292189,7680052,8241184,7685398,8242454,2373,1903,4163,-3265,388,-8531,1105,-1060,45,43,780
293190,7680268,8241432,7685595,8242651,2290,1905,3080,-6350,262,-8893,532,3947,45,43,780
294191,7680368,8241652,7685792,8242848,3059,2070,2231,-7631,440,-8683,319,6178,51,52,775
295192,7680524,8241900,7685989,8243045,2728,1874,1799,-7992,847,-7643,439,7609,51,52,775
296193,7680736,8242128,7686186,8243242,2373,1985,1617,-7851,919,-5273,850,8065,37,45,782
297194,7680912,8242352,7686383,8243439,2608,1998,1480,-7111,583,-4012,2055,8885,37,45,782
298195,7681044,8242588,7686580,8243636,2912,1906,1424,-5942,209,-3486,2891,9089,50,45,781
299196,7681232,8242940,7686777,8243833,2567,1113,1518,-4744,-103,-2587,2656,7991,50,45,781
300197,7681416,8243108,7686974,8244030,2599,2277,1800,-4161,-253,-3247,2545,6802,49,52,781
301198,7681500,8243264,7687171,8244227,3275,2370,2139,-3872,-200,-3560,2034,6894,49,52,781
302199,7681708,8243392,7687368,8244424,2497,2575,2381,-3499,21,-3089,1180,6475,30,48,783
303200,7681940,8243508,7687565,8244621,2332,2686,2508,-3178,563,-3240,890,6204,30,48,783
304201,7682044,8243624,7687762,8244818,3174,2721,2624,-2720,1305,-2879,530,6254,48,31,773
305202,7682192,8243816,7687959,8245015,2922,2249,2790,-2431,2032,-2800,610,5390,48,31,773
306203,7682408,8244008,7688156,8245212,2489,2252,3095,-2081,2640,-3207,758,5618,30,42,778
307204,7682580,8244252,7688353,8245409,2776,1906,3522,-1923,3051,-3241,689,4589,30,42,778
308205,7682680,8244564,7688550,8245606,3270,1430,3972,-1745,3338,-3293,682,4915,31,47,777
309206,7682848,8244824,7688747,8245803,2859,1728,4372,-1512,3623,-3214,755,4698,31,47,777
310207,7683032,8245056,7688944,8246000,2766,1888,4656,-1252,3902,-2715,984,4533,33,54,780
311208,7683100,8245364,7689141,8246197,3548,1365,4859,-976,4158,-2631,1238,4547,33,54,780
312210,7683244,8245660,7689338,8246394,3099,1396,5000,-763,4334,-2358,1170,4196,43,57,779
313210,7683420,8245944,7689535,8246591,2909,1433,5058,-549,4383,-1997,763,4021,43,57,779
314211,7683544,8246284,7689732,8246788,3267,1020,5067,-299,4352,-1894,574,4015,30,58,776
315212,7683640,8246572,7689929,8246985,3487,1305,5029,47,4224,-1588,639,3934,30,58,776
316213,7683788,8246860,7690126,8247182,3185,1265,4931,314,3968,-1428,1247,3401,41,55,781
317214,7683992,8247084,7690323,8247379,2834,1653,4775,490,3605,-1268,1488,3228,41,55,781
318215,7684120,8247408,7690520,8247576,3340,972,4544,499,3177,-779,1177,2513,34,69,778
319216,7684308,8247780,7690717,8247773,2970,595,4278,354,2764,-396,1273,2060,34,69,778
320217,7684500,8248108,7690914,8247970,2948,813,3959,180,2386,41,1538,1877,53,64,781
321218,7684644,8248432,7691111,8248167,3272,782,3575,-82,2029,538,1573,1483,53,64,781
322219,7684780,8248744,7691308,8248364,3351,807,3143,-366,1712,928,1560,1369,42,63,784
323221,7684948,8249076,7691505,8248561,3165,622,2717,-695,1467,1312,1375,1227,42,63,784
324222,7685104,8249412,7691702,8248758,3259,536,2355,-1018,1322,1702,923,1219,33,65,780
325223,7685240,8249684,7691899,8248955,3412,903,2095,-1279,1215,1891,967,1374,33,65,780
326223,7685392,8249936,7692096,8249152,3334,1004,1892,-1406,1053,1897,1760,1519,40,57,782
327224,7685560,8250184,7692293,8249349,3247,1007,1674,-1516,763,1731,2784,1414,40,57,782
328226,7685696,8250388,7692490,8249546,3475,1278,1385,-1634,356,1502,3544,1265,30,48,780
329226,7685848,8250564,7692687,8249743,3397,1462,1007,-1718,-114,1449,3953,1280,30,48,780
330227,7686032,8250764,7692884,8249940,3204,1310,565,-1737,-558,1445,3923,1456,46,36,780
331228,7686140,8250980,7693081,8250137,3719,1202,118,-1600,-897,1428,3442,1963,46,36,780
332229,7686320,8251216,7693278,8250334,3277,1060,-286,-1263,-1119,1437,2775,2331,47,35,778
333230,7686536,8251396,7693475,8250531,3046,1417,-668,-721,-1215,1502,2463,2757,47,35,778
334231,7686700,8251540,7693672,8250728,3386,1666,-1078,-133,-1199,1578,2153,2848,47,35,776
335232,7686900,8251712,7693869,8250925,3161,1502,-1506,485,-1144,1678,1944,2859,47,35,776
336234,7687136,8251892,7694066,8251122,2921,1458,-1884,1050,-1137,1630,1999,2690,43,52,778
337234,7687324,8252104,7694263,8251319,3226,1252,-2213,1548,-1197,1623,2028,2555,43,52,778
338235,7687500,8252312,7694460,8251516,3311,1272,-2510,2011,-1294,1660,1955,2483,59,52,779
339236,7687724,8252508,7694657,8251713,3001,1347,-2789,2504,-1442,1658,1941,2380,59,52,779
340237,7687988,8252640,7694854,8251910,2723,1776,-3057,2931,-1663,1618,1718,2265,40,36,780
341238,7688176,8252732,7695051,8252107,3203,2072,-3280,3327,-1929,1581,1317,2222,40,36,780
342239,7688424,8252876,7695248,8252304,2807,1770,-3476,3702,-2231,1488,1091,2248,44,38,782
343247,7688704,8253108,7695478,8252534,2586,1218,-3686,4061,-2602,1270,1195,2254,44,38,782
344241,7688936,8253320,7695675,8252731,2872,1337,-3913,4502,-3057,997,860,2564,49,33,777
345242,7689176,8253564,7695872,8252928,2805,1116,-4118,4987,-3582,747,638,2729,49,33,777
346243,7689464,8253680,7696069,8253125,2466,1952,-4293,5490,-4144,664,310,2987,43,40,783
347244,7689696,8253716,7696266,8253322,2802,2522,-4425,6036,-4664,727,-133,3166,43,40,783
348245,7689940,8253808,7696463,8253519,2707,2218,-4527,6547,-5097,820,-613,3161,60,35,783
349246,7690228,8253964,7696660,8253716,2394,1837,-4610,6948,-5461,800,-829,3080,60,35,783
350247,7690480,8254116,7696857,8253913,2596,1881,-4697,7171,-5795,714,-742,2747,50,45,777
351248,7690720,8254340,7697054,8254110,2653,1419,-4778,7250,-6118,657,-213,2327,50,45,777
352249,7690980,8254440,7697251,8254307,2501,2237,-4853,7102,-6412,483,215,1788,47,28,783
353250,7691236,8254516,7697448,8254504,2501,2440,-4918,6758,-6652,366,-200,1489,47,28,783
354251,7691456,8254628,7697645,8254701,2718,2253,-4921,6278,-6814,215,-706,1274,58,43,783
355252,7691696,8254848,7697842,8254898,2575,1567,-4859,5743,-6927,-69,-718,1178,58,43,783
356254,7691964,8255052,7698039,8255095,2370,1664,-4761,5226,-6995,-358,-997,1238,50,36,778
357255,7692176,8255264,7698236,8255292,2715,1608,-4617,4701,-6982,-788,-1447,1437,50,36,778
358256,7692372,8255416,7698433,8255489,2816,2003,-4456,4314,-6881,-1250,-2019,1900,58,45,782
359256,7692632,8255472,7698630,8255686,2389,2665,-4311,3986,-6724,-1841,-2587,2215,58,45,782
360258,7692848,8255572,7698827,8255883,2658,2432,-4209,3786,-6530,-2337,-3146,2696,46,33,782
361258,7693052,8255784,7699024,8256080,2731,1726,-4167,3751,-6314,-2859,-3684,3464,46,33,782
362259,7693324,8255988,7699221,8256277,2274,1773,-4191,3917,-6092,-3463,-4373,4163,39,37,778
363260,7693536,8256252,7699418,8256474,2643,1368,-4249,4236,-5845,-3960,-5146,4682,39,37,778
364262,7693748,8256416,7699615,8256671,2638,2008,-4309,4672,-5554,-4278,-5869,5196,40,35,781
365262,7693992,8256504,7699812,8256868,2418,2530,-4348,5047,-5263,-4627,-6277,5039,40,35,781
366263,7694248,8256560,7700009,8257065,2318,2792,-4327,5280,-4995,-4916,-6616,4686,63,33,782
367264,7694448,8256724,7700206,8257262,2668,2132,-4285,5370,-4759,-5119,-6718,4567,63,33,782
368266,7694708,8256960,7700403,8257459,2266,1665,-4221,5359,-4537,-5190,-6415,4446,56,39,778
369267,7695000,8257216,7700600,8257656,2026,1514,-4171,5294,-4327,-5079,-5669,4531,56,39,778
370267,7695268,8257384,7700797,8257853,2146,2077,-4147,5264,-4151,-4907,-4580,4810,59,41,779
371268,7695536,8257496,7700994,8258050,2116,2465,-4134,5158,-3976,-4619,-3716,4684,59,41,779
372270,7695880,8257564,7701191,8258247,1577,2797,-4078,4936,-3750,-4092,-3137,4569,62,28,786
373270,7696132,8257724,7701388,8258444,2129,2238,-3968,4598,-3449,-3576,-2619,4372,62,28,786
374271,7696376,8257948,7701585,8258641,2160,1826,-3789,4102,-3103,-3163,-2124,4240,68,36,781
375272,7696732,8258144,7701782,8258838,1391,2001,-3550,3468,-2780,-2806,-1559,3907,68,36,781
376274,7697024,8258300,7701979,8259035,1750,2269,-3252,2676,-2526,-2481,-1076,3638,71,46,782
377274,7697304,8258412,7702176,8259232,1790,2582,-2892,1778,-2349,-2193,-627,3479,71,46,782
378276,7697624,8258480,7702373,8259429,1486,2914,-2485,715,-2224,-1975,-331,3432,73,26,786
379276,7698016,8258624,7702570,8259626,951,2463,-2051,-395,-2114,-1699,-222,3521,73,26,786
380278,7698320,8258824,7702767,8259823,1455,2112,-1605,-1551,-1983,-1365,-256,3629,59,36,781
381278,7698604,8259016,7702964,8260020,1543,2164,-1139,-2619,-1840,-1145,-264,4027,59,36,781
382279,7699004,8259204,7703161,8260217,729,2193,-671,-3609,-1717,-934,-200,4450,62,30,786
383280,7699288,8259320,7703358,8260414,1417,2678,-163,-4376,-1645,-740,-131,5136,62,30,786
384281,7699572,8259400,7703555,8260611,1380,2956,700,-5019,-1672,-78,-251,9041,60,43,785
385282,7699956,8259560,7703752,8260808,673,2472,1759,-5401,-1776,-20,-183,9948,60,43,785
386283,7700244,8259764,7703949,8261005,1234,2194,2425,-5616,-1806,-655,-217,6591,77,35,782
387284,7700528,8259952,7704146,8261202,1221,2298,2772,-5680,-1744,-631,-702,6722,77,35,782
388285,7700852,8260172,7704343,8261399,916,2089,3057,-5646,-1645,-752,-859,6843,56,40,787
389286,7701120,8260316,7704540,8261596,1235,2587,3389,-5567,-1572,-958,-675,6916,56,40,787
390287,7701400,8260424,7704737,8261793,1125,2851,3751,-5436,-1525,-955,-521,7035,52,34,785
391288,7701692,8260596,7704934,8261990,1008,2462,4094,-5294,-1447,-850,-708,6994,52,34,785
392290,7701980,8260784,7705131,8262187,994,2367,4400,-5103,-1316,-898,-852,6864,59,47,784
393290,7702240,8260984,7705328,8262384,1143,2291,4677,-4955,-1136,-963,-904,6650,59,47,784
394291,7702424,8261216,7705525,8262581,1623,2075,4960,-4880,-899,-867,-835,6325,62,31,786
395292,7702720,8261400,7705722,8262778,881,2381,5245,-4842,-631,-691,-624,5886,62,31,786
396293,7702948,8261524,7705919,8262975,1292,2789,5518,-4880,-381,-700,-376,5306,46,36,786
397294,7703156,8261648,7706116,8263172,1413,2821,5744,-5096,-165,-764,-103,4844,46,36,786
398295,7703484,8261840,7706313,8263369,606,2398,5916,-5340,17,-762,226,4519,51,41,787
399296,7703696,8262036,7706510,8263566,1325,2374,6037,-5590,178,-758,391,4202,51,41,787
400297,7703896,8262272,7706707,8263763,1400,2108,6117,-5850,341,-793,458,3908,52,33,781
401298,7704184,8262464,7706904,8263960,810,2385,6163,-6108,529,-863,456,3736,52,33,781
402299,7704436,8262628,7707101,8264157,1012,2574,6173,-6313,741,-890,469,3610,39,41,784
403300,7704660,8262788,7707298,8264354,1175,2617,6152,-6523,951,-918,511,3457,39,41,784
404301,7704920,8263000,7707495,8264551,923,2285,6094,-6700,1143,-1007,650,3378,44,33,787
405302,7705216,8263212,7707692,8264748,655,2279,5997,-6802,1307,-1211,804,3309,44,33,787
406303,7705460,8263428,7707889,8264945,960,2245,5864,-6871,1466,-1267,904,3283,53,36,784
407304,7705692,8263652,7708086,8265142,1020,2184,5697,-6838,1659,-1154,939,3413,53,36,784
408305,7706000,8263824,7708283,8265339,496,2520,5486,-6652,1911,-1059,1109,3572,47,39,788
409306,7706232,8264012,7708480,8265536,956,2424,5230,-6368,2172,-985,1416,3676,47,39,788
410307,7706436,8264184,7708677,8265733,1128,2536,4957,-6082,2426,-869,1328,3708,40,32,787
411308,7706732,8264396,7708874,8265930,511,2280,4682,-5726,2669,-681,1583,3550,40,32,787
412309,7706940,8264600,7709071,8266127,1056,2327,4378,-5376,2907,-529,1768,3424,37,52,785
413310,7707128,8264812,7709268,8266324,1186,2270,4059,-5087,3120,-337,1958,3160,37,52,785
414311,7707336,8264968,7709465,8266521,1056,2639,3758,-4872,3305,-129,1860,2865,42,42,789
415312,7707564,8265144,7709662,8266718,917,2523,3445,-4681,3452,216,2026,2629,42,42,789
416313,7707744,8265328,7709859,8266915,1226,2479,3126,-4635,3559,601,2053,2199,45,40,786
417314,7707904,8265504,7710056,8267112,1367,2539,2773,-4606,3626,997,1985,2133,45,40,786
418315,7708152,8265684,7710253,8267309,796,2522,2391,-4559,3687,1441,1608,1973,29,26,785
419316,7708308,8265820,7710450,8267506,1389,2823,1976,-4545,3764,1880,1178,1973,29,26,785
420317,7708444,8265904,7710647,8267703,1541,3199,1536,-4515,3833,2243,978,2007,47,21,783
421319,7708700,8266056,7710844,8267900,766,2794,1079,-4469,3852,2594,943,1883,47,21,783
422319,7708832,8266216,7711041,8268097,1569,2760,636,-4386,3835,2908,660,2131,46,41,780
423320,7708916,8266384,7711238,8268294,1920,2724,209,-4287,3790,3115,558,2156,46,41,780
424322,7709140,8266556,7711435,8268491,1033,2710,-213,-4155,3696,3307,403,2281,41,35,783
425323,7709304,8266616,7711632,8268688,1424,3470,-644,-3996,3558,3461,267,2421,41,35,783
426330,7709388,8266644,7711862,8268918,1988,3760,-1069,-3791,3359,3619,181,2498,41,23,780
427324,7709560,8266740,7712059,8269115,1449,3379,-1483,-3578,3103,3736,92,2580,41,23,780
428325,7709744,8266856,7712256,8269312,1380,3291,-1871,-3367,2807,3846,18,2663,35,18,776
429326,7709848,8266988,7712453,8269509,1921,3219,-2240,-3130,2466,3942,0,2674,35,18,776
430327,7709932,8267124,7712650,8269706,2097,3222,-2582,-2877,2101,4016,-89,2756,22,25,776
431341,7710220,8267172,7712847,8269903,782,3800,-2868,-2606,1729,3987,-283,2938,22,25,776
432342,7710328,8267200,7713044,8270100,1947,3800,-3106,-2302,1351,3979,-430,3025,39,30,776
433343,7710376,8267260,7713241,8270297,2388,3800,-3304,-2039,972,4015,-542,3051,39,30,776
434331,7710668,8267396,7713438,8270494,822,3451,-3467,-1708,603,4007,-581,3176,27,33,775
435332,7710820,8267532,7713635,8270691,1718,3478,-3591,-1358,228,3874,-643,3314,27,33,775
436333,7710912,8267672,7713832,8270888,2139,3479,-3674,-995,-126,3745,-850,3489,35,26,769
437347,7711112,8267744,7714029,8271085,1463,3800,-3711,-602,-459,3609,-976,3601,35,26,769
438348,7711348,8267800,7714226,8271282,1221,3800,-3690,-182,-758,3448,-1172,3754,38,32,774
439349,7711508,8267904,7714423,8271479,1714,3800,-3616,244,-1029,3265,-1238,3857,38,32,774
440337,7711612,8268036,7714620,8271676,2104,3718,-3502,689,-1265,3061,-1350,3828,39,33,773
441338,7711896,8268228,7714817,8271873,942,3345,-3352,1121,-1479,2830,-1419,3917,39,33,773
442339,7712080,8268376,7715014,8272070,1573,3643,-3174,1533,-1661,2531,-1427,4005,47,45,773
443340,7712200,8268576,7715211,8272267,2008,3318,-2977,1990,-1821,2141,-1149,4154,47,45,773
444354,7712436,8268664,7715408,8272464,1267,3800,-2780,2462,-1972,1708,-859,4383,52,36,778
445342,7712684,8268824,7715605,8272661,1169,3633,-2572,2920,-2088,1365,-803,4432,52,36,778
446343,7712860,8268996,7715802,8272858,1629,3570,-2363,3370,-2142,1106,-648,4398,50,30,774
447344,7713024,8269192,7715999,8273055,1719,3420,-2134,3770,-2128,780,-534,4264,50,30,774
448345,7713296,8269400,7716196,8273252,1012,3341,-1887,4054,-2069,371,-518,4166,41,44,776
449346,7713480,8269612,7716393,8273449,1568,3311,-1647,4294,-1968,19,-505,4125,41,44,776
450347,7713620,8269772,7716590,8273646,1869,3653,-1396,4499,-1823,-286,-438,4007,54,31,776
451361,7713916,8269892,7716787,8273843,850,3800,-1129,4646,-1643,-605,-382,4075,54,31,776
452349,7714100,8270108,7716984,8274040,1557,3329,-865,4796,-1436,-1040,-378,4235,49,35,777
453350,7714216,8270348,7717181,8274237,2018,3162,-621,4993,-1212,-1507,-385,4352,49,35,777
454351,7714424,8270604,7717378,8274434,1439,3037,-384,5148,-1001,-1875,-278,4328,30,53,778
455352,7714684,8270880,7717575,8274631,1087,2877,-160,5258,-813,-2168,-142,4335,30,53,778
456354,7714824,8271100,7717772,8274828,1862,3218,28,5293,-667,-2426,-57,4201,51,55,776
457354,7714980,8271328,7717969,8275025,1781,3155,197,5251,-556,-2657,-73,3899,51,55,776
458356,7715224,8271572,7718166,8275222,1210,3036,373,5072,-461,-2801,-85,3679,42,56,782
459356,7715388,8271856,7718363,8275419,1726,2747,531,4832,-337,-2851,-399,3729,42,56,782
460357,7715524,8272168,7718560,8275616,1928,2523,619,4713,-124,-2809,-967,4172,40,51,778
461358,7715732,8272448,7718757,8275813,1474,2687,650,4621,145,-2754,-1103,4067,40,51,778
462359,7715916,8272684,7718954,8276010,1631,2945,636,4505,397,-2705,-951,4223,49,49,781
463360,7716024,8272888,7719151,8276207,2145,3143,600,4347,618,-2627,-764,4279,49,49,781
464361,7716216,8273148,7719348,8276404,1623,2765,550,4093,835,-2548,-685,4003,45,49,783
465362,7716412,8273464,7719545,8276601,1598,2364,510,3683,1067,-2427,-688,3572,45,49,783
466363,7716552,8273744,7719742,8276798,1974,2554,479,3167,1311,-2257,-418,3396,51,62,775
467364,7716676,8273988,7719939,8276995,2107,2758,451,2510,1550,-2165,27,3018,51,62,775
468365,7716880,8274272,7720136,8277192,1604,2471,405,1778,1756,-2106,355,2994,44,46,782
469366,7717016,8274536,7720333,8277389,2057,2566,319,1079,1914,-2013,466,3152,44,46,782
470367,7717128,8274780,7720530,8277586,2245,2672,207,391,2064,-1859,622,3130,28,48,779
471368,7717316,8275016,7720727,8277783,1774,2704,99,-287,2214,-1630,801,3247,28,48,779
472369,7717484,8275248,7720924,8277980,1913,2715,-13,-934,2359,-1425,1024,3429,48,61,781
473370,7717580,8275512,7721121,8278177,2408,2487,-112,-1531,2496,-1284,1144,3585,48,61,781
474371,7717704,8275800,7721318,8278374,2266,2297,-164,-2104,2613,-1230,1182,3618,24,44,780
475372,7717868,8276052,7721515,8278571,2031,2498,-186,-2599,2700,-1192,1103,3927,24,44,780
476373,7717952,8276272,7721712,8278768,2581,2688,-173,-3025,2754,-1126,1090,4119,36,47,778
477374,7718056,8276488,7721909,8278965,2498,2705,-135,-3377,2776,-1060,1107,4346,36,47,778
478375,7718268,8276696,7722106,8279162,1817,2751,-87,-3580,2765,-1005,1174,4639,47,43,780
479376,7718380,8276932,7722303,8279359,2480,2559,-43,-3720,2756,-998,1063,4837,47,43,780
480377,7718484,8277236,7722500,8279556,2571,2088,-5,-3792,2773,-1040,853,5155,30,62,777
481378,7718668,8277536,7722697,8279753,2078,2068,36,-3806,2797,-946,784,5265,30,62,777
482379,7718844,8277796,7722894,8279950,2138,2291,83,-3730,2808,-904,696,5477,31,49,778
483380,7718940,8278008,7723091,8280147,2684,2584,161,-3654,2831,-903,428,5450,31,49,778
484381,7719064,8278248,7723288,8280344,2541,2392,275,-3561,2857,-856,431,5502,42,63,782
485382,7719252,8278532,7723485,8280541,2146,2078,414,-3387,2855,-784,495,5635,42,63,782
486383,7719360,8278852,7723682,8280738,2686,1799,556,-3229,2827,-767,605,5634,50,61,777
487385,7719472,8279164,7723879,8280935,2699,1800,682,-3021,2805,-609,455,5779,50,61,777
488386,7719648,8279452,7724076,8281132,2309,1910,804,-2786,2817,-480,315,5751,26,56,781
489387,7719832,8279732,7724273,8281329,2266,1923,944,-2503,2839,-440,303,5728,26,56,781
490388,7719984,8280048,7724470,8281526,2486,1647,1093,-2216,2844,-422,251,5644,35,54,779
491389,7720176,8280336,7724667,8281723,2239,1782,1248,-1958,2829,-306,242,5634,35,54,779
492390,7720364,8280592,7724864,8281920,2269,1956,1408,-1682,2808,-131,242,5605,28,53,783
493390,7720520,8280872,7725061,8282117,2488,1770,1567,-1456,2783,76,256,5233,28,53,783
494391,7720664,8281256,7725258,8282314,2587,1038,1720,-1284,2750,266,334,5157,30,69,783
495392,7720864,8281592,7725455,8282511,2237,1277,1842,-1108,2708,408,335,4986,30,69,783
496393,7721028,8281880,7725652,8282708,2478,1537,1933,-946,2653,633,333,4885,51,65,782
497395,7721196,8282132,7725849,8282905,2465,1738,2000,-764,2592,902,321,4880,51,65,782
498395,7721444,8282364,7726046,8283102,1944,1848,2049,-538,2543,1043,274,4945,49,63,786
499396,7721600,8282708,7726243,8283299,2538,1083,2070,-266,2487,1035,347,4944,49,63,786
500397,7721788,8283032,7726440,8283496,2343,1153,2057,-22,2411,1118,478,4858,54,64,781
501398,7721984,8283388,7726637,8283693,2294,884,2005,219,2309,1281,585,4767,54,64,781
502399,7722188,8283636,7726834,8283890,2242,1536,1939,443,2192,1486,656,4490,53,58,785
503401,7722348,8283816,7727031,8284087,2534,1969,1873,600,2080,1630,636,4204,53,58,785
504402,7722548,8284060,7727228,8284284,2284,1548,1810,700,1992,1670,626,4059,48,61,787
505402,7722784,8284376,7727425,8284481,2043,1046,1751,800,1934,1685,593,3939,48,61,787
506403,7722936,8284672,7727622,8284678,2588,1127,1699,888,1858,1657,754,3704,45,52,781
507404,7723124,8285028,7727819,8284875,2368,682,1649,927,1750,1621,878,3578,45,52,781
508406,7723336,8285216,7728016,8285072,2212,1736,1603,951,1591,1582,817,3393,46,59,788
509413,7723536,8285448,7728246,8285302,2301,1460,1565,964,1382,1518,609,3337,46,59,788
510407,7723748,8285700,7728443,8285499,2221,1311,1532,1001,1163,1444,267,3390,56,44,786
511408,7723996,8285980,7728640,8285696,1974,1100,1507,1114,972,1391,-82,3484,56,44,786
512410,7724204,8286320,7728837,8285893,2220,662,1476,1346,789,1316,-296,3577,54,47,783
513411,7724420,8286520,7729034,8286090,2163,1536,1440,1531,582,1195,-458,3476,54,47,783
514411,7724656,8286776,7729231,8286287,2022,1160,1389,1750,348,1052,-821,3512,54,57,788
515412,7724856,8287032,7729428,8286484,2246,1133,1360,2021,120,903,-994,3449,54,57,788
516413,7725028,8287240,7729625,8286681,2433,1428,1357,2259,-102,767,-1000,3212,37,49,785
517414,7725280,8287448,7729822,8286878,1909,1423,1366,2384,-314,633,-903,2829,37,49,785
518415,7725480,8287756,7730019,8287075,2234,749,1362,2412,-512,534,-829,2494,55,39,787
519416,7725656,8287924,7730216,8287272,2394,1637,1359,2324,-688,543,-960,2013,55,39,787
520418,7725844,8288160,7730413,8287469,2324,1195,1351,2131,-832,514,-1078,1714,48,35,787
521418,7726040,8288372,7730610,8287666,2276,1338,1328,1845,-936,622,-1145,1457,48,35,787
522419,7726172,8288520,7730807,8287863,2705,1760,1237,1514,-1015,744,-727,1259,29,48,782
523420,7726328,8288736,7731004,8288060,2573,1325,1085,1173,-1086,672,-38,1262,29,48,782
524421,7726520,8289036,7731201,8288257,2352,755,917,872,-1159,613,124,1377,25,50,785
525422,7726700,8289200,7731398,8288454,2435,1620,741,682,-1204,498,18,1646,25,50,785
526423,7726884,8289396,7731595,8288651,2417,1420,555,573,-1191,423,-343,1890,30,44,783
527424,7727084,8289576,7731792,8288848,2316,1528,340,479,-1146,483,-644,1974,30,44,783
528425,7727260,8289696,7731989,8289045,2477,1936,100,425,-1117,519,-499,1986,28,32,783
529426,7727404,8289924,7732186,8289242,2701,1248,-154,370,-1160,447,-199,1992,28,32,783
530427,7727648,8290124,7732383,8289439,2056,1421,-435,362,-1282,408,-317,2402,36,40,784
531428,7727840,8290316,7732580,8289636,2385,1473,-764,530,-1427,335,-605,2934,36,40,784
532429,7728012,8290420,7732777,8289833,2520,2064,-1122,733,-1579,322,-727,3032,34,26,782
533430,7728296,8290512,7732974,8290030,1783,2185,-1504,945,-1742,392,-397,3155,34,26,782
534431,7728504,8290620,7733171,8290227,2254,2124,-1843,1045,-1898,662,-282,2716,49,35,782
535432,7728652,8290772,7733368,8290424,2652,1869,-2111,893,-2036,931,-408,1858,49,35,782
536434,7728844,8290972,7733565,8290621,2380,1567,-2316,463,-2140,1144,-387,1422,30,26,783
537434,7729068,8291164,7733762,8290818,2169,1619,-2512,-38,-2208,1339,-353,1359,30,26,783
538435,7729220,8291280,7733959,8291015,2640,2130,-2711,-517,-2207,1493,-304,1492,33,36,780
539436,7729356,8291396,7734156,8291212,2768,2166,-2937,-895,-2128,1582,-283,2060,33,36,780
540437,7729648,8291476,7734353,8291409,1752,2442,-3179,-1203,-1994,1765,-131,2324,52,39,784
541438,7729832,8291656,7734550,8291606,2434,1825,-3416,-1446,-1812,1942,-15,2539,52,39,784
542439,7729984,8291872,7734747,8291803,2654,1591,-3631,-1608,-1582,2041,2,2890,56,42,778
543440,7730256,8292080,7734944,8292000,1872,1636,-3799,-1832,-1326,1983,47,2883,56,42,778
544441,7730468,8292152,7735141,8292197,2241,2541,-3923,-2039,-1082,1864,155,3183,51,30,781
545442,7730608,8292232,7735338,8292394,2717,2543,-4011,-2198,-906,1715,404,3265,51,30,781
546443,7730884,8292280,7735535,8292591,1833,2808,-4082,-2322,-771,1684,265,3579,36,22,785
547444,7731116,8292460,7735732,8292788,2094,1991,-4174,-2306,-630,1682,94,4230,36,22,785
548445,7731272,8292684,7735929,8292985,2588,1704,-4264,-2203,-492,1716,-37,4520,56,41,776
549446,7731408,8292892,7736126,8293182,2741,1799,-4349,-2006,-353,1875,-16,5042,56,41,776
550447,7731656,8293032,7736323,8293379,2019,2249,-4403,-1757,-212,1904,64,5217,32,40,781
551448,7731836,8293116,7736520,8293576,2453,2649,-4415,-1511,-70,1851,96,5294,32,40,781
552450,7731948,8293160,7736717,8293773,2915,2966,-4404,-1312,94,1910,-139,5306,34,20,780
553451,7732264,8293264,7736914,8293970,1589,2632,-4344,-1143,250,1874,-103,5305,34,20,780
554452,7732480,8293440,7737111,8294167,2207,2191,-4248,-964,368,1780,-96,5360,46,46,775
555452,7732620,8293668,7737308,8294364,2708,1852,-4142,-783,445,1779,-139,5630,46,46,775
556454,7732836,8293820,7737505,8294561,2225,2348,-4017,-513,504,1821,-285,6004,45,33,778
557454,7733152,8293924,7737702,8294758,1549,2689,-3900,-168,537,1838,-413,6302,45,33,778
558456,7733388,8294068,7737899,8294955,2033,2462,-3786,263,534,1773,-420,6580,48,30,780
559456,7733572,8294156,7738096,8295152,2365,2860,-3628,676,462,1622,-286,6574,48,30,780
560457,7733900,8294368,7738293,8295349,1407,2079,-3394,1056,348,1616,-337,6536,40,44,781
561458,7734140,8294552,7738490,8295546,1939,2259,-3057,1307,200,1655,-274,6094,40,44,781
562459,7734296,8294776,7738687,8295743,2483,1998,-2646,1429,3,1679,-126,5764,58,38,776
563460,7734540,8294908,7738884,8295940,1913,2602,-2211,1493,-228,1664,-60,5674,58,38,776
564461,7734820,8295004,7739081,8296137,1653,2871,-1787,1486,-465,1675,-226,5657,37,28,782
565462,7734972,8295136,7739278,8296334,2474,2675,-1414,1591,-646,1601,-739,5924,37,28,782
566463,7735184,8295332,7739475,8296531,2092,2275,-1098,1765,-758,1468,-824,6077,50,30,779
567464,7735456,8295584,7739672,8296728,1685,1902,-839,1901,-854,1401,-398,6036,50,30,779
568465,7735660,8295792,7739869,8296925,2108,2172,-629,2002,-933,1313,-183,5930,44,44,777
569466,7735848,8296000,7740066,8297122,2213,2168,-453,2069,-978,1177,-434,5779,44,44,777
570467,7736160,8296124,7740263,8297319,1389,2725,-288,2008,-1011,1034,-366,5455,38,37,785
571468,7736396,8296252,7740460,8297516,1846,2730,-128,1862,-1033,1001,-89,5213,38,37,785
572469,7736528,8296400,7740657,8297713,2526,2628,45,1664,-1026,926,-123,5045,53,31,782
573470,7736860,8296672,7740854,8297910,1218,1820,206,1488,-992,873,-15,5035,53,31,782
574471,7737096,8296860,7741051,8298107,1802,2348,351,1357,-945,832,20,5090,60,46,779
575472,7737324,8297100,7741248,8298304,1838,2005,489,1221,-873,802,174,5071,60,46,779
576473,7737540,8297248,7741445,8298501,1906,2602,612,1121,-780,803,285,5120,51,32,786
577474,7737800,8297372,7741642,8298698,1604,2784,730,1012,-667,792,308,4980,51,32,786
578475,7738016,8297540,7741839,8298895,1872,2522,839,881,-577,840,484,4821,48,43,783
579476,7738196,8297756,7742036,8299092,2104,2214,933,683,-542,1042,560,4533,48,43,783
580477,7738504,8297988,7742233,8299289,1256,2099,1002,516,-528,1250,249,4536,40,41,781
581478,7738784,8298180,7742430,8299486,1396,2351,1027,501,-495,1157,-439,4865,40,41,781
582479,7738948,8298360,7742627,8299683,2136,2434,1023,563,-429,729,-1075,5138,43,37,782
583480,7739204,8298536,7742824,8299880,1535,2468,996,758,-357,358,-1351,5491,43,37,782
584481,7739468,8298684,7743021,8300077,1457,2666,963,997,-291,303,-1100,5289,45,31,784
585482,7739576,8298880,7743218,8300274,2472,2366,929,1191,-289,434,-329,5117,45,31,784
586483,7739764,8299108,7743415,8300471,1976,2152,893,1280,-350,574,168,4725,39,43,783
587484,7739988,8299304,7743612,8300668,1740,2353,878,1187,-425,708,45,4213,39,43,783
588485,7740168,8299460,7743809,8300865,2024,2622,867,1027,-478,979,-356,3925,47,52,778
589486,7740280,8299628,7744006,8301062,2486,2560,848,766,-473,1340,-1088,3581,47,52,778
590487,7740544,8299772,7744203,8301259,1507,2733,804,593,-409,1383,-1438,3724,37,34,782
591488,7740716,8299996,7744400,8301456,2094,2222,748,475,-292,1116,-1563,3837,37,34,782
592498,7740772,8300236,7744630,8301686,2897,2118,675,450,-160,799,-1457,4057,50,53,778
593491,7740984,8300476,7744827,8301883,1915,2099,597,434,-65,507,-644,3986,50,53,778
594491,7741188,8300636,7745024,8302080,1963,2615,508,516,-3,492,-552,4139,40,52,781
595492,7741284,8300776,7745221,8302277,2684,2766,386,624,98,447,-1110,4266,40,52,781
596493,7741444,8300920,7745418,8302474,2300,2764,277,779,196,223,-774,4432,24,39,783
597494,7741700,8301104,7745615,8302671,1675,2520,211,998,258,215,-768,4265,24,39,783
598495,7741876,8301352,7745812,8302868,2185,2099,198,1188,285,212,-493,4128,40,49,774
599496,7741976,8301592,7746009,8303065,2704,2130,188,1379,259,90,36,4238,40,49,774
600497,7742192,8301768,7746206,8303262,1970,2539,176,1638,208,-46,-412,4371,39,39,780
601498,7742420,8301916,7746403,8303459,1883,2736,153,1989,158,-217,-1020,4688,39,39,780
602499,7742484,8302048,7746600,8303656,2967,2865,137,2324,118,-223,-1573,4618,32,51,779
603500,7742684,8302216,7746797,8303853,2117,2653,90,2754,82,-204,-1760,4784,32,51,779
604501,7742912,8302428,7746994,8304050,1929,2371,23,3155,74,-368,-1327,4616,42,43,779
605502,7743012,8302644,7747191,8304247,2772,2339,-75,3452,94,-435,-736,4427,42,43,779
606503,7743136,8302876,7747388,8304444,2655,2224,-190,3629,150,-490,42,4121,33,46,778
607504,7743348,8303016,7747585,8304641,2099,2824,-299,3726,232,-498,381,3794,33,46,778
608505,7743548,8303168,7747782,8304838,2174,2769,-402,3708,327,-511,121,3466,39,52,776
609506,7743616,8303328,7747979,8305035,3057,2736,-455,3527,440,-661,-83,2988,39,52,776
610507,7743852,8303512,7748176,8305232,1990,2591,-475,3199,539,-725,-282,2683,51,43,776
611508,7744056,8303748,7748373,8305429,2188,2249,-472,2825,629,-758,-476,2477,51,43,776
612509,7744156,8304012,7748570,8305626,2881,2046,-458,2421,739,-892,-477,2342,54,53,773
613510,7744304,8304196,7748767,8305823,2604,2551,-430,1951,833,-1125,19,2253,54,53,773
614511,7744544,8304376,7748964,8306020,2011,2584,-406,1562,918,-1358,-118,2605,46,37,781
615512,7744680,8304580,7749161,8306217,2689,2432,-402,1395,1025,-1490,-358,3242,46,37,781
616513,7744796,8304776,7749358,8306414,2849,2482,-422,1359,1150,-1638,-754,3550,51,54,777
617514,7744992,8305060,7749555,8306611,2351,1894,-451,1346,1324,-1836,-1467,3792,51,54,777
618516,7745208,8305304,7749752,8306808,2218,2124,-479,1388,1548,-1940,-1631,3992,32,41,777
619516,7745276,8305512,7749949,8307005,3201,2345,-474,1370,1756,-2132,-868,3689,32,41,777
620518,7745444,8305708,7750146,8307202,2590,2420,-443,1277,1910,-2457,-216,3672,39,40,780
621518,7745688,8305912,7750343,8307399,2095,2367,-388,1147,2033,-2518,-213,3665,39,40,780
622519,7745808,8306124,7750540,8307596,2905,2311,-328,1093,2129,-2574,-244,3894,40,47,773
623520,7745956,8306400,7750737,8307793,2753,1877,-272,1082,2235,-2628,-320,4059,40,47,773
624521,7746144,8306660,7750934,8307990,2507,1949,-206,1081,2365,-2549,-580,4217,43,46,780
625522,7746372,8306908,7751131,8308187,2244,2003,-123,1089,2541,-2474,-1145,4351,43,46,780
626523,7746504,8307144,7751328,8308384,2873,2060,-28,1065,2791,-2287,-1629,4128,45,46,779
627524,7746708,8307384,7751525,8308581,2421,2017,67,893,3036,-2240,-794,3814,45,46,779
628525,7746960,8307632,7751722,8308778,2098,1944,146,625,3209,-2209,-121,3712,43,50,781
629526,7747056,8307892,7751919,8308975,3119,1841,229,296,3355,-2055,94,3593,43,50,781
630527,7747216,8308160,7752116,8309172,2736,1761,311,0,3531,-1818,182,3672,36,59,781
631528,7747464,8308504,7752313,8309369,2164,1222,391,-284,3757,-1642,204,3779,36,59,781
632529,7747640,8308696,7752510,8309566,2625,2174,472,-549,4010,-1459,225,3916,44,51,774
633530,7747740,8308852,7752707,8309763,3143,2417,568,-803,4235,-1417,-42,3981,44,51,774
634532,7747996,8309040,7752904,8309960,2143,2221,686,-1016,4431,-1407,-946,4137,39,35,785
635532,7748212,8309196,7753101,8310157,2386,2440,856,-1189,4615,-1298,-1183,4197,39,35,785
636534,7748308,8309392,7753298,8310354,3181,2190,1015,-1373,4741,-1268,-71,4218,40,39,774
637534,7748476,8309660,7753495,8310551,2745,1709,1143,-1552,4765,-1352,904,4249,40,39,774
638535,7748692,8309960,7753692,8310748,2438,1464,1249,-1660,4706,-1320,1067,4578,33,63,778
639536,7748792,8310296,7753889,8310945,3205,1178,1401,-1674,4661,-1111,433,4882,33,63,778
640537,7748896,8310656,7754086,8311142,3222,956,1604,-1617,4656,-890,239,5105,32,74,780
641538,7749096,8310888,7754283,8311339,2622,1741,1792,-1488,4656,-833,626,5257,32,74,780
642539,7749220,8311156,7754480,8311536,3130,1485,1924,-1298,4658,-788,121,5428,45,74,778
643540,7749332,8311452,7754677,8311733,3243,1267,2033,-1094,4667,-714,-486,5382,45,74,778
644541,7749584,8311820,7754874,8311930,2345,742,2142,-930,4657,-703,-49,5308,53,71,780
645542,7749776,8312180,7755071,8312127,2723,720,2246,-724,4617,-680,250,5477,53,71,780
646543,7749936,8312536,7755268,8312324,2941,675,2334,-534,4534,-573,297,5385,40,77,779
647544,7750100,8312892,7755465,8312521,2931,605,2376,-345,4389,-541,522,5375,40,77,779
648546,7750312,8313232,7755662,8312718,2626,643,2404,-139,4215,-417,632,5372,54,68,785
649546,7750504,8313624,7755859,8312915,2754,231,2435,71,4017,-252,565,5272,54,68,785
650547,7750648,8314056,7756056,8313112,3079,-122,2478,289,3785,-260,705,5218,40,57,783
651549,7750844,8314480,7756253,8313309,2756,-172,2509,438,3526,-113,684,4955,40,57,783
652550,7751008,8314872,7756450,8313506,2971,-58,2475,578,3235,195,766,4920,32,78,785
653550,7751156,8315148,7756647,8313703,3094,632,2383,708,2953,406,1200,4855,32,78,785
654551,7751332,8315244,7756844,8313900,2929,1801,2278,808,2688,604,1450,4666,27,59,784
655552,7751480,8315516,7757041,8314097,3126,668,2171,862,2447,786,1592,4571,27,59,784
656553,7751572,8315876,7757238,8314294,3523,46,2068,892,2193,996,1908,4414,32,55,782
657554,7751772,8316192,7757435,8314491,2848,269,1965,920,1854,1213,2108,4175,32,55,782
658555,7751920,8316448,7757632,8314688,3196,617,1845,910,1443,1214,2205,4066,45,52,782
659556,7752080,8316668,7757829,8314885,3138,832,1702,983,1038,1128,1895,4443,45,52,782
660557,7752252,8316808,7758026,8315082,3075,1357,1528,1144,659,986,1887,4554,46,42,785
661558,7752440,8316976,7758223,8315279,2980,1194,1289,1410,278,814,2235,4770,46,42,785
662559,7752588,8317204,7758420,8315476,3252,805,982,1712,-130,716,2330,4589,47,51,781
663560,7752740,8317476,7758617,8315673,3248,497,633,1923,-543,661,2504,4427,47,51,781
664561,7752940,8317660,7758814,8315870,2949,1052,258,2208,-886,678,2274,4633,29,37,779
665562,7753120,8317820,7759011,8316067,3082,1218,-92,2459,-1122,894,2205,4465,29,37,779
666563,7753268,8317912,7759208,8316264,3305,1689,-395,2708,-1282,1045,2260,4408,33,45,780
667564,7753516,8318008,7759405,8316461,2658,1708,-638,2865,-1425,1130,2286,4091,33,45,780
668565,7753712,8318184,7759602,8316658,2985,1217,-830,3053,-1591,1237,2184,4038,32,39,780
669566,7753868,8318408,7759799,8316855,3254,905,-959,3164,-1805,1176,2164,3613,32,39,780
670567,7754080,8318604,7759996,8317052,2898,1079,-1014,3139,-2057,1193,1780,3345,47,35,781
671568,7754296,8318740,7760193,8317249,2866,1481,-1018,3093,-2318,1159,1044,3295,47,35,781
672569,7754468,8318800,7760390,8317446,3154,2016,-1018,3033,-2576,952,723,3251,40,35,780
673570,7754688,8318880,7760587,8317643,2845,1942,-1035,3068,-2860,672,458,3498,40,35,780
674571,7754880,8319064,7760784,8317840,3023,1298,-1061,3147,-3164,419,109,3660,36,38,780
675579,7755064,8319296,7761014,8318070,3094,997,-1100,3352,-3457,330,-298,4041,36,38,780
676573,7755248,8319432,7761211,8318267,3101,1624,-1159,3647,-3706,191,-701,4307,53,25,777
677574,7755424,8319540,7761408,8318464,3161,1838,-1241,4017,-3908,-41,-1042,4477,53,25,777
678575,7755608,8319560,7761605,8318661,3118,2464,-1354,4338,-4085,-273,-1229,4390,32,27,780
679576,7755760,8319656,7761802,8318858,3339,2034,-1492,4531,-4255,-409,-1189,4107,32,27,780
680577,7755996,8319856,7761999,8319055,2799,1382,-1618,4604,-4417,-577,-1237,3747,44,41,777
681578,7756192,8320132,7762196,8319252,3050,873,-1711,4549,-4575,-790,-1326,3375,44,41,777
682579,7756352,8320344,7762393,8319449,3292,1266,-1765,4372,-4706,-959,-1403,3076,40,39,775
683580,7756532,8320560,7762590,8319646,3176,1233,-1800,4126,-4793,-1041,-1585,2885,40,39,775
684581,7756716,8320656,7762787,8319843,3157,2026,-1845,3894,-4814,-1127,-1894,3029,45,32,781
685582,7756856,8320700,7762984,8320040,3458,2418,-1898,3614,-4776,-1305,-2169,2828,45,32,781
686583,7757064,8320964,7763181,8320237,3031,1014,-1939,3331,-4706,-1548,-2448,2967,47,48,778
687584,7757240,8321184,7763378,8320434,3241,1279,-1978,3087,-4601,-1753,-2746,3044,47,48,778
688585,7757428,8321392,7763575,8320631,3171,1349,-1999,2830,-4474,-1813,-2968,3039,35,41,770
689586,7757624,8321576,7763772,8320828,3122,1505,-2006,2567,-4310,-1978,-3230,3136,35,41,770
690587,7757840,8321680,7763969,8321025,2990,2045,-2022,2301,-4111,-2181,-3442,3301,37,45,779
691588,7758060,8321724,7764166,8321222,2956,2487,-2059,2094,-3906,-2279,-3551,3501,37,45,779
692589,7758244,8321936,7764363,8321419,3189,1430,-2117,1906,-3713,-2372,-3409,3679,47,38,779
693590,7758512,8322096,7764560,8321616,2633,1772,-2182,1812,-3534,-2466,-2971,3963,47,38,779
694591,7758736,8322284,7764757,8321813,2897,1601,-2247,1726,-3385,-2562,-2438,3997,58,43,774
695592,7758936,8322440,7764954,8322010,3047,1819,-2309,1631,-3249,-2606,-2108,4247,58,43,774
696593,7759208,8322532,7765151,8322207,2565,2265,-2371,1530,-3124,-2510,-1834,4321,47,42,780
697594,7759456,8322568,7765348,8322404,2694,2685,-2431,1444,-3002,-2396,-1652,4492,47,42,780
698595,7759684,8322724,7765545,8322601,2806,1953,-2475,1363,-2864,-2301,-1481,4516,43,37,777
699596,7759948,8322892,7765742,8322798,2554,1891,-2490,1182,-2723,-2131,-1324,4358,43,37,777
700597,7760228,8323060,7765939,8322995,2418,1904,-2470,1022,-2578,-1913,-1217,4507,56,36,774
701598,7760468,8323272,7766136,8323192,2650,1622,-2406,767,-2410,-1682,-1033,4316,56,36,774
702599,7760712,8323368,7766333,8323389,2606,2392,-2314,457,-2243,-1447,-847,4361,60,26,781
703600,7761092,8323392,7766530,8323586,1676,2918,-2173,126,-2082,-1312,-593,4275,60,26,781
704601,7761384,8323504,7766727,8323783,2185,2405,-2007,-258,-1916,-1054,-433,4327,62,41,781
705602,7761624,8323684,7766924,8323980,2493,1988,-1813,-637,-1775,-848,-153,4292,62,41,781
706603,7761984,8323848,7767121,8324177,1672,2102,-1610,-1026,-1661,-685,155,4298,55,44,779
707604,7762312,8324028,7767318,8324374,1815,2010,-1384,-1399,-1555,-498,307,4451,55,44,779
708605,7762612,8324164,7767515,8324571,1946,2311,-1162,-1762,-1458,-423,503,4625,59,28,780
709606,7762952,8324244,7767712,8324768,1634,2713,-928,-2043,-1367,-390,628,4822,59,28,780
710607,7763304,8324324,7767909,8324965,1492,2764,-704,-2288,-1285,-310,539,4954,72,39,783
711608,7763616,8324504,7768106,8325162,1693,2147,-461,-2492,-1234,-255,550,5051,72,39,783
712609,7763920,8324668,7768303,8325359,1696,2261,-214,-2639,-1212,-256,595,5309,69,41,781
713610,7764256,8324864,7768500,8325556,1436,2063,58,-2755,-1209,-213,376,5341,69,41,781
714611,7764588,8324984,7768697,8325753,1402,2571,337,-2820,-1191,-200,107,5546,62,44,783
715612,7764872,8325088,7768894,8325950,1665,2712,634,-2858,-1145,-198,20,5600,62,44,783
716613,7765228,8325188,7769091,8326147,1146,2780,943,-2870,-1091,-234,-42,5627,62,31,785
717614,7765564,8325372,7769288,8326344,1210,2261,1256,-2831,-1051,-345,-225,5602,62,31,785
718615,7765868,8325560,7769485,8326541,1364,2240,1575,-2827,-1019,-371,-522,5472,61,31,781
719616,7766156,8325760,7769682,8326738,1425,2164,1901,-2789,-984,-400,-743,5492,61,31,781
720617,7766488,8325928,7769879,8326935,1091,2377,2244,-2755,-947,-514,-851,5359,71,47,784
721618,7766760,8326080,7770076,8327132,1434,2497,2590,-2706,-914,-612,-990,5356,71,47,784
722619,7767020,8326180,7770273,8327329,1482,2864,2939,-2697,-869,-681,-1143,5160,49,45,785
723620,7767360,8326368,7770470,8327526,919,2318,3273,-2640,-805,-665,-1153,5062,49,45,785
724621,7767616,8326572,7770667,8327723,1419,2216,3587,-2592,-715,-684,-1241,4946,44,38,783
725622,7767816,8326784,7770864,8327920,1769,2160,3871,-2561,-604,-727,-1238,4748,44,38,783
726623,7768096,8326980,7771061,8328117,1232,2260,4123,-2567,-463,-722,-1072,4564,55,41,785
727624,7768340,8327112,7771258,8328314,1438,2689,4324,-2560,-316,-785,-563,4397,55,41,785
728625,7768572,8327188,7771455,8328511,1497,3092,4464,-2579,-180,-894,-253,4296,62,33,784
729626,7768828,8327368,7771652,8328708,1323,2450,4558,-2579,-49,-979,-220,4120,62,33,784
730627,7769112,8327576,7771849,8328905,1109,2271,4631,-2541,97,-953,-244,4105,48,43,781
731628,7769348,8327784,7772046,8329102,1393,2266,4682,-2484,267,-907,-356,3993,48,43,781
732629,7769544,8328016,7772243,8329299,1644,2100,4723,-2421,454,-880,-422,3876,61,44,782
733630,7769840,8328164,7772440,8329496,976,2648,4741,-2362,634,-917,-277,3693,61,44,782
734631,7770104,8328328,7772637,8329693,1147,2562,4743,-2300,787,-987,-94,3608,46,43,785
735632,7770344,8328504,7772834,8329890,1279,2497,4730,-2295,881,-1035,125,3282,46,43,785
736633,7770632,8328720,7773031,8330087,939,2238,4685,-2244,941,-1056,200,3241,44,34,784
737634,7770920,8328936,7773228,8330284,900,2231,4628,-2226,999,-1036,124,2990,44,34,784
738635,7771188,8329160,7773425,8330481,994,2169,4528,-2275,1079,-920,-64,2819,56,48,784
739636,7771392,8329380,7773622,8330678,1391,2184,4400,-2290,1181,-827,-143,2701,56,48,784
740637,7771712,8329472,7773819,8330875,612,3030,4236,-2324,1285,-729,-108,2487,52,36,786
741638,7771924,8329696,7774016,8331072,1281,2194,4055,-2414,1358,-702,131,2318,52,36,786
742639,7772180,8329892,7774213,8331269,981,2370,3856,-2547,1412,-624,330,2011,40,35,784
743640,7772452,8330076,7774410,8331466,848,2450,3654,-2706,1467,-502,373,1842,40,35,784
744641,7772672,8330324,7774607,8331663,1164,2029,3445,-2880,1521,-422,456,1569,59,44,785
745642,7772840,8330496,7774804,8331860,1502,2515,3234,-3096,1578,-366,576,1482,59,44,785
746643,7773092,8330624,7775001,8332057,952,2820,3004,-3343,1638,-272,699,1381,33,30,785
747644,7773296,8330804,7775198,8332254,1250,2503,2755,-3566,1710,-144,773,1349,33,30,785
748645,7773448,8330960,7775395,8332451,1595,2672,2469,-3788,1767,25,849,1172,49,38,782
749646,7773676,8331208,7775592,8332648,1106,2074,2140,-4000,1824,230,669,1240,49,38,782
750648,7773916,8331348,7775789,8332845,1014,2774,1785,-4132,1885,320,643,1434,30,45,783
751648,7774068,8331464,7775986,8333042,1583,2960,1438,-4242,1946,444,568,1393,30,45,783
752650,7774240,8331556,7776183,8333239,1470,3157,1110,-4272,1994,579,897,1584,36,33,785
753651,7774496,8331728,7776380,8333436,919,2668,806,-4320,2020,716,1035,1529,36,33,785
754652,7774648,8331896,7776577,8333633,1589,2706,517,-4319,2045,879,981,1798,51,29,778
755652,7774744,8332124,7776774,8333830,1985,2318,257,-4323,2079,969,783,1822,51,29,778
756653,7774988,8332244,7776971,8334027,1039,3027,23,-4222,2093,1101,511,2062,27,36,783
757655,7775124,8332320,7777168,8334224,1741,3355,-211,-4099,2078,1292,431,1983,27,36,783
758662,7775184,8332352,7777398,8334454,2291,3718,-469,-3971,2037,1563,398,2120,32,33,780
759657,7775444,8332448,7777595,8334651,1014,3363,-751,-3840,1981,1730,333,2169,32,33,780
760658,7775600,8332596,7777792,8334848,1683,3060,-1052,-3725,1910,1861,185,2271,46,29,775
761658,7775700,8332800,7777989,8335045,2075,2707,-1369,-3570,1823,2004,175,2500,46,29,775
762659,7775828,8332900,7778186,8335242,1931,3400,-1679,-3354,1723,2122,132,2695,42,18,777
763673,7776120,8332940,7778383,8335439,865,3800,-1989,-3053,1598,2212,242,2915,42,18,777
764674,7776192,8332988,7778580,8335636,2295,3800,-2279,-2750,1438,2308,408,3037,29,15,776
765675,7776296,8333012,7778777,8335833,2137,3800,-2555,-2417,1235,2417,596,3249,29,15,776
766663,7776584,8333136,7778974,8336030,947,3494,-2812,-2080,996,2517,663,3349,26,23,774
767664,7776748,8333288,7779171,8336227,1737,3340,-3056,-1741,751,2600,604,3455,26,23,774
768666,7776836,8333432,7779368,8336424,2260,3413,-3298,-1357,518,2683,504,3805,56,31,769
769679,7777036,8333488,7779565,8336621,1560,3800,-3546,-908,288,2707,510,4148,56,31,769
770680,7777300,8333536,7779762,8336818,1130,3800,-3766,-384,70,2759,294,4323,29,23,774
771669,7777408,8333656,7779959,8337015,2146,3727,-3920,91,-128,2753,189,4253,29,23,774
772682,7777540,8333760,7780156,8337212,2024,3800,-4017,487,-319,2682,320,4344,33,23,772
773671,7777852,8333984,7780353,8337409,850,3108,-4066,848,-516,2472,570,4403,33,23,772
774671,7778028,8334120,7780550,8337606,1709,3684,-4098,1246,-711,2265,736,4554,35,28,769
775672,7778136,8334284,7780747,8337803,2174,3525,-4120,1606,-882,2122,705,4611,35,28,769
776686,7778412,8334400,7780944,8338000,1089,3800,-4120,1931,-1014,1963,577,4556,34,38,779
777674,7778632,8334552,7781141,8338197,1430,3656,-4084,2220,-1102,1736,307,4537,34,38,779
778676,7778784,8334724,7781338,8338394,1875,3543,-4001,2435,-1154,1469,9,4556,39,35,772
779676,7778956,8334948,7781535,8338591,1761,3207,-3887,2616,-1179,1203,-107,4653,39,35,772
780677,7779272,8335148,7781732,8338788,810,3356,-3749,2813,-1186,774,-103,4761,57,31,774
781679,7779440,8335312,7781929,8338985,1747,3597,-3588,3015,-1154,347,-348,4939,57,31,774
782680,7779560,8335492,7782126,8339182,2082,3505,-3398,3164,-1086,-82,-533,4906,44,46,774
783680,7779848,8335656,7782323,8339379,992,3620,-3198,3277,-992,-441,-670,4926,44,46,774
784681,7780048,8335880,7782520,8339576,1542,3234,-2997,3361,-889,-802,-682,4896,52,46,774
785682,7780196,8336144,7782717,8339773,1888,2955,-2794,3301,-790,-1124,-594,4724,52,46,774
786683,7780396,8336404,7782914,8339970,1563,2953,-2583,3213,-675,-1382,-560,4774,34,58,775
787684,7780624,8336676,7783111,8340167,1374,2846,-2347,3066,-531,-1649,-473,4590,34,58,775
788685,7780800,8336916,7783308,8340364,1710,3028,-2083,2893,-363,-1870,-328,4600,43,43,778
789686,7780932,8337164,7783505,8340561,2013,2955,-1807,2671,-184,-2090,-329,4685,43,43,778
790687,7781216,8337428,7783702,8340758,1026,2827,-1565,2571,39,-2273,-856,5297,33,48,781
791688,7781344,8337716,7783899,8340955,2031,2638,-1330,2529,278,-2465,-1174,5362,33,48,781
792690,7781440,8337976,7784096,8341152,2277,2785,-1100,2484,498,-2610,-1398,5599,52,62,777
793690,7781708,8338240,7784293,8341349,1170,2732,-891,2492,693,-2712,-1377,5780,52,62,777
794691,7781848,8338452,7784490,8341546,1997,3051,-716,2437,875,-2756,-1333,5705,40,64,779
795692,7781952,8338712,7784687,8341743,2262,2723,-553,2316,1079,-2691,-1421,5517,40,64,779
796693,7782144,8339016,7784884,8341940,1716,2402,-379,2079,1297,-2577,-1462,5271,40,62,780
797694,7782340,8339268,7785081,8342137,1691,2703,-194,1790,1524,-2465,-1521,5279,40,62,780
798696,7782472,8339488,7785278,8342334,2121,2894,3,1410,1760,-2296,-1305,5068,54,51,776
799696,7782580,8339776,7785475,8342531,2310,2429,205,948,1998,-1979,-741,4806,54,51,776
800698,7782840,8340056,7785672,8342728,1333,2444,400,420,2218,-1656,-179,4617,33,49,780
801698,7782964,8340336,7785869,8342925,2215,2407,579,-123,2409,-1375,205,4586,33,49,780
802699,7783052,8340576,7786066,8343122,2489,2639,744,-703,2563,-1211,440,4530,39,46,779
803700,7783260,8340792,7786263,8343319,1734,2781,890,-1235,2678,-986,580,4715,39,46,779
804701,7783364,8341048,7786460,8343516,2426,2506,1035,-1752,2756,-736,648,4719,38,59,779
805702,7783432,8341324,7786657,8343713,2709,2346,1175,-2169,2808,-654,400,4985,38,59,779
806703,7783596,8341600,7786854,8343910,2123,2313,1310,-2527,2832,-614,278,5140,42,46,779
807704,7783772,8341852,7787051,8344107,2058,2438,1453,-2846,2817,-456,514,5191,42,46,779
808705,7783872,8342092,7787248,8344304,2577,2496,1624,-3100,2796,-271,695,5398,28,61,775
809706,7783972,8342268,7787445,8344501,2620,2905,1788,-3223,2771,-154,599,5691,28,61,775
810707,7784212,8342524,7787642,8344698,1727,2380,1914,-3196,2756,-67,293,6127,29,55,779
811708,7784312,8342800,7787839,8344895,2644,2220,2032,-3110,2769,-17,28,6272,29,55,779
812709,7784404,8343092,7788036,8345092,2742,2078,2158,-2911,2783,88,26,6537,40,57,774
813710,7784584,8343356,7788233,8345289,2200,2225,2291,-2668,2753,111,584,6440,40,57,774
814712,7784728,8343624,7788430,8345486,2449,2169,2415,-2442,2696,66,939,6471,47,59,777
815712,7784832,8343856,7788627,8345683,2740,2378,2528,-2215,2638,-12,1048,6464,47,59,777
816714,7785004,8344120,7788824,8345880,2327,2150,2641,-1948,2590,31,1065,6367,47,56,780
817715,7785168,8344388,7789021,8346077,2393,2094,2753,-1690,2559,85,1022,6237,47,56,780
818716,7785292,8344640,7789218,8346274,2675,2170,2874,-1489,2552,151,959,5922,39,66,776
819716,7785416,8344900,7789415,8346471,2708,2093,3001,-1309,2576,94,904,5811,39,66,776
820718,7785660,8345236,7789612,8346668,1938,1557,3127,-1125,2597,-38,1085,5616,29,56,778
821718,7785816,8345504,7789809,8346865,2507,1951,3250,-954,2603,-118,876,5485,29,56,778
822720,7785960,8345764,7790006,8347062,2606,1974,3367,-748,2605,-164,396,5448,33,45,778
823720,7786144,8345984,7790203,8347259,2362,2214,3464,-505,2611,-236,-3,5406,33,45,778
824722,7786312,8346200,7790400,8347456,2476,2230,3544,-260,2623,-275,-110,5210,29,63,780
825723,7786456,8346484,7790597,8347653,2650,1767,3608,7,2641,-308,-69,5200,29,63,780
826724,7786636,8346876,7790794,8347850,2434,1008,3658,332,2677,-238,-184,5199,51,52,779
827724,7786864,8347164,7790991,8348047,2120,1618,3683,608,2734,-126,-183,4912,51,52,779
828725,7787040,8347408,7791188,8348244,2455,1872,3692,899,2800,-34,46,4770,50,48,780
829726,7787208,8347660,7791385,8348441,2519,1798,3682,1171,2841,22,355,4507,50,48,780
830727,7787420,8347864,7791582,8348638,2239,2095,3629,1408,2836,-19,774,4335,53,50,782
831728,7787580,8348244,7791779,8348835,2580,914,3515,1592,2800,-32,955,4059,53,50,782
832729,7787756,8348560,7791976,8349032,2490,1262,3348,1748,2758,163,806,3795,49,60,781
833730,7787976,8348876,7792173,8349229,2206,1211,3153,1852,2716,328,801,3550,49,60,781
834731,7788184,8349120,7792370,8349426,2277,1640,2961,1896,2649,458,985,3273,32,64,783
835732,7788376,8349352,7792567,8349623,2380,1700,2780,1956,2578,560,865,3147,32,64,783
836733,7788592,8349608,7792764,8349820,2222,1524,2601,1957,2520,660,536,2906,50,59,785
837734,7788812,8349952,7792961,8350017,2188,909,2434,1933,2438,836,468,2691,50,59,785
838735,7789016,8350252,7793158,8350214,2286,1139,2287,1872,2294,852,676,2533,45,58,782
839736,7789252,8350580,7793355,8350411,2070,906,2172,1840,2127,914,57,2414,45,58,782
840737,7789512,8350784,7793552,8350608,1893,1678,2061,1719,1963,997,-366,2138,60,64,785
841745,7789736,8351072,7793782,8350838,2121,1128,1811,1421,1581,1081,-308,1768,60,64,785
842739,7789988,8351332,7793979,8351035,1922,1275,1701,1220,1390,1091,-536,1635,49,44,786
843740,7790220,8351624,7794176,8351232,2033,1033,1590,1039,1241,1056,-635,1677,49,44,786
844741,7790420,8351872,7794373,8351429,2233,1286,1497,907,1116,1071,-691,1577,45,43,786
845742,7790616,8352128,7794570,8351626,2258,1209,1410,802,972,917,-362,1515,45,43,786
846743,7790856,8352376,7794767,8351823,1965,1236,1313,718,790,698,31,1575,46,42,786
847744,7791064,8352640,7794964,8352020,2161,1107,1198,650,609,599,-318,1556,46,42,786
848746,7791248,8352880,7795161,8352217,2318,1238,1078,582,471,549,-595,1541,55,42,784
849747,7791468,8353104,7795358,8352414,2083,1326,961,587,367,553,-523,1539,55,42,784
850747,7791636,8353348,7795555,8352611,2422,1181,840,509,230,576,183,1206,30,40,786
851748,7791796,8353572,7795752,8352808,2489,1294,702,387,28,528,790,1079,30,40,786
852749,7791972,8353820,7795949,8353005,2399,1121,531,276,-188,428,685,1162,46,56,784
853750,7792160,8354028,7796146,8353202,2328,1366,338,266,-314,290,-44,1410,46,56,784
854751,7792340,8354212,7796343,8353399,2387,1521,124,302,-337,277,-196,1543,48,48,783
855752,7792540,8354448,7796540,8353596,2261,1179,-112,325,-309,434,-311,1454,48,48,783
856754,7792736,8354684,7796737,8353793,2288,1162,-397,338,-308,545,-32,1433,47,43,783
857754,7792868,8354904,7796934,8353990,2716,1252,-699,302,-403,476,404,1207,47,43,783
858755,7793076,8355108,7797131,8354187,2237,1349,-1002,193,-578,386,107,1300,32,48,785
859756,7793272,8355280,7797328,8354384,2314,1559,-1300,131,-768,333,-375,1411,32,48,785
860757,7793484,8355404,7797525,8354581,2208,1891,-1617,114,-948,514,-563,1522,37,37,782
861758,7793740,8355600,7797722,8354778,1908,1441,-1969,222,-1095,704,-566,2059,37,37,782
862759,7793980,8355816,7797919,8354975,1990,1308,-2343,428,-1221,826,-454,2472,60,40,782
863760,7794248,8356004,7798116,8355172,1784,1487,-2704,674,-1375,990,-311,2494,60,40,782
864762,7794480,8356144,7798313,8355369,1995,1812,-2980,728,-1555,1201,-333,1912,56,28,784
865763,7794704,8356224,7798510,8355566,2034,2237,-3172,558,-1753,1243,-543,1515,56,28,784
866763,7794944,8356284,7798707,8355763,1915,2423,-3285,237,-1988,1058,-559,1136,43,38,785
867764,7795124,8356468,7798904,8355960,2299,1653,-3367,-243,-2234,1132,-550,865,43,38,785
868765,7795348,8356700,7799101,8356157,2013,1338,-3465,-766,-2436,1560,-518,815,56,28,781
869767,7795576,8356912,7799298,8356354,1974,1456,-3621,-1244,-2508,1868,-718,1207,32,39,782
870767,7795756,8357068,7799495,8356551,2283,1824,-3851,-1565,-2458,2069,-803,1874,32,39,782
871768,7795920,8357172,7799692,8356748,2398,2190,-4134,-1793,-2323,2121,-680,2322,32,22,785
872769,7796140,8357220,7799889,8356945,2039,2606,-4388,-1963,-2131,2196,-492,2416,32,22,785
873770,7796316,8357404,7800086,8357142,2323,1761,-4583,-2247,-1909,2303,-102,2157,33,29,778
874771,7796452,8357616,7800283,8357339,2601,1580,-4717,-2613,-1655,2420,318,2093,33,29,778
875772,7796636,8357796,7800480,8357536,2308,1787,-4817,-3029,-1367,2533,553,2053,27,40,781
876773,7796856,8357928,7800677,8357733,2073,2115,-4935,-3308,-1050,2664,573,2732,27,40,781
877774,7796924,8358012,7800874,8357930,3080,2464,-5099,-3322,-716,2639,625,3600,33,24,781
878775,7797120,8358048,7801071,8358127,2282,2835,-5307,-3206,-405,2531,608,3879,33,24,781
879776,7797340,8358216,7801268,8358324,2123,2023,-5518,-3041,-122,2395,464,4377,54,37,774
880778,7797504,8358436,7801465,8358521,2487,1688,-5718,-2780,136,2167,206,4676,54,37,774
881779,7797688,8358656,7801662,8358718,2369,1678,-5859,-2501,358,1941,-109,4851,55,40,780
882779,7797952,8358808,7801859,8358915,1840,2123,-5916,-2169,512,1631,-235,5175,55,40,780
883780,7798232,8358884,7802056,8359112,1705,2652,-5877,-1771,581,1364,-318,5226,43,35,780
884781,7798428,8358960,7802253,8359309,2230,2705,-5811,-1260,589,1094,-746,5821,43,35,780
885782,7798728,8359044,7802450,8359506,1536,2705,-5713,-620,557,712,-1098,6387,58,41,779
886783,7799068,8359224,7802647,8359703,1224,2112,-5585,39,502,517,-1499,6587,58,41,779
887784,7799324,8359452,7802844,8359900,1724,1798,-5384,748,403,559,-1687,6845,60,43,781
888786,7799568,8359688,7803041,8360097,1779,1731,-5097,1413,229,496,-1144,6789,60,43,781
889786,7799836,8359828,7803238,8360294,1599,2356,-4728,1973,-36,627,-390,6558,50,29,785
890788,7800052,8360004,7803435,8360491,1915,2141,-4307,2322,-363,757,-61,6119,50,29,785
891788,7800256,8360104,7803632,8360688,1988,2658,-3835,2413,-672,1021,149,5541,41,38,782
892790,7800480,8360308,7803829,8360885,1852,2005,-3343,2388,-917,1430,56,5220,41,38,782
893790,7800696,8360520,7804026,8361082,1894,1948,-2853,2232,-1028,1934,-716,4850,33,35,778
894791,7800748,8360784,7804223,8361279,2984,1594,-2439,1909,-1041,2110,-876,4680,33,35,778
895792,7800936,8360936,7804420,8361476,2139,2315,-2149,1491,-1037,2180,-1054,4455,26,36,781
896794,7801164,8361060,7804617,8361673,1875,2522,-1940,1019,-1018,2328,-1278,4287,26,36,781
897794,7801228,8361200,7804814,8361870,2959,2447,-1767,420,-967,2549,-1387,3967,40,47,780
898795,7801424,8361396,7805011,8362067,2136,2097,-1608,-261,-885,2756,-1092,3958,40,47,780
899796,7801660,8361620,7805208,8362264,1869,1911,-1457,-832,-766,2832,-1075,4171,41,41,775
900797,7801848,8361888,7805405,8362461,2174,1604,-1322,-1249,-606,2845,-1309,4630,41,41,775
901798,7802024,8361988,7805602,8362658,2259,2697,-1374,-1152,-378,2720,-1935,6603,37,30,783
902799,7802308,8362116,7805799,8362855,1546,2552,-1693,-359,-91,2356,-2759,8457,37,30,783
903800,7802588,8362248,7805996,8363052,1535,2557,-1842,233,84,1939,-1731,6756,42,42,778
904802,7802732,8362392,7806193,8363249,2409,2505,-1803,539,107,1660,-1076,6834,42,42,778
905802,7802964,8362588,7806390,8363446,1844,2181,-1743,821,94,1485,-1396,7072,57,30,778
906803,7803228,8362848,7806587,8363643,1616,1753,-1618,1093,66,1458,-1184,6720,57,30,778
907804,7803420,8362960,7806784,8363840,2069,2715,-1386,1301,1,1503,-1010,6448,57,38,780
908805,7803616,8363084,7806981,8364037,2044,2672,-1088,1514,-55,1553,-1743,6547,57,38,780
909806,7803888,8363208,7807178,8364234,1537,2704,-755,1711,-28,1638,-3030,6593,42,41,778
910807,7804076,8363340,7807375,8364431,2067,2684,-436,2017,33,1500,-3110,6848,42,41,778
911808,7804204,8363580,7807572,8364628,2473,1990,-159,2334,32,1214,-2284,6708,49,53,780
912810,7804444,8363856,7807769,8364825,1755,1730,74,2613,-27,1075,-1663,6687,49,53,780
913811,7804664,8364024,7807966,8365022,1871,2418,298,2816,-79,1027,-1356,6353,47,36,779
914812,7804732,8364180,7808163,8365219,2877,2511,537,2870,-111,1059,-973,5864,47,36,779
915813,7804964,8364288,7808360,8365416,1838,2851,775,2785,-110,1197,-817,5441,29,45,781
916813,7805232,8364452,7808557,8365613,1582,2516,985,2573,-64,1316,-591,5068,29,45,781
917814,7805324,8364660,7808754,8365810,2729,2236,1142,2314,47,1485,-906,4926,41,39,777
918815,7805484,8364956,7808951,8366007,2321,1642,1252,2126,201,1334,-974,5044,41,39,777
919816,7805696,8365128,7809148,8366204,1989,2428,1348,2072,351,956,-1125,5422,51,51,777
920817,7805896,8365272,7809345,8366401,2064,2628,1457,2109,468,624,-1357,5522,51,51,777
921818,7806016,8365436,7809542,8366598,2599,2517,1566,2109,555,609,-1431,5369,30,43,780
922819,7806236,8365560,7809739,8366795,1964,2799,1668,2061,623,723,-1488,5178,30,43,780
923820,7806484,8365776,7809936,8366992,1767,2216,1790,1965,680,752,-1427,5039,39,37,776
924830,7806564,8366044,7810166,8367222,2884,1875,1921,1899,737,779,-1601,5184,39,37,776
925822,7806752,8366268,7810363,8367419,2213,2138,2036,1904,787,802,-1505,5215,36,36,781
926823,7807040,8366424,7810560,8367616,1549,2581,2129,2016,818,546,-1148,5430,36,36,781
927824,7807180,8366592,7810757,8367813,2500,2519,2201,2218,800,246,-947,5479,37,35,778
928825,7807324,8366732,7810954,8368010,2499,2719,2260,2380,731,-121,-662,5412,37,35,778
929826,7807612,8366932,7811151,8368207,1560,2344,2314,2570,661,-470,-332,5449,50,54,777
930827,7807820,8367192,7811348,8368404,2056,1941,2358,2809,604,-716,-82,5420,50,54,777
931828,7807972,8367436,7811545,8368601,2426,2020,2386,3058,554,-908,-56,5395,34,45,781
932829,7808200,8367596,7811742,8368798,1938,2562,2414,3267,487,-1137,68,5248,34,45,781
933830,7808468,8367760,7811939,8368995,1658,2552,2427,3464,403,-1216,38,5051,52,37,780
934831,7808596,8367928,7812136,8369192,2563,2540,2416,3585,305,-1352,129,4852,52,37,780
935832,7808776,8368132,7812333,8369389,2247,2312,2414,3593,231,-1358,262,4459,37,38,780
936833,7809076,8368364,7812530,8369586,1452,2122,2440,3504,193,-1358,225,4099,37,38,780
937834,7809204,8368564,7812727,8369783,2558,2321,2491,3299,204,-1376,40,3680,51,41,779
938835,7809308,8368808,7812924,8369980,2750,2026,2564,2890,283,-1274,-224,3154,51,41,779
939836,7809576,8368988,7813121,8370177,1694,2433,2634,2461,440,-1217,-537,2879,29,40,777
940837,7809744,8369204,7813318,8370374,2333,2200,2677,1960,648,-1235,-784,2649,29,40,777
941838,7809804,8369416,7813515,8370571,3068,2219,2697,1441,869,-1147,-1033,2680,45,50,781
942839,7810000,8369644,7813712,8370768,2220,2105,2714,945,1067,-1282,-613,2632,45,50,781
943840,7810232,8369888,7813909,8370965,1980,1985,2726,573,1212,-1549,-74,2866,41,45,775
944841,7810316,8370152,7814106,8371162,2955,1830,2716,274,1330,-1714,109,3107,41,45,775
945843,7810448,8370376,7814303,8371359,2685,2068,2699,11,1444,-1885,158,3244,22,57,781
946843,7810684,8370596,7814500,8371556,2018,2084,2659,-93,1551,-2048,148,3468,22,57,781
947844,7810804,8370816,7814697,8371753,2777,2074,2602,-186,1667,-2116,-110,3476,44,56,777
948845,7810844,8371028,7814894,8371950,3347,2118,2515,-226,1789,-2225,-354,3702,44,56,777
949847,7811124,8371280,7815091,8372147,1812,1844,2405,-267,1928,-2340,-785,3636,42,50,776
950847,7811260,8371492,7815288,8372344,2740,2087,2310,-244,2060,-2402,-916,3682,42,50,776
951848,7811340,8371724,7815485,8372541,3142,1947,2239,-256,2172,-2467,-834,3554,32,56,781
952849,7811572,8371964,7815682,8372738,2177,1879,2170,-236,2259,-2493,-721,3679,32,56,781
953851,7811764,8372220,7815879,8372935,2430,1753,2092,-187,2366,-2412,-1002,3751,32,52,775
954852,7811900,8372424,7816076,8373132,2808,2075,2024,-151,2514,-2185,-1462,3721,32,52,775
955852,7812052,8372660,7816273,8373329,2728,1857,1973,-84,2657,-2056,-1035,3769,28,41,781
956853,7812296,8372896,7816470,8373526,2133,1840,1927,-37,2770,-1936,-706,3599,28,41,781
957854,7812452,8373172,7816667,8373723,2702,1556,1886,-3,2900,-1653,-895,3597,46,47,778
958855,7812544,8373396,7816864,8373920,3149,1869,1816,-91,3042,-1479,-219,3228,46,47,778
959856,7812804,8373680,7817061,8374117,2072,1456,1711,-187,3177,-1303,678,3197,48,44,780
960857,7812980,8373984,7817258,8374314,2607,1284,1609,-366,3312,-1104,1025,2991,48,44,780
961858,7813104,8374160,7817455,8374511,2966,2094,1520,-515,3445,-890,1041,3276,50,56,782
962859,7813308,8374300,7817652,8374708,2462,2344,1451,-617,3552,-795,1061,3268,50,56,782
963860,7813568,8374472,7817849,8374905,2086,2155,1410,-643,3587,-673,868,3437,33,37,777
964861,7813700,8374628,7818046,8375102,2915,2273,1399,-637,3560,-604,790,3583,33,37,777
965862,7813848,8374840,7818243,8375299,2838,1916,1409,-549,3508,-510,830,3773,46,39,780
966863,7814048,8375004,7818440,8375496,2513,2231,1425,-444,3429,-397,1030,3793,46,39,780
967864,7814184,8375220,7818637,8375693,2939,1897,1475,-300,3335,-291,1162,3933,36,41,777
968865,7814256,8375448,7818834,8375890,3395,1809,1545,-178,3247,-104,1265,4027,36,41,777
969866,7814464,8375772,7819031,8376087,2541,1153,1585,-16,3180,20,1462,4056,43,58,777
970867,7814636,8375964,7819228,8376284,2778,1980,1583,148,3115,140,1622,4010,43,58,777
971868,7814696,8376348,7819425,8376481,3540,698,1568,282,3026,174,1722,3894,30,58,781
972869,7814864,8376644,7819622,8376678,2878,1204,1555,380,2892,144,1754,3825,30,58,781
973870,7815096,8376896,7819819,8376875,2464,1455,1537,474,2716,132,1376,3762,51,69,776
974871,7815268,8377156,7820016,8377072,2851,1378,1496,530,2534,116,878,3692,51,69,776
975872,7815420,8377452,7820213,8377269,2997,1109,1430,618,2382,143,1145,3797,54,57,782
976873,7815604,8377812,7820410,8377466,2803,637,1347,761,2281,166,1161,3922,54,57,782
977874,7815788,8378108,7820607,8377663,2809,994,1259,961,2236,197,816,3948,35,66,781
978875,7815928,8378464,7820804,8377860,3110,549,1188,1146,2186,151,911,3826,35,66,781
979876,7816104,8378784,7821001,8378057,2896,720,1154,1279,2098,19,1159,3742,29,70,782
980877,7816280,8379152,7821198,8378254,2906,345,1142,1383,1959,-143,1421,3651,29,70,782
981878,7816396,8379536,7821395,8378451,3317,163,1132,1445,1763,-234,1624,3517,47,70,782
982880,7816560,8379980,7821592,8378648,3033,-322,1120,1496,1530,-239,1850,3505,47,70,782
983880,7816708,8380232,7821789,8378845,3155,854,1098,1540,1282,-269,2111,3486,27,59,779
984881,7816836,8380408,7821986,8379042,3312,1338,1066,1685,1025,-255,2178,3628,27,59,779
985882,7816940,8380684,7822183,8379239,3504,678,1037,1839,811,-142,1838,3641,33,51,779
986883,7817088,8380892,7822380,8379436,3251,1098,987,2046,605,-36,1799,3802,33,51,779
987884,7817220,8381148,7822577,8379633,3381,772,850,2239,314,-32,2070,3726,40,54,776
988885,7817360,8381452,7822774,8379830,3357,425,642,2495,-37,-81,2095,3962,40,54,776
989886,7817528,8381684,7822971,8380027,3195,859,446,2742,-343,-90,2090,3965,24,46,779
990887,7817692,8381916,7823168,8380224,3236,843,270,2995,-613,-139,2397,3890,24,46,779
991888,7817828,8382072,7823365,8380421,3439,1336,74,3222,-889,-198,2739,3576,43,35,780
992889,7818000,8382188,7823562,8380618,3226,1622,-125,3282,-1171,-256,2425,3066,43,35,780
993890,7818172,8382396,7823759,8380815,3238,1041,-313,3237,-1402,-196,1699,2961,49,51,776
994891,7818332,8382608,7823956,8381012,3330,1009,-514,3107,-1539,-61,1373,2666,49,51,776
995892,7818508,8382820,7824153,8381209,3240,1003,-728,2941,-1587,298,725,2606,47,48,777
996893,7818696,8383012,7824350,8381406,3170,1129,-948,2677,-1589,633,727,2260,47,48,777
997894,7818864,8383128,7824547,8381603,3310,1639,-1138,2385,-1647,811,1147,2156,36,34,779
998895,7819068,8383212,7824744,8381800,3083,1889,-1318,2119,-1754,838,1316,2233,36,34,779
999896,7819272,8383376,7824941,8381997,3081,1403,-1475,1856,-1881,847,1413,2397,48,46,776
1000897,7819468,8383576,7825138,8382194,3132,1176,-1636,1707,-2092,728,1849,2649,48,46,776
1001898,7819656,8383764,7825335,8382391,3187,1255,-1818,1685,-2370,527,1391,3057,48,32,778
1002899,7819860,8383956,7825532,8382588,3085,1232,-2006,1806,-2626,268,495,3560,48,32,778
1003900,7820076,8384060,7825729,8382785,3003,1822,-2201,2013,-2894,-44,138,3799,52,23,778
1004901,7820244,8384124,7825926,8382982,3316,2131,-2419,2305,-3222,-393,-12,4202,52,23,778
1005902,7820480,8384252,7826123,8383179,2875,1761,-2668,2736,-3587,-565,-320,4563,38,40,776
1006903,7820680,8384436,7826320,8383376,3100,1417,-2919,3162,-3919,-626,-719,4727,38,40,776
1007911,7820848,8384612,7826550,8383606,3328,1490,-3181,3619,-4169,-699,-984,4877,35,25,777
1008905,7821044,8384772,7826747,8383803,3155,1606,-3426,3929,-4354,-695,-1081,4456,35,25,777
1009906,7821248,8384900,7826944,8384000,3103,1836,-3609,4122,-4477,-659,-1384,4226,59,35,776
1010907,7821448,8384928,7827141,8384197,3128,2535,-3735,4099,-4558,-753,-1363,3660,59,35,776
1011908,7821640,8385004,7827338,8384394,3182,2288,-3819,3969,-4614,-982,-1429,3481,54,36,776
1012909,7821856,8385176,7827535,8384591,3024,1699,-3871,3736,-4629,-1119,-1566,3293,54,36,776
1013910,7822024,8385368,7827732,8384788,3338,1577,-3901,3413,-4619,-1131,-1748,3089,42,35,773
1014911,7822192,8385600,7827929,8384985,3352,1311,-3913,3076,-4568,-1336,-1986,3291,42,35,773
1015912,7822372,8385724,7828126,8385182,3285,2017,-3921,2787,-4468,-1503,-2216,3509,33,31,775
1016914,7822548,8385804,7828323,8385379,3320,2344,-3946,2571,-4353,-1651,-2372,3867,33,31,775
1017914,7822676,8385884,7828520,8385576,3652,2395,-3979,2379,-4238,-1920,-2425,3957,31,44,773
1018915,7822896,8386084,7828717,8385773,3068,1644,-4047,2237,-4134,-2078,-2589,4416,31,44,773
1019916,7823100,8386260,7828914,8385970,3165,1803,-4108,2092,-4045,-2271,-2751,4450,55,50,769
1020918,7823284,8386468,7829111,8386167,3298,1598,-4139,1917,-3966,-2525,-2669,4561,55,50,769
1021918,7823500,8386648,7829308,8386364,3091,1781,-4153,1792,-3887,-2532,-2705,4799,52,30,775
1022919,7823724,8386684,7829505,8386561,3030,2751,-4162,1711,-3787,-2607,-2784,5106,52,30,775
1023920,7823920,8386736,7829702,8386758,3206,2715,-4164,1707,-3624,-2622,-2848,5511,39,37,775
1024921,7824120,8386912,7829899,8386955,3181,1949,-4168,1692,-3423,-2555,-2437,5633,39,37,775
1025922,7824364,8387120,7830096,8387152,2886,1745,-4151,1643,-3224,-2589,-1821,5725,39,40,771
1026923,7824568,8387312,7830293,8387349,3134,1847,-4087,1522,-3031,-2433,-1599,5546,39,40,771
1027925,7824768,8387540,7830490,8387546,3159,1608,-3983,1286,-2858,-2214,-1140,5448,51,31,775
1028925,7825024,8387556,7830687,8387743,2784,3013,-3837,1032,-2696,-2127,-663,5567,51,31,775
1029926,7825272,8387556,7830884,8387940,2813,3199,-2811,921,-2547,-1435,-417,12944,47,32,776
1030927,7825488,8387688,7831081,8388137,3005,2403,636,2104,-2583,1441,291,32767,47,32,776
1031928,7825732,8387868,7831278,8388334,2812,2110,3217,2931,-2538,-96,-991,14748,48,34,771
1032930,7826024,8388084,7831475,8388531,2471,1877,3505,2723,-2270,-1126,-1093,5502,48,34,771
1033930,7826312,8388260,7831672,8388728,2457,2136,2837,2198,-1963,-998,-1090,5535,54,38,775
1034931,7826564,8388384,7831869,8388925,2659,2493,2369,1605,-1758,-1060,-666,4746,54,38,775
1035932,7826908,8388408,7832066,8389122,2020,3194,2255,1120,-1674,-1046,-277,4606,59,22,778
1036933,7827184,8388480,7832263,8389319,2411,2950,2270,487,-1679,-942,-148,3840,59,22,778
1037934,7827444,8388640,7832460,8389516,2485,2416,2219,-187,-1699,-996,-69,3962,77,32,774
1038935,7827780,8388828,7832657,8389713,1950,2245,2095,-741,-1710,-974,-106,4079,77,32,774
1039936,7828136,8388984,7832854,8389910,1755,2463,1987,-1219,-1707,-837,-297,4166,73,39,775
1040937,7828424,8389160,7833051,8390107,2141,2348,1903,-1552,-1681,-749,-430,4555,73,39,775
1041938,7828716,8389220,7833248,8390304,2075,3133,1851,-1883,-1649,-731,-509,4307,68,26,780
1042939,7829104,8389268,7833445,8390501,1392,3274,1795,-2220,-1607,-676,-699,4386,68,26,780
1043941,7829412,8389440,7833642,8390698,1844,2510,1803,-2564,-1536,-770,-847,4153,79,28,776
1044941,7829684,8389640,7833839,8390895,2037,2334,1865,-2939,-1477,-899,-726,3996,79,28,776
1045943,7830076,8389800,7834036,8391092,1203,2600,1979,-3285,-1447,-1043,-674,3874,78,31,779
1046943,7830396,8389992,7834233,8391289,1599,2403,2133,-3634,-1415,-1172,-716,3858,78,31,779
1047944,7830664,8390100,7834430,8391486,1893,2968,2317,-3873,-1338,-1214,-914,4040,76,24,780
1048946,7831024,8390100,7834627,8391683,1248,3729,2516,-4028,-1205,-1331,-1126,4116,76,24,780
1049946,7831356,8390248,7834824,8391880,1364,2826,2717,-4083,-1027,-1456,-1359,4310,58,26,777
1050947,7831632,8390424,7835021,8392077,1680,2661,2923,-4092,-837,-1543,-1454,4307,58,26,777
1051948,7831888,8390628,7835218,8392274,1780,2483,3152,-4014,-644,-1674,-1429,4350,56,45,778
1052949,7832260,8390856,7835415,8392471,978,2319,3411,-3868,-472,-1873,-1320,4336,56,45,778
1053950,7832544,8390988,7835612,8392668,1491,2949,3666,-3691,-318,-1947,-1389,4332,49,46,780
1054951,7832756,8391068,7835809,8392865,1935,3325,3942,-3461,-156,-2019,-1539,4244,49,46,780
1055952,7833108,8391152,7836006,8393062,992,3350,4226,-3210,22,-1989,-1664,4089,66,38,778
1056953,7833344,8391356,7836203,8393259,1701,2598,4520,-2969,218,-1932,-1747,3957,66,38,778
1057954,7833528,8391556,7836400,8393456,2032,2621,4808,-2739,428,-1867,-1744,3754,45,49,777
1058955,7833780,8391856,7836597,8393653,1583,1951,5056,-2487,635,-1749,-1603,3523,45,49,777
1059956,7834104,8391964,7836794,8393850,1078,3191,5270,-2297,830,-1646,-1188,3168,45,42,778
1060957,7834332,8392052,7836991,8394047,1665,3364,5454,-2191,995,-1521,-591,2806,45,42,778
1061958,7834528,8392176,7837188,8394244,1865,3172,5603,-2161,1126,-1296,-436,2457,52,31,778
1062959,7834896,8392352,7837385,8394441,716,2857,5698,-2185,1273,-1092,-441,2133,52,31,778
1063960,7835100,8392564,7837582,8394638,1738,2625,5748,-2297,1439,-797,-470,1737,59,46,775
1064961,7835304,8392836,7837779,8394835,1736,2218,5747,-2418,1607,-510,-449,1543,59,46,775
1065962,7835628,8392984,7837976,8395032,930,3015,5714,-2571,1755,-357,-331,1214,66,40,780
1066963,7835952,8393104,7838173,8395229,876,3223,5646,-2745,1844,-212,-111,1024,66,40,780
1067964,7836176,8393260,7838370,8395426,1489,3017,5546,-2956,1879,-90,163,820,67,41,781
1068965,7836456,8393472,7838567,8395623,1103,2661,5408,-3176,1900,101,313,702,67,41,781
1069966,7836816,8393732,7838764,8395820,532,2334,5231,-3378,1917,276,368,647,49,52,779
1070967,7837048,8393952,7838961,8396017,1316,2574,5018,-3556,1917,303,485,556,49,52,779
1071968,7837256,8394208,7839158,8396214,1462,2323,4763,-3738,1888,383,469,485,55,53,783
1072969,7837624,8394376,7839355,8396411,387,2887,4472,-3899,1861,463,419,444,55,53,783
1073970,7837856,8394580,7839552,8396608,1222,2659,4152,-4060,1832,460,473,348,68,48,782
1074971,7838048,8394776,7839749,8396805,1475,2710,3812,-4200,1802,486,490,234,68,48,782
1075972,7838320,8395044,7839946,8397002,942,2229,3447,-4343,1778,492,510,306,48,44,782
1076974,7838588,8395284,7840143,8397199,936,2385,3061,-4460,1772,565,528,271,48,44,782
1077974,7838796,8395512,7840340,8397396,1307,2447,2656,-4528,1811,648,471,244,59,50,783
1078975,7839000,8395700,7840537,8397593,1329,2701,2250,-4599,1875,782,490,169,59,50,783
1079976,7839276,8395892,7840734,8397790,844,2679,1851,-4725,1944,947,372,50,36,38,783
1080978,7839448,8396140,7840931,8397987,1505,2307,1463,-4795,2025,1008,398,130,36,38,783
1081978,7839632,8396352,7841128,8398184,1437,2526,1095,-4841,2114,1010,472,137,42,37,781
1082980,7839920,8396604,7841325,8398381,747,2252,749,-4885,2196,1056,614,198,42,37,781
1083980,7840068,8396768,7841522,8398578,1643,2817,410,-4937,2273,1171,659,202,35,34,780
1084982,7840188,8396920,7841719,8398775,1853,2912,78,-4928,2349,1341,707,352,35,34,780
1085982,7840480,8397036,7841916,8398972,737,3173,-239,-4858,2419,1354,807,486,47,49,780
1086983,7840616,8397292,7842113,8399169,1738,2272,-542,-4813,2469,1472,944,579,47,49,780
1087984,7840696,8397464,7842310,8399366,2140,2808,-839,-4728,2504,1690,995,676,27,41,779
1088986,7840964,8397700,7842507,8399563,935,2392,-1138,-4603,2515,1855,1102,883,27,41,779
1089986,7841096,8397808,7842704,8399760,1813,3231,-1449,-4449,2481,1990,1206,1032,47,34,777
1090994,7841196,8397924,7842934,8399990,2070,3231,-1781,-4301,2422,2078,1293,1279,47,34,777
1091988,7841348,8397976,7843131,8400187,1766,3696,-2130,-4047,2321,2150,1567,1624,36,40,777
1092990,7841632,8398152,7843328,8400384,903,2930,-2488,-3752,2179,2307,1615,1804,36,40,777
1093991,7841748,8398304,7843525,8400581,1988,3101,-2852,-3417,2021,2482,1461,2072,43,40,770
1094991,7841832,8398500,7843722,8400778,2239,2827,-3237,-3099,1849,2689,1422,2227,43,40,770
1095992,7842156,8398632,7843919,8400975,683,3255,-3627,-2775,1663,2937,1244,2426,48,23,775
1097006,7842268,8398664,7844116,8401172,2046,3800,-4016,-2454,1458,3098,1220,2574,48,23,775
1098007,7842324,8398704,7844313,8401369,2459,3800,-4395,-2137,1227,3156,1020,2770,43,21,777
1098995,7842672,8398836,7844510,8401566,567,3427,-4773,-1749,988,3325,959,3191,43,21,777
1099996,7842804,8398984,7844707,8401763,1946,3349,-5123,-1294,762,3460,911,3485,36,41,767
1100997,7842912,8399144,7844904,8401960,2136,3291,-5435,-836,533,3509,1023,3640,36,41,767
1101998,7843060,8399336,7845101,8402157,1907,3093,-5716,-332,267,3462,1308,4167,42,25,774
1102999,7843396,8399424,7845298,8402354,672,3792,-5948,188,-43,3419,1514,4296,42,25,774
1104013,7843544,8399480,7845495,8402551,1869,3800,-6103,681,-348,3393,1218,4322,58,27,773
1105001,7843668,8399600,7845692,8402748,2051,3689,-6199,1172,-614,3286,933,4487,58,27,773
1106002,7844036,8399780,7845889,8402945,452,3322,-6254,1647,-841,3103,699,4716,37,32,771
1107003,7844188,8399988,7846086,8403142,1822,3143,-6274,2117,-1043,2787,576,4882,37,32,771
1108004,7844316,8400208,7846283,8403339,2002,3058,-6247,2547,-1255,2381,665,4928,56,39,775
1109005,7844588,8400372,7846480,8403536,1070,3424,-6151,2909,-1462,2109,590,4851,56,39,775
1110006,7844808,8400488,7846677,8403733,1385,3760,-6013,3212,-1622,1777,405,4940,47,27,774
1111007,7844964,8400640,7846874,8403930,1803,3555,-5839,3500,-1726,1386,272,4985,47,27,774
1112008,7845152,8400824,7847071,8404127,1608,3361,-5613,3712,-1794,923,94,4844,39,35,773
1113009,7845408,8401032,7847268,8404324,1157,3207,-5338,3834,-1843,386,-169,4801,39,35,773
1114010,7845588,8401272,7847465,8404521,1640,2989,-5053,3895,-1862,-93,-346,4848,35,47,773
1115011,7845712,8401520,7847662,8404718,2022,2917,-4762,3902,-1846,-552,-477,4854,35,47,773
1116012,7846012,8401736,7847859,8404915,877,3110,-4458,3862,-1795,-1089,-504,4922,37,51,775
1117013,7846160,8401964,7848056,8405112,1850,3021,-4146,3835,-1701,-1514,-590,5006,37,51,775
1118014,7846296,8402172,7848253,8405309,1952,3142,-3827,3752,-1563,-1915,-783,5029,32,43,779
1119015,7846504,8402440,7848450,8405506,1497,2737,-3507,3745,-1352,-2315,-1143,5634,32,43,779
1120016,7846724,8402712,7848647,8405703,1413,2679,-3192,3834,-1086,-2737,-1484,5953,36,54,776
1121017,7846856,8402992,7848844,8405900,1991,2593,-2855,3920,-803,-3131,-1551,5989,36,54,776
1122018,7846984,8403260,7849041,8406097,2046,2637,-2517,4012,-510,-3445,-1704,6380,47,53,779
1123019,7847196,8403472,7849238,8406294,1516,2982,-2183,4130,-198,-3651,-1779,6600,47,53,779
1124020,7847340,8403700,7849435,8406491,1964,2868,-1844,4188,153,-3816,-1838,6368,52,51,778
1125021,7847448,8403912,7849632,8406688,2229,2962,-1479,3778,562,-4351,-1864,5356,52,51,778
1126022,7847664,8404200,7849829,8406885,1546,2448,-1073,1417,974,-5467,-2152,1740,47,53,777
1127023,7847800,8404492,7850026,8407082,2073,2382,-688,-2205,1319,-5474,-2667,1469,47,53,777
1128024,7847896,8404780,7850223,8407279,2368,2368,-393,-4673,1814,-5383,-2724,5112,47,61,773
1129025,7848056,8404992,7850420,8407476,1984,2836,-193,-4475,2415,-3743,-2366,8908,47,61,773
1130026,7848244,8405240,7850617,8407673,1814,2589,-61,-3012,2905,-3175,-1851,9204,40,47,778
1131027,7848368,8405528,7850814,8407870,2246,2300,150,-2088,3210,-3571,-1318,8558,40,47,778
1132028,7848460,8405804,7851011,8408067,2494,2340,420,-1557,3315,-3388,-706,8736,32,66,777
1133029,7848652,8406064,7851208,8408264,1871,2413,670,-1303,3325,-2502,-479,8129,32,66,777
1134030,7848752,8406320,7851405,8408461,2489,2412,889,-842,3371,-1907,-571,8579,44,47,778
1135031,7848816,8406600,7851602,8408658,2773,2227,1122,-685,3453,-1339,-687,7325,44,47,778
1136032,7849000,8406840,7851799,8408855,2030,2458,1388,-672,3524,-635,-415,7141,41,64,779
1137033,7849140,8407104,7851996,8409052,2330,2279,1659,-765,3557,183,181,6511,41,64,779
1138034,7849244,8407344,7852193,8409249,2596,2411,1931,-985,3512,883,306,5976,31,61,775
1139035,7849344,8407580,7852390,8409446,2664,2419,2220,-1321,3408,1065,455,5619,31,61,775
1140036,7849556,8407852,7852587,8409643,1958,2161,2513,-1838,3274,1411,783,5262,26,65,777
1141037,7849676,8408148,7852784,8409840,2568,1968,2750,-2179,3119,2061,856,5544,26,65,777
1142038,7849776,8408448,7852981,8410037,2736,1898,2945,-2522,2972,2345,941,5262,43,53,775
1143039,7849956,8408704,7853178,8410234,2244,2147,3097,-2750,2809,2462,738,5723,43,53,775
1144040,7850092,8408960,7853375,8410431,2546,2122,3225,-3007,2633,2686,699,5531,47,55,778
1145042,7850192,8409176,7853572,8410628,2815,2364,3336,-3122,2453,2707,671,5932,47,55,778
1146042,7850356,8409540,7853769,8410825,2430,1365,3419,-3062,2273,2564,527,6160,37,53,779
1147043,7850528,8409856,7853966,8411022,2391,1614,3490,-2947,2081,2189,424,6258,37,53,779
1148044,7850668,8410172,7854163,8411219,2617,1562,3545,-2737,1865,1807,704,6537,29,61,775
1149045,7850788,8410448,7854360,8411416,2777,1777,3598,-2445,1642,1693,965,6506,29,61,775
1150046,7851000,8410720,7854557,8411613,2196,1769,3647,-1999,1435,1388,832,6911,45,53,779
1151047,7851164,8411036,7854754,8411810,2511,1442,3687,-1476,1282,956,408,7018,45,53,779
1152048,7851324,8411380,7854951,8412007,2553,1202,3712,-901,1197,645,284,7111,36,56,778
1153049,7851528,8411720,7855148,8412204,2275,1165,3740,-298,1170,456,427,6853,36,56,778
1154050,7851692,8412024,7855345,8412401,2541,1343,3801,239,1174,241,297,6462,35,56,781
1155051,7851860,8412368,7855542,8412598,2530,1029,3893,691,1199,-108,46,6068,35,56,781
1156052,7852016,8412680,7855739,8412795,2623,1178,4021,1045,1249,-352,19,5592,35,62,783
1157053,7852216,8412964,7855936,8412992,2347,1315,4156,1362,1306,-476,144,5250,35,62,783
1158054,7852428,8413224,7856133,8413189,2267,1437,4295,1661,1382,-587,137,4928,54,58,783
1159055,7852616,8413536,7856330,8413386,2421,1062,4432,1907,1489,-754,97,4640,54,58,783
1160056,7852832,8413908,7856527,8413583,2238,610,4552,2120,1615,-760,-78,4390,50,67,782
1161058,7853032,8414200,7856724,8413780,2338,1068,4650,2324,1725,-701,-151,4115,50,67,782
1162058,7853220,8414476,7856921,8413977,2418,1133,4720,2546,1788,-633,-174,3875,52,62,782
1163059,7853424,8414712,7857118,8414174,2315,1366,4765,2699,1816,-531,-516,3592,52,62,782
1164060,7853676,8414968,7857315,8414371,1992,1214,4786,2859,1850,-418,-798,3510,37,58,784
1165061,7853880,8415308,7857512,8414568,2290,626,4784,3050,1904,-210,-1044,3431,37,58,784
1166062,7854092,8415604,7857709,8414765,2233,858,4762,3274,1981,-8,-1200,3265,35,57,783
1167063,7854300,8415876,7857906,8414962,2254,975,4726,3393,2081,213,-1271,2932,35,57,783
1168064,7854540,8416176,7858103,8415159,2036,755,4686,3446,2151,518,-1251,2554,36,44,786
1169065,7854740,8416404,7858300,8415356,2285,1191,4642,3363,2147,758,-1045,1951,36,44,786
1170066,7854988,8416636,7858497,8415553,1964,1150,4597,3135,2067,852,-815,1475,39,45,785
1171067,7855192,8416944,7858694,8415750,2236,626,4525,2822,1948,858,-437,1199,39,45,785
1172068,7855396,8417188,7858891,8415947,2233,1005,4417,2482,1809,899,-198,939,34,52,782
1173069,7855616,8417452,7859088,8416144,2124,851,4285,2111,1647,1118,-223,640,34,52,782
1174077,7855812,8417688,7859318,8416374,2290,1023,4106,1715,1478,1266,38,527,47,57,786
1175071,7856012,8417896,7859515,8416571,2264,1192,3891,1354,1287,1310,440,430,47,57,786
1176072,7856236,8418140,7859712,8416768,2103,947,3641,1009,1079,1316,633,470,54,50,786
1177074,7856448,8418412,7859909,8416965,2172,739,3347,793,879,1242,841,764,54,50,786
1178074,7856668,8418660,7860106,8417162,2112,865,3005,704,677,1174,1001,986,33,55,784
1179075,7856868,8418876,7860303,8417359,2237,1057,2629,710,447,1084,1080,1041,33,55,784
1180076,7857068,8419080,7860500,8417556,2237,1129,2224,713,174,950,1230,1027,28,49,786
1181077,7857244,8419240,7860697,8417753,2396,1420,1809,660,-160,935,1507,786,28,49,786
1182078,7857412,8419436,7860894,8417950,2460,1194,1397,565,-531,904,1635,677,46,34,783
1183080,7857600,8419700,7861091,8418147,2340,740,996,518,-867,799,1453,741,46,34,783
1184080,7857796,8419932,7861288,8418344,2290,925,626,468,-1106,718,819,687,39,50,781
1185081,7857988,8420136,7861485,8418541,2318,1096,267,450,-1245,696,62,721,39,50,781
1186082,7858188,8420284,7861682,8418738,2268,1467,-102,389,-1316,753,-484,527,46,29,786
1187083,7858368,8420400,7861879,8418935,2400,1703,-486,235,-1408,728,-622,232,46,29,786
1188084,7858544,8420564,7862076,8419132,2436,1417,-864,-27,-1555,608,-553,72,31,30,784
1189085,7858744,8420784,7862273,8419329,2285,1056,-1221,-286,-1725,470,-652,164,31,30,784
1190086,7858896,8421012,7862470,8419526,2605,992,-1567,-467,-1878,392,-679,561,34,36,781
1191087,7859060,8421180,7862667,8419723,2546,1380,-1963,-415,-1956,475,-613,1388,34,36,781
1192088,7859300,8421300,7862864,8419920,2053,1713,-2384,-309,-1958,651,-580,1403,49,29,784
1193089,7859440,8421372,7863061,8420117,2703,2068,-2799,-246,-1891,968,-316,1429,49,29,784
1194090,7859604,8421496,7863258,8420314,2568,1775,-3182,-320,-1783,1217,264,997,36,20,779
1195091,7859788,8421696,7863455,8420511,2450,1299,-3477,-680,-1681,1257,644,186,36,20,779
1196092,7859984,8421868,7863652,8420708,2376,1484,-3710,-1220,-1599,1325,966,0,29,35,777
1197093,7860124,8421964,7863849,8420905,2751,2003,-3910,-1785,-1520,1416,1059,100,29,35,777
1198094,7860336,8422080,7864046,8421102,2296,1914,-4129,-2244,-1407,1464,855,548,53,26,781
1199095,7860584,8422172,7864243,8421299,2049,2110,-4377,-2431,-1263,1493,766,1464,53,26,781
1200096,7860772,8422308,7864440,8421496,2428,1862,-4666,-2317,-1130,1534,774,2467,39,26,778
1201097,7861016,8422504,7864637,8421693,2059,1487,-5004,-2036,-1041,1632,705,3108,39,26,778
1202098,7861284,8422696,7864834,8421890,1879,1513,-5344,-1689,-973,1704,411,3445,47,35,780
1203099,7861484,8422852,7865031,8422087,2302,1756,-5638,-1405,-926,1677,155,3466,47,35,780
1204100,7861700,8422976,7865228,8422284,2195,1988,-5853,-1235,-908,1644,163,3202,54,20,782
1205101,7861956,8423036,7865425,8422481,1920,2449,-6005,-1223,-923,1742,294,3020,54,20,782
1206102,7862176,8423116,7865622,8422678,2135,2375,-6106,-1197,-975,1927,344,3136,60,36,780
1207103,7862344,8423300,7865819,8422875,2474,1731,-6192,-1189,-1024,2084,317,3368,60,36,780
1208104,7862572,8423552,7866016,8423072,2086,1282,-6289,-1138,-1045,2263,34,3819,60,27,779
1209105,7862840,8423648,7866213,8423269,1805,2301,-6385,-999,-1022,2377,-368,4161,60,27,779
1210106,7862996,8423748,7866410,8423466,2524,2318,-6450,-848,-942,2449,-613,4246,59,18,780
1211107,7863256,8423796,7866607,8423663,1847,2708,-6490,-732,-846,2540,-712,4371,59,18,780
1212108,7863556,8423900,7866804,8423860,1552,2399,-6497,-697,-786,2449,-544,4186,58,31,780
1213109,7863752,8424092,7867001,8424057,2203,1851,-6463,-721,-798,2421,-446,4236,58,31,780
1214110,7863960,8424340,7867198,8424254,2124,1479,-6378,-760,-866,2495,-605,4429,44,25,778
1215111,7864224,8424444,7867395,8424451,1745,2420,-6252,-755,-964,2424,-710,4708,44,25,778
1216112,7864496,8424524,7867592,8424648,1663,2621,-6097,-624,-1058,2373,-813,5267,42,26,779
1217113,7864668,8424608,7867789,8424845,2299,2646,-5910,-394,-1129,2286,-1025,5604,42,26,779
1218114,7864908,8424636,7867986,8425042,1856,3070,-5671,-95,-1133,2248,-1405,5886,53,32,779
1219115,7865156,8424792,7868183,8425239,1785,2289,-5374,196,-1108,2180,-1575,5946,53,32,779
1220116,7865272,8425088,7868380,8425436,2645,1370,-5035,493,-1106,1998,-1546,6196,41,31,776
1221117,7865488,8425280,7868577,8425633,2013,2023,-4670,780,-1146,1802,-1261,6221,41,31,776
1222118,7865816,8425416,7868774,8425830,1255,2399,-4302,1036,-1225,1713,-797,6327,54,36,781
1223119,7865980,8425560,7868971,8426027,2296,2373,-3924,1346,-1284,1540,-599,6519,54,36,781
1224120,7866144,8425608,7869168,8426224,2310,3038,-3545,1634,-1315,1425,-533,6586,43,26,780
1225122,7866456,8425756,7869365,8426421,1336,2435,-3183,1947,-1313,1340,-580,6720,43,26,780
1226122,7866724,8426016,7869562,8426618,1581,1707,-2830,2255,-1289,1179,-535,6742,63,46,777
1227123,7866884,8426236,7869759,8426815,2272,1947,-2492,2608,-1272,962,-659,6918,63,46,777
1228124,7867132,8426376,7869956,8427012,1701,2472,-2188,2899,-1249,753,-870,6838,58,26,781
1229125,7867428,8426524,7870153,8427209,1357,2444,-1886,3113,-1252,539,-625,6637,58,26,781
1230126,7867588,8426644,7870350,8427406,2224,2653,-1573,3297,-1294,427,-431,6455,44,27,780
1231127,7867780,8426748,7870547,8427603,2026,2794,-1243,3385,-1321,372,-399,6132,44,27,780
1232128,7868104,8427060,7870744,8427800,1147,1444,-915,3376,-1319,315,-308,6010,35,49,782
1233129,7868256,8427196,7870941,8427997,2241,2571,-621,3346,-1279,337,-124,5843,35,49,782
1234130,7868356,8427372,7871138,8428194,2610,2330,-357,3273,-1198,508,-233,5714,37,33,777
1235131,7868708,8427484,7871335,8428391,967,2767,-106,3192,-1057,622,-835,5857,37,33,777
1236132,7868892,8427668,7871532,8428588,2024,2324,127,3084,-884,641,-1304,5612,35,35,777
1237133,7869024,8427820,7871729,8428785,2377,2544,340,2940,-715,763,-1398,5434,35,35,777
1238134,7869300,8428092,7871926,8428982,1444,1761,540,2781,-536,859,-1679,5295,35,33,780
1239135,7869596,8428292,7872123,8429179,1275,2209,718,2558,-347,767,-1812,5202,35,33,780
1240136,7869772,8428472,7872320,8429376,2035,2342,861,2403,-152,581,-1762,5363,47,47,777
1241137,7869936,8428652,7872517,8429573,2125,2349,967,2253,39,455,-1665,5308,47,47,777
1242138,7870240,8428792,7872714,8429770,1204,2625,989,2267,211,518,-1261,5817,53,38,784
1243139,7870392,8428960,7872911,8429967,2173,2463,853,2449,328,547,-776,6272,53,38,784
1244140,7870508,8429212,7873108,8430164,2435,1914,800,2402,310,626,92,4906,45,47,779
1245141,7870800,8429448,7873305,8430361,1293,1997,846,2020,206,897,309,4391,45,47,779
1246142,7871016,8429652,7873502,8430558,1761,2194,852,1625,103,1160,118,4591,34,50,778
1247143,7871112,8429816,7873699,8430755,2555,2458,805,1432,59,1120,-387,4837,34,50,778
1248144,7871384,8429952,7873896,8430952,1423,2661,786,1228,43,913,-836,4576,42,40,783
1249145,7871600,8430092,7874093,8431149,1765,2661,772,1075,43,724,-1186,5008,42,40,783
1250146,7871692,8430280,7874290,8431346,2587,2365,760,1006,34,671,-902,5115,40,45,775
1251147,7871828,8430548,7874487,8431543,2339,1834,701,1024,19,688,2,5363,40,45,775
1252148,7872112,8430744,7874684,8431740,1377,2284,647,1009,-11,554,564,5019,47,55,779
1253149,7872252,8430908,7874881,8431937,2302,2500,665,861,-56,459,653,4626,47,55,779
1254150,7872364,8431068,7875078,8432134,2515,2541,724,713,-102,542,364,4526,27,48,780
1255151,7872644,8431224,7875275,8432331,1429,2584,800,545,-100,526,-269,4426,27,48,780
1256152,7872816,8431416,7875472,8432528,2116,2361,884,481,-32,272,-956,4671,32,41,777
1257162,7872884,8431648,7875702,8432758,2837,2110,950,587,81,-24,-1792,5148,32,41,777
1258154,7873120,8431872,7875899,8432955,1771,2149,1002,763,209,-214,-1894,5275,34,40,780
1259155,7873352,8432036,7876096,8433152,1780,2539,1060,956,298,-289,-1616,5122,34,40,780
1260156,7873444,8432200,7876293,8433349,2703,2553,1095,1145,368,-460,-1323,5113,29,36,774
1261157,7873592,8432328,7876490,8433546,2374,2809,1097,1302,410,-760,-881,4964,29,36,774
1262158,7873824,8432572,7876687,8433743,1835,2063,1071,1480,428,-1004,-253,5037,26,56,779
1263159,7873928,8432772,7876884,8433940,2676,2338,1046,1677,423,-1050,-265,4894,26,56,779
1264160,7873964,8433004,7877081,8434137,3172,2122,1025,1872,414,-1019,-808,4878,44,39,774
1265161,7874232,8433172,7877278,8434334,1691,2535,1013,2021,414,-1078,-1098,4659,44,39,774
1266162,7874412,8433332,7877475,8434531,2250,2601,986,2122,396,-1104,-1095,4645,46,39,775
1267163,7874456,8433496,7877672,8434728,3168,2592,931,2241,394,-1003,-1510,4544,46,39,775
1268164,7874672,8433648,7877869,8434925,2084,2687,861,2311,446,-856,-1735,4342,29,31,779
1269165,7874896,8433876,7878066,8435122,2024,2198,776,2338,555,-681,-1783,4207,29,31,779
1270166,7874968,8434076,7878263,8435319,3028,2372,680,2282,713,-642,-1541,4035,51,42,770
1271167,7875092,8434280,7878460,8435516,2737,2345,587,2188,911,-622,-1204,3895,51,42,770
1272168,7875332,8434424,7878657,8435713,1994,2743,523,1975,1075,-712,-698,3466,37,32,778
1273169,7875456,8434592,7878854,8435910,2751,2606,487,1703,1142,-888,-205,3365,37,32,778
1274170,7875536,8434740,7879051,8436107,3078,2752,488,1382,1103,-988,53,3156,48,32,775
1275171,7875756,8434960,7879248,8436304,2194,2293,517,1017,1023,-1003,-232,3091,48,32,775
1276172,7875968,8435188,7879445,8436501,2237,2230,569,765,1022,-997,-891,3344,33,41,773
1277173,7876028,8435396,7879642,8436698,3249,2350,610,567,1090,-1050,-495,3496,33,41,773
1278174,7876172,8435604,7879839,8436895,2748,2345,604,435,1164,-1255,168,3759,28,54,778
1279175,7876436,8435816,7880036,8437092,1969,2314,556,320,1232,-1438,-15,3850,28,54,778
1280176,7876528,8436012,7880233,8437289,3091,2415,472,323,1316,-1409,-569,4054,39,48,772
1281177,7876644,8436192,7880430,8437486,2977,2522,399,271,1403,-1534,-517,3890,39,48,772
1282179,7876880,8436436,7880627,8437683,2211,2101,375,208,1479,-1684,-584,3910,30,47,778
1283179,7877068,8436672,7880824,8437880,2515,2134,391,132,1562,-1764,-906,3965,30,47,778
1284180,7877144,8436900,7881021,8438077,3269,2172,431,89,1676,-1887,-1038,4091,35,59,773
1285181,7877368,8437108,7881218,8438274,2333,2292,473,99,1785,-2048,-498,4207,35,59,773
1286182,7877600,8437336,7881415,8438471,2268,2153,501,101,1876,-2129,-424,4131,52,56,777
1287183,7877740,8437556,7881612,8438668,2869,2193,510,126,1995,-2072,-558,4284,52,56,777
1288184,7877876,8437776,7881809,8438865,2922,2184,514,114,2154,-1937,-851,4158,30,40,778
1289185,7878124,8438012,7882006,8439062,2200,2067,545,58,2356,-1876,-1023,4129,30,40,778
1290186,7878280,8438240,7882203,8439259,2793,2103,601,-82,2552,-1917,-374,3866,51,55,775
1291188,7878392,8438508,7882400,8439456,3107,1822,672,-237,2709,-1836,-3,3831,51,55,775
1292188,7878592,8438764,7882597,8439653,2557,1871,760,-448,2869,-1602,-312,3757,50,49,778
1293189,7878828,8438984,7882794,8439850,2315,2087,872,-622,3006,-1516,-91,3840,50,49,778
1294190,7878924,8439212,7882991,8440047,3235,2023,989,-778,3126,-1452,179,3941,50,62,774
1295191,7879144,8439528,7883188,8440244,2451,1421,1099,-886,3233,-1284,153,4095,50,62,774
1296192,7879324,8439752,7883385,8440441,2709,1984,1211,-941,3327,-1195,215,4268,48,54,779
1297193,7879476,8439888,7883582,8440638,2905,2561,1333,-937,3419,-1126,-295,4456,48,54,779
1298194,7879588,8440080,7883779,8440835,3192,2213,1447,-965,3536,-967,-1213,4516,35,39,781
1299195,7879800,8440232,7883976,8441032,2562,2483,1560,-936,3659,-862,-958,4555,35,39,781
1300196,7879964,8440372,7884173,8441229,2877,2584,1664,-935,3748,-827,350,4427,28,47,772
1301197,7880012,8440568,7884370,8441426,3669,2235,1762,-921,3820,-779,909,4532,28,47,772
1302198,7880200,8440868,7884567,8441623,2799,1539,1865,-885,3866,-612,905,4671,31,46,775
1303199,7880364,8441156,7884764,8441820,2964,1574,1996,-806,3900,-366,470,4799,31,46,775
1304200,7880480,8441480,7884961,8442017,3300,1293,2125,-658,3891,-263,716,4941,35,63,768
1305201,7880668,8441728,7885158,8442214,2855,1746,2247,-519,3841,-241,1088,4822,35,63,768
1306203,7880896,8442052,7885355,8442411,2592,1215,2353,-391,3760,-209,1320,4850,44,72,778
1307203,7881072,8442336,7885552,8442608,2927,1427,2456,-273,3644,-226,1662,4758,44,72,778
1308204,7881224,8442628,7885749,8442805,3098,1335,2524,-120,3510,-52,1194,4818,49,70,777
1309205,7881424,8443000,7885946,8443002,2798,758,2543,-12,3428,155,383,4687,49,70,777
1310206,7881616,8443332,7886143,8443199,2851,949,2518,141,3392,153,35,4837,40,67,779
1311207,7881760,8443696,7886340,8443396,3174,676,2504,332,3345,83,104,4862,40,67,779
1312208,7881924,8444032,7886537,8443593,3065,790,2506,570,3264,96,186,4936,30,76,781
1313209,7882100,8444440,7886734,8443790,3000,247,2512,826,3133,102,482,4883,30,76,781
1314211,7882236,8444916,7886931,8443987,3278,-301,2514,1048,2909,62,1076,4655,31,80,778
1315211,7882384,8445164,7887128,8444184,3225,1102,2489,1243,2579,-30,1453,4530,31,80,778
1316213,7882548,8445408,7887325,8444381,3141,1106,2419,1405,2163,-34,1534,4453,28,76,780
1317213,7882668,8445780,7887522,8444578,3451,229,2313,1556,1748,160,1212,4480,28,76,780
1318214,7882804,8446096,7887719,8444775,3378,526,2192,1722,1329,316,1509,4374,36,54,777
1319215,7882968,8446352,7887916,8444972,3219,875,2035,1840,870,372,2003,4229,36,54,777
1320216,7883140,8446584,7888113,8445169,3181,1010,1809,2079,392,452,1874,4577,46,49,778
1321217,7883268,8446868,7888310,8445366,3486,646,1613,2340,-31,560,1463,4421,46,49,778
1322218,7883448,8447144,7888507,8445563,3170,661,1445,2594,-370,546,1434,4431,34,58,779
1323219,7883644,8447400,7888704,8445760,3071,760,1263,2793,-691,525,1790,4020,34,58,779
1324220,7883780,8447604,7888901,8445957,3474,1082,1045,2779,-1045,501,1809,3364,47,55,777
1325221,7883956,8447720,7889098,8446154,3234,1666,822,2600,-1400,601,1714,2983,47,55,777
1326222,7884188,8447840,7889295,8446351,2870,1675,567,2291,-1728,741,1925,2522,51,45,779
1327223,7884312,8448008,7889492,8446548,3578,1388,309,1990,-2010,859,2090,2574,51,45,779
1328224,7884504,8448212,7889689,8446745,3156,1160,65,1718,-2249,1037,2100,2620,55,46,775
1329225,7884700,8448396,7889886,8446942,3133,1290,-164,1537,-2411,1268,1816,2935,55,46,775
1330226,7884896,8448576,7890083,8447139,3134,1322,-358,1477,-2484,1481,1809,3052,35,32,774
1331227,7885068,8448648,7890280,8447336,3296,2052,-540,1463,-2535,1488,2041,3068,35,32,774
1332228,7885276,8448720,7890477,8447533,3067,2106,-720,1425,-2634,1179,2419,3027,33,36,778
1333229,7885484,8448908,7890674,8447730,3063,1385,-891,1301,-2803,915,2333,2797,33,36,778
1334230,7885644,8449072,7890871,8447927,3381,1549,-1051,1208,-2985,802,1385,3015,39,29,773
1335231,7885864,8449292,7891068,8448124,2996,1189,-1194,1224,-3156,427,1204,3266,39,29,773
1336232,7886088,8449440,7891265,8448321,2961,1661,-1331,1382,-3338,111,765,3682,39,29,776
1337233,7886244,8449520,7891462,8448518,3405,2136,-1458,1644,-3499,-170,181,3958,39,29,776
1338234,7886428,8449576,7891659,8448715,3236,2348,-1559,2085,-3630,-236,-191,4545,49,32,777
1339236,7886644,8449736,7891856,8448912,3029,1714,-1626,2605,-3781,-332,-411,4577,49,32,777
1340243,7886816,8449956,7892086,8449142,3330,1344,-1689,3111,-3934,-504,-622,4673,43,32,772
1341237,7887012,8450176,7892283,8449339,3182,1334,-1770,3464,-4081,-641,-737,4219,43,32,772
1342238,7887220,8450336,7892480,8449536,3103,1724,-1891,3701,-4246,-794,-697,4026,58,32,776
1343239,7887428,8450420,7892677,8449733,3099,2249,-2054,3942,-4408,-1009,-775,3986,58,32,776
1344240,7887584,8450404,7892874,8449930,3443,2967,-2205,4081,-4521,-1155,-1165,3897,51,35,777
1345241,7887808,8450528,7893071,8450127,3007,2124,-2322,4296,-4539,-1265,-1585,4166,51,35,777
1346242,7888012,8450728,7893268,8450324,3130,1648,-2424,4475,-4478,-1252,-1713,4000,50,31,773
1347243,7888148,8450940,7893465,8450521,3583,1566,-2526,4656,-4366,-1281,-1791,3996,50,31,773
1348244,7888352,8451180,7893662,8450718,3156,1372,-2631,4714,-4259,-1452,-1720,3660,52,45,773
1349245,7888584,8451248,7893859,8450915,2967,2504,-2733,4588,-4204,-1584,-1722,3390,52,45,773
1350246,7888732,8451260,7894056,8451112,3514,2935,-2828,4428,-4177,-1690,-1826,3395,46,40,773
1351247,7888948,8451380,7894253,8451309,3082,2294,-2901,4230,-4144,-1872,-1875,3234,46,40,773
