"Data file recorded 2014/9/24  18:0:15"
"%  Right Stride Frequency         = 3.0"
"%  Left Stride Frequency         = 3.0"
"%  Phase (Fractional)         = 32768.0"
"%  Experiment.py "
"%  Motor Gains    = [1800, 200, 100, 0, 0, 1800, 200, 100, 0, 0]
"% Columns: "
"% time | Right Leg Pos | Left Leg Pos | Commanded Right Leg Pos | Commanded Left Leg Pos | DCR | DCL | GyroX | GryoY | GryoZ | AX | AY | AZ | RBEMF | LBEMF | VBatt "
11408,2412408,2451132,2399016,2497320,-3800,3800,-127,-703,309,660,-412,4048,-10,6,921
12402,2412404,2451140,2399213,2497517,-3800,3800,-128,-702,312,646,-421,3995,-11,6,921
13404,2412388,2451136,2399410,2497714,-3800,3800,-129,-693,306,663,-412,4037,-11,6,921
14391,2412248,2451280,2399607,2497911,-3458,3800,-128,-667,303,653,-406,4057,-25,22,876
15393,2412000,2451552,2399804,2498108,-2589,3800,-128,-695,307,641,-342,4078,-25,22,876
16393,2411704,2451904,2400001,2498305,-2075,3800,-110,-703,296,739,-43,4047,-63,40,877
17395,2411340,2452284,2400198,2498502,-1406,3800,-51,-734,290,1113,391,3779,-63,40,877
18395,2411008,2452688,2400395,2498699,-1375,3800,48,-941,286,1687,1073,3188,-69,62,888
19397,2410688,2453200,2400592,2498896,-1225,3800,155,-1170,270,2070,1414,3291,-69,62,888
20397,2410340,2453700,2400789,2499093,-813,3800,240,-1236,260,2096,840,3646,-74,89,895
21399,2410032,2454200,2400986,2499290,-843,3800,283,-1210,285,1991,-115,3936,-74,89,895
22400,2409756,2454848,2401183,2499487,-837,3800,303,-1078,352,1945,-469,4177,-64,90,896
23401,2409504,2455420,2401380,2499684,-791,3800,320,-894,430,1868,-770,4233,-64,90,896
24401,2409212,2456092,2401577,2499881,-328,3800,355,-652,492,1943,-846,4521,-54,115,899
25402,2408984,2456712,2401774,2500078,-542,3800,378,-282,577,2038,-1044,4797,-54,115,899
26403,2408768,2457492,2401971,2500275,-437,3800,401,172,694,2014,-1294,4913,-51,116,899
27404,2408544,2458132,2402168,2500472,-203,3800,443,609,820,1847,-1596,4832,-51,116,899
28405,2408360,2458940,2402365,2500669,-287,3800,542,871,913,1826,-1500,4278,-38,128,901
29407,2408188,2459620,2402562,2500866,-201,3800,653,1124,997,2009,-1537,4249,-38,128,901
30407,2408032,2460408,2402759,2501063,-147,3800,766,1351,1071,2127,-1407,4013,-17,133,902
31408,2407912,2461000,2402956,2501260,-233,3800,897,1588,1139,2014,-1442,3906,-17,133,902
32409,2407820,2461724,2403153,2501457,-282,3800,1038,1872,1215,1762,-1621,4042,-6,123,902
33411,2407752,2462388,2403350,2501654,-317,3800,1167,2199,1298,1549,-1852,4069,-6,123,902
34411,2407684,2463016,2403547,2501851,-202,3800,1290,2526,1366,1217,-1877,3955,-3,110,902
35413,2407664,2463588,2403744,2502048,-407,3800,1417,2840,1416,915,-1962,3941,-3,110,902
36413,2407624,2464164,2403941,2502245,-179,3800,1514,3187,1431,590,-1922,4093,10,105,899
37415,2407620,2464680,2404138,2502442,-316,3800,1560,3550,1358,66,-1469,3883,10,105,899
38415,2407612,2465200,2404335,2502639,-202,3800,1555,3819,1182,-312,-1238,3454,14,84,899
39416,2407604,2465732,2404532,2502836,-112,3800,1503,4001,981,-545,-1658,3221,14,84,899
40417,2407612,2466244,2404729,2503033,-129,3800,1442,4065,813,-603,-1662,2699,15,98,900
41419,2407608,2466696,2404926,2503230,33,3800,1378,3963,654,-592,-1283,2186,15,98,900
42419,2407600,2467284,2405123,2503427,148,3800,1303,3722,480,-582,-975,1734,-3,91,899
43420,2407596,2467828,2405320,2503624,210,3800,1203,3369,296,-529,-726,1421,-3,91,899
44421,2407596,2468504,2405517,2503821,272,3800,1110,2905,130,-409,-498,937,-3,101,901
45423,2407592,2469056,2405714,2504018,384,3800,996,2326,-24,-298,-321,679,-3,101,901
46424,2407592,2469652,2405911,2504215,446,3800,884,1638,-142,-261,-466,283,18,106,901
47424,2407576,2470220,2406108,2504412,639,3800,751,811,-276,-249,-176,24,18,106,901
48425,2407576,2470800,2406305,2504609,625,3800,549,-38,-455,-305,87,-95,2,103,899
49426,2407576,2471452,2406502,2504806,712,3800,275,-909,-634,-376,30,54,2,103,899
50427,2407596,2472012,2406699,2505003,664,3800,-36,-1659,-733,-322,-357,275,20,108,899
51428,2407604,2472552,2406896,2505200,822,3800,-346,-2419,-700,-272,-803,292,20,108,899
52429,2407612,2473096,2407093,2505397,905,3800,-654,-3076,-514,-104,-1333,815,19,97,898
53430,2407620,2473616,2407290,2505594,988,3800,-937,-3650,-170,80,-1794,1168,19,97,898
54431,2407644,2474200,2407487,2505791,965,3800,-1171,-4151,334,335,-2114,1637,23,102,898
55432,2407660,2474832,2407684,2505988,1093,3800,-1354,-4528,919,613,-2030,1994,23,102,898
56433,2407700,2475492,2407881,2506185,1012,3800,-1507,-4908,1503,794,-1810,2184,10,109,898
57434,2407756,2476236,2408078,2506382,975,3800,-1635,-5143,2091,1167,-1640,2806,10,109,898
58435,2407820,2476876,2408275,2506579,983,3800,-1720,-5273,2673,1381,-1415,3328,10,132,897
59436,2407876,2477496,2408472,2506776,1095,3800,-1772,-5326,3243,1620,-1423,3720,10,132,897
60437,2407924,2478332,2408669,2506973,1211,3800,-1808,-5350,3776,1784,-1315,3925,29,149,897
61438,2407992,2479044,2408866,2507170,1143,3800,-1841,-5312,4239,1829,-1177,4476,29,149,897
62439,2408076,2479892,2409063,2507367,1092,3800,-88,-2110,4485,6500,-480,32029,32,160,900
63440,2408168,2480772,2409260,2507564,1088,3800,3613,4988,4244,10937,421,32767,32,160,900
64441,2408248,2481608,2409457,2507761,1215,3800,5617,7805,4291,3779,-640,6077,35,176,901
65442,2408360,2482556,2409654,2507958,1053,3800,5470,6721,4702,2987,-466,1451,35,176,901
66443,2408448,2483596,2409851,2508155,1251,3800,4737,4266,5179,3470,-1203,82,26,174,902
67444,2408564,2484516,2410048,2508352,1112,3800,4290,2821,5574,3511,-1142,1085,26,174,902
68445,2408692,2485468,2410245,2508549,1068,3800,4192,1850,5875,2866,-499,554,46,181,902
69446,2408836,2486396,2410442,2508746,991,3800,4140,1172,6012,2508,-468,1147,46,181,902
70447,2408960,2487212,2410639,2508943,1148,3800,4011,394,6054,1728,-180,1048,40,172,900
71448,2409080,2488088,2410836,2509140,1207,3800,3863,-347,6125,1300,-376,1882,40,172,900
72449,2409188,2488812,2411033,2509337,1322,3800,3582,-739,6131,1329,51,2782,22,169,901
73450,2409272,2489480,2411230,2509534,1522,3800,3227,-982,5935,413,1464,3444,22,169,901
74451,2409380,2490124,2411427,2509731,1411,3800,2685,-620,5484,-296,2399,5350,20,129,899
75452,2409492,2490704,2411624,2509928,1424,3800,2076,-234,4746,-881,3382,4439,20,129,899
76453,2409596,2491280,2411821,2510125,1515,3800,1504,-85,3888,-1174,4236,4116,19,112,896
77454,2409712,2491828,2412018,2510322,1477,3800,915,-91,2990,-1455,5126,3434,19,112,896
78455,2409844,2492276,2412215,2510519,1405,3800,274,-445,2090,-1731,5421,2656,19,94,895
79456,2409968,2492760,2412412,2510716,1489,3800,-399,-725,1301,-2124,4965,2954,19,94,895
80457,2410116,2493180,2412609,2510913,1360,3800,-1099,-976,585,-2613,4666,2893,42,85,894
81458,2410244,2493592,2412806,2511110,1516,3800,-1807,-977,67,-2558,3469,3618,42,85,894
82459,2410376,2494008,2413003,2511307,1520,3800,-2474,-1023,-222,-2137,2834,3120,42,77,891
83460,2410512,2494340,2413200,2511504,1523,3800,-3066,-1317,-416,-1485,2340,2457,42,77,891
84461,2410612,2494620,2413397,2511701,1790,3800,-3549,-1771,-590,-1210,2204,1894,21,56,893
85462,2410736,2494880,2413594,2511898,1673,3800,-3942,-2542,-726,-1289,1973,1195,21,56,893
86463,2410868,2495136,2413791,2512095,1652,3800,-4319,-3337,-782,-1411,1579,1401,22,45,892
87464,2410976,2495412,2413988,2512292,1842,3800,-4700,-3990,-668,-1529,973,1852,22,45,892
88465,2411100,2495632,2414185,2512489,1774,3800,-5045,-4366,-417,-1669,498,2349,39,54,890
89466,2411220,2495836,2414382,2512686,1834,3800,-5287,-4850,-136,-2112,282,1947,39,54,890
90468,2411336,2496028,2414579,2512883,1895,3800,-5453,-5477,168,-2571,-134,2159,26,48,889
91468,2411464,2496204,2414776,2513080,1851,3800,-5587,-6036,557,-2867,-755,2644,26,48,889
92469,2411608,2496356,2414973,2513277,1775,3800,-5695,-6493,1051,-3102,-1393,3044,19,24,887
93477,2411724,2496548,2415400,2513704,2087,3800,-5778,-6753,1617,-3179,-1862,3875,19,24,887
94471,2411844,2496692,2415597,2513901,2097,3800,-5836,-6925,2155,-2634,-1637,4200,37,30,888
95472,2411944,2496840,2415794,2514098,2265,3800,-5818,-7158,2574,-1848,-1056,3984,37,30,888
96473,2412056,2496992,2415991,2514295,2228,3800,-5696,-7561,2891,-1356,-847,3701,18,21,887
97474,2412148,2497156,2416188,2514492,2400,3800,-4787,-7466,3105,286,-900,9788,18,21,887
98475,2412268,2497320,2416385,2514689,2260,3800,-1008,-1218,2721,8803,-1068,32767,32,26,886
99476,2412408,2497500,2416582,2514886,2161,3800,2898,4056,2229,4085,-780,23984,32,26,886
100477,2412512,2497684,2416779,2515083,2428,3800,4021,3900,2137,450,-144,1144,28,27,885
101478,2412644,2497864,2416976,2515280,2281,3800,3797,1038,2238,1411,198,-411,28,27,885
102479,2412808,2498056,2417173,2515477,2097,3800,3371,-1533,2377,2431,-543,687,27,37,886
103480,2412948,2498260,2417370,2515674,2273,3800,3411,-2884,2601,2540,-720,722,27,37,886
104481,2413076,2498484,2417567,2515871,2379,3800,3663,-4273,2761,2565,-501,63,38,48,885
105482,2413220,2498692,2417764,2516068,2303,3800,3911,-5344,2829,2686,-740,1178,38,48,885
106483,2413368,2498916,2417961,2516265,2301,3800,4094,-6626,2889,2511,-507,1093,41,36,884
107484,2413504,2499152,2418158,2516462,2403,3800,4214,-7439,2890,2692,-745,2530,41,36,884
108485,2413672,2499420,2418355,2516659,2216,3800,4263,-7915,2881,2351,-719,3241,26,55,886
109486,2413824,2499704,2418552,2516856,2337,3800,4250,-7920,2890,2134,-598,4971,26,55,886
110487,2414004,2499960,2418749,2517053,2171,3800,4127,-7331,2837,1966,-292,6287,42,40,886
111488,2414212,2500220,2418946,2517250,1992,3800,4009,-6610,2771,1322,-21,6684,42,40,886
112489,2414392,2500484,2419143,2517447,2175,3800,3879,-5511,2713,905,185,7899,50,56,887
113490,2414564,2500760,2419340,2517644,2237,3800,3810,-4478,2651,422,537,7196,50,56,887
114491,2414772,2501024,2419537,2517841,2008,3800,3737,-3328,2614,-57,775,8122,52,58,887
115492,2414948,2501288,2419734,2518038,2219,3800,3595,-2063,2499,-194,1971,7988,52,58,887
116493,2415124,2501544,2419931,2518235,2229,3800,3348,-983,2154,-146,3970,7498,36,58,887
117494,2415336,2501804,2420128,2518432,1997,3800,3043,118,1733,-25,4427,7352,36,58,887
118495,2415524,2502068,2420325,2518629,2152,3800,2815,851,1342,-46,4607,5710,31,42,887
119496,2415724,2502328,2420522,2518826,2077,3800,2663,1257,1022,-214,4457,4805,31,42,887
120497,2415952,2502608,2420719,2519023,1889,3800,2563,1358,738,-592,4729,3691,38,55,888
121498,2416164,2502840,2420916,2519220,1984,3800,2481,1104,470,-865,4534,2513,38,55,888
122499,2416388,2503112,2421113,2519417,1898,3800,2421,614,190,-956,4637,1499,48,58,887
123500,2416592,2503388,2421310,2519614,2021,3800,2395,-177,-70,-702,4804,785,48,58,887
124501,2416856,2503648,2421507,2519811,1617,3800,2341,-805,-238,-66,4498,1066,59,59,888
125502,2417124,2503940,2421704,2520008,1562,3800,2255,-1292,-214,128,3747,1243,59,59,888
126503,2417388,2504252,2421901,2520205,1559,3800,2129,-1549,37,-154,2513,1813,63,65,888
127504,2417632,2504544,2422098,2520402,1663,3800,2042,-1930,321,-750,2385,993,63,65,888
128505,2417868,2504864,2422295,2520599,1697,3800,2065,-2538,563,-1311,1926,568,50,53,891
129506,2418080,2505192,2422492,2520796,1841,3800,2199,-3264,772,-1271,1697,79,50,53,891
130507,2418392,2505504,2422689,2520993,1167,3800,2392,-4047,965,-1178,1944,-159,42,57,891
131508,2418636,2505848,2422886,2521190,1572,3800,2497,-4438,1181,-1198,1823,1209,42,57,891
132509,2418888,2506260,2423083,2521387,1499,3800,2420,-4221,1444,-1644,1224,2677,51,85,888
133510,2419168,2506664,2423280,2521584,1288,3800,2207,-3627,1668,-2265,1054,3544,51,85,888
134511,2419384,2507108,2423477,2521781,1680,3800,1927,-2775,1774,-2449,1391,4258,59,83,892
135512,2419648,2507620,2423674,2521978,1352,3800,1672,-1960,1895,-1800,1217,3943,59,83,892
136513,2419964,2508140,2423871,2522175,975,3800,1443,-1081,2062,-1470,989,4271,66,91,894
137514,2420240,2508712,2424068,2522372,1191,3800,1231,-172,2257,-1524,224,4514,66,91,894
138515,2420564,2509308,2424265,2522569,836,3800,1010,847,2460,-1457,-322,4829,73,97,895
139516,2420836,2509860,2424462,2522766,1129,3800,739,1822,2602,-1490,-667,4576,73,97,895
140504,2421112,2510492,2424659,2522963,1070,3398,450,2530,2662,-925,-719,3574,71,126,897
141506,2421400,2511104,2424856,2523160,955,3343,150,2920,2598,-286,-455,2607,71,126,897
142506,2421712,2511892,2425053,2523357,756,1986,-103,3073,2499,183,-527,2109,60,136,897
143507,2421984,2512604,2425250,2523554,974,2237,-329,3116,2415,905,-727,1727,60,136,897
144508,2422268,2513384,2425447,2523751,861,1557,-516,3061,2361,1502,-362,1293,63,132,903
145509,2422552,2514112,2425644,2523948,823,1651,-645,2913,2339,1946,-65,845,63,132,903
146510,2422812,2514856,2425841,2524145,946,1313,-727,2617,2283,2301,71,186,57,136,907
147511,2423052,2515652,2426038,2524342,1053,726,-781,2234,2209,2408,33,54,57,136,907
148512,2423276,2516404,2426235,2524539,1142,758,-810,1836,2158,2604,-156,-91,55,129,910
149513,2423532,2517128,2426432,2524736,916,704,-830,1382,2090,2777,-272,-349,55,129,910
150514,2423768,2517840,2426629,2524933,1025,554,-860,969,1980,2645,-317,-226,65,136,914
151515,2424012,2518524,2426826,2525130,954,517,-871,590,1805,2361,-352,-517,65,136,914
152516,2424284,2519168,2427023,2525327,747,571,-852,233,1560,2069,-470,-484,44,120,915
153517,2424500,2519820,2427220,2525524,1089,322,-817,1,1291,1715,-789,-63,44,120,915
154518,2424716,2520428,2427417,2525721,1081,418,-791,-19,1026,1381,-1138,420,62,109,915
155519,2424972,2520924,2427614,2525918,806,987,-811,225,796,906,-1628,1112,62,109,915
156520,2425164,2521488,2427811,2526115,1209,402,-870,714,582,411,-2049,1857,44,119,915
157522,2425356,2522016,2428008,2526312,1211,482,-942,1374,358,291,-2271,1864,44,119,915
158522,2425556,2522572,2428205,2526509,1161,151,-922,1889,142,324,-2345,882,37,92,913
159523,2425756,2523108,2428402,2526706,1159,128,-832,2093,-39,344,-2427,309,37,92,913
160524,2425964,2523536,2428599,2526903,1105,701,-749,2211,-163,476,-2553,403,35,95,914
161525,2426168,2523948,2428796,2527100,1127,708,-683,2385,-230,627,-2323,354,35,95,914
162526,2426376,2524388,2428993,2527297,1099,427,-645,2675,-263,721,-2359,463,38,75,915
163527,2426544,2524752,2429190,2527494,1361,828,-644,2935,-248,743,-2373,540,38,75,915
164528,2426768,2525132,2429387,2527691,1000,649,-637,3213,-188,688,-2372,488,36,65,914
165529,2426992,2525504,2429584,2527888,989,622,-578,3406,-158,529,-2129,-117,36,65,914
166530,2427232,2525836,2429781,2528085,871,814,-492,3425,-152,388,-2064,-423,35,69,912
167531,2427488,2526116,2429978,2528282,745,1102,-464,3576,-76,431,-2355,382,35,69,912
168532,2427668,2526320,2430175,2528479,1228,1574,-536,3936,104,419,-2598,833,44,54,913
169533,2427828,2526540,2430372,2528676,1369,1465,-679,4352,273,257,-2225,855,44,54,913
170534,2427980,2526784,2430569,2528873,1440,1295,-843,4640,288,84,-1543,370,46,40,912
171535,2428176,2526976,2430766,2529070,1166,1623,-989,4665,130,-29,-1081,-282,46,40,912
172537,2428348,2527172,2430963,2529267,1328,1598,-1146,4507,-148,76,-404,-764,29,45,909
173538,2428528,2527336,2431160,2529464,1285,1813,-1320,3892,-517,397,127,-1718,29,45,909
174539,2428680,2527484,2431357,2529661,1481,1935,-1540,3236,-904,1034,47,-1549,25,34,908
175540,2428828,2527620,2431554,2529858,1527,2037,-1826,2728,-1220,1378,-158,-1201,25,34,908
176548,2428972,2527736,2431784,2530088,1591,2213,-2205,2217,-1488,1627,-497,-1231,32,35,907
177542,2429152,2527916,2431981,2530285,1374,1821,-2674,1738,-1729,1805,-976,-810,32,35,907
178543,2429316,2528052,2432178,2530482,1489,2123,-3186,1321,-1928,1957,-1576,-463,30,28,903
179544,2429496,2528196,2432375,2530679,1397,2097,-3689,826,-2093,2286,-2048,-708,30,28,903
180544,2429652,2528344,2432572,2530876,1566,2093,-4122,197,-2187,2310,-2473,-898,25,25,904
181546,2429800,2528484,2432769,2531073,1637,2169,-4577,-342,-2199,2355,-2874,-105,25,25,904
182547,2429944,2528600,2432966,2531270,1687,2355,-5066,-786,-2197,2467,-3010,-31,39,33,904
183547,2430096,2528732,2433163,2531467,1657,2284,-5539,-1286,-2212,2351,-2957,-217,39,33,904
184548,2430252,2528860,2433360,2531664,1650,2340,-5933,-1912,-2258,2165,-2936,-177,23,29,902
185550,2430360,2529000,2433557,2531861,1990,2291,-6327,-2554,-2319,2018,-3230,266,23,29,902
186550,2430504,2529116,2433754,2532058,1789,2477,-6800,-2957,-2360,1951,-3573,1165,16,24,901
187551,2430648,2529252,2433951,2532255,1813,2379,-7662,-2749,-2261,1986,-5297,3375,16,24,901
188552,2430760,2529384,2434148,2532452,2051,2434,-8749,-2325,-1994,1697,-7101,3190,34,21,899
189554,2430904,2529536,2434345,2532649,1875,2329,-9763,-1978,-1725,1477,-7064,3187,34,21,899
190555,2431040,2529652,2434542,2532846,1952,2590,-10645,-1824,-1551,1314,-7076,3415,15,15,899
191556,2431188,2529780,2434739,2533043,1900,2545,-11416,-1792,-1429,1215,-7206,3450,15,15,899
192556,2431328,2529920,2434936,2533240,1975,2496,-11980,-1982,-1326,1107,-6956,3106,31,25,898
193558,2431464,2530068,2435133,2533437,2028,2469,-11791,-1827,-1218,1298,-7004,6289,31,25,898
194558,2431588,2530196,2435330,2533634,2136,2624,-5153,10027,-130,22,-14832,32767,16,22,898
195559,2431764,2530320,2435527,2533831,1820,2682,4886,27305,1517,1497,-17367,32767,16,22,898
196560,2431904,2530464,2435724,2534028,2071,2582,9106,30800,1976,6179,-3825,-3087,39,26,898
197562,2432072,2530616,2435921,2534225,1910,2551,8151,24906,1723,6613,-2129,-7436,39,26,898
198563,2432224,2530736,2436118,2534422,2031,2786,6395,17433,1281,6635,-2960,-10643,26,31,897
199564,2432376,2530884,2436315,2534619,2051,2634,5341,12037,1115,5898,-3185,-7931,26,31,897
200564,2432532,2531040,2436512,2534816,2045,2602,4610,9179,1353,5370,-4608,-4352,26,37,898
201566,2432688,2531172,2436709,2535013,2064,2781,3322,6969,1725,5732,-5465,-4111,26,37,898
202567,2432876,2531344,2436906,2535210,1868,2543,1814,4087,1902,4356,-2979,-4920,21,28,894
203567,2433040,2531540,2437103,2535407,2033,2395,558,529,1591,2969,-410,-5110,21,28,894
204568,2433212,2531736,2437300,2535604,1995,2395,-249,-3065,885,2215,203,-5156,43,47,896
205570,2433400,2531940,2437497,2535801,1900,2343,-848,-6287,337,1414,-358,-4044,43,47,896
206571,2433608,2532164,2437694,2535998,1771,2207,-1461,-8732,7,690,-287,-2379,49,55,898
207572,2433784,2532452,2437891,2536195,1980,1768,-2086,-10539,-240,98,-52,-818,49,55,898
208572,2433996,2532744,2438088,2536392,1750,1702,-2575,-11670,-495,-696,688,1101,28,50,900
209574,2434176,2533004,2438285,2536589,1958,1875,-2791,-12437,-760,-1604,910,2109,28,50,900
210574,2434360,2533208,2438482,2536786,1940,2223,-2848,-12966,-985,-2555,713,3247,30,48,902
211576,2434560,2533496,2438679,2536983,1840,1658,-2882,-13106,-1128,-3358,469,4719,30,48,902
212576,2434768,2533720,2438876,2537180,1785,2047,-2980,-12506,-1166,-3695,482,7174,29,55,902
213578,2434936,2533944,2439073,2537377,2049,2036,-2143,-9338,-923,-4778,-338,24962,29,55,902
214579,2435152,2534148,2439270,2537574,1741,2158,470,-2022,-247,-6637,-2254,32767,48,32,903
215580,2435360,2534360,2439467,2537771,1787,2102,2389,2535,267,-5460,-374,16012,48,32,903
216580,2435536,2534564,2439664,2537968,1997,2150,2693,3411,542,-4607,670,6682,43,47,901
217582,2435752,2534812,2439861,2538165,1739,1853,2290,2791,784,-3862,790,5344,43,47,901
218583,2435936,2535048,2440058,2538362,1946,1912,1973,2362,1153,-3221,515,4556,46,41,902
219583,2436136,2535252,2440255,2538559,1846,2110,1985,2062,1667,-2736,373,3007,46,41,902
220584,2436352,2535464,2440452,2538756,1738,2053,2210,1542,2147,-1823,598,1770,36,38,903
221586,2436540,2535676,2440649,2538953,1917,2048,2469,711,2532,-1399,1072,796,36,38,903
222587,2436720,2535852,2440846,2539150,1976,2282,2722,-494,2854,-1098,1114,97,47,37,902
223588,2436908,2536060,2441043,2539347,1931,2078,2920,-1707,3147,-239,722,181,47,37,902
224589,2437088,2536232,2441240,2539544,1989,2315,3064,-2784,3500,356,656,516,32,41,900
225590,2437256,2536416,2441437,2539741,2078,2246,3189,-3682,3829,702,921,575,32,41,900
226590,2437424,2536596,2441634,2539938,2091,2279,3280,-4686,4012,805,1144,83,43,28,901
227591,2437612,2536792,2441831,2540135,1971,2181,3369,-5638,4069,803,1386,407,43,28,901
228592,2437780,2536980,2442028,2540332,2109,2235,3455,-6340,4007,870,1411,1136,30,40,899
229593,2437964,2537164,2442225,2540529,2016,2266,3547,-6730,3886,768,1021,1829,30,40,899
230595,2438168,2537352,2442422,2540726,1889,2245,3661,-6931,3766,460,666,2382,26,29,901
231595,2438328,2537536,2442619,2540923,2180,2277,3813,-6965,3639,359,506,2559,26,29,901
232596,2438484,2537736,2442816,2541120,2224,2177,3947,-6852,3500,285,379,3020,27,33,899
233597,2438648,2537904,2443013,2541317,2190,2389,4063,-6567,3354,-36,223,3286,27,33,899
234598,2438804,2538128,2443210,2541514,2259,2028,4175,-6271,3177,-349,108,3191,39,28,897
235599,2438948,2538312,2443407,2541711,2358,2285,4290,-5933,2964,-607,120,3303,39,28,897
236600,2439100,2538492,2443604,2541908,2329,2318,4375,-5515,2766,-716,-131,3555,40,46,896
237601,2439260,2538676,2443801,2542105,2295,2299,4419,-5048,2633,-691,-507,3400,40,46,896
238603,2439400,2538892,2443998,2542302,2446,2092,4436,-4593,2583,-759,-703,3341,21,52,897
239604,2439568,2539144,2444195,2542499,2285,1843,4454,-4197,2584,-718,-653,3014,21,52,897
240605,2439720,2539440,2444392,2542696,2406,1525,4476,-3949,2616,-528,-789,2559,21,49,898
241606,2439852,2539700,2444589,2542893,2560,1724,4475,-3776,2683,-390,-938,2364,21,49,898
242606,2439988,2539956,2444786,2543090,2563,1723,4440,-3658,2780,-190,-938,2004,28,48,901
243608,2440116,2540224,2444983,2543287,2644,1618,4368,-3678,2895,109,-504,1624,28,48,901
244608,2440264,2540516,2445180,2543484,2542,1426,4249,-3730,3026,443,19,1539,23,52,900
245610,2440404,2540832,2445377,2543681,2618,1225,4074,-3857,3134,707,563,1024,23,52,900
246611,2440544,2541092,2445574,2543878,2643,1547,3855,-4035,3183,954,1051,952,27,43,898
247612,2440680,2541376,2445771,2544075,2696,1360,3586,-4146,3189,1171,1463,1126,27,43,898
248612,2440796,2541540,2445968,2544272,2857,2125,3249,-4193,3147,1411,1941,1207,23,34,901
249613,2440952,2541648,2446165,2544469,2626,2514,2807,-4108,3043,1422,2370,1830,23,34,901
250614,2441144,2541720,2446362,2544666,2405,2795,2247,-3815,2817,1186,3173,2284,34,22,900
251615,2441312,2541800,2446559,2544863,2568,2797,1603,-3497,2442,900,3798,2139,34,22,900
252616,2441508,2541852,2446756,2545060,2395,3036,895,-3144,1960,684,3954,2302,30,18,892
253618,2441648,2541924,2446953,2545257,2771,2966,184,-2826,1427,554,3999,2077,30,18,892
254619,2441820,2541984,2447150,2545454,2583,3102,-545,-2416,884,552,4062,2682,46,23,892
255620,2441992,2542100,2447347,2545651,2595,2789,-1448,-1557,370,910,4434,4480,46,23,892
256620,2442144,2542240,2447544,2545848,2741,2664,-2678,-77,1,1658,4448,6128,30,14,888
257622,2442296,2542416,2447741,2546045,2761,2449,-3669,913,-423,1435,5052,3216,30,14,888
258622,2442444,2542644,2447938,2546242,2810,2112,-4253,1117,-903,1419,4351,2117,40,42,890
259632,2442584,2542916,2448168,2546472,2900,1818,-4631,1094,-1185,1738,2141,2177,40,42,890
260624,2442744,2543108,2448365,2546669,2793,2321,-4923,1106,-1267,1850,1166,2111,25,60,893
261625,2442896,2543408,2448562,2546866,2863,1602,-5094,972,-1248,2055,1057,1449,25,60,893
262627,2443052,2543740,2448759,2547063,2857,1343,-5166,639,-1167,2351,885,1021,39,69,896
263628,2443196,2544016,2448956,2547260,2957,1659,-5142,217,-1017,2463,744,910,39,69,896
264629,2443360,2544300,2449153,2547457,2847,1572,-5044,-180,-798,2408,328,1212,45,63,897
265629,2443520,2544616,2449350,2547654,2890,1320,-4925,-449,-536,2232,-203,1665,45,63,897
266631,2443692,2544916,2449547,2547851,2826,1375,-4841,-414,-266,1787,-490,2881,27,64,897
267631,2443884,2545208,2449744,2548048,2705,1384,-4893,200,-43,1345,-517,4910,27,64,897
268632,2444080,2545436,2449941,2548245,2681,1771,-5014,1156,99,976,-493,5649,52,54,898
269634,2444260,2545724,2450138,2548442,2791,1356,-4982,2302,101,533,140,6774,52,54,898
270634,2444480,2546024,2450335,2548639,2531,1237,-3086,6852,113,830,485,32767,39,48,900
271636,2444688,2546332,2450532,2548836,2603,1138,-230,12932,86,709,697,32767,39,48,900
272636,2444876,2546656,2450729,2549033,2733,983,1006,15055,-152,760,1787,3907,53,64,900
273637,2445112,2546960,2450926,2549230,2416,1061,715,14247,-440,1292,1819,2651,53,64,900
274638,2445328,2547292,2451123,2549427,2534,828,198,12976,-705,2012,1407,1587,38,50,902
275639,2445540,2547596,2451320,2549624,2554,956,-115,12132,-922,1895,1590,1286,38,50,902
276640,2445756,2547868,2451517,2549821,2521,1124,-133,11163,-1199,1731,2159,-707,45,53,903
277641,2446020,2548136,2451714,2550018,2193,1118,-313,8876,-1907,1602,1587,-324,45,53,903
278642,2446244,2548408,2451911,2550215,2432,1060,-545,7839,-2138,1438,1064,289,56,46,902
279644,2446452,2548692,2452108,2550412,2529,947,-825,7040,-2381,1194,1326,699,56,46,902
280644,2446696,2548932,2452305,2550609,2284,1203,-1147,6200,-2637,592,1734,825,53,55,904
281645,2446924,2549156,2452502,2550806,2372,1292,-1456,5728,-2938,466,1643,1873,53,55,904
282646,2447124,2549364,2452699,2551003,2546,1388,-1772,5396,-3156,96,931,2307,38,53,904
283647,2447364,2549556,2452896,2551200,2279,1490,-2044,5415,-3165,-354,-66,3804,38,53,904
284648,2447604,2549724,2453093,2551397,2261,1653,-2319,5722,-3061,-564,-592,4362,45,34,903
285650,2447848,2549928,2453290,2551594,2216,1426,-2555,6098,-2966,-1214,-645,4592,45,34,903
286650,2448064,2550116,2453487,2551791,2384,1530,-2793,6507,-2954,-2017,-210,4971,58,31,903
287652,2448292,2550296,2453684,2551988,2296,1587,-3048,6789,-3109,-2584,254,4560,58,31,903
288652,2448504,2550436,2453881,2552185,2390,1863,-3337,7107,-3350,-3232,-61,5130,33,33,903
289654,2448708,2550576,2454078,2552382,2438,1888,-3596,7514,-3550,-3971,-755,5000,33,33,903
290654,2448908,2550708,2454275,2552579,2463,1967,-3789,7600,-3735,-4452,-1223,4199,49,35,900
291656,2449108,2550796,2454472,2552776,2463,2291,-3930,7495,-3917,-4774,-1443,3983,49,35,900
292656,2449328,2550900,2454669,2552973,2329,2231,-4059,7272,-4083,-5000,-1669,3655,32,17,899
293657,2449524,2551016,2454866,2553170,2480,2192,-4122,6880,-4238,-5305,-2287,3470,32,17,899
294658,2449732,2551116,2455063,2553367,2401,2336,-1820,6456,-3871,-9798,-8056,25185,34,11,896
295659,2449944,2551220,2455260,2553564,2371,2352,3103,6459,-2850,-12168,-12397,32767,34,11,896
296660,2450132,2551328,2455457,2553761,2526,2367,5335,5856,-2298,-5840,-4420,5616,50,15,896
297661,2450332,2551408,2455654,2553958,2450,2593,4831,4586,-2210,-4748,-3026,1190,50,15,896
298662,2450560,2551520,2455851,2554155,2263,2431,3769,2782,-2239,-4464,-2927,-138,31,17,896
299663,2450764,2551648,2456048,2554352,2411,2362,3222,906,-2187,-4142,-2533,-271,31,17,896
300664,2450988,2551780,2456245,2554549,2275,2366,3068,-1030,-2049,-3791,-2403,-964,37,16,893
301665,2451212,2551896,2456442,2554746,2264,2502,2952,-2906,-1876,-3272,-2455,-1039,37,16,893
302666,2451436,2552008,2456639,2554943,2253,2565,2721,-4663,-1682,-2862,-2359,-746,43,18,895
303668,2451656,2552116,2456836,2555140,2269,2629,2398,-6187,-1435,-2353,-2454,-119,43,18,895
304669,2451892,2552200,2457033,2555337,2153,2830,1986,-7259,-1154,-1949,-2267,1133,39,15,896
305670,2452124,2552316,2457230,2555534,2163,2666,1571,-7863,-859,-1512,-1952,2122,39,15,896
306670,2452380,2552424,2457427,2555731,1988,2756,1225,-8389,-561,-1339,-1841,1941,55,21,895
307672,2452636,2552536,2457624,2555928,1963,2769,930,-9000,-298,-1230,-1540,2078,55,21,895
308672,2452904,2552696,2457821,2556125,1858,2485,599,-9426,-79,-1026,-1263,2944,38,34,895
309674,2453152,2552840,2458018,2556322,1962,2610,248,-9579,114,-825,-1201,3457,38,34,895
310675,2453432,2552996,2458215,2556519,1726,2554,-78,-9637,294,-706,-1093,3544,47,32,895
311676,2453728,2553176,2458412,2556716,1584,2411,-344,-9680,480,-636,-1015,3679,47,32,895
312677,2453996,2553336,2458609,2556913,1729,2553,-574,-9555,648,-273,-719,4200,49,30,895
313678,2454268,2553484,2458806,2557110,1672,2651,-781,-9392,771,9,-310,4034,49,30,895
314678,2454572,2553636,2459003,2557307,1425,2646,-947,-9226,858,219,1,3882,58,42,901
315679,2454832,2553804,2459200,2557504,1673,2559,-1054,-9167,906,549,288,3609,58,42,901
316680,2455136,2553996,2459397,2557701,1352,2413,-1123,-9126,921,877,621,3578,66,31,899
317681,2455428,2554172,2459594,2557898,1386,2522,-1153,-9027,902,1055,824,3612,66,31,899
318682,2455700,2554324,2459791,2558095,1479,2693,-1131,-8919,848,1205,890,3361,65,31,900
319683,2455968,2554484,2459988,2558292,1474,2660,-1061,-8862,770,1401,904,3251,65,31,900
320684,2456260,2554636,2460185,2558489,1282,2731,-948,-8763,708,1690,619,3221,50,25,901
321686,2456540,2554780,2460382,2558686,1322,2804,-796,-8625,674,1851,469,3068,50,25,901
322686,2456820,2554924,2460579,2558883,1286,2828,-592,-8477,631,1803,559,3087,61,27,898
323687,2457124,2555048,2460776,2559080,1089,2986,-343,-8355,542,1773,677,2904,61,27,898
324688,2457384,2555176,2460973,2559277,1338,2993,-88,-8200,387,1803,832,2957,55,38,898
325689,2457636,2555324,2461170,2559474,1365,2889,176,-7910,200,1740,969,3084,55,38,898
326690,2457896,2555464,2461367,2559671,1288,2965,448,-7585,-9,1626,1002,3172,61,39,899
327691,2458184,2555640,2461564,2559868,1073,2751,740,-7162,-232,1527,879,3287,61,39,899
328692,2458452,2555788,2461761,2560065,1168,2948,1038,-6694,-430,1364,637,3312,58,31,898
329693,2458692,2555944,2461958,2560262,1324,2917,1340,-6133,-598,1266,270,3378,58,31,898
330694,2458968,2556084,2462155,2560459,1065,3042,1623,-5564,-744,1032,-75,3218,44,40,901
331695,2459204,2556228,2462352,2560656,1299,3041,1903,-5029,-884,718,-320,3168,44,40,901
332696,2459464,2556400,2462549,2560853,1121,2878,2157,-4473,-1021,717,-611,3144,57,39,898
333698,2459684,2556576,2462746,2561050,1362,2864,2383,-3851,-1118,679,-901,3146,57,39,898
334698,2459928,2556728,2462943,2561247,1191,3034,2557,-3217,-1173,641,-1165,3093,60,40,896
335699,2460196,2556896,2463140,2561444,1011,2948,2712,-2647,-1203,689,-1292,2871,60,40,896
336701,2460456,2557076,2463337,2561641,1035,2881,2842,-2133,-1234,800,-1279,2519,58,26,898
337701,2460684,2557232,2463534,2561838,1221,3050,2928,-1692,-1265,868,-1323,2275,58,26,898
338702,2460952,2557416,2463731,2562035,941,2881,2958,-1322,-1275,944,-1433,1950,60,32,899
339703,2461192,2557612,2463928,2562232,1097,2808,2929,-1060,-1273,1070,-1448,1723,60,32,899
340704,2461464,2557780,2464125,2562429,865,2997,2853,-829,-1256,1195,-1476,1386,44,40,898
341706,2461716,2558008,2464322,2562626,966,2609,2744,-725,-1236,1335,-1459,1000,44,40,898
342713,2462004,2558252,2464552,2562856,716,2504,2603,-701,-1224,1472,-1306,773,61,36,899
343707,2462288,2558468,2464749,2563053,703,2671,2431,-757,-1222,1606,-1068,522,61,36,899
344709,2462512,2558672,2464946,2563250,1067,2743,2233,-930,-1243,1763,-673,268,57,53,901
345709,2462824,2558876,2465143,2563447,467,2741,1994,-1117,-1302,1846,-240,205,57,53,901
346711,2463060,2559100,2465340,2563644,925,2605,1709,-1282,-1377,1910,-9,267,48,37,902
347711,2463288,2559328,2465537,2563841,962,2568,1382,-1496,-1446,1975,124,218,48,37,902
348712,2463544,2559580,2465734,2564038,761,2395,1028,-1723,-1472,2053,59,240,46,55,903
349714,2463768,2559840,2465931,2564235,950,2318,678,-1869,-1461,2010,4,360,46,55,903
350714,2464004,2560048,2466128,2564432,858,2639,331,-2042,-1447,2038,148,414,57,41,903
351715,2464208,2560256,2466325,2564629,1056,2634,-2,-2274,-1448,2174,438,433,57,41,903
352717,2464440,2560500,2466522,2564826,865,2390,-317,-2356,-1432,2176,655,819,37,55,905
353718,2464624,2560724,2466719,2565023,1171,2504,-641,-2327,-1378,2202,699,1267,37,55,905
354718,2464836,2560972,2466916,2565220,991,2332,-989,-2201,-1279,2252,634,1737,51,53,902
355719,2465060,2561208,2467113,2565417,904,2391,-1347,-1964,-1124,2216,621,2180,51,53,902
356720,2465244,2561448,2467310,2565614,1160,2348,-1695,-1682,-953,2225,690,2264,31,49,901
357722,2465440,2561672,2467507,2565811,1086,2436,-2019,-1426,-771,2235,647,2335,31,49,901
358723,2465636,2561904,2467704,2566008,1086,2372,-2328,-1268,-554,2250,639,2228,29,41,904
359723,2465812,2562176,2467901,2566205,1222,2090,-2622,-1218,-333,2396,675,1946,29,41,904
360724,2465988,2562356,2468098,2566402,1231,2674,-2904,-1245,-115,2420,697,1998,49,36,903
361725,2466176,2562540,2468295,2566599,1161,2654,-3171,-1237,121,2378,665,2159,49,36,903
362726,2466352,2562724,2468492,2566796,1245,2661,-3428,-1366,358,2522,594,1927,48,43,905
363727,2466516,2562884,2468689,2566993,1334,2828,-3660,-1471,619,2635,572,2140,48,43,905
364728,2466668,2563088,2468886,2567190,1430,2551,-3892,-1493,918,2633,424,2482,24,35,901
365729,2466844,2563268,2469083,2567387,1289,2710,-4103,-1559,1200,2532,199,2402,24,35,901
366730,2467016,2563448,2469280,2567584,1326,2717,-4287,-1638,1464,2277,-139,2700,21,44,898
367731,2467188,2563616,2469477,2567781,1337,2806,-4440,-1656,1723,1907,-483,2962,21,44,898
368732,2467352,2563788,2469674,2567978,1403,2793,-4595,-1590,1981,1606,-815,3405,27,35,898
369734,2467496,2563972,2469871,2568175,1551,2725,-4723,-1577,2223,1333,-850,3247,27,35,898
370734,2467668,2564136,2470068,2568372,1387,2865,-4843,-1560,2431,1322,-791,3594,28,24,899
371735,2467828,2564264,2470265,2568569,1479,3120,-4927,-1587,2569,1333,-552,3534,28,24,899
372736,2468012,2564440,2470462,2568766,1335,2831,-4904,-1629,2645,1296,-353,4427,42,24,899
373738,2468204,2564616,2470659,2568963,1288,2841,-2305,2978,2599,4841,665,32767,42,24,899
374739,2468368,2564772,2470856,2569160,1478,2985,2160,11276,2387,5316,903,32767,47,39,895
375739,2468548,2564944,2471053,2569357,1386,2897,4244,14044,2259,1792,35,3917,47,39,895
376740,2468704,2565116,2471250,2569554,1554,2908,3828,11909,2176,1614,1052,-675,35,36,899
377742,2468872,2565272,2471447,2569751,1493,3027,2904,8603,1914,2008,1497,-1875,35,36,899
378742,2469060,2565408,2471644,2569948,1372,3180,2185,6426,1626,1971,1626,-613,35,32,897
379743,2469232,2565584,2471841,2570145,1484,2940,1769,4941,1407,1510,1403,-796,35,32,897
380744,2469432,2565728,2472038,2570342,1308,3164,1245,3602,1111,1266,976,-534,39,26,896
381746,2469628,2565920,2472235,2570539,1334,2867,652,2053,809,449,798,-617,39,26,896
382746,2469808,2566068,2472432,2570736,1442,3165,67,501,558,-10,249,45,44,35,897
383747,2470024,2566212,2472629,2570933,1209,3214,-578,-835,297,-250,23,619,44,35,897
384748,2470188,2566352,2472826,2571130,1549,3264,-1213,-2072,93,-1042,184,713,45,22,898
385750,2470372,2566504,2473023,2571327,1430,3210,-1813,-3110,-72,-1190,-251,1468,45,22,898
386750,2470576,2566644,2473220,2571524,1302,3311,-2277,-4075,-153,-1305,-539,1668,38,19,895
387751,2470780,2566792,2473417,2571721,1300,3284,-2638,-4812,-90,-1679,-671,2905,38,19,895
388752,2470976,2566932,2473614,2571918,1351,3360,-2871,-5314,29,-1822,-945,3246,32,22,893
389754,2471180,2567080,2473811,2572115,1299,3332,-2299,-4858,332,-2429,-2230,13779,32,22,893
390754,2471368,2567248,2474008,2572312,1403,3221,52,-589,1039,-3710,-4080,32767,29,38,893
391755,2471548,2567412,2474205,2572509,1461,3261,2004,2157,1591,-2597,-1766,14612,29,38,893
392756,2471756,2567572,2474402,2572706,1281,3304,2282,1722,1836,-2455,-567,2456,30,24,894
393757,2471940,2567740,2474599,2572903,1438,3267,1774,-181,1963,-2246,-466,1521,30,24,894
394758,2472124,2567908,2474796,2573100,1444,3281,1299,-1691,2146,-1630,-575,2087,32,34,894
395759,2472312,2568064,2474993,2573297,1424,3375,1063,-2451,2486,-1624,-412,2810,32,34,894
396760,2472496,2568220,2475190,2573494,1454,3394,903,-2909,2870,-1331,-344,3314,47,24,894
397762,2472660,2568388,2475387,2573691,1595,3333,692,-3259,3178,-1086,12,3590,47,24,894
398762,2472828,2568580,2475584,2573888,1583,3186,487,-3781,3423,-1128,589,3371,45,25,894
399763,2472984,2568740,2475781,2574085,1677,3403,321,-4292,3543,-810,920,3425,45,25,894
400764,2473120,2568900,2475978,2574282,1828,3421,192,-4871,3583,-856,933,3317,31,23,889
401766,2473288,2569076,2476175,2574479,1642,3331,96,-5239,3634,-1055,458,4103,31,23,889
402767,2473460,2569224,2476372,2574676,1628,3528,-16,-5449,3705,-926,-115,4322,36,36,892
403767,2473628,2569392,2476569,2574873,1667,3417,-102,-5630,3769,-819,-87,4381,36,36,892
404768,2473788,2569556,2476766,2575070,1734,3458,-162,-5650,3804,-596,148,4767,36,32,893
405769,2473972,2569720,2476963,2575267,1590,3473,-188,-5720,3782,-256,324,4470,36,32,893
406770,2474136,2569908,2477160,2575464,1730,3328,-202,-5712,3747,-228,231,4928,29,33,892
407771,2474320,2570068,2477357,2575661,1611,3520,-186,-5707,3723,-332,199,4705,29,33,892
408772,2474480,2570248,2477554,2575858,1778,3404,-131,-5797,3676,-305,104,4473,48,39,889
409773,2474664,2570436,2477751,2576055,1634,3359,-24,-5836,3621,-381,88,4422,48,39,889
410774,2474804,2570604,2477948,2576252,1935,3498,145,-5961,3570,-345,75,4065,35,39,888
411775,2474972,2570796,2478145,2576449,1774,3352,341,-6100,3499,-243,52,4006,35,39,888
412776,2475116,2570956,2478342,2576646,1947,3569,522,-6131,3495,-444,-574,4610,28,28,891
413777,2475276,2571144,2478539,2576843,1864,3399,660,-5947,3560,-510,-976,4976,28,28,891
414778,2475448,2571396,2478736,2577040,1800,2976,795,-5764,3608,-513,-915,4637,41,44,892
415779,2475604,2571680,2478933,2577237,1919,2739,996,-5717,3588,-580,-481,4142,41,44,892
416780,2475772,2571940,2479130,2577434,1858,2862,1228,-5707,3511,-433,-352,4093,46,59,890
417781,2475940,2572176,2479327,2577631,1871,2996,1453,-5664,3431,-231,-194,4154,46,59,890
418782,2476092,2572428,2479524,2577828,1992,2873,1603,-5377,3400,-78,-42,4909,28,56,896
419783,2476232,2572744,2479721,2578025,2093,2421,1654,-4880,3404,15,-365,5309,28,56,896
420784,2476388,2573044,2479918,2578222,2011,2477,1663,-4347,3371,-17,-276,5165,38,43,895
421785,2476544,2573320,2480115,2578419,2030,2593,1693,-3931,3273,23,-47,4722,38,43,895
422786,2476692,2573612,2480312,2578616,2102,2453,1717,-3642,3159,483,-35,4457,42,53,897
423787,2476848,2573932,2480509,2578813,2070,2224,1722,-3381,3072,882,57,4287,42,53,897
424788,2477008,2574260,2480706,2579010,2063,2118,1700,-3160,3035,1211,-127,3927,27,65,897
425796,2477180,2574600,2480936,2579240,2014,1996,1684,-3075,3019,1355,-375,3408,27,65,897
426790,2477372,2574896,2481133,2579437,1891,2228,1702,-3053,3019,1161,-646,3076,38,65,899
427791,2477560,2575164,2481330,2579634,1921,2373,1748,-3108,3014,881,-902,2802,38,65,899
428792,2477724,2575480,2481527,2579831,2087,2021,1834,-3282,2980,935,-819,2316,29,65,901
429793,2477900,2575812,2481724,2580028,2022,1862,1953,-3432,2951,1292,-707,2196,29,65,901
430794,2478068,2576164,2481921,2580225,2085,1670,2068,-3516,2954,1651,-834,2276,41,68,900
431795,2478244,2576440,2482118,2580422,2045,2111,2172,-3551,2947,1706,-737,2204,41,68,900
432796,2478456,2576756,2482315,2580619,1814,1810,2294,-3512,2897,1406,-414,2349,43,51,901
433797,2478688,2577100,2482512,2580816,1675,1571,2424,-3332,2823,1078,-394,2691,43,51,901
434799,2478892,2577424,2482709,2581013,1847,1641,2513,-2854,2786,914,-728,3550,48,63,900
435800,2479076,2577736,2482906,2581210,1979,1666,2574,-2179,2813,770,-679,3768,48,63,900
436801,2479276,2578108,2483103,2581407,1878,1214,2639,-1499,2813,875,-175,3616,53,58,906
437802,2479468,2578480,2483300,2581604,1930,1138,2724,-889,2741,1092,241,3552,53,58,906
438803,2479704,2578832,2483497,2581801,1639,1196,2820,-261,2654,1264,358,3539,33,66,904
439804,2479932,2579116,2483694,2581998,1677,1583,2918,435,2594,1284,359,3453,33,66,904
440805,2480128,2579456,2483891,2582195,1878,1171,3001,1120,2572,1071,115,3456,40,70,906
441806,2480356,2579840,2484088,2582392,1665,814,3064,1872,2570,930,75,3447,40,70,906
442807,2480576,2580172,2484285,2582589,1705,1081,3100,2541,2527,950,171,2949,37,63,906
443808,2480816,2580488,2484482,2582786,1563,1128,3103,3093,2460,1287,200,2598,37,63,906
444809,2481040,2580776,2484679,2582983,1651,1264,3083,3517,2392,1597,351,2166,40,69,908
445810,2481276,2581120,2484876,2583180,1560,850,3045,3862,2307,1668,269,1834,40,69,908
446811,2481504,2581468,2485073,2583377,1597,758,3011,4186,2282,1624,29,1664,38,53,909
447812,2481720,2581844,2485270,2583574,1665,506,2983,4412,2276,1556,17,1244,38,53,909
448812,2481956,2582140,2485467,2583771,1522,962,2936,4550,2254,1668,129,859,57,70,909
449814,2482180,2582464,2485664,2583968,1587,731,2865,4562,2172,1827,303,246,57,70,909
450814,2482412,2582804,2485861,2584165,1522,570,2784,4368,2054,1955,166,-166,38,64,910
451816,2482652,2583100,2486058,2584362,1453,801,2678,4186,1960,1839,-193,-28,38,64,910
452816,2482884,2583408,2486255,2584559,1489,677,2552,4077,1911,1649,-417,10,42,51,909
453818,2483096,2583672,2486452,2584756,1607,923,2413,3980,1826,1571,-44,-237,42,51,909
454819,2483336,2583968,2486649,2584953,1414,680,2257,3855,1682,1564,278,-289,42,48,909
455820,2483528,2584236,2486846,2585150,1718,824,2073,3817,1549,1620,208,-14,42,48,909
456821,2483768,2584492,2487043,2585347,1399,873,1862,3904,1465,1561,78,331,48,52,908
457822,2484040,2584760,2487240,2585544,1167,767,1633,4089,1392,1248,201,613,48,52,908
458823,2484256,2584956,2487437,2585741,1509,1217,1368,4368,1232,869,681,627,55,56,909
459823,2484488,2585180,2487634,2585938,1394,1031,1071,4528,973,694,997,129,55,56,909
460824,2484688,2585428,2487831,2586135,1594,859,738,4616,675,778,1151,61,53,41,912
461826,2484904,2585648,2488028,2586332,1485,1024,339,4759,426,914,991,434,53,41,912
462826,2485124,2585848,2488225,2586529,1451,1148,-75,4949,181,655,900,225,55,40,909
463828,2485392,2586060,2488422,2586726,1121,1066,-481,4971,-141,190,896,-206,55,40,909
464828,2485640,2586220,2488619,2586923,1224,1407,-882,4846,-523,-107,902,-472,54,32,910
465830,2485856,2586400,2488816,2587120,1416,1290,-1334,4628,-917,-208,803,-523,54,32,910
466830,2486064,2586588,2489013,2587317,1461,1244,-1824,4400,-1333,-361,906,-720,52,47,910
467832,2486256,2586804,2489210,2587514,1565,1061,-2344,4207,-1725,-631,494,-415,52,47,910
468833,2486468,2587040,2489407,2587711,1433,919,-2887,4115,-2079,-808,48,-128,43,46,908
469834,2486708,2587236,2489604,2587908,1240,1170,-3397,3870,-2428,-897,339,-616,43,46,908
470835,2486976,2587432,2489801,2588105,1035,1170,-3862,3417,-2790,-1035,734,-952,36,45,909
471836,2487196,2587596,2489998,2588302,1325,1385,-4276,2804,-3166,-1234,835,-1226,36,45,909
472837,2487404,2587808,2490195,2588499,1396,1078,-4652,2121,-3517,-1236,608,-1281,52,47,910
473838,2487632,2588048,2490392,2588696,1257,884,-5037,1525,-3768,-1190,86,-845,52,47,910
474839,2487876,2588272,2490589,2588893,1138,972,-5414,1054,-3889,-1174,-660,-285,46,47,908
475840,2488112,2588508,2490786,2589090,1171,881,-5748,635,-3930,-1207,-1224,-36,46,47,908
476840,2488308,2588700,2490983,2589287,1422,1158,-6039,140,-3898,-1247,-1681,190,47,30,910
477842,2488512,2588884,2491180,2589484,1369,1214,-6314,-400,-3783,-1134,-1975,364,47,30,910
478843,2488672,2589032,2491377,2589681,1661,1461,-6591,-932,-3609,-842,-2324,580,31,40,910
479844,2488840,2589212,2491574,2589878,1624,1268,-6859,-1384,-3418,-782,-2475,1077,31,40,910
480845,2489004,2589444,2491771,2590075,1664,928,-7082,-1908,-3264,-609,-2220,999,40,34,909
481846,2489204,2589644,2491968,2590272,1438,1126,-7237,-2573,-3140,-136,-2175,691,40,34,909
482846,2489384,2589848,2492165,2590469,1572,1098,-7355,-3356,-3004,236,-2259,899,46,43,907
483848,2489536,2590044,2492362,2590666,1766,1149,-7508,-3980,-2848,492,-2343,1733,46,43,907
484848,2489728,2590216,2492559,2590863,1520,1311,-7714,-4500,-2701,846,-2060,2135,32,25,909
485850,2489872,2590412,2492756,2591060,1843,1161,-7901,-5089,-2606,1063,-1845,1750,32,25,909
486851,2490060,2590560,2492953,2591257,1573,1483,-8037,-5737,-2528,1264,-2230,2041,42,35,907
487852,2490260,2590760,2493150,2591454,1498,1156,-8168,-6294,-2451,1609,-2321,2971,42,35,907
488853,2490452,2590948,2493347,2591651,1550,1235,-8297,-6606,-2329,1847,-2694,3808,47,41,905
489854,2490684,2591104,2493544,2591848,1285,1453,-8333,-6915,-2088,2161,-3107,3725,47,41,905
490855,2490860,2591276,2493741,2592045,1645,1364,-4877,-1697,-1817,8454,-5382,32767,31,37,908
491856,2490968,2591404,2493938,2592242,2110,1670,2916,13219,-1634,12732,-10134,32767,31,37,908
492856,2491192,2591556,2494135,2592439,1373,1541,7196,19183,-1289,5402,-4067,5809,22,29,908
493857,2491348,2591680,2494332,2592636,1817,1748,6948,16588,-753,5066,-2877,-1778,22,29,908
494858,2491516,2591788,2494529,2592833,1755,1887,5336,11239,-339,5294,-3462,-4560,43,19,902
495859,2491672,2591928,2494726,2593030,1849,1712,4305,7178,-95,4815,-3559,-4399,43,19,902
496860,2491856,2592036,2494923,2593227,1680,1951,3807,4455,153,4300,-3567,-3503,21,34,903
497861,2492032,2592196,2495120,2593424,1740,1643,3258,2497,376,4369,-3413,-2676,21,34,903
498862,2492232,2592364,2495317,2593621,1589,1606,2147,1100,553,4030,-3354,321,43,34,902
499863,2492380,2592500,2495514,2593818,1936,1833,1022,-170,792,3718,-2758,83,43,34,902
500865,2492564,2592636,2495711,2594015,1717,1860,34,-1424,980,3343,-1905,1065,25,32,903
501866,2492752,2592760,2495908,2594212,1697,1968,-720,-2567,966,2122,-573,1728,25,32,903
502867,2492944,2592884,2496105,2594409,1675,2000,-1415,-3410,760,1366,257,2412,30,17,902
503868,2493124,2592992,2496302,2594606,1758,2139,-1942,-4147,461,976,431,2231,30,17,902
504869,2493304,2593120,2496499,2594803,1766,2044,-2330,-4837,194,298,566,2806,46,17,903
505870,2493456,2593216,2496696,2595000,1961,2289,-2580,-5400,-97,-241,793,2858,46,17,903
506871,2493632,2593392,2496893,2595197,1822,1799,-2730,-5850,-523,-591,1002,3350,47,30,901
507871,2493840,2593532,2497090,2595394,1617,2049,-2803,-6021,-1033,-1183,661,4266,47,30,901
508880,2494072,2593660,2497320,2595624,1467,2170,-2853,-5893,-1523,-1593,-15,5217,48,23,899
509874,2494284,2593808,2497517,2595821,1585,2066,-2924,-5250,-1879,-1722,-817,6773,48,23,899
510875,2494508,2593912,2497714,2596018,1499,2383,-3035,-4160,-1997,-2060,-1664,7875,46,26,901
511876,2494752,2594048,2497911,2596215,1355,2210,-3062,-3087,-2030,-2686,-1457,7502,46,26,901
512877,2495016,2594160,2498108,2596412,1200,2397,-2951,-2310,-2087,-3197,-1070,6895,47,17,902
513878,2495224,2594252,2498305,2596609,1546,2569,-2663,-1593,-2132,-3236,-1107,7625,47,17,902
514878,2495468,2594380,2498502,2596806,1301,2375,-1604,532,-1929,-3503,-2733,20762,54,19,903
515879,2495672,2594496,2498699,2597003,1549,2486,-241,2922,-1612,-2842,-2333,16800,54,19,903
516880,2495932,2594616,2498896,2597200,1172,2495,385,3434,-1403,-1546,-1066,4294,55,29,899
517882,2496184,2594740,2499093,2597397,1198,2503,440,2661,-1236,-505,-1096,2997,55,29,899
518883,2496392,2594868,2499290,2597594,1469,2508,339,1675,-959,396,-1522,2450,40,36,900
519884,2496620,2595008,2499487,2597791,1330,2459,283,939,-608,854,-1155,2229,40,36,900
520885,2496868,2595144,2499684,2597988,1184,2511,329,-9,-344,1181,-414,913,46,17,901
521886,2497060,2595276,2499881,2598185,1536,2566,428,-1129,-103,1588,-894,481,46,17,901
522887,2497272,2595428,2500078,2598382,1406,2461,569,-2364,144,1673,-784,352,34,17,900
523887,2497476,2595576,2500275,2598579,1453,2508,620,-3297,422,1615,-1524,1577,34,17,900
524889,2497684,2595708,2500472,2598776,1424,2637,591,-3887,767,1412,-2277,2293,41,28,899
525890,2497868,2595876,2500669,2598973,1579,2425,536,-4342,1091,1212,-2179,2454,41,28,899
526890,2498068,2596060,2500866,2599170,1479,2332,496,-4723,1298,1216,-1928,2773,44,33,900
527892,2498228,2596252,2501063,2599367,1745,2284,451,-4984,1455,1275,-1884,3283,44,33,900
528892,2498396,2596488,2501260,2599564,1709,1993,413,-5087,1608,1575,-1424,3689,23,34,900
529894,2498584,2596696,2501457,2599761,1589,2163,412,-5045,1735,1758,-1120,3781,23,34,900
530894,2498736,2596904,2501654,2599958,1834,2160,446,-4890,1809,1586,-841,4298,23,32,900
531895,2498892,2597120,2501851,2600155,1828,2102,480,-4573,1847,1308,-755,5004,23,32,900
532897,2499076,2597316,2502048,2600352,1659,2228,515,-4133,1859,1045,-594,5299,38,33,901
533898,2499240,2597528,2502245,2600549,1799,2122,569,-3534,1843,827,-263,5700,38,33,901
534899,2499388,2597716,2502442,2600746,1921,2276,642,-2831,1786,635,123,5794,32,36,901
535900,2499564,2597948,2502639,2600943,1756,1987,715,-2103,1685,481,346,5893,32,36,901
536901,2499720,2598152,2502836,2601140,1900,2159,794,-1392,1570,425,462,5719,20,42,901
537901,2499896,2598388,2503033,2601337,1784,1942,893,-849,1474,621,486,5209,20,42,901
538902,2500052,2598624,2503230,2601534,1928,1926,1007,-421,1410,891,363,4738,37,39,902
539903,2500192,2598888,2503427,2601731,2053,1722,1135,-199,1390,909,99,4108,37,39,902
540904,2500324,2599088,2503624,2601928,2133,2122,1268,-115,1388,954,-235,3646,18,46,902
541906,2500468,2599308,2503821,2602125,2082,1986,1383,-140,1405,1092,-379,3067,18,46,902
542906,2500640,2599528,2504018,2602322,1918,1977,1476,-294,1454,1292,-589,2773,25,32,900
543907,2500780,2599728,2504215,2602519,2144,2101,1549,-497,1535,1460,-770,2599,25,32,900
544908,2500944,2599956,2504412,2602716,2010,1913,1617,-809,1622,1383,-583,2066,42,40,899
545910,2501108,2600136,2504609,2602913,2024,2221,1653,-1139,1658,1350,-206,1966,42,40,899
546910,2501276,2600316,2504806,2603110,2013,2229,1652,-1535,1644,1350,-161,1804,23,48,899
547911,2501440,2600484,2505003,2603307,2053,2317,1610,-1879,1617,1408,-314,1887,23,48,899
548912,2501616,2600684,2505200,2603504,1988,2117,1527,-2124,1590,1304,-393,2069,42,48,898
549914,2501776,2600884,2505397,2603701,2105,2115,1435,-2319,1512,1083,-151,2149,42,48,898
550915,2501956,2601108,2505594,2603898,1988,1955,1323,-2441,1400,1010,-172,2326,33,36,898
551915,2502128,2601304,2505791,2604095,2049,2131,1231,-2524,1289,907,65,2410,33,36,898
552916,2502288,2601464,2505988,2604292,2141,2372,1095,-2472,1236,819,-243,3030,41,43,900
553918,2502436,2601656,2506185,2604489,2239,2175,898,-2266,1300,655,-713,3198,41,43,900
554918,2502604,2601856,2506382,2604686,2127,2124,693,-2003,1453,473,-839,3401,19,30,898
555919,2502764,2602076,2506579,2604883,2194,1990,535,-1667,1644,273,-871,3666,19,30,898
556920,2502924,2602296,2506776,2605080,2211,1980,440,-1387,1802,92,-711,3568,41,32,897
557922,2503112,2602480,2506973,2605277,2041,2212,395,-1045,1938,31,-608,3711,41,32,897
558923,2503264,2602676,2507170,2605474,2286,2137,379,-698,2095,10,-598,4053,31,45,899
559924,2503452,2602892,2507367,2605671,2066,2005,387,-293,2256,51,-479,4119,31,45,899
560924,2503668,2603112,2507564,2605868,1884,1970,425,99,2390,79,-396,3950,47,49,899
561925,2503844,2603324,2507761,2606065,2144,2014,485,409,2515,49,-341,3733,47,49,899
562926,2504000,2603524,2507958,2606262,2287,2088,530,635,2629,55,-349,3614,25,32,900
563927,2504172,2603760,2508155,2606459,2199,1847,520,714,2727,-54,-215,3370,25,32,900
564928,2504336,2603956,2508352,2606656,2264,2097,453,824,2806,-198,-78,3436,28,31,898
565930,2504496,2604144,2508549,2606853,2307,2152,370,904,2859,-320,-117,3295,28,31,898
566931,2504656,2604376,2508746,2607050,2323,1862,304,968,2891,-391,-306,3240,38,34,899
567932,2504852,2604624,2508943,2607247,2099,1740,243,1051,2920,-411,-459,3267,38,34,899
568933,2505008,2604860,2509140,2607444,2368,1798,173,1068,2929,-473,-423,3098,39,54,898
569934,2505184,2605100,2509337,2607641,2254,1755,75,1078,2918,-469,-464,3290,39,54,898
570935,2505344,2605340,2509534,2607838,2370,1736,-49,1140,2894,-474,-437,3396,23,55,902
571936,2505520,2605552,2509731,2608035,2280,1906,-201,1167,2852,-479,-170,3333,23,55,902
572936,2505644,2605808,2509928,2608232,2638,1605,-383,1173,2756,-556,48,3365,24,47,900
573938,2505820,2606060,2510125,2608429,2323,1607,-574,1134,2584,-595,302,3165,24,47,900
574939,2505972,2606304,2510322,2608626,2494,1636,-749,1034,2342,-572,573,2983,23,48,900
575940,2506100,2606540,2510519,2608823,2675,1670,-690,1206,2152,-452,285,5858,23,48,900
576940,2506256,2606860,2510716,2609020,2518,1091,180,3139,2054,-4,105,20632,21,54,899
577942,2506376,2607056,2510913,2609217,2778,1867,1053,4800,1916,4,919,10816,21,54,899
578943,2506528,2607204,2511110,2609414,2599,2189,1143,4704,1685,-173,1422,1834,33,36,898
579944,2506748,2607320,2511307,2609611,2165,2424,779,3520,1402,16,1513,1008,33,36,898
580944,2506924,2607424,2511504,2609808,2450,2541,378,2360,1125,245,1523,1032,47,31,896
581946,2507096,2607556,2511701,2610005,2487,2395,39,1606,982,400,1316,1480,47,31,896
582947,2507280,2607704,2511898,2610202,2419,2317,-274,1065,939,612,1187,1742,31,21,896
583947,2507440,2607840,2512095,2610399,2585,2419,-558,608,882,457,1401,2269,31,21,896
584948,2507596,2608012,2512292,2610596,2629,2206,-313,951,854,-35,1031,9780,47,29,895
585949,2507760,2608228,2512489,2610793,2595,1923,444,2191,853,-319,803,14914,47,29,895
586951,2507916,2608460,2512686,2610990,2664,1808,767,2447,730,-116,1723,3421,25,42,893
587951,2508056,2608672,2512883,2611187,2790,1927,496,1640,597,88,1646,1429,25,42,893
588952,2508216,2608960,2513080,2611384,2682,1413,125,854,602,551,1018,3296,23,53,896
589954,2508360,2609244,2513277,2611581,2806,1400,166,1193,788,325,905,9912,23,53,896
590955,2508488,2609516,2513474,2611778,2938,1443,400,1682,936,232,1688,6522,33,68,896
591965,2508636,2609768,2513704,2612008,2850,1558,399,1242,877,418,2171,1511,33,68,896
592956,2508792,2610028,2513901,2612205,2819,1480,173,470,740,211,2023,2227,23,51,898
593957,2508952,2610300,2514098,2612402,2811,1373,-72,266,743,-30,711,4704,23,51,898
594958,2509104,2610540,2514295,2612599,2882,1554,-164,645,827,-248,125,6844,48,59,897
595959,2509304,2610776,2514492,2612796,2581,1563,-217,1103,860,-518,148,5638,48,59,897
596960,2509468,2610988,2514689,2612993,2822,1707,-398,1290,756,-682,507,4215,32,40,898
597961,2509636,2611232,2514886,2613190,2811,1486,-662,1307,560,-941,498,4088,32,40,898
598963,2509836,2611520,2515083,2613387,2610,1172,-899,1417,383,-1172,249,4467,35,57,898
599964,2510012,2611796,2515280,2613584,2771,1212,-1056,1639,252,-1106,153,4564,35,57,898
600965,2510200,2612068,2515477,2613781,2700,1204,-1168,1979,148,-1014,99,4934,50,51,898
601966,2510412,2612288,2515674,2613978,2545,1520,-1240,2325,52,-1040,198,4850,50,51,898
602967,2510612,2612540,2515871,2614175,2620,1296,-1281,2523,-63,-957,213,4611,32,56,900
603967,2510828,2612812,2516068,2614372,2512,1138,-1314,2642,-162,-755,115,4517,32,56,900
604968,2511052,2613096,2516265,2614569,2451,1026,-1330,2707,-217,-591,61,4081,43,56,900
605970,2511272,2613320,2516462,2614766,2467,1389,-1353,2682,-270,-401,35,3625,43,56,900
606971,2511500,2613540,2516659,2614963,2405,1404,-1381,2550,-330,-306,-68,3404,46,48,902
607972,2511716,2613720,2516856,2615160,2472,1662,-1418,2419,-376,-179,-214,3414,46,48,902
608972,2511916,2613908,2517053,2615357,2572,1616,-1473,2296,-437,-54,-133,3335,50,42,899
609974,2512132,2614180,2517250,2615554,2465,1058,-1542,2161,-485,-160,-450,3387,50,42,899
610974,2512340,2614404,2517447,2615751,2511,1346,-1541,2217,-510,-327,-833,4532,54,40,899
611975,2512536,2614636,2517644,2615948,2587,1282,-1297,2896,-587,-237,-745,9126,54,40,899
612976,2512740,2614840,2517841,2616145,2534,1454,-966,3739,-754,-408,-502,8250,53,48,902
613978,2512944,2615008,2518038,2616342,2532,1692,-875,3915,-975,-914,-131,3921,53,48,902
614979,2513164,2615216,2518235,2616539,2423,1437,-994,3535,-1220,-807,293,3037,40,42,901
615979,2513388,2615384,2518432,2616736,2387,1701,-1169,2973,-1448,-756,0,2718,40,42,901
616981,2513580,2615568,2518629,2616933,2590,1606,-1302,2408,-1651,-955,-512,2563,33,38,899
617981,2513776,2615740,2518826,2617130,2567,1692,-1212,2112,-1808,-1185,-1184,5274,33,38,899
618983,2513972,2615876,2519023,2617327,2568,1944,-824,2504,-1911,-1408,-1646,9589,50,33,900
619983,2514148,2616016,2519220,2617524,2703,1945,-540,2544,-2075,-1230,-1217,4688,50,33,900
620984,2514356,2616148,2519417,2617721,2500,2024,-541,1974,-2296,-1132,-1205,2807,46,18,897
621986,2514540,2616256,2519614,2617918,2656,2213,-502,1468,-2447,-1241,-1911,5676,46,18,897
622987,2514720,2616364,2519811,2618115,2690,2253,-245,1413,-2486,-1283,-2292,7499,48,29,896
623988,2514936,2616456,2520008,2618312,2457,2399,-32,1149,-2522,-978,-1599,3691,48,29,896
624989,2515144,2616544,2520205,2618509,2504,2472,17,373,-2564,-713,-1531,2215,45,13,895
625990,2515352,2616624,2520402,2618706,2500,2574,54,-429,-2525,-518,-1870,3457,45,13,895
626990,2515576,2616716,2520599,2618903,2389,2546,244,-797,-2388,-435,-1526,5733,34,15,894
627991,2515772,2616800,2520796,2619100,2565,2645,451,-1111,-2251,-235,-972,4387,34,15,894
628992,2515964,2616908,2520993,2619297,2594,2535,540,-1531,-2142,-233,-729,3795,34,25,893
629993,2516220,2617004,2521190,2619494,2169,2655,630,-1920,-2043,-240,-528,4781,34,25,893
630994,2516448,2617112,2521387,2619691,2331,2620,733,-2161,-1963,-189,-441,4783,42,14,891
631996,2516664,2617260,2521584,2619888,2399,2391,760,-2354,-1887,-399,-471,4235,42,14,891
632996,2516896,2617376,2521781,2620085,2284,2628,712,-2530,-1810,-525,-751,4235,55,32,893
633998,2517112,2617468,2521978,2620282,2377,2824,631,-2582,-1731,-523,-1111,4514,55,32,893
634998,2517340,2617580,2522175,2620479,2289,2737,566,-2487,-1612,-584,-1465,4705,57,29,895
636000,2517596,2617652,2522372,2620676,2088,3042,501,-2326,-1473,-621,-1514,4715,57,29,895
637000,2517836,2617748,2522569,2620873,2170,2938,442,-2239,-1360,-659,-1287,4541,36,16,892
638002,2518104,2617840,2522766,2621070,1965,3010,410,-2139,-1280,-682,-793,4477,36,16,892
639002,2518368,2617948,2522963,2621267,1962,2949,397,-2068,-1239,-525,-393,4280,44,29,892
640004,2518636,2618056,2523160,2621464,1907,2989,399,-2069,-1232,-373,-21,3917,44,29,892
641004,2518908,2618160,2523357,2621661,1850,3055,421,-2156,-1219,-301,-38,3760,43,29,893
642006,2519192,2618308,2523554,2621858,1737,2803,453,-2298,-1196,-199,-226,3575,43,29,893
643006,2519504,2618436,2523751,2622055,1513,2959,511,-2419,-1169,-109,-372,3401,55,25,893
644007,2519788,2618572,2523948,2622252,1650,2936,568,-2564,-1127,-83,-422,3324,55,25,893
645008,2520072,2618688,2524145,2622449,1612,3097,635,-2693,-1077,-20,-491,3203,54,20,896
646010,2520400,2618824,2524342,2622646,1281,3000,702,-2817,-1031,77,-496,3193,54,20,896
647010,2520700,2618944,2524539,2622843,1412,3135,777,-2974,-999,176,-398,3066,46,35,894
648012,2520980,2619056,2524736,2623040,1500,3222,865,-3139,-1002,223,-292,2960,46,35,894
649013,2521304,2619172,2524933,2623237,1170,3234,953,-3291,-1049,180,-173,2969,54,17,897
650013,2521604,2619316,2525130,2623434,1276,3083,1021,-3406,-1130,174,-157,3119,54,17,897
651014,2521876,2619452,2525327,2623631,1419,3161,1069,-3435,-1227,196,-222,3159,72,20,895
652015,2522184,2619592,2525524,2623828,1145,3162,1101,-3401,-1326,85,-401,3278,72,20,895
653016,2522444,2619752,2525721,2624025,1419,3053,1132,-3279,-1404,-58,-783,3348,68,37,895
654018,2522728,2619904,2525918,2624222,1230,3124,1165,-3207,-1450,-78,-1086,3265,68,37,895
655018,2523016,2620064,2526115,2624419,1166,3091,1197,-3092,-1474,1,-1254,3247,49,34,895
656020,2523300,2620188,2526312,2624616,1154,3349,1243,-3037,-1492,8,-1256,3079,49,34,895
657020,2523536,2620324,2526509,2624813,1437,3302,1300,-2996,-1529,65,-1190,2888,66,28,896
658022,2523800,2620440,2526706,2625010,1234,3463,1354,-2993,-1581,132,-1048,2850,66,28,896
659022,2524080,2620592,2526903,2625207,1097,3259,1407,-2975,-1653,164,-739,2725,48,25,895
660023,2524336,2620740,2527100,2625404,1222,3306,1439,-2969,-1730,214,-623,2588,48,25,895
661024,2524580,2620900,2527297,2625601,1276,3248,1458,-2967,-1793,173,-684,2498,61,25,893
662025,2524820,2621068,2527494,2625798,1284,3212,1461,-3017,-1823,173,-991,2476,61,25,893
663026,2525052,2621252,2527691,2625995,1318,3119,1464,-3000,-1808,240,-1371,2463,55,31,895
664028,2525268,2621448,2527888,2626192,1411,3045,1443,-2982,-1756,234,-1542,2457,55,31,895
665029,2525540,2621640,2528085,2626389,1028,3073,1420,-2920,-1689,206,-1629,2397,56,36,895
666030,2525804,2621820,2528282,2626586,1049,3157,1383,-2925,-1634,251,-1515,2187,56,36,895
667031,2526056,2622000,2528479,2626783,1100,3165,1363,-2970,-1588,220,-1324,2097,58,33,896
668032,2526292,2622204,2528676,2626980,1184,3012,1325,-2973,-1539,203,-1095,2124,59,42,897
669032,2526532,2622408,2528873,2627177,1140,3010,1276,-3002,-1504,243,-701,2133,59,42,897
670034,2526788,2622624,2529070,2627374,1015,2928,1192,-3004,-1476,248,-354,2177,59,41,898
671034,2527056,2622824,2529267,2627571,909,3028,1089,-2986,-1446,232,-156,2151,59,41,898
672035,2527296,2623048,2529464,2627768,1066,2867,980,-2970,-1414,195,-47,1945,61,55,899
673036,2527572,2623264,2529661,2627965,807,2909,883,-3047,-1366,200,-164,1828,61,55,899
674037,2527852,2623504,2529858,2628162,745,2741,782,-3131,-1291,278,-151,1729,62,53,899
675045,2528096,2623756,2530088,2628392,965,2658,667,-3222,-1195,286,-93,1676,62,53,899
676039,2528324,2624000,2530285,2628589,1051,2688,531,-3329,-1107,321,111,1664,49,47,900
677040,2528592,2624188,2530482,2628786,771,3042,397,-3478,-1040,386,419,1435,49,47,900
678041,2528820,2624404,2530679,2628983,1007,2860,256,-3664,-986,450,616,1498,47,48,900
679042,2529060,2624636,2530876,2629180,914,2745,105,-3739,-909,447,540,1781,47,48,900
680043,2529304,2624884,2531073,2629377,869,2624,-67,-3818,-805,530,475,1747,59,46,900
681045,2529516,2625092,2531270,2629574,1062,2870,-240,-3922,-678,684,403,1754,59,46,900
682045,2529688,2625312,2531467,2629771,1323,2786,-403,-4012,-515,748,309,1892,36,47,902
683046,2529900,2625504,2531664,2629968,1068,2964,-593,-4064,-338,840,150,1899,36,47,902
684047,2530080,2625704,2531861,2630165,1275,2914,-792,-4141,-159,969,157,1810,25,46,899
685048,2530280,2625892,2532058,2630362,1149,2993,-981,-4289,23,1172,333,1816,25,46,899
686049,2530480,2626128,2532255,2630559,1149,2677,-1170,-4411,198,1420,489,1996,42,33,897
687050,2530664,2626316,2532452,2630756,1254,2982,-1355,-4494,367,1526,665,2062,42,33,897
688051,2530828,2626512,2532649,2630953,1394,2933,-1537,-4607,536,1804,822,2261,46,30,900
689052,2531016,2626708,2532846,2631150,1249,2935,-1713,-4605,714,2208,851,2459,46,30,900
690053,2531208,2626888,2533043,2631347,1226,3043,-1882,-4606,898,2376,869,2495,26,42,898
691054,2531384,2627116,2533240,2631544,1335,2729,-2057,-4583,1057,2470,818,2699,26,42,898
692055,2531536,2627316,2533437,2631741,1506,2904,-2222,-4634,1187,2547,672,2731,48,28,897
693056,2531732,2627488,2533634,2631938,1231,3091,-2418,-4559,1304,2680,538,3252,48,28,897
694057,2531912,2627640,2533831,2632135,1339,3237,-2637,-4343,1423,2789,378,3710,36,23,897
695058,2532072,2627800,2534028,2632332,1481,3204,-2839,-4115,1536,2776,309,3803,36,23,897
696059,2532220,2627976,2534225,2632529,1578,3114,-3007,-3842,1633,2704,255,4137,34,38,894
697061,2532384,2628152,2534422,2632726,1493,3125,-3150,-3564,1706,2738,389,4193,34,38,894
698062,2532560,2628304,2534619,2632923,1427,3294,-3285,-3257,1721,2723,618,4572,44,40,893
699063,2532740,2628456,2534816,2633120,1410,3315,-3006,-2451,1694,3143,787,8706,44,40,893
700064,2532908,2628636,2535013,2633317,1499,3149,-644,2758,1513,6238,839,32767,26,37,893
701065,2533088,2628804,2535210,2633514,1431,3237,1998,7668,1370,3764,-240,24268,26,37,893
702066,2533268,2628988,2535407,2633711,1438,3144,2601,8121,1271,2768,732,1582,42,40,894
703067,2533460,2629164,2535604,2633908,1367,3204,2153,6170,1133,2865,871,49,42,40,894
704068,2533624,2629356,2535801,2634105,1556,3107,1517,4066,961,2990,463,64,47,44,895
705069,2533832,2629520,2535998,2634302,1277,3298,1177,2855,901,2741,18,595,47,44,895
706070,2534008,2629692,2536195,2634499,1487,3260,934,1981,954,2569,-359,797,48,38,895
707071,2534196,2629888,2536392,2634696,1417,3111,552,1379,928,2184,-165,1713,48,38,895
708072,2534380,2630088,2536589,2634893,1447,3085,48,764,823,1301,132,1940,48,29,892
709073,2534568,2630256,2536786,2635090,1426,3299,-477,206,632,765,79,2219,48,29,892
710074,2534740,2630420,2536983,2635287,1538,3339,-958,-347,420,159,-179,2261,28,28,895
711075,2534956,2630592,2537180,2635484,1255,3301,-1410,-846,296,-625,-433,2925,28,28,895
712076,2535164,2630760,2537377,2635681,1301,3340,-1838,-1049,239,-1137,-637,3433,49,25,893
713077,2535344,2630928,2537574,2635878,1483,3354,-2192,-1310,206,-1672,-422,3419,49,25,893
714078,2535520,2631092,2537771,2636075,1518,3394,-2361,-1342,201,-2070,-487,4898,51,25,894
715079,2535736,2631264,2537968,2636272,1260,3356,-1372,557,444,-3251,-2067,22732,51,25,894
716079,2535952,2631432,2538165,2636469,1252,3395,399,3692,817,-3422,-1756,25737,53,23,892
717080,2536128,2631588,2538362,2636666,1512,3489,1152,4460,962,-2338,-67,4094,53,23,892
718082,2536364,2631748,2538559,2636863,1120,3481,943,3255,989,-2112,-187,1818,30,19,892
719082,2536544,2631896,2538756,2637060,1479,3579,547,1667,1060,-1791,-513,1659,30,19,892
720084,2536732,2632032,2538953,2637257,1433,3682,313,561,1244,-1775,-252,1948,45,34,891
721084,2536924,2632164,2539150,2637454,1410,3736,206,-216,1501,-1678,-14,2265,45,34,891
722086,2537120,2632300,2539347,2637651,1386,3739,72,-754,1721,-1342,314,2778,38,21,889
723086,2537300,2632432,2539544,2637848,1494,3794,-61,-1548,1908,-1157,752,2244,38,21,889
724087,2537504,2632596,2539741,2638045,1342,3609,-180,-2262,2071,-1011,767,2948,44,38,889
725088,2537664,2632780,2539938,2638242,1633,3491,-271,-2903,2192,-1086,782,3027,44,38,889
726090,2537836,2632948,2540135,2638439,1570,3605,-355,-3397,2304,-1362,616,3819,45,23,891
727103,2538052,2633084,2540332,2638636,1286,3800,-444,-3606,2406,-1590,326,4464,45,23,891
728091,2538212,2633264,2540529,2638833,1653,3566,-526,-3808,2512,-1499,315,4582,46,31,890
729092,2538368,2633428,2540726,2639030,1697,3681,-615,-3866,2601,-1446,245,5271,46,31,890
730094,2538532,2633584,2540923,2639227,1661,3750,-648,-3984,2678,-1332,10,5061,42,23,888
731095,2538656,2633740,2541120,2639424,1944,3769,-560,-3887,2724,-1001,-45,7064,42,23,888
732108,2538808,2633888,2541317,2639621,1789,3800,-216,-3219,2723,-529,-12,11254,34,40,888
733096,2539004,2634060,2541514,2639818,1516,3704,74,-2780,2738,-882,-30,7373,34,40,888
734098,2539188,2634244,2541711,2640015,1596,3637,118,-2792,2762,-1000,102,5239,49,31,887
735099,2539332,2634444,2541908,2640212,1871,3536,69,-3215,2767,-706,411,4386,49,31,887
736100,2539500,2634636,2542105,2640409,1733,3589,53,-3670,2750,-292,444,4215,46,34,890
737100,2539664,2634820,2542302,2640606,1774,3646,102,-4133,2771,-241,211,3987,46,34,890
738102,2539844,2634984,2542499,2640803,1681,3787,172,-4551,2846,-318,-204,4021,47,35,889
739102,2540012,2635180,2542696,2641000,1770,3588,250,-4907,2926,-263,-183,4010,47,35,889
740103,2540192,2635416,2542893,2641197,1702,3322,341,-5329,2992,-237,-46,3793,44,44,888
741104,2540348,2635616,2543090,2641394,1871,3547,421,-5623,3041,-134,-150,4236,44,44,888
742106,2540488,2635824,2543287,2641591,1997,3493,478,-5910,3052,-87,178,4171,34,30,890
743107,2540656,2636020,2543484,2641788,1835,3569,539,-6122,3042,15,424,4418,34,30,890
744107,2540808,2636240,2543681,2641985,1955,3411,610,-6289,3006,148,739,4371,39,32,889
745108,2540936,2636480,2543878,2642182,2136,3268,696,-6404,2946,310,1029,4542,39,32,889
746110,2541124,2636676,2544075,2642379,1765,3545,758,-6282,2885,124,755,5216,38,40,890
747111,2541288,2636916,2544272,2642576,1931,3252,786,-6013,2863,-286,146,5585,38,40,890
748112,2541432,2637208,2544469,2642773,2080,2886,807,-5651,2876,-520,-275,5846,27,55,890
749112,2541604,2637484,2544666,2642970,1916,2952,866,-5303,2908,-560,-430,5579,27,55,890
750114,2541736,2637756,2544863,2643167,2196,2945,970,-5064,2947,-470,-595,5168,42,48,893
751114,2541908,2638088,2545060,2643364,1957,2512,1110,-4940,2987,-392,-649,4849,42,48,893
752116,2542052,2638420,2545257,2643561,2156,2454,1268,-4826,3031,-454,-872,4765,29,70,893
753116,2542204,2638740,2545454,2643758,2127,2476,1404,-4673,3096,-413,-1343,4849,29,70,893
754118,2542356,2639056,2545651,2643955,2146,2449,1559,-4622,3173,-202,-1332,4207,35,58,897
755118,2542524,2639400,2545848,2644152,2060,2211,1738,-4638,3236,14,-1348,4013,35,58,897
756120,2542692,2639780,2546045,2644349,2073,1906,1929,-4646,3289,122,-1494,3898,36,68,897
757120,2542868,2640124,2546242,2644546,2033,2068,2102,-4683,3360,169,-1711,3969,36,68,897
758129,2543024,2640424,2546472,2644776,2192,2312,2259,-4546,3434,124,-1802,4131,27,67,900
759123,2543208,2640700,2546669,2644973,2022,2428,2443,-4464,3495,265,-1633,3728,27,67,900
760123,2543352,2641040,2546866,2645170,2297,1966,2638,-4472,3522,708,-1308,3686,29,73,897
761124,2543512,2641408,2547063,2645367,2214,1717,2810,-4380,3536,1170,-1231,3798,29,73,897
762125,2543688,2641760,2547260,2645564,2123,1750,2950,-4191,3517,1545,-1104,3808,46,63,898
763127,2543876,2642032,2547457,2645761,2053,2217,3060,-3896,3477,1675,-1141,3960,46,63,898
764127,2544100,2642392,2547654,2645958,1817,1597,3166,-3555,3435,1583,-1001,3922,53,67,900
765128,2544288,2642744,2547851,2646155,2046,1579,3249,-3125,3369,1347,-857,4090,53,67,900
766130,2544496,2643068,2548048,2646352,1917,1699,3305,-2534,3295,1130,-907,4459,36,59,903
767131,2544676,2643384,2548245,2646549,2101,1697,3350,-1922,3241,1155,-662,4221,36,59,903
768132,2544888,2643756,2548442,2646746,1894,1271,3405,-1375,3204,1404,-175,3972,49,56,903
769132,2545124,2644124,2548639,2646943,1728,1221,3481,-908,3163,1698,306,3529,49,56,903
770134,2545332,2644448,2548836,2647140,1899,1442,3574,-467,3098,1911,585,3188,50,55,904
771134,2545588,2644720,2549033,2647337,1573,1734,3695,-59,3047,1903,703,2804,50,55,904
772135,2545800,2645088,2549230,2647534,1843,1059,3815,315,3043,1755,784,2767,61,63,905
773136,2545996,2645456,2549427,2647731,1944,984,3900,768,3074,1544,735,2858,61,63,905
774137,2546228,2645812,2549624,2647928,1704,990,3958,1178,3092,1389,786,2486,50,58,904
775139,2546472,2646128,2549821,2648125,1609,1188,3996,1562,3076,1435,669,2235,50,58,904
776139,2546704,2646452,2550018,2648322,1670,1082,4023,1867,3031,1491,502,1824,59,60,907
777140,2546956,2646828,2550215,2648519,1521,680,4033,2203,2981,1323,180,1942,59,60,907
778141,2547204,2647188,2550412,2648716,1524,708,4011,2713,2935,961,-72,2150,47,72,907
779143,2547416,2647528,2550609,2648913,1744,770,3962,3236,2895,764,-190,1997,47,72,907
780143,2547660,2647840,2550806,2649110,1523,896,3875,3745,2860,887,-48,1929,39,60,910
781145,2547904,2648184,2551003,2649307,1503,631,3764,4195,2807,1085,61,1410,39,60,910
782146,2548164,2648528,2551200,2649504,1376,566,3645,4511,2729,1181,-99,1046,61,49,909
783146,2548376,2648864,2551397,2649701,1670,555,3517,4802,2662,1124,-449,902,61,49,909
784147,2548608,2649116,2551594,2649898,1530,1056,3371,5045,2596,1012,-646,636,37,59,910
785148,2548852,2649400,2551791,2650095,1435,819,3214,5230,2476,931,-548,228,37,59,910
786149,2549044,2649688,2551988,2650292,1763,754,3028,5290,2315,997,-327,-217,49,48,907
787150,2549312,2650000,2552185,2650489,1257,553,2800,5269,2144,1156,-281,-313,49,48,907
788151,2549564,2650232,2552382,2650686,1334,1038,2542,5303,2014,1202,-484,-142,60,51,908
789152,2549792,2650476,2552579,2650883,1470,942,2283,5495,1936,1192,-707,186,60,51,908
790153,2550048,2650744,2552776,2651080,1270,761,2040,5710,1859,1168,-672,15,41,59,909
791155,2550264,2650984,2552973,2651277,1512,917,1803,5791,1759,1136,-293,-282,41,59,909
792155,2550476,2651260,2553170,2651474,1531,658,1519,5800,1582,1197,321,-550,55,39,911
793156,2550748,2651488,2553367,2651671,1123,944,1171,5713,1351,1308,728,-734,55,39,911
794157,2550988,2651696,2553564,2651868,1306,1064,795,5605,1099,1359,660,-637,48,39,910
795159,2551248,2651892,2553761,2652065,1153,1140,412,5522,826,1171,423,-582,48,39,910
796159,2551496,2652096,2553958,2652262,1206,1086,24,5415,502,1047,713,-867,41,52,908
797160,2551720,2652344,2554155,2652459,1345,789,-369,5146,113,1028,1058,-1294,41,52,908
798162,2551928,2652600,2554352,2652656,1441,713,-777,4813,-314,872,1345,-1326,46,48,909
799163,2552184,2652808,2554549,2652853,1115,1008,-1212,4536,-771,619,1508,-1128,46,48,909
800164,2552428,2653020,2554746,2653050,1170,977,-1659,4258,-1223,381,1389,-975,37,38,910
801164,2552660,2653240,2554943,2653247,1230,917,-2105,4066,-1657,214,1420,-618,37,38,910
802166,2552920,2653476,2555140,2653444,1027,799,-2568,3972,-2073,92,1554,-551,50,38,911
803167,2553112,2653756,2555337,2653641,1455,488,-3058,3838,-2483,-70,1597,-741,50,38,911
804168,2553336,2654016,2555534,2653838,1243,585,-3538,3541,-2903,-314,1587,-987,38,51,912
805168,2553624,2654244,2555731,2654035,804,772,-4016,3228,-3305,-480,1378,-828,38,51,912
806169,2553820,2654436,2555928,2654232,1380,999,-4467,2967,-3640,-639,933,-581,60,33,910
807170,2554044,2654600,2556125,2654429,1194,1188,-4904,2717,-3883,-766,505,-284,60,33,910
808171,2554260,2654812,2556322,2654626,1236,882,-5356,2508,-4029,-800,73,144,56,37,908
809172,2554468,2655072,2556519,2654823,1281,554,-5804,2353,-4133,-908,-313,165,56,37,908
810173,2554700,2655300,2556716,2655020,1116,740,-6198,2105,-4228,-1134,-587,19,55,49,910
811174,2554928,2655536,2556913,2655217,1128,673,-6528,1770,-4296,-1338,-928,123,55,49,910
812175,2555140,2655760,2557110,2655414,1221,736,-6811,1399,-4316,-1315,-1194,319,44,47,911
813176,2555352,2655916,2557307,2655611,1216,1179,-7053,992,-4276,-1295,-1408,285,44,47,911
814178,2555552,2656092,2557504,2655808,1289,1064,-7266,521,-4191,-1285,-1679,433,51,37,911
815178,2555764,2656296,2557701,2656005,1209,886,-7438,-47,-4078,-1305,-1840,269,51,37,911
816179,2555912,2656504,2557898,2656202,1630,856,-7564,-717,-3931,-1337,-1924,297,28,39,909
817180,2556064,2656668,2558095,2656399,1625,1145,-7682,-1386,-3745,-1275,-2050,539,28,39,909
818181,2556192,2656844,2558292,2656596,1806,1080,-7812,-2039,-3533,-1190,-2188,871,20,25,908
819182,2556324,2656980,2558489,2656793,1810,1356,-7913,-2720,-3305,-946,-2310,1024,20,25,908
820183,2556444,2657116,2558686,2656990,1920,1383,-7980,-3561,-3087,-310,-2301,764,33,31,906
821184,2556580,2657256,2558883,2657187,1847,1383,-8048,-4419,-2885,471,-2470,933,33,31,906
822185,2556728,2657392,2559080,2657384,1793,1435,-8138,-5226,-2660,1022,-2864,1339,19,34,904
823186,2556900,2657504,2559277,2657581,1655,1622,-8220,-6039,-2402,1426,-3245,1589,19,34,904
824187,2557052,2657660,2559474,2657778,1800,1365,-8288,-6723,-2092,1731,-3597,2304,26,29,904
825188,2557232,2657824,2559671,2657975,1633,1330,-8323,-7319,-1735,1991,-3830,2920,26,29,904
826189,2557452,2657964,2559868,2658172,1373,1505,-8286,-7692,-1370,2460,-4088,4228,25,31,904
827190,2557632,2658124,2560065,2658369,1632,1396,-4010,-302,-988,9611,-8656,32767,25,31,904
828192,2557804,2658236,2560262,2658566,1693,1734,3689,14978,-419,12171,-14215,32767,32,16,905
829192,2557960,2658336,2560459,2658763,1812,1851,7552,20028,79,4468,-4892,2363,32,16,905
830194,2558192,2658448,2560656,2658960,1321,1814,6987,16290,389,4111,-2167,-3030,46,17,903
831195,2558344,2658544,2560853,2659157,1842,1958,5551,10564,496,4648,-3044,-5739,46,17,903
832196,2558532,2658680,2561050,2659354,1621,1735,4378,6439,664,4575,-4158,-4012,25,30,904
833196,2558700,2658792,2561247,2659551,1760,1922,3565,4485,1081,4145,-4531,-1754,25,30,904
834198,2558884,2658928,2561444,2659748,1666,1799,2640,2879,1481,4194,-3940,-2147,46,26,903
835198,2559056,2659056,2561641,2659945,1752,1880,1785,803,1565,3561,-2031,-2986,46,26,903
836200,2559224,2659172,2561838,2660142,1790,1991,989,-1469,1420,2893,-677,-1754,37,24,903
837200,2559392,2659288,2562035,2660339,1804,2026,-20,-3046,1221,2817,-1406,885,37,24,903
838202,2559576,2659396,2562232,2660536,1710,2115,-1143,-3913,1077,2335,-1061,2240,37,25,900
839202,2559740,2659488,2562429,2660733,1850,2262,-1991,-4492,968,1973,-127,2380,37,25,900
840204,2559944,2659596,2562626,2660930,1597,2202,-2531,-5321,768,1915,613,1644,36,24,899
841211,2560096,2659712,2562856,2661160,1957,2202,-2865,-6368,386,902,1436,1766,36,24,899
842206,2560328,2659844,2563053,2661357,1442,2130,-3053,-7269,-155,-172,1701,2191,47,13,900
843206,2560568,2659960,2563250,2661554,1374,2266,-3191,-7842,-735,-523,851,3310,47,13,900
844208,2560748,2660088,2563447,2661751,1757,2222,-3361,-7781,-1123,-988,-607,5313,38,21,901
845209,2560980,2660204,2563644,2661948,1417,2333,-3538,-7188,-1260,-1398,-1767,6430,38,21,901
846210,2561224,2660320,2563841,2662145,1322,2369,-3432,-6097,-1286,-1731,-2212,9519,53,30,901
847211,2561464,2660476,2564038,2662342,1329,2138,-1515,-1400,-922,-3818,-4351,32767,53,30,901
848212,2561712,2660632,2564235,2662539,1256,2156,1149,3774,-522,-3724,-3041,30199,44,19,901
849212,2561948,2660788,2564432,2662736,1315,2174,2186,4995,-548,-2295,-64,4417,44,19,901
850213,2562164,2660904,2564629,2662933,1432,2460,2059,3738,-767,-1838,237,2796,56,17,901
851214,2562376,2661052,2564826,2663130,1451,2282,1796,2143,-928,-1068,-285,1371,56,17,901
852215,2562596,2661184,2565023,2663327,1391,2410,1729,954,-847,-525,-784,1202,47,34,900
853216,2562820,2661308,2565220,2663524,1354,2493,1763,28,-513,234,-1136,952,47,34,900
854217,2563044,2661452,2565417,2663721,1343,2392,1696,-939,-149,974,-1422,569,49,33,900
855218,2563296,2661596,2565614,2663918,1144,2416,1611,-2065,135,884,-1141,95,49,33,900
856219,2563484,2661768,2565811,2664115,1549,2252,1533,-3338,328,963,-775,131,27,24,900
857220,2563660,2661920,2566008,2664312,1633,2398,1441,-4377,498,1084,-1095,660,27,24,900
858221,2563864,2662116,2566205,2664509,1456,2123,1328,-5150,767,615,-1683,1388,39,35,901
859222,2564012,2662304,2566402,2664706,1828,2178,1197,-5557,1058,404,-1694,2308,39,35,901
860223,2564168,2662488,2566599,2664903,1797,2209,1045,-5804,1356,380,-1954,2687,42,44,902
861224,2564344,2662692,2566796,2665100,1681,2081,908,-5878,1653,203,-1784,3195,42,44,902
862226,2564500,2662868,2566993,2665297,1825,2266,792,-5925,1895,232,-1322,3357,26,32,899
863226,2564672,2663056,2567190,2665494,1736,2195,734,-5947,2099,451,-956,3672,26,32,899
864227,2564848,2663248,2567387,2665691,1720,2173,731,-5808,2342,564,-685,3931,43,44,899
865228,2565024,2663520,2567584,2665888,1731,1640,725,-5577,2555,760,-306,4081,43,44,899
866230,2565180,2663728,2567781,2666085,1874,2036,709,-5232,2730,690,-180,4500,42,35,900
867230,2565328,2663940,2567978,2666282,1946,2005,701,-4762,2876,532,-183,4931,42,35,900
868231,2565508,2664152,2568175,2666479,1754,1999,694,-4181,2989,698,-142,5186,40,49,899
869232,2565656,2664388,2568372,2666676,1976,1832,710,-3599,3092,820,160,5143,40,49,899
870234,2565812,2664620,2568569,2666873,1944,1843,772,-3004,3166,909,455,5021,33,52,901
871235,2565992,2664844,2568766,2667070,1803,1881,862,-2459,3192,1035,598,4841,33,52,901
872235,2566144,2665072,2568963,2667267,1998,1842,963,-1973,3190,1180,749,4730,22,35,901
873236,2566308,2665268,2569160,2667464,1938,2044,1063,-1499,3184,1490,839,4541,22,35,901
874237,2566504,2665492,2569357,2667661,1739,1857,1171,-1168,3150,1675,904,3960,46,34,900
875238,2566672,2665700,2569554,2667858,1927,1953,1290,-1011,3076,1592,991,3442,46,34,900
876239,2566848,2665920,2569751,2668055,1887,1868,1399,-976,2944,1642,1057,3058,35,44,902
877240,2567040,2666152,2569948,2668252,1789,1777,1488,-1059,2770,1832,1012,2592,35,44,902
878242,2567204,2666364,2570145,2668449,1980,1897,1561,-1202,2573,2096,1010,2337,34,50,901
879242,2567376,2666556,2570342,2668646,1941,2024,1614,-1393,2368,2233,886,2075,34,50,901
880243,2567572,2666740,2570539,2668843,1792,2081,1628,-1638,2117,2235,800,1987,27,40,901
881244,2567728,2666932,2570736,2669040,2060,2033,1594,-1882,1839,2161,659,2010,27,40,901
882246,2567892,2667132,2570933,2669237,2026,1982,1511,-2043,1579,2069,328,2162,40,32,900
883246,2568052,2667304,2571130,2669434,2068,2169,1399,-2083,1386,1903,-175,2310,40,32,900
884247,2568236,2667520,2571327,2669631,1924,1885,1263,-2095,1254,1731,-397,2375,38,41,898
885248,2568368,2667724,2571524,2669828,2278,1958,1105,-2068,1139,1567,-362,2412,38,41,898
886249,2568536,2667928,2571721,2670025,2066,1955,925,-2042,1020,1397,-370,2487,34,30,900
887251,2568716,2668116,2571918,2670222,2000,2059,744,-1997,936,1141,-513,2554,34,30,900
888251,2568880,2668288,2572115,2670419,2115,2171,570,-1847,916,892,-877,2978,36,28,899
889252,2569060,2668484,2572312,2670616,2023,2021,405,-1602,956,626,-1083,3129,36,28,899
890253,2569264,2668656,2572509,2670813,1871,2183,288,-1326,1039,434,-956,3151,38,42,898
891254,2569416,2668816,2572706,2671010,2215,2275,212,-969,1150,268,-953,3359,38,42,898
892255,2569596,2669004,2572903,2671207,2049,2104,136,-576,1263,23,-908,3611,42,32,899
893257,2569768,2669168,2573100,2671404,2111,2269,24,-145,1347,-163,-701,3732,42,32,899
894258,2569932,2669308,2573297,2671601,2175,2444,-118,259,1382,-384,-364,3614,26,19,896
895258,2570072,2669460,2573494,2671798,2351,2390,-302,679,1357,-604,-22,3742,26,19,896
896259,2570248,2669592,2573691,2671995,2137,2544,-488,1051,1275,-819,245,3582,44,28,894
897260,2570412,2669744,2573888,2672192,2226,2439,-677,1351,1165,-979,432,3437,44,28,894
898262,2570572,2669912,2574085,2672389,2268,2352,-883,1626,1066,-1084,474,3465,42,39,895
899262,2570756,2670084,2574282,2672586,2125,2339,-1122,1891,980,-1179,492,3526,42,39,895
900263,2570908,2670288,2574479,2672783,2345,2136,-1377,2118,889,-1209,552,3443,21,37,895
901264,2571064,2670512,2574676,2672980,2339,2000,-1626,2282,771,-1254,637,3162,21,37,895
902266,2571208,2670720,2574873,2673177,2438,2095,-1844,2338,652,-1123,583,2967,20,46,897
903266,2571352,2670968,2575070,2673374,2461,1823,-2020,2324,583,-814,610,2934,20,46,897
904267,2571488,2671184,2575267,2673571,2539,2015,-2192,2282,566,-519,629,2724,30,42,896
905268,2571644,2671420,2575464,2673768,2433,1873,-2312,2137,612,-177,251,2580,30,42,896
906269,2571776,2671680,2575661,2673965,2613,1697,-2390,1889,733,216,-98,2425,21,40,894
907270,2571888,2671968,2575858,2674162,2775,1482,-2438,1586,883,497,84,2356,21,40,894
908271,2572060,2672264,2576055,2674359,2412,1389,-2439,1207,1016,726,605,2087,46,58,897
909272,2572256,2672484,2576252,2674556,2264,1854,-2309,898,1142,1033,709,3144,46,58,897
910274,2572440,2672624,2576449,2674753,2345,2379,-905,3246,1182,3541,845,26289,28,30,899
911274,2572616,2672720,2576646,2674950,2404,2699,1209,6894,1147,2930,571,26162,28,30,899
912276,2572800,2672800,2576843,2675147,2361,2851,2040,7747,1040,938,1552,2186,43,13,898
913276,2572976,2672896,2577040,2675344,2421,2796,1719,6480,904,715,1834,852,43,13,898
914278,2573156,2672944,2577237,2675541,2405,3162,1095,5023,732,785,1655,1068,43,9,891
915278,2573316,2673048,2577434,2675738,2546,2854,576,4256,514,333,1675,1644,43,9,891
916279,2573472,2673168,2577631,2675935,2590,2787,208,3699,221,-186,2121,1197,43,16,890
917280,2573620,2673320,2577828,2676132,2663,2608,-201,3193,-187,-244,2536,1441,43,16,890
918281,2573772,2673488,2578025,2676329,2658,2521,-688,2763,-563,-680,2070,2085,38,28,889
919282,2573920,2673744,2578222,2676526,2706,1946,-1208,2523,-833,-903,1184,2917,38,28,889
920283,2574064,2673984,2578419,2676723,2754,2027,-1729,2433,-1045,-953,266,3131,42,43,889
921284,2574204,2674200,2578616,2676920,2805,2170,-2155,2276,-1185,-1278,-470,2987,42,43,889
922285,2574356,2674536,2578813,2677117,2751,1359,-2446,2115,-1303,-1382,-494,2899,46,64,894
923286,2574532,2674844,2579010,2677314,2611,1486,-2624,1794,-1373,-1542,-619,2718,46,64,894
924296,2574716,2675168,2579240,2677544,2583,1345,-2379,1991,-1222,-1668,-1557,7433,49,62,894
925288,2574900,2675468,2579437,2677741,2589,1450,-995,4461,-716,-1997,-3375,25267,49,62,894
926290,2575076,2675788,2579634,2677938,2649,1271,364,6136,-250,-1198,-1504,10316,48,66,899
927290,2575264,2676092,2579831,2678135,2578,1325,723,5762,7,-823,-28,1581,48,66,899
928291,2575452,2676364,2580028,2678332,2583,1492,532,4292,157,-512,214,808,41,51,898
929292,2575624,2676588,2580225,2678529,2695,1780,299,3149,343,-372,-174,1538,41,51,898
930294,2575868,2676876,2580422,2678726,2226,1341,196,2482,590,-730,-176,1890,39,59,899
931294,2576072,2677124,2580619,2678923,2474,1569,117,1992,752,-878,-38,2077,39,59,899
932295,2576252,2677364,2580816,2679120,2632,1600,-35,1698,804,-1272,-91,2676,38,52,897
933296,2576476,2677584,2581013,2679317,2346,1716,-253,1415,802,-1898,-105,2924,38,52,897
934298,2576688,2677788,2581210,2679514,2415,1813,-509,1267,703,-2012,-173,3431,54,37,899
935299,2576912,2678064,2581407,2679711,2329,1328,-769,1246,557,-2295,-144,3710,54,37,899
936299,2577116,2678332,2581604,2679908,2452,1348,-1042,1382,384,-2579,-217,4330,36,49,899
937300,2577336,2678608,2581801,2680105,2343,1263,-1315,1560,141,-2806,-192,4266,36,49,899
938301,2577540,2678864,2581998,2680302,2441,1362,-1545,1616,-118,-3212,-408,4218,35,45,901
939302,2577744,2679096,2582195,2680499,2439,1498,-1705,1647,-379,-3119,-681,3959,35,45,901
940303,2577956,2679312,2582392,2680696,2383,1590,-1747,1511,-621,-2877,-967,3419,40,46,900
941304,2578132,2679532,2582589,2680893,2617,1555,-1421,1664,-798,-2191,-1325,7150,40,46,900
942305,2578328,2679776,2582786,2681090,2494,1384,-622,2697,-945,-966,-1693,13797,55,46,900
943306,2578560,2679980,2582983,2681287,2254,1632,-77,3034,-1045,-1476,-1455,4821,55,46,900
944307,2578776,2680172,2583180,2681484,2347,1709,-54,2335,-1100,-1633,-1095,1732,46,30,899
945308,2578968,2680376,2583377,2681681,2500,1631,-218,1091,-1124,-1336,-1365,1110,46,30,899
946309,2579180,2680564,2583574,2681878,2369,1735,-326,10,-1073,-1089,-1752,1643,54,36,900
947310,2579388,2680728,2583771,2682075,2390,1900,-250,-691,-935,-718,-1794,3123,54,36,900
948311,2579592,2680932,2583968,2682272,2413,1647,262,-569,-850,314,-1449,9435,32,48,899
949312,2579780,2681144,2584165,2682469,2518,1591,925,-325,-839,14,-1010,8057,32,48,899
950313,2579968,2681360,2584362,2682666,2522,1557,1181,-822,-828,-697,-806,2547,31,47,896
951314,2580152,2681540,2584559,2682863,2554,1791,1062,-1768,-782,-525,-1102,2147,31,47,896
952315,2580356,2681712,2584756,2683060,2427,1852,870,-2572,-732,-381,-742,2839,50,28,898
953316,2580540,2681860,2584953,2683257,2558,2023,804,-2906,-718,-166,-485,4710,50,28,898
954317,2580736,2681992,2585150,2683454,2484,2152,987,-2709,-780,340,-660,7870,51,37,897
955318,2580936,2682112,2585347,2683651,2459,2262,1119,-2595,-928,11,-772,3998,51,37,897
956319,2581112,2682220,2585544,2683848,2619,2376,906,-2913,-951,68,-638,3841,30,20,895
957320,2581300,2682320,2585741,2684045,2549,2469,676,-3048,-971,87,-155,4352,30,20,895
958321,2581496,2682428,2585938,2684242,2501,2459,516,-3060,-991,314,248,4345,45,30,895
959323,2581704,2682540,2586135,2684439,2422,2471,415,-3052,-1036,561,510,4289,45,30,895
960324,2581908,2682636,2586332,2684636,2444,2615,331,-3061,-1100,562,680,4287,35,29,892
961324,2582092,2682768,2586529,2684833,2575,2420,250,-3071,-1168,554,645,4296,35,29,892
962326,2582340,2682900,2586726,2685030,2154,2449,184,-3079,-1215,658,348,4294,52,23,892
963327,2582556,2682996,2586923,2685227,2347,2719,145,-3117,-1213,674,82,4117,52,23,892
964328,2582768,2683096,2587120,2685424,2366,2737,128,-3176,-1182,723,8,3909,50,29,893
965328,2583028,2683204,2587317,2685621,2039,2726,135,-3305,-1148,728,-108,3691,50,29,893
966330,2583248,2683280,2587514,2685818,2279,2980,163,-3400,-1111,665,-89,3694,40,13,892
967331,2583500,2683380,2587711,2686015,2056,2872,200,-3440,-1092,572,-78,3800,40,13,892
968332,2583780,2683464,2587908,2686212,1846,3023,243,-3439,-1083,496,-142,3855,52,21,894
969333,2584052,2683584,2588105,2686409,1864,2832,287,-3355,-1074,391,-74,4079,52,21,894
970334,2584296,2683688,2588302,2686606,2019,2974,324,-3156,-1105,296,152,4272,40,32,893
971335,2584568,2683820,2588499,2686803,1811,2827,333,-2841,-1183,128,111,4554,40,32,893
972335,2584852,2683956,2588696,2687000,1699,2830,326,-2509,-1275,-64,-91,4618,68,21,892
973336,2585140,2684096,2588893,2687197,1635,2831,306,-2184,-1329,-129,-409,4497,68,21,892
974338,2585412,2684200,2589090,2687394,1703,3097,312,-1937,-1344,-154,-575,4166,47,31,894
975339,2585692,2684332,2589287,2687591,1616,2952,357,-1803,-1334,-189,-757,3752,47,31,894
976340,2585944,2684476,2589484,2687788,1768,2900,442,-1749,-1307,-185,-1027,3397,48,38,897
977341,2586236,2684600,2589681,2687985,1477,3058,580,-1803,-1267,-213,-1103,3091,48,38,897
978342,2586520,2684740,2589878,2688182,1489,2984,731,-1899,-1221,-138,-1243,2950,66,38,895
979343,2586776,2684860,2590075,2688379,1639,3143,883,-1940,-1170,-58,-1246,2921,66,38,895
980344,2587068,2684992,2590272,2688576,1373,3098,1024,-1968,-1146,-73,-919,2969,65,25,895
981345,2587328,2685132,2590469,2688773,1546,3074,1129,-1966,-1172,-36,-616,3047,65,25,895
982346,2587596,2685268,2590666,2688970,1466,3125,1208,-1961,-1203,55,-846,3013,66,28,894
983347,2587884,2685380,2590863,2689167,1301,3314,1260,-1920,-1219,75,-1047,2964,66,28,894
984347,2588144,2685528,2591060,2689364,1449,3111,1307,-1946,-1241,71,-1141,2770,52,26,891
985348,2588420,2685656,2591257,2689561,1314,3268,1335,-1925,-1245,131,-1325,2916,52,26,891
986349,2588708,2685780,2591454,2689758,1200,3325,1343,-1851,-1217,164,-1317,3053,47,29,894
987350,2588944,2685896,2591651,2689955,1508,3411,1335,-1727,-1209,250,-1048,3052,47,29,894
988351,2589192,2686016,2591848,2690152,1412,3421,1299,-1644,-1256,310,-678,3013,53,36,893
989352,2589460,2686156,2592045,2690349,1255,3322,1237,-1602,-1331,363,-453,2906,53,36,893
990354,2589716,2686316,2592242,2690546,1306,3213,1165,-1577,-1382,515,-555,2821,58,30,891
991354,2589968,2686472,2592439,2690743,1306,3257,1097,-1581,-1398,542,-758,2607,58,30,891
992356,2590200,2686636,2592636,2690940,1417,3223,1050,-1676,-1406,555,-983,2395,40,26,894
993357,2590436,2686808,2592833,2691137,1375,3185,991,-1762,-1412,639,-1126,2257,40,26,894
994358,2590640,2686984,2593030,2691334,1573,3170,912,-1852,-1415,694,-1008,2405,43,31,893
995358,2590888,2687168,2593227,2691531,1275,3127,800,-1906,-1423,680,-852,2420,43,31,893
996360,2591156,2687352,2593424,2691728,1120,3133,669,-1972,-1466,622,-476,2419,41,39,893
997360,2591400,2687548,2593621,2691925,1250,3059,550,-2028,-1523,583,-246,2370,41,39,893
998362,2591640,2687732,2593818,2692122,1257,3141,434,-2111,-1573,469,-177,2222,44,37,896
999363,2591892,2687912,2594015,2692319,1157,3174,321,-2258,-1596,370,-282,2115,44,37,896
1000364,2592124,2688124,2594212,2692516,1267,2969,217,-2370,-1575,253,-513,2085,51,45,896
1001365,2592372,2688324,2594409,2692713,1146,3043,127,-2535,-1531,147,-697,1986,51,45,896
1002366,2592676,2688512,2594606,2692910,749,3122,44,-2678,-1481,36,-678,1996,62,48,896
1003366,2592908,2688720,2594803,2693107,1184,2993,-49,-2865,-1437,-81,-606,1981,62,48,896
1004368,2593176,2688924,2595000,2693304,928,3016,-151,-2993,-1396,-124,-550,2049,63,49,898
1005368,2593484,2689144,2595197,2693501,629,2907,-252,-3092,-1349,-239,-517,2137,63,49,898
1006369,2593740,2689400,2595394,2693698,929,2657,-343,-3166,-1287,-291,-452,2150,41,43,896
1007377,2593972,2689608,2595624,2693928,1078,2968,-419,-3296,-1212,-329,-339,2037,41,43,896
1008372,2594220,2689788,2595821,2694125,956,3150,-488,-3468,-1117,-399,-284,2083,43,50,901
1009372,2594476,2690008,2596018,2694322,881,2891,-558,-3578,-1011,-419,-340,2240,43,50,901
1010374,2594700,2690236,2596215,2694519,1069,2829,-622,-3690,-891,-407,-479,2141,46,39,898
1011374,2594972,2690468,2596412,2694716,736,2789,-680,-3887,-768,-223,-431,1995,46,39,898
1012376,2595176,2690688,2596609,2694913,1158,2855,-737,-4056,-623,-9,-371,2170,58,42,900
1013376,2595368,2690896,2596806,2695110,1236,2925,-811,-4144,-451,43,-272,2363,58,42,900
1014378,2595600,2691092,2597003,2695307,971,3002,-895,-4260,-279,244,-57,2463,41,40,901
1015379,2595796,2691296,2597200,2695504,1196,2950,-973,-4328,-115,499,278,2701,41,40,901
1016380,2595984,2691528,2597397,2695701,1250,2760,-1040,-4376,45,684,552,2746,50,52,895
1017380,2596184,2691756,2597594,2695898,1175,2773,-1108,-4394,196,887,676,2798,50,52,895
1018381,2596404,2691972,2597791,2696095,1040,2839,-1174,-4464,349,1090,828,2869,44,42,897
1019382,2596588,2692220,2597988,2696292,1271,2618,-1253,-4491,495,1412,1037,3035,44,42,897
1020383,2596772,2692416,2598185,2696489,1277,2944,-1359,-4488,615,1723,1206,3215,34,47,899
1021384,2596984,2692632,2598382,2696686,1096,2812,-1489,-4501,712,1856,1242,3312,34,47,899
1022386,2597164,2692880,2598579,2696883,1303,2591,-1634,-4462,787,2022,1086,3570,29,49,900
1023386,2597360,2693080,2598776,2697080,1204,2889,-1802,-4376,845,2121,758,3764,29,49,900
1024388,2597544,2693268,2598973,2697277,1285,2969,-1965,-4212,908,2153,533,4162,29,38,899
1025389,2597700,2693428,2599170,2697474,1478,3162,-2130,-4059,976,2097,287,4091,29,38,899
1026390,2597864,2693632,2599367,2697671,1443,2884,-2098,-3741,1043,2450,-46,6048,24,42,897
1027390,2598052,2693836,2599564,2697868,1297,2881,-527,-240,1010,5942,-797,32767,24,42,897
1028391,2598220,2694004,2599761,2698065,1436,3120,1597,3845,940,4819,-1094,25572,28,38,894
1029392,2598384,2694216,2599958,2698262,1475,2840,2262,4661,920,2387,194,2566,28,38,894
1030393,2598564,2694400,2600155,2698459,1383,3021,1893,3226,932,2415,287,1084,44,45,897
1031394,2598724,2694592,2600352,2698656,1525,2973,1348,1626,948,2692,-83,1053,44,45,897
1032395,2598908,2694784,2600549,2698853,1381,2977,958,680,996,2416,-130,1539,42,32,897
1033397,2599096,2694992,2600746,2699050,1360,2873,711,9,1066,2106,-141,1591,42,32,897
1034397,2599272,2695168,2600943,2699247,1445,3083,389,-441,1056,1964,69,2368,46,37,895
1035398,2599448,2695352,2601140,2699444,1454,3040,23,-870,1006,1335,345,2534,46,37,895
1036399,2599636,2695548,2601337,2699641,1383,2965,-377,-1145,945,838,235,3245,48,40,897
1037400,2599800,2695740,2601534,2699838,1549,2993,-785,-1240,863,307,230,3739,48,40,897
1038402,2599952,2695924,2601731,2700035,1643,3050,-1180,-1200,792,-370,395,4223,47,43,894
1039402,2600136,2696084,2601928,2700232,1449,3217,-1536,-1079,737,-783,254,4407,47,43,894
1040403,2600320,2696248,2602125,2700429,1456,3207,-1816,-1069,716,-1295,42,4202,33,25,892
1041404,2600496,2696400,2602322,2700626,1515,3303,-1705,-559,812,-2039,-532,8963,33,25,892
1042406,2600700,2696556,2602519,2700823,1337,3297,-607,1721,1108,-2988,-1283,23617,26,24,893
1043406,2600864,2696692,2602716,2701020,1602,3449,395,3203,1336,-2491,-156,9807,26,24,893
1044407,2601052,2696860,2602913,2701217,1456,3263,560,2966,1426,-2125,446,2770,41,20,892
1045408,2601220,2697016,2603110,2701414,1594,3356,328,1701,1464,-1684,535,1710,41,20,892
1046410,2601440,2697148,2603307,2701611,1260,3536,134,505,1532,-1431,430,1735,31,17,890
1047411,2601624,2697284,2603504,2701808,1491,3539,111,-397,1681,-1575,368,1831,31,17,890
1048411,2601816,2697404,2603701,2702005,1443,3673,127,-1143,1825,-1485,321,1993,34,32,889
1049413,2602044,2697552,2603898,2702202,1205,3521,99,-1788,1938,-1537,270,2469,34,32,889
1050413,2602228,2697692,2604095,2702399,1486,3597,31,-2398,2048,-1811,241,2921,38,34,889
1051414,2602412,2697828,2604292,2702596,1492,3650,-87,-2760,2135,-1749,-24,3805,38,34,889
1052415,2602608,2697972,2604489,2702793,1418,3624,-212,-3103,2212,-1685,124,3958,46,21,892
1053416,2602796,2698104,2604686,2702990,1472,3729,-313,-3223,2283,-1443,309,5148,46,21,892
1054418,2602976,2698304,2604883,2703187,1530,3302,-111,-2681,2307,-664,619,9998,26,40,889
1055418,2603168,2698452,2605080,2703384,1458,3650,362,-1757,2298,-618,474,11571,26,40,889
1056419,2603332,2698616,2605277,2703581,1647,3565,553,-1317,2335,-1656,71,5990,29,23,889
1057421,2603504,2698792,2605474,2703778,1609,3501,427,-1486,2400,-1847,-245,4840,29,23,889
1058422,2603684,2698964,2605671,2703975,1567,3538,206,-1764,2490,-1735,-510,4948,48,42,890
1059423,2603852,2699156,2605868,2704172,1654,3416,15,-2026,2596,-1381,-580,4532,48,42,890
1060424,2603996,2699324,2606065,2704369,1829,3580,-120,-2349,2701,-928,-526,4113,44,33,889
1061424,2604144,2699492,2606262,2704566,1825,3593,-214,-2730,2772,-645,-288,3919,44,33,889
1062426,2604288,2699692,2606459,2704763,1874,3393,-272,-3230,2796,-584,111,3549,44,43,890
1063427,2604472,2699872,2606656,2704960,1630,3526,-321,-3714,2771,-542,160,3679,44,43,890
1064427,2604632,2700068,2606853,2705157,1797,3428,-369,-4196,2748,-376,227,3689,44,30,888
1065429,2604800,2700264,2607050,2705354,1760,3429,-407,-4683,2757,91,230,3714,44,30,888
1066430,2604956,2700468,2607247,2705551,1853,3377,-448,-5079,2784,361,82,3909,27,37,888
1067430,2605144,2700648,2607444,2705748,1658,3536,-476,-5451,2783,263,15,3965,27,37,888
1068431,2605308,2700860,2607641,2705945,1823,3330,-480,-5766,2734,160,-107,4164,47,49,890
1069432,2605476,2701088,2607838,2706142,1810,3217,-477,-5957,2658,-42,-375,4570,47,49,890
1070434,2605636,2701288,2608035,2706339,1878,3392,-480,-6017,2589,-146,-506,5010,40,47,890
1071435,2605800,2701532,2608232,2706536,1867,3098,-458,-6000,2546,-23,-318,5098,40,47,890
1072435,2605924,2701760,2608429,2706733,2150,3185,-417,-5976,2514,145,31,5270,32,49,890
1073436,2606084,2701980,2608626,2706930,1942,3226,-354,-5885,2456,203,273,5322,32,49,890
1074437,2606240,2702204,2608823,2707127,1986,3190,-270,-5817,2364,93,124,5231,33,55,892
1075438,2606396,2702420,2609020,2707324,2004,3233,-160,-5783,2274,43,-193,5154,33,55,892
1076439,2606524,2702744,2609217,2707521,2210,2502,-42,-5690,2230,102,-647,5299,41,60,891
1077440,2606708,2703020,2609414,2707718,1866,2768,86,-5571,2257,109,-949,5344,41,60,891
1078441,2606856,2703268,2609611,2707915,2113,2922,245,-5455,2335,201,-790,5153,43,46,891
1079442,2606996,2703524,2609808,2708112,2188,2847,438,-5406,2421,413,-538,4993,43,46,891
1080443,2607156,2703836,2610005,2708309,2081,2447,660,-5344,2500,516,-706,4937,42,49,894
1081444,2607300,2704156,2610202,2708506,2204,2344,885,-5279,2566,446,-1040,4958,42,49,894
1082445,2607460,2704484,2610399,2708703,2121,2238,1133,-5215,2626,392,-1179,4764,41,65,892
1083446,2607604,2704772,2610596,2708900,2245,2449,1402,-5177,2687,512,-1323,4645,41,65,892
1084447,2607760,2705120,2610793,2709097,2188,2007,1683,-5091,2775,740,-1566,4696,29,60,895
1085448,2607900,2705436,2610990,2709294,2314,2156,1938,-4919,2886,826,-1859,4954,29,60,895
1086449,2608080,2705736,2611187,2709491,2072,2212,2157,-4592,3002,801,-2058,5166,29,65,895
1087450,2608252,2706056,2611384,2709688,2134,2034,2363,-4219,3108,907,-1979,5272,29,65,895
1088451,2608432,2706292,2611581,2709885,2091,2541,2581,-3828,3203,871,-1841,5175,29,50,896
1089452,2608584,2706620,2611778,2710082,2287,1910,2829,-3467,3280,653,-1716,5008,29,50,896
1090461,2608760,2706948,2612008,2710312,2162,1868,3090,-3177,3326,658,-1670,4741,48,63,899
1091455,2608900,2707248,2612205,2710509,2412,1998,3328,-2812,3352,1070,-1528,4772,48,63,899
1092456,2609084,2707500,2612402,2710706,2144,2274,3560,-2428,3378,1654,-1154,4469,48,62,899
1093456,2609268,2707852,2612599,2710903,2150,1581,3806,-2142,3381,1822,-855,4081,48,62,899
1094458,2609444,2708176,2612796,2711100,2210,1701,4039,-1809,3353,1571,-851,4240,32,62,896
1095458,2609692,2708472,2612993,2711297,1738,1834,4237,-1406,3317,1391,-785,4363,32,62,896
1096459,2609888,2708748,2613190,2711494,2064,1924,4386,-861,3319,1396,-643,4617,50,70,901
1097460,2610088,2709048,2613387,2711691,2038,1730,4517,-270,3354,1315,-382,4283,50,70,901
1098462,2610312,2709420,2613584,2711888,1877,1203,4649,201,3343,1309,137,3862,55,63,903
1099463,2610524,2709764,2613781,2712085,1946,1314,4778,632,3286,1540,551,3607,55,63,903
1100463,2610744,2710032,2613978,2712282,1887,1758,4908,998,3229,1797,854,3129,44,60,902
1101464,2610980,2710316,2614175,2712479,1771,1620,5026,1364,3184,1846,1049,2950,44,60,902
1102466,2611216,2710644,2614372,2712676,1753,1288,5143,1668,3142,1404,1144,2692,42,58,904
1103466,2611448,2710996,2614569,2712873,1764,1070,5217,2080,3129,1081,751,2910,42,58,904
1104468,2611672,2711296,2614766,2713070,1802,1351,5265,2533,3155,984,668,2489,38,52,903
1105468,2611912,2711576,2614963,2713267,1684,1440,5285,2926,3178,1153,779,2184,38,52,903
1106470,2612156,2711872,2615160,2713464,1640,1296,5286,3249,3167,1310,752,1933,55,51,905
1107470,2612392,2712212,2615357,2713661,1672,959,5267,3530,3128,1148,594,1756,55,51,905
1108472,2612660,2712556,2615554,2713858,1442,870,5217,3899,3087,924,347,1950,59,57,905
1109472,2612872,2712904,2615751,2714055,1786,778,5149,4261,3071,728,222,1629,59,57,905
1110474,2613108,2713200,2615948,2714252,1620,1060,5035,4647,3050,688,382,1568,43,69,907
1111475,2613348,2713512,2616145,2714449,1576,910,4885,4982,2988,813,581,1084,43,69,907
1112476,2613592,2713872,2616342,2714646,1531,539,4727,5219,2919,963,359,719,41,58,908
1113476,2613828,2714192,2616539,2714843,1564,735,4556,5468,2869,851,117,566,41,58,908
1114478,2614076,2714508,2616736,2715040,1467,707,4358,5621,2815,743,-64,268,55,57,908
1115479,2614320,2714752,2616933,2715237,1472,1137,4127,5757,2753,845,-97,74,55,57,908
1116479,2614536,2715076,2617130,2715434,1639,581,3841,5803,2678,913,58,-249,38,49,907
1117480,2614764,2715364,2617327,2715631,1551,766,3493,5857,2567,915,75,-246,38,49,907
1118481,2615040,2715624,2617524,2715828,1217,913,3112,5932,2422,721,81,-301,43,57,908
1119482,2615284,2715856,2617721,2716025,1396,1073,2712,6010,2201,524,441,-315,43,57,908
1120483,2615532,2716084,2617918,2716222,1350,1084,2265,6073,1901,412,916,-401,54,55,908
1121484,2615752,2716376,2618115,2716419,1515,642,1783,6012,1565,379,1144,-663,54,55,908
1122485,2615964,2716624,2618312,2716616,1559,895,1265,5928,1207,533,1174,-725,43,54,908
1123486,2616188,2716868,2618509,2716813,1472,899,701,5775,844,737,1221,-804,43,54,908
1124487,2616456,2717076,2618706,2717010,1167,1119,93,5675,487,898,1197,-608,38,47,909
1125488,2616684,2717252,2618903,2717207,1404,1329,-510,5588,144,799,1256,-771,38,47,909
1126490,2616924,2717452,2619100,2717404,1310,1177,-1085,5377,-225,645,1549,-1225,52,34,908
1127491,2617164,2717648,2619297,2717601,1292,1203,-1675,4976,-653,567,1875,-1392,52,34,908
1128491,2617384,2717892,2619494,2717798,1407,882,-2279,4499,-1174,304,2320,-1651,39,49,906
1129492,2617592,2718128,2619691,2717995,1478,915,-2881,3980,-1724,24,2265,-1684,39,49,906
1130493,2617860,2718332,2619888,2718192,1072,1112,-3467,3450,-2196,-134,1756,-1526,60,36,908
1131494,2618140,2718556,2620085,2718389,960,975,-4018,3020,-2570,-134,1504,-1403,60,36,908
1132495,2618352,2718744,2620282,2718586,1380,1204,-4519,2504,-2907,-101,1483,-1707,44,36,908
1133496,2618604,2718976,2620479,2718783,1105,914,-4975,1900,-3223,-214,1334,-1537,44,36,908
1134497,2618836,2719220,2620676,2718980,1216,818,-5398,1375,-3434,-403,707,-915,50,41,911
1135498,2619076,2719460,2620873,2719177,1147,824,-5831,1066,-3505,-511,-46,-153,50,41,911
1136499,2619348,2719680,2621070,2719374,914,939,-6249,939,-3480,-663,-398,280,48,42,911
1137500,2619540,2719888,2621267,2719571,1417,1009,-6573,752,-3443,-840,-474,23,48,42,911
1138501,2619728,2720036,2621464,2719768,1446,1406,-6781,414,-3433,-971,-606,-101,47,44,909
1139502,2619964,2720208,2621661,2719965,1129,1267,-6935,-29,-3428,-1097,-682,-39,47,44,909
1140503,2620188,2720432,2621858,2720162,1193,930,-7138,-341,-3421,-1094,-706,657,41,30,909
1141504,2620416,2720684,2622055,2720359,1155,731,-7358,-599,-3400,-1085,-843,619,41,30,909
1142505,2620652,2720892,2622252,2720556,1088,1001,-7530,-949,-3359,-1173,-1080,753,48,41,908
1143507,2620868,2721060,2622449,2720753,1204,1264,-7666,-1285,-3307,-1203,-1285,945,48,41,908
1144507,2621068,2721264,2622646,2720950,1304,1036,-7797,-1638,-3245,-1116,-1418,975,35,28,911
1145508,2621292,2721420,2622843,2721147,1142,1353,-7936,-1948,-3171,-944,-1463,1541,35,28,911
1146509,2621476,2721564,2623040,2721344,1398,1451,-8081,-2236,-3091,-756,-1239,1844,47,32,909
1147510,2621620,2721772,2623237,2721541,1672,1046,-8186,-2640,-2958,-781,-1714,1607,47,32,909
1148511,2621760,2721964,2623434,2721738,1722,1148,-8221,-3223,-2723,-366,-2171,1563,36,40,907
1149512,2621864,2722144,2623631,2721935,1988,1231,-8258,-3839,-2464,239,-2336,1852,36,40,907
1150513,2621968,2722308,2623828,2722132,2030,1345,-8304,-4475,-2201,933,-2556,1679,23,21,905
1151514,2622064,2722476,2624025,2722329,2124,1333,-8299,-5416,-1963,1990,-2566,849,23,21,905
1152515,2622172,2722624,2624222,2722526,2088,1479,-8261,-6589,-1773,3091,-2512,764,21,34,904
1153516,2622320,2722768,2624419,2722723,1861,1528,-8224,-7674,-1598,3732,-2733,1418,21,34,904
1154517,2622472,2722900,2624616,2722920,1856,1631,-8156,-8570,-1388,4123,-3249,1867,36,32,902
1155519,2622660,2723020,2624813,2723117,1636,1740,-8091,-9315,-1140,4480,-3419,2508,36,32,902
1156520,2622820,2723136,2625010,2723314,1827,1801,-4865,-4730,-986,10524,-5723,32767,41,19,903
1157520,2622972,2723276,2625207,2723511,1897,1676,2696,10016,-954,15073,-10478,32767,41,19,903
1158522,2623180,2723452,2625404,2723708,1543,1460,6786,16116,-803,6404,-3798,6810,42,25,903
1159523,2623364,2723592,2625601,2723905,1699,1710,6229,14270,-320,5341,-3742,696,42,25,903
1160524,2623536,2723712,2625798,2724102,1786,1869,4317,9534,168,5338,-4480,-3290,36,27,901
1161524,2623728,2723816,2625995,2724299,1663,2010,3226,5858,400,5359,-3549,-3711,36,27,901
1162525,2623904,2723924,2626192,2724496,1773,2025,2749,3451,537,4888,-3018,-2661,45,15,903
1163526,2624076,2724044,2626389,2724693,1809,1984,2270,1564,675,5132,-3208,-2606,45,15,903
1164527,2624280,2724152,2626586,2724890,1606,2098,1352,-17,778,5023,-2983,-217,25,17,901
1165528,2624472,2724280,2626783,2725087,1684,2003,317,-997,729,4070,-1836,1838,25,17,901
1166530,2624636,2724380,2626980,2725284,1874,2221,-706,-1711,510,3622,-1713,2394,29,27,901
1167530,2624828,2724548,2627177,2725481,1702,1809,-1567,-2408,355,3110,-2570,2427,29,27,901
1168531,2625008,2724668,2627374,2725678,1784,2142,-2234,-3027,258,2379,-1927,2530,38,30,901
1169532,2625192,2724792,2627571,2725875,1766,2150,-2664,-3694,-52,1789,-642,1980,38,30,901
1170533,2625384,2724924,2627768,2726072,1718,2129,-2915,-4678,-543,861,219,1299,24,14,901
1171534,2625540,2725044,2627965,2726269,1962,2238,-3009,-5609,-1076,-150,124,2041,24,14,901
1172535,2625720,2725180,2628162,2726466,1820,2165,-3025,-6081,-1627,-769,-172,3304,44,21,899
1173543,2625904,2725316,2628392,2726696,1815,2206,-3064,-5949,-2056,-1457,-943,4983,44,21,899
1174537,2626116,2725452,2628589,2726893,1634,2234,-3179,-5316,-2240,-1835,-2287,6424,42,21,898
1175538,2626292,2725600,2628786,2727090,1868,2180,-3323,-4352,-2249,-2025,-3449,7165,42,21,898
1176539,2626528,2725736,2628983,2727287,1477,2282,-2462,-1957,-2034,-3107,-4908,20206,49,19,899
1177540,2626740,2725888,2629180,2727484,1621,2203,-91,3199,-1534,-4533,-5741,32767,49,19,899
1178541,2626984,2726016,2629377,2727681,1401,2383,1537,5790,-1358,-3169,-1832,9363,34,30,899
1179542,2627260,2726168,2629574,2727878,1166,2253,1846,5532,-1439,-2725,-865,3532,34,30,899
1180543,2627536,2726328,2629771,2728075,1133,2220,1668,4225,-1499,-2121,-1155,2226,56,33,900
1181544,2627788,2726472,2629968,2728272,1259,2344,1582,3186,-1356,-1642,-1462,1940,56,33,900
1182546,2628012,2726600,2630165,2728469,1423,2474,1578,2379,-942,-1140,-1786,1820,58,19,900
1183546,2628252,2726752,2630362,2728666,1304,2345,1530,1790,-439,-247,-1706,1797,58,19,900
1184547,2628480,2726900,2630559,2728863,1365,2391,1444,919,-33,212,-772,686,48,23,901
1185548,2628708,2727084,2630756,2729060,1353,2172,1429,-442,317,481,-1150,-571,48,23,901
1186549,2628908,2727272,2630953,2729257,1526,2152,1456,-2032,608,893,-1052,-1010,48,34,901
1187550,2629128,2727460,2631150,2729454,1391,2156,1493,-3475,933,1254,-1042,-583,48,34,901
1188552,2629304,2727680,2631347,2729651,1676,1946,1370,-4308,1361,1543,-2015,1507,42,36,901
1189552,2629504,2727880,2631544,2729848,1525,2070,1155,-4809,1772,1348,-1840,1782,42,36,901
1190554,2629672,2728080,2631741,2730045,1739,2069,1010,-5224,2075,1053,-1387,2073,40,30,902
1191554,2629824,2728288,2631938,2730242,1859,2015,916,-5529,2298,1122,-1404,2832,40,30,902
1192555,2629992,2728452,2632135,2730439,1771,2305,843,-5612,2522,1265,-1019,3472,40,41,901
1193556,2630160,2728632,2632332,2730636,1785,2212,762,-5383,2735,1000,-744,4235,40,41,901
1194557,2630324,2728832,2632529,2730833,1824,2087,690,-5021,2904,748,-750,4537,31,46,899
1195558,2630540,2729060,2632726,2731030,1492,1898,591,-4502,2963,495,-271,5245,31,46,899
1196559,2630708,2729272,2632923,2731227,1805,1992,497,-3863,2927,281,61,5500,44,34,899
1197560,2630880,2729484,2633120,2731424,1792,1986,434,-3224,2837,278,74,5500,44,34,899
1198562,2631080,2729704,2633317,2731621,1616,1926,389,-2504,2754,189,184,5739,42,52,903
1199562,2631256,2729932,2633514,2731818,1775,1863,372,-1799,2690,222,325,5617,42,52,903
1200564,2631416,2730144,2633711,2732015,1892,1957,404,-1134,2640,412,399,5346,25,45,901
1201564,2631620,2730364,2633908,2732212,1614,1897,506,-618,2581,469,584,4772,25,45,901
1202565,2631784,2730564,2634105,2732409,1879,2021,657,-313,2489,572,862,4254,28,45,901
1203566,2631960,2730780,2634302,2732606,1814,1913,821,-221,2340,777,1127,3538,28,45,901
1204568,2632148,2730964,2634499,2732803,1744,2119,975,-321,2165,1019,1180,2910,31,45,902
1205568,2632308,2731152,2634696,2733000,1935,2099,1118,-489,2025,1248,1011,2440,31,45,902
1206569,2632476,2731344,2634893,2733197,1898,2076,1261,-890,1924,1425,718,1742,38,41,901
1207570,2632652,2731564,2635090,2733394,1858,1891,1398,-1395,1844,1642,343,1563,38,41,901
1208571,2632804,2731760,2635287,2733591,2028,2042,1520,-1914,1752,1748,127,1293,36,32,899
1209572,2632992,2731976,2635484,2733788,1808,1909,1594,-2442,1621,1667,11,1170,36,32,899
1210573,2633164,2732172,2635681,2733985,1919,2034,1608,-2969,1464,1465,-121,1330,42,31,901
1211574,2633336,2732368,2635878,2734182,1931,2036,1571,-3376,1323,1324,-236,1645,42,31,901
1212575,2633488,2732556,2636075,2734379,2075,2090,1498,-3567,1252,1234,-618,2131,21,49,901
1213576,2633632,2732752,2636272,2734576,2150,2040,1409,-3608,1255,1016,-957,2323,21,49,901
1214577,2633820,2732960,2636469,2734773,1879,1961,1303,-3658,1292,769,-1096,2404,28,32,899
1215578,2633980,2733172,2636666,2734970,2071,1930,1152,-3541,1347,609,-1230,3053,28,32,899
1216579,2634160,2733388,2636863,2735167,1953,1896,967,-3289,1433,404,-1377,3441,35,31,897
1217580,2634332,2733588,2637060,2735364,2015,1996,785,-2827,1553,232,-1380,3854,35,31,897
1218581,2634528,2733788,2637257,2735561,1866,1995,625,-2292,1724,49,-1423,4068,49,48,898
1219582,2634704,2733988,2637454,2735758,2001,1994,501,-1722,1944,53,-1449,4300,49,48,898
1220583,2634900,2734196,2637651,2735955,1876,1939,416,-1102,2191,94,-1297,4391,39,48,900
1221585,2635084,2734404,2637848,2736152,1958,1935,384,-513,2416,16,-972,4188,39,48,900
1222586,2635252,2734588,2638045,2736349,2071,2091,375,-60,2590,-51,-637,3900,40,30,900
1223587,2635428,2734816,2638242,2736546,2031,1803,374,242,2719,75,-312,3535,40,30,900
1224588,2635588,2735032,2638439,2736743,2147,1869,374,459,2819,159,75,3255,34,31,900
1225589,2635752,2735212,2638636,2736940,2138,2102,375,602,2896,242,298,3054,34,31,900
1226590,2635924,2735416,2638833,2737137,2100,1950,371,638,2938,195,540,2883,33,51,899
1227591,2636096,2735648,2639030,2737334,2111,1759,349,632,2947,181,755,2954,33,51,899
1228591,2636288,2735940,2639227,2737531,1989,1343,315,604,2928,133,787,2818,46,40,897
1229592,2636460,2736196,2639424,2737728,2125,1543,281,580,2902,-20,520,2931,46,40,897
1230594,2636612,2736432,2639621,2737925,2271,1651,249,655,2897,-170,39,3112,40,45,900
1231594,2636748,2736656,2639818,2738122,2398,1714,207,728,2916,-185,-494,3206,40,45,900
1232596,2636892,2736928,2640015,2738319,2372,1382,152,881,2931,-200,-675,3510,21,50,902
1233596,2637048,2737216,2640212,2738516,2316,1242,77,1075,2914,-297,-653,3588,21,50,902
1234597,2637196,2737528,2640409,2738713,2387,1041,-35,1299,2884,-339,-558,3910,43,51,899
1235598,2637316,2737876,2640606,2738910,2597,750,-182,1617,2858,-314,-204,4175,43,51,899
1236599,2637448,2738132,2640803,2739107,2551,1300,-334,1906,2820,-231,136,3815,43,59,900
1237601,2637616,2738276,2641000,2739304,2340,2023,-458,2015,2743,-221,412,3512,43,59,900
1238602,2637808,2738400,2641197,2739501,2193,2180,-557,2061,2622,-299,660,3500,29,34,900
1239603,2637996,2738512,2641394,2739698,2222,2293,-227,2757,2488,157,855,9596,29,34,900
1240603,2638184,2738596,2641591,2739895,2227,2517,856,5137,2314,757,1290,21689,33,29,897
1241605,2638348,2738680,2641788,2740092,2392,2568,1538,6293,2032,-59,1931,5786,33,29,897
1242605,2638512,2738760,2641985,2740289,2407,2644,1370,5902,1625,-395,2551,1890,40,10,896
1243607,2638676,2738856,2642182,2740486,2422,2589,825,4875,1126,-405,2623,1553,40,10,896
1244607,2638812,2738964,2642379,2740683,2625,2553,267,4125,637,-472,2350,1979,38,16,893
1245608,2638980,2739120,2642576,2740880,2438,2272,-216,3653,213,-639,2221,1985,38,16,893
1246610,2639132,2739308,2642773,2741077,2559,2076,-640,3154,-211,-588,2241,1610,28,25,892
1247611,2639268,2739516,2642970,2741274,2686,1946,-1059,2578,-563,-559,1836,1732,28,25,892
1248612,2639428,2739676,2643167,2741471,2553,2263,-1447,1958,-781,-690,1168,1783,22,52,894
1249613,2639540,2739952,2643364,2741668,2891,1504,-1209,2335,-783,-976,-290,10641,22,52,894
1250613,2639660,2740268,2643561,2741865,2876,1201,76,4555,-519,-1677,-1665,24101,20,53,895
1251614,2639808,2740544,2643758,2742062,2723,1418,990,5229,-429,-276,821,4415,20,53,895
1252615,2639956,2740804,2643955,2742259,2745,1490,1001,3983,-485,315,920,-350,42,56,896
1253616,2640104,2741104,2644152,2742456,2767,1195,617,2237,-364,813,-181,294,42,56,896
1254618,2640296,2741404,2644349,2742653,2496,1150,246,1164,7,1139,-812,1635,25,59,898
1255619,2640448,2741664,2644546,2742850,2766,1373,93,405,455,877,-478,1183,25,59,898
1256628,2640628,2741920,2644776,2743080,2613,1386,43,-244,801,749,-179,1817,39,60,899
1257620,2640796,2742144,2644973,2743277,2702,1574,197,-319,982,558,254,6108,39,60,899
1258621,2640992,2742408,2645170,2743474,2529,1295,741,622,1053,190,458,13615,51,47,897
1259622,2641168,2742628,2645367,2743671,2664,1561,987,1344,961,-458,799,6056,51,47,897
1260623,2641368,2742872,2645564,2743868,2513,1390,665,1382,726,-1090,1307,3945,51,43,896
1261624,2641584,2743128,2645761,2744065,2405,1289,52,1480,388,-1338,1476,5056,51,43,896
1262626,2641776,2743348,2645958,2744262,2558,1504,-587,1887,5,-1574,1577,5501,46,39,898
1263626,2641976,2743624,2646155,2744459,2508,1119,-1098,2455,-339,-1768,1617,5491,46,39,898
1264627,2642208,2743928,2646352,2744656,2294,898,-1461,2921,-588,-1585,1048,5090,36,61,901
1265628,2642420,2744228,2646549,2744853,2413,878,-1687,3041,-702,-1409,250,4108,36,61,901
1266630,2642636,2744496,2646746,2745050,2380,1047,-1814,2934,-677,-1219,-138,3784,55,50,901
1267630,2642852,2744736,2646943,2745247,2372,1203,-1845,2660,-557,-953,-473,3285,55,50,901
1268631,2643052,2744948,2647140,2745444,2472,1371,-1799,2370,-349,-587,-632,3237,38,57,903
1269632,2643272,2745196,2647337,2745641,2338,1124,-1728,2159,-88,-261,-556,3472,38,57,903
1270634,2643492,2745424,2647534,2745838,2328,1235,-1709,2062,191,-39,-638,3951,49,51,901
1271635,2643688,2745632,2647731,2746035,2479,1356,-1676,1985,384,-265,-205,3764,49,51,901
1272635,2643892,2745832,2647928,2746232,2427,1404,-1402,1905,425,-281,-138,5194,39,47,902
1273636,2644128,2746040,2648125,2746429,2211,1349,-820,2257,324,-29,-323,9396,39,47,902
1274637,2644348,2746200,2648322,2746626,2302,1667,-395,2416,176,-753,-22,4774,46,30,900
1275638,2644548,2746352,2648519,2746823,2426,1736,-348,2200,-64,-1129,619,3274,46,30,900
1276639,2644764,2746540,2648716,2747020,2318,1515,-478,1719,-341,-1148,153,2692,36,34,902
1277640,2644956,2746752,2648913,2747217,2471,1359,-627,1169,-605,-1259,-98,2654,36,34,902
1278642,2645144,2746912,2649110,2747414,2501,1700,-790,745,-877,-1507,-263,2855,40,27,899
1279642,2645328,2747080,2649307,2747611,2532,1663,-973,329,-1146,-1854,-312,2831,40,27,899
1280643,2645504,2747244,2649504,2747808,2592,1702,-1131,-134,-1388,-1986,-362,2755,47,31,899
1281644,2645680,2747384,2649701,2748005,2603,1877,-1087,-529,-1583,-1877,-978,4420,47,31,899
1282646,2645872,2747536,2649898,2748202,2506,1822,-471,183,-1654,-1850,-2492,13707,33,22,897
1283646,2646056,2747680,2650095,2748399,2561,1895,218,823,-1725,-1785,-2075,8501,33,22,897
1284647,2646264,2747792,2650292,2748596,2408,2134,407,389,-1860,-1490,-1368,2469,33,20,896
1285648,2646448,2747924,2650489,2748793,2564,2037,267,-623,-1971,-886,-1432,2079,33,20,896
1286650,2646640,2748052,2650686,2748990,2518,2093,102,-1536,-2002,-467,-1499,2324,34,34,896
1287651,2646816,2748164,2650883,2749187,2627,2230,45,-2277,-1969,-341,-1287,2478,34,34,896
1288652,2646996,2748304,2651080,2749384,2610,2080,177,-2768,-1913,72,-1031,4194,38,15,894
1289653,2647188,2748424,2651277,2749581,2538,2239,595,-2578,-1862,631,-861,8980,38,15,894
1290654,2647384,2748544,2651474,2749778,2515,2274,985,-2518,-1801,286,-801,5514,26,17,894
1291655,2647580,2748672,2651671,2749975,2516,2254,1070,-2989,-1751,-68,-504,2859,26,17,894
1292655,2647800,2748800,2651868,2750172,2356,2284,989,-3670,-1710,25,-396,2868,38,18,893
1293656,2648000,2748928,2652065,2750369,2481,2315,900,-4092,-1631,347,-652,3662,38,18,893
1294658,2648212,2749084,2652262,2750566,2400,2159,847,-4164,-1522,536,-627,4173,51,21,895
1295658,2648440,2749224,2652459,2750763,2288,2284,798,-4169,-1419,550,-448,4218,51,21,895
1296659,2648648,2749364,2652656,2750960,2408,2309,726,-4142,-1326,630,-264,4429,40,32,895
1297660,2648888,2749500,2652853,2751157,2190,2362,648,-4045,-1234,596,-88,4387,40,32,895
1298661,2649164,2749640,2653050,2751354,1931,2362,568,-3929,-1153,471,69,4502,41,36,895
1299662,2649400,2749776,2653247,2751551,2165,2414,496,-3732,-1091,367,188,4637,41,36,895
1300663,2649652,2749892,2653444,2751748,2041,2575,428,-3487,-1039,394,338,4840,59,34,896
1301664,2649952,2750012,2653641,2751945,1697,2584,373,-3101,-1012,407,391,4872,59,34,896
1302665,2650236,2750140,2653838,2752142,1759,2564,337,-2799,-998,240,143,4675,48,35,895
1303667,2650512,2750260,2654035,2752339,1775,2649,329,-2545,-958,162,-176,4561,48,35,895
1304667,2650804,2750376,2654232,2752536,1634,2710,334,-2334,-905,179,-221,4206,63,30,895
1305668,2651104,2750508,2654429,2752733,1540,2638,354,-2181,-868,120,-275,4016,63,30,895
1306669,2651392,2750604,2654626,2752930,1575,2909,390,-2069,-855,7,-310,3874,69,22,896
1307670,2651684,2750736,2654823,2753127,1509,2712,467,-2034,-873,-84,-293,3472,69,22,896
1308671,2651976,2750836,2655020,2753324,1468,2956,566,-2026,-951,-100,-11,3451,44,28,897
1309672,2652248,2750920,2655217,2753521,1560,3106,667,-1981,-1035,-147,-173,3309,44,28,897
1310673,2652508,2751032,2655414,2753718,1609,2969,764,-1943,-1051,-199,-750,3286,48,24,897
1311674,2652828,2751120,2655611,2753915,1179,3167,868,-1982,-1021,-304,-1105,2970,48,24,897
1312675,2653104,2751228,2655808,2754112,1421,3082,981,-2090,-980,-393,-1428,2762,53,21,893
1313676,2653380,2751320,2656005,2754309,1386,3228,1083,-2153,-942,-456,-1701,2854,53,21,893
1314677,2653672,2751412,2656202,2754506,1245,3275,1167,-2189,-917,-473,-1745,2758,64,28,893
1315678,2653956,2751536,2656399,2754703,1257,3107,1221,-2198,-902,-402,-1731,2970,64,28,893
1316679,2654208,2751636,2656596,2754900,1434,3301,1252,-2117,-900,-332,-1585,2918,68,31,893
1317680,2654476,2751748,2656793,2755097,1303,3264,1269,-2135,-920,-263,-1304,2638,68,31,893
1318681,2654724,2751864,2656990,2755294,1406,3275,1264,-2151,-950,-178,-951,2673,60,27,895
1319683,2654988,2752016,2657187,2755491,1277,3071,1230,-2225,-967,-70,-797,2659,60,27,895
1320683,2655256,2752160,2657384,2755688,1222,3145,1188,-2219,-967,126,-766,2673,39,35,894
1321684,2655492,2752320,2657581,2755885,1405,3061,1150,-2237,-950,237,-863,2574,39,35,894
1322685,2655732,2752468,2657778,2756082,1361,3159,1125,-2189,-914,311,-844,2608,52,35,895
1323686,2655972,2752620,2657975,2756279,1343,3154,1077,-2191,-882,432,-697,2608,52,35,895
1324687,2656192,2752772,2658172,2756476,1458,3174,1037,-2204,-868,505,-541,2505,59,38,892
1325688,2656420,2752928,2658369,2756673,1395,3168,987,-2212,-856,547,-530,2580,59,38,892
1326689,2656692,2753120,2658566,2756870,1087,2946,951,-2230,-836,604,-627,2381,53,43,893
1327691,2656916,2753304,2658763,2757067,1375,3003,908,-2253,-809,670,-629,2452,53,43,893
1328691,2657156,2753456,2658960,2757264,1257,3223,875,-2228,-772,704,-615,2453,53,27,894
1329692,2657408,2753644,2659157,2757461,1158,3003,827,-2200,-736,673,-646,2438,53,27,894
1330693,2657636,2753824,2659354,2757658,1294,3061,770,-2236,-699,655,-661,2428,50,28,895
1331694,2657876,2753992,2659551,2757855,1202,3149,704,-2291,-672,658,-554,2307,50,28,895
1332695,2658144,2754192,2659748,2758052,995,2949,635,-2328,-658,599,-526,2300,41,45,897
1333696,2658404,2754388,2659945,2758249,1018,2975,561,-2354,-640,453,-498,2161,41,45,897
1334697,2658664,2754572,2660142,2758446,991,3057,468,-2428,-620,358,-415,2221,42,38,895
1335699,2658920,2754784,2660339,2758643,990,2875,366,-2458,-609,299,-307,2129,42,38,895
1336699,2659172,2754980,2660536,2758840,991,2977,257,-2567,-602,224,-374,1931,55,40,896
1337700,2659448,2755168,2660733,2759037,806,3032,159,-2715,-590,194,-451,1782,55,40,896
1338701,2659704,2755360,2660930,2759234,906,3010,47,-2915,-565,110,-400,1770,46,46,898
1339709,2659952,2755576,2661160,2759464,948,2866,-81,-3088,-533,78,-394,1797,46,46,898
1340703,2660220,2755788,2661357,2759661,792,2886,-218,-3293,-502,19,-420,1559,44,34,898
1341704,2660444,2755988,2661554,2759858,1055,2960,-350,-3475,-446,-108,-631,1725,44,34,898
1342705,2660680,2756208,2661751,2760055,963,2826,-482,-3665,-343,5,-888,1663,38,44,899
1343706,2660892,2756440,2661948,2760252,1108,2736,-594,-3932,-212,154,-876,1567,38,44,899
1344707,2661088,2756644,2662145,2760449,1208,2909,-695,-4101,-53,228,-815,1920,33,36,898
1345708,2661304,2756844,2662342,2760646,1075,2933,-808,-4279,116,277,-769,1905,33,36,898
1346709,2661520,2757060,2662539,2760843,1066,2825,-911,-4401,281,452,-528,2020,45,34,898
1347710,2661704,2757256,2662736,2761040,1272,2951,-1008,-4474,447,636,-192,2218,45,34,898
1348711,2661892,2757480,2662933,2761237,1252,2766,-1107,-4561,591,897,34,2220,31,49,895
1349712,2662100,2757692,2663130,2761434,1122,2835,-1205,-4664,720,1085,246,2405,31,49,895
1350713,2662276,2757900,2663327,2761631,1331,2855,-1294,-4768,843,1218,557,2382,49,36,897
