"Data file recorded 2014/9/22  15:23:1"
"%  Right Stride Frequency         = 3.0"
"%  Left Stride Frequency         = 3.0"
"%  Phase (Fractional)         = 32768.0"
"%  Experiment.py "
"%  Motor Gains    = [1800, 200, 100, 0, 0, 1800, 200, 100, 0, 0]
"% Columns: "
"% time | Right Leg Pos | Left Leg Pos | Commanded Right Leg Pos | Commanded Left Leg Pos | DCR | DCL | GyroX | GryoY | GryoZ | AX | AY | AZ | RBEMF | LBEMF | VBatt "
11435,17428796,19233136,17397269,19265045,-3800,3800,-361,-1127,59,344,-572,4033,-12,-11,857
12436,17428796,19233136,17397466,19265242,-3800,3800,-361,-1125,59,326,-550,4048,-12,-11,857
13437,17428692,19233124,17397663,19265439,-3800,3800,-360,-1123,58,333,-572,4080,1,5,857
14438,17428536,19233256,17397860,19265636,-3800,3800,-362,-1126,61,331,-581,4053,1,5,857
15440,17428324,19233416,17398057,19265833,-3800,3800,-361,-1130,55,304,-517,4014,-44,21,824
16440,17428124,19233628,17398254,19266030,-3800,3800,-352,-1140,37,286,-348,4064,-44,21,824
17441,17427908,19233884,17398451,19266227,-3800,3800,-333,-1103,9,512,116,3982,-54,25,825
18442,17427680,19234244,17398648,19266424,-3800,3800,-280,-1170,-43,758,710,3723,-54,25,825
19443,17427484,19234616,17398845,19266621,-3800,3800,-177,-1293,-94,1004,1137,3405,-57,50,826
20444,17427172,19234964,17399042,19266818,-3800,3800,-21,-1573,-137,1140,1548,2941,-57,50,826
21445,17426808,19235288,17399239,19267015,-3800,3800,117,-1840,-209,1241,1844,3210,-42,41,826
22446,17426496,19235664,17399436,19267212,-3800,3800,247,-2022,-257,1116,1490,3306,-42,41,826
23447,17426176,19236120,17399633,19267409,-3800,3800,335,-2096,-217,797,-3,3684,-61,54,827
24448,17425696,19236472,17399830,19267606,-3800,3800,347,-1884,-80,5,-1888,4686,-61,54,827
25449,17425316,19236836,17400027,19267803,-3800,3800,316,-1411,132,-502,-2721,5049,-73,47,827
26450,17424976,19237204,17400224,19268000,-3800,3800,276,-1119,241,-425,-2542,4394,-73,47,827
27452,17424528,19237548,17400421,19268197,-3800,3800,158,-1007,212,33,-2380,4482,-83,56,826
28452,17424072,19237864,17400618,19268394,-3800,3800,-28,-572,196,-80,-2494,5283,-83,56,826
29453,17423668,19238132,17400815,19268591,-3800,3800,-215,-52,234,-92,-2488,5104,-94,52,827
30454,17423232,19238380,17401012,19268788,-3800,3800,-357,168,268,686,-2316,4277,-94,52,827
31456,17422648,19238636,17401209,19268985,-3800,3800,-488,479,398,1193,-2653,4736,-82,38,828
32456,17422196,19238880,17401406,19269182,-3800,3800,-590,798,586,891,-2881,4042,-82,38,828
33457,17421640,19239080,17401603,19269379,-3800,3800,-635,526,690,920,-3073,2655,-96,19,827
34458,17420996,19239300,17401800,19269576,-3800,3800,-673,138,728,1379,-3053,2864,-96,19,827
35459,17420408,19239504,17401997,19269773,-3800,3800,-705,17,810,1754,-2999,3119,-112,20,828
36460,17419804,19239672,17402194,19269970,-3800,3800,-728,-222,894,2077,-2960,2385,-112,20,828
37449,17419080,19239864,17402391,19270167,-2732,3800,-779,-624,947,2442,-2634,2562,-145,19,826
38450,17418424,19240032,17402588,19270364,-2785,3800,-830,-775,1005,2806,-1925,3046,-145,19,826
39451,17417780,19240192,17402785,19270561,-2493,3800,-876,-1029,1030,3327,-1408,2360,-147,12,828
40452,17417084,19240384,17402982,19270758,-1779,3800,-930,-1370,987,3464,-960,2450,-147,12,828
41453,17416476,19240528,17403179,19270955,-1978,3800,-918,-1752,912,3282,-423,2263,-144,27,832
42454,17415860,19240696,17403376,19271152,-1573,3800,-878,-2026,744,3937,183,2324,-144,27,832
43455,17415252,19240828,17403573,19271349,-1271,3800,-803,-2289,498,4553,661,1952,-116,26,835
44456,17414656,19240940,17403770,19271546,-1000,3800,-763,-2474,308,4493,202,2754,-116,26,835
45457,17414140,19241060,17403967,19271743,-1189,3800,-797,-2142,237,4232,-603,4119,-115,23,835
46458,17413524,19241144,17404164,19271940,-209,3800,-912,-1491,250,3512,-958,4991,-115,23,835
47459,17412980,19241232,17404361,19272137,-335,3800,-1047,-665,266,2809,-862,5467,-91,16,835
48460,17412516,19241288,17404558,19272334,-546,3800,-1175,382,259,2280,-641,6035,-91,16,835
49461,17412020,19241340,17404755,19272531,-43,3800,-1275,1370,220,1646,-295,5639,-105,-4,834
50462,17411612,19241404,17404952,19272728,-328,3800,-1341,2329,161,1120,-115,5875,-105,-4,834
51463,17411260,19241472,17405149,19272925,-438,3800,-1365,3157,132,524,-445,5334,-79,-1,837
52464,17410936,19241556,17405346,19273122,-385,3800,-1328,3736,173,76,-929,4730,-79,-1,837
53465,17410632,19241620,17405543,19273319,-292,3800,-1283,4201,295,-421,-1529,4481,-67,15,837
54466,17410380,19241716,17405740,19273516,-421,3800,-1182,4447,502,-983,-2106,3835,-67,15,837
55467,17410160,19241780,17405937,19273713,-437,3800,-1070,4535,771,-1231,-2432,3631,-54,7,837
56468,17409992,19241880,17406134,19273910,-603,3800,-916,4506,1062,-1441,-2437,3194,-54,7,837
57469,17409848,19242004,17406331,19274107,-604,3800,-732,4252,1351,-1769,-2195,2584,-35,11,837
58469,17409716,19242108,17406528,19274304,-535,3800,-523,3802,1627,-1981,-2047,2283,-35,11,837
59471,17409636,19242244,17406725,19274501,-739,3800,-301,3200,1909,-2194,-1966,1975,-28,15,835
60472,17409604,19242384,17406922,19274698,-939,3800,-60,2536,2208,-2424,-1829,2000,-28,15,835
61473,17409592,19242544,17407119,19274895,-972,3800,668,1920,2584,-3349,-2672,5937,-10,20,838
62473,17409584,19242768,17407316,19275092,-908,3800,3068,1412,3249,-5262,-4415,21822,-10,20,838
63475,17409584,19242976,17407513,19275289,-872,3800,5646,1051,3833,-2956,-3311,15664,-7,37,836
64476,17409584,19243220,17407710,19275486,-786,3800,6508,458,4158,-1862,-2036,2758,-7,37,836
65477,17409584,19243476,17407907,19275683,-699,3800,6235,-267,4320,-1613,-1576,2053,5,47,837
66477,17409576,19243744,17408104,19275880,-559,3800,5875,-873,4408,-1318,-1092,2087,5,47,837
67479,17409576,19244076,17408301,19276077,-524,3800,5781,-1498,4482,-1173,-838,1927,-6,52,838
68480,17409600,19244464,17408498,19276274,-598,3800,5775,-2007,4525,-837,-861,2272,-6,52,838
69481,17409572,19244828,17408695,19276471,-174,3800,5751,-2602,4550,-571,-840,1895,-6,60,838
70481,17409576,19245216,17408892,19276668,-289,3800,5680,-3121,4595,-107,-868,2528,-6,60,838
71483,17409584,19245612,17409089,19276865,-231,3800,5598,-3435,4634,284,-824,3019,-5,69,839
72484,17409584,19246044,17409286,19277062,-94,3800,5477,-3656,4640,383,-560,3408,-5,69,839
73484,17409580,19246516,17409483,19277259,19,3800,5271,-3504,4587,711,-274,5097,11,91,840
74486,17409592,19246972,17409680,19277456,-1,3800,5011,-2985,4487,998,-357,5808,11,91,840
75487,17409592,19247492,17409877,19277653,162,3800,4715,-2391,4355,1229,-49,6002,-3,93,842
76488,17409584,19247956,17410074,19277850,302,3800,4396,-1787,4180,1286,725,6017,-3,93,842
77488,17409608,19248480,17410271,19278047,178,3800,4084,-1363,4007,1408,839,5594,3,97,841
78489,17409616,19248968,17410468,19278244,361,3800,3811,-1065,3844,1621,780,5182,3,97,841
79491,17409624,19249556,17410665,19278441,444,3800,3550,-916,3634,1600,879,4628,18,86,842
80491,17409640,19250060,17410862,19278638,474,3800,3233,-863,3306,1613,1428,4355,18,86,842
81492,17409644,19250528,17411059,19278835,633,3800,2812,-730,2918,1776,1613,4633,0,102,840
82493,17409652,19251044,17411256,19279032,692,3800,2388,-616,2591,1943,1675,4390,0,102,840
83494,17409672,19251548,17411453,19279229,695,3800,1991,-528,2323,1913,1928,4140,10,84,841
84495,17409696,19252072,17411650,19279426,746,3800,1611,-770,2085,1766,2256,3014,10,84,841
85496,17409756,19252624,17411847,19279623,582,3800,1201,-1197,1870,1602,2386,2707,5,104,840
86497,17409820,19253196,17412044,19279820,616,3800,748,-1662,1646,1307,2682,2380,5,104,840
87499,17409888,19253664,17412241,19280017,648,3800,369,-2320,1439,907,2535,1570,27,91,841
88499,17409972,19254120,17412438,19280214,598,3800,64,-2997,1288,507,2240,1673,27,91,841
89500,17410048,19254664,17412635,19280411,701,3800,-208,-3580,1139,-183,2084,1945,16,92,840
90501,17410104,19255272,17412832,19280608,889,3800,-459,-4054,914,-1024,1635,2300,16,92,840
91503,17410184,19255908,17413029,19280805,791,3800,-692,-4363,715,-1658,945,2589,24,120,841
92503,17410292,19256612,17413226,19281002,656,3800,-862,-4773,672,-1819,1086,2203,24,120,841
93511,17410384,19257348,17413456,19281232,1843,3800,-976,-5112,754,-1995,1171,2589,35,149,840
94505,17410460,19258144,17413653,19281429,1996,3800,-1013,-5405,883,-2471,840,2452,35,149,840
95507,17410604,19258972,17413850,19281626,1595,3800,-941,-5814,1064,-2824,19,2171,17,149,843
96507,17410764,19259796,17414047,19281823,1511,3800,-776,-6152,1346,-2999,-667,2459,17,149,843
97508,17410980,19260556,17414244,19282020,1154,3800,-573,-6299,1720,-3318,-993,2970,33,155,839
98509,17411164,19261304,17414441,19282217,1361,3800,-364,-6190,2099,-3614,-987,3757,33,155,839
99510,17411372,19262060,17414638,19282414,1206,3800,-239,-5779,2393,-3647,-668,4921,39,141,841
100511,17411612,19262820,17414835,19282611,988,3800,-175,-5045,2632,-3376,-241,5783,39,141,841
101512,17411824,19263688,17415032,19282808,1156,3800,-163,-4124,2822,-3080,299,6128,48,150,840
102513,17412068,19264316,17415229,19283005,937,3800,-164,-3210,2965,-2988,827,6219,48,150,840
103514,17412296,19265016,17415426,19283202,1024,3800,-127,-2421,3098,-2789,1261,5929,62,152,841
104516,17412500,19265628,17415623,19283399,1171,3800,-23,-1748,3164,-2467,1738,5407,62,152,841
105517,17412728,19266236,17415820,19283596,1008,3800,171,-1288,3141,-2395,2092,4875,59,116,842
106518,17412972,19266792,17416017,19283793,888,3800,418,-958,3059,-2314,2185,4588,59,116,842
107519,17413164,19267292,17416214,19283990,1216,3800,659,-635,2959,-1793,1932,4677,62,102,840
108520,17413356,19267768,17416411,19284187,1219,3800,831,-183,2889,-967,1833,5098,62,102,840
109521,17413596,19268176,17416608,19284384,900,3800,938,278,2853,-182,1735,4971,48,89,840
110522,17413816,19268560,17416805,19284581,1016,3800,969,589,2804,586,1857,4514,48,89,840
111523,17414028,19268912,17417002,19284778,1059,3800,933,748,2694,1277,2169,4181,39,73,838
112524,17414260,19269232,17417199,19284975,920,3800,847,880,2479,1680,2478,3832,39,73,838
113525,17414444,19269512,17417396,19285172,1226,3800,722,823,2140,1936,2548,3301,51,66,837
114526,17414644,19269760,17417593,19285369,1125,3800,552,678,1726,2241,2588,3157,51,66,837
115527,17414836,19270000,17417790,19285566,1179,3800,325,590,1365,2632,2612,3280,35,47,835
116528,17415016,19270184,17417987,19285763,1261,3800,42,511,1060,3036,2583,3204,35,47,835
117529,17415160,19270312,17418184,19285960,1510,3800,-304,443,765,3298,2470,3304,41,45,836
118530,17415320,19270416,17418381,19286157,1427,3800,-673,362,509,3404,2190,2903,41,45,836
119531,17415516,19270512,17418578,19286354,1203,3800,-1082,211,293,3382,1886,2698,45,22,835
120532,17415660,19270560,17418775,19286551,1551,3800,-1525,58,126,2900,1307,2987,45,22,835
121533,17415804,19270616,17418972,19286748,1576,3800,-1960,61,23,1977,574,3357,41,5,834
122534,17415948,19270628,17419169,19286945,1600,3800,-2351,-58,-70,1325,227,2699,41,5,834
123535,17416072,19270648,17419366,19287142,1757,3800,-2666,-319,-156,1187,4,2440,31,-1,833
124536,17416200,19270648,17419563,19287339,1763,3800,-2939,-547,-253,1173,34,2444,31,-1,833
125537,17416316,19270648,17419760,19287536,1874,3800,-3155,-923,-347,1425,23,1659,30,10,831
126538,17416452,19270664,17419957,19287733,1777,3800,-3320,-1454,-388,1829,-205,1386,30,10,831
127539,17416568,19270680,17420154,19287930,1938,3800,-3478,-1892,-338,1880,-495,1707,37,-4,832
128540,17416684,19270676,17420351,19288127,1974,3800,-3866,-2398,-134,813,-1706,2702,37,-4,832
129541,17416788,19270700,17420548,19288324,2091,3800,-4020,-2525,6,72,-2111,2839,14,-6,832
130542,17416880,19270704,17420745,19288521,2213,3800,-4109,-2616,121,-397,-2170,2947,14,-6,832
131543,17416964,19270736,17420942,19288718,2314,3800,-4102,-2780,188,-803,-1970,2843,27,-4,831
132544,17417028,19270740,17421139,19288915,2497,3800,-4012,-3018,237,-990,-1770,2876,27,-4,831
133545,17417060,19270760,17421336,19289112,2771,3800,-3878,-3193,303,-782,-1746,3169,26,-3,830
134546,17417104,19270796,17421533,19289309,2764,3800,-3718,-3286,387,-637,-1912,3371,26,-3,830
135547,17417120,19270816,17421730,19289506,3019,3800,-3520,-3353,466,-675,-2081,3563,-2,11,825
136548,17417136,19270844,17421927,19289703,3100,3800,-3274,-3459,524,-723,-2132,3625,-2,11,825
137549,17417160,19270836,17422124,19289900,3127,3800,-3020,-3485,585,-790,-2220,4144,-6,8,825
138550,17417176,19270832,17422321,19290097,3257,3800,-2786,-3339,649,-961,-2205,4677,-6,8,825
139551,17417196,19270844,17422518,19290294,3311,3800,-2570,-3169,677,-1062,-1982,4817,-3,11,824
140552,17417256,19270888,17422715,19290491,3122,3800,-2353,-2986,683,-869,-1788,5214,-3,11,824
141553,17417324,19270920,17422912,19290688,3130,3800,-2155,-2723,672,-663,-1497,5469,14,14,824
142554,17417392,19270952,17423109,19290885,3188,3800,-1969,-2476,618,-560,-1248,5442,14,14,824
143555,17417476,19270988,17423306,19291082,3139,3800,-1804,-2260,526,-561,-1068,5460,6,13,825
144555,17417580,19271036,17423503,19291279,3055,3800,-1658,-2094,435,-438,-1030,5569,6,13,825
145557,17417676,19271076,17423700,19291476,3151,3800,-1533,-1859,364,-181,-1017,5768,18,12,825
146557,17417860,19271168,17423897,19291673,2607,3800,-1437,-1682,318,-3,-1020,5828,18,12,825
147559,17418012,19271184,17424094,19291870,2828,3800,-1377,-1524,301,70,-1091,5925,19,17,825
148560,17418192,19271240,17424291,19292067,2662,3800,-1353,-1368,318,38,-1164,6055,19,17,825
149561,17418320,19271284,17424488,19292264,3019,3800,-1352,-1246,355,-18,-1003,5862,31,5,828
150561,17418464,19271336,17424685,19292461,2943,3800,-1352,-1258,387,171,-657,5727,31,5,828
151563,17418568,19271392,17424882,19292658,3235,3800,-1361,-1363,381,800,-241,5985,32,14,828
152563,17418672,19271472,17425079,19292855,3277,3800,-1344,-1569,355,1908,117,6185,32,14,828
153565,17418800,19271560,17425276,19293052,3158,3800,-1279,-1826,305,3009,514,6675,19,16,826
154566,17418920,19271604,17425473,19293249,3244,3800,-1155,-2104,236,3776,651,7614,19,16,826
155567,17419084,19271664,17425670,19293446,2985,3800,-938,-2206,214,3662,294,9245,40,11,822
156567,17419288,19271740,17425867,19293643,2733,3800,-716,-2242,273,2891,-280,9051,40,11,822
157569,17419488,19271824,17426064,19293840,2757,3800,-566,-2389,390,2010,-714,8128,32,26,825
158569,17419628,19271880,17426261,19294037,3159,3800,-462,-2546,547,1303,-973,7995,32,26,825
159571,17419776,19271968,17426458,19294234,3132,3800,-351,-2766,701,778,-945,7107,31,24,827
160571,17419884,19272052,17426655,19294431,3422,3800,-258,-3153,832,638,-664,5261,31,24,827
161573,17419996,19272164,17426852,19294628,3435,3800,-189,-3748,975,674,-422,3816,27,29,826
162573,17420156,19272276,17427049,19294825,3154,3800,-133,-4407,1121,940,-145,3560,27,29,826
163575,17420320,19272376,17427246,19295022,3144,3800,-84,-4848,1288,1161,-144,4006,23,15,824
164576,17420524,19272496,17427443,19295219,2892,3800,-30,-4975,1515,254,-530,4604,23,15,824
165577,17420724,19272608,17427640,19295416,2918,3800,38,-5045,1775,-1063,-1007,4925,36,18,826
166577,17420872,19272756,17427837,19295613,3265,3800,120,-4968,1990,-2133,-912,5494,36,18,826
167578,17420972,19272888,17428034,19295810,3609,3800,266,-4742,2134,-2509,-138,5537,28,34,828
168592,17421036,19273008,17428231,19296007,3800,3800,518,-4660,2178,-2278,722,4576,28,34,828
169593,17421088,19273152,17428428,19296204,3800,3800,854,-4767,2067,-1858,1653,4113,16,37,824
170594,17421144,19273276,17428625,19296401,3800,3800,1215,-4834,1894,-1434,2121,4293,16,37,824
171596,17421208,19273408,17428822,19296598,3800,3800,1543,-4589,1734,-1309,1628,5088,3,27,821
172596,17421284,19273544,17429019,19296795,3800,3800,1820,-4135,1671,-1734,1045,5343,3,27,821
173598,17421388,19273668,17429216,19296992,3800,3800,2085,-3660,1668,-1911,1103,5284,28,17,821
174586,17421520,19273776,17429413,19297189,3784,3800,2325,-3051,1628,-1328,1478,5495,28,17,821
175587,17421716,19273892,17429610,19297386,3387,3800,2541,-2387,1518,-952,1835,5384,19,34,821
176595,17421876,19273984,17429840,19297616,3643,3800,2745,-1866,1365,-1068,1974,5055,19,34,821
177589,17422056,19274092,17430037,19297813,3528,3800,2908,-1398,1210,-1173,1562,5095,55,31,822
178589,17422200,19274188,17430234,19298010,3777,3800,3007,-789,1123,-1157,1006,5434,55,31,822
179604,17422324,19274268,17430431,19298207,3800,3800,3024,-145,1107,-822,588,5266,42,13,822
180604,17422404,19274356,17430628,19298404,3800,3800,2976,245,1061,-160,569,4354,42,13,822
181605,17422512,19274452,17430825,19298601,3800,3800,2919,369,917,584,1040,3269,21,17,820
182606,17422588,19274544,17431022,19298798,3800,3800,2898,237,697,1006,1018,2440,21,17,820
183607,17422752,19274600,17431219,19298995,3800,3800,2851,11,468,928,347,2300,17,18,819
184596,17422952,19274688,17431416,19299192,3626,3800,2731,-135,320,794,-241,2796,17,18,819
185597,17423148,19274756,17431613,19299389,3652,3800,2558,-106,230,846,-333,2735,37,22,822
186598,17423348,19274800,17431810,19299586,3628,3800,2387,-138,120,739,-467,2281,37,22,822
187612,17423492,19274848,17432007,19299783,3800,3800,2251,-281,25,367,-415,2143,42,13,823
188612,17423628,19274896,17432204,19299980,3800,3800,2123,-501,-58,80,-534,2117,42,13,823
189613,17423672,19274924,17432401,19300177,3800,3800,1975,-599,-163,114,-688,2198,14,11,822
190614,17423704,19274964,17432598,19300374,3800,3800,1804,-667,-302,337,-487,2037,14,11,822
191615,17423776,19275028,17432795,19300571,3800,3800,1648,-915,-457,839,-234,1485,20,3,819
192616,17423828,19275076,17432992,19300768,3800,3800,1475,-1089,-600,909,-473,1951,20,3,819
193617,17423920,19275136,17433189,19300965,3800,3800,1281,-1052,-700,311,-583,2384,17,4,820
194618,17424052,19275184,17433386,19301162,3800,3800,1099,-984,-803,117,-163,2167,17,4,820
195619,17424228,19275236,17433583,19301359,3800,3800,941,-978,-956,333,454,1974,26,15,821
196620,17424412,19275292,17433780,19301556,3800,3800,771,-945,-1116,390,785,2235,26,15,821
197621,17424604,19275340,17433977,19301753,3800,3800,569,-887,-1252,266,696,2356,50,11,821
198622,17424788,19275420,17434174,19301950,3800,3800,323,-825,-1338,-174,397,2651,50,11,821
199623,17424900,19275492,17434371,19302147,3800,3800,33,-594,-1351,-239,404,3225,49,24,822
200624,17425028,19275556,17434568,19302344,3800,3800,-259,-308,-1322,226,771,2745,49,24,822
201625,17425116,19275596,17434765,19302541,3800,3800,-507,-328,-1355,720,1281,1763,17,5,818
202626,17425240,19275660,17434962,19302738,3800,3800,-678,-638,-1417,971,1380,1042,17,5,818
203628,17425400,19275724,17435159,19302935,3800,3800,-761,-1180,-1495,847,1267,607,35,19,819
204628,17425584,19275796,17435356,19303132,3800,3800,-816,-1637,-1568,365,927,1040,35,19,819
205629,17425784,19275856,17435553,19303329,3800,3800,-906,-1907,-1577,-99,581,1758,43,20,821
206618,17426056,19275928,17435750,19303526,3755,3800,-1052,-1918,-1515,-91,383,2271,43,20,821
207631,17426224,19275980,17435947,19303723,3800,3800,-1219,-1833,-1384,-230,346,2423,59,15,822
208632,17426396,19276052,17436144,19303920,3800,3800,-1353,-1895,-1252,-474,602,2148,59,15,822
209633,17426516,19276116,17436341,19304117,3800,3800,-1456,-2192,-1183,-26,861,1681,27,25,822
210634,17426712,19276176,17436538,19304314,3800,3800,-1544,-2443,-1124,498,738,1807,27,25,822
211635,17426904,19276236,17436735,19304511,3800,3800,-1634,-2779,-1078,667,856,1511,36,19,821
212636,17427132,19276284,17436932,19304708,3800,3800,-1755,-3008,-1041,485,319,2149,36,19,821
213624,17427452,19276340,17437129,19304905,3460,3800,-1938,-2853,-949,-371,-377,3435,53,19,820
214638,17427696,19276392,17437326,19305102,3800,3800,-2149,-2417,-786,-1051,-853,3945,53,19,820
215627,17427972,19276464,17437523,19305299,3684,3800,-2331,-2061,-646,-863,-462,3453,61,19,822
216627,17428252,19276540,17437720,19305496,3624,3800,-2433,-2200,-539,16,334,2442,61,19,822
217641,17428492,19276588,17437917,19305693,3800,3800,-2555,-2450,-440,1061,856,2541,57,18,822
218630,17428776,19276652,17438114,19305890,3545,3800,-2656,-2749,-337,1184,915,2023,57,18,822
219631,17429096,19276696,17438311,19306087,3268,3800,-2721,-3194,-190,672,683,1917,70,17,824
220632,17429388,19276748,17438508,19306284,3403,3800,-2743,-3348,-81,449,733,2787,70,17,824
221633,17429680,19276812,17438705,19306481,3364,3800,-2850,-3499,-36,676,571,2765,58,5,824
222633,17429964,19276868,17438902,19306678,3376,3800,-3020,-3536,8,1714,1021,3084,58,5,824
223635,17430272,19276948,17439099,19306875,3180,3800,-3223,-3735,78,2471,1628,2554,71,23,823
224635,17430568,19277008,17439296,19307072,3213,3800,-3356,-4113,115,2251,1642,2525,71,23,823
225636,17430884,19277088,17439493,19307269,3038,3800,-3500,-4186,105,1732,1186,3534,65,20,824
226638,17431112,19277160,17439690,19307466,3575,3800,-3658,-4198,55,1918,1201,3467,65,20,824
227639,17431388,19277244,17439887,19307663,3242,3800,-3808,-4291,-20,2608,1390,3088,62,24,825
228640,17431664,19277344,17440084,19307860,3209,3800,-3938,-4444,-60,2696,942,3432,62,24,825
229641,17431936,19277428,17440281,19308057,3203,3800,-4104,-4352,-98,2051,283,4537,49,26,824
230642,17432244,19277540,17440478,19308254,2931,3800,-4312,-4051,-143,1876,-410,4768,49,26,824
231643,17432520,19277632,17440675,19308451,3097,3800,-4453,-3872,-173,2461,-716,4057,53,32,825
232644,17432892,19277760,17440872,19308648,2422,3800,-4578,-3778,-186,3199,-779,4236,53,32,825
233644,17433156,19277860,17441069,19308845,3069,3800,-4674,-3651,-192,3049,-1266,4486,58,17,827
234645,17433552,19277976,17441266,19309042,2158,3800,-4781,-3438,-177,2388,-2322,4949,58,17,827
235647,17433948,19278104,17441463,19309239,2072,3800,-4892,-3045,-111,2223,-2996,5293,65,34,829
236648,17434364,19278260,17441660,19309436,1853,3800,-4920,-2894,-109,2690,-2220,4179,65,34,829
237649,17434708,19278412,17441857,19309633,2239,3800,-4848,-2932,-204,3552,-1343,3984,73,26,829
238649,17435124,19278576,17442054,19309830,1694,3800,-4803,-2987,-334,3769,-1326,4235,73,26,829
239651,17435484,19278780,17442251,19310027,1974,3800,-4880,-2719,-412,3803,-1521,5455,83,45,832
240652,17435820,19278956,17442448,19310224,2064,3800,-4894,-2488,-430,3611,-1655,4490,83,45,832
241653,17436212,19279152,17442645,19310421,1630,3800,-4774,-2501,-447,3672,-1572,4316,71,43,834
242653,17436560,19279352,17442842,19310618,1840,3800,-4608,-2545,-483,3887,-1400,4614,71,43,834
243655,17436964,19279536,17443039,19310815,1400,3800,-3578,-1550,-355,3198,-3029,13828,70,41,832
244656,17437356,19279736,17443236,19311012,1390,3800,-792,3291,289,655,-6110,32767,70,41,832
245657,17437712,19279924,17443433,19311209,1547,3800,1339,5660,580,3838,-946,7571,59,34,832
246658,17438060,19280116,17443630,19311406,1531,3800,1816,4865,422,4877,662,1443,59,34,832
247659,17438448,19280328,17443827,19311603,1198,3800,1483,2909,252,5374,94,786,56,46,833
248660,17438780,19280572,17444024,19311800,1490,3800,1402,1547,172,5395,105,1366,56,46,833
249660,17439100,19280816,17444221,19311997,1512,3800,1456,987,205,4872,-220,2462,67,40,835
250661,17439472,19281092,17444418,19312194,1111,3800,1537,870,315,4685,-911,3087,67,40,835
251663,17439816,19281340,17444615,19312391,1222,3800,1468,913,353,4348,-1006,3462,69,46,835
252664,17440128,19281632,17444812,19312588,1373,3800,1317,1109,363,3182,-1589,4089,69,46,835
253665,17440420,19281920,17445009,19312785,1457,3800,1080,1474,354,2190,-2221,4879,68,59,835
254666,17440720,19282232,17445206,19312982,1363,3800,842,1984,326,1141,-2733,4994,68,59,835
255667,17440960,19282524,17445403,19313179,1720,3800,763,2412,349,201,-2797,4863,57,49,835
256667,17441224,19282828,17445600,19313376,1541,3800,716,3134,414,-107,-2840,6080,57,49,835
257669,17441484,19283128,17445797,19313573,1539,3800,643,4094,505,-636,-2683,6318,58,70,835
258669,17441736,19283512,17445994,19313770,1566,3800,538,4987,645,-1022,-2433,6314,58,70,835
259678,17441940,19283876,17446224,19314000,1878,3800,437,5761,790,-932,-2235,5684,45,68,835
260672,17442156,19284232,17446421,19314197,1796,3800,379,6163,939,-1047,-2015,4723,45,68,835
261673,17442368,19284712,17446618,19314394,1815,3800,361,6479,1134,-1336,-2039,4671,39,65,835
262673,17442564,19285172,17446815,19314591,1916,3800,363,6641,1372,-1550,-2156,4165,39,65,835
263675,17442792,19285616,17447012,19314788,1703,3800,429,6715,1614,-1575,-1722,3783,53,84,835
264676,17443004,19286120,17447209,19314985,1797,3800,558,6709,1839,-1376,-831,3288,53,84,835
265677,17443184,19286660,17447406,19315182,2006,3800,718,6414,2052,-1151,-311,2602,55,88,835
266677,17443384,19287168,17447603,19315379,1881,3800,852,5974,2271,-970,69,2356,55,88,835
267679,17443576,19287804,17447800,19315576,1933,3800,975,5398,2507,-840,616,1885,39,101,835
268680,17443768,19288340,17447997,19315773,1936,3800,1090,4771,2732,-643,819,1837,39,101,835
269681,17443948,19289016,17448194,19315970,2019,3800,1182,4189,2947,-792,832,1945,52,106,835
270682,17444148,19289596,17448391,19316167,1894,3800,1287,3636,3158,-1178,907,1916,52,106,835
271683,17444328,19290296,17448588,19316364,2028,3800,1386,3065,3359,-1077,805,2051,31,127,836
272684,17444560,19291016,17448785,19316561,1687,3800,1475,2578,3546,-993,832,2249,31,127,836
273685,17444772,19291836,17448982,19316758,1807,3800,1537,2075,3722,-1171,846,2372,52,131,837
274685,17444964,19292560,17449179,19316955,1935,3800,1580,1650,3888,-1030,867,2559,52,131,837
275687,17445184,19293420,17449376,19317152,1751,3800,1611,1360,4048,-980,994,2912,36,137,837
276688,17445404,19294196,17449573,19317349,1742,3800,1648,1212,4179,-1069,1305,3172,36,137,837
277689,17445652,19295128,17449770,19317546,1544,3800,1673,1135,4271,-1058,1229,3329,54,165,838
278689,17445916,19296112,17449967,19317743,1416,3800,1683,1127,4377,-1089,965,3506,54,165,838
279690,17446144,19296932,17450164,19317940,1628,3800,1679,1206,4514,-916,789,3709,45,155,839
280691,17446392,19297844,17450361,19318137,1482,3800,1618,1411,4645,-748,565,4142,45,155,839
281692,17446616,19298744,17450558,19318334,1620,3800,1495,1717,4780,-872,-384,4475,61,180,840
282693,17446876,19299688,17450755,19318531,1368,3800,1404,2055,4895,-710,-1032,4083,61,180,840
283682,17447112,19300760,17450952,19318728,1502,3782,1379,2281,4872,-526,-1228,3654,55,184,841
284696,17447392,19301676,17451149,19318925,1192,3800,1393,2424,4670,-381,-1328,3533,55,184,841
285697,17447676,19302568,17451346,19319122,1128,3800,1414,2473,4379,112,-1514,3112,69,186,841
286685,17447892,19303520,17451543,19319319,1546,3588,1428,2411,4136,814,-1873,2550,69,186,841
287686,17448124,19304464,17451740,19319516,1432,3313,1416,2370,3968,1362,-2062,2658,67,178,842
288687,17448356,19305340,17451937,19319713,1417,3443,1405,2321,3847,1739,-2327,2320,67,178,842
289688,17448488,19306336,17452134,19319910,2071,2344,1406,2284,3740,2053,-3018,2215,50,172,840
290689,17448684,19307180,17452331,19320107,1672,3012,1451,2182,3583,2326,-3652,1716,50,172,840
291690,17448952,19307940,17452528,19320304,1192,3293,1562,1808,3322,2383,-3616,1009,58,157,841
292691,17449156,19308804,17452725,19320501,1589,2352,1730,1383,2901,2252,-3183,855,58,157,841
293692,17449376,19309488,17452922,19320698,1480,3265,1924,978,2348,2046,-2869,636,68,158,842
294693,17449592,19310344,17453119,19320895,1497,1902,2077,789,1747,1959,-2157,1345,68,158,842
295694,17449772,19311008,17453316,19321092,1730,2899,2143,891,1198,1728,-1691,1942,50,154,845
296695,17449960,19311664,17453513,19321289,1685,2749,2057,1233,746,1518,-2079,2510,50,154,845
297696,17450120,19312200,17453710,19321486,1877,3352,1892,1592,315,1493,-1158,2225,55,142,846
298697,17450288,19312824,17453907,19321683,1840,2617,1709,1673,-224,1396,208,1537,55,142,846
299698,17450460,19313304,17454104,19321880,1827,3393,1550,1466,-918,1257,1307,789,46,108,842
300699,17450608,19313872,17454301,19322077,1999,2682,1464,1044,-1778,792,1583,-74,46,108,842
301700,17450748,19314324,17454498,19322274,2074,3297,1377,569,-2634,325,1211,70,25,92,840
302701,17450864,19314744,17454695,19322471,2261,3400,1216,305,-3287,-92,1013,823,25,92,840
303702,17450992,19315184,17454892,19322668,2217,3170,947,315,-3623,-126,-614,1708,20,72,840
304703,17451116,19315628,17455089,19322865,2275,3038,685,428,-3671,-115,-1658,2022,20,72,840
305704,17451208,19316048,17455286,19323062,2522,3091,431,505,-3539,-157,-1677,1890,42,88,835
306705,17451340,19316500,17455483,19323259,2301,2781,217,302,-3324,-665,-1363,1150,42,88,835
307706,17451464,19316916,17455680,19323456,2384,2911,57,-198,-3100,-1077,-1062,507,38,75,837
308707,17451556,19317288,17455877,19323653,2631,3110,-73,-829,-2909,-1191,-763,101,38,75,837
309708,17451656,19317740,17456074,19323850,2625,2500,-198,-1612,-2708,-1309,-528,-166,38,89,838
310709,17451780,19318188,17456271,19324047,2507,2415,-372,-2327,-2428,-1323,-510,331,38,89,838
311710,17451888,19318656,17456468,19324244,2647,2172,-615,-2814,-1988,-1524,-1029,1205,36,94,834
312711,17451972,19318992,17456665,19324441,2848,2937,-1225,-2594,-1208,-1363,-2473,4126,36,94,834
313712,17452112,19319308,17456862,19324638,2524,3011,-1994,-1987,-239,-1676,-2939,4082,17,64,837
314713,17452212,19319664,17457059,19324835,2818,2692,-2299,-2240,372,-2479,-1006,1412,17,64,837
315714,17452316,19320108,17457256,19325032,2834,2034,-2430,-2740,776,-2333,-657,2865,40,73,834
316715,17452468,19320644,17457453,19325229,2555,1311,-3224,-2373,1419,-1450,-834,6395,40,73,834
317716,17452584,19321108,17457650,19325426,2817,1645,-4229,-1598,2176,-1569,-187,5749,25,97,835
318717,17452744,19321452,17457847,19325623,2559,2331,-4803,-1448,2565,-2463,1177,3992,25,97,835
319718,17452876,19321992,17458044,19325820,2764,956,-4706,-1897,2726,-2671,1014,4146,25,99,842
320719,17453040,19322500,17458241,19326017,2579,1020,-381,-3922,3014,-1713,749,32767,25,99,842
321720,17453208,19322968,17458438,19326214,2568,1152,6022,-3470,3419,4024,-1980,32767,40,94,839
322720,17453360,19323480,17458635,19326411,2689,739,6607,642,4260,328,-2026,23197,40,94,839
323722,17453560,19323928,17458832,19326608,2388,1029,3686,4075,4890,-1691,-339,11596,51,103,843
324723,17453744,19324324,17459029,19326805,2495,1267,1842,5091,5032,-2236,351,4171,51,103,843
325724,17453912,19324828,17459226,19327002,2609,458,1876,3096,4978,-2388,880,-752,31,98,843
326725,17454104,19325248,17459423,19327199,2462,885,2493,1139,4896,-1571,399,511,31,98,843
327726,17454280,19325636,17459620,19327396,2572,1002,2771,-166,4913,-1296,663,642,44,72,843
328727,17454468,19325988,17459817,19327593,2502,1159,2690,-917,5106,-466,962,1921,44,72,843
329728,17454672,19326336,17460014,19327790,2400,1117,2325,-768,5361,335,427,3980,42,72,843
330729,17454840,19326664,17460211,19327987,2639,1186,2068,-946,5557,-251,937,2738,42,72,843
331730,17455032,19326924,17460408,19328184,2492,1583,1782,-1058,5553,151,2160,4153,33,71,843
332731,17455260,19327220,17460605,19328381,2254,1315,1560,-1052,5440,511,2441,3354,33,71,843
333732,17455468,19327504,17460802,19328578,2376,1351,1467,-1449,5218,-50,3631,2167,50,60,842
334733,17455676,19327740,17460999,19328775,2372,1635,1411,-1531,4677,-466,4264,3324,50,60,842
335734,17455884,19327980,17461196,19328972,2368,1591,1345,-1789,3687,-929,6171,2380,52,57,843
336735,17456092,19328204,17461393,19329169,2364,1680,1182,-1622,2551,-575,6625,4271,52,57,843
337736,17456324,19328380,17461590,19329366,2200,1989,945,-1077,1559,-216,6141,4260,32,49,842
338737,17456496,19328604,17461787,19329563,2587,1677,664,-672,861,357,4918,4251,32,49,842
339738,17456740,19328796,17461984,19329760,2117,1879,383,33,414,708,3558,4877,33,38,841
340739,17456964,19328968,17462181,19329957,2231,2016,176,320,35,482,3110,3165,33,38,841
341740,17457164,19329088,17462378,19330154,2381,2375,65,358,-425,666,3180,2641,42,23,841
342750,17457408,19329240,17462608,19330384,2101,2209,0,234,-911,731,3257,1873,42,23,841
343742,17457632,19329364,17462805,19330581,2215,2416,5,-84,-1375,994,3472,1100,43,18,841
344743,17457808,19329492,17463002,19330778,2525,2422,0,-172,-1811,1189,3334,1605,43,18,841
345744,17457992,19329640,17463199,19330975,2482,2319,-12,-211,-2191,670,3129,1392,40,37,839
346745,17458144,19329772,17463396,19331172,2703,2448,-91,-184,-2502,687,2577,1853,40,37,839
347746,17458304,19329944,17463593,19331369,2670,2209,-249,-35,-2679,1035,1379,1941,43,26,837
348747,17458464,19330088,17463790,19331566,2687,2408,-492,121,-2680,924,286,1989,43,26,837
349748,17458584,19330260,17463987,19331763,2972,2244,-812,444,-2658,513,14,2341,28,31,836
350749,17458728,19330424,17464184,19331960,2846,2309,-1127,517,-2663,257,-71,1518,28,31,836
351750,17458892,19330568,17464381,19332157,2737,2457,-1404,519,-2678,383,-206,1387,18,36,836
352751,17459044,19330700,17464578,19332354,2832,2561,-1635,605,-2696,80,-465,1436,18,36,836
353752,17459176,19330828,17464775,19332551,2987,2617,-1824,545,-2715,-496,-754,1205,21,23,836
354753,17459348,19330976,17464972,19332748,2749,2513,-1980,605,-2735,-506,-888,1379,21,23,836
355754,17459512,19331108,17465169,19332945,2814,2643,-2109,754,-2739,-643,-957,1256,38,35,833
356755,17459664,19331248,17465366,19333142,2910,2618,-2199,937,-2764,-1002,-867,1417,38,35,833
357756,17459824,19331380,17465563,19333339,2878,2696,-2282,1114,-2803,-1344,-734,1402,26,18,834
358757,17460004,19331504,17465760,19333536,2761,2779,-2352,1180,-2815,-1443,-1043,1226,26,18,834
359758,17460184,19331632,17465957,19333733,2769,2785,-2414,1510,-2791,-1353,-1645,1962,29,20,834
360759,17460368,19331732,17466154,19333930,2752,3003,-2447,1851,-2726,-1925,-1944,1740,29,20,834
361760,17460520,19331852,17466351,19334127,2973,2912,-2406,2011,-2675,-2059,-2036,1512,25,29,834
362761,17460708,19331916,17466548,19334324,2753,3321,-2332,2162,-2654,-1731,-1922,1647,25,29,834
363762,17460880,19332020,17466745,19334521,2865,3113,-2226,2346,-2620,-1818,-1849,1780,31,27,833
364763,17461092,19332088,17466942,19334718,2609,3394,-2105,2533,-2578,-2025,-1955,1906,31,27,833
365764,17461276,19332180,17467139,19334915,2791,3291,-1923,2539,-2520,-1986,-2090,1411,44,29,831
366765,17461472,19332288,17467336,19335112,2717,3231,-1737,2506,-2434,-1666,-1954,1521,44,29,831
367766,17461664,19332372,17467533,19335309,2746,3431,-1577,2461,-2367,-1537,-1582,1404,35,27,830
368767,17461824,19332468,17467730,19335506,2963,3401,-1413,2206,-2334,-1719,-1305,1003,35,27,830
369768,17462008,19332576,17467927,19335703,2821,3366,-1238,1900,-2327,-1606,-1113,1233,28,29,831
370769,17462196,19332664,17468124,19335900,2801,3540,-1064,1595,-2337,-1430,-1085,1233,28,29,831
371770,17462388,19332768,17468321,19336097,2779,3480,-915,1308,-2333,-1419,-1295,1502,33,18,829
372771,17462568,19332884,17468518,19336294,2862,3442,-808,1099,-2277,-1453,-1534,1922,33,18,829
373772,17462772,19332992,17468715,19336491,2710,3532,-715,845,-2171,-1297,-1600,1913,44,30,827
374773,17462944,19333096,17468912,19336688,2922,3598,-636,615,-2040,-955,-1498,2069,44,30,827
375774,17463136,19333184,17469109,19336885,2800,3747,-566,285,-1916,-1042,-1360,1994,29,17,829
376775,17463332,19333300,17469306,19337082,2778,3609,-494,-199,-1810,-956,-1242,1894,29,17,829
377776,17463520,19333400,17469503,19337279,2833,3751,-453,-667,-1708,-641,-1204,2046,50,25,825
378777,17463740,19333508,17469700,19337476,2624,3741,-443,-1113,-1583,-531,-1038,2095,50,25,825
379791,17463936,19333612,17469897,19337673,2775,3800,-482,-1569,-1458,-496,-925,2238,53,31,828
380792,17464140,19333700,17470094,19337870,2723,3800,-570,-1993,-1339,-386,-781,2569,53,31,828
381793,17464328,19333812,17470291,19338067,2828,3800,-703,-2346,-1205,-202,-563,2869,30,19,828
382794,17464532,19333916,17470488,19338264,2726,3800,-877,-2651,-1061,-56,-578,2995,30,19,828
383795,17464704,19334044,17470685,19338461,2938,3800,-1060,-3034,-934,-121,-541,2877,32,19,828
384796,17464876,19334168,17470882,19338658,2951,3800,-1251,-3426,-814,-148,-297,2950,32,19,828
385797,17465076,19334288,17471079,19338855,2776,3800,-1439,-3886,-711,-1,16,2771,28,18,827
386798,17465268,19334416,17471276,19339052,2829,3800,-1627,-4362,-651,-91,492,2807,28,18,827
387799,17465448,19334536,17471473,19339249,2912,3800,-1800,-4860,-614,-268,870,2847,29,27,827
388800,17465620,19334652,17471670,19339446,2974,3800,-1957,-5445,-583,-359,1097,2718,29,27,827
389800,17465812,19334784,17471867,19339643,2852,3800,-2129,-6018,-540,-445,1098,3257,40,36,826
390802,17465968,19334912,17472064,19339840,3097,3800,-2369,-6323,-459,-545,1059,4216,40,36,826
391803,17466152,19335024,17472261,19340037,2929,3800,-2628,-6523,-363,-632,1071,4401,28,38,826
392804,17466312,19335192,17472458,19340234,3096,3800,-2869,-6618,-269,-852,1026,4939,28,38,826
393804,17466484,19335336,17472655,19340431,3033,3800,-3080,-6722,-196,-1188,1105,5053,23,38,825
394805,17466624,19335500,17472852,19340628,3259,3800,-3277,-6898,-156,-1315,1200,4851,23,38,825
395807,17466832,19335668,17473049,19340825,2831,3800,-3447,-7161,-128,-1480,1143,4840,42,28,825
396808,17466984,19335840,17473246,19341022,3202,3800,-3108,-7598,-150,-1275,1503,8458,42,28,825
397809,17467156,19336000,17473443,19341219,3089,3800,-667,-8552,-457,1289,2629,28446,45,44,825
398797,17467356,19336196,17473640,19341416,2914,3759,1507,-8506,-706,744,1025,19793,45,44,825
399798,17467540,19336420,17473837,19341613,3021,3574,1510,-7389,-525,-719,435,9598,27,39,825
400799,17467744,19336644,17474034,19341810,2894,3563,408,-5691,-193,-985,374,9524,27,39,825
401800,17467972,19336848,17474231,19342007,2732,3686,-592,-4307,-45,-1624,1085,8287,40,45,826
402801,17468208,19337036,17474428,19342204,2666,3791,-1088,-3787,-156,-2134,1498,6181,40,45,826
403802,17468408,19337244,17474625,19342401,2891,3662,-1288,-3661,-387,-2177,1550,5064,41,47,829
404803,17468616,19337436,17474822,19342598,2837,3765,-1407,-3884,-531,-1988,1152,4095,41,47,829
405804,17468872,19337688,17475019,19342795,2512,3367,-1612,-4016,-515,-1335,677,4601,56,39,829
406805,17469124,19337936,17475216,19342992,2514,3370,-1815,-4062,-379,-1032,498,4035,56,39,829
407806,17469392,19338196,17475413,19343189,2384,3269,-1873,-4577,-229,-962,288,2401,60,45,829
408807,17469672,19338480,17475610,19343386,2274,3081,-1824,-5281,-116,-808,-280,2180,60,45,829
409808,17469936,19338756,17475807,19343583,2346,3098,-1686,-6239,41,-877,-627,1395,65,48,832
410809,17470212,19339080,17476004,19343780,2237,2743,-1477,-7221,226,-683,-874,1358,65,48,832
411810,17470504,19339388,17476201,19343977,2096,2794,-1275,-7907,407,-642,-1172,1941,44,57,834
412811,17470788,19339680,17476398,19344174,2109,2853,-1088,-8555,571,-839,-1069,2220,44,57,834
413812,17471052,19339960,17476595,19344371,2205,2893,-994,-8798,691,-651,-1033,3456,57,61,837
414812,17471364,19340264,17476792,19344568,1856,2697,-986,-8718,784,-535,-856,4260,57,61,837
415814,17471656,19340572,17476989,19344765,1940,2624,-1040,-8416,892,-340,-553,5131,65,62,838
416815,17471924,19340920,17477186,19344962,2060,2309,-1131,-7834,985,123,-147,5906,65,62,838
417816,17472192,19341208,17477383,19345159,2030,2644,-1209,-7248,1038,374,417,5954,65,70,839
418817,17472452,19341504,17477580,19345356,2053,2551,-1249,-6544,1040,466,892,6393,65,70,839
419818,17472752,19341792,17477777,19345553,1759,2562,-1240,-5916,958,581,1162,5931,51,52,840
420819,17473000,19342092,17477974,19345750,2062,2443,-1176,-5481,822,761,1255,5730,51,52,840
421820,17473276,19342364,17478171,19345947,1854,2585,-1080,-5085,667,938,1434,5615,42,56,839
422821,17473552,19342628,17478368,19346144,1820,2607,-938,-4789,513,1207,1507,5090,42,56,839
423822,17473836,19342900,17478565,19346341,1733,2525,-805,-4552,397,1511,1288,5155,48,52,839
424823,17474152,19343160,17478762,19346538,1481,2572,-698,-4294,350,1834,1064,5230,48,52,839
425831,17474428,19343400,17478992,19346768,1712,2694,-597,-4089,334,2119,1218,4911,67,53,840
426825,17474688,19343648,17479189,19346965,1785,2622,-478,-3951,285,2210,1318,4770,67,53,840
427826,17474976,19343924,17479386,19347162,1571,2412,-362,-3813,247,2292,1135,4657,47,43,841
428827,17475264,19344156,17479583,19347359,1531,2673,-209,-3762,228,2226,1190,4218,47,43,841
429828,17475512,19344424,17479780,19347556,1760,2417,-31,-3835,186,2024,1215,3903,43,61,840
430829,17475816,19344696,17479977,19347753,1364,2360,157,-3920,156,1864,795,4012,43,61,840
431830,17476060,19344968,17480174,19347950,1719,2328,313,-3928,174,1732,247,4124,57,44,841
432831,17476320,19345220,17480371,19348147,1593,2429,439,-3869,239,1542,-232,4179,57,44,841
433832,17476596,19345460,17480568,19348344,1458,2486,548,-3815,314,1336,-390,4175,66,57,842
434833,17476860,19345692,17480765,19348541,1505,2521,635,-3713,391,1196,-487,4200,66,57,842
435834,17477116,19345936,17480962,19348738,1530,2426,700,-3565,490,985,-677,4398,63,50,842
436835,17477368,19346188,17481159,19348935,1531,2352,741,-3314,621,686,-962,4581,63,50,842
437836,17477628,19346456,17481356,19349132,1454,2221,743,-3041,775,531,-1168,4689,66,57,842
438837,17477900,19346716,17481553,19349329,1347,2244,731,-2621,950,356,-1371,4976,66,57,842
439838,17478188,19346984,17481750,19349526,1208,2164,681,-2232,1150,124,-1527,4942,69,44,842
440839,17478500,19347248,17481947,19349723,1007,2159,609,-1752,1370,-123,-1767,5000,69,44,842
441840,17478788,19347516,17482144,19349920,1118,2104,526,-1328,1604,-428,-1899,4785,53,60,844
442841,17479044,19347760,17482341,19350117,1293,2233,463,-1084,1849,-469,-1780,4275,53,60,844
443842,17479312,19348012,17482538,19350314,1187,2160,405,-842,2101,-556,-1739,4236,53,46,844
444843,17479572,19348280,17482735,19350511,1210,2029,341,-702,2379,-857,-1865,4025,53,46,844
445844,17479824,19348484,17482932,19350708,1237,2427,256,-529,2686,-1135,-1882,4196,55,53,843
446845,17480064,19348756,17483129,19350905,1293,1969,162,-304,3012,-1333,-1791,4171,55,53,843
447846,17480280,19349032,17483326,19351102,1436,1909,81,-100,3336,-1431,-1651,3877,42,42,845
448847,17480508,19349292,17483523,19351299,1347,1982,-7,-18,3655,-1344,-1452,3728,42,42,845
449848,17480708,19349504,17483720,19351496,1522,2276,-71,-74,3972,-1280,-1187,3326,50,50,845
450849,17480896,19349736,17483917,19351693,1602,2137,-130,-249,4275,-1284,-952,3179,50,50,845
451850,17481108,19349988,17484114,19351890,1445,1987,-143,-460,4540,-1164,-620,2910,49,35,845
452851,17481296,19350220,17484311,19352087,1600,2097,-148,-760,4770,-953,-343,2755,49,35,845
453852,17481468,19350460,17484508,19352284,1711,2029,-157,-959,4992,-715,-416,3012,36,50,843
454853,17481620,19350680,17484705,19352481,1857,2144,-200,-1168,5216,-499,-510,3016,36,50,843
455854,17481788,19350900,17484902,19352678,1770,2134,-256,-1364,5418,-295,-520,3088,28,35,842
456855,17481932,19351144,17485099,19352875,1944,1964,-313,-1573,5554,45,-402,3054,28,35,842
457856,17482108,19351412,17485296,19353072,1754,1783,-388,-1810,5630,372,-435,3098,39,46,842
458857,17482256,19351676,17485493,19353269,1951,1779,-483,-1978,5659,593,-570,3313,39,46,842
459858,17482424,19351928,17485690,19353466,1840,1830,-622,-2068,5645,610,-892,3625,26,57,842
460859,17482540,19352212,17485887,19353663,2200,1592,-812,-1957,5588,538,-1292,4168,26,57,842
461860,17482652,19352456,17486084,19353860,2264,1821,-1048,-1790,5483,535,-1298,4349,38,58,843
462860,17482784,19352760,17486281,19354057,2168,1400,-1271,-1662,5343,811,-1229,4329,38,58,843
463862,17482900,19353088,17486478,19354254,2304,1193,-1470,-1562,5177,1389,-943,4224,18,62,843
464863,17483024,19353392,17486675,19354451,2287,1296,-1653,-1534,4991,2045,-709,4114,18,62,843
465864,17483164,19353648,17486872,19354648,2213,1570,-1832,-1509,4776,2500,-908,4169,19,52,842
466865,17483316,19353964,17487069,19354845,2158,1143,-2015,-1381,4523,2662,-1271,4260,19,52,842
467866,17483492,19354288,17487266,19355042,2018,1038,-2182,-1286,4250,2748,-1334,4259,31,52,842
468867,17483640,19354616,17487463,19355239,2216,955,-2321,-1162,3938,2777,-1298,4264,31,52,842
469868,17483820,19354916,17487660,19355436,2024,1085,-2422,-1133,3585,2594,-1227,3951,42,56,844
470869,17483972,19355212,17487857,19355633,2219,1067,-2456,-1170,3214,2531,-895,3686,42,56,844
471870,17484160,19355564,17488054,19355830,1999,648,-2418,-1209,2839,2646,-270,3610,50,53,844
472871,17484340,19355904,17488251,19356027,2057,661,-2325,-1336,2462,2785,174,3253,50,53,844
473872,17484524,19356212,17488448,19356224,2039,812,-2201,-1475,2108,2890,271,3185,48,59,844
474873,17484744,19356476,17488645,19356421,1804,1057,-2115,-1582,1832,2727,28,3174,48,59,844
475874,17484972,19356832,17488842,19356618,1741,412,-2027,-1675,1618,2342,-164,3152,39,62,847
476875,17485192,19357116,17489039,19356815,1782,824,-1943,-1596,1445,1652,-553,3521,39,62,847
477876,17485444,19357444,17489236,19357012,1559,492,-1834,-1413,1297,794,-976,3579,38,67,845
478876,17485656,19357744,17489433,19357209,1802,621,-1688,-1189,1138,253,-946,3635,38,67,845
479878,17485864,19357980,17489630,19357406,1823,1004,-1472,-957,986,-166,-514,3295,43,45,847
480879,17486112,19358268,17489827,19357603,1552,639,-1198,-812,852,-405,17,2799,43,45,847
481880,17486392,19358568,17490024,19357800,1316,519,-942,-650,753,-384,151,2995,48,59,848
482881,17486640,19358856,17490221,19357997,1494,553,-730,-405,741,-613,-57,3045,48,59,848
483882,17486868,19359116,17490418,19358194,1607,700,-561,-68,812,-955,-459,3091,51,46,849
484883,17487136,19359436,17490615,19358391,1325,271,-398,375,933,-1348,-797,3108,51,46,849
485884,17487384,19359720,17490812,19358588,1429,458,-231,823,1097,-1839,-970,3041,57,39,849
486885,17487608,19359848,17491009,19358785,1568,1463,-72,1219,1261,-2000,-1147,2798,57,39,849
487886,17487872,19360056,17491206,19358982,1289,958,93,1539,1383,-2199,-1272,2315,61,43,850
488887,17488104,19360248,17491403,19359179,1474,1060,279,1731,1476,-2308,-1375,1997,61,43,850
489888,17488332,19360448,17491600,19359376,1487,1008,455,1903,1564,-2009,-1376,1761,44,38,845
490889,17488576,19360672,17491797,19359573,1366,847,578,2021,1659,-1695,-1279,1657,44,38,845
491890,17488812,19360884,17491994,19359770,1400,915,653,2241,1749,-1354,-1108,1752,44,48,848
492891,17489028,19361112,17492191,19359967,1517,800,686,2437,1828,-971,-1310,1635,44,48,848
493892,17489276,19361304,17492388,19360164,1295,1028,721,2615,1914,-503,-1523,1567,41,43,849
494893,17489500,19361448,17492585,19360361,1434,1351,767,2680,1997,-200,-1654,1236,41,43,849
495894,17489712,19361660,17492782,19360558,1503,919,842,2572,1997,4,-1510,684,41,34,848
496895,17489936,19361884,17492979,19360755,1417,832,918,2310,1903,303,-1220,445,41,34,848
497896,17490168,19362068,17493176,19360952,1351,1087,1018,2050,1746,594,-1042,367,36,44,847
498897,17490384,19362248,17493373,19361149,1444,1120,1100,1871,1552,990,-938,673,36,44,847
499898,17490588,19362472,17493570,19361346,1517,833,1162,1779,1315,1132,-966,916,52,46,847
500899,17490776,19362700,17493767,19361543,1621,794,1188,1721,1068,1034,-1311,1226,52,46,847
501900,17490936,19362924,17493964,19361740,1813,806,1154,1844,807,862,-1699,1967,29,46,847
502901,17491112,19363100,17494161,19361937,1722,1115,1074,2041,529,733,-1936,1944,29,46,847
503902,17491292,19363296,17494358,19362134,1706,991,1018,2144,204,678,-1951,1496,40,36,847
504903,17491476,19363448,17494555,19362331,1687,1286,986,2074,-201,584,-1574,1264,40,36,847
505904,17491696,19363620,17494752,19362528,1452,1172,933,2041,-667,366,-1407,1727,34,36,846
506905,17491896,19363804,17494949,19362725,1577,1101,817,2180,-1147,35,-1628,2281,34,36,846
507906,17492076,19364012,17495146,19362922,1710,946,634,2391,-1620,-183,-1643,2559,29,43,846
508914,17492260,19364220,17495376,19363152,1706,956,402,2701,-2093,-310,-1633,2993,29,43,846
509908,17492476,19364416,17495573,19363349,1497,1032,410,2529,-2543,-979,-3377,3383,49,30,846
510909,17492640,19364584,17495770,19363546,1838,1219,1513,817,-2872,-3891,-8974,8647,49,30,846
511910,17492832,19364748,17495967,19363743,1666,1258,2590,-569,-3053,-3298,-7110,7483,47,42,846
512910,17493088,19364864,17496164,19363940,1240,1593,2630,-842,-3229,-966,-3098,3482,47,42,846
513912,17493272,19365048,17496361,19364137,1697,1174,2054,-438,-3470,-690,-2354,3440,33,25,846
514913,17493488,19365232,17496558,19364334,1489,1180,1472,-84,-3754,-999,-1989,3248,33,25,846
515914,17493668,19365392,17496755,19364531,1722,1346,1093,-146,-4039,-778,-1931,2593,49,37,846
516915,17493860,19365540,17496952,19364728,1650,1442,806,-404,-4335,-466,-1637,2359,49,37,846
517916,17494056,19365692,17497149,19364925,1626,1436,543,-926,-4589,-330,-1351,1756,44,33,847
518917,17494280,19365792,17497346,19365122,1440,1804,10,-1020,-4642,797,-1901,3728,44,33,847
519918,17494532,19365936,17497543,19365319,1241,1552,-1267,-201,-4258,1178,-3576,6680,51,14,846
520919,17494784,19366020,17497740,19365516,1218,1977,-2301,82,-3931,-145,-3382,2833,51,14,846
521920,17495024,19366136,17497937,19365713,1274,1813,-2788,-674,-3921,176,-1339,1009,38,16,844
522921,17495248,19366260,17498134,19365910,1363,1795,-2948,-2195,-3918,544,-2015,-265,38,16,844
523922,17495484,19366368,17498331,19366107,1272,1934,-3347,-3428,-3735,732,-3214,1158,53,17,845
524923,17495728,19366464,17498528,19366304,1201,2053,-4040,-4109,-3471,765,-3047,2290,53,17,845
525924,17495968,19366588,17498725,19366501,1208,1910,-4832,-4522,-3250,792,-2744,2988,50,21,845
526925,17496192,19366712,17498922,19366698,1296,1942,-5260,-5070,-3078,898,-3381,2701,50,21,845
527926,17496392,19366880,17499119,19366895,1446,1680,-4927,-6667,-3082,1723,-6246,4289,53,25,845
528926,17496616,19367000,17499316,19367092,1284,2014,-4161,-8529,-3170,2130,-5797,7933,53,25,845
530929,17497056,19367280,17499710,19367486,1340,1964,-4224,-9280,-2968,1384,-882,4425,44,27,845
531930,17497312,19367388,17499907,19367683,1040,2178,-4446,-8917,-2762,1283,-962,5371,53,20,843
532931,17497504,19367544,17500104,19367880,1442,1896,-3224,-7503,-2596,1665,-21,15427,53,20,843
533932,17497676,19367684,17500301,19368077,1579,2021,317,-608,-2557,3530,1030,32767,50,25,843
534933,17497900,19367796,17500498,19368274,1242,2234,2812,3340,-2436,626,-897,9643,50,25,843
535934,17498072,19367936,17500695,19368471,1579,2084,3118,2670,-2349,124,-139,1877,28,23,844
536935,17498284,19368072,17500892,19368668,1323,2135,2520,482,-2236,879,-701,1153,28,23,844
537936,17498492,19368220,17501089,19368865,1344,2082,2084,-920,-1997,1367,-1601,2504,47,22,843
538937,17498648,19368384,17501286,19369062,1687,1996,1938,-1171,-1709,1358,-790,3609,42,30,843
539938,17498796,19368520,17501483,19369259,1759,2198,1962,-1240,-1513,2075,303,3194,42,30,843
540939,17498980,19368676,17501680,19369456,1540,2091,1933,-1364,-1401,2677,506,3218,29,32,843
541940,17499164,19368812,17501877,19369653,1547,2244,1842,-1820,-1331,2214,802,2476,29,32,843
542941,17499340,19368952,17502074,19369850,1606,2244,1803,-2450,-1379,1947,662,1901,40,21,841
543942,17499512,19369100,17502271,19370047,1643,2216,1726,-3028,-1434,1838,11,1773,40,21,841
544943,17499700,19369228,17502468,19370244,1547,2371,1679,-3525,-1363,1645,-261,1981,30,37,842
545943,17499888,19369356,17502665,19370441,1552,2401,1622,-3812,-1342,1730,131,2389,30,37,842
546945,17500056,19369540,17502862,19370638,1690,2058,1498,-3849,-1421,1448,53,3027,27,24,842
547946,17500236,19369716,17503059,19370835,1623,2117,1290,-3582,-1446,1284,-521,4028,27,24,842
548947,17500420,19369900,17503256,19371032,1604,2073,1085,-3122,-1477,1246,-459,3815,28,36,843
549948,17500616,19370080,17503453,19371229,1530,2105,882,-2800,-1545,994,-251,3761,28,36,843
550949,17500820,19370232,17503650,19371426,1477,2300,694,-2394,-1579,1045,-283,3789,29,24,843
551950,17501044,19370408,17503847,19371623,1341,2160,497,-2111,-1602,1109,-300,3204,29,24,843
552951,17501232,19370532,17504044,19371820,1571,2518,271,-1821,-1628,1090,-145,3527,33,40,840
553951,17501448,19370716,17504241,19372017,1388,2148,4,-1339,-1648,1065,-22,3982,33,40,840
554953,17501676,19370896,17504438,19372214,1300,2181,-230,-903,-1670,1206,-97,3471,32,39,840
555954,17501860,19371036,17504635,19372411,1581,2457,-417,-486,-1666,1409,-232,3522,32,39,840
556955,17502104,19371188,17504832,19372608,1186,2402,-566,-161,-1645,1400,-328,3137,37,37,843
557956,17502328,19371364,17505029,19372805,1299,2261,-668,-109,-1667,1524,-325,2294,37,37,843
558957,17502560,19371508,17505226,19373002,1235,2484,-731,-185,-1720,1671,-241,2121,54,39,843
559958,17502816,19371696,17505423,19373199,1059,2214,-747,-280,-1737,1812,-249,2058,54,39,843
560959,17503000,19371872,17505620,19373396,1516,2298,-761,-322,-1743,2085,-234,2198,39,28,842
561959,17503208,19372036,17505817,19373593,1361,2388,-769,-348,-1753,2244,-120,2055,39,28,842
562961,17503404,19372180,17506014,19373790,1437,2537,-767,-504,-1768,2585,16,1906,28,30,842
563962,17503616,19372336,17506211,19373987,1331,2480,-758,-699,-1818,2945,17,1757,28,30,842
564963,17503816,19372488,17506408,19374184,1406,2525,-767,-935,-1887,2782,-36,1846,29,34,839
565964,17504036,19372636,17506605,19374381,1270,2571,-798,-1007,-1979,2531,-220,2302,29,34,839
566965,17504264,19372808,17506802,19374578,1208,2433,-844,-1019,-2084,2476,-360,2279,54,33,841
567966,17504464,19372972,17506999,19374775,1382,2498,-897,-929,-2163,2485,-314,2579,54,33,841
568967,17504676,19373152,17507196,19374972,1301,2405,-967,-793,-2212,2430,-291,2782,48,28,841
569968,17504880,19373276,17507393,19375169,1348,2788,-1058,-634,-2250,2144,-447,2896,48,28,841
570969,17505092,19373412,17507590,19375366,1292,2740,-1181,-413,-2259,1802,-660,3331,36,36,842
571970,17505292,19373556,17507787,19375563,1366,2714,-1340,-28,-2238,1468,-846,3716,36,36,842
572971,17505496,19373688,17507984,19375760,1339,2818,-1523,376,-2194,1130,-1016,3897,32,36,840
573972,17505668,19373828,17508181,19375957,1550,2793,-1723,817,-2132,830,-1193,4096,32,36,840
574973,17505852,19374008,17508378,19376154,1481,2552,-1929,1281,-2050,529,-1520,4066,30,33,839
575974,17506004,19374204,17508575,19376351,1701,2452,-2130,1655,-1970,215,-1552,3883,30,33,839
576975,17506172,19374388,17508772,19376548,1614,2534,-2298,1919,-1898,-66,-1456,3649,29,27,839
577976,17506304,19374584,17508969,19376745,1869,2459,-2402,2044,-1816,-221,-1446,3372,29,27,839
578977,17506480,19374756,17509166,19376942,1603,2620,-2499,2047,-1672,-144,-1618,3295,42,31,840
579978,17506624,19374900,17509363,19377139,1827,2819,-2597,2069,-1429,-224,-1846,3311,42,31,840
580979,17506768,19375072,17509560,19377336,1850,2655,-2665,2058,-1182,-550,-1681,3192,36,36,839
581980,17506968,19375252,17509757,19377533,1500,2614,-2673,1875,-974,-810,-1664,2881,36,36,839
582981,17507140,19375456,17509954,19377730,1687,2461,-2651,1609,-773,-948,-1719,2956,24,34,839
583982,17507296,19375644,17510151,19377927,1805,2566,-2618,1402,-549,-1167,-1734,3189,24,34,839
584983,17507452,19375856,17510348,19378124,1824,2409,-2582,1154,-300,-1534,-1815,3299,28,43,840
585984,17507616,19376036,17510545,19378321,1789,2617,-2539,974,-21,-1840,-1924,3625,28,43,840
586985,17507772,19376224,17510742,19378518,1858,2572,-2229,1001,325,-2138,-2136,5735,20,44,839
587986,17507932,19376388,17510939,19378715,1849,2736,-334,3346,987,-3530,-3665,30953,20,44,839
588987,17508084,19376584,17511136,19378912,1920,2538,2372,6451,1734,-3392,-3167,27805,24,42,839
589988,17508240,19376772,17511333,19379109,1913,2592,3585,7005,2147,-2045,-1355,4719,24,42,839
590988,17508400,19376960,17511530,19379306,1905,2596,3478,5642,2295,-1677,-710,1333,24,39,839
591997,17508552,19377180,17511760,19379536,1990,2401,3080,3932,2438,-1210,-864,1077,24,39,839
592990,17508704,19377380,17511957,19379733,2010,2525,2868,2898,2697,-1164,-936,1914,35,42,839
593991,17508864,19377592,17512154,19379930,1977,2444,2782,2134,3041,-1182,-783,1784,35,42,839
594992,17509024,19377816,17512351,19380127,1994,2357,2665,1510,3346,-910,-374,2236,45,52,839
595994,17509188,19378028,17512548,19380324,1984,2426,2509,814,3609,-1219,-221,2234,45,52,839
596995,17509352,19378252,17512745,19380521,2000,2340,2396,57,3840,-1449,-219,2273,21,37,838
597996,17509512,19378488,17512942,19380718,2041,2248,2321,-540,4000,-1620,-64,2798,21,37,838
598997,17509688,19378668,17513139,19380915,1951,2606,2262,-1006,4113,-1987,202,3350,24,41,839
599998,17509852,19378928,17513336,19381112,2042,2079,2174,-1135,4230,-2097,-43,4429,24,41,839
600999,17510024,19379152,17513533,19381309,2003,2292,2086,-1107,4353,-2204,-196,4878,25,54,838
601999,17510200,19379388,17513730,19381506,1988,2200,2003,-965,4367,-2432,525,5301,25,54,838
603000,17510356,19379612,17513927,19381703,2132,2264,1867,-628,4184,-2528,1346,6007,23,44,840
604002,17510520,19379836,17514124,19381900,2096,2253,1758,-336,3914,-2538,1315,5673,23,44,840
605003,17510676,19380084,17514321,19382097,2165,2081,1684,-122,3684,-2272,1139,5650,45,51,839
606004,17510856,19380344,17514518,19382294,2024,1978,1642,92,3537,-2002,1025,5458,45,51,839
607004,17511020,19380568,17514715,19382491,2138,2192,1612,107,3438,-1768,867,4977,35,50,840
608006,17511180,19380764,17514912,19382688,2181,2368,1562,61,3330,-1519,872,4762,35,50,840
609007,17511356,19381020,17515109,19382885,2091,1967,1551,-117,3193,-1340,889,4204,47,44,839
610008,17511524,19381236,17515306,19383082,2155,2209,1596,-440,2998,-1112,910,3869,47,44,839
611008,17511684,19381444,17515503,19383279,2221,2255,1659,-811,2759,-1012,835,3586,29,54,841
612010,17511836,19381688,17515700,19383476,2292,2009,1713,-1262,2566,-886,434,3112,29,54,841
613011,17511980,19381932,17515897,19383673,2366,1989,1730,-1757,2437,-600,-133,3028,33,40,839
614012,17512136,19382160,17516094,19383870,2310,2076,1735,-2218,2365,-485,-402,3165,33,40,839
615013,17512280,19382400,17516291,19384067,2408,1982,1743,-2606,2343,-419,-730,3187,39,49,840
616014,17512448,19382628,17516488,19384264,2272,2043,1760,-2974,2356,-356,-998,3160,39,49,840
617015,17512596,19382828,17516685,19384461,2419,2218,1806,-3346,2390,-423,-1102,2959,22,40,839
618015,17512736,19383100,17516882,19384658,2495,1735,1845,-3699,2394,-594,-896,3068,22,40,839
619016,17512912,19383352,17517079,19384855,2280,1836,1873,-3987,2330,-673,-723,3043,43,42,837
620018,17513072,19383616,17517276,19385052,2397,1733,1880,-4232,2245,-780,-475,3288,43,42,837
621019,17513200,19383856,17517473,19385249,2628,1864,1857,-4204,2190,-931,-429,3956,36,52,840
622020,17513312,19384120,17517670,19385446,2767,1684,1820,-4054,2139,-1124,-213,4099,36,52,840
623020,17513440,19384256,17517867,19385643,2698,2511,1791,-3795,2092,-1261,-60,4357,15,27,839
624022,17513560,19384364,17518064,19385840,2782,2726,1777,-3445,2003,-1537,129,4468,15,27,839
625022,17513692,19384460,17518261,19386037,2736,2846,1782,-3134,1827,-1788,583,4184,19,15,835
626024,17513808,19384572,17518458,19386234,2873,2783,1804,-2828,1578,-2027,1058,4168,19,15,835
627024,17513936,19384712,17518655,19386431,2829,2634,1824,-2495,1365,-2105,1091,4187,34,17,833
628026,17514052,19384840,17518852,19386628,2941,2739,1815,-2136,1244,-2001,916,4250,34,17,833
629027,17514144,19385020,17519049,19386825,3138,2422,1803,-1768,1213,-1985,882,4048,21,39,834
630028,17514296,19385212,17519246,19387022,2784,2350,1810,-1520,1201,-2027,1194,3543,21,39,834
631029,17514460,19385420,17519443,19387219,2724,2245,1826,-1448,1117,-2046,1563,3005,38,35,833
632030,17514612,19385668,17519640,19387416,2820,1973,1816,-1525,968,-2122,1375,2595,38,35,833
633031,17514764,19385900,17519837,19387613,2841,2058,1793,-1665,814,-2032,987,2363,24,58,837
634032,17514892,19386196,17520034,19387810,3022,1615,1751,-1776,687,-1856,1198,2329,24,58,837
635033,17515020,19386492,17520231,19388007,3053,1571,1690,-1919,639,-1598,1379,2308,39,55,836
636034,17515168,19386768,17520428,19388204,2951,1662,1605,-1963,666,-1235,1112,2505,39,55,836
637035,17515284,19387028,17520625,19388401,3188,1735,1500,-1915,758,-993,611,2727,35,61,837
638036,17515416,19387352,17520822,19388598,3117,1279,1398,-1912,903,-829,277,2610,35,61,837
639037,17515544,19387672,17521019,19388795,3174,1250,1282,-1885,1047,-575,278,2695,33,65,836
640038,17515660,19387964,17521216,19388992,3285,1383,1132,-1848,1134,-483,313,2574,33,65,836
641039,17515796,19388224,17521413,19389189,3188,1557,941,-1872,1137,-402,443,2589,38,56,837
642040,17515932,19388560,17521610,19389386,3216,1020,674,-1746,1040,-121,849,3101,38,56,837
643041,17516052,19388880,17521807,19389583,3351,1066,351,-1579,944,469,1108,3336,38,61,836
644042,17516168,19389240,17522004,19389780,3412,745,-38,-1253,891,1141,1314,3865,38,61,836
645043,17516304,19389524,17522201,19389977,3315,1182,-498,-812,839,1493,1461,4287,28,56,837
646044,17516440,19389808,17522398,19390174,3343,1143,-997,-387,726,1771,1581,4231,28,56,837
647045,17516580,19390116,17522595,19390371,3344,945,-1501,-23,547,2110,1589,4104,29,60,837
648046,17516760,19390412,17522792,19390568,3102,976,-1967,207,344,2500,1736,3821,29,60,837
649047,17516912,19390672,17522989,19390765,3299,1173,-2403,297,148,3020,1946,3761,26,44,838
650048,17517092,19390856,17523186,19390962,3133,1654,-2803,380,-55,3375,2118,3718,26,44,838
651049,17517264,19391036,17523383,19391159,3195,1687,-3182,485,-275,3615,2256,3677,29,49,838
652050,17517460,19391256,17523580,19391356,3046,1427,-3524,549,-520,3758,2374,3537,29,49,838
653051,17517624,19391480,17523777,19391553,3261,1391,-3811,504,-802,3734,2510,3447,52,32,836
654052,17517812,19391684,17523974,19391750,3116,1513,-4046,446,-1109,3556,2404,3551,52,32,836
655053,17518020,19391908,17524171,19391947,2989,1376,-4254,475,-1418,3356,2109,3759,35,36,837
656054,17518204,19392124,17524368,19392144,3145,1417,-4444,551,-1699,3052,1902,4041,35,36,837
657055,17518392,19392288,17524565,19392341,3125,1757,-4608,768,-1918,2768,1594,4425,30,47,838
658056,17518608,19392456,17524762,19392538,2943,1745,-4741,1022,-2087,2431,1132,4610,30,47,838
659057,17518800,19392636,17524959,19392735,3096,1677,-4815,1334,-2234,1968,675,4645,33,35,837
660058,17518992,19392884,17525156,19392932,3100,1230,-4838,1628,-2367,1537,435,4824,33,35,837
661059,17519224,19393080,17525353,19393129,2836,1555,-4835,1998,-2493,1090,215,5112,52,48,837
662060,17519396,19393284,17525550,19393326,3223,1502,-4796,2409,-2611,649,113,5224,52,48,837
663061,17519580,19393480,17525747,19393523,3155,1552,-4723,2857,-2714,232,75,5378,42,40,838
664062,17519756,19393648,17525944,19393720,3215,1740,-4629,3271,-2800,-108,62,5427,42,40,838
665063,17519932,19393824,17526141,19393917,3225,1699,-4498,3630,-2848,-357,-144,5370,37,41,836
666064,17520092,19394032,17526338,19394114,3343,1495,-4320,3943,-2839,-457,-440,5288,37,41,836
667065,17520260,19394224,17526535,19394311,3307,1597,-4090,4147,-2804,-587,-480,4886,28,32,836
668066,17520432,19394412,17526732,19394508,3294,1626,-3753,4153,-2790,-836,-293,4775,28,32,836
669067,17520608,19394660,17526929,19394705,3279,1228,-2844,4523,-2719,-1673,-973,11098,41,36,836
670068,17520820,19394856,17527126,19394902,3049,1554,-1098,5581,-2488,-2749,-1929,19452,41,36,836
671069,17521000,19395036,17527323,19395099,3258,1661,422,6171,-2314,-1945,-688,10297,48,40,837
672070,17521160,19395220,17527520,19395296,3400,1642,1005,5865,-2337,-1126,377,4404,48,40,837
673071,17521304,19395404,17527717,19395493,3525,1648,1019,5160,-2463,-687,330,3420,25,49,835
674072,17521480,19395616,17527914,19395690,3335,1466,954,4648,-2532,-438,217,3370,25,49,835
675082,17521616,19395832,17528144,19395920,3627,1447,983,4125,-2516,-521,106,2840,22,50,834
676074,17521752,19396016,17528341,19396117,3656,1653,1063,3537,-2484,-557,-61,2726,22,50,834
677075,17521888,19396216,17528538,19396314,3684,1552,1140,2929,-2507,-692,220,2542,37,35,834
678089,17522008,19396392,17528735,19396511,3800,1711,1180,2298,-2591,-721,412,2695,37,35,834
679077,17522148,19396564,17528932,19396708,3720,1747,1139,1789,-2724,-593,34,3293,33,45,833
680078,17522296,19396752,17529129,19396905,3693,1651,1040,1470,-2830,-547,-315,3711,33,45,833
681079,17522436,19396920,17529326,19397102,3769,1788,897,1283,-2885,-531,-502,4141,33,43,832
682092,17522564,19397084,17529523,19397299,3800,1828,725,1107,-2931,-536,-570,4198,33,43,832
683081,17522724,19397268,17529720,19397496,3694,1709,529,834,-2999,-747,-551,4144,39,23,831
684082,17522912,19397388,17529917,19397693,3524,2143,329,529,-3088,-940,-626,4222,39,23,831
685083,17523068,19397516,17530114,19397890,3743,2123,154,134,-3170,-1212,-878,3982,25,20,832
686084,17523228,19397620,17530311,19398087,3736,2314,28,-341,-3195,-1325,-1247,3969,25,20,832
687097,17523380,19397748,17530508,19398284,3800,2194,-58,-846,-3155,-1336,-1338,3901,29,28,829
688086,17523540,19397868,17530705,19398481,3774,2278,-143,-1322,-3092,-1159,-971,3909,29,28,829
689087,17523708,19397996,17530902,19398678,3739,2258,-257,-1805,-3053,-977,-354,3819,41,25,830
690088,17523904,19398124,17531099,19398875,3565,2290,-402,-2241,-3026,-847,172,3930,41,25,830
691088,17524076,19398220,17531296,19399072,3728,2534,-548,-2609,-2975,-784,193,3927,46,19,830
692090,17524268,19398340,17531493,19399269,3607,2418,-669,-2921,-2880,-696,-51,4063,46,19,830
693091,17524440,19398456,17531690,19399466,3744,2478,-743,-3141,-2764,-623,43,4062,46,16,828
694105,17524604,19398560,17531887,19399663,3800,2594,-770,-3361,-2656,-321,580,3915,46,16,828
695093,17524784,19398676,17532084,19399860,3719,2555,-790,-3561,-2587,-18,1128,3918,26,26,829
696094,17524968,19398784,17532281,19400057,3700,2645,-821,-3810,-2547,-160,1543,3633,26,26,829
697095,17525140,19398880,17532478,19400254,3788,2764,-851,-4077,-2508,-242,1613,3539,27,16,827
698109,17525288,19399004,17532675,19400451,3800,2621,-876,-4354,-2443,-204,1209,3580,27,16,827
699097,17525480,19399116,17532872,19400648,3690,2734,-865,-4552,-2332,-115,696,3691,26,19,827
700111,17525644,19399216,17533069,19400845,3800,2852,-814,-4713,-2174,-34,431,3671,26,19,827
701111,17525812,19399332,17533266,19401042,3800,2788,-751,-4840,-1986,42,447,3830,40,29,827
702113,17525992,19399456,17533463,19401239,3800,2770,-706,-4848,-1791,23,600,4073,40,29,827
703113,17526172,19399560,17533660,19401436,3800,2937,-664,-4817,-1589,-126,574,3952,28,19,827
704102,17526364,19399680,17533857,19401633,3741,2871,-590,-4802,-1377,-300,178,3856,28,19,827
705103,17526600,19399820,17534054,19401830,3450,2771,-492,-4734,-1138,-471,-462,4104,39,23,827
706104,17526804,19399912,17534251,19402027,3649,3118,-381,-4607,-882,-546,-922,4169,39,23,827
707105,17527008,19400048,17534448,19402224,3647,2870,-278,-4386,-642,-622,-1059,4373,54,34,828
708106,17527232,19400156,17534645,19402421,3511,3085,-186,-4025,-405,-816,-1009,4606,54,34,828
709107,17527424,19400268,17534842,19402618,3715,3097,-107,-3646,-164,-816,-1056,4686,41,21,826
710108,17527632,19400400,17535039,19402815,3612,3002,-17,-3286,81,-622,-1249,4459,41,21,826
711109,17527904,19400512,17535236,19403012,3181,3164,116,-3027,319,-755,-1188,4104,50,25,826
712110,17528136,19400668,17535433,19403209,3416,2907,271,-2910,498,-684,-1176,3770,50,25,826
713111,17528400,19400792,17535630,19403406,3188,3140,426,-2855,635,-443,-1057,3542,39,28,829
714112,17528668,19400924,17535827,19403603,3134,3119,574,-2718,798,-362,-1006,3795,39,28,829
715113,17528924,19401076,17536024,19403800,3184,3015,709,-2545,981,-137,-1195,3740,46,27,829
716114,17529192,19401240,17536221,19403997,3079,2954,819,-2393,1136,-38,-1160,3492,46,27,829
717115,17529452,19401396,17536418,19404194,3103,3023,925,-2317,1242,-107,-702,3280,64,40,830
718116,17529732,19401556,17536615,19404391,2942,3015,993,-2225,1277,-11,-308,3278,64,40,830
719117,17529996,19401748,17536812,19404588,3015,2818,1046,-2193,1263,60,-99,3245,48,33,830
720118,17530252,19401936,17537009,19404785,3040,2848,1097,-2093,1245,85,148,3338,48,33,830
721119,17530524,19402144,17537206,19404982,2908,2718,1144,-2050,1198,195,460,2996,43,47,832
722120,17530776,19402340,17537403,19405179,3010,2794,1157,-2055,1083,246,962,3076,43,47,832
723121,17531040,19402512,17537600,19405376,2907,2955,1105,-2010,899,257,1288,3279,64,43,832
724122,17531328,19402708,17537797,19405573,2718,2807,1020,-1858,696,304,1147,3391,64,43,832
725123,17531564,19402876,17537994,19405770,3027,2994,938,-1715,479,54,1333,3208,50,45,832
726123,17531824,19403056,17538191,19405967,2850,2928,861,-1676,178,39,1232,3130,50,45,832
727125,17532100,19403288,17538388,19406164,2718,2587,736,-1533,-231,105,1221,3385,42,55,832
728126,17532336,19403492,17538585,19406361,2952,2760,587,-1467,-599,-142,1125,3029,42,55,832
729127,17532556,19403720,17538782,19406558,3043,2598,399,-1518,-860,148,1016,2780,34,58,834
730128,17532784,19403952,17538979,19406755,2980,2557,211,-1586,-1029,361,765,2741,34,58,834
731129,17532992,19404204,17539176,19406952,3101,2409,29,-1698,-1138,201,532,2528,41,44,832
732130,17533216,19404476,17539373,19407149,2990,2251,-120,-1876,-1246,154,221,2162,41,44,832
733131,17533480,19404712,17539570,19407346,2713,2460,-252,-2275,-1339,27,-53,1718,42,56,834
734132,17533684,19404968,17539767,19407543,3086,2309,-365,-2683,-1369,27,-178,1828,42,56,834
735133,17533912,19405196,17539964,19407740,2923,2471,-500,-3007,-1345,38,-377,1875,36,57,835
736134,17534156,19405452,17540161,19407937,2803,2271,-648,-3326,-1273,-194,-612,2152,36,57,835
737135,17534396,19405688,17540358,19408134,2811,2379,-822,-3456,-1140,-259,-804,2792,38,45,834
738136,17534660,19405960,17540555,19408331,2632,2121,-1006,-3446,-988,-166,-782,3003,38,45,834
739137,17534928,19406192,17540752,19408528,2578,2356,-1185,-3372,-838,-292,-526,3172,63,57,836
740138,17535232,19406432,17540949,19408725,2307,2288,-1351,-3354,-720,-467,-22,3188,63,57,836
741139,17535536,19406680,17541146,19408922,2261,2216,-1485,-3427,-671,-416,499,2988,46,45,836
742140,17535800,19406904,17541343,19409119,2482,2355,-1578,-3490,-665,-470,783,3087,46,45,836
743141,17536104,19407108,17541540,19409316,2186,2477,-1651,-3529,-646,-652,746,3233,65,37,839
744142,17536424,19407392,17541737,19409513,2033,1940,-1717,-3583,-596,-679,601,3440,65,37,839
745143,17536700,19407616,17541934,19409710,2275,2303,-1780,-3546,-513,-692,556,3608,59,49,838
746143,17537024,19407820,17542131,19409907,1920,2425,-1820,-3533,-415,-723,660,3430,59,49,838
747145,17537300,19408024,17542328,19410104,2186,2423,-1835,-3608,-332,-729,750,3326,57,39,839
748146,17537580,19408228,17542525,19410301,2126,2419,-1823,-3762,-245,-765,917,3270,57,39,839
749147,17537880,19408448,17542722,19410498,1956,2310,-1789,-3901,-151,-651,1099,3329,42,33,839
750148,17538160,19408660,17542919,19410695,2046,2354,-1715,-4089,-73,-614,1428,3043,42,33,839
751149,17538416,19408848,17543116,19410892,2171,2508,-1652,-4262,11,-571,1548,3423,47,30,839
752150,17538716,19409048,17543313,19411089,1852,2432,-1610,-4300,121,-429,1518,3631,47,30,839
753151,17539000,19409232,17543510,19411286,1913,2538,-1549,-4468,237,-388,1576,3292,64,30,837
754152,17539268,19409444,17543707,19411483,1983,2358,-1457,-4652,340,-340,1637,3382,64,30,837
755153,17539544,19409660,17543904,19411680,1900,2324,-1362,-4845,441,-307,1413,3460,43,34,839
756154,17539816,19409872,17544101,19411877,1893,2343,-1281,-4974,561,-270,1114,3723,43,34,839
757155,17540092,19410084,17544298,19412074,1834,2337,-1200,-5014,687,-258,883,3911,45,48,840
758162,17540364,19410312,17544528,19412304,1841,2238,-1131,-5034,809,-170,804,3945,45,48,840
759157,17540624,19410544,17544725,19412501,1889,2198,-1088,-4999,922,-59,738,4342,44,44,840
760158,17540868,19410768,17544922,19412698,1969,2237,-1076,-4924,1036,103,751,4308,44,44,840
761159,17541128,19410984,17545119,19412895,1842,2278,-1063,-4908,1127,373,858,4154,44,41,840
762160,17541412,19411172,17545316,19413092,1655,2458,-1078,-4885,1219,673,793,4351,44,41,840
763161,17541664,19411392,17545513,19413289,1831,2248,-1102,-4828,1332,864,550,4303,43,54,839
764162,17541916,19411636,17545710,19413486,1808,2077,-1162,-4799,1458,1081,23,4330,43,54,839
765163,17542160,19411884,17545907,19413683,1838,2031,-1201,-4745,1593,1270,-211,4211,62,49,840
766164,17542436,19412144,17546104,19413880,1604,1928,-1228,-4763,1731,1387,-421,4098,62,49,840
767165,17542704,19412372,17546301,19414077,1623,2115,-1240,-4798,1851,1496,-753,4113,66,52,842
768166,17543004,19412640,17546498,19414274,1379,1835,-1261,-4865,1979,1603,-959,4153,66,52,842
769167,17543284,19412868,17546695,19414471,1468,2071,-1301,-4802,2120,1711,-1274,4418,47,55,842
770168,17543544,19413112,17546892,19414668,1566,1950,-1360,-4624,2251,1675,-1725,4647,47,55,842
771168,17543860,19413380,17547089,19414865,1164,1770,-1442,-4452,2359,1684,-1768,4758,67,39,843
772170,17544116,19413608,17547286,19415062,1514,2006,-1506,-4257,2433,1707,-1737,4826,67,39,843
773171,17544388,19413816,17547483,19415259,1382,2127,-1550,-4107,2472,1529,-1821,4659,44,55,844
774172,17544680,19414008,17547680,19415456,1216,2229,-1572,-3968,2498,1324,-1929,4901,44,55,844
775173,17544928,19414244,17547877,19415653,1468,1938,-1589,-3759,2507,1036,-2031,5194,54,52,842
776174,17545180,19414512,17548074,19415850,1420,1706,-1622,-3497,2509,829,-2101,5349,54,52,842
777175,17545448,19414784,17548271,19416047,1289,1649,-1648,-3183,2505,709,-1880,5414,58,40,843
778176,17545684,19415008,17548468,19416244,1473,1937,-1638,-2929,2470,573,-1623,5488,58,40,843
779177,17545912,19415212,17548665,19416441,1509,2060,-1621,-2714,2396,432,-1373,5585,50,39,845
780178,17546144,19415436,17548862,19416638,1470,1923,-1577,-2450,2325,242,-1517,5797,50,39,845
781179,17546352,19415688,17549059,19416835,1615,1724,-1538,-2160,2301,253,-1755,6024,57,40,843
782180,17546560,19415956,17549256,19417032,1611,1592,-1493,-1801,2332,254,-1967,6510,57,40,843
783181,17546752,19416192,17549453,19417229,1714,1776,-1173,-1061,2363,837,-1953,10365,33,38,843
784182,17546964,19416372,17549650,19417426,1583,2134,-625,-7,2378,1155,-1913,11864,33,38,843
785183,17547124,19416584,17549847,19417623,1925,1927,-262,331,2453,389,-1793,5551,33,33,843
786184,17547276,19416824,17550044,19417820,1995,1733,-141,-31,2579,343,-1773,4664,33,33,843
787185,17547428,19417056,17550241,19418017,2016,1768,-50,-489,2723,653,-1853,4524,35,50,841
788186,17547584,19417316,17550438,19418214,2009,1566,40,-779,2880,1058,-1761,4669,35,50,841
789187,17547728,19417532,17550635,19418411,2108,1833,162,-1002,3016,1465,-1378,4608,32,36,842
790188,17547872,19417744,17550832,19418608,2131,1851,241,-1136,3114,1832,-1173,4952,32,36,842
791188,17548008,19417964,17551029,19418805,2209,1791,251,-1156,3207,1847,-1373,5193,17,57,842
792190,17548116,19418236,17551226,19419002,2423,1433,208,-1192,3320,1600,-1880,5280,17,57,842
793191,17548232,19418564,17551423,19419199,2410,1026,142,-1202,3426,1381,-2143,5462,35,58,840
794192,17548336,19418824,17551620,19419396,2527,1423,88,-1154,3475,1397,-1841,5481,35,58,840
795193,17548436,19419084,17551817,19419593,2594,1396,62,-1074,3473,1726,-1464,5364,16,56,841
796194,17548572,19419332,17552014,19419790,2397,1449,77,-1053,3441,2326,-981,5040,16,56,841
797195,17548684,19419648,17552211,19419987,2584,971,100,-1087,3397,2882,-652,5176,15,49,839
798196,17548816,19419944,17552408,19420184,2489,1053,102,-960,3349,3041,-678,5438,15,49,839
799197,17548988,19420240,17552605,19420381,2251,1009,90,-797,3294,2828,-879,5455,22,61,841
800198,17549136,19420488,17552802,19420578,2424,1287,85,-565,3248,2568,-996,5610,22,61,841
801199,17549288,19420768,17552999,19420775,2418,1051,82,-251,3214,2384,-886,5842,26,60,842
802200,17549444,19421056,17553196,19420972,2412,961,112,39,3148,2120,-495,5496,26,60,842
803201,17549644,19421380,17553393,19421169,2137,680,204,181,3008,1963,-79,5012,29,60,842
804202,17549788,19421672,17553590,19421366,2510,838,336,265,2823,1857,129,4881,29,60,842
805203,17549984,19421936,17553787,19421563,2187,984,462,370,2644,1730,70,4825,46,50,843
806204,17550168,19422228,17553984,19421760,2268,767,585,482,2477,1484,-63,4647,46,50,843
807205,17550380,19422548,17554181,19421957,2088,538,713,634,2324,1081,-369,4614,34,47,842
808206,17550604,19422836,17554378,19422154,2001,697,1003,950,2140,54,-856,4266,34,47,842
809207,17550832,19423096,17554575,19422351,1963,844,1174,1150,2056,-353,-688,4374,49,61,843
810208,17551044,19423364,17554772,19422548,2058,763,1407,1359,1951,-724,-360,3926,49,61,843
811209,17551256,19423632,17554969,19422745,2051,732,1696,1466,1845,-792,-355,3675,57,45,846
812210,17551512,19423920,17555166,19422942,1751,567,1979,1599,1748,-749,-566,3651,57,45,846
813211,17551744,19424244,17555363,19423139,1887,286,2239,1824,1713,-886,-866,3593,41,47,846
814212,17551992,19424524,17555560,19423336,1764,523,2464,2134,1742,-1167,-943,3632,41,47,846
815212,17552268,19424740,17555757,19423533,1556,915,2684,2458,1812,-1711,-1073,3471,62,39,847
816214,17552520,19425032,17555954,19423730,1683,398,2911,2730,1882,-2099,-1096,3135,62,39,847
817215,17552752,19425224,17556151,19423927,1792,1026,3135,2947,1875,-2016,-508,2707,39,48,847
818216,17553044,19425412,17556348,19424124,1376,1054,3327,3045,1794,-1695,-115,2185,39,48,847
819216,17553296,19425596,17556545,19424321,1603,1084,3481,3153,1734,-1585,-605,2180,54,44,847
820218,17553552,19425808,17556742,19424518,1552,903,3587,3338,1797,-1586,-1493,2261,54,44,847
821219,17553820,19426052,17556939,19424715,1447,682,3673,3591,1948,-1704,-1856,2083,42,49,847
822220,17554052,19426296,17557136,19424912,1658,661,3719,3783,2106,-1554,-1696,1848,42,49,847
823221,17554308,19426536,17557333,19425109,1482,666,3723,3870,2177,-1110,-1259,1485,45,55,847
824221,17554552,19426800,17557530,19425306,1537,487,3688,3873,2156,-795,-1089,1045,45,55,847
825223,17554788,19427024,17557727,19425503,1570,725,3615,3813,2060,-800,-1139,856,38,52,847
826224,17555032,19427252,17557924,19425700,1500,685,3504,3691,1934,-822,-1308,652,38,52,847
827225,17555256,19427464,17558121,19425897,1614,779,3332,3623,1779,-521,-1310,599,58,45,849
828226,17555492,19427708,17558318,19426094,1522,558,3100,3536,1595,-10,-1163,528,58,45,849
829227,17555732,19427896,17558515,19426291,1478,911,2815,3432,1374,438,-865,519,47,44,847
830228,17555956,19428120,17558712,19426488,1568,674,2525,3343,1135,521,-832,516,47,44,847
831229,17556188,19428288,17558909,19426685,1503,1037,2214,3274,893,277,-1031,550,34,38,847
832230,17556380,19428480,17559106,19426882,1755,889,1875,3204,599,-91,-1065,647,34,38,847
833231,17556560,19428720,17559303,19427079,1839,569,1532,3047,244,-120,-1028,166,37,42,847
834232,17556740,19428948,17559500,19427276,1846,631,1185,2773,-197,157,-660,-161,37,42,847
835232,17556904,19429072,17559697,19427473,1962,1313,828,2408,-671,285,-385,-299,42,45,846
836234,17557120,19429284,17559894,19427670,1629,755,461,2071,-1098,-2,-748,38,42,45,846
837235,17557356,19429504,17560091,19427867,1487,695,98,1851,-1458,-495,-1332,377,49,33,847
838236,17557548,19429736,17560288,19428064,1765,605,-274,1735,-1787,-878,-1666,769,49,33,847
839237,17557732,19429940,17560485,19428261,1821,776,-676,1622,-2142,-1030,-1663,788,45,31,847
840238,17557916,19430112,17560682,19428458,1827,987,-1068,1310,-2537,-946,-1644,288,45,31,847
841246,17558084,19430276,17560912,19428688,1955,1066,-1432,888,-2934,-854,-1665,162,38,24,847
842240,17558280,19430404,17561109,19428885,1781,1320,-1791,460,-3289,-1031,-1773,386,38,24,847
843241,17558528,19430604,17561306,19429082,1434,869,-2153,80,-3553,-1328,-2275,718,31,23,846
844242,17558768,19430764,17561503,19429279,1465,1135,-2478,-194,-3725,-1662,-2596,1149,31,23,846
845243,17558980,19430908,17561700,19429476,1635,1258,-2793,-374,-3833,-1745,-2591,1444,47,26,845
846244,17559164,19431036,17561897,19429673,1816,1388,-3103,-635,-3896,-1395,-2370,1258,47,26,845
847245,17559396,19431136,17562094,19429870,1501,1605,-3353,-1121,-3936,-968,-1924,692,38,28,847
848246,17559616,19431244,17562291,19430067,1566,1594,-3585,-1709,-3962,-745,-1767,743,38,28,847
849247,17559832,19431384,17562488,19430264,1584,1419,-3809,-2302,-3939,-957,-2143,1113,42,25,845
850248,17560108,19431504,17562685,19430461,1174,1577,-4040,-2820,-3863,-1443,-2380,1536,42,25,845
851249,17560324,19431612,17562882,19430658,1542,1691,-4256,-3263,-3773,-1870,-2279,1854,53,14,844
852250,17560544,19431724,17563079,19430855,1507,1704,-4447,-3700,-3710,-1797,-1918,1818,53,14,844
853251,17560784,19431828,17563276,19431052,1364,1794,-4589,-4299,-3638,-1216,-1895,1556,50,12,845
854252,17561020,19431920,17563473,19431249,1371,1916,-4689,-5147,-3500,-602,-1800,1199,50,12,845
855253,17561280,19432024,17563670,19431446,1195,1881,-4741,-5966,-3331,-457,-1794,1687,36,15,844
856254,17561484,19432128,17563867,19431643,1542,1921,-4796,-6534,-3174,-805,-1982,2474,36,15,844
857255,17561712,19432248,17564064,19431840,1379,1855,-4834,-7007,-3050,-797,-1701,2637,53,21,844
858256,17561908,19432380,17564261,19432037,1580,1809,-4865,-7471,-2982,-142,-1092,2904,53,21,844
859257,17562124,19432496,17564458,19432234,1447,1944,-4870,-7837,-2934,418,-755,3175,41,17,843
860258,17562372,19432612,17564655,19432431,1225,1980,-4885,-8098,-2869,699,-750,3825,41,17,843
861259,17562592,19432736,17564852,19432628,1391,1962,-4922,-8198,-2747,799,-906,4580,41,20,843
862260,17562836,19432852,17565049,19432825,1220,2048,-5003,-8115,-2616,457,-1190,5109,41,20,843
863260,17563048,19432976,17565246,19433022,1413,2030,-5049,-7975,-2543,292,-993,5067,39,17,843
864262,17563220,19433104,17565443,19433219,1675,2035,-5061,-8091,-2530,668,-874,4508,39,17,843
865262,17563408,19433228,17565640,19433416,1579,2092,-5031,-8276,-2556,1461,-354,4381,49,34,843
866264,17563596,19433412,17565837,19433613,1584,1723,-4986,-8426,-2575,2226,-145,4518,49,34,843
867265,17563856,19433560,17566034,19433810,1107,1969,-3755,-7289,-2551,4376,-1016,12222,34,22,842
868266,17564012,19433716,17566231,19434007,1776,1937,247,418,-2955,11702,-2036,32767,34,22,842
869267,17564220,19433880,17566428,19434204,1446,1902,3571,5204,-3289,4501,-644,9539,48,32,844
870268,17564396,19434024,17566625,19434401,1655,2050,3897,4301,-3377,2675,180,601,48,32,844
871269,17564576,19434184,17566822,19434598,1639,1966,3218,983,-3414,3096,564,-2379,26,31,842
872270,17564796,19434296,17567019,19434795,1378,2304,2621,-1911,-3387,3943,-101,-1212,26,31,842
873271,17564968,19434460,17567216,19434992,1690,1994,2354,-3358,-3266,3764,-510,-536,24,21,842
874272,17565176,19434624,17567413,19435189,1461,2009,2104,-4657,-3077,3690,-1156,-357,24,21,842
875273,17565380,19434768,17567610,19435386,1482,2157,1560,-5201,-2846,3683,-1945,2321,47,24,841
876274,17565556,19434896,17567807,19435583,1668,2287,817,-5635,-2545,2672,-2090,2191,47,24,841
877275,17565744,19435064,17568004,19435780,1597,2050,342,-6323,-2430,2329,-1085,1416,47,37,843
878276,17565964,19435244,17568201,19435977,1388,1983,95,-7025,-2451,2077,-963,1274,47,37,843
879276,17566152,19435404,17568398,19436174,1592,2124,-51,-7798,-2461,1434,-1313,1671,46,38,841
880278,17566320,19435552,17568595,19436371,1730,2220,-511,-7664,-2425,1318,-2288,4465,46,38,841
881278,17566548,19435708,17568792,19436568,1342,2189,-1080,-7304,-2321,980,-2501,4233,36,22,843
882280,17566744,19435884,17568989,19436765,1542,2074,-1408,-6886,-2149,888,-2288,4616,36,22,843
883280,17566944,19436020,17569186,19436962,1517,2350,-1483,-6216,-1952,974,-1972,5475,48,34,841
884282,17567132,19436152,17569383,19437159,1596,2404,-1460,-5650,-1762,876,-842,5274,48,34,841
885283,17567316,19436308,17569580,19437356,1627,2272,-1454,-4974,-1540,947,-477,5518,31,37,841
886284,17567504,19436444,17569777,19437553,1606,2424,-1474,-4514,-1292,1028,-450,4471,31,37,841
887285,17567720,19436600,17569974,19437750,1424,2318,-1464,-4227,-1068,1240,-256,4350,49,19,841
888286,17567944,19436732,17570171,19437947,1362,2496,-1394,-3714,-913,1489,306,4739,49,19,841
889286,17568128,19436864,17570368,19438144,1618,2525,-1295,-3233,-819,1649,657,4605,31,18,841
890288,17568368,19437020,17570565,19438341,1250,2393,-1220,-2468,-749,1986,1073,5285,31,18,841
891289,17568608,19437152,17570762,19438538,1231,2573,-1252,-1622,-673,2095,1355,5338,31,24,841
892290,17568836,19437316,17570959,19438735,1293,2387,-1296,-1069,-582,2035,960,4300,31,24,841
893291,17569060,19437432,17571156,19438932,1307,2723,-1340,-579,-500,2206,1090,4507,51,37,842
894292,17569280,19437544,17571353,19439129,1322,2785,-1403,-87,-445,2001,1108,4550,51,37,842
895293,17569492,19437684,17571550,19439326,1366,2636,-1489,519,-445,1899,954,4825,35,30,841
896294,17569676,19437788,17571747,19439523,1547,2902,-1597,1134,-478,1998,965,4447,35,30,841
897295,17569904,19437916,17571944,19439720,1259,2782,-1717,1593,-537,2074,1095,3937,53,16,839
898296,17570108,19438068,17572141,19439917,1406,2653,-1877,1941,-596,2213,749,3743,53,16,839
899297,17570324,19438208,17572338,19440114,1323,2753,-2056,2113,-606,2097,166,3286,34,33,838
900298,17570572,19438384,17572535,19440311,1101,2537,-2221,2242,-564,2036,-199,3386,34,33,838
901299,17570756,19438548,17572732,19440508,1507,2628,-2350,2454,-496,1904,-431,3460,33,25,840
902300,17570968,19438740,17572929,19440705,1326,2455,-2427,2599,-397,1650,-622,3333,33,25,840
903301,17571140,19438868,17573126,19440902,1587,2886,-2493,2703,-261,1489,-903,3316,35,35,842
904302,17571328,19439036,17573323,19441099,1491,2649,-2544,2735,-87,1256,-1114,3099,35,35,842
905303,17571464,19439184,17573520,19441296,1844,2796,-2048,3513,216,514,-2589,10469,41,37,841
906304,17571656,19439340,17573717,19441493,1496,2765,-591,6346,771,-642,-4820,25620,41,37,841
907305,17571812,19439496,17573914,19441690,1740,2783,370,7602,1112,300,-1702,4809,38,21,838
908306,17571940,19439676,17574111,19441887,1946,2641,541,7280,1217,217,-1137,2126,38,21,838
909307,17572128,19439860,17574308,19442084,1575,2622,359,6167,1290,79,-1431,1586,24,39,839
910308,17572280,19440044,17574505,19442281,1820,2628,311,5513,1445,-48,-1774,2405,24,39,839
911309,17572472,19440196,17574702,19442478,1572,2848,323,5204,1732,-346,-2131,2838,44,39,838
912310,17572628,19440344,17574899,19442675,1816,2895,367,5008,2085,-284,-2375,2973,44,39,838
913311,17572804,19440516,17575096,19442872,1701,2757,366,4878,2408,-391,-2181,3319,22,40,839
914312,17572960,19440684,17575293,19443069,1844,2795,404,4581,2644,-1038,-1648,2934,22,40,839
915313,17573108,19440896,17575490,19443266,1916,2514,453,4246,2779,-1351,-1566,3180,38,41,837
916314,17573264,19441084,17575687,19443463,1884,2668,511,4055,2900,-1764,-1772,3715,38,41,837
917315,17573396,19441296,17575884,19443660,2064,2511,755,3973,3090,-2451,-2112,5837,23,44,837
918316,17573552,19441472,17576081,19443857,1932,2747,2069,3837,3495,-4478,-4663,16477,23,44,837
919317,17573684,19441656,17576278,19444054,2111,2702,3887,3732,3984,-4030,-5475,16757,36,31,837
920318,17573832,19441836,17576475,19444251,2033,2736,4474,3871,4341,-2637,-3009,6173,36,31,837
921319,17573976,19442048,17576672,19444448,2082,2529,4116,4086,4504,-2607,-2144,4839,32,44,837
922320,17574132,19442232,17576869,19444645,2025,2711,3609,4336,4462,-2652,-1366,4782,32,44,837
923321,17574284,19442432,17577066,19444842,2071,2610,3332,4394,4283,-2761,-799,4187,34,38,837
924329,17574420,19442636,17577296,19445072,2212,2597,3182,4314,4115,-2404,-861,3989,34,38,837
925323,17574612,19442844,17577493,19445269,1866,2567,3083,4071,4031,-2166,-753,3559,28,53,837
926324,17574760,19443080,17577690,19445466,2162,2376,2977,3770,3982,-1820,-740,3591,28,53,837
927325,17574912,19443284,17577887,19445663,2158,2573,2871,3451,3937,-1439,-590,3418,28,45,837
928326,17575096,19443500,17578084,19445860,1965,2491,2782,2849,3846,-1262,-400,2709,28,45,837
929327,17575284,19443728,17578281,19446057,1944,2402,2744,1989,3673,-924,44,2345,35,49,837
930328,17575432,19443964,17578478,19446254,2216,2335,2744,844,3420,-686,614,1671,35,49,837
931329,17575600,19444148,17578675,19446451,2104,2667,2745,-382,3120,-456,1012,1666,41,50,839
932330,17575764,19444376,17578872,19446648,2144,2378,2736,-1533,2853,-262,1290,1790,41,50,839
933331,17575944,19444600,17579069,19446845,2052,2392,2697,-2623,2676,-156,1304,1876,44,39,838
934332,17576100,19444840,17579266,19447042,2221,2273,2660,-3508,2545,-84,950,2398,44,39,838
935333,17576312,19445076,17579463,19447239,1865,2282,2603,-4072,2397,-118,1084,3022,43,37,839
936334,17576468,19445304,17579660,19447436,2233,2318,2523,-4501,2215,-220,1574,2912,43,37,839
937335,17576640,19445556,17579857,19447633,2145,2144,2420,-4881,1987,-303,1759,2951,30,47,839
938336,17576840,19445828,17580054,19447830,1969,1987,2257,-5209,1797,-519,1327,3391,30,47,839
939337,17577036,19446056,17580251,19448027,1995,2249,2031,-5316,1715,-709,471,4080,41,41,837
940338,17577200,19446268,17580448,19448224,2211,2343,1759,-5202,1729,-744,57,4653,41,41,837
941339,17577380,19446524,17580645,19448421,2118,2042,1494,-4928,1782,-861,158,4669,34,54,840
942340,17577548,19446752,17580842,19448618,2207,2204,1254,-4676,1832,-1042,332,4548,34,54,840
943341,17577708,19446956,17581039,19448815,2274,2351,1053,-4520,1899,-1197,406,4232,47,55,838
944342,17577876,19447220,17581236,19449012,2237,1947,896,-4551,1992,-1159,553,3705,47,55,838
945343,17578056,19447484,17581433,19449209,2171,1918,754,-4577,2129,-1080,505,3565,25,40,839
946344,17578212,19447720,17581630,19449406,2339,2076,624,-4592,2300,-1273,294,3550,25,40,839
947344,17578408,19447968,17581827,19449603,2090,1979,501,-4557,2479,-1424,232,3542,46,52,839
948346,17578572,19448208,17582024,19449800,2305,2010,385,-4494,2654,-1476,286,3503,46,52,839
949347,17578712,19448428,17582221,19449997,2481,2126,295,-4475,2833,-1439,205,3303,24,55,838
950348,17578856,19448688,17582418,19450194,2480,1848,228,-4419,3019,-1433,-42,3266,24,55,838
951349,17578976,19448968,17582615,19450391,2665,1687,190,-4418,3202,-1572,-159,2978,19,56,839
952350,17579120,19449248,17582812,19450588,2538,1650,195,-4476,3382,-1480,-320,2683,19,56,839
953350,17579236,19449568,17583009,19450785,2750,1347,246,-4507,3564,-1326,-463,2671,19,47,839
954351,17579372,19449804,17583206,19450982,2652,1855,342,-4518,3740,-1495,-389,2679,19,47,839
955352,17579492,19449944,17583403,19451179,2787,2480,436,-4436,3878,-1614,-294,2899,39,39,839
956354,17579600,19450120,17583600,19451376,2901,2264,530,-4297,3931,-1519,-329,2956,39,39,839
957355,17579740,19450264,17583797,19451573,2727,2489,637,-4081,3914,-1434,-335,3232,24,37,838
958356,17579884,19450468,17583994,19451770,2727,2111,745,-3744,3858,-1353,-310,3453,24,37,838
959357,17580052,19450752,17584191,19451967,2590,1572,871,-3446,3797,-1084,-310,3220,44,45,835
960358,17580208,19451044,17584388,19452164,2683,1481,991,-3092,3733,-727,-149,3419,44,45,835
961359,17580356,19451280,17584585,19452361,2756,1815,1099,-2667,3685,-457,171,3452,25,53,836
962360,17580484,19451592,17584782,19452558,2912,1289,1204,-2382,3630,-300,410,3001,25,53,836
963360,17580628,19451936,17584979,19452755,2837,1024,1322,-2176,3512,-147,728,2879,41,55,839
964362,17580756,19452264,17585176,19452952,2968,1067,1452,-1976,3298,16,986,2815,41,55,839
965363,17580892,19452556,17585373,19453149,2946,1250,1561,-1725,2988,297,989,3043,21,59,839
966364,17581020,19452884,17585570,19453346,3026,968,1650,-1439,2668,492,683,3066,21,59,839
967365,17581136,19453220,17585767,19453543,3138,856,1698,-1106,2401,752,502,3147,19,70,839
968366,17581280,19453532,17585964,19453740,2987,956,1687,-692,2146,990,549,3340,19,70,839
969367,17581412,19453800,17586161,19453937,3091,1201,1625,-281,1880,1096,818,3287,41,55,839
970368,17581552,19454180,17586358,19454134,3068,420,1550,55,1598,1342,1139,3177,41,55,839
971368,17581660,19454516,17586555,19454331,3308,634,1479,315,1279,1562,1574,3025,23,71,839
972370,17581792,19454828,17586752,19454528,3187,733,1397,567,922,1774,1939,3033,23,71,839
973371,17581908,19455072,17586949,19454725,3324,1137,1282,926,576,2133,2025,3281,41,55,839
974372,17582048,19455352,17587146,19454922,3200,876,1092,1357,261,2344,1914,3631,41,55,839
975373,17582196,19455652,17587343,19455119,3172,705,824,1883,-70,2337,1962,3970,22,62,839
976374,17582344,19455948,17587540,19455316,3195,687,516,2430,-463,2157,2000,3969,22,62,839
977375,17582528,19456184,17587737,19455513,2977,1045,198,2899,-885,2004,1843,3809,25,51,837
978376,17582688,19456400,17587934,19455710,3144,1161,-147,3343,-1287,2066,1962,3878,25,51,837
979376,17582848,19456628,17588131,19455907,3161,1073,-521,3830,-1617,2226,2040,3915,29,44,839
980378,17583012,19456896,17588328,19456104,3152,791,-897,4213,-1872,2411,2264,3682,29,44,839
981379,17583176,19457128,17588525,19456301,3167,1001,-1239,4496,-2110,2345,2449,3291,33,39,838
982380,17583356,19457368,17588722,19456498,3076,931,-1544,4571,-2355,2173,2463,2816,33,39,838
983381,17583540,19457564,17588919,19456695,3057,1207,-1839,4538,-2572,2077,2322,2733,33,50,838
984382,17583704,19457740,17589116,19456892,3198,1341,-2125,4388,-2730,1962,2233,2360,33,50,838
985383,17583900,19457880,17589313,19457089,2999,1591,-2410,4227,-2833,1706,2005,2409,48,43,838
986384,17584080,19458036,17589510,19457286,3108,1509,-2717,4178,-2874,1524,1812,2774,48,43,838
987385,17584248,19458248,17589707,19457483,3196,1152,-3043,4153,-2900,1249,1823,2851,40,35,837
988386,17584440,19458424,17589904,19457680,3050,1386,-3351,4101,-2943,929,1800,2887,40,35,837
989387,17584612,19458584,17590101,19457877,3187,1502,-3602,4010,-2983,561,1626,2797,41,26,837
990388,17584816,19458744,17590298,19458074,2985,1518,-3801,3884,-2971,257,1217,2946,41,26,837
991388,17584996,19458900,17590495,19458271,3143,1561,-3974,3831,-2930,-151,747,3323,33,40,838
992390,17585176,19459068,17590692,19458468,3152,1499,-4123,3868,-2870,-616,301,3468,33,40,838
993391,17585332,19459236,17590889,19458665,3321,1512,-4233,3887,-2824,-895,116,3473,26,30,838
994392,17585516,19459392,17591086,19458862,3152,1605,-4316,3920,-2811,-1180,23,3644,26,30,838
995392,17585676,19459544,17591283,19459059,3320,1649,-4389,3939,-2811,-1609,-124,3863,39,38,836
996394,17585864,19459716,17591480,19459256,3149,1534,-4436,3996,-2828,-1909,-275,4147,39,38,836
997395,17586036,19459872,17591677,19459453,3261,1652,-4443,4097,-2894,-2147,-544,4443,50,27,836
998396,17586240,19460076,17591874,19459650,3059,1349,-4415,4224,-2957,-2167,-861,4554,50,27,836
999397,17586464,19460232,17592071,19459847,2924,1667,-4383,4269,-2933,-1990,-1189,4533,34,41,837
1000398,17586672,19460388,17592268,19460044,3021,1685,-4350,4247,-2824,-1861,-1014,4363,34,41,837
1001399,17586864,19460540,17592465,19460241,3124,1730,-4291,4018,-2740,-1826,-656,4006,33,34,837
1002399,17587052,19460660,17592662,19460438,3154,1964,-3717,3349,-2676,-2860,-1169,5613,33,34,837
1003400,17587200,19460808,17592859,19460635,3426,1810,469,204,-2192,-8416,-7132,32767,35,25,837
1004402,17587388,19461008,17593056,19460832,3181,1484,4202,-1689,-1752,-3430,-3984,20047,35,25,837
1005403,17587524,19461196,17593253,19461029,3534,1563,4725,-1701,-1541,-1735,-245,6741,42,30,834
1006404,17587680,19461364,17593450,19461226,3428,1701,3573,-444,-1545,-1772,253,8148,42,30,834
1007414,17587832,19461548,17593680,19461456,3488,1621,2625,462,-1779,-2467,1120,6328,22,32,835
1008406,17587976,19461704,17593877,19461653,3563,1814,2236,549,-2121,-2411,1615,5567,22,32,835
1009407,17588120,19461836,17594074,19461850,3587,1993,2097,424,-2460,-2437,1065,5227,43,31,834
1010408,17588268,19461968,17594271,19462047,3585,2021,1964,271,-2667,-2243,401,5037,43,31,834
1011408,17588428,19462120,17594468,19462244,3528,1916,1715,224,-2745,-1670,89,5514,44,38,833
1012410,17588572,19462232,17594665,19462441,3652,2203,1402,352,-2722,-1246,-203,5883,44,38,833
1013411,17588732,19462372,17594862,19462638,3569,2053,1052,341,-2623,-663,-252,5155,32,23,830
1014411,17588872,19462492,17595059,19462835,3720,2212,755,15,-2514,-316,-59,4137,32,23,830
1015413,17589004,19462616,17595256,19463032,3800,2219,496,-816,-2474,-271,375,2807,21,19,830
1016413,17589164,19462716,17595453,19463229,3642,2412,326,-1884,-2498,-162,698,1926,21,19,830
1017415,17589332,19462812,17595650,19463426,3607,2481,195,-3157,-2518,107,799,1193,36,13,829
1018415,17589496,19462912,17595847,19463623,3647,2499,72,-4311,-2477,484,749,1556,36,13,829
1019416,17589668,19463000,17596044,19463820,3609,2622,-132,-5162,-2362,775,673,2054,26,22,829
1020418,17589840,19463112,17596241,19464017,3621,2510,-356,-5737,-2212,894,637,2215,26,22,829
1021419,17590004,19463196,17596438,19464214,3688,2735,-559,-6218,-2058,728,498,2182,25,22,827
1022420,17590168,19463312,17596635,19464411,3703,2570,-720,-6812,-1939,432,288,1933,25,22,827
1023421,17590356,19463396,17596832,19464608,3558,2820,-840,-7454,-1861,378,325,1935,38,32,828
1024422,17590512,19463516,17597029,19464805,3777,2629,-954,-7955,-1799,464,626,2348,38,32,828
1025423,17590692,19463616,17597226,19465002,3636,2798,-1067,-8226,-1757,410,1001,2795,36,22,828
1026424,17590868,19463748,17597423,19465199,3672,2626,-1201,-8261,-1729,215,1217,3457,36,22,828
1027425,17591036,19463852,17597620,19465396,3736,2842,-1324,-8019,-1646,-49,1029,4181,29,31,826
1028439,17591192,19463964,17597817,19465593,3800,2829,-1430,-7500,-1494,-261,510,4739,29,31,826
1029427,17591380,19464048,17598014,19465790,3635,3055,-1491,-6866,-1328,-592,186,4768,38,13,827
1030428,17591552,19464132,17598211,19465987,3748,3105,-1500,-6297,-1172,-856,205,4650,38,13,827
1031429,17591720,19464220,17598408,19466184,3787,3128,-1466,-5702,-1019,-831,353,4719,27,21,826
1032430,17591924,19464316,17598605,19466381,3559,3123,-1402,-5040,-846,-777,338,4654,27,21,826
1033431,17592108,19464400,17598802,19466578,3692,3248,-1287,-4401,-637,-806,230,4427,34,14,823
1034432,17592284,19464468,17598999,19466775,3752,3405,-1123,-3801,-403,-773,36,4185,34,14,823
1035433,17592488,19464548,17599196,19466972,3575,3382,-920,-3254,-156,-659,-242,4070,32,14,826
1036434,17592680,19464628,17599393,19467169,3654,3434,-712,-2703,98,-490,-506,3944,32,14,826
1037434,17592860,19464740,17599590,19467366,3738,3272,-491,-2249,339,-477,-634,3484,47,11,823
1038436,17593036,19464816,17599787,19467563,3773,3550,-245,-1909,561,-403,-717,3139,47,11,823
1039437,17593248,19464908,17599984,19467760,3543,3497,21,-1585,759,-265,-901,3028,32,27,823
1040438,17593424,19465012,17600181,19467957,3778,3464,299,-1335,919,-318,-888,2604,32,27,823
1041438,17593604,19465108,17600378,19468154,3762,3558,571,-1194,1021,-321,-664,2425,48,30,822
1042440,17593816,19465244,17600575,19468351,3557,3336,796,-1031,1060,-144,-448,2500,48,30,822
1043440,17593996,19465364,17600772,19468548,3765,3470,996,-797,1072,-26,-297,2523,37,19,823
1044442,17594180,19465480,17600969,19468745,3748,3531,1175,-567,1019,17,19,2469,37,19,823
1045443,17594400,19465592,17601166,19468942,3514,3595,1343,-444,914,156,194,2189,32,18,825
1046444,17594600,19465692,17601363,19469139,3639,3712,1479,-315,769,207,406,2321,32,18,825
1047445,17594816,19465800,17601560,19469336,3532,3702,1590,-197,595,248,631,2135,56,35,823
1048446,17595036,19465932,17601757,19469533,3498,3581,1659,-194,340,293,995,1889,56,35,823
1049447,17595248,19466056,17601954,19469730,3542,3664,1671,-154,5,447,1220,2061,55,38,821
1050448,17595444,19466220,17602151,19469927,3644,3430,1616,-42,-324,680,1207,2214,55,38,821
1051449,17595660,19466380,17602348,19470124,3513,3472,1498,121,-594,907,1145,2437,51,41,824
1052450,17595876,19466556,17602545,19470321,3505,3381,1348,247,-818,956,1178,2363,51,41,824
1053450,17596048,19466720,17602742,19470518,3792,3472,1199,277,-1014,1079,1148,2225,31,31,824
1054452,17596260,19466892,17602939,19470715,3537,3434,1038,234,-1225,1178,1105,1996,31,31,824
1055453,17596452,19467056,17603136,19470912,3666,3498,857,124,-1431,1128,1002,1888,31,37,825
1056454,17596636,19467256,17603333,19471109,3723,3273,637,22,-1599,1065,813,2098,31,37,825
1057455,17596840,19467452,17603530,19471306,3595,3299,368,24,-1739,1045,756,2364,35,49,825
1058456,17597028,19467652,17603727,19471503,3701,3274,84,36,-1853,950,852,2338,35,49,825
1059456,17597228,19467848,17603924,19471700,3626,3299,-197,-44,-1946,888,977,2162,35,47,825
1060458,17597404,19468036,17604121,19471897,3786,3354,-475,-200,-2028,913,1101,2208,35,47,825
1061459,17597604,19468220,17604318,19472094,3636,3386,-762,-345,-2084,858,1228,2226,47,48,824
1062460,17597812,19468432,17604515,19472291,3583,3205,-1063,-484,-2112,812,1354,2188,47,48,824
1063461,17598000,19468632,17604712,19472488,3713,3279,-1386,-640,-2120,716,1463,2339,31,36,824
1064462,17598232,19468896,17604909,19472685,3424,2851,-1721,-775,-2104,616,1439,2476,31,36,824
1065463,17598444,19469152,17605106,19472882,3544,2876,-2056,-1000,-2072,550,1347,2307,55,61,827
1066464,17598688,19469380,17605303,19473079,3324,3037,-2374,-1348,-2032,426,806,2208,55,61,827
1067465,17598988,19469616,17605500,19473276,2930,2971,-2673,-1598,-1977,183,515,2519,63,47,830
1068466,17599232,19469892,17605697,19473473,3261,2687,-2949,-1920,-1904,-251,517,2334,63,47,830
1069466,17599496,19470164,17605894,19473670,3108,2680,-3223,-2261,-1834,-291,375,2575,50,47,829
1070468,17599768,19470456,17606091,19473867,3026,2513,-3494,-2507,-1736,-506,309,2749,50,47,829
1071469,17600044,19470704,17606288,19474064,2967,2767,-3711,-2895,-1601,-863,292,2534,49,54,830
1072470,17600340,19470968,17606485,19474261,2800,2639,-3904,-3269,-1464,-941,66,2767,49,54,830
1073471,17600652,19471232,17606682,19474458,2650,2609,-4070,-3632,-1285,-1193,-163,2868,68,49,833
1074472,17600972,19471520,17606879,19474655,2547,2420,-4211,-3961,-1066,-1386,-230,3051,68,49,833
1075472,17601280,19471824,17607076,19474852,2576,2273,-4308,-4319,-864,-1492,-201,2977,72,56,835
1076474,17601616,19472084,17607273,19475049,2340,2521,-4351,-4842,-667,-1774,-163,2966,72,56,835
1077475,17601920,19472336,17607470,19475246,2494,2548,-4359,-5311,-441,-1859,-369,3299,69,46,836
1078476,17602248,19472604,17607667,19475443,2288,2417,-4338,-5856,-205,-1987,-597,3143,69,46,836
1079477,17602628,19472872,17607864,19475640,1883,2387,-4282,-6489,31,-2076,-569,3455,69,49,837
1080477,17602952,19473144,17608061,19475837,2179,2329,-4201,-7116,259,-2123,-563,3689,69,49,837
1081478,17603268,19473412,17608258,19476034,2177,2324,-3726,-7980,432,-1559,-524,5609,61,50,837
1082479,17603544,19473656,17608455,19476231,2394,2453,-1256,-9738,279,1214,-705,22896,61,50,837
1083480,17603900,19473900,17608652,19476428,1825,2433,896,-10542,213,-58,-1122,13909,64,58,838
1084482,17604216,19474144,17608849,19476625,2023,2413,1224,-10143,470,-1615,-843,6939,64,58,838
1085482,17604540,19474376,17609046,19476822,1918,2473,663,-8948,792,-1677,-417,7588,74,40,837
1086483,17604904,19474636,17609243,19477019,1595,2271,287,-8113,946,-2079,399,6066,74,40,837
1087485,17605204,19474896,17609440,19477216,1951,2244,269,-7954,921,-1993,1094,5412,53,40,839
1088486,17605528,19475124,17609637,19477413,1746,2430,330,-7578,884,-1279,1353,6230,53,40,839
1089487,17605860,19475376,17609834,19477610,1638,2256,355,-7209,957,-964,1282,5545,51,56,841
1090495,17606144,19475636,17610064,19477840,1915,2194,313,-6779,1079,-649,1300,5843,51,56,841
1091488,17606432,19475900,17610261,19478037,1850,2140,267,-6336,1220,-308,1262,5445,50,50,840
1092490,17606764,19476196,17610458,19478234,1517,1897,254,-6204,1393,349,1052,4592,50,50,840
1093491,17607056,19476444,17610655,19478431,1726,2175,248,-6062,1608,1070,556,4403,73,43,839
1094492,17607356,19476676,17610852,19478628,1631,2259,282,-6290,1846,1211,263,3273,73,43,839
1095493,17607632,19476916,17611049,19478825,1747,2191,330,-6640,2064,1763,-103,3214,54,53,842
1096494,17607912,19477204,17611246,19479022,1687,1851,346,-6797,2268,2310,-424,3368,54,53,842
1097495,17608196,19477484,17611443,19479219,1623,1865,357,-6992,2477,2486,-814,3025,48,61,842
1098496,17608504,19477768,17611640,19479416,1426,1803,343,-7138,2647,2623,-1110,3247,48,61,842
1099497,17608816,19478064,17611837,19479613,1351,1684,318,-7232,2778,2535,-1376,3225,56,59,843
1100498,17609100,19478336,17612034,19479810,1488,1801,270,-7162,2897,2624,-1570,3666,56,59,843
1101499,17609424,19478608,17612231,19480007,1183,1769,153,-6852,3020,2527,-2189,4192,64,50,844
1102500,17609740,19478884,17612428,19480204,1181,1710,10,-6594,3133,2190,-2548,4198,64,50,844
1103501,17610052,19479152,17612625,19480401,1156,1728,-150,-6102,3237,2006,-2639,4942,70,49,844
1104502,17610316,19479376,17612822,19480598,1427,1992,-297,-5447,3330,1540,-2913,5075,70,49,844
1105503,17610616,19479576,17613019,19480795,1158,2141,-419,-4833,3415,1114,-3012,5279,67,59,844
1106504,17610900,19479856,17613216,19480992,1219,1605,-546,-3995,3490,913,-3018,6016,67,59,844
1107504,17611132,19480128,17613413,19481189,1530,1622,-658,-3191,3501,631,-2550,5683,66,54,843
1108506,17611400,19480380,17613610,19481386,1274,1723,-770,-2376,3442,544,-2194,5864,66,54,843
1109507,17611624,19480616,17613807,19481583,1537,1806,-867,-1750,3400,612,-1942,5374,55,44,846
1110508,17611816,19480848,17614004,19481780,1740,1816,-911,-1336,3391,728,-1696,4911,55,44,846
1111509,17612032,19481100,17614201,19481977,1582,1667,-917,-968,3372,838,-1496,4602,53,47,845
1112510,17612236,19481364,17614398,19482174,1655,1562,-849,-806,3332,682,-1692,3818,53,47,845
1113511,17612416,19481596,17614595,19482371,1812,1747,-748,-795,3324,592,-2319,3712,51,57,843
1114511,17612596,19481836,17614792,19482568,1820,1678,-611,-841,3369,560,-2651,3587,51,57,843
1115513,17612712,19482044,17614989,19482765,2256,1873,-458,-977,3466,615,-2726,3481,30,42,843
1116514,17612848,19482276,17615186,19482962,2158,1709,-325,-947,3589,1041,-2666,4050,30,42,843
1117515,17612980,19482540,17615383,19483159,2213,1480,-258,-800,3746,1795,-2445,4410,38,39,842
1118516,17613116,19482772,17615580,19483356,2214,1664,-230,-602,3888,2790,-1631,4375,38,39,842
1119517,17613240,19483004,17615777,19483553,2322,1649,-213,-444,3949,3332,-980,4232,39,40,841
1120518,17613356,19483244,17615974,19483750,2408,1580,-186,-391,3964,3284,-960,4212,39,40,841
1121519,17613472,19483468,17616171,19483947,2445,1668,-180,-276,3970,3083,-1188,4647,26,38,841
1122520,17613564,19483696,17616368,19484144,2641,1629,-167,-123,3960,2700,-1495,4572,26,38,841
1123521,17613652,19483984,17616565,19484341,2715,1214,-135,6,3921,2619,-1459,4594,11,55,840
1124522,17613724,19484248,17616762,19484538,2870,1335,-103,163,3820,2995,-1168,4609,11,55,840
1125522,17613784,19484516,17616959,19484735,3006,1279,-71,254,3697,3482,-1023,4463,6,52,838
1126523,17613840,19484744,17617156,19484932,3093,1516,-77,420,3576,3834,-1053,4841,6,52,838
1127524,17613888,19484968,17617353,19485129,3209,1529,-121,725,3456,3938,-1007,5011,23,40,836
1128526,17613972,19485252,17617550,19485326,3035,1116,-190,1023,3321,3951,-938,5118,23,40,836
1129527,17614048,19485516,17617747,19485523,3138,1212,-253,1369,3168,3986,-875,5082,7,44,836
1130527,17614160,19485764,17617944,19485720,2951,1289,-299,1658,2987,3938,-775,4829,7,44,836
1131528,17614264,19486020,17618141,19485917,3043,1213,-332,1949,2785,3760,-737,4791,11,57,838
1132530,17614384,19486280,17618338,19486114,2978,1161,-348,2175,2587,3397,-961,4745,11,57,838
1133530,17614548,19486560,17618535,19486311,2718,999,-344,2444,2409,3008,-1355,4708,28,59,838
1134532,17614688,19486816,17618732,19486508,2894,1122,-325,2694,2262,2635,-1607,4594,28,59,838
1135532,17614828,19487072,17618929,19486705,2920,1096,-291,2847,2122,2297,-1518,4244,25,55,839
1136534,17614968,19487340,17619126,19486902,2946,990,-238,2914,1970,2293,-1211,3812,25,55,839
1137534,17615116,19487552,17619323,19487099,2917,1333,-156,2834,1806,2419,-892,3390,43,46,837
1138536,17615248,19487828,17619520,19487296,3047,899,-63,2743,1660,2346,-862,3292,43,46,837
1139536,17615408,19488076,17619717,19487493,2889,1051,7,2637,1532,2043,-1096,3159,43,54,838
1140538,17615540,19488336,17619914,19487690,3094,949,65,2501,1389,1660,-1446,2978,43,54,838
1141539,17615672,19488548,17620111,19487887,3123,1242,152,2354,1224,1270,-1563,2783,44,52,839
1142539,17615848,19488788,17620308,19488084,2858,1048,271,2147,1063,907,-1685,2441,44,52,839
1143540,17616008,19488980,17620505,19488281,2975,1350,386,1905,939,684,-1880,2493,42,36,839
1144542,17616172,19489180,17620702,19488478,2965,1298,491,1723,874,499,-1912,2543,42,36,839
1145543,17616312,19489420,17620899,19488675,3141,1029,586,1570,835,451,-1779,2433,42,47,839
1146543,17616484,19489648,17621096,19488872,2953,1090,681,1401,770,412,-1378,2056,42,47,839
1147544,17616632,19489920,17621293,19489069,3126,783,756,1125,710,205,-1546,1835,30,52,838
1148546,17616788,19490176,17621490,19489266,3095,857,800,903,684,-54,-2199,1910,30,52,838
1149547,17616992,19490560,17621687,19489463,2793,-26,798,765,727,-357,-2939,2184,25,38,838
1150547,17617216,19490692,17621884,19489660,2657,1577,754,811,819,-655,-3259,2573,25,38,838
1151548,17617488,19490868,17622081,19489857,2324,1311,704,1172,889,-1163,-3219,3014,60,32,839
1152551,17617772,19491064,17622278,19490054,2212,1187,754,1326,905,-1451,-2523,1802,60,32,839
1153551,17618072,19491288,17622475,19490251,2067,1000,850,1053,809,-755,-1927,905,47,38,839
1154552,17618412,19491504,17622672,19490448,1756,1041,881,1139,697,-544,-1955,1928,47,38,839
1155553,17618784,19491752,17622869,19490645,1480,818,792,1430,655,-1462,-2261,2411,70,55,843
1156555,17619128,19491988,17623066,19490842,1591,876,726,1526,591,-869,-2175,1248,70,55,843
1157556,17619500,19492216,17623263,19491039,1339,912,739,1618,506,-68,-1472,890,81,40,846
1158556,17619904,19492488,17623460,19491236,1049,604,782,1599,472,-159,-1305,980,81,40,846
1159557,17620224,19492708,17623657,19491433,1521,919,771,1511,430,-188,-1613,1027,65,47,846
1160558,17620568,19492908,17623854,19491630,1307,1042,760,1485,411,-710,-1543,895,65,47,846
1161559,17620912,19493168,17624051,19491827,1243,639,736,1611,407,-642,-1320,1289,77,40,849
1162560,17621244,19493360,17624248,19492024,1260,1066,683,1752,341,-384,-1203,1083,77,40,849
1163561,17621544,19493628,17624445,19492221,1414,560,680,1648,285,-684,-1183,500,75,38,847
1164563,17621872,19493792,17624642,19492418,1183,1224,733,1562,268,-110,-1243,567,75,38,847
1165563,17622160,19493976,17624839,19492615,1393,1104,802,1480,268,35,-1291,281,67,40,847
1166564,17622404,19494236,17625036,19492812,1648,602,888,1325,308,-567,-1518,463,67,40,847
1167565,17622688,19494480,17625233,19493009,1360,680,954,1348,382,-680,-1781,961,62,39,847
1168567,17622968,19494644,17625430,19493206,1349,1195,1019,1379,433,-577,-1533,887,62,39,847
1169567,17623208,19494848,17625627,19493403,1581,941,1079,1626,444,-845,-1373,1444,64,43,847
1170568,17623440,19495116,17625824,19493600,1616,510,1128,1836,418,-1532,-1591,1241,64,43,847
1171569,17623656,19495376,17626021,19493797,1708,532,1166,2036,358,-1728,-1379,1557,50,35,846
1172570,17623864,19495564,17626218,19493994,1754,986,1136,2520,238,-1722,-876,2627,50,35,846
1173578,17624124,19495768,17626448,19494224,1416,897,1063,3115,80,-2040,-766,2711,37,38,847
1174572,17624360,19495908,17626645,19494421,1550,1321,945,3807,-88,-2689,-1245,3459,37,38,847
1175573,17624592,19496128,17626842,19494618,1559,811,821,4660,-270,-3607,-1236,3934,57,31,845
1176574,17624792,19496304,17627039,19494815,1758,1095,714,5495,-529,-3833,-866,3813,57,31,845
1177575,17624992,19496468,17627236,19495012,1758,1185,641,6104,-876,-3643,-517,3091,34,23,846
1178576,17625224,19496632,17627433,19495209,1542,1198,583,6251,-1244,-3438,-58,2361,34,23,846
1179577,17625456,19496768,17627630,19495406,1528,1400,513,6202,-1605,-3415,186,2246,38,35,845
1180578,17625684,19496916,17627827,19495603,1539,1346,404,6173,-1936,-3948,-277,2538,38,35,845
1181579,17625880,19497032,17628024,19495800,1740,1582,280,6157,-2245,-4482,-247,2641,43,17,844
1182580,17626056,19497148,17628221,19495997,1875,1617,133,5891,-2595,-4123,1029,1989,43,17,844
1183581,17626276,19497256,17628418,19496194,1590,1706,-18,5285,-2967,-3172,1947,1226,34,17,845
1184582,17626480,19497344,17628615,19496391,1688,1879,-198,4414,-3199,-2429,1464,667,34,17,845
1185583,17626728,19497492,17628812,19496588,1390,1525,-386,3228,-3221,-2280,513,209,40,30,843
1186584,17626928,19497692,17629009,19496785,1690,1199,-604,2062,-3082,-2878,-464,579,40,30,843
1187585,17627148,19497868,17629206,19496982,1555,1357,-855,1013,-2857,-3475,-579,676,52,31,843
1188586,17627340,19498060,17629403,19497179,1732,1259,-1094,-216,-2652,-3288,-126,64,52,31,843
1189587,17627540,19498236,17629600,19497376,1682,1369,-1344,-1647,-2531,-2452,599,-142,50,31,845
1190588,17627760,19498416,17629797,19497573,1547,1351,-1635,-3181,-2474,-1947,875,-342,50,31,845
1191589,17628016,19498540,17629994,19497770,1296,1733,-2020,-4733,-2397,-1771,67,188,37,37,845
1192590,17628236,19498708,17630191,19497967,1512,1471,-2496,-5928,-2195,-2106,-880,1609,37,37,845
1193591,17628472,19498824,17630388,19498164,1394,1830,-3129,-6611,-1796,-2737,-2090,3192,42,18,844
1194592,17628640,19498944,17630585,19498361,1833,1839,-3685,-7183,-1433,-2649,-1377,2859,42,18,844
1195593,17628808,19499088,17630782,19498558,1846,1713,-4048,-8085,-1275,-1833,-231,2255,35,23,845
1196594,17628992,19499216,17630979,19498755,1752,1843,-4273,-9168,-1262,-1025,180,2134,35,23,845
1197595,17629212,19499380,17631176,19498952,1518,1632,-4504,-10051,-1274,-560,-383,3102,45,35,842
1198596,17629440,19499520,17631373,19499149,1454,1807,-4775,-10681,-1166,-417,-1604,3853,45,35,842
1199597,17629628,19499644,17631570,19499346,1708,1940,-4981,-11102,-926,-189,-2056,4170,44,28,842
1200598,17629796,19499776,17631767,19499543,1847,1918,-5165,-11178,-672,121,-1763,5496,44,28,842
1201599,17629992,19499900,17631964,19499740,1672,2000,-5320,-11094,-533,276,-1067,6024,46,30,843
1202600,17630204,19500028,17632161,19499937,1567,2006,-5378,-11033,-563,602,-159,5925,46,30,843
1203601,17630380,19500160,17632358,19500134,1801,2009,-5335,-10880,-721,1153,539,6394,42,19,841
1204602,17630588,19500268,17632555,19500331,1596,2198,-4605,-9956,-915,2496,297,13034,42,19,841
1205603,17630800,19500368,17632752,19500528,1565,2291,-847,-3240,-1462,9375,88,32767,35,20,841
1206604,17631020,19500540,17632949,19500725,1505,1852,2731,2113,-1995,4636,352,25578,35,20,841
1207605,17631192,19500712,17633146,19500922,1816,1863,3592,2983,-2212,1779,1064,5166,32,29,841
1208606,17631420,19500860,17633343,19501119,1454,2034,2999,1205,-2302,2213,1241,3464,32,29,841
1209607,17631672,19501012,17633540,19501316,1279,2029,2499,-211,-2363,2799,558,3812,32,21,843
1210608,17631868,19501168,17633737,19501513,1631,2022,2337,-674,-2374,2761,402,4485,32,21,843
1211609,17632080,19501292,17633934,19501710,1524,2254,2420,-1066,-2399,2534,490,3078,31,34,843
1212610,17632260,19501444,17634131,19501907,1732,2099,2397,-1600,-2484,2518,298,3121,31,34,843
1213611,17632432,19501560,17634328,19502104,1794,2360,2405,-2435,-2537,1817,-103,2028,26,33,842
1214612,17632588,19501720,17634525,19502301,1912,2101,2317,-3559,-2568,1611,-575,1671,26,33,842
1215613,17632792,19501872,17634722,19502498,1609,2171,2232,-4458,-2630,1772,-952,1829,39,36,840
1216614,17632976,19502012,17634919,19502695,1740,2271,1481,-4277,-2426,1390,-3853,6369,39,36,840
1217615,17633204,19502152,17635116,19502892,1452,2297,608,-3776,-2113,1559,-3811,4212,36,37,840
1218616,17633400,19502296,17635313,19503089,1652,2295,143,-4129,-2067,1944,-1530,1684,36,37,840
1219617,17633640,19502468,17635510,19503286,1359,2131,-212,-4700,-2045,1820,-2270,2724,40,35,840
1220618,17633860,19502628,17635707,19503483,1474,2222,-709,-4990,-1996,1841,-2532,3169,40,35,840
1221619,17634080,19502768,17635904,19503680,1464,2372,-1172,-5171,-1917,1997,-1538,2683,29,28,841
1222620,17634264,19502892,17636101,19503877,1696,2504,-1568,-5238,-1761,2063,-1459,3450,29,28,841
1223621,17634464,19503024,17636298,19504074,1594,2484,-1921,-5251,-1547,2351,-1790,3319,30,34,841
1224622,17634688,19503124,17636495,19504271,1434,2727,-2083,-5509,-1376,2449,-671,2155,30,34,841
1225623,17634900,19503240,17636692,19504468,1502,2662,-2133,-5702,-1244,2379,-191,3001,26,27,838
1226624,17635108,19503340,17636889,19504665,1522,2805,-2195,-5643,-1119,2366,-249,3552,26,27,838
1227625,17635348,19503432,17637086,19504862,1304,2901,-2216,-5407,-994,2067,-31,3826,44,14,838
1228626,17635544,19503512,17637283,19505059,1580,3028,-2150,-4927,-890,1710,227,4264,44,14,838
1229627,17635740,19503628,17637480,19505256,1580,2839,-2044,-4422,-807,1607,406,4359,34,10,837
1230628,17635968,19503744,17637677,19505453,1368,2875,-1945,-3696,-711,1401,374,5175,34,10,837
1231629,17636216,19503864,17637874,19505650,1220,2884,-1850,-2781,-593,969,336,5493,47,30,836
1232630,17636436,19503984,17638071,19505847,1385,2918,-1764,-1775,-488,572,215,5781,47,30,836
1233631,17636636,19504124,17638268,19506044,1509,2818,-1708,-607,-391,150,57,6248,41,27,838
1234632,17636860,19504248,17638465,19506241,1348,2951,-1667,560,-272,-167,-226,6225,41,27,838
1235633,17637012,19504380,17638662,19506438,1818,2930,-1625,1694,-146,-174,-479,6046,37,30,838
1236634,17637192,19504532,17638859,19506635,1650,2825,-1549,2674,-2,-276,-580,5615,37,30,838
1237635,17637364,19504688,17639056,19506832,1712,2819,-1425,3447,150,-335,-760,5058,22,41,837
1238636,17637540,19504844,17639253,19507029,1696,2837,-1295,4006,279,-47,-886,4412,22,41,837
1239637,17637704,19504984,17639450,19507226,1786,2963,-1160,4300,427,236,-853,3469,43,32,838
1240638,17637868,19505164,17639647,19507423,1801,2720,-1047,4415,614,566,-953,3114,43,32,838
1241639,17638032,19505308,17639844,19507620,1816,2970,-966,4340,790,694,-1070,2508,24,32,837
1242640,17638192,19505496,17640041,19507817,1857,2698,-938,4097,956,597,-1235,2154,24,32,837
1243641,17638380,19505652,17640238,19508014,1687,2916,-981,3845,1130,705,-1383,2083,40,39,837
1244642,17638516,19505796,17640435,19508211,2039,3016,-1064,3515,1274,665,-1474,1770,40,39,837
1245643,17638676,19505936,17640632,19508408,1905,3066,-1170,3158,1389,378,-1468,1788,19,43,837
1246644,17638820,19506128,17640829,19508605,2029,2744,-1294,2803,1497,115,-1560,1722,19,43,837
1247645,17638968,19506316,17641026,19508802,2026,2773,-1425,2361,1590,101,-1369,1553,19,35,834
1248646,17639124,19506492,17641223,19508999,1995,2858,-1554,1961,1672,-8,-972,1976,19,35,834
1249647,17639284,19506668,17641420,19509196,1986,2867,-1693,1683,1751,-285,-981,2302,36,39,835
1250648,17639432,19506868,17641617,19509393,2083,2717,-1817,1540,1844,-533,-1073,2736,36,39,835
1251649,17639584,19507012,17641814,19509590,2078,3090,-1922,1515,1992,-796,-1371,3429,19,36,836
1252650,17639744,19507188,17642011,19509787,2045,2901,-2000,1597,2196,-1008,-1648,3815,19,36,836
1253651,17639896,19507372,17642208,19509984,2116,2856,-2046,1685,2403,-1299,-2029,4071,39,36,837
1254652,17640068,19507568,17642405,19510181,2002,2783,-2020,1756,2596,-1664,-1979,4198,39,36,837
1255653,17640212,19507732,17642602,19510378,2201,2997,-1907,1795,2679,-1962,-1772,4493,29,40,835
1256661,17640404,19507928,17642832,19510608,1917,2813,-515,1747,2766,-3775,-2681,15409,29,40,835
1257655,17640568,19508128,17643029,19510805,2107,2787,3021,1556,2974,-3952,-4958,32724,36,31,836
1258656,17640724,19508348,17643226,19511002,2176,2653,5365,1902,3125,-1138,-3112,13876,36,31,836
1259657,17640920,19508544,17643423,19511199,1926,2803,5518,2283,3279,-1184,-1906,5656,25,49,836
1260658,17641080,19508712,17643620,19511396,2169,2992,4856,2888,3390,-904,-1678,5946,25,49,836
1261659,17641272,19508916,17643817,19511593,1971,2764,4464,3144,3402,-1131,-983,4501,32,47,837
1262660,17641436,19509132,17644014,19511790,2161,2682,4422,2901,3286,-956,-741,3408,32,47,837
1263661,17641612,19509356,17644211,19511987,2096,2620,4468,2459,3104,-584,-515,2729,43,41,834
1264662,17641768,19509612,17644408,19512184,2240,2395,4470,1747,2942,-546,-478,2026,43,41,834
1265663,17641952,19509800,17644605,19512381,2070,2824,4370,1203,2811,-60,-799,2671,42,37,837
1266664,17642104,19510004,17644802,19512578,2291,2722,4252,623,2744,196,-874,2211,42,37,837
1267665,17642272,19510224,17644999,19512775,2204,2612,4145,-46,2770,379,-924,2201,48,44,837
1268666,17642476,19510420,17645196,19512972,1977,2763,4043,-630,2809,616,-871,2167,48,44,837
1269667,17642664,19510676,17645393,19513169,2081,2362,3971,-1447,2816,544,-496,1531,35,42,835
1270668,17642824,19510884,17645590,19513366,2273,2658,3905,-2217,2785,476,-419,1960,35,42,835
1271669,17642972,19511104,17645787,19513563,2370,2573,3843,-2878,2702,201,-347,1980,46,54,836
1272670,17643144,19511348,17645984,19513760,2232,2403,3766,-3442,2631,3,-295,2414,46,54,836
1273671,17643320,19511588,17646181,19513957,2217,2410,3641,-3723,2606,45,-336,3120,24,51,836
1274672,17643464,19511800,17646378,19514154,2440,2578,3499,-3890,2623,-154,-618,3324,24,51,836
1275673,17643652,19512080,17646575,19514351,2170,2117,3318,-3843,2635,-504,-529,4089,41,53,837
1276674,17643792,19512308,17646772,19514548,2495,2429,3083,-3671,2631,-747,-329,4155,41,53,837
1277675,17643976,19512496,17646969,19514745,2227,2684,2818,-3463,2619,-765,-173,4211,30,53,834
1278676,17644120,19512752,17647166,19514942,2500,2233,2509,-3171,2594,-754,16,4543,30,53,834
1279677,17644248,19513012,17647363,19515139,2631,2181,2269,-2939,2521,-922,428,3972,40,57,837
1280678,17644380,19513300,17647560,19515336,2635,1966,2075,-2758,2430,-956,635,3967,40,57,837
1281679,17644496,19513556,17647757,19515533,2772,2140,1908,-2553,2377,-989,767,3879,37,44,836
1282680,17644612,19513784,17647954,19515730,2808,2303,1754,-2376,2359,-1017,1052,3639,37,44,836
1283681,17644724,19514032,17648151,19515927,2871,2155,1612,-2213,2320,-1090,1381,3429,16,52,837
1284682,17644840,19514320,17648348,19516124,2882,1866,1498,-2118,2246,-1152,1529,3257,16,52,837
1285683,17644952,19514604,17648545,19516321,2945,1853,1417,-2058,2155,-1153,1643,3035,17,56,835
1286684,17645064,19514912,17648742,19516518,2983,1654,1381,-2112,2076,-1228,1663,2634,17,56,835
1287685,17645160,19515212,17648939,19516715,3128,1659,1388,-2220,2028,-1297,1502,2465,22,48,837
