"Data file recorded 2014/9/22  15:24:1"
"%  Right Stride Frequency         = 3.0"
"%  Left Stride Frequency         = 3.0"
"%  Phase (Fractional)         = 32768.0"
"%  Experiment.py "
"%  Motor Gains    = [1800, 200, 100, 0, 0, 1800, 200, 100, 0, 0]
"% Columns: "
"% time | Right Leg Pos | Left Leg Pos | Commanded Right Leg Pos | Commanded Left Leg Pos | DCR | DCL | GyroX | GryoY | GryoZ | AX | AY | AZ | RBEMF | LBEMF | VBatt "
11322,17988880,19856716,17989105,19856881,279,303,-350,-1132,64,-113,-368,4039,-11,3,855
12323,17988880,19856712,17989302,19857078,391,391,-349,-1131,65,-118,-388,4057,-11,3,855
13324,17988888,19856704,17989499,19857275,424,506,-350,-1130,66,-98,-395,4061,-12,-10,855
14325,17988880,19856724,17989696,19857472,614,409,-350,-1137,64,-95,-378,4074,-12,-10,855
15326,17988868,19856724,17989893,19857669,731,621,-351,-1111,61,-99,-382,4056,-3,-8,854
16327,17988880,19856712,17990090,19857866,662,788,-352,-1121,61,-72,-380,4056,-3,-8,854
17328,17988892,19856712,17990287,19858063,744,799,-352,-1121,61,-77,-389,4078,-3,-10,853
18329,17988876,19856720,17990484,19858260,1013,833,-352,-1130,65,-102,-409,4094,-3,-10,853
19329,17988888,19856724,17990681,19858457,919,943,-352,-1134,68,-106,-378,4063,-11,1,851
20331,17988880,19856720,17990878,19858654,1135,1081,-352,-1135,65,-107,-385,4079,-11,1,851
21332,17988880,19856728,17991075,19858851,1172,1089,-352,-1108,62,-127,-399,4066,-1,-9,850
22333,17988880,19856720,17991272,19859048,1259,1281,-353,-1106,60,-135,-364,4055,-1,-9,850
23334,17988884,19856712,17991469,19859245,1318,1371,-355,-1127,62,-126,-377,4086,-6,5,848
24335,17988892,19856732,17991666,19859442,1378,1274,-355,-1135,58,-112,-386,4034,-6,5,848
25336,17988888,19856716,17991863,19859639,1542,1593,-355,-1139,59,-84,-390,4042,5,-8,846
26337,17988896,19856716,17992060,19859836,1550,1581,-352,-1122,62,-107,-365,4052,5,-8,846
27338,17988904,19856716,17992257,19860033,1634,1667,-352,-1118,59,-111,-356,4025,-3,-4,846
28339,17988912,19856736,17992454,19860230,1717,1621,-354,-1106,53,-128,-371,4045,-3,-4,846
29339,17988924,19856728,17992651,19860427,1774,1887,-351,-1124,49,-123,-372,4054,-8,2,844
30340,17988972,19856736,17992848,19860624,1616,1870,-348,-1150,42,-127,-335,4088,-8,2,844
31342,17989008,19856744,17993045,19860821,1762,1954,-347,-1146,36,-152,-366,4090,4,2,844
32343,17989044,19856744,17993242,19861018,1833,2092,-342,-1115,26,-170,-328,4049,4,2,844
33344,17989104,19856744,17993439,19861215,1745,2179,-335,-1118,16,-143,-299,4052,-1,-9,843
34344,17989160,19856756,17993636,19861412,1832,2187,-329,-1143,3,-157,-265,4013,-1,-9,843
35345,17989220,19856772,17993833,19861609,1869,2242,-322,-1176,-14,-167,-221,4001,8,2,841
36347,17989284,19856768,17994030,19861806,1903,2455,-314,-1192,-35,-167,-218,3994,8,2,841
37348,17989392,19856788,17994227,19862003,1667,2384,-306,-1215,-55,-165,-301,3984,27,-4,840
38348,17989492,19856792,17994424,19862200,1761,2570,-296,-1213,-66,-215,-339,3983,27,-4,840
39350,17989580,19856828,17994621,19862397,1885,2442,-280,-1234,-90,-262,-187,3948,20,-2,839
40351,17989688,19856848,17994818,19862594,1800,2622,-260,-1278,-130,-281,-126,3938,20,-2,839
41352,17989800,19856856,17995015,19862791,1813,2781,-244,-1332,-166,-271,-158,3939,22,-1,839
42352,17989904,19856872,17995212,19862988,1905,2811,-231,-1355,-196,-263,-190,3930,22,-1,839
43354,17989980,19856916,17995409,19863185,2134,2704,-217,-1370,-222,-294,-190,3960,24,14,839
44355,17990076,19856948,17995606,19863382,2055,2853,-203,-1411,-261,-338,-178,3872,24,14,839
45356,17990192,19856996,17995803,19863579,1966,2819,-183,-1459,-307,-332,-201,3822,12,7,837
46357,17990284,19857036,17996000,19863776,2163,2940,-166,-1515,-348,-277,-239,3896,12,7,837
47358,17990384,19857080,17996197,19863973,2157,2984,-148,-1563,-386,-322,-188,3917,31,16,835
48359,17990496,19857116,17996394,19864170,2121,3105,-137,-1626,-429,-344,-240,3851,31,16,835
49360,17990604,19857160,17996591,19864367,2187,3125,-137,-1650,-461,-317,-406,3900,21,15,834
50361,17990716,19857208,17996788,19864564,2200,3166,-145,-1673,-470,-313,-552,3943,21,15,834
51361,17990836,19857248,17996985,19864761,2185,3286,-160,-1673,-467,-344,-590,3972,12,11,834
52362,17990960,19857324,17997182,19864958,2193,3116,-176,-1709,-466,-348,-473,3923,12,11,834
53364,17991076,19857420,17997379,19865155,2279,3037,-190,-1692,-467,-314,-351,3982,35,10,834
54364,17991200,19857492,17997576,19865352,2263,3244,-189,-1676,-470,-367,-239,3958,35,10,834
55366,17991300,19857576,17997773,19865549,2457,3219,-175,-1674,-484,-399,-147,3869,19,10,834
56367,17991428,19857656,17997970,19865746,2313,3298,-159,-1720,-489,-374,-44,3912,19,10,834
57368,17991564,19857772,17998167,19865943,2291,3109,-138,-1735,-490,-370,163,3857,29,28,833
58369,17991688,19857892,17998364,19866140,2400,3120,-109,-1785,-496,-391,356,3725,29,28,833
59370,17991848,19857976,17998561,19866337,2193,3396,-67,-1822,-507,-407,574,3758,38,20,832
60371,17991996,19858100,17998758,19866534,2290,3180,-15,-1897,-532,-452,819,3709,38,20,832
61372,17992152,19858236,17998955,19866731,2259,3134,43,-1952,-569,-466,994,3662,21,15,834
62373,17992308,19858356,17999152,19866928,2279,3268,98,-1977,-612,-545,1015,3758,21,15,834
63374,17992444,19858476,17999349,19867125,2432,3304,142,-1987,-666,-744,912,3796,39,32,833
64375,17992584,19858616,17999546,19867322,2433,3205,170,-2012,-718,-827,759,3825,39,32,833
65376,17992736,19858752,17999743,19867519,2380,3259,192,-2042,-746,-792,621,3726,26,34,833
66377,17992888,19858900,17999940,19867716,2401,3208,209,-2050,-757,-871,578,3806,26,34,833
67378,17993048,19859056,18000137,19867913,2368,3177,202,-2026,-749,-869,518,3912,42,34,833
68379,17993212,19859184,18000334,19868110,2359,3384,172,-2056,-725,-760,533,3758,42,34,833
69380,17993380,19859360,18000531,19868307,2348,3095,126,-2095,-702,-632,658,3804,40,40,831
70381,17993576,19859528,18000728,19868504,2174,3160,78,-2127,-679,-571,824,3629,40,40,831
71382,17993740,19859696,18000925,19868701,2391,3174,32,-2265,-662,-492,1028,3535,48,31,830
72383,17993944,19859860,18001122,19868898,2139,3215,-38,-2363,-655,-336,1194,3676,48,31,830
73384,17994152,19860068,18001319,19869095,2110,2937,-120,-2520,-659,-181,1397,3492,29,35,834
74385,17994348,19860192,18001516,19869292,2188,3496,-206,-2647,-681,-125,1569,3523,29,35,834
75386,17994540,19860356,18001713,19869489,2216,3262,-299,-2816,-714,-59,1634,3556,48,40,834
76387,17994756,19860512,18001910,19869686,2059,3332,-408,-2969,-754,27,1684,3544,48,40,834
77388,17994940,19860704,18002107,19869883,2266,3111,-533,-3113,-798,165,1755,3602,28,26,833
78389,17995132,19860876,18002304,19870080,2219,3248,-668,-3313,-832,290,1692,3579,28,26,833
79389,17995368,19861036,18002501,19870277,1929,3341,-820,-3487,-841,391,1560,3779,28,35,834
80391,17995584,19861184,18002698,19870474,2047,3440,-978,-3606,-827,439,1510,3778,28,35,834
81392,17995796,19861364,18002895,19870671,2066,3249,-1130,-3771,-810,479,1470,3800,51,28,832
82393,17995996,19861504,18003092,19870868,2142,3526,-1269,-3973,-795,536,1426,3721,51,28,832
83394,17996156,19861656,18003289,19871065,2409,3472,-1394,-4166,-787,519,1405,3724,29,37,833
84395,17996336,19861848,18003486,19871262,2293,3227,-1504,-4337,-769,493,1308,3864,29,37,833
85396,17996544,19862068,18003683,19871459,2115,3043,-1605,-4477,-732,417,1024,4052,46,45,832
86397,17996712,19862252,18003880,19871656,2379,3276,-1712,-4543,-668,327,648,4380,46,45,832
87398,17996904,19862448,18004077,19871853,2233,3203,-1833,-4493,-588,285,438,4713,27,35,834
88399,17997088,19862648,18004274,19872050,2289,3178,-1931,-4463,-500,416,518,4556,27,35,834
89400,17997280,19862852,18004471,19872247,2243,3152,-2013,-4403,-424,603,610,4649,45,34,833
90401,17997476,19863048,18004668,19872444,2220,3205,-2069,-4398,-335,766,738,4659,45,34,833
91402,17997668,19863236,18004865,19872641,2248,3261,-2093,-4384,-245,813,882,4911,49,43,833
92403,17997892,19863384,18005062,19872838,2037,3533,-2021,-4373,-158,1006,946,5693,49,43,833
93423,17998080,19863572,18005292,19873068,3308,3800,-1452,-4156,-84,1552,911,10541,50,37,833
94418,17998296,19863736,18005489,19873265,3125,3800,-265,-3608,-48,2439,536,16031,50,37,833
95418,17998528,19863940,18005686,19873462,3011,3800,648,-3111,49,1724,71,10255,54,36,833
96420,17998764,19864120,18005883,19873659,2971,3800,805,-2998,227,1177,190,5559,54,36,833
97420,17999008,19864320,18006080,19873856,2901,3800,573,-3037,416,1086,173,4875,59,44,826
98421,17999320,19864528,18006277,19874053,2428,3800,372,-3119,577,829,153,4504,59,44,826
99422,17999592,19864744,18006474,19874250,2646,3800,277,-3150,706,644,9,4613,68,48,828
100424,17999884,19864972,18006671,19874447,2480,3800,223,-3036,827,468,-325,4801,68,48,828
101424,18000224,19865180,18006868,19874644,2118,3800,131,-2924,954,297,-505,4854,70,38,829
102425,18000532,19865380,18007065,19874841,2271,3800,25,-2747,1074,49,-561,4836,70,38,829
103426,18000816,19865572,18007262,19875038,2384,3800,-85,-2644,1187,-153,-665,4702,75,49,829
104428,18001160,19865756,18007459,19875235,1946,3800,-180,-2557,1299,-265,-639,4700,75,49,829
105429,18001480,19865968,18007656,19875432,2043,3800,-266,-2503,1390,-407,-523,4516,51,42,830
106429,18001784,19866168,18007853,19875629,2098,3800,-338,-2464,1459,-530,-468,4404,51,42,830
107430,18002120,19866348,18008050,19875826,1837,3800,-403,-2480,1502,-735,-434,4352,66,42,832
108432,18002440,19866512,18008247,19876023,1884,3800,-446,-2498,1530,-936,-427,4240,66,42,832
109432,18002756,19866684,18008444,19876220,1858,3800,-479,-2514,1573,-1267,-592,4340,74,36,832
110434,18003044,19866840,18008641,19876417,1994,3800,-505,-2510,1650,-1712,-903,4485,74,36,832
111434,18003356,19867024,18008838,19876614,1795,3800,-516,-2533,1742,-2005,-904,4446,55,33,831
112436,18003632,19867176,18009035,19876811,1986,3800,-472,-2637,1809,-2269,-661,4104,55,33,831
113436,18003940,19867348,18009232,19877008,1738,3800,-387,-2799,1857,-2469,-625,4041,68,37,830
114438,18004248,19867508,18009429,19877205,1690,3800,-304,-2957,1922,-2543,-818,4187,68,37,830
115438,18004516,19867676,18009626,19877402,1910,3800,-218,-3136,1995,-2413,-700,3946,74,37,828
116440,18004800,19867848,18009823,19877599,1773,3800,-96,-3396,2051,-2169,-404,3659,74,37,828
117441,18005064,19868044,18010020,19877796,1869,3800,29,-3705,2087,-1827,-351,3698,50,37,832
118441,18005300,19868248,18010217,19877993,2028,3800,131,-4015,2155,-1398,-296,3781,50,37,832
119442,18005524,19868436,18010414,19878190,2092,3800,197,-4279,2225,-875,-74,3888,44,46,832
120443,18005784,19868632,18010611,19878387,1841,3800,221,-4493,2312,-349,152,4144,44,46,832
121445,18006000,19868860,18010808,19878584,2108,3800,209,-4586,2398,-220,5,4430,49,34,831
122445,18006192,19869080,18011005,19878781,2262,3800,172,-4652,2473,-322,-409,4557,49,34,831
123446,18006424,19869296,18011202,19878978,1997,3800,144,-4723,2501,-3,-451,4516,58,35,832
124448,18006600,19869496,18011399,19879175,2357,3800,99,-4859,2481,546,-339,4500,58,35,832
125449,18006768,19869668,18011596,19879372,2421,3800,57,-4974,2438,1146,-198,4453,31,39,829
126450,18006888,19869864,18011793,19879569,2755,3800,-38,-4995,2407,1530,-501,4853,31,39,829
127450,18007020,19870088,18011990,19879766,2710,3800,-160,-4904,2407,1813,-672,4908,38,37,829
128452,18007116,19870332,18012187,19879963,2980,3800,-286,-4838,2431,2055,-869,4879,38,37,829
129452,18007200,19870564,18012384,19880160,3106,3800,-416,-4751,2434,2441,-1210,4928,29,50,827
130453,18007300,19870800,18012581,19880357,3049,3800,-537,-4783,2400,3103,-1111,4519,29,50,827
131454,18007364,19871000,18012778,19880554,3334,3800,-647,-4803,2302,3622,-968,4485,18,37,826
132455,18007472,19871236,18012975,19880751,3099,3800,-730,-4819,2149,3702,-878,4336,18,37,826
133457,18007600,19871452,18013172,19880948,3005,3800,-792,-4819,1997,3593,-1163,4405,10,44,825
134457,18007724,19871700,18013369,19881145,3063,3800,-841,-4719,1870,3628,-1411,4612,10,44,825
135458,18007868,19871912,18013566,19881342,2963,3800,-866,-4566,1754,3559,-1417,4528,25,42,823
136459,18008056,19872104,18013763,19881539,2693,3800,-857,-4377,1629,3212,-1527,4559,25,42,823
137461,18008208,19872292,18013960,19881736,2939,3800,-802,-4212,1521,2586,-1833,4568,36,39,825
138461,18008356,19872468,18014157,19881933,2987,3800,-718,-3939,1454,1909,-2057,4934,36,39,825
139463,18008496,19872636,18014354,19882130,3063,3800,-603,-3560,1407,1228,-2114,5011,29,41,827
140464,18008636,19872820,18014551,19882327,3089,3800,-409,-3265,1355,1013,-1713,4452,29,41,827
141464,18008784,19873004,18014748,19882524,3061,3800,-178,-3018,1311,1210,-1455,4450,25,44,826
142465,18008960,19873212,18014945,19882721,2897,3800,61,-2706,1276,1171,-1215,4427,25,44,826
143466,18009160,19873364,18015142,19882918,2746,3800,301,-2392,1259,742,-1068,4393,45,41,825
144467,18009368,19873524,18015339,19883115,2693,3800,563,-1981,1291,246,-877,4560,45,41,825
145468,18009568,19873676,18015536,19883312,2743,3800,838,-1499,1389,-392,-918,4814,38,22,826
146470,18009748,19873840,18015733,19883509,2877,3800,1109,-890,1518,-1096,-989,4904,51,33,826
147470,18009924,19874036,18015930,19883706,2912,3800,1401,-400,1654,-1562,-1048,4441,51,33,826
148471,18010120,19874240,18016127,19883903,2788,3800,1713,-101,1750,-1642,-611,3974,42,38,826
149473,18010328,19874440,18016324,19884100,2709,3800,2364,382,1773,-1620,369,3452,42,38,826
150473,18010572,19874676,18016521,19884297,2465,3800,2669,622,1813,-1622,348,3557,40,32,827
151474,18010780,19874916,18016718,19884494,2686,3800,2882,1012,1963,-1733,128,3993,40,32,827
152475,18011020,19875156,18016915,19884691,2469,3800,3022,1538,2195,-1919,-180,4125,55,43,829
153464,18011240,19875464,18017112,19884888,2585,3657,3157,1933,2414,-1719,78,3608,55,43,829
154465,18011452,19875812,18017309,19885085,2629,3343,3282,2141,2542,-1231,528,3126,50,68,830
155466,18011696,19876184,18017506,19885282,2410,3117,3371,2264,2591,-712,726,2806,50,68,830
156467,18011952,19876596,18017703,19885479,2310,2774,3385,2355,2608,-609,583,2689,46,84,830
157468,18012152,19877000,18017900,19885676,2659,2735,3307,2634,2658,-992,-27,3398,46,84,830
158469,18012384,19877428,18018097,19885873,2445,2485,3121,2985,2773,-1070,-430,3771,41,78,836
159470,18012608,19877812,18018294,19886070,2484,2680,2897,3259,2847,-412,-36,3108,41,78,836
160471,18012804,19878200,18018491,19886267,2661,2573,2705,3170,2805,896,1140,1554,50,71,837
161472,18013076,19878664,18018688,19886464,2155,1981,2555,2671,2624,1784,2166,685,50,71,837
162473,18013312,19879148,18018885,19886661,2364,1732,2322,2195,2386,1777,1841,1475,58,80,837
163473,18013524,19879604,18019082,19886858,2508,1794,2001,2041,2230,1112,848,2031,58,80,837
164475,18013764,19880060,18019279,19887055,2315,1681,1633,1959,2169,1012,75,2077,34,94,841
165476,18013972,19880536,18019476,19887252,2511,1436,1237,1822,2090,1885,409,1867,34,94,841
166477,18014184,19880988,18019673,19887449,2481,1475,865,1449,1889,2483,882,960,50,102,842
167478,18014468,19881560,18019870,19887646,1993,561,539,884,1606,2743,420,734,50,102,842
168478,18014716,19882020,18020067,19887843,2197,1146,196,613,1363,2368,-470,1935,48,87,841
169479,18014960,19882436,18020264,19888040,2202,1326,-174,563,1240,1692,-1204,2357,48,87,841
170481,18015176,19882908,18020461,19888237,2370,857,-491,605,1141,1739,-996,2088,57,89,844
171482,18015404,19883356,18020658,19888434,2282,898,-745,490,913,2272,-268,1783,57,89,844
172483,18015612,19883700,18020855,19888631,2404,1484,-919,283,633,2890,61,1607,48,81,844
173484,18015856,19884172,18021052,19888828,2159,564,-1025,164,374,2667,70,1857,48,81,844
174485,18016136,19884540,18021249,19889025,1898,1139,-1085,203,141,1673,-181,2350,66,71,842
175485,18016372,19884932,18021446,19889222,2157,905,-1109,384,-62,1379,-61,2521,66,71,842
176494,18016584,19885284,18021676,19889452,2316,1102,-1130,612,-277,1280,-118,2258,41,66,845
177487,18016844,19885632,18021873,19889649,1990,1062,-1169,834,-429,1375,-1071,2299,41,66,845
178489,18017064,19885988,18022070,19889846,2230,943,-1196,1075,-520,1444,-1566,2509,44,56,843
179489,18017388,19886308,18022267,19890043,1526,1114,-1139,1313,-573,1184,-1878,2305,44,56,843
180491,18017712,19886624,18022464,19890240,1471,1088,-1014,1577,-618,790,-1855,2426,47,52,843
181492,18017984,19886952,18022661,19890437,1764,956,-877,1867,-677,416,-1668,2505,47,52,843
182493,18018244,19887272,18022858,19890634,1811,952,-748,2172,-763,531,-1544,2411,62,60,847
183494,18018536,19887548,18023055,19890831,1570,1193,-609,2455,-873,796,-1521,2068,62,60,847
184494,18018872,19887812,18023252,19891028,1235,1240,-397,2495,-968,688,-1588,1340,70,56,846
185495,18019176,19888112,18023449,19891225,1389,970,-160,2439,-1054,532,-1624,1399,70,56,846
186497,18019492,19888388,18023646,19891422,1263,1086,34,2519,-1131,208,-1805,1759,72,57,847
187498,18019784,19888684,18023843,19891619,1372,917,160,2763,-1177,95,-1667,2041,72,57,847
188499,18020084,19888928,18024040,19891816,1277,1223,240,3054,-1188,104,-1415,2095,59,44,848
189500,18020396,19889160,18024237,19892013,1152,1283,285,3392,-1166,-8,-1311,2252,59,44,848
190501,18020704,19889404,18024434,19892210,1130,1188,294,3789,-1143,-120,-1294,2365,72,42,846
191502,18020976,19889624,18024631,19892407,1323,1328,289,4090,-1133,-152,-1115,1925,72,42,846
192503,18021268,19889848,18024828,19892604,1156,1292,264,4229,-1165,-151,-704,1754,58,32,847
193504,18021588,19890020,18025025,19892801,928,1629,162,4362,-1303,-225,-383,1789,58,32,847
194505,18021880,19890208,18025222,19892998,1062,1533,12,4401,-1519,-320,-324,1447,62,40,847
195506,18022112,19890380,18025419,19893195,1422,1645,-176,4403,-1739,-301,-614,1550,62,40,847
196507,18022368,19890532,18025616,19893392,1247,1789,-423,4412,-1905,-255,-748,1714,47,29,847
197508,18022624,19890648,18025813,19893589,1222,2051,-705,4377,-2006,-239,-1012,1732,47,29,847
198509,18022860,19890772,18026010,19893786,1330,2033,-991,4150,-2066,-175,-1413,1351,57,31,845
199510,18023084,19890920,18026207,19893983,1394,1906,-1246,3712,-2142,-199,-1650,931,57,31,845
200511,18023300,19891104,18026404,19894180,1436,1687,-1464,3062,-2325,-247,-1300,449,55,39,842
201512,18023512,19891240,18026601,19894377,1455,2014,-1636,2189,-2601,-323,-1060,95,55,39,842
202513,18023716,19891396,18026798,19894574,1503,1908,-1782,1249,-2879,-250,-1026,78,44,34,843
203514,18023968,19891528,18026995,19894771,1179,2087,-1956,387,-3097,-188,-1068,409,44,34,843
204515,18024176,19891668,18027192,19894968,1450,2063,-2168,-425,-3211,-122,-1268,840,50,18,843
205516,18024444,19891800,18027389,19895165,1044,2142,-2381,-1173,-3231,-81,-1568,1281,50,18,843
206517,18024664,19891964,18027586,19895362,1335,1957,-2606,-1844,-3181,11,-1772,1584,57,31,843
207517,18024932,19892084,18027783,19895559,1003,2267,-2818,-2537,-3101,95,-1590,1705,57,31,843
208519,18025248,19892224,18027980,19895756,652,2168,-3031,-3245,-3062,125,-1259,1728,40,20,843
209519,18025468,19892368,18028177,19895953,1242,2166,-3221,-4012,-3089,149,-1046,1776,40,20,843
210520,18025652,19892532,18028374,19896150,1474,2056,-3399,-4755,-3139,152,-972,2150,34,19,844
211522,18025852,19892692,18028571,19896347,1372,2099,-3577,-5405,-3179,253,-922,2642,34,19,844
212523,18026028,19892828,18028768,19896544,1533,2276,-3787,-5855,-3174,459,-876,3258,49,31,842
213524,18026240,19892984,18028965,19896741,1302,2170,-4024,-6148,-3111,804,-907,3998,49,31,842
214525,18026532,19893120,18029162,19896938,760,2322,-4270,-6327,-3022,1168,-775,4426,42,20,841
215526,18026836,19893308,18029359,19897135,639,2001,-4475,-6466,-2955,1404,-521,4570,42,20,841
216527,18027144,19893432,18029556,19897332,565,2434,-4645,-6715,-2965,1714,-14,4571,59,31,844
217528,18027356,19893588,18029753,19897529,1159,2253,-4965,-6757,-3043,2270,77,5774,59,31,844
218528,18027612,19893756,18029950,19897726,859,2192,-5387,-6711,-3108,2730,-129,5448,35,44,844
219530,18027900,19893956,18030147,19897923,619,1991,-5679,-7032,-3185,3329,291,4258,35,44,844
220531,18028164,19894124,18030344,19898120,741,2205,-5857,-7469,-3272,4130,274,4608,57,25,844
221532,18028432,19894320,18030541,19898317,684,2031,-4832,-6729,-3304,6041,-901,15516,57,25,844
222533,18028624,19894484,18030738,19898514,1163,2246,-585,4,-3303,10289,-4137,32767,44,40,843
223534,18028832,19894656,18030935,19898711,1058,2207,2878,4262,-3274,6753,-1559,17317,44,40,843
224535,18029084,19894816,18031132,19898908,759,2300,2994,3560,-3147,6130,-293,1797,56,24,843
225536,18029320,19894988,18031329,19899105,842,2237,1979,706,-3116,6517,235,-942,56,24,843
226537,18029548,19895148,18031526,19899302,879,2329,1025,-2100,-3126,7013,68,-598,50,30,844
227538,18029776,19895336,18031723,19899499,866,2159,389,-3380,-3001,6596,-807,1557,50,30,844
228539,18029980,19895488,18031920,19899696,1013,2404,-260,-4107,-2813,6316,-682,1817,38,26,843
229540,18030148,19895660,18032117,19899893,1251,2291,-821,-4746,-2709,6027,-94,1555,38,26,843
230540,18030372,19895804,18032314,19900090,890,2490,-1309,-5611,-2691,5128,566,1964,40,25,843
231542,18030532,19895968,18032511,19900287,1306,2380,-1716,-6319,-2698,4454,570,2371,40,25,843
232543,18030688,19896132,18032708,19900484,1349,2396,-2048,-6782,-2672,4115,248,3020,45,23,843
233544,18030880,19896284,18032905,19900681,1127,2491,-2365,-6794,-2558,3257,-231,4256,45,23,843
234544,18031024,19896460,18033102,19900878,1451,2351,-2665,-6317,-2417,2353,-739,5238,31,31,840
235546,18031224,19896616,18033299,19901075,1100,2495,-2831,-5720,-2289,1491,-843,5049,31,31,840
236547,18031404,19896756,18033496,19901272,1233,2621,-2815,-5088,-2130,140,-1056,5632,21,33,841
237548,18031600,19896884,18033693,19901469,1133,2727,-2680,-4349,-1921,-811,-1367,6013,21,33,841
238549,18031756,19897060,18033890,19901666,1402,2438,-2511,-3403,-1689,-1623,-1421,6355,35,22,841
239550,18031920,19897236,18034087,19901863,1367,2448,-2344,-2255,-1429,-2585,-1398,7023,35,22,841
240551,18032072,19897400,18034284,19902060,1463,2537,-2184,-871,-1157,-3112,-1516,7515,23,39,841
241551,18032212,19897552,18034481,19902257,1563,2633,-2031,493,-858,-3222,-1516,7175,23,39,841
242553,18032348,19897696,18034678,19902454,1614,2707,-1833,1749,-527,-3493,-1500,6950,35,27,840
243554,18032492,19897852,18034875,19902651,1589,2651,-1600,2782,-205,-3661,-1679,6125,35,27,840
244555,18032640,19898012,18035072,19902848,1585,2644,-1333,3557,101,-3469,-1831,5416,17,24,837
245556,18032764,19898188,18035269,19903045,1768,2554,-1070,4273,418,-3208,-1612,5409,17,24,837
246557,18032916,19898340,18035466,19903242,1613,2725,-810,4892,735,-2914,-1622,4889,28,38,838
247558,18033052,19898500,18035663,19903439,1741,2692,-535,5258,1032,-2335,-1473,3993,28,38,838
248559,18033176,19898680,18035860,19903636,1848,2575,-257,5387,1321,-1822,-1224,3621,36,38,838
249560,18033348,19898828,18036057,19903833,1560,2798,-10,5309,1584,-1447,-1168,3002,36,38,838
250561,18033484,19899012,18036254,19904030,1812,2580,195,4992,1826,-1076,-1194,2259,23,41,838
251562,18033644,19899152,18036451,19904227,1679,2881,373,4493,2078,-793,-1309,1950,23,41,838
252563,18033812,19899344,18036648,19904424,1642,2559,501,3989,2319,-283,-1412,2154,43,29,838
253564,18033984,19899528,18036845,19904621,1629,2616,585,3548,2542,-36,-1617,2411,43,29,838
254565,18034168,19899728,18037042,19904818,1559,2515,637,3158,2739,-35,-1678,2514,24,48,838
255565,18034352,19899920,18037239,19905015,1566,2568,663,2731,2860,150,-1398,2487,24,48,838
256567,18034512,19900148,18037436,19905212,1733,2330,638,2330,2866,365,-1138,2765,29,48,839
257567,18034704,19900332,18037633,19905409,1536,2612,579,1972,2751,369,-1223,3096,29,48,839
258569,18034844,19900540,18037830,19905606,1887,2458,500,1771,2520,236,-1334,3604,29,42,840
259576,18035016,19900752,18038060,19905836,1712,2442,372,1748,2247,138,-1630,4544,29,42,840
260571,18035172,19900940,18038257,19906033,1831,2597,183,1978,1956,11,-1341,5489,27,37,839
261572,18035312,19901148,18038454,19906230,1956,2468,-58,2320,1640,42,-1093,5709,27,37,839
262573,18035492,19901328,18038651,19906427,1715,2651,-280,2579,1268,-75,-797,5574,24,49,839
263573,18035676,19901556,18038848,19906624,1696,2339,-297,2554,876,-606,-926,5906,24,49,839
264575,18035844,19901776,18039045,19906821,1809,2380,1686,869,834,-4682,-3955,19869,37,58,838
265576,18036024,19902000,18039242,19907018,1743,2344,3625,-245,978,-2632,-3309,15106,37,58,838
266576,18036176,19902232,18039439,19907215,1937,2279,3831,-121,982,-467,-1589,6668,37,52,839
267577,18036308,19902480,18039636,19907412,2092,2158,3103,738,803,-589,-1214,7146,37,52,839
268579,18036476,19902720,18039833,19907609,1881,2190,2479,1430,426,-1337,-12,6184,43,49,839
269580,18036624,19902912,18040030,19907806,2027,2493,2185,1434,-36,-1461,649,4954,43,49,839
270581,18036784,19903152,18040227,19908003,1970,2175,2069,1246,-383,-1630,92,4823,31,39,840
271582,18036928,19903392,18040424,19908200,2094,2157,1977,873,-514,-1800,-428,4030,31,39,840
272583,18037104,19903616,18040621,19908397,1903,2247,1815,597,-464,-1814,-1017,4383,38,37,840
273583,18037260,19903892,18040818,19908594,2047,1888,1611,390,-276,-1914,-1473,4063,38,37,840
274584,18037444,19904116,18041015,19908791,1879,2201,1442,-5,6,-1989,-1442,3358,42,53,839
275585,18037600,19904312,18041212,19908988,2072,2377,1331,-522,333,-2129,-1345,2982,42,53,839
276587,18037764,19904536,18041409,19909185,2037,2192,1246,-1111,652,-2267,-792,2498,43,46,840
277588,18037916,19904732,18041606,19909382,2133,2368,1234,-1872,985,-2459,-329,1844,43,46,840
278589,18038088,19904960,18041803,19909579,2019,2155,1263,-2641,1281,-2619,-15,1904,27,29,839
279589,18038244,19905172,18042000,19909776,2138,2250,1370,-3337,1544,-2934,79,1735,27,29,839
280591,18038352,19905368,18042197,19909973,2478,2351,1464,-4012,1823,-3008,-164,1858,38,39,839
281592,18038524,19905588,18042394,19910170,2090,2192,1499,-4540,2201,-2848,-631,2341,38,39,839
282592,18038700,19905772,18042591,19910367,2074,2424,1482,-4865,2669,-3053,-567,2690,34,38,837
283593,18038872,19906012,18042788,19910564,2111,2055,1458,-5021,3140,-3294,-450,3146,34,38,837
284595,18039048,19906256,18042985,19910761,2097,2010,1442,-5042,3525,-3443,-186,3382,48,50,838
285596,18039188,19906496,18043182,19910958,2347,2017,1440,-4936,3838,-3624,51,3842,48,50,838
286597,18039320,19906700,18043379,19911155,2426,2240,1483,-4702,4078,-3773,287,3856,25,50,840
287598,18039484,19906920,18043576,19911352,2242,2131,1551,-4435,4272,-3777,413,4098,25,50,840
288599,18039612,19907128,18043773,19911549,2498,2202,1635,-4033,4417,-3850,802,4457,22,48,837
289600,18039740,19907416,18043970,19911746,2529,1663,1708,-3577,4454,-3797,1124,4345,22,48,837
290601,18039860,19907696,18044167,19911943,2613,1677,1786,-3120,4386,-3542,1151,4178,38,48,836
291601,18039988,19907952,18044364,19912140,2595,1802,1844,-2719,4319,-3108,678,4255,38,48,836
292603,18040096,19908244,18044561,19912337,2760,1536,1896,-2304,4314,-2482,434,4215,17,46,839
293604,18040232,19908452,18044758,19912534,2612,2057,1954,-1962,4356,-1827,493,3803,17,46,839
294605,18040352,19908620,18044955,19912731,2747,2321,2033,-1743,4390,-1325,703,3402,34,37,839
295606,18040468,19908752,18045152,19912928,2809,2575,2141,-1736,4347,-854,863,2670,34,37,839
296606,18040576,19908920,18045349,19913125,2899,2363,2279,-1991,4210,-472,843,1757,37,32,835
297607,18040700,19909096,18045546,19913322,2831,2324,2429,-2381,4027,-57,680,1455,37,32,835
298608,18040808,19909324,18045743,19913519,2971,1986,2535,-2817,3843,312,376,1358,28,34,834
299609,18040948,19909604,18045940,19913716,2797,1626,2572,-3147,3680,719,-77,1606,28,34,834
300610,18041092,19909940,18046137,19913913,2797,1214,2529,-3290,3515,978,-254,2133,36,61,835
301612,18041232,19910148,18046334,19914110,2848,2011,2430,-3342,3335,1292,-223,2204,36,61,835
302613,18041360,19910504,18046531,19914307,2954,1017,2294,-3401,3113,1588,57,2194,43,58,839
303613,18041524,19910836,18046728,19914504,2744,1108,2175,-3549,2850,1644,467,1826,43,58,839
304615,18041680,19911148,18046925,19914701,2813,1183,2046,-3674,2555,1701,395,2111,26,55,838
305615,18041816,19911436,18047122,19914898,2966,1294,1864,-3616,2252,1762,150,2506,26,55,838
306617,18041992,19911792,18047319,19915095,2726,800,1631,-3401,1928,1783,320,2979,46,56,839
307617,18042140,19912120,18047516,19915292,2924,917,1331,-2998,1553,2031,1016,3492,46,56,839
308618,18042296,19912416,18047713,19915489,2893,1075,1003,-2543,1178,2195,1430,3515,40,54,841
309620,18042452,19912772,18047910,19915686,2912,630,643,-2003,834,2439,1873,3917,40,54,841
310620,18042600,19913092,18048107,19915883,2985,802,281,-1394,503,2581,2232,3988,32,58,839
311621,18042752,19913436,18048304,19916080,2980,587,-65,-863,181,2590,2370,3777,32,58,839
312622,18042936,19913752,18048501,19916277,2787,711,-381,-396,-138,2451,2231,3547,46,61,839
313623,18043100,19914076,18048698,19916474,2928,605,-653,-79,-425,2424,2180,3087,46,61,839
314624,18043260,19914420,18048895,19916671,2971,417,-892,113,-658,2611,2296,2818,30,65,842
315625,18043464,19914796,18049092,19916868,2694,138,-1107,265,-852,2706,2390,2596,30,65,842
316627,18043616,19915072,18049289,19917065,3040,729,-1280,293,-1032,2658,2525,2162,32,59,840
317628,18043760,19915344,18049486,19917262,3114,721,-1435,287,-1217,2653,2644,2165,32,59,840
318629,18043944,19915632,18049683,19917459,2871,581,-1606,384,-1392,2620,2592,2402,24,53,840
319630,18044096,19915876,18049880,19917656,3091,837,-1767,491,-1514,2571,2297,2491,24,53,840
320631,18044252,19916104,18050077,19917853,3085,923,-1886,548,-1602,2342,2089,2418,22,48,841
321632,18044388,19916308,18050274,19918050,3238,1070,-1955,641,-1719,1913,1872,2508,22,48,841
322633,18044556,19916492,18050471,19918247,3052,1202,-1998,871,-1855,1595,1600,2890,25,40,838
323634,18044716,19916672,18050668,19918444,3119,1234,-2056,1207,-1958,1426,1259,3282,25,40,838
324635,18044876,19916844,18050865,19918641,3137,1295,-2126,1616,-2032,1239,1044,3480,46,26,838
325636,18045060,19917000,18051062,19918838,2994,1414,-2185,2126,-2117,923,1053,3898,46,26,838
326637,18045224,19917196,18051259,19919035,3135,1165,-2242,2687,-2203,706,1187,3930,47,27,837
327638,18045376,19917360,18051456,19919232,3230,1380,-2322,3203,-2280,606,1340,4025,47,27,837
328639,18045548,19917528,18051653,19919429,3117,1368,-2360,3690,-2353,626,1500,3797,40,34,837
329640,18045684,19917680,18051850,19919626,3370,1488,-2371,4064,-2421,625,1556,3587,40,34,837
330641,18045820,19917836,18052047,19919823,3398,1482,-2374,4298,-2470,651,1528,3274,32,38,837
331642,18045968,19917976,18052244,19920020,3347,1607,-2392,4356,-2503,694,1478,3054,32,38,837
332643,18046116,19918124,18052441,19920217,3369,1578,-2416,4404,-2559,721,1626,3037,28,40,834
333644,18046224,19918284,18052638,19920414,3659,1521,-2460,4423,-2618,825,1684,3065,28,40,834
334645,18046384,19918460,18052835,19920611,3351,1430,-2522,4452,-2651,1012,1692,3175,40,39,833
335646,18046524,19918624,18053032,19920808,3502,1520,-2596,4450,-2669,1095,1698,3218,40,39,833
336647,18046660,19918804,18053229,19921005,3556,1428,-2667,4379,-2702,1071,1717,2965,41,30,834
337648,18046832,19918976,18053426,19921202,3343,1489,-2738,4161,-2765,938,1597,2720,41,30,834
338649,18046968,19919144,18053623,19921399,3596,1527,-2813,3840,-2841,714,1397,2668,21,26,834
339650,18047152,19919312,18053820,19921596,3303,1540,-2891,3516,-2932,511,1247,2894,21,26,834
340651,18047328,19919464,18054017,19921793,3364,1661,-2985,3334,-3045,226,1016,3373,39,42,834
341652,18047472,19919648,18054214,19921990,3588,1467,-3112,3254,-3184,-208,588,3843,39,42,834
342662,18047612,19919824,18054444,19922220,3654,1541,-3276,3312,-3351,-593,-53,4385,37,43,834
343654,18047776,19920020,18054641,19922417,3520,1417,-3458,3353,-3505,-949,-783,4366,37,43,834
344655,18047944,19920200,18054838,19922614,3509,1524,-3612,3286,-3578,-1126,-1152,4270,34,36,832
345656,18048128,19920400,18055035,19922811,3416,1399,-3723,3026,-3579,-1294,-1329,3892,34,36,832
346657,18048304,19920600,18055232,19923008,3477,1398,-1951,723,-3264,-5645,-3890,13849,44,36,832
347658,18048500,19920776,18055429,19923205,3353,1558,2344,-3000,-2513,-8415,-6255,31814,44,36,832
348659,18048684,19920964,18055626,19923402,3435,1487,4090,-4238,-2133,-1941,-1662,8170,28,37,835
349660,18048876,19921160,18055823,19923599,3389,1438,3303,-3554,-2095,-1171,-1077,7840,28,37,835
350661,18049080,19921336,18056020,19923796,3312,1573,2059,-2118,-2197,-1592,-714,7676,28,31,833
351662,18049296,19921492,18056217,19923993,3230,1717,1309,-1636,-2298,-1693,-144,6217,28,31,833
352663,18049484,19921644,18056414,19924190,3410,1761,965,-1489,-2430,-1321,695,6113,35,23,835
353664,18049688,19921780,18056611,19924387,3309,1889,652,-1603,-2591,-1413,672,4993,35,23,835
354665,18049920,19921884,18056808,19924584,3119,2130,377,-1732,-2758,-1061,795,4668,35,27,833
355666,18050136,19921984,18057005,19924781,3212,2199,36,-1796,-2859,-680,783,4848,35,27,833
356667,18050360,19922084,18057202,19924978,3152,2241,-285,-1725,-2848,-17,587,5111,50,17,833
357668,18050576,19922208,18057399,19925175,3195,2124,-632,-1644,-2712,586,402,4695,50,17,833
358669,18050808,19922304,18057596,19925372,3081,2344,-897,-1863,-2510,1108,316,3496,44,32,833
359670,18051044,19922400,18057793,19925569,3040,2389,-1104,-2436,-2344,1525,624,2599,44,32,833
360671,18051272,19922504,18057990,19925766,3078,2381,-1208,-3307,-2256,1609,859,1597,50,12,833
361672,18051488,19922600,18058187,19925963,3145,2475,-1235,-4432,-2212,1542,740,941,50,12,833
362673,18051708,19922688,18058384,19926160,3111,2574,-1213,-5515,-2179,1519,503,919,39,12,832
363674,18051924,19922764,18058581,19926357,3130,2702,-1181,-6482,-2145,1297,232,1168,39,12,832
364675,18052132,19922856,18058778,19926554,3176,2650,-1173,-7217,-2084,1057,-222,1693,33,12,832
365676,18052336,19922932,18058975,19926751,3199,2804,-1170,-7797,-1964,809,-791,2062,33,12,832
366677,18052596,19923012,18059172,19926948,2823,2831,-1188,-8079,-1772,618,-1128,3056,52,23,829
367678,18052832,19923112,18059369,19927145,2957,2749,-1190,-8014,-1542,245,-1230,3840,52,23,829
368679,18053056,19923172,18059566,19927342,3021,3060,-1172,-7751,-1294,-59,-1094,4276,49,23,831
369680,18053332,19923268,18059763,19927539,2663,2880,-1115,-7445,-1068,-162,-771,4497,49,23,831
370681,18053632,19923380,18059960,19927736,2469,2819,-1065,-6975,-877,-346,-870,5047,49,17,830
371682,18053908,19923504,18060157,19927933,2586,2777,-1018,-6214,-703,-983,-953,5666,49,17,830
372683,18054188,19923636,18060354,19928130,2525,2755,-939,-5473,-512,-1371,-1167,5541,45,25,833
373684,18054448,19923756,18060551,19928327,2623,2865,-856,-4598,-309,-1150,-1200,5897,45,25,833
374685,18054700,19923888,18060748,19928524,2650,2820,-760,-3713,-79,-1168,-993,5754,59,20,834
375686,18054964,19924036,18060945,19928721,2547,2742,-623,-2950,137,-1000,-748,5308,59,20,834
376687,18055220,19924164,18061142,19928918,2573,2899,-446,-2389,295,-698,-495,4602,61,34,833
377688,18055432,19924276,18061339,19929115,2842,3037,-230,-2029,454,-312,-350,4149,61,34,833
378689,18055688,19924400,18061536,19929312,2542,2995,-17,-1648,606,103,-355,4117,50,35,832
379690,18055912,19924524,18061733,19929509,2732,3028,197,-1472,742,187,-500,3371,50,35,832
380691,18056124,19924664,18061930,19929706,2801,2954,425,-1418,865,353,-605,3193,52,32,832
381692,18056340,19924788,18062127,19929903,2769,3087,630,-1256,963,633,-555,3168,52,32,832
382693,18056536,19924960,18062324,19930100,2895,2799,834,-1308,1014,694,-504,2451,32,40,831
383694,18056740,19925120,18062521,19930297,2843,2891,1012,-1411,996,758,-425,2479,32,40,831
384695,18056952,19925304,18062718,19930494,2787,2747,1157,-1523,911,805,-128,2437,37,36,831
385696,18057128,19925480,18062915,19930691,3024,2807,1286,-1643,768,1010,12,2251,37,36,831
386697,18057340,19925632,18063112,19930888,2793,2978,1363,-1712,491,829,152,2467,40,31,831
387698,18057584,19925824,18063309,19931085,2573,2731,1401,-1785,107,627,297,2451,40,31,831
388699,18057840,19926016,18063506,19931282,2473,2735,1359,-1758,-313,767,332,2772,35,34,830
389700,18058076,19926248,18063703,19931479,2582,2470,1253,-1658,-690,890,264,2873,35,34,830
390701,18058308,19926448,18063900,19931676,2593,2670,1098,-1538,-990,863,160,2981,58,46,834
391702,18058588,19926660,18064097,19931873,2257,2589,907,-1464,-1248,914,-49,2935,58,46,834
392703,18058856,19926880,18064294,19932070,2302,2530,695,-1450,-1487,924,-121,2776,43,52,835
393704,18059152,19927100,18064491,19932267,2085,2521,498,-1432,-1701,779,-39,2605,43,52,835
394705,18059452,19927288,18064688,19932464,2015,2726,316,-1642,-1897,629,-126,2070,65,54,836
395706,18059744,19927560,18064885,19932661,2025,2169,123,-1855,-2058,594,-288,2253,65,54,836
396707,18060032,19927808,18065082,19932858,2011,2298,-87,-2008,-2147,453,-364,2321,48,53,837
397708,18060360,19928060,18065279,19933055,1704,2250,-314,-2250,-2171,436,-490,1997,48,53,837
398709,18060640,19928324,18065476,19933252,1969,2146,-540,-2498,-2133,319,-652,2042,49,48,840
399710,18060932,19928600,18065673,19933449,1853,2037,-749,-2771,-2018,115,-664,2165,49,48,840
400711,18061284,19928924,18065870,19933646,1411,1683,-951,-2977,-1885,74,-435,2419,62,50,839
401712,18061612,19929200,18066067,19933843,1504,1949,-1138,-3156,-1786,-132,1,2525,62,50,839
402713,18061920,19929476,18066264,19934040,1581,1915,-1299,-3369,-1713,-304,112,2413,64,49,841
403714,18062248,19929748,18066461,19934237,1399,1908,-1487,-3422,-1650,-390,72,2986,64,49,841
404715,18062576,19930028,18066658,19934434,1342,1823,-1671,-3442,-1572,-893,1,2965,60,69,842
405716,18062900,19930324,18066855,19934631,1313,1679,-1869,-3494,-1479,-1089,-315,3111,60,69,842
406717,18063228,19930624,18067052,19934828,1231,1610,-2089,-3474,-1361,-1194,-533,3295,67,51,843
407718,18063504,19930900,18067249,19935025,1521,1726,-2279,-3498,-1192,-1485,-633,3286,67,51,843
408719,18063796,19931132,18067446,19935222,1381,1987,-2421,-3456,-999,-1593,-927,3533,56,44,845
409720,18064080,19931400,18067643,19935419,1393,1732,-2555,-3492,-762,-1655,-1331,3296,56,44,845
410721,18064396,19931652,18067840,19935616,1142,1807,-2677,-3568,-473,-1482,-1501,3194,55,59,843
411722,18064636,19931920,18068037,19935813,1598,1677,-2764,-3767,-177,-1330,-1639,2787,55,59,843
412723,18064872,19932116,18068234,19936010,1607,2129,-2792,-4139,116,-1301,-1623,2586,65,42,843
413724,18065116,19932312,18068431,19936207,1536,2130,-2798,-4426,431,-1050,-1513,3055,65,42,843
414725,18065344,19932496,18068628,19936404,1624,2211,-2779,-4702,768,-804,-1628,3002,54,36,843
415726,18065596,19932700,18068825,19936601,1450,2084,-2734,-4921,1113,-663,-1824,3419,54,36,843
416727,18065880,19932896,18069022,19936798,1212,2135,-2690,-4985,1449,-650,-2025,3745,52,40,841
417728,18066096,19933108,18069219,19936995,1630,2030,-2647,-5040,1766,-496,-2231,3845,52,40,841
418729,18066324,19933272,18069416,19937192,1542,2344,-2606,-4998,2075,-377,-2444,4355,44,31,842
419730,18066584,19933464,18069613,19937389,1315,2172,-2585,-4857,2369,-350,-2471,4692,44,31,842
420731,18066812,19933652,18069810,19937586,1502,2202,-2575,-4708,2634,-164,-2587,4965,39,34,842
421732,18067044,19933832,18070007,19937783,1462,2261,-2583,-4527,2863,-140,-2622,5090,39,34,842
422733,18067284,19933996,18070204,19937980,1394,2375,-2542,-4314,3067,-218,-2681,5066,51,32,841
423734,18067508,19934184,18070401,19938177,1482,2230,-2512,-4033,3257,-178,-2899,5446,51,32,841
424735,18067700,19934392,18070598,19938374,1685,2101,-2469,-3829,3441,-69,-2758,5362,41,30,841
425743,18067932,19934576,18070828,19938604,1435,2273,-2443,-3627,3638,95,-2545,5661,41,30,841
426737,18068144,19934772,18071025,19938801,1554,2198,-2396,-3360,3792,46,-2303,6033,54,25,841
427738,18068356,19934940,18071222,19938998,1548,2387,-1860,-2681,3878,700,-2214,11396,54,25,841
428739,18068564,19935140,18071419,19939195,1568,2186,-143,-304,3795,2913,-2148,28576,50,37,841
429740,18068756,19935304,18071616,19939392,1671,2427,1334,1365,3760,923,-2322,12857,50,37,841
430741,18068924,19935488,18071813,19939589,1834,2309,1678,1278,3839,-399,-1976,4293,29,36,840
431741,18069100,19935692,18072010,19939786,1794,2181,1467,288,3934,-147,-1755,3135,29,36,840
432743,18069312,19935880,18072207,19939983,1563,2286,1281,-653,4013,416,-1604,3345,42,40,839
433744,18069492,19936080,18072404,19940180,1771,2210,1177,-1081,4066,655,-1367,4155,42,40,839
434745,18069664,19936300,18072601,19940377,1832,2076,1073,-1357,4062,592,-1579,3975,29,45,840
435745,18069844,19936488,18072798,19940574,1791,2280,971,-1757,3973,559,-1488,3538,29,45,840
436747,18070020,19936664,18072995,19940771,1826,2365,843,-2357,3828,428,-1323,3299,33,46,840
437748,18070172,19936860,18073192,19940968,1996,2242,671,-2961,3637,337,-1356,3625,33,46,840
438749,18070336,19937024,18073389,19941165,1936,2457,435,-3356,3436,219,-1717,4068,46,33,840
439750,18070480,19937228,18073586,19941362,2084,2205,186,-3613,3262,290,-1683,4340,46,33,840
440751,18070616,19937400,18073783,19941559,2162,2416,-45,-3802,3082,710,-1381,4461,33,33,839
441752,18070768,19937584,18073980,19941756,2082,2348,-281,-3945,2902,1160,-1329,4677,33,33,839
442753,18070944,19937748,18074177,19941953,1942,2488,-516,-4034,2748,1275,-1517,4827,34,32,839
443754,18071080,19937908,18074374,19942150,2220,2531,-703,-4174,2594,1204,-1630,4610,34,32,839
444755,18071232,19938072,18074571,19942347,2140,2521,-813,-4407,2421,1079,-1442,4307,41,43,836
445756,18071356,19938244,18074768,19942544,2348,2482,-855,-4640,2258,1054,-1157,4507,41,43,836
446757,18071472,19938416,18074965,19942741,2435,2494,-865,-4816,2147,1216,-986,4573,40,41,836
447757,18071612,19938624,18075162,19942938,2310,2265,-835,-4943,2058,1592,-691,4613,40,41,836
448759,18071716,19938840,18075359,19943135,2576,2208,-776,-4956,1968,1842,-261,4854,35,36,836
449760,18071852,19939048,18075556,19943332,2404,2254,-675,-4959,1847,1870,-134,4791,35,36,836
450761,18072012,19939256,18075753,19943529,2270,2249,-545,-4862,1692,1680,-134,5025,28,44,838
451762,18072132,19939436,18075950,19943726,2555,2433,-403,-4666,1541,1293,-71,5492,28,44,838
452763,18072256,19939672,18076147,19943923,2563,2067,-254,-4300,1411,962,-37,5887,34,47,837
453764,18072388,19939912,18076344,19944120,2543,2024,-96,-3778,1324,718,-79,6265,34,47,837
454765,18072472,19940168,18076541,19944317,2893,1899,66,-3141,1285,373,-20,6566,18,48,835
455766,18072560,19940396,18076738,19944514,2917,2060,232,-2488,1229,246,394,6437,18,48,835
456767,18072644,19940608,18076935,19944711,2992,2155,429,-1929,1107,272,892,5986,29,39,836
457768,18072716,19940820,18077132,19944908,3123,2149,679,-1493,958,394,1327,5426,29,39,836
458769,18072812,19941036,18077329,19945105,3019,2117,954,-1171,837,552,1351,5085,22,34,834
459770,18072900,19941252,18077526,19945302,3116,2109,1219,-850,786,609,992,4928,22,34,834
460771,18072996,19941476,18077723,19945499,3112,2047,1456,-497,817,513,522,4918,27,36,832
461772,18073088,19941688,18077920,19945696,3184,2117,1663,-118,897,331,10,4639,27,36,832
462773,18073244,19941896,18078117,19945893,2803,2138,1873,93,1006,74,-505,4067,35,37,833
463774,18073400,19942080,18078314,19946090,2822,2295,2105,251,1114,-303,-857,3809,35,37,833
464775,18073556,19942284,18078511,19946287,2841,2167,2324,388,1233,-524,-1321,3770,44,50,833
465776,18073704,19942532,18078708,19946484,2914,1870,2494,565,1393,-792,-1641,3733,44,50,833
466777,18073860,19942796,18078905,19946681,2883,1742,2597,794,1572,-1074,-1732,3862,33,55,833
467778,18073980,19943080,18079102,19946878,3142,1580,2645,1009,1721,-864,-1664,3578,33,55,833
468779,18074108,19943312,18079299,19947075,3124,1889,2652,1100,1807,-381,-1380,2983,31,51,836
469780,18074264,19943532,18079496,19947272,2968,1955,2644,1050,1837,-38,-1065,2511,31,51,836
470781,18074404,19943812,18079693,19947469,3094,1545,2640,871,1826,99,-860,1933,31,43,835
471782,18074572,19944084,18079890,19947666,2933,1563,2635,714,1818,137,-831,1856,31,43,835
472783,18074788,19944368,18080087,19947863,2625,1449,2620,606,1830,-34,-925,1882,32,63,835
473784,18074992,19944656,18080284,19948060,2698,1385,2598,463,1872,-231,-1291,1668,32,63,835
474785,18075168,19944904,18080481,19948257,2883,1614,2567,355,1913,-577,-1456,1689,33,49,837
475786,18075336,19945172,18080678,19948454,2947,1458,2519,238,1941,-609,-1510,1658,33,49,837
476787,18075492,19945476,18080875,19948651,3041,1187,2444,86,1926,-47,-1359,1497,31,55,839
477788,18075648,19945768,18081072,19948848,3060,1220,2358,-103,1885,519,-1137,1206,31,55,839
478789,18075856,19946036,18081269,19949045,2731,1340,2258,-285,1832,909,-875,1266,51,51,836
479790,18076120,19946280,18081466,19949242,2353,1470,2132,-397,1798,1008,-1025,1434,51,51,836
480791,18076328,19946544,18081663,19949439,2699,1316,2006,-334,1808,693,-1211,1734,58,54,838
481792,18076544,19946836,18081860,19949636,2642,1100,1887,-153,1834,386,-1214,2042,58,54,838
482793,18076740,19947084,18082057,19949833,2768,1353,1797,-25,1838,349,-1111,1757,49,48,841
483794,18076932,19947316,18082254,19950030,2796,1438,1741,-55,1793,762,-821,1357,49,48,841
484795,18077172,19947572,18082451,19950227,2478,1262,1699,-118,1718,1472,-501,1081,32,39,840
485796,18077408,19947788,18082648,19950424,2487,1505,1652,-272,1621,1858,-329,866,32,39,840
486797,18077620,19948052,18082845,19950621,2632,1175,1567,-278,1515,1725,-328,1501,50,48,839
487798,18077848,19948336,18083042,19950818,2519,1013,1444,-11,1420,1046,-470,2247,50,48,839
488799,18078056,19948632,18083239,19951015,2640,895,1288,371,1294,799,-384,2322,46,61,839
489800,18078264,19948900,18083436,19951212,2636,1040,1103,714,1123,1401,-279,2110,46,61,839
490801,18078524,19949112,18083633,19951409,2285,1383,949,828,892,2030,-19,1249,42,42,842
491802,18078784,19949340,18083830,19951606,2258,1270,817,746,670,2530,-54,949,42,42,842
492803,18079008,19949628,18084027,19951803,2472,855,712,703,490,2131,-76,1149,50,45,841
493804,18079232,19949884,18084224,19952000,2461,1029,625,807,335,1343,104,1665,50,45,841
494805,18079440,19950112,18084421,19952197,2557,1192,547,1117,156,1290,179,1966,40,54,842
495806,18079656,19950424,18084618,19952394,2500,616,463,1371,-26,1937,92,1519,40,54,842
496807,18079896,19950672,18084815,19952591,2332,995,404,1319,-163,2866,272,765,54,47,841
497808,18080188,19950932,18085012,19952788,1966,892,339,1073,-319,3127,518,569,54,47,841
498809,18080424,19951100,18085209,19952985,2300,1480,285,854,-509,2493,586,602,58,52,842
499810,18080640,19951364,18085406,19953182,2417,851,239,735,-709,1823,877,891,58,52,842
500811,18080872,19951612,18085603,19953379,2303,929,151,688,-936,1864,1218,1177,38,56,843
501812,18081056,19951820,18085800,19953576,2609,1174,18,742,-1147,2424,1424,1289,38,56,843
502813,18081292,19952060,18085997,19953773,2268,956,-91,733,-1325,2671,1356,892,34,44,843
503814,18081552,19952312,18086194,19953970,2091,857,-162,600,-1441,2523,804,884,34,44,843
504815,18081792,19952568,18086391,19954167,2199,806,-280,768,-1495,1553,45,2287,61,39,841
505816,18082036,19952804,18086588,19954364,2154,915,-441,1252,-1505,645,-116,2698,61,39,841
506817,18082240,19953024,18086785,19954561,2402,1005,-609,1681,-1565,628,561,2312,34,35,844
507818,18082480,19953208,18086982,19954758,2159,1236,-765,1881,-1749,1071,1402,1847,34,35,844
508826,18082720,19953400,18087212,19954988,2155,1202,-922,1912,-2033,1248,1760,1615,49,48,844
509820,18083008,19953604,18087409,19955185,1816,1125,-1123,1954,-2288,858,1074,1870,49,48,844
510821,18083300,19953828,18087606,19955382,1750,988,-1365,2157,-2397,57,-53,2604,43,47,842
511822,18083548,19954004,18087803,19955579,2003,1298,-1616,2526,-2393,-549,-650,2852,43,47,842
512823,18083792,19954216,18088000,19955776,2009,1067,-1868,2762,-2425,-478,-243,2257,59,27,844
513824,18084060,19954392,18088197,19955973,1829,1301,-2118,2626,-2561,-292,179,1642,59,27,844
514825,18084344,19954528,18088394,19956170,1690,1578,-2324,2300,-2718,-421,27,1520,47,25,844
515826,18084624,19954680,18088591,19956367,1680,1499,-2533,2025,-2821,-746,-663,2061,47,25,844
516827,18084920,19954872,18088788,19956564,1537,1251,-2791,2015,-2855,-1099,-828,2857,53,34,844
517828,18085148,19955048,18088985,19956761,1950,1360,-3096,1975,-2859,-1019,-554,2692,53,34,844
518829,18085428,19955204,18089182,19956958,1588,1504,-3377,1703,-2859,-457,-391,2160,54,21,844
519830,18085728,19955368,18089379,19957155,1419,1469,-3629,1276,-2830,-273,-311,2074,54,21,844
520831,18086004,19955516,18089576,19957352,1535,1590,-3880,848,-2759,-559,-657,2407,60,34,843
521832,18086252,19955668,18089773,19957549,1688,1586,-4126,317,-2689,-705,-701,2299,60,34,843
522833,18086500,19955792,18089970,19957746,1666,1793,-4380,-276,-2656,-501,-395,2462,44,17,844
523834,18086780,19955944,18090167,19957943,1431,1638,-4635,-841,-2642,-39,-252,2580,44,17,844
524835,18087040,19956056,18090364,19958140,1528,1926,-4887,-1410,-2595,212,-444,2811,52,17,843
525836,18087296,19956176,18090561,19958337,1528,1910,-5147,-1817,-2484,-8,-965,3861,52,17,843
526837,18087536,19956288,18090758,19958534,1610,1998,-5474,-1942,-2310,-249,-1675,4880,38,24,844
527838,18087760,19956440,18090955,19958731,1699,1768,-5746,-2220,-2187,-93,-1451,4181,38,24,844
528839,18088036,19956628,18091152,19958928,1340,1547,-5867,-2745,-2196,452,-739,3769,42,39,842
529840,18088264,19956784,18091349,19959125,1626,1766,-5892,-3357,-2264,1002,-342,4042,42,39,842
530841,18088512,19956928,18091546,19959322,1480,1865,-5907,-3850,-2344,1078,-483,4870,39,21,843
531842,18088728,19957072,18091743,19959519,1672,1889,-4341,-2600,-2414,2715,-1371,22642,39,21,843
532843,18088976,19957208,18091940,19959716,1450,1966,846,4216,-2562,6438,-4029,32767,34,35,842
533844,18089172,19957360,18092137,19959913,1776,1886,4966,8468,-2609,2694,-2374,20927,34,35,842
534845,18089460,19957484,18092334,19960110,1161,2094,5142,7815,-2487,2597,-200,3233,56,21,842
535846,18089708,19957644,18092531,19960307,1390,1886,4152,4974,-2492,3153,466,-184,56,21,842
536847,18089924,19957792,18092728,19960504,1582,1982,3209,2491,-2525,3634,-30,1573,52,27,842
537848,18090184,19957940,18092925,19960701,1280,2005,2987,1222,-2510,2887,-93,1500,52,27,842
538849,18090412,19958132,18093122,19960898,1466,1732,2778,-35,-2469,2908,-368,1812,42,24,843
539850,18090676,19958292,18093319,19961095,1213,1949,2542,-1001,-2474,3263,-42,1822,42,24,843
540851,18090900,19958464,18093516,19961292,1451,1885,2094,-2263,-2449,2835,-166,1918,57,32,843
541852,18091152,19958624,18093713,19961489,1253,1978,1571,-3253,-2484,2854,-432,2323,57,32,843
542853,18091384,19958772,18093910,19961686,1363,2074,1094,-4195,-2581,2508,-656,2223,41,34,842
543854,18091656,19958912,18094107,19961883,1081,2150,740,-4815,-2633,1959,-820,3316,41,34,842
544855,18091932,19959044,18094304,19962080,1021,2229,491,-5240,-2697,1847,-591,3302,52,24,842
545856,18092180,19959224,18094501,19962277,1174,1937,325,-5659,-2784,1490,-441,3537,52,24,842
546857,18092436,19959408,18094698,19962474,1099,1919,109,-5739,-2836,1084,-632,4854,44,28,843
547858,18092740,19959596,18094895,19962671,753,1898,-140,-5561,-2870,907,-1056,4991,44,28,843
548859,18093028,19959772,18095092,19962868,813,1983,-388,-5349,-2900,626,-1139,4976,40,33,843
549860,18093248,19959932,18095289,19963065,1228,2099,-614,-5029,-2928,497,-1016,5196,40,33,843
550861,18093532,19960084,18095486,19963262,790,2170,-784,-4716,-2979,639,-819,4675,40,35,845
551862,18093860,19960264,18095683,19963459,458,2003,-935,-4392,-3050,622,-583,4894,40,35,845
552863,18094072,19960448,18095880,19963656,1177,1984,-1030,-4004,-3109,584,-70,4758,45,25,842
553864,18094324,19960588,18096077,19963853,903,2285,-1067,-3721,-3167,764,122,4154,45,25,842
554865,18094596,19960768,18096274,19964050,745,2043,-1075,-3366,-3204,875,142,4321,41,24,844
555866,18094880,19960908,18096471,19964247,633,2319,-1058,-3068,-3184,816,372,3891,41,24,844
556867,18095100,19961080,18096668,19964444,1023,2131,-1023,-2853,-3132,906,211,3457,40,21,843
557868,18095340,19961256,18096865,19964641,879,2115,-977,-2703,-3063,887,186,3188,40,21,843
558869,18095576,19961420,18097062,19964838,888,2206,-912,-2657,-2958,939,438,2833,43,23,843
559870,18095740,19961568,18097259,19965035,1352,2328,-835,-2647,-2865,1146,700,2565,43,23,843
560871,18095984,19961720,18097456,19965232,831,2323,-745,-2642,-2781,957,849,2369,46,23,844
561872,18096200,19961860,18097653,19965429,998,2424,-626,-2636,-2682,844,810,2303,46,23,844
562873,18096380,19962044,18097850,19965626,1231,2156,-518,-2565,-2546,928,729,2346,31,27,841
563873,18096556,19962200,18098047,19965823,1266,2349,-439,-2418,-2352,703,496,2574,31,27,841
564875,18096728,19962332,18098244,19966020,1302,2528,-385,-2179,-2135,566,258,2578,32,18,841
565876,18096876,19962492,18098441,19966217,1474,2370,-332,-2104,-1967,731,193,1894,32,18,841
566877,18097068,19962676,18098638,19966414,1201,2226,-309,-2097,-1856,978,226,1751,37,29,840
567878,18097212,19962856,18098835,19966611,1525,2260,-338,-2064,-1785,1112,-87,1875,37,29,840
568879,18097408,19963044,18099032,19966808,1200,2215,-448,-1959,-1712,973,-873,2131,19,35,839
569880,18097560,19963216,18099229,19967005,1496,2326,-604,-1618,-1595,602,-1563,2755,19,35,839
570880,18097716,19963380,18099426,19967202,1489,2391,-801,-1126,-1434,247,-2019,2949,39,38,841
571882,18097868,19963548,18099623,19967399,1534,2380,-988,-618,-1274,187,-2133,3073,39,38,841
572883,18098008,19963740,18099820,19967596,1635,2233,-1172,-122,-1135,158,-1914,3088,26,27,840
573884,18098180,19963956,18100017,19967793,1446,2075,-1340,288,-1027,197,-1776,2808,26,27,840
574885,18098332,19964156,18100214,19967990,1591,2174,-1529,694,-950,331,-1736,2820,38,30,840
575885,18098484,19964340,18100411,19968187,1611,2281,-1738,1032,-859,305,-1754,2815,38,30,840
576887,18098648,19964488,18100608,19968384,1551,2529,-1958,1316,-769,381,-1786,2718,23,31,841
577887,18098796,19964660,18100805,19968581,1672,2390,-2202,1545,-692,374,-1763,2533,23,31,841
578888,18098944,19964872,18101002,19968778,1695,2134,-2427,1620,-595,366,-1769,2466,20,31,840
579890,18099116,19965040,18101199,19968975,1556,2423,-2658,1694,-473,576,-1786,2611,20,31,840
580891,18099268,19965248,18101396,19969172,1702,2169,-2881,1762,-333,597,-1730,2493,21,34,839
581892,18099420,19965436,18101593,19969369,1721,2298,-3091,1864,-198,411,-1622,2678,21,34,839
582893,18099616,19965636,18101790,19969566,1447,2223,-3281,1910,-103,212,-1443,2686,21,38,840
583894,18099804,19965808,18101987,19969763,1502,2410,-3457,1900,-38,128,-1165,2692,21,38,840
584895,18099980,19966020,18102184,19969960,1586,2154,-3628,1933,13,95,-883,3013,39,33,840
585896,18100144,19966196,18102381,19970157,1677,2388,-3812,2006,69,-89,-1014,3235,39,33,840
586897,18100324,19966396,18102578,19970354,1584,2238,-3999,2114,155,-530,-1338,3706,44,42,839
587898,18100500,19966556,18102775,19970551,1619,2505,-4185,2372,298,-869,-1575,4155,44,42,839
588899,18100692,19966744,18102972,19970748,1521,2335,-4333,2564,446,-1023,-1359,4005,31,45,839
589900,18100876,19966980,18103169,19970945,1577,2018,-4406,2675,568,-1239,-1050,3959,31,45,839
590901,18101040,19967164,18103366,19971142,1718,2350,-4414,2710,666,-1633,-983,4020,41,38,839
591909,18101232,19967344,18103596,19971372,1559,2398,-4354,2702,767,-2043,-1096,4048,41,38,839
592903,18101424,19967548,18103793,19971569,1563,2246,-4277,2758,898,-2265,-1423,4640,35,47,841
593904,18101596,19967736,18103990,19971766,1699,2349,-4190,2925,1095,-2587,-1731,5046,35,47,841
594905,18101768,19967948,18104187,19971963,1711,2194,-4101,3110,1326,-2915,-1967,5240,28,38,840
595906,18101968,19968160,18104384,19972160,1534,2188,-2768,2715,1631,-5017,-2673,13095,28,38,840
596907,18102124,19968360,18104581,19972357,1828,2263,2355,1088,2379,-9209,-4917,32767,31,35,840
597908,18102328,19968560,18104778,19972554,1525,2262,6038,870,3052,-4465,-3618,19589,31,35,840
598909,18102508,19968768,18104975,19972751,1684,2208,6246,1462,3434,-3001,-1848,6695,46,45,840
599910,18102720,19968992,18105172,19972948,1477,2097,5049,2525,3531,-2780,-970,6956,46,45,840
600911,18102880,19969208,18105369,19973145,1818,2140,4236,3074,3435,-2950,539,4907,42,35,841
601912,18103064,19969456,18105566,19973342,1675,1917,3998,2900,3288,-2885,956,4200,42,35,841
602913,18103204,19969652,18105763,19973539,1975,2244,3909,2824,3102,-2605,915,3944,21,35,842
603914,18103348,19969844,18105960,19973736,1974,2272,3804,2187,2946,-2884,867,2403,21,35,842
604915,18103492,19970080,18106157,19973933,1998,1981,3544,2013,2839,-2171,552,4173,29,31,841
605916,18103612,19970268,18106354,19974130,2182,2285,3229,1906,2837,-1858,165,3145,29,31,841
606917,18103752,19970488,18106551,19974327,2083,2076,2942,1445,2953,-1644,-612,2729,20,31,839
607918,18103844,19970712,18106748,19974524,2430,2040,2673,1154,3110,-1099,-1372,3113,20,31,839
608919,18103952,19970924,18106945,19974721,2369,2109,2473,387,3265,-1113,-1373,1392,33,33,836
609920,18104096,19971144,18107142,19974918,2168,2049,2320,-434,3347,-898,-1262,1559,33,33,836
610921,18104240,19971332,18107339,19975115,2192,2254,2206,-1372,3353,-1009,-1140,756,44,46,837
611921,18104408,19971556,18107536,19975312,2055,2018,2177,-2486,3311,-993,-1164,457,44,46,837
612923,18104524,19971808,18107733,19975509,2417,1819,2137,-3245,3242,-766,-1238,1481,38,36,839
613924,18104648,19972056,18107930,19975706,2399,1823,2119,-3927,3163,-1022,-1319,1437,38,36,839
614925,18104772,19972276,18108127,19975903,2432,1988,2068,-4353,3092,-991,-1586,2466,20,39,839
615926,18104892,19972496,18108324,19976100,2492,1979,1983,-4473,3031,-1105,-1367,2832,20,39,839
616927,18105008,19972724,18108521,19976297,2552,1916,1886,-4542,2968,-1309,-1092,3179,38,46,839
617928,18105132,19973000,18108718,19976494,2535,1582,1790,-4366,2855,-1262,-776,3805,38,46,839
618929,18105248,19973264,18108915,19976691,2622,1629,1761,-4289,2682,-1393,-571,3115,16,61,837
619930,18105344,19973540,18109112,19976888,2791,1519,1782,-4163,2457,-1188,-134,3435,16,61,837
620931,18105444,19973864,18109309,19977085,2810,1164,1818,-3968,2194,-1129,371,3400,27,59,838
621932,18105552,19974052,18109506,19977282,2800,2018,1869,-3892,1950,-1122,496,3153,27,59,838
622933,18105656,19974196,18109703,19977479,2867,2317,1918,-3668,1764,-926,541,3459,32,38,838
623934,18105764,19974372,18109900,19977676,2881,2127,1969,-3432,1625,-839,636,3126,32,38,838
624935,18105880,19974520,18110097,19977873,2868,2324,2015,-3248,1495,-698,639,3121,20,35,835
625936,18105980,19974716,18110294,19978070,3011,2025,2067,-3077,1373,-650,749,2864,20,35,835
626937,18106116,19974932,18110491,19978267,2814,1893,2120,-3046,1295,-630,957,2373,18,33,834
627938,18106216,19975224,18110688,19978464,3083,1376,2147,-3016,1265,-572,909,2396,18,33,834
628939,18106324,19975544,18110885,19978661,3072,1148,2186,-3113,1291,-515,634,1839,38,46,834
629940,18106484,19975780,18111082,19978858,2764,1656,2226,-3337,1342,-389,588,1639,38,46,834
630941,18106628,19976116,18111279,19979055,2888,971,2246,-3478,1397,-355,722,1670,24,63,835
631942,18106752,19976396,18111476,19979252,3046,1286,2257,-3669,1475,-346,802,1409,24,63,835
632943,18106916,19976672,18111673,19979449,2812,1276,2230,-3760,1576,-134,693,1746,28,60,836
633944,18107096,19976944,18111870,19979646,2720,1269,2158,-3779,1682,-144,531,1945,28,60,836
634945,18107260,19977288,18112067,19979843,2836,754,2062,-3760,1800,-189,315,2056,29,66,838
635946,18107412,19977604,18112264,19980040,2932,878,1944,-3603,1906,-131,213,2330,29,66,838
636947,18107588,19977916,18112461,19980237,2792,852,1797,-3375,1997,-252,329,2422,28,54,839
637948,18107768,19978220,18112658,19980434,2775,856,1624,-3072,2049,-115,571,2721,28,54,839
638949,18107936,19978540,18112855,19980631,2864,702,1411,-2693,2050,0,887,2880,46,71,839
639950,18108120,19978904,18113052,19980828,2770,354,1175,-2250,2035,216,1139,3100,46,71,839
640951,18108288,19979200,18113249,19981025,2884,737,889,-1714,2009,633,1629,3332,28,66,840
641952,18108472,19979460,18113446,19981222,2790,934,593,-1270,1962,926,2252,2902,28,66,840
642953,18108656,19979760,18113643,19981419,2797,639,284,-893,1897,1325,2664,2936,46,54,841
643953,18108824,19980088,18113840,19981616,2911,407,-57,-512,1806,1710,3248,2997,46,54,841
644955,18109020,19980380,18114037,19981813,2737,590,-448,-130,1643,1860,3674,3121,48,45,840
645956,18109208,19980636,18114234,19982010,2792,789,-859,265,1478,2241,3450,3045,48,45,840
646957,18109396,19980820,18114431,19982207,2797,1246,-1247,592,1343,2531,3090,2851,28,42,841
647958,18109548,19981060,18114628,19982404,3043,877,-1634,852,1162,2604,2699,2886,28,42,841
648959,18109752,19981264,18114825,19982601,2716,1099,-2043,1096,839,2470,2678,2924,48,33,841
649960,18109904,19981468,18115022,19982798,3062,1096,-2459,1315,412,2427,2740,2919,48,33,841
650961,18110048,19981664,18115219,19982995,3136,1147,-2881,1591,-23,2536,2808,3195,26,44,839
651962,18110196,19981848,18115416,19983192,3133,1228,-3281,1864,-443,2603,2964,3063,26,44,839
652963,18110372,19982024,18115613,19983389,2969,1287,-3637,2032,-815,2638,2864,2912,41,34,837
653964,18110544,19982168,18115810,19983586,3006,1511,-3923,2045,-1184,2665,2655,2427,41,34,837
654965,18110720,19982320,18116007,19983783,2991,1481,-4125,1894,-1545,2551,2269,2149,37,23,836
655966,18110896,19982476,18116204,19983980,3001,1474,-4270,1688,-1838,2468,1680,1963,37,23,836
656967,18111060,19982652,18116401,19984177,3092,1359,-4366,1360,-2046,2386,1048,1735,25,32,837
657968,18111204,19982824,18116598,19984374,3241,1396,-4428,1090,-2226,2225,537,2067,25,32,837
658969,18111364,19982988,18116795,19984571,3158,1460,-4473,1002,-2427,1990,621,2644,39,41,836
659970,18111500,19983132,18116992,19984768,3336,1608,-4524,1009,-2627,1834,764,2866,39,41,836
660971,18111636,19983288,18117189,19984965,3364,1551,-4583,1062,-2767,1723,631,3304,21,39,835
661972,18111776,19983436,18117386,19985162,3365,1624,-4622,1201,-2834,1556,501,3565,21,39,835
662973,18111924,19983580,18117583,19985359,3337,1672,-4646,1366,-2910,1443,405,3950,39,34,834
663974,18112096,19983728,18117780,19985556,3199,1669,-4673,1648,-3020,1285,347,4438,39,34,834
664975,18112280,19983876,18117977,19985753,3131,1691,-4716,1971,-3134,1033,345,4675,22,32,832
665976,18112468,19984052,18118174,19985950,3111,1526,-4765,2314,-3256,977,526,4951,22,32,832
666977,18112656,19984232,18118371,19986147,3117,1508,-4814,2695,-3343,947,635,5407,30,25,834
667978,18112872,19984412,18118568,19986344,2935,1517,-4845,3168,-3358,730,450,5686,30,25,834
668979,18113084,19984556,18118765,19986541,2954,1765,-4831,3620,-3342,412,30,5756,40,40,835
669980,18113276,19984712,18118962,19986738,3082,1709,-4726,3967,-3325,-12,-388,5701,40,40,835
670981,18113480,19984860,18119159,19986935,3005,1780,-3484,4648,-3135,-1943,-2225,16641,49,40,837
671982,18113676,19985008,18119356,19987132,3057,1802,685,5934,-2353,-6705,-6075,32767,49,40,837
672983,18113876,19985188,18119553,19987329,3031,1610,4748,6596,-1628,-3810,-3830,25591,46,34,836
673984,18114064,19985388,18119750,19987526,3111,1484,5676,6326,-1476,133,152,5256,46,34,836
674994,18114284,19985576,18119980,19987756,2917,1579,4785,5930,-1674,555,509,4417,37,36,835
675985,18114452,19985776,18120177,19987953,3255,1502,3805,5748,-1923,593,498,4306,37,36,835
676987,18114644,19985964,18120374,19988150,3109,1581,3373,5213,-2084,349,410,3058,37,33,835
677988,18114848,19986120,18120571,19988347,3032,1800,3185,4412,-2215,351,135,2825,37,33,835
678989,18115040,19986316,18120768,19988544,3111,1551,3017,3237,-2382,3,-11,1623,46,42,835
679990,18115224,19986496,18120965,19988741,3167,1659,2744,1836,-2602,-80,-24,1526,46,42,835
680991,18115452,19986676,18121162,19988938,2880,1667,2385,490,-2841,-165,-44,1642,50,44,835
681992,18115656,19986808,18121359,19989135,3028,1996,1962,-765,-3058,-206,-270,2108,50,44,835
682993,18115852,19986968,18121556,19989332,3079,1837,1509,-1749,-3167,-208,-907,2716,31,39,835
683994,18116092,19987088,18121753,19989529,2786,2121,1068,-2638,-3158,-311,-1094,2844,31,39,835
684995,18116304,19987216,18121950,19989726,2956,2103,638,-3322,-3070,-449,-900,3323,32,36,835
685996,18116532,19987328,18122147,19989923,2843,2240,256,-3942,-2957,-640,-796,3191,32,36,835
686997,18116768,19987424,18122344,19990120,2777,2385,-75,-4488,-2904,-630,-492,3212,53,24,835
687998,18116984,19987540,18122541,19990317,2895,2296,-370,-4889,-2917,-775,-36,3307,53,24,835
688999,18117184,19987632,18122738,19990514,2994,2493,-665,-5035,-2933,-831,232,3776,53,26,835
690000,18117400,19987764,18122935,19990711,2887,2272,-944,-4996,-2916,-841,301,3828,53,26,835
691001,18117608,19987872,18123132,19990908,2933,2462,-1195,-5021,-2841,-989,143,3653,30,17,834
692002,18117820,19987968,18123329,19991105,2903,2582,-1409,-5040,-2696,-1027,166,3886,30,17,834
693003,18118024,19988064,18123526,19991302,2951,2626,-1590,-5055,-2503,-988,322,3781,49,30,834
694004,18118236,19988164,18123723,19991499,2896,2645,-1720,-4994,-2316,-967,622,3730,49,30,834
695005,18118424,19988276,18123920,19991696,3051,2607,-1798,-5012,-2165,-1165,885,3354,43,14,832
696006,18118620,19988408,18124117,19991893,3002,2512,-1816,-5149,-2030,-1295,1016,2959,43,14,832
697007,18118832,19988504,18124314,19992090,2897,2782,-1789,-5298,-1889,-1328,1156,2814,51,31,830
698007,18119056,19988604,18124511,19992287,2811,2800,-1717,-5443,-1719,-1418,1154,2669,51,31,830
699009,18119280,19988696,18124708,19992484,2800,2897,-1612,-5531,-1509,-1493,986,2820,40,20,831
700009,18119488,19988804,18124905,19992681,2896,2837,-1496,-5495,-1267,-1492,868,3039,40,20,831
701011,18119684,19988928,18125102,19992878,2972,2770,-1375,-5401,-1006,-1465,749,3096,41,16,831
702012,18119892,19989020,18125299,19993075,2894,3016,-1218,-5269,-725,-1506,526,3023,41,16,831
703013,18120092,19989104,18125496,19993272,2943,3117,-1018,-5192,-441,-1648,212,2803,50,28,831
704013,18120280,19989200,18125693,19993469,3023,3088,-792,-5087,-171,-1782,2,2815,50,28,831
705015,18120492,19989316,18125890,19993666,2868,2999,-562,-4926,86,-1862,-212,2869,45,30,829
706015,18120704,19989444,18126087,19993863,2862,2955,-347,-4648,330,-1881,-484,3137,45,30,829
707017,18120892,19989596,18126284,19994060,3017,2825,-154,-4209,563,-1962,-619,3606,49,24,828
708017,18121084,19989720,18126481,19994257,2995,3033,35,-3708,782,-1972,-669,3577,49,24,828
709019,18121284,19989844,18126678,19994454,2945,3066,224,-3183,956,-1889,-720,3559,29,36,830
710019,18121480,19989952,18126875,19994651,2971,3206,418,-2768,1088,-1788,-833,3169,29,36,830
711021,18121676,19990064,18127072,19994848,2973,3220,604,-2440,1198,-1556,-872,2943,47,26,829
712022,18121900,19990204,18127269,19995045,2787,3071,776,-2144,1290,-1246,-793,2789,47,26,829
713023,18122112,19990340,18127466,19995242,2856,3124,923,-1918,1339,-1050,-639,2563,27,20,828
714024,18122348,19990480,18127663,19995439,2690,3125,1026,-1727,1278,-783,-458,2496,27,20,828
715025,18122572,19990616,18127860,19995636,2754,3178,1098,-1582,1130,-546,-314,2254,35,28,830
716026,18122836,19990780,18128057,19995833,2476,3018,1146,-1613,952,-189,-286,1773,35,28,830
717027,18123140,19990944,18128254,19996030,2180,3033,1163,-1812,762,382,-437,1438,47,40,830
718028,18123452,19991128,18128451,19996227,2080,2914,1124,-1920,579,665,-682,1785,47,40,830
719029,18123764,19991276,18128648,19996424,2031,3162,1054,-2009,403,568,-868,1529,62,45,832
720030,18124060,19991468,18128845,19996621,2088,2890,963,-2263,167,812,-925,1227,62,45,832
721031,18124376,19991664,18129042,19996818,1912,2866,833,-2492,-121,1129,-957,1242,50,46,834
722032,18124748,19991864,18129239,19997015,1486,2841,666,-2786,-429,1072,-1108,1236,50,46,834
723033,18125064,19992096,18129436,19997212,1785,2627,477,-3042,-758,1050,-1351,1349,65,37,835
724034,18125384,19992308,18129633,19997409,1707,2746,259,-3286,-1093,996,-1243,1549,65,37,835
725035,18125728,19992512,18129830,19997606,1492,2794,-2,-3427,-1389,1157,-892,1936,52,45,838
726036,18126052,19992720,18130027,19997803,1562,2765,-307,-3445,-1641,1264,-779,2049,52,45,838
727037,18126388,19992924,18130224,19998000,1427,2788,-617,-3578,-1843,1078,-829,1911,57,40,837
728038,18126760,19993156,18130421,19998197,1126,2599,-919,-3718,-2005,1012,-802,2065,57,40,837
729039,18127068,19993432,18130618,19998394,1478,2290,-1207,-3893,-2136,1070,-592,1853,55,60,838
730040,18127364,19993704,18130815,19998591,1510,2283,-1482,-4159,-2255,1058,-355,1789,55,60,838
731041,18127664,19993976,18131012,19998788,1441,2251,-1749,-4358,-2339,904,-227,2160,50,65,840
732042,18127916,19994284,18131209,19998985,1717,1978,-2018,-4552,-2387,752,-175,2213,50,65,840
733043,18128200,19994572,18131406,19999182,1479,2064,-2279,-4617,-2380,775,-271,2589,44,63,841
734044,18128456,19994848,18131603,19999379,1629,2106,-2552,-4648,-2308,678,-348,2717,44,63,841
735045,18128736,19995148,18131800,19999576,1443,1911,-2799,-4795,-2183,615,-356,2649,40,60,841
736046,18128968,19995404,18131997,19999773,1729,2160,-3011,-4901,-2046,704,-308,2777,40,60,841
737047,18129208,19995676,18132194,19999970,1660,2029,-3200,-5057,-1895,695,-264,2765,42,61,841
738048,18129464,19995960,18132391,20000167,1535,1916,-3350,-5179,-1735,698,-324,2990,42,61,841
739049,18129680,19996216,18132588,20000364,1777,2066,-3480,-5294,-1573,638,-476,3130,51,45,841
740050,18129888,19996500,18132785,20000561,1823,1854,-3586,-5328,-1374,523,-889,3558,51,45,841
741051,18130120,19996716,18132982,20000758,1658,2271,-3697,-5277,-1143,654,-1034,3852,34,45,841
742052,18130328,19996936,18133179,20000955,1803,2237,-3789,-5239,-886,730,-1106,3927,34,45,841
743052,18130544,19997156,18133376,20001152,1746,2228,-3872,-5137,-606,777,-1337,4406,34,55,840
744054,18130736,19997372,18133573,20001349,1898,2245,-3952,-4989,-318,793,-1629,4581,34,55,840
745055,18130936,19997580,18133770,20001546,1848,2290,-4009,-4832,-22,912,-1594,4641,34,49,839
746056,18131152,19997768,18133967,20001743,1740,2420,-4040,-4645,277,917,-1707,4714,34,49,839
747057,18131396,19997948,18134164,20001940,1545,2479,-4050,-4566,573,931,-1923,4688,52,42,839
748058,18131604,19998104,18134361,20002137,1765,2648,-4043,-4552,869,1019,-2034,4668,52,42,839
749059,18131836,19998284,18134558,20002334,1601,2506,-3999,-4498,1173,1082,-2071,4788,53,42,839
750060,18132060,19998460,18134755,20002531,1639,2541,-3386,-3887,1462,1907,-2113,11138,53,42,839
751061,18132296,19998624,18134952,20002728,1548,2631,-662,114,1528,5639,-2465,32767,50,35,837
752062,18132516,19998792,18135149,20002925,1638,2620,2090,3546,1647,2836,-2895,22098,50,35,837
753063,18132748,19998960,18135346,20003122,1548,2634,2817,3725,1892,1114,-1541,3108,55,39,837
754064,18132972,19999128,18135543,20003319,1586,2646,2404,2180,2138,1214,-1291,1879,55,39,837
755065,18133192,19999288,18135740,20003516,1602,2714,1970,733,2342,1401,-1551,2305,52,37,837
756066,18133392,19999468,18135937,20003713,1726,2597,1817,95,2569,1144,-1733,2992,52,37,837
757067,18133612,19999672,18136134,20003910,1592,2445,1786,-382,2818,729,-1901,2757,51,40,839
758075,18133836,19999848,18136364,20004140,1569,2645,1714,-837,3035,579,-2047,3000,51,40,839
759069,18134036,20000044,18136561,20004337,1719,2520,1554,-1398,3224,46,-1959,2795,38,43,838
760070,18134260,20000220,18136758,20004534,1557,2655,1355,-1982,3363,-343,-1856,2895,38,43,838
761071,18134456,20000412,18136955,20004731,1734,2558,1081,-2342,3455,-687,-1991,3747,43,43,838
762072,18134628,20000620,18137152,20004928,1895,2455,830,-2617,3553,-1248,-2086,3834,43,43,838
763073,18134832,20000784,18137349,20005125,1693,2745,623,-2713,3550,-1546,-1482,4289,48,27,837
764074,18135004,20000964,18137546,20005322,1904,2654,448,-2801,3471,-1784,-1561,4257,48,27,837
765075,18135204,20001136,18137743,20005519,1728,2715,279,-2917,3404,-1953,-1701,4360,29,34,837
766076,18135384,20001340,18137940,20005716,1861,2513,38,-2869,3376,-1664,-1689,5005,29,34,837
767077,18135560,20001528,18138137,20005913,1896,2618,-228,-2881,3302,-1448,-997,4475,42,45,837
768078,18135720,20001760,18138334,20006110,2012,2328,-452,-3055,3155,-1405,-776,3941,42,45,837
769079,18135900,20001936,18138531,20006307,1896,2688,-608,-3454,2987,-1125,-907,3364,35,47,838
770080,18136036,20002120,18138728,20006504,2198,2645,-757,-3942,2882,-624,-1164,3468,35,47,838
771081,18136176,20002308,18138925,20006701,2199,2624,-917,-4320,2829,-118,-1168,3493,23,43,838
772082,18136328,20002500,18139122,20006898,2143,2602,-1051,-4840,2801,525,-1180,2947,23,43,838
773083,18136496,20002692,18139319,20007095,2057,2605,-1150,-5501,2784,1137,-1160,2863,39,27,835
774084,18136616,20002876,18139516,20007292,2391,2662,-1233,-6127,2813,1519,-1139,3089,39,27,835
775085,18136760,20003088,18139713,20007489,2265,2482,-1307,-6639,2876,1799,-1046,3317,22,35,835
776086,18136876,20003280,18139910,20007686,2476,2610,-1369,-7042,2931,2055,-913,3548,22,35,835
777087,18136976,20003476,18140107,20007883,2619,2585,-1384,-7424,2935,2504,-395,3525,15,42,833
778088,18137064,20003692,18140304,20008080,2743,2453,-1374,-7762,2859,2995,-85,3682,15,42,833
779089,18137168,20003916,18140501,20008277,2684,2392,-1367,-7976,2679,3077,-85,4037,33,51,835
780090,18137252,20004188,18140698,20008474,2860,2060,-1349,-8012,2446,2857,-244,4496,33,51,835
781091,18137368,20004448,18140895,20008671,2695,2108,-1324,-7821,2227,2702,-590,5146,15,42,832
782092,18137528,20004688,18141092,20008868,2438,2215,-1298,-7386,2103,2723,-1201,5820,15,42,832
783093,18137644,20004908,18141289,20009065,2749,2330,-1287,-6716,2098,2789,-1527,6505,38,41,835
784094,18137756,20005164,18141486,20009262,2813,2080,-1262,-5907,2095,2477,-1387,6589,38,41,835
785095,18137872,20005452,18141683,20009459,2823,1841,-1190,-5126,2010,1923,-1329,6613,24,43,835
786096,18137944,20005728,18141880,20009656,3154,1883,-1079,-4300,1897,1435,-1187,6911,24,43,835
787097,18138024,20005968,18142077,20009853,3157,2089,-926,-3509,1795,1189,-938,6668,31,58,834
788097,18138088,20006184,18142274,20010050,3315,2231,-714,-2783,1668,1307,-361,6242,31,58,834
789099,18138124,20006428,18142471,20010247,3562,2037,-418,-2155,1510,1539,260,5579,6,40,833
790100,18138172,20006704,18142668,20010444,3553,1803,-80,-1681,1375,1795,517,5158,6,40,833
791101,18138220,20006936,18142865,20010641,3620,2063,231,-1213,1325,1956,235,5263,2,35,831
792101,18138272,20007168,18143062,20010838,3659,2048,515,-737,1356,1807,-16,5005,2,35,831
793103,18138336,20007388,18143259,20011035,3644,2114,816,-307,1393,1752,-16,4510,22,33,831
794104,18138432,20007596,18143456,20011232,3489,2184,1139,20,1400,1589,-83,4261,22,33,831
795105,18138508,20007788,18143653,20011429,3668,2288,1454,354,1406,1294,-327,4322,15,55,829
796106,18138624,20008064,18143850,20011626,3455,1729,1740,766,1414,980,-471,4353,15,55,829
797107,18138812,20008340,18144047,20011823,3010,1695,2022,1171,1414,609,-507,4073,19,57,829
798108,18138988,20008584,18144244,20012020,3095,1874,2300,1563,1402,408,-413,4009,19,57,829
799109,18139144,20008804,18144441,20012217,3239,2015,2529,1981,1403,188,-510,4047,51,39,832
800109,18139292,20009016,18144638,20012414,3312,2059,2713,2425,1493,-255,-946,4119,51,39,832
801111,18139452,20009252,18144835,20012611,3254,1893,2869,2881,1644,-771,-1227,4100,43,45,834
802112,18139568,20009520,18145032,20012808,3566,1662,2999,3222,1796,-829,-1220,3693,43,45,834
803113,18139716,20009780,18145229,20013005,3388,1685,3153,3391,1904,-243,-633,2775,37,41,832
804113,18139864,20010044,18145426,20013202,3411,1631,3323,3336,1939,366,101,1994,37,41,832
805115,18140036,20010300,18145623,20013399,3273,1656,3479,3178,1921,717,402,1737,23,53,832
806116,18140264,20010572,18145820,20013596,2910,1523,3571,3056,1907,599,48,1941,23,53,832
807117,18140508,20010892,18146017,20013793,2790,1170,3545,3120,1907,219,-672,2583,57,56,833
808118,18140732,20011236,18146214,20013990,2905,956,3405,3394,1933,-356,-1640,3094,57,56,833
809119,18140908,20011512,18146411,20014187,3215,1347,3216,3784,1972,-840,-1921,3055,53,66,837
810120,18141132,20011768,18146608,20014384,2904,1446,3053,3971,1968,-594,-1373,2432,53,66,837
811121,18141360,20012084,18146805,20014581,2866,1020,2921,3845,1875,245,-401,1638,39,58,839
812122,18141616,20012420,18147002,20014778,2666,834,2798,3658,1736,943,73,1283,39,58,839
813123,18141904,20012712,18147199,20014975,2427,1068,2653,3418,1631,1307,15,1080,47,52,838
814124,18142156,20012968,18147396,20015172,2629,1267,2448,3249,1607,1077,-334,1569,47,52,838
815125,18142396,20013192,18147593,20015369,2686,1456,2191,3268,1662,654,-506,2099,44,41,841
816126,18142684,20013408,18147790,20015566,2347,1498,1943,3257,1692,627,-24,1588,44,41,841
817127,18142964,20013672,18147987,20015763,2362,1168,1737,3069,1603,897,74,946,50,51,840
818128,18143224,20013928,18148184,20015960,2460,1193,1585,2694,1444,1410,206,374,50,51,840
819129,18143492,20014140,18148381,20016157,2380,1462,1419,2259,1300,1622,275,583,55,54,840
820129,18143780,20014340,18148578,20016354,2216,1537,1211,2062,1170,960,292,1316,55,54,840
821131,18144072,20014532,18148775,20016551,2150,1589,936,2028,1038,310,392,1828,64,49,841
822132,18144336,20014700,18148972,20016748,2297,1752,601,2207,867,824,651,2036,64,49,841
823133,18144644,20014928,18149169,20016945,1974,1364,-75,2261,581,1664,334,1310,69,44,841
824134,18144896,20015176,18149366,20017142,2301,1216,-289,2042,501,864,152,1130,69,44,841
825135,18145152,20015384,18149563,20017339,2250,1463,-423,1835,378,110,116,1025,65,49,840
826136,18145444,20015600,18149760,20017536,1984,1404,-546,1741,205,319,310,1042,65,49,840
827137,18145728,20015824,18149957,20017733,1997,1342,-699,1658,42,875,360,978,62,52,842
828138,18145976,20016000,18150154,20017930,2201,1653,-876,1636,-51,957,254,1428,62,52,842
829139,18146252,20016240,18150351,20018127,1992,1234,-1042,1678,-68,475,231,1601,42,54,841
830140,18146472,20016504,18150548,20018324,2332,1054,-1179,1741,-84,241,374,1485,42,54,841
831141,18146700,20016736,18150745,20018521,2269,1240,-1337,1800,-126,386,510,1525,56,37,840
832141,18147000,20016984,18150942,20018718,1775,1118,-1500,1763,-168,564,724,1149,56,37,840
833142,18147248,20017212,18151139,20018915,2078,1229,-1641,1635,-199,483,760,1137,62,42,842
834143,18147480,20017432,18151336,20019112,2163,1270,-1741,1590,-220,-118,790,1431,62,42,842
835144,18147712,20017656,18151533,20019309,2149,1233,-1818,1583,-270,-551,755,1666,37,45,844
836145,18147940,20017908,18151730,20019506,2161,1034,-1873,1571,-368,-151,1163,1280,37,45,844
837146,18148168,20018120,18151927,20019703,2148,1278,-1929,1434,-477,87,1468,1281,49,40,842
838148,18148484,20018352,18152124,20019900,1546,1138,-1974,1360,-541,-83,1215,1506,49,40,842
839148,18148756,20018556,18152321,20020097,1789,1310,-2038,1369,-579,-940,572,1932,59,39,843
840149,18149000,20018756,18152518,20020294,1944,1334,-2113,1431,-630,-1568,363,2095,59,39,843
841157,18149232,20018932,18152748,20020524,2019,1508,-2210,1482,-774,-1382,725,2076,61,46,844
842152,18149508,20019152,18152945,20020721,1710,1223,-2314,1406,-1018,-1103,999,1813,61,46,844
843153,18149784,20019352,18153142,20020918,1676,1347,-2453,1301,-1287,-1255,811,2235,66,48,843
844154,18150040,20019556,18153339,20021115,1775,1320,-2658,1363,-1542,-1637,258,3009,66,48,843
845155,18150328,20019784,18153536,20021312,1536,1156,-2884,1463,-1763,-1995,-323,2911,47,36,844
846156,18150584,20019984,18153733,20021509,1711,1330,-3110,1446,-1953,-1858,-555,2544,47,36,844
847157,18150868,20020168,18153930,20021706,1498,1436,-3329,1166,-2133,-1414,-563,2006,55,40,843
848158,18151188,20020348,18154127,20021903,1220,1469,-3510,754,-2280,-1103,-594,2021,55,40,843
849159,18151444,20020536,18154324,20022100,1594,1423,-3699,334,-2400,-1255,-973,2237,58,34,844
850160,18151688,20020740,18154521,20022297,1649,1320,-3877,-144,-2524,-1370,-1359,2160,58,34,844
851161,18151952,20020940,18154718,20022494,1495,1344,-4063,-672,-2654,-1001,-1298,2294,50,24,844
852162,18152236,20021136,18154915,20022691,1333,1370,-4265,-1279,-2804,-456,-916,2149,50,24,844
853163,18152496,20021288,18155112,20022888,1455,1665,-4441,-2005,-2941,-158,-815,2033,59,37,843
854164,18152788,20021432,18155309,20023085,1214,1739,-4585,-2685,-3000,-226,-1224,2530,59,37,843
855165,18153016,20021568,18155506,20023282,1601,1816,-4674,-3345,-2982,-310,-1489,2668,49,31,845
856166,18153292,20021692,18155703,20023479,1267,1923,-4718,-4103,-2962,7,-1308,2637,49,31,845
857167,18153516,20021820,18155900,20023676,1580,1929,-4726,-4899,-2970,520,-1055,2590,54,37,844
858168,18153756,20021976,18156097,20023873,1462,1772,-4704,-5711,-2971,670,-1311,2781,54,37,844
859169,18153956,20022156,18156294,20024070,1711,1630,-4672,-6338,-2964,384,-1889,3602,50,38,843
860170,18154204,20022344,18156491,20024267,1390,1585,-4626,-6754,-2975,-139,-2064,4352,50,38,843
861171,18154428,20022468,18156688,20024464,1528,2017,-4585,-6988,-3000,-156,-2134,5173,49,25,843
862172,18154704,20022628,18156885,20024661,1169,1808,-4533,-7038,-3018,364,-2169,5737,49,25,843
863173,18155024,20022752,18157082,20024858,840,2066,-4050,-6686,-3039,1427,-2282,9451,33,35,843
864174,18155232,20022896,18157279,20025055,1535,1964,-371,-1044,-3169,6258,-4458,32767,33,35,843
865175,18155444,20023004,18157476,20025252,1504,2229,3549,4553,-3308,4055,-3599,32767,40,18,843
866176,18155688,20023136,18157673,20025449,1284,2108,4582,5815,-3339,1557,-806,4954,40,18,843
867177,18155952,20023260,18157870,20025646,1130,2191,3878,3591,-3449,1912,339,1483,44,34,841
868178,18156196,20023416,18158067,20025843,1235,2009,3288,1415,-3541,3068,-404,2194,44,34,841
869179,18156408,20023580,18158264,20026040,1428,1974,2885,247,-3440,3534,-725,3290,50,36,841
870180,18156680,20023744,18158461,20026237,1021,1989,2744,-445,-3333,3584,-440,2086,50,36,841
871181,18156932,20023892,18158658,20026434,1122,2111,2523,-1433,-3300,3893,-663,2064,50,21,842
872182,18157112,20024040,18158855,20026631,1579,2133,2255,-2571,-3266,3392,-820,1451,50,21,842
873183,18157428,20024216,18159052,20026828,678,1967,1930,-3953,-3220,3101,-1059,1200,58,22,841
874184,18157752,20024348,18159249,20027025,572,2272,1623,-5033,-3225,3060,-1329,1816,58,22,841
875185,18157976,20024476,18159446,20027222,1185,2327,1204,-5651,-3201,2652,-1721,3427,48,27,840
876186,18158324,20024620,18159643,20027419,344,2252,813,-5729,-3162,2495,-1811,4282,48,27,840
877187,18158644,20024780,18159840,20027616,466,2168,543,-5876,-3201,2195,-1251,3586,60,26,843
878188,18158860,20024960,18160037,20027813,1108,2051,437,-5988,-3268,1690,-1097,4212,60,26,843
879189,18159108,20025144,18160234,20028010,885,2033,322,-5873,-3286,1432,-1650,4946,60,24,844
880190,18159424,20025320,18160431,20028207,408,2092,155,-5520,-3272,1240,-1776,5135,60,24,844
881191,18159688,20025476,18160628,20028404,705,2236,-92,-4937,-3242,1067,-1821,5830,61,32,843
882192,18160036,20025624,18160825,20028601,113,2308,-285,-4401,-3200,1196,-1877,5098,61,32,843
883193,18160432,20025796,18161022,20028798,-274,2170,-385,-4056,-3162,1415,-1426,4593,58,39,845
884194,18160588,20025932,18161219,20028995,1244,2422,-444,-3629,-3099,1441,-996,4777,58,39,845
885195,18160824,20026092,18161416,20029192,727,2289,-470,-3293,-3012,1334,-939,4245,58,24,843
886196,18161112,20026264,18161613,20029389,362,2225,-474,-2986,-2933,1562,-477,3901,58,24,843
887197,18161208,20026408,18161810,20029586,1606,2424,-433,-2728,-2863,1769,-44,3392,55,31,840
888198,18161452,20026552,18162007,20029783,660,2448,-379,-2602,-2773,1886,-216,2985,55,31,840
889199,18161684,20026700,18162204,20029980,721,2445,-323,-2511,-2663,2167,-108,2782,34,35,844
890200,18161896,20026860,18162401,20030177,839,2387,-284,-2455,-2504,2301,-145,2653,34,35,844
891201,18162084,20027020,18162598,20030374,993,2404,-278,-2329,-2341,2475,-61,2802,32,22,842
892202,18162312,20027180,18162795,20030571,730,2421,-305,-2138,-2198,2199,-160,2738,32,22,842
893203,18162532,20027304,18162992,20030768,770,2679,-335,-1872,-2039,1844,-288,2924,43,35,842
894204,18162692,20027456,18163189,20030965,1161,2524,-353,-1594,-1851,1697,-445,2845,43,35,842
895205,18162864,20027608,18163386,20031162,1097,2544,-350,-1320,-1648,1542,-668,2836,43,29,841
896206,18163020,20027764,18163583,20031359,1215,2538,-347,-964,-1450,1323,-841,3010,43,29,841
897207,18163168,20027896,18163780,20031556,1286,2718,-377,-582,-1261,1114,-1245,2968,40,17,839
898207,18163320,20028056,18163977,20031753,1281,2559,-464,-102,-1068,813,-1561,3370,40,17,839
899209,18163452,20028232,18164174,20031950,1436,2469,-604,503,-851,593,-1707,3581,28,23,839
900210,18163580,20028388,18164371,20032147,1491,2613,-761,1045,-622,559,-1696,3409,28,23,839
901211,18163720,20028580,18164568,20032344,1441,2391,-921,1562,-404,576,-1713,3466,33,30,839
902212,18163844,20028716,18164765,20032541,1573,2768,-1071,2032,-195,424,-1587,3285,33,30,839
903213,18163972,20028852,18164962,20032738,1579,2796,-1197,2380,-32,280,-1267,2820,25,43,838
904214,18164096,20029020,18165159,20032935,1636,2610,-1320,2613,94,333,-1106,2725,25,43,838
905215,18164216,20029176,18165356,20033132,1695,2703,-1439,2845,233,248,-1060,2695,35,31,837
906216,18164352,20029348,18165553,20033329,1622,2615,-1565,3134,397,185,-1162,2800,35,31,837
907217,18164484,20029532,18165750,20033526,1676,2547,-1693,3323,559,82,-1200,2537,25,24,837
908218,18164636,20029720,18165947,20033723,1571,2527,-1822,3407,725,-13,-1353,2587,25,24,837
909219,18164780,20029872,18166144,20033920,1645,2771,-1981,3583,910,-51,-1572,2892,38,34,838
910220,18164912,20030020,18166341,20034117,1748,2819,-2160,3683,1112,-137,-1512,2743,38,34,838
911221,18165092,20030176,18166538,20034314,1456,2788,-2317,3713,1296,-151,-1201,2761,29,43,838
912222,18165252,20030384,18166735,20034511,1597,2459,-2448,3711,1441,-111,-1014,2734,29,43,838
913223,18165424,20030560,18166932,20034708,1534,2668,-2565,3595,1543,-326,-996,2525,21,32,836
914224,18165568,20030764,18167129,20034905,1732,2491,-2652,3452,1634,-760,-1342,2661,21,32,836
915225,18165716,20030956,18167326,20035102,1729,2569,-2727,3376,1727,-936,-1866,2978,23,30,838
916226,18165856,20031164,18167523,20035299,1804,2466,-2818,3360,1862,-938,-2380,3392,23,30,838
917227,18166004,20031356,18167720,20035496,1777,2569,-2932,3487,2037,-1109,-2641,4062,19,47,837
918228,18166176,20031576,18167917,20035693,1638,2384,-3049,3602,2198,-1380,-2532,4112,19,47,837
919229,18166340,20031768,18168114,20035890,1702,2562,-3130,3571,2300,-1458,-2293,3898,30,47,837
920230,18166512,20031956,18168311,20036087,1664,2592,-3177,3437,2387,-1391,-2042,3736,30,47,837
921231,18166716,20032148,18168508,20036284,1461,2570,-3190,3170,2469,-1396,-1800,3370,46,30,838
922232,18166892,20032360,18168705,20036481,1645,2439,-3156,2802,2528,-1675,-1590,3271,46,30,838
923232,18167084,20032600,18168902,20036678,1548,2246,-3082,2416,2531,-1895,-1658,3567,27,38,838
924241,18167256,20032812,18169132,20036908,1699,2430,-1629,978,2698,-4390,-3116,10423,27,38,838
925235,18167400,20033032,18169329,20037105,1898,2370,3026,-2499,3426,-8094,-5619,32767,24,49,839
926236,18167564,20033248,18169526,20037302,1788,2388,5650,-3386,4032,-2414,-3433,11876,24,49,839
927237,18167716,20033464,18169723,20037499,1882,2380,5314,-2738,4310,-2139,-2528,7193,29,50,839
928238,18167884,20033688,18169920,20037696,1796,2319,4170,-744,4217,-2256,-1589,8763,29,50,839
929239,18168036,20033920,18170117,20037893,1916,2254,3457,147,3869,-3282,-65,6068,21,38,837
930240,18168232,20034140,18170314,20038090,1641,2320,3226,475,3345,-3009,779,6038,21,38,837
931241,18168372,20034356,18170511,20038287,2017,2337,3104,615,2842,-2621,1327,4804,44,53,839
932242,18168516,20034604,18170708,20038484,2016,2116,3041,252,2522,-2396,1123,3586,44,53,839
933243,18168668,20034852,18170905,20038681,1987,2094,2705,622,2375,-1594,308,6318,38,40,839
934244,18168800,20035084,18171102,20038878,2140,2180,2313,848,2489,-1334,-327,4518,38,40,839
935245,18168936,20035348,18171299,20039075,2143,1950,2015,783,2765,-814,-526,3906,27,49,839
936246,18169080,20035620,18171496,20039272,2116,1868,1769,493,2926,-585,237,3183,27,49,839
937247,18169188,20035848,18171693,20039469,2380,2131,1678,-509,2876,-955,1406,1271,19,47,838
938248,18169308,20036080,18171890,20039666,2340,2090,1681,-1519,2648,-346,1348,1454,19,47,838
939249,18169416,20036340,18172087,20039863,2454,1889,1803,-2730,2440,-151,380,50,35,42,838
940250,18169516,20036612,18172284,20040060,2548,1782,1900,-3884,2443,-20,-323,1029,35,42,838
941251,18169656,20036812,18172481,20040257,2323,2230,1907,-4541,2620,-92,-675,1821,40,43,836
942252,18169840,20037072,18172678,20040454,2055,1829,1861,-5363,2896,-425,-1055,1328,40,43,836
943253,18169976,20037324,18172875,20040651,2382,1856,1792,-5803,3158,-427,-1241,2700,37,44,838
944254,18170104,20037596,18173072,20040848,2463,1698,1736,-6112,3329,-1054,-1169,2650,37,44,838
946256,18170364,20038096,18173466,20041242,2598,1753,1716,-6110,3287,-1802,-887,4020,43,50,840
947257,18170496,20038352,18173663,20041439,2527,1727,1727,-5848,3187,-2190,-555,4021,20,51,838
948258,18170608,20038644,18173860,20041636,2690,1461,1726,-5354,3076,-2166,-744,4931,20,51,838
949259,18170736,20038920,18174057,20041833,2621,1527,1737,-4839,2976,-2168,-959,4670,33,47,837
950260,18170848,20039220,18174254,20042030,2759,1332,1770,-4369,2924,-1956,-709,4698,33,47,837
951261,18170948,20039504,18174451,20042227,2877,1394,1771,-3788,2883,-1600,125,4640,31,45,837
952262,18171076,20039688,18174648,20042424,2733,2026,1798,-3506,2823,-1592,954,3703,31,45,837
953263,18171184,20039824,18174845,20042621,2898,2354,1856,-3266,2701,-1445,1432,3868,28,43,838
954264,18171280,20039984,18175042,20042818,3018,2220,1950,-3021,2502,-1360,1629,3372,28,43,838
955265,18171408,20040136,18175239,20043015,2849,2291,2070,-2957,2315,-1167,1397,2958,16,40,835
956266,18171504,20040360,18175436,20043212,3094,1829,2199,-2857,2181,-952,1336,3052,16,40,835
957267,18171608,20040632,18175633,20043409,3086,1497,2326,-2845,2123,-768,1374,2754,29,37,832
958268,18171728,20040936,18175830,20043606,3020,1250,2429,-2741,2112,-401,1246,2857,29,37,832
959269,18171832,20041168,18176027,20043803,3162,1685,2542,-2746,2144,-299,956,2360,32,60,834
960270,18171940,20041472,18176224,20044000,3177,1188,2664,-2817,2183,-157,878,2327,32,60,834
961271,18172084,20041812,18176421,20044197,2976,902,2750,-2822,2209,-10,1044,2560,21,55,836
962272,18172228,20042136,18176618,20044394,3001,946,2811,-2837,2238,9,1110,2361,21,55,836
963273,18172364,20042408,18176815,20044591,3078,1239,2825,-2741,2205,123,890,2724,43,52,834
964273,18172504,20042708,18177012,20044788,3079,1019,2810,-2599,2121,144,761,2736,43,52,834
965275,18172660,20043032,18177209,20044985,2998,813,2746,-2376,2014,269,745,3072,35,67,838
966276,18172808,20043328,18177406,20045182,3070,945,2609,-1970,1908,460,869,3485,35,67,838
967277,18172956,20043612,18177603,20045379,3093,982,2408,-1486,1805,569,1178,3583,29,66,837
968277,18173120,20043968,18177800,20045576,3008,462,2131,-870,1646,832,1836,4139,29,66,837
969279,18173284,20044288,18177997,20045773,3024,634,1820,-269,1446,1143,2404,3785,29,65,838
970279,18173420,20044596,18178194,20045970,3225,660,1508,238,1231,1471,2842,3626,29,65,838
971280,18173588,20044884,18178391,20046167,3039,745,1169,752,1014,1627,2974,3751,26,58,839
972281,18173756,20045184,18178588,20046364,3053,626,800,1167,789,1747,3140,3437,26,58,839
973283,18173924,20045536,18178785,20046561,3067,233,424,1536,564,1945,3129,3188,46,54,837
974284,18174104,20045820,18178982,20046758,3000,620,60,1756,363,2185,2991,2691,46,54,837
975285,18174284,20046056,18179179,20046955,3009,903,-279,1838,199,2390,2659,2295,43,43,839
976286,18174452,20046232,18179376,20047152,3097,1287,-621,1839,24,2600,2763,2325,43,43,839
977287,18174652,20046432,18179573,20047349,2897,1135,-952,1832,-186,2584,3126,2238,35,39,840
978288,18174800,20046660,18179770,20047546,3245,948,-1275,1862,-420,2577,3302,2416,35,39,840
979289,18174960,20046892,18179967,20047743,3187,907,-1577,2004,-656,2557,3228,2658,35,44,837
980290,18175136,20047080,18180164,20047940,3097,1186,-1863,2154,-916,2388,3085,2781,35,44,837
981291,18175292,20047260,18180361,20048137,3241,1244,-2143,2405,-1156,2271,2763,3119,29,48,837
982292,18175432,20047432,18180558,20048334,3367,1305,-2434,2638,-1358,2069,2642,2894,29,48,837
983293,18175596,20047600,18180755,20048531,3233,1343,-2686,2774,-1562,1819,2464,2641,28,43,836
984294,18175752,20047760,18180952,20048728,3302,1410,-2889,2827,-1755,1675,2051,2537,28,43,836
985295,18175908,20047896,18181149,20048925,3321,1587,-3064,2811,-1915,1461,1685,2431,34,40,834
986296,18176068,20048060,18181346,20049122,3313,1426,-3241,2884,-2036,1236,1402,2842,34,40,834
987297,18176272,20048240,18181543,20049319,3036,1334,-3411,3030,-2171,997,1411,3025,31,25,835
988297,18176420,20048420,18181740,20049516,3408,1341,-3590,3199,-2366,935,1600,3209,31,25,835
989299,18176584,20048588,18181937,20049713,3324,1430,-3778,3404,-2569,929,1609,3304,41,38,835
990300,18176744,20048768,18182134,20049910,3366,1362,-3944,3529,-2698,901,1429,3141,41,38,835
991301,18176892,20048936,18182331,20050107,3464,1450,-4061,3478,-2746,912,1248,2862,28,27,834
992302,18177016,20049068,18182528,20050304,3647,1704,-4131,3376,-2784,819,1173,2706,28,27,834
993303,18177180,20049220,18182725,20050501,3412,1599,-4163,3222,-2870,556,1167,2611,38,24,834
994304,18177312,20049376,18182922,20050698,3642,1592,-4183,3022,-3001,402,1033,2632,38,24,834
995305,18177460,20049544,18183119,20050895,3564,1530,-4214,2800,-3121,286,712,2964,21,24,830
996306,18177640,20049736,18183316,20051092,3373,1382,-4262,2738,-3186,123,195,3665,21,24,830
997307,18177788,20049896,18183513,20051289,3595,1600,-4311,2849,-3253,-277,-715,4133,22,39,831
998308,18177964,20050048,18183710,20051486,3431,1669,-4334,3019,-3348,-575,-1294,4408,22,39,831
999309,18178164,20050200,18183907,20051683,3280,1689,-4345,3116,-3433,-689,-1293,4370,26,25,834
1000310,18178344,20050356,18184104,20051880,3414,1682,-4340,3088,-3498,-722,-1009,4077,26,25,834
1001311,18178536,20050508,18184301,20052077,3342,1728,-4298,2921,-3569,-921,-822,4000,39,24,833
1002312,18178732,20050668,18184498,20052274,3319,1694,-3401,2166,-3528,-2916,-2018,8059,39,24,833
1003313,18178924,20050828,18184695,20052471,3348,1711,1665,-943,-2788,-9937,-7957,32767,45,25,833
1004314,18179104,20051004,18184892,20052668,3431,1621,5719,-2459,-2195,-3281,-4107,21078,45,25,833
1005315,18179312,20051172,18185089,20052865,3252,1683,6016,-1998,-2055,-971,-694,7681,30,31,833
1006316,18179516,20051352,18185286,20053062,3275,1616,4543,-412,-2175,-912,-438,8531,30,31,833
1007326,18179708,20051560,18185516,20053292,3368,1452,3404,728,-2409,-1326,522,6711,31,42,833
1008318,18179904,20051728,18185713,20053489,3344,1714,2893,816,-2716,-1303,1494,5325,31,42,833
1009319,18180128,20051908,18185910,20053686,3158,1647,2559,785,-3084,-1175,1415,5512,51,44,835
1010320,18180332,20052084,18186107,20053883,3281,1682,2180,722,-3337,-1068,927,4913,51,44,835
1011321,18180536,20052256,18186304,20054080,3279,1718,1701,679,-3439,-488,766,4958,51,40,833
1012321,18180760,20052436,18186501,20054277,3144,1676,1190,786,-3408,39,761,5190,51,40,833
1013323,18180984,20052596,18186698,20054474,3134,1818,705,619,-3266,518,900,4187,48,35,834
1014324,18181220,20052736,18186895,20054671,3042,1968,317,86,-3084,1014,923,2917,48,35,834
1015325,18181456,20052884,18187092,20054868,3026,1939,-16,-884,-2946,1261,1285,1623,41,32,835
1016326,18181692,20052988,18187289,20055065,3010,2256,-286,-2058,-2865,1439,1807,1060,41,32,835
1017327,18181928,20053096,18187486,20055262,2994,2270,-541,-3267,-2830,1612,2006,575,56,36,833
1018328,18182188,20053228,18187683,20055459,2817,2149,-758,-4383,-2804,1689,1641,544,56,36,833
1019329,18182420,20053356,18187880,20055656,2978,2205,-983,-5406,-2734,1554,1074,842,46,37,833
1020330,18182656,20053480,18188077,20055853,2937,2262,-1221,-6304,-2618,1341,460,1233,46,37,833
1021331,18182912,20053592,18188274,20056050,2787,2376,-1454,-7022,-2469,949,-38,1565,36,31,835
1022332,18183156,20053696,18188471,20056247,2842,2467,-1655,-7507,-2299,481,-430,2152,36,31,835
1023333,18183412,20053824,18188668,20056444,2742,2348,-1839,-7713,-2104,-26,-671,2841,44,17,833
1024334,18183696,20053936,18188865,20056641,2530,2485,-1992,-7807,-1883,-692,-1005,3265,44,17,833
1025335,18183972,20054048,18189062,20056838,2546,2524,-2116,-7620,-1662,-1121,-1820,4161,59,17,833
1026336,18184208,20054136,18189259,20057035,2780,2721,-2218,-7026,-1431,-1762,-1955,4867,59,17,833
1027337,18184480,20054224,18189456,20057232,2523,2770,-2244,-6471,-1200,-2318,-1569,4603,44,19,833
1028338,18184744,20054308,18189653,20057429,2545,2845,-2254,-5878,-994,-1876,-1544,4880,44,19,833
1029339,18184996,20054408,18189850,20057626,2597,2789,-2219,-5214,-746,-2037,-1258,4749,46,27,832
1030340,18185216,20054524,18190047,20057823,2787,2725,-2124,-4632,-481,-2214,-1095,4472,46,27,832
1031341,18185452,20054616,18190244,20058020,2671,2921,-1983,-4131,-274,-1945,-1110,4159,54,17,832
1032342,18185672,20054728,18190441,20058217,2762,2835,-1777,-3831,-32,-1841,-1153,3699,54,17,832
1033343,18185868,20054840,18190638,20058414,2914,2873,-1518,-3387,249,-1524,-1175,3951,38,22,832
1034344,18186100,20054952,18190835,20058611,2674,2910,-1226,-3091,494,-1366,-1008,3187,38,22,832
1035344,18186300,20055084,18191032,20058808,2873,2815,-892,-2968,695,-1163,-649,3006,53,20,830
1036346,18186460,20055204,18191229,20059005,3140,2925,-552,-2765,852,-706,-529,2957,53,20,830
1037347,18186672,20055308,18191426,20059202,2810,3066,-187,-2769,964,-508,-494,2178,39,26,832
1038348,18186848,20055424,18191623,20059399,3045,3027,180,-2788,1046,-394,-323,2470,39,26,832
1039349,18187020,20055536,18191820,20059596,3082,3091,530,-2777,1088,-99,-235,2380,44,16,827
1040350,18187220,20055660,18192017,20059793,2907,3049,837,-2739,1091,263,-147,2323,44,16,827
1041351,18187396,20055784,18192214,20059990,3067,3081,1094,-2621,1056,345,118,2622,29,25,828
1042352,18187568,20055916,18192411,20060187,3104,3060,1303,-2549,921,361,357,2465,29,25,828
1043353,18187784,20056068,18192608,20060384,2821,2956,1449,-2415,677,630,510,2697,38,23,829
1044354,18187944,20056228,18192805,20060581,3189,2923,1552,-2257,418,702,552,2569,38,23,829
1045355,18188144,20056384,18193002,20060778,2938,2967,1630,-2184,168,873,605,2342,30,42,828
1046356,18188364,20056552,18193199,20060975,2804,2906,1673,-2060,-61,1059,569,2635,30,42,828
1047357,18188600,20056740,18193396,20061172,2687,2785,1681,-1925,-267,988,630,2532,35,28,827
1048358,18188840,20056892,18193593,20061369,2644,3031,1652,-1801,-479,1086,555,2485,35,28,827
1049359,18189084,20057072,18193790,20061566,2600,2864,1595,-1722,-695,1002,444,2270,36,38,830
1050360,18189308,20057264,18193987,20061763,2714,2793,1484,-1659,-897,894,363,2502,36,38,830
1051361,18189568,20057500,18194184,20061960,2462,2501,1308,-1517,-1089,990,249,2555,37,48,830
1052362,18189804,20057712,18194381,20062157,2596,2646,1094,-1427,-1249,882,86,2375,37,48,830
1053363,18190100,20057900,18194578,20062354,2178,2800,853,-1334,-1381,678,133,2382,40,44,832
1054363,18190388,20058100,18194775,20062551,2189,2725,596,-1317,-1485,580,83,2055,40,44,832
1055365,18190668,20058296,18194972,20062748,2203,2751,337,-1409,-1556,467,42,1900,49,32,834
1056366,18190984,20058496,18195169,20062945,1927,2726,78,-1549,-1581,324,-28,1730,49,32,834
1057367,18191308,20058756,18195366,20063142,1822,2324,-165,-1783,-1575,144,-89,1347,45,37,835
1058368,18191620,20059016,18195563,20063339,1847,2297,-425,-2061,-1545,22,-224,1512,45,37,835
1059369,18191948,20059268,18195760,20063536,1691,2324,-693,-2303,-1484,-103,-317,1516,50,60,836
1060369,18192272,20059508,18195957,20063733,1660,2380,-965,-2590,-1393,-266,-460,1256,50,60,836
1061371,18192620,20059792,18196154,20063930,1445,2068,-1241,-2878,-1275,-438,-628,1393,74,62,838
1062372,18192980,20060116,18196351,20064127,1299,1763,-1517,-3192,-1128,-675,-800,1487,74,62,838
1063373,18193316,20060364,18196548,20064324,1388,2217,-1806,-3475,-990,-739,-901,1562,70,46,840
1064374,18193624,20060648,18196745,20064521,1515,1954,-2099,-3710,-867,-829,-784,1792,70,46,840
1065375,18193992,20060896,18196942,20064718,1066,2157,-2358,-4052,-756,-885,-773,1646,66,58,843
1066375,18194284,20061168,18197139,20064915,1499,1975,-2599,-4369,-656,-748,-961,1823,66,58,843
1067377,18194560,20061456,18197336,20065112,1565,1836,-2821,-4626,-548,-910,-1119,2011,74,64,842
1068377,18194904,20061760,18197533,20065309,1076,1689,-3025,-4836,-430,-1073,-1286,2094,74,64,842
1069379,18195192,20062016,18197730,20065506,1387,1964,-3214,-5136,-316,-942,-1640,2134,53,45,842
1070379,18195452,20062248,18197927,20065703,1534,2100,-3399,-5385,-172,-660,-1979,2554,53,45,842
1071381,18195732,20062488,18198124,20065900,1374,2031,-3575,-5557,-5,-510,-2193,2738,62,53,843
1072382,18195964,20062744,18198321,20066097,1658,1906,-3716,-5781,159,-424,-2509,2847,62,53,843
1073383,18196188,20062984,18198518,20066294,1697,1988,-3816,-5932,325,-123,-2593,3312,41,56,840
1074384,18196416,20063200,18198715,20066491,1659,2130,-3887,-5962,505,216,-2709,3595,41,56,840
1075385,18196660,20063380,18198912,20066688,1538,2363,-3928,-5969,679,532,-2707,3889,40,39,841
1076385,18196872,20063552,18199109,20066885,1733,2425,-3974,-6014,830,854,-2507,4105,40,39,841
1077387,18197088,20063736,18199306,20067082,1699,2356,-3979,-6093,955,1265,-2356,3929,41,29,840
1078388,18197328,20063912,18199503,20067279,1531,2416,-3976,-6131,1062,1667,-2512,4258,41,29,840
1079389,18197552,20064136,18199700,20067476,1619,2104,-3962,-6114,1166,1836,-2592,4637,38,46,838
1080390,18197792,20064308,18199897,20067673,1502,2441,-3962,-5989,1274,1995,-2777,5081,38,46,838
1081391,18198060,20064500,18200094,20067870,1295,2319,-3948,-5762,1377,2110,-2902,5423,40,28,839
1082392,18198308,20064660,18200291,20068067,1398,2536,-3904,-5525,1475,2272,-2944,5933,40,28,839
1083393,18198516,20064856,18200488,20068264,1644,2312,-2248,-3288,1430,5113,-2782,28236,46,44,838
1084394,18198764,20065056,18200685,20068461,1372,2287,1196,1517,1207,6485,-3390,32767,46,44,838
1085395,18198988,20065264,18200882,20068658,1510,2232,3158,3519,1179,2525,-2806,8674,45,41,839
1086396,18199208,20065472,18201079,20068855,1526,2228,3109,2849,1304,2012,-1917,3288,45,41,839
1087397,18199440,20065684,18201276,20069052,1435,2198,2423,1276,1423,1998,-2066,2552,55,41,840
1088398,18199644,20065888,18201473,20069249,1608,2245,2062,340,1542,1966,-2255,2978,55,41,840
1089399,18199832,20066084,18201670,20069446,1712,2296,2010,-268,1675,1407,-1823,2377,34,48,840
1090406,18200048,20066320,18201900,20069676,1543,2043,2065,-949,1799,1128,-1951,2326,34,48,840
1091401,18200220,20066484,18202097,20069873,1830,2509,1901,-1312,1988,796,-2570,3789,34,34,840
1092401,18200408,20066708,18202294,20070070,1734,2123,1624,-1675,2293,195,-2828,3383,34,34,840
1093403,18200616,20066928,18202491,20070267,1604,2138,1338,-2131,2527,-179,-2175,2910,47,51,839
1094404,18200800,20067140,18202688,20070464,1761,2182,1132,-2678,2624,-796,-1632,2767,47,51,839
1095405,18200972,20067364,18202885,20070661,1847,2096,973,-3181,2704,-1327,-1688,3362,30,37,838
1096406,18201128,20067596,18203082,20070858,1965,2031,738,-3224,2752,-1674,-1526,4758,30,37,838
1097407,18201332,20067800,18203279,20071055,1663,2204,465,-3098,2800,-2409,-1551,4847,49,46,839
1098408,18201488,20068012,18203476,20071252,1981,2148,229,-2931,2883,-2618,-1796,5093,49,46,839
1099408,18201616,20068224,18203673,20071449,2186,2142,40,-2834,2961,-2605,-1646,4805,46,50,838
1100409,18201768,20068436,18203870,20071646,2057,2136,-119,-2897,3002,-2651,-1325,4440,46,50,838
1101411,18201920,20068640,18204067,20071843,2077,2183,-260,-2957,3065,-2443,-1563,4273,42,45,839
1102411,18202072,20068848,18204264,20072040,2098,2154,-370,-3264,3187,-2278,-1690,3696,42,45,839
1103412,18202220,20069036,18204461,20072237,2144,2284,-437,-3508,3383,-2022,-1749,4061,29,34,838
1104414,18202352,20069204,18204658,20072434,2274,2422,-485,-3669,3640,-1743,-1885,4016,29,34,838
1105415,18202452,20069352,18204855,20072631,2517,2569,-505,-3967,3901,-1358,-1951,3649,35,42,838
1106416,18202552,20069568,18205052,20072828,2559,2136,-507,-4243,4116,-857,-1594,3734,35,42,838
1107417,18202644,20069784,18205249,20073025,2656,2129,-465,-4661,4258,-297,-970,3261,17,31,836
1108418,18202732,20069988,18205446,20073222,2729,2202,-378,-5108,4305,427,-221,3272,17,31,836
1109419,18202836,20070168,18205643,20073419,2671,2359,-279,-5477,4306,939,219,3379,29,31,835
1110420,18202960,20070332,18205840,20073616,2578,2475,-196,-5716,4305,1362,303,3805,29,31,835
1111421,18203076,20070496,18206037,20073813,2665,2490,-156,-5686,4292,1640,331,4655,33,29,834
1112422,18203212,20070728,18206234,20074010,2568,2050,-131,-5501,4266,1455,258,5003,33,29,834
1113423,18203324,20070960,18206431,20074207,2755,2035,-126,-5126,4236,1298,-123,5698,30,41,834
1114424,18203396,20071196,18206628,20074404,3061,1993,-146,-4568,4172,1098,-70,6164,30,41,834
1115425,18203480,20071400,18206825,20074601,3035,2191,-128,-4081,4058,1044,471,5801,19,47,835
1116426,18203556,20071608,18207022,20074798,3140,2162,-72,-3611,3897,1519,766,5678,19,47,835
1117427,18203604,20071784,18207219,20074995,3381,2372,14,-3182,3729,2100,706,5517,8,35,832
1118428,18203648,20072032,18207416,20075192,3473,1900,116,-2713,3571,2384,707,5493,8,35,832
1119429,18203704,20072260,18207613,20075389,3461,2012,225,-2288,3370,2349,737,5283,21,50,832
1120430,18203748,20072468,18207810,20075586,3605,2133,342,-1893,3095,2246,736,5190,21,50,832
1121431,18203808,20072708,18208007,20075783,3566,1915,483,-1480,2800,2310,682,4966,3,41,830
1122432,18203892,20072912,18208204,20075980,3465,2137,648,-1178,2525,2541,609,4439,3,41,830
1123433,18203984,20073136,18208401,20076177,3463,2001,803,-927,2252,2578,445,4435,6,42,828
1124434,18204092,20073344,18208598,20076374,3403,2096,922,-669,1958,2209,-87,4301,6,42,828
1125435,18204256,20073592,18208795,20076571,3068,1825,1020,-418,1649,1867,-508,3986,14,57,830
1126436,18204416,20073856,18208992,20076768,3110,1696,1107,-188,1366,1707,-591,3877,14,57,830
1127437,18204580,20074100,18209189,20076965,3101,1801,1167,21,1146,1592,-698,3949,22,52,829
1128438,18204752,20074344,18209386,20077162,3062,1781,1195,274,988,1413,-946,3972,22,52,829
1129439,18204908,20074568,18209583,20077359,3181,1894,1229,465,864,926,-910,3469,48,50,835
1130440,18205052,20074816,18209780,20077556,3280,1723,1283,486,725,691,-832,2971,48,50,835
1131441,18205208,20075092,18209977,20077753,3224,1513,1360,407,557,941,-640,2441,35,43,835
1132442,18205368,20075380,18210174,20077950,3217,1399,1458,226,395,1216,-474,1889,35,43,835
1133443,18205532,20075660,18210371,20078147,3207,1412,1557,-18,265,1317,-459,1622,22,59,833
1134444,18205756,20075892,18210568,20078344,2821,1698,1619,-241,207,1152,-919,1797,22,59,833
1135445,18205992,20076192,18210765,20078541,2730,1228,1612,-208,265,641,-1781,2499,35,53,835
1136446,18206212,20076488,18210962,20078738,2821,1210,1558,-31,388,-83,-2184,2732,35,53,835
1137447,18206408,20076756,18211159,20078935,2972,1354,1537,110,496,-506,-1923,2213,60,48,836
1138448,18206632,20077012,18211356,20079132,2786,1403,1607,46,559,-169,-1064,1560,60,48,836
1139449,18206848,20077232,18211553,20079329,2828,1619,1727,-151,584,466,-320,1328,45,51,837
1140450,18207088,20077480,18211750,20079526,2660,1422,1828,-256,626,762,-257,1560,45,51,837
1141451,18207380,20077768,18211947,20079723,2294,1133,1834,-164,720,498,-558,2185,43,58,838
1142452,18207620,20078024,18212144,20079920,2602,1307,1725,247,891,49,-1010,3208,43,58,838
1143453,18207868,20078276,18212341,20080117,2530,1308,1530,922,1087,-366,-1084,3653,43,54,839
1144453,18208132,20078544,18212538,20080314,2402,1177,1353,1408,1178,-288,-451,2815,43,54,839
1145455,18208424,20078776,18212735,20080511,2186,1387,1257,1634,1148,250,-191,2094,61,57,839
1146456,18208672,20079068,18212932,20080708,2439,970,1222,1612,1077,655,-125,1469,61,57,839
1147457,18208952,20079376,18213129,20080905,2203,822,1210,1618,1035,507,-486,1727,51,59,841
1148457,18209208,20079660,18213326,20081102,2328,934,1160,1820,1031,-373,-926,2191,48,60,840
1149459,18209452,20079904,18213523,20081299,2384,1164,1092,2032,1023,-552,-1001,2078,48,60,840
1150460,18209748,20080144,18213720,20081496,2016,1171,975,2368,969,497,-643,2249,61,59,842
1151461,18210016,20080392,18213917,20081693,2160,1098,858,2664,950,1327,-869,1948,61,59,842
1152461,18210288,20080676,18214114,20081890,2103,835,741,2886,1006,1446,-1383,2061,50,50,843
1153463,18210568,20080924,18214311,20082087,2017,1038,652,3036,1046,884,-1445,1998,50,50,843
1154464,18210792,20081160,18214508,20082284,2357,1095,573,3122,1007,777,-1074,1632,61,46,843
1155465,18211068,20081412,18214705,20082481,1997,972,455,3185,863,1453,-646,1310,61,46,843
1156465,18211360,20081656,18214902,20082678,1856,1002,322,3038,687,2038,-320,809,43,49,842
1157467,18211620,20081936,18215099,20082875,2029,740,181,2901,539,2352,-195,1200,43,49,842
1158468,18211848,20082228,18215296,20083072,2216,623,72,2903,436,2105,-173,1466,55,45,843
1159469,18212068,20082532,18215493,20083269,2257,501,-3,2918,351,1874,-234,1451,55,45,843
1160470,18212316,20082736,18215690,20083466,2060,1124,-94,2956,272,2167,-311,1530,36,41,842
1161471,18212580,20082852,18215887,20083663,1931,1710,-192,2851,204,2486,-155,1197,36,41,842
1162472,18212820,20083052,18216084,20083860,2063,1184,-272,2734,133,2514,-10,1245,62,37,843
1163473,18213084,20083312,18216281,20084057,1884,781,-331,2709,40,1865,-125,1641,62,37,843
1164474,18213308,20083588,18216478,20084254,2123,646,-394,2654,-85,1348,-59,1710,56,46,842
1165475,18213528,20083864,18216675,20084451,2138,611,-497,2686,-259,1644,560,1744,56,46,842
1166475,18213780,20084088,18216872,20084648,1914,925,-607,2770,-426,1830,827,1772,42,38,843
1167477,18214080,20084276,18217069,20084845,1570,1154,-713,2827,-545,1477,584,1870,42,38,843
1168477,18214384,20084492,18217266,20085042,1498,971,-813,3033,-630,791,158,2404,60,46,843
1169479,18214656,20084724,18217463,20085239,1666,856,-902,3323,-732,62,3,2498,60,46,843
1170480,18214900,20084940,18217660,20085436,1821,947,-974,3557,-909,-125,185,2380,65,48,845
1171481,18215120,20085144,18217857,20085633,1961,1019,-1066,3619,-1169,-239,438,1983,65,48,845
1172482,18215428,20085356,18218054,20085830,1364,963,-1154,3588,-1459,-667,502,2034,50,41,844
1173490,18215716,20085524,18218284,20086060,1463,1265,-1260,3537,-1739,-1042,250,2247,50,41,844
1174484,18215968,20085696,18218481,20086257,1665,1251,-1366,3551,-1987,-1481,-178,2484,53,27,846
1175485,18216236,20085884,18218678,20086454,1534,1155,-1517,3597,-2231,-1786,-241,2618,53,27,846
1176486,18216508,20086072,18218875,20086651,1477,1159,-1697,3543,-2467,-1701,-371,2355,50,25,844
1177487,18216784,20086240,18219072,20086848,1417,1298,-1908,3410,-2684,-1622,-520,2367,50,25,844
1178488,18217092,20086416,18219269,20087045,1168,1257,-2113,3176,-2855,-1666,-639,2185,44,36,845
1179489,18217312,20086608,18219466,20087242,1709,1159,-2290,2757,-2980,-1671,-481,1781,44,36,845
1180490,18217564,20086744,18219663,20087439,1485,1536,-2477,2159,-3060,-1531,-321,1564,48,21,845
1181491,18217812,20086876,18219860,20087636,1489,1589,-2658,1513,-3076,-1229,-317,1360,48,21,845
1182492,18218108,20087016,18220057,20087833,1145,1565,-2843,770,-3056,-914,-148,1238,45,28,842
1183493,18218360,20087136,18220254,20088030,1396,1723,-3055,-5,-3040,-868,26,1683,45,28,842
1184494,18218592,20087256,18220451,20088227,1506,1757,-3319,-781,-3044,-944,-80,2061,37,18,844
1185495,18218836,20087404,18220648,20088424,1411,1605,-3620,-1481,-3012,-676,-387,2316,37,18,844
1186496,18219072,20087564,18220845,20088621,1444,1546,-3917,-2148,-2935,-385,-431,2617,38,32,842
1187497,18219308,20087716,18221042,20088818,1428,1616,-4187,-2880,-2839,-240,-359,2744,38,32,842
1188497,18219548,20087876,18221239,20089015,1384,1582,-4400,-3610,-2738,-186,-599,2928,56,33,844
1189499,18219768,20087996,18221436,20089212,1499,1866,-4566,-4295,-2633,-354,-1041,3183,56,33,844
1190500,18219976,20088144,18221633,20089409,1570,1713,-4662,-4988,-2526,-503,-1273,3282,40,30,843
1191501,18220224,20088256,18221830,20089606,1297,1976,-4692,-5821,-2434,-285,-1214,3083,40,30,843
1192502,18220436,20088392,18222027,20089803,1516,1853,-4671,-6554,-2363,84,-920,3536,32,16,841
1193502,18220680,20088528,18222224,20090000,1296,1879,-4656,-7083,-2310,332,-730,4458,32,16,841
1194504,18220920,20088628,18222421,20090197,1302,2148,-4620,-7281,-2254,764,-734,5995,38,31,842
1195505,18221096,20088768,18222618,20090394,1711,1923,-2704,-4632,-2297,4610,-36,32767,38,31,842
1196506,18221312,20088928,18222815,20090591,1454,1814,1705,1275,-2557,6768,-1428,32767,49,37,841
1197507,18221580,20089092,18223012,20090788,1098,1805,4309,3782,-2685,1976,-817,11854,49,37,841
1198508,18221788,20089252,18223209,20090985,1468,1846,4179,2775,-2678,1563,146,3570,35,24,842
1199509,18222020,20089384,18223406,20091182,1303,2050,3299,593,-2630,2430,-31,1942,35,24,842
1200509,18222268,20089560,18223603,20091379,1181,1785,2679,-683,-2511,3058,-263,3666,53,19,842
1201511,18222468,20089732,18223800,20091576,1480,1821,2348,-1320,-2363,2930,-110,3296,53,19,842
1202512,18222728,20089872,18223997,20091773,1077,2046,2027,-1914,-2337,3148,23,2866,37,34,842
1203513,18222956,20090016,18224194,20091970,1264,2045,1740,-2903,-2385,3284,520,1500,37,34,842
1204514,18223216,20090144,18224391,20092167,1037,2176,1456,-4253,-2421,3107,333,1419,48,36,841
1205515,18223456,20090292,18224588,20092364,1143,2072,1125,-5349,-2428,3120,-526,1989,48,36,841
1206516,18223740,20090464,18224785,20092561,830,1934,769,-6124,-2375,2806,-1083,2610,38,27,842
1207517,18223984,20090672,18224982,20092758,1059,1704,375,-6363,-2289,2702,-1181,4052,38,27,842
1208518,18224200,20090848,18225179,20092955,1226,1914,-21,-6481,-2283,2798,-1032,3756,33,23,843
1209519,18224472,20090988,18225376,20093152,844,2164,-387,-6565,-2342,2518,-1043,4080,33,23,843
1210520,18224716,20091168,18225573,20093349,998,1922,-687,-6555,-2392,2347,-1039,4151,35,37,842
1211521,18224956,20091324,18225770,20093546,1004,2091,-877,-6652,-2435,2381,-816,3636,35,37,842
1212522,18225184,20091476,18225967,20093743,1066,2136,-1011,-6660,-2428,2252,-675,4120,51,28,843
1213523,18225408,20091644,18226164,20093940,1079,2049,-1095,-6456,-2375,2128,-507,4311,51,28,843
1214524,18225644,20091788,18226361,20094137,987,2223,-1129,-6233,-2311,2166,-395,4092,38,28,841
1215525,18225856,20091952,18226558,20094334,1131,2113,-1134,-5921,-2252,1999,-142,4393,38,28,841
1216525,18226080,20092096,18226755,20094531,1044,2262,-1134,-5487,-2176,1696,-177,4604,52,34,842
1217527,18226312,20092260,18226952,20094728,979,2152,-1126,-5019,-2107,1552,-77,4505,52,34,842
1218528,18226500,20092396,18227149,20094925,1258,2354,-1085,-4461,-2036,1239,199,4597,30,37,842
1219529,18226704,20092548,18227346,20095122,1155,2274,-1027,-3843,-1946,1067,516,4529,30,37,842
1220530,18226868,20092716,18227543,20095319,1419,2187,-952,-3245,-1856,1099,682,4326,29,28,840
1221531,18227036,20092836,18227740,20095516,1407,2521,-852,-2666,-1741,1126,799,4211,29,28,840
1222532,18227208,20092980,18227937,20095713,1393,2396,-749,-2150,-1618,1282,785,4000,37,34,840
1223533,18227372,20093132,18228134,20095910,1458,2365,-661,-1628,-1498,1464,464,3820,37,34,840
1224534,18227528,20093296,18228331,20096107,1526,2306,-600,-1077,-1362,1360,79,3804,31,35,838
1225535,18227708,20093440,18228528,20096304,1384,2455,-564,-518,-1212,1231,-409,3640,31,35,838
1226536,18227908,20093580,18228725,20096501,1258,2505,-535,-11,-1077,1024,-744,3422,33,34,838
1227537,18228080,20093744,18228922,20096698,1444,2371,-492,412,-943,774,-1037,3128,33,34,838
1228538,18228240,20093912,18229119,20096895,1535,2358,-441,762,-811,767,-1271,2878,39,26,839
1229539,18228400,20094100,18229316,20097092,1551,2238,-416,1075,-674,775,-1524,2895,39,26,839
1230540,18228560,20094264,18229513,20097289,1568,2403,-421,1427,-519,642,-1667,2890,21,29,839
1231541,18228704,20094412,18229710,20097486,1692,2525,-456,1785,-375,683,-1760,2788,21,29,839
1232541,18228860,20094576,18229907,20097683,1635,2441,-521,2081,-237,698,-1877,2626,34,30,839
1233542,18228992,20094752,18230104,20097880,1813,2375,-626,2330,-98,713,-2002,2726,34,30,839
1234543,18229140,20094948,18230301,20098077,1735,2252,-764,2572,32,681,-2079,2594,28,24,838
1235545,18229304,20095140,18230498,20098274,1650,2279,-904,2704,135,577,-1989,2340,28,24,838
1236546,18229452,20095328,18230695,20098471,1772,2309,-1040,2804,208,698,-1716,2356,32,37,838
1237547,18229600,20095472,18230892,20098668,1793,2607,-1179,2852,262,830,-1523,2386,32,37,838
1238548,18229748,20095628,18231089,20098865,1815,2551,-1323,2959,313,891,-1400,2536,40,31,838
1239549,18229920,20095796,18231286,20099062,1677,2490,-1466,3041,366,872,-1215,2574,40,31,838
1240550,18230088,20096020,18231483,20099259,1715,2128,-1617,3093,400,836,-1103,2734,23,35,837
1241551,18230248,20096172,18231680,20099456,1781,2599,-1796,3219,421,710,-1049,3026,23,35,837
1242552,18230384,20096356,18231877,20099653,1958,2405,-1990,3370,434,480,-930,3183,41,39,839
1243553,18230540,20096528,18232074,20099850,1852,2491,-2202,3496,434,366,-819,3437,41,39,839
1244554,18230732,20096728,18232271,20100047,1629,2316,-2413,3714,428,242,-638,3718,40,39,837
1245555,18230932,20096916,18232468,20100244,1578,2395,-2607,3947,436,58,-457,3737,40,39,837
1246556,18231120,20097112,18232665,20100441,1657,2346,-2780,4102,441,-150,-371,3708,23,29,838
1247557,18231280,20097316,18232862,20100638,1849,2294,-2915,4148,446,-405,-307,3625,23,29,838
1248558,18231464,20097508,18233059,20100835,1704,2372,-3028,4180,442,-675,-307,3697,35,28,838
1249559,18231628,20097704,18233256,20101032,1844,2348,-3121,4231,416,-870,-535,3914,35,28,838
1250560,18231788,20097892,18233453,20101229,1886,2403,-3194,4227,423,-1083,-1110,3968,27,46,838
1251561,18231992,20098120,18233650,20101426,1608,2139,-3226,4290,466,-1353,-1290,4279,27,46,838
1252562,18232160,20098308,18233847,20101623,1846,2394,-3216,4323,497,-1808,-1076,4259,45,38,838
1253563,18232368,20098496,18234044,20101820,1592,2399,-3186,4202,492,-2191,-901,4054,45,38,838
1254564,18232548,20098692,18234241,20102017,1774,2350,-3141,3990,478,-2350,-758,4102,47,48,838
1255565,18232732,20098884,18234438,20102214,1755,2378,-3080,3744,499,-2521,-834,4038,47,48,838
1256573,18232896,20099108,18234668,20102444,1910,2181,-1125,1979,900,-6795,-3240,15582,46,35,838
1257567,18233092,20099360,18234865,20102641,1711,1982,3335,-789,1854,-9788,-5170,32767,46,35,838
1258568,18233280,20099536,18235062,20102838,1765,2468,5223,-1419,2463,-3384,-1485,8171,28,39,837
1259569,18233476,20099772,18235259,20103035,1716,2075,4677,-838,2677,-2893,-1140,6670,28,39,837
1260570,18233660,20099992,18235456,20103232,1797,2166,3670,653,2667,-2749,-209,7308,27,36,838
1261571,18233872,20100216,18235653,20103429,1615,2130,3191,928,2596,-3489,779,4777,27,36,838
1262572,18234028,20100476,18235850,20103626,1984,1878,3107,1013,2486,-3153,774,5404,36,36,839
1263573,18234188,20100672,18236047,20103823,1975,2279,3074,956,2385,-3201,983,3957,36,36,839
1264574,18234320,20100884,18236244,20104020,2179,2173,3036,559,2286,-3253,1119,3457,21,49,839
1265575,18234460,20101132,18236441,20104217,2155,1926,2792,671,2204,-2660,620,4916,21,49,839
1266575,18234572,20101348,18236638,20104414,2367,2119,2567,467,2328,-2587,23,3318,27,51,837
1267577,18234712,20101564,18236835,20104611,2218,2111,2342,348,2625,-2011,-1131,4197,27,51,837
1268578,18234828,20101824,18237032,20104808,2404,1809,2178,239,2925,-1910,-1444,3347,40,42,835
1269579,18234944,20102052,18237229,20105005,2440,1995,2100,-368,3130,-2068,-1059,2378,40,42,835
1270580,18235040,20102252,18237426,20105202,2610,2170,2066,-837,3212,-1760,-991,2611,42,43,837
1271581,18235180,20102456,18237623,20105399,2360,2142,2091,-1682,3239,-2060,-960,1130,42,43,837
1272582,18235336,20102688,18237820,20105596,2279,1952,2138,-2460,3281,-2035,-1297,1804,36,54,835
1273583,18235480,20102940,18238017,20105793,2377,1804,2176,-3055,3323,-2091,-1585,1819,36,54,835
1274584,18235616,20103204,18238214,20105990,2455,1700,2210,-3676,3393,-2244,-2051,1833,41,51,838
1275585,18235724,20103416,18238411,20106187,2669,2019,2203,-3892,3480,-2179,-2373,2957,41,51,838
1276586,18235860,20103632,18238608,20106384,2522,1986,2188,-4086,3563,-2382,-2256,2618,20,43,838
1277587,18235988,20103880,18238805,20106581,2602,1764,2184,-4166,3578,-2295,-1630,3207,20,43,838
1278588,18236100,20104156,18239002,20106778,2741,1555,2183,-4079,3495,-2253,-873,3417,37,48,836
1279589,18236208,20104448,18239199,20106975,2805,1414,2237,-4150,3334,-2185,-787,2939,37,48,836
1280589,18236316,20104724,18239396,20107172,2845,1479,2301,-4113,3117,-1935,-503,3342,28,52,836
1281591,18236416,20105004,18239593,20107369,2938,1419,2384,-4115,2887,-1916,-54,2926,28,52,836
1282591,18236512,20105164,18239790,20107566,3008,2185,2463,-4081,2668,-1623,156,3038,35,43,836
1283592,18236652,20105292,18239987,20107763,2759,2416,2524,-3948,2483,-1452,306,3159,35,43,836
1284594,18236756,20105444,18240184,20107960,3025,2286,2581,-3892,2328,-1349,475,2898,27,34,833
1285595,18236868,20105600,18240381,20108157,3013,2279,2623,-3718,2166,-989,858,3169,27,34,833
1286596,18236980,20105800,18240578,20108354,3052,2004,2662,-3588,1994,-829,1157,2929,34,36,832
1287597,18237080,20106020,18240775,20108551,3169,1869,2679,-3471,1853,-677,1321,2925,34,36,832
