"Data file recorded 2014/9/24  18:4:36"
"%  Right Stride Frequency         = 3.0"
"%  Left Stride Frequency         = 3.0"
"%  Phase (Fractional)         = 32768.0"
"%  Experiment.py "
"%  Motor Gains    = [1800, 200, 100, 0, 0, 1800, 200, 100, 0, 0]
"% Columns: "
"% time | Right Leg Pos | Left Leg Pos | Commanded Right Leg Pos | Commanded Left Leg Pos | DCR | DCL | GyroX | GryoY | GryoZ | AX | AY | AZ | RBEMF | LBEMF | VBatt "
12142,4736832,4975724,4758161,4987537,3800,3800,-146,-706,310,358,-586,4049,-11,-8,907
13143,4736900,4975736,4758358,4987734,3800,3800,-146,-716,305,397,-629,4120,-11,-8,907
14144,4737028,4975856,4758555,4987931,3800,3800,-115,-627,276,850,-480,4588,19,29,863
15145,4737256,4976068,4758752,4988128,3800,3800,-64,-480,243,932,-809,4641,19,29,863
16146,4737520,4976352,4758949,4988325,3800,3800,31,-390,204,492,-43,5301,52,41,864
17147,4737816,4976664,4759146,4988522,3800,3800,150,-298,139,464,-97,5641,52,41,864
18148,4738168,4976932,4759343,4988719,3800,3800,238,-406,18,1249,-636,4476,63,53,866
19149,4738512,4977180,4759540,4988916,3800,3800,321,-522,-81,737,-416,5141,63,53,866
20150,4738916,4977444,4759737,4989113,3800,3800,324,-617,-132,-6,-84,4664,88,56,867
21151,4739364,4977688,4759934,4989310,3800,3800,276,-554,-241,596,-200,5128,88,56,867
22152,4739800,4977956,4760131,4989507,3800,3800,243,-382,-405,1029,-201,6304,102,47,868
23153,4740244,4978176,4760328,4989704,3800,3800,201,-388,-555,144,400,5110,102,47,868
24154,4740740,4978356,4760525,4989901,3800,3800,181,-790,-651,-754,-789,4103,102,49,867
25155,4741208,4978544,4760722,4990098,3800,3800,247,-1276,-815,-719,-545,5615,102,49,867
26156,4741684,4978708,4760919,4990295,3800,3800,301,-1837,-947,-1686,-1469,3847,95,35,865
27157,4742160,4978856,4761116,4990492,3800,3800,333,-2031,-1245,798,-291,6026,95,35,865
28158,4742704,4978972,4761313,4990689,3800,3800,345,-1836,-1644,1196,-942,6444,109,30,867
29159,4743184,4979068,4761510,4990886,3800,3800,301,-1528,-2028,1425,-619,5902,116,28,865
30160,4743700,4979156,4761707,4991083,3800,3800,304,-1172,-2352,1952,-1544,6550,116,28,865
31161,4744216,4979208,4761904,4991280,3800,3800,293,-909,-2464,988,-2022,5873,110,8,865
32162,4744736,4979236,4762101,4991477,3800,3800,267,-911,-2549,2142,-1325,3541,110,8,865
33163,4745248,4979272,4762298,4991674,3800,3800,304,-868,-2641,2788,-2015,6245,115,5,865
34164,4745804,4979316,4762495,4991871,3800,3800,461,-701,-2747,3176,-1845,4944,115,5,865
35165,4746360,4979344,4762692,4992068,3800,3800,505,-797,-2756,2393,-1675,3609,108,5,864
36166,4746888,4979364,4762889,4992265,3800,3800,672,-669,-2656,1488,-2213,5211,108,5,864
37167,4747488,4979412,4763086,4992462,3800,3800,725,-761,-2558,1655,-2008,3095,117,3,864
38168,4748052,4979436,4763283,4992659,3800,3800,768,-650,-2509,2228,-1008,3679,117,3,864
39169,4748660,4979460,4763480,4992856,3800,3800,822,-451,-2561,2908,-2086,4317,126,6,865
40157,4749304,4979504,4763677,4993053,3627,3800,878,-93,-2598,2047,-1563,4314,126,6,865
41158,4749956,4979552,4763874,4993250,3380,3800,1039,-6,-2614,1914,-1492,3075,122,10,866
42159,4750596,4979592,4764071,4993447,3262,3800,1136,-176,-2524,1177,-1192,2751,122,10,866
43160,4751320,4979632,4764268,4993644,2509,3800,1266,-481,-2284,52,-821,1676,140,12,869
44161,4752004,4979712,4764465,4993841,2547,3800,1299,-972,-2047,163,-1287,1074,140,12,869
45162,4752720,4979752,4764662,4994038,2121,3800,1311,-1173,-1861,-29,-677,2450,128,28,873
46163,4753492,4979824,4764859,4994235,1521,3800,1323,-1392,-1780,0,-169,1439,128,28,873
47164,4754200,4979884,4765056,4994432,1698,3800,1275,-1584,-1778,193,-666,1671,144,14,874
48165,4754852,4979968,4765253,4994629,1850,3800,1315,-1719,-1741,-668,-405,2659,144,14,874
49166,4755596,4980084,4765450,4994826,1037,3800,1252,-1977,-1724,-1035,111,1110,125,24,877
50167,4756416,4980176,4765647,4995023,290,3800,1139,-2290,-1769,-1515,981,1135,125,24,877
51168,4757096,4980288,4765844,4995220,955,3800,1100,-2520,-1851,-1586,912,2264,126,22,879
52169,4757820,4980428,4766041,4995417,450,3800,995,-2738,-1901,-1540,188,931,126,22,879
53170,4758524,4980552,4766238,4995614,353,3800,906,-2952,-1818,-1535,-179,1127,141,27,880
54172,4759224,4980712,4766435,4995811,159,3800,816,-3075,-1786,-400,257,2631,141,27,880
55172,4759836,4980864,4766632,4996008,528,3800,736,-3336,-1705,-1713,-223,380,123,46,879
56174,4760508,4981048,4766829,4996205,-55,3800,586,-3919,-1477,-2505,-468,431,123,46,879
57174,4761036,4981228,4767026,4996402,701,3800,598,-4047,-1226,-1333,-781,3933,115,51,880
58175,4761612,4981432,4767223,4996599,236,3800,425,-4114,-1042,-604,-1421,1090,115,51,880
59177,4762200,4981608,4767420,4996796,-10,3800,111,-3994,-905,-519,108,1723,97,56,880
60178,4762672,4981852,4767617,4996993,596,3800,-145,-3676,-598,-2143,-238,3934,97,56,880
61178,4763160,4982088,4767814,4997190,369,3800,-285,-3177,-345,-318,-1391,4008,88,61,882
62180,4763608,4982300,4768011,4997387,508,3800,-460,-3079,-188,49,1285,2668,88,61,882
63180,4763984,4982532,4768208,4997584,881,3800,-596,-3214,20,-452,1325,2853,94,62,883
64182,4764368,4982780,4768405,4997781,750,3800,-660,-3478,234,143,636,4105,94,62,883
65182,4764732,4983044,4768602,4997978,802,3800,-730,-3998,418,44,177,1336,72,52,881
66183,4765024,4983316,4768799,4998175,1211,3800,-796,-4247,558,34,571,4352,72,52,881
67184,4765292,4983528,4768996,4998372,1330,3800,-874,-4406,667,494,22,3021,60,53,881
68185,4765580,4983756,4769193,4998569,1166,3800,-873,-4237,767,784,495,5015,60,53,881
69186,4765812,4983996,4769390,4998766,1502,3800,-894,-4118,825,1544,532,3887,66,45,877
70187,4766016,4984212,4769587,4998963,1674,3800,-974,-3828,947,1301,-158,4434,66,45,877
71188,4766220,4984420,4769784,4999160,1672,3800,-994,-3502,1139,1254,-345,5340,36,36,878
72189,4766412,4984592,4769981,4999357,1750,3800,-954,-3154,1288,1877,103,5613,36,36,878
73190,4766568,4984760,4770178,4999554,1993,3800,-862,-2922,1363,2152,505,5075,28,29,876
74191,4766716,4984888,4770375,4999751,2065,3800,-748,-2777,1488,1484,-41,5671,28,29,876
75192,4766872,4985016,4770572,4999948,2034,3800,-605,-2521,1620,1952,-568,6181,32,20,874
76193,4767036,4985144,4770769,5000145,2000,3800,-493,-2377,1723,2067,-65,5078,32,20,874
77194,4767188,4985284,4770966,5000342,2095,3800,-468,-2242,1854,1568,-353,5050,43,16,874
78195,4767352,4985396,4771163,5000539,2035,3800,-393,-1844,1976,1587,331,6810,43,16,874
79196,4767472,4985516,4771360,5000736,2345,3800,-297,-1445,2008,1551,92,6319,41,22,872
80197,4767604,4985628,4771557,5000933,2299,3800,-266,-1229,1950,1170,307,5278,41,22,872
81198,4767752,4985716,4771754,5001130,2221,3800,-173,-1047,1911,562,258,7403,21,12,870
82199,4767864,4985848,4771951,5001327,2485,3800,-34,-926,1806,1614,-322,6411,21,12,870
83200,4768008,4985932,4772148,5001524,2309,3800,66,-1013,1719,1487,-66,5909,36,28,872
84201,4768164,4986044,4772345,5001721,2253,3800,163,-965,1642,1633,187,7008,36,28,872
85202,4768288,4986144,4772542,5001918,2485,3800,208,-948,1590,1016,-92,5742,37,15,871
86204,4768432,4986248,4772739,5002115,2384,3800,222,-763,1514,1199,-152,6829,37,15,871
87204,4768572,4986344,4772936,5002312,2435,3800,240,-303,1399,1660,67,7834,30,9,870
88205,4768684,4986420,4773133,5002509,2649,3800,147,-78,1309,889,989,5323,30,9,870
89206,4768788,4986528,4773330,5002706,2740,3800,37,-70,1223,1272,317,5668,38,12,871
90207,4768912,4986608,4773527,5002903,2648,3800,61,-180,1109,1427,-108,6505,38,12,871
91208,4769028,4986696,4773724,5003100,2734,3800,148,-558,1059,43,424,4664,36,13,867
92209,4769124,4986764,4773921,5003297,2905,3800,202,-926,1008,113,257,5427,36,13,867
93217,4769240,4986868,4774348,5003724,2917,3800,197,-828,844,763,401,7001,18,16,868
94211,4769408,4986944,4774545,5003921,2606,3800,62,-690,710,-133,775,5320,18,16,868
95212,4769536,4987016,4774742,5004118,2887,3800,-145,-635,564,414,508,5769,33,9,867
96213,4769684,4987116,4774939,5004315,2785,3800,-275,-580,400,135,-607,6937,33,9,867
97214,4769852,4987212,4775136,5004512,2674,3800,-357,-573,269,-206,103,6528,30,24,867
98215,4769964,4987296,4775333,5004709,3062,3800,-461,-864,142,185,398,5122,30,24,867
99216,4770088,4987400,4775530,5004906,3020,3800,-532,-1320,53,382,42,5453,25,16,866
100217,4770208,4987472,4775727,5005103,3080,3800,-577,-1833,67,176,-77,4753,25,16,866
101218,4770344,4987580,4775924,5005300,3008,3800,-635,-2200,67,528,-315,4638,33,13,865
102219,4770464,4987660,4776121,5005497,3142,3800,-707,-2314,36,100,-174,4707,33,13,865
103220,4770616,4987764,4776318,5005694,2963,3800,-782,-2155,-39,461,-498,4817,38,13,865
104221,4770760,4987908,4776515,5005891,3038,3800,-824,-1947,-62,220,-1287,4404,38,13,865
105222,4770952,4988000,4776712,5006088,2742,3800,-841,-1825,-4,-63,-941,4625,32,15,867
106223,4771148,4988116,4776909,5006285,2718,3800,-945,-1923,122,-1024,-1170,2758,32,15,867
107224,4771320,4988244,4777106,5006482,2880,3800,-1176,-2298,267,-2026,-516,1356,29,26,869
108225,4771472,4988384,4777303,5006679,3026,3800,-1344,-2534,290,-1035,-1091,2963,29,26,869
109226,4771676,4988512,4777500,5006876,2699,3800,-1406,-2596,179,-117,-1529,3157,32,19,869
110227,4771848,4988676,4777697,5007073,2911,3800,-1410,-2823,60,274,-1203,1938,32,19,869
111228,4772056,4988816,4777894,5007270,2682,3800,-1365,-3216,-12,916,-1673,1759,50,32,869
112229,4772280,4988968,4778091,5007467,2571,3800,-1156,-3217,-27,1291,-900,4698,50,32,869
113230,4772480,4989124,4778288,5007664,2721,3800,-952,-3235,54,224,-2164,3039,53,40,869
114231,4772684,4989320,4778485,5007861,2695,3800,-809,-3385,219,-444,-2042,2480,53,40,869
115232,4772856,4989524,4778682,5008058,2907,3800,-630,-3587,330,343,-908,3707,52,32,867
116233,4773064,4989728,4778879,5008255,2678,3800,-445,-3611,336,955,-369,3415,52,32,867
117234,4773276,4989936,4779076,5008452,2647,3800,-388,-3827,339,652,816,1399,30,33,869
118236,4773460,4990140,4779273,5008649,2829,3800,-340,-4023,460,-122,832,2500,30,33,869
119236,4773716,4990352,4779470,5008846,2354,3800,-221,-3991,466,2117,114,3690,41,46,870
120238,4773924,4990564,4779667,5009043,2650,3800,-122,-3961,468,1143,-1343,2383,41,46,870
121238,4774108,4990820,4779864,5009240,2807,3800,56,-3633,549,190,-746,5155,54,45,872
122239,4774316,4991024,4780061,5009437,2653,3800,214,-3269,502,1611,-233,4288,54,45,872
123240,4774520,4991236,4780258,5009634,2676,3800,138,-3087,431,528,725,1832,31,43,868
124241,4774740,4991448,4780455,5009831,2568,3800,32,-3011,536,-372,941,2501,31,43,868
125242,4774992,4991632,4780652,5010028,2345,3800,38,-2586,547,2244,1566,4510,48,47,869
126244,4775208,4991844,4780849,5010225,2562,3800,-62,-2510,655,-257,-242,191,48,47,869
127244,4775428,4992040,4781046,5010422,2528,3800,-114,-2400,891,-943,-52,3151,36,42,872
128245,4775636,4992260,4781243,5010619,2600,3800,-32,-1844,847,2270,-110,5280,36,42,872
129246,4775844,4992452,4781440,5010816,2596,3800,25,-1298,756,674,-798,3006,50,34,869
130247,4776076,4992656,4781637,5011013,2431,3800,2,-1065,779,518,-342,2507,50,34,869
131248,4776388,4992840,4781834,5011210,1882,3800,6,-855,730,2031,536,2939,41,47,871
132249,4776644,4993028,4782031,5011407,2207,3800,-64,-875,815,-357,-311,606,41,47,871
133250,4776864,4993184,4782228,5011604,2423,3800,-23,-802,954,-208,-392,3413,42,28,874
134252,4777132,4993368,4782425,5011801,2093,3800,192,-327,865,2227,-439,5772,42,28,874
135252,4777364,4993544,4782622,5011998,2303,3800,337,83,698,1482,-1112,2742,48,41,871
136253,4777660,4993728,4782819,5012195,1861,3800,363,109,674,252,-1446,1958,48,41,871
137254,4777920,4993928,4783016,5012392,2059,3800,446,219,795,451,-632,3916,65,25,872
138255,4778200,4994104,4783213,5012589,1898,3800,523,258,930,144,391,2864,65,25,872
139256,4778456,4994260,4783410,5012786,2024,3800,684,542,987,862,-716,5218,53,27,874
140257,4778680,4994420,4783607,5012983,2213,3800,823,734,961,1812,-859,3793,53,27,874
141258,4778976,4994600,4783804,5013180,1720,3800,857,626,914,1442,521,2194,61,37,874
142260,4779280,4994764,4784001,5013377,1624,3800,837,273,906,340,119,1878,61,37,874
143260,4779552,4994936,4784198,5013574,1792,3800,996,180,949,-176,12,5082,66,24,875
144261,4779852,4995096,4784395,5013771,1573,3800,1179,39,932,107,-1469,3407,66,24,875
145262,4780100,4995268,4784592,5013968,1876,3800,1212,-300,850,145,-173,2892,67,29,874
146263,4780420,4995432,4784789,5014165,1372,3800,1163,-594,708,891,263,3613,67,29,874
147264,4780736,4995596,4784986,5014362,1346,3800,992,-701,611,639,112,4038,53,31,874
148265,4781036,4995772,4785183,5014559,1402,3800,800,-750,610,-350,479,3944,53,31,874
149266,4781300,4995936,4785380,5014756,1598,3800,678,-802,607,405,-268,5105,48,40,877
150268,4781656,4996100,4785577,5014953,955,3800,672,-902,587,413,-488,5040,48,40,877
151268,4781948,4996332,4785774,5015150,1313,3800,676,-1273,533,424,-420,3891,55,54,877
152270,4782220,4996600,4785971,5015347,1406,3800,520,-1570,522,-164,-165,3537,55,54,877
153270,4782528,4996852,4786168,5015544,1133,3800,279,-1399,531,359,2128,5037,57,56,879
154272,4782804,4997132,4786365,5015741,1298,3800,-5,-1103,521,830,2250,3576,57,56,879
155272,4783084,4997452,4786562,5015938,1238,3800,-133,-1095,479,1213,-92,3483,67,54,879
156273,4783316,4997796,4786759,5016135,1524,3800,-15,-1247,442,1489,-865,4725,67,54,879
157274,4783584,4998180,4786956,5016332,1267,3800,76,-1610,439,1188,1025,2565,58,68,879
158275,4783836,4998564,4787153,5016529,1344,3800,10,-2000,496,1796,1730,2462,58,68,879
159276,4784036,4999040,4787350,5016726,1669,3800,-65,-2030,580,2596,945,4304,62,80,880
160277,4784296,4999572,4787547,5016923,1266,3800,-65,-1903,626,2383,900,3878,62,80,880
161278,4784536,5000020,4787744,5017120,1373,3800,-56,-1707,731,846,1169,4183,59,89,879
162279,4784724,5000568,4787941,5017317,1703,3800,-132,-1684,876,961,311,2619,59,89,879
163280,4785004,5001120,4788138,5017514,1092,3800,-310,-1758,929,2562,-295,2190,39,118,881
164281,4785248,5001692,4788335,5017711,1297,3800,-412,-1588,950,1994,1879,4518,39,118,881
165282,4785460,5002360,4788532,5017908,1491,3800,-481,-1403,1123,480,1548,3110,59,125,882
166283,4785736,5002988,4788729,5018105,1057,3800,-664,-1661,1217,2219,175,82,59,125,882
167272,4785972,5003728,4788926,5018302,1291,3484,-770,-1742,1180,2680,1259,3133,59,118,882
168273,4786180,5004452,4789123,5018499,1461,3354,-829,-1574,1229,1363,-583,3193,59,118,882
169273,4786420,5005224,4789320,5018696,1243,2805,-850,-1372,1259,2421,1756,2829,47,144,884
170275,4786664,5005992,4789517,5018893,1197,2582,-934,-1491,1268,2827,1736,1259,47,144,884
171275,4786876,5006880,4789714,5019090,1392,1530,-1071,-1903,1408,1886,246,-46,62,139,889
172276,4787104,5007736,4789911,5019287,1278,1443,-1130,-2208,1580,1815,306,1223,62,139,889
173277,4787376,5008524,4790108,5019484,971,1611,-1118,-2080,1637,1588,-790,2249,49,161,894
174278,4787620,5009384,4790305,5019681,1125,872,-1070,-1529,1570,1722,-32,3395,49,161,894
175280,4787868,5010140,4790502,5019878,1079,1278,-1138,-1154,1398,2533,1694,1059,56,155,896
176287,4788132,5011020,4790732,5020108,964,219,-1462,-1140,1296,2086,-2987,-1552,56,155,896
177281,4788396,5011776,4790929,5020305,936,750,-1648,-687,1186,2424,-225,3700,55,161,898
178282,4788632,5012480,4791126,5020502,1093,854,-1628,-74,1014,2436,1430,1894,55,161,898
179283,4788912,5013228,4791323,5020699,783,338,-1690,132,855,1863,2109,-281,49,141,899
180284,4789172,5013888,4791520,5020896,880,686,-1875,302,818,1732,-734,125,49,141,899
181285,4789396,5014512,4791717,5021093,1094,725,-2078,736,684,4154,-3566,815,64,139,901
182286,4789672,5015200,4791914,5021290,735,110,-2173,1446,368,4657,-538,1866,64,139,901
183288,4789952,5015932,4792111,5021487,674,-398,-2249,2050,146,2529,627,448,50,126,899
184289,4790184,5016504,4792308,5021684,959,438,-2459,2376,146,1298,-1225,-1012,50,126,899
185290,4790444,5017020,4792505,5021881,756,649,-2669,2766,256,993,-1396,332,52,109,902
186291,4790728,5017640,4792702,5022078,569,-186,-2780,3340,331,495,-519,645,52,109,902
187292,4790948,5018164,4792899,5022275,959,270,-2807,3992,556,-1652,-1960,1254,64,96,901
188293,4791192,5018660,4793096,5022472,788,315,-2724,4462,694,-164,2,757,64,96,901
189293,4791452,5019116,4793293,5022669,662,452,-2491,4679,782,-148,-417,1169,43,86,900
190295,4791712,5019480,4793490,5022866,634,954,-2155,4635,766,760,-250,1210,43,86,900
191296,4791928,5019908,4793687,5023063,901,453,-1763,4297,690,672,-609,895,42,87,901
192297,4792152,5020280,4793884,5023260,840,727,-1456,3881,654,57,-1362,1385,42,87,901
193298,4792332,5020620,4794081,5023457,1122,864,-1324,3452,674,11,-2431,316,43,69,900
194298,4792568,5020876,4794278,5023654,756,1364,-1396,3310,701,-330,-3217,1368,43,69,900
195300,4792708,5021120,4794475,5023851,1381,1420,-1428,3714,695,-1505,-1391,4614,50,43,899
196300,4792916,5021344,4794672,5024048,951,1533,-1493,4106,777,-2867,-2730,3254,50,43,899
197301,4793128,5021548,4794869,5024245,921,1656,-1592,4513,927,-2697,-4230,4001,29,32,895
198303,4793364,5021764,4795066,5024442,753,1572,-1631,4834,1021,-1704,-2304,5174,29,32,895
199304,4793556,5021916,4795263,5024639,1031,1993,-1457,4511,1090,-1736,-4968,4096,26,42,895
200304,4793712,5022072,4795460,5024836,1275,1986,-988,3754,918,-428,-4922,7410,26,42,895
201305,4793904,5022192,4795657,5025033,1052,2246,-433,3057,505,-15,-4957,9472,38,22,892
202306,4794056,5022328,4795854,5025230,1322,2173,42,2051,-38,129,-3386,8322,38,22,892
203307,4794240,5022504,4796051,5025427,1128,1933,330,966,-556,1378,-4729,7890,22,28,890
204308,4794400,5022740,4796248,5025624,1295,1541,486,837,-928,2423,-1813,10788,22,28,890
205309,4794520,5022920,4796445,5025821,1578,1899,417,918,-1060,2167,-1131,7501,21,44,891
206310,4794696,5023088,4796642,5026018,1239,1987,483,838,-984,1318,-3763,8746,21,44,891
207311,4794828,5023240,4796839,5026215,1542,2108,827,451,-719,994,-6011,10523,27,32,891
208312,4794992,5023408,4797036,5026412,1357,2021,1148,26,-456,2734,-6466,8966,27,32,891
209313,4795112,5023568,4797233,5026609,1667,2088,1143,208,-200,3795,-6643,10182,16,38,890
210314,4795244,5023732,4797430,5026806,1620,2078,914,1317,42,4239,-3593,11400,16,38,890
211315,4795372,5023856,4797627,5027003,1676,2360,766,2405,297,3322,-3314,9518,18,35,888
212316,4795484,5023988,4797824,5027200,1814,2340,920,2537,637,2527,-5564,8761,18,35,888
213317,4795632,5024124,4798021,5027397,1610,2342,1446,1741,1000,2779,-6674,9578,21,21,886
214318,4795784,5024260,4798218,5027594,1606,2370,2106,569,1316,3022,-4490,8874,21,21,886
215319,4795912,5024412,4798415,5027791,1786,2290,2582,-695,1712,1495,-2521,7133,31,34,886
216321,4796040,5024580,4798612,5027988,1818,2203,2772,-1432,2146,1270,-4498,8917,31,34,886
217321,4796180,5024732,4798809,5028185,1768,2324,2747,-1653,2316,3031,-2322,8695,13,24,886
218323,4796296,5024884,4799006,5028382,1954,2345,2557,-1746,2292,2789,-951,7119,13,24,886
219323,4796452,5025096,4799203,5028579,1722,1963,2333,-1747,2220,2844,-872,6996,20,32,886
220325,4796604,5025344,4799400,5028776,1768,1717,2049,-1460,1981,3745,2105,6433,20,32,886
221325,4796768,5025584,4799597,5028973,1708,1749,1599,-1038,1889,1888,408,4116,42,46,888
222326,4796920,5025824,4799794,5029170,1803,1730,1303,-538,2005,381,-1082,6067,42,46,888
223327,4797108,5026064,4799991,5029367,1582,1712,1359,81,2133,-6,365,7222,46,48,889
224328,4797280,5026264,4800188,5029564,1694,1962,1411,175,2228,-136,445,2714,46,48,889
225329,4797488,5026496,4800385,5029761,1466,1746,1336,-73,2351,432,1006,2542,46,34,891
226330,4797688,5026736,4800582,5029958,1514,1678,1365,-156,2587,31,-1098,4792,46,34,891
227331,4797872,5026932,4800779,5030155,1621,1954,1407,-411,2676,1422,56,2235,27,31,891
228332,4798044,5027140,4800976,5030352,1707,1875,1350,-671,2723,1021,587,1776,27,31,891
229333,4798244,5027320,4801173,5030549,1532,2058,1314,-1014,2846,-36,-247,2043,38,33,890
230335,4798424,5027504,4801370,5030746,1664,2039,1358,-1268,2878,-351,314,2426,38,33,890
231335,4798616,5027680,4801567,5030943,1592,2099,1474,-1516,2927,-261,3,2337,47,32,890
232337,4798860,5027876,4801764,5031140,1247,1975,1635,-1658,3027,-30,-55,3084,47,32,890
233337,4799064,5028052,4801961,5031337,1495,2110,1797,-1671,3123,-512,-722,3006,44,26,888
234339,4799248,5028236,4802158,5031534,1626,2067,1926,-1676,3142,-442,645,2841,44,26,888
235339,4799400,5028420,4802355,5031731,1846,2073,1951,-1653,3132,-910,-374,2146,30,34,889
236340,4799588,5028616,4802552,5031928,1626,1999,1898,-1796,3041,-567,38,1299,30,34,889
237341,4799744,5028820,4802749,5032125,1844,1947,1813,-1930,2859,-396,117,1679,36,31,888
238343,4799892,5028988,4802946,5032322,1917,2185,1772,-1966,2708,-1000,-211,2804,36,31,888
239343,4800044,5029160,4803143,5032519,1911,2172,1759,-1820,2599,-936,375,3374,40,46,888
240345,4800156,5029360,4803340,5032716,2200,1996,1675,-1592,2498,-556,570,2869,40,46,888
241345,4800320,5029600,4803537,5032913,1890,1727,1481,-1424,2374,-50,770,2520,43,37,886
242347,4800548,5029864,4803734,5033110,1477,1549,1187,-1337,2186,489,453,2016,43,37,886
243347,4800692,5030080,4803931,5033307,2026,1841,952,-1244,2025,570,1004,2997,32,48,889
244348,4800868,5030312,4804128,5033504,1835,1726,858,-1122,1903,724,234,3512,32,48,889
245349,4801052,5030576,4804325,5033701,1792,1498,878,-1001,1753,1021,1086,3892,38,43,888
246350,4801196,5030868,4804522,5033898,2066,1281,899,-887,1695,545,804,3912,38,43,888
247351,4801348,5031148,4804719,5034095,2036,1321,843,-793,1687,835,-684,2516,31,60,891
248352,4801512,5031484,4804916,5034292,1976,909,761,-694,1671,1381,1136,2844,31,60,891
249354,4801636,5031792,4805113,5034489,2259,1037,658,-509,1735,716,22,2484,40,59,890
250355,4801784,5031988,4805310,5034686,2131,1737,519,-458,1755,1511,216,2191,40,59,890
251356,4801936,5032188,4805507,5034883,2127,1712,402,-399,1654,2359,589,2993,43,49,891
252357,4802076,5032360,4805704,5035080,2228,1898,316,-188,1538,2056,408,3556,43,49,891
253358,4802212,5032592,4805901,5035277,2280,1508,339,187,1485,2150,3439,5030,33,43,887
254359,4802328,5032800,4806098,5035474,2441,1654,295,520,1486,1771,436,3307,33,43,887
255360,4802464,5033044,4806295,5035671,2344,1409,239,712,1364,1847,1737,3210,32,42,886
256361,4802596,5033352,4806492,5035868,2398,960,282,1088,1201,1369,2983,5179,32,42,886
257362,4802732,5033588,4806689,5036065,2400,1394,377,1578,1095,479,1522,5435,24,47,886
258363,4802896,5033796,4806886,5036262,2241,1564,380,2013,1077,219,1294,4804,24,47,886
259373,4803056,5034128,4807116,5036492,2298,745,91,1742,1091,-8,389,103,26,58,888
260365,4803188,5034416,4807313,5036689,2501,980,-190,1306,1080,62,252,2138,26,58,888
261366,4803344,5034672,4807510,5036886,2370,1155,-135,1428,967,1230,370,6638,34,63,890
262367,4803496,5034972,4807707,5037083,2416,835,-127,1584,738,1517,895,2952,34,63,890
263368,4803640,5035248,4807904,5037280,2490,951,-361,1544,514,619,1567,2078,46,52,889
264369,4803824,5035508,4808101,5037477,2247,1024,-587,1669,212,731,1030,4585,46,52,889
265370,4803964,5035700,4808298,5037674,2547,1451,-814,2021,-218,754,905,4203,31,57,889
266371,4804136,5035912,4808495,5037871,2359,1320,-1080,2343,-610,-383,1457,3908,31,57,889
267372,4804328,5036156,4808692,5038068,2237,1100,-1276,2642,-925,-377,1659,5196,35,51,887
268373,4804488,5036384,4808889,5038265,2455,1186,-1400,2810,-1182,-25,1396,4197,35,51,887
269373,4804664,5036640,4809086,5038462,2365,986,-1450,2764,-1389,459,1325,4445,42,37,889
270375,4804852,5036932,4809283,5038659,2295,719,-1469,2696,-1516,830,1153,4572,42,37,889
271376,4805028,5037180,4809480,5038856,2379,972,-1468,2609,-1521,635,1560,3859,28,48,889
272376,4805216,5037428,4809677,5039053,2309,951,-1436,2506,-1458,623,1612,3801,28,48,889
273378,4805392,5037732,4809874,5039250,2394,554,-1411,2436,-1479,1394,1482,3555,45,48,890
274379,4805576,5037992,4810071,5039447,2351,801,-1456,2501,-1560,1720,747,3443,45,48,890
275380,4805748,5038240,4810268,5039644,2438,854,-1621,2619,-1551,509,-1457,2576,41,42,890
276381,4805944,5038444,4810465,5039841,2289,1126,-1669,2903,-1546,665,-1246,4843,41,42,890
277382,4806136,5038620,4810662,5040038,2317,1311,-1561,3230,-1522,-166,-1792,5235,32,36,890
278383,4806296,5038808,4810859,5040235,2534,1240,-1290,3223,-1415,-1505,-2220,5574,32,36,890
279384,4806480,5039008,4811056,5040432,2390,1164,-873,2944,-1190,-2540,-3165,6645,30,30,888
280385,4806676,5039200,4811253,5040629,2317,1216,-450,2152,-946,-2820,-3499,4758,30,30,888
281386,4806868,5039368,4811450,5040826,2345,1379,-96,1095,-884,-2380,-2715,4753,43,28,887
282387,4807040,5039512,4811647,5041023,2482,1554,95,168,-1060,-3321,-3036,5301,43,28,887
283388,4807256,5039636,4811844,5041220,2200,1711,101,-126,-1385,-4276,-1375,7689,41,19,889
284389,4807412,5039760,4812041,5041417,2594,1743,-6,-281,-1628,-5387,-1105,6730,41,19,889
285390,4807596,5039856,4812238,5041614,2425,1962,-51,-447,-1882,-3577,-2897,7579,28,20,885
286391,4807760,5039972,4812435,5041811,2565,1874,38,-735,-2182,-1993,-2524,8574,28,20,885
287392,4807916,5040076,4812632,5042008,2634,1990,115,-1278,-2329,-2840,-2494,6640,32,21,884
288393,4808064,5040192,4812829,5042205,2706,1951,210,-1830,-2322,-3001,-2479,7586,32,21,884
289393,4808240,5040332,4813026,5042402,2542,1826,301,-2201,-2264,-2403,-2146,7357,23,30,883
290395,4808396,5040476,4813223,5042599,2686,1824,260,-2415,-2276,-1568,-1383,6047,23,30,883
291395,4808564,5040584,4813420,5042796,2624,2090,174,-2351,-2333,-738,-1549,7515,31,23,881
292396,4808716,5040720,4813617,5042993,2745,1941,114,-2091,-2391,-248,-2030,6838,31,23,881
293397,4808916,5040820,4813814,5043190,2445,2210,123,-1985,-2403,106,-1583,5896,37,24,883
294399,4809108,5040924,4814011,5043387,2498,2226,206,-1978,-2313,458,-1713,5707,37,24,883
295399,4809288,5041040,4814208,5043584,2582,2186,276,-1990,-2157,931,-1649,5310,34,21,882
296401,4809468,5041144,4814405,5043781,2590,2303,305,-2002,-1996,1149,-1111,4854,34,21,882
297401,4809632,5041264,4814602,5043978,2706,2237,298,-2038,-1845,913,-1141,4188,30,32,881
298403,4809824,5041384,4814799,5044175,2534,2272,297,-2077,-1718,879,-1202,3739,30,32,881
299403,4810016,5041496,4814996,5044372,2536,2359,292,-2019,-1640,1460,-984,4108,29,22,881
300404,4810216,5041620,4815193,5044569,2486,2317,260,-1855,-1577,1053,-735,3507,29,22,881
301405,4810400,5041768,4815390,5044766,2592,2190,178,-1589,-1527,783,319,3599,33,20,880
302407,4810632,5041908,4815587,5044963,2278,2265,40,-1256,-1505,512,278,3170,33,20,880
303408,4810848,5042076,4815784,5045160,2371,2104,-144,-957,-1555,945,215,2810,32,28,882
304409,4811064,5042228,4815981,5045357,2363,2224,-299,-552,-1641,1253,-843,3609,32,28,882
305409,4811304,5042364,4816178,5045554,2195,2351,-330,-264,-1724,1637,-322,3992,56,20,884
306411,4811552,5042484,4816375,5045751,2124,2486,-316,-374,-1735,649,328,1799,56,20,884
307412,4811820,5042600,4816572,5045948,1969,2547,-326,-715,-1673,556,567,1654,59,28,883
308412,4812072,5042716,4816769,5046145,2046,2583,-366,-846,-1600,1686,17,2629,59,28,883
309413,4812332,5042836,4816966,5046342,1969,2592,-437,-742,-1512,1469,-316,1999,42,29,882
310415,4812584,5042980,4817163,5046539,1996,2467,-516,-603,-1413,1158,259,1989,42,29,882
311415,4812884,5043140,4817360,5046736,1651,2384,-545,-376,-1390,1558,2,2041,47,35,882
312416,4813148,5043264,4817557,5046933,1847,2641,-527,-75,-1394,1176,-583,2754,47,35,882
313417,4813408,5043408,4817754,5047130,1845,2540,-472,180,-1353,791,-589,2402,53,37,883
314419,4813696,5043548,4817951,5047327,1631,2591,-450,153,-1293,733,-545,1199,53,37,883
315420,4814004,5043668,4818148,5047524,1459,2751,-380,45,-1261,1140,-414,2005,67,30,884
316421,4814300,5043792,4818345,5047721,1491,2758,-262,-85,-1251,1025,-163,2196,67,30,884
317421,4814580,5043916,4818542,5047918,1555,2791,-223,-323,-1214,411,411,1252,65,30,885
318423,4814860,5044020,4818739,5048115,1519,2958,-215,-444,-1155,154,344,1866,65,30,885
319424,4815148,5044164,4818936,5048312,1430,2732,-296,-407,-1078,-384,-937,2362,56,20,885
320425,4815444,5044276,4819133,5048509,1338,2970,-376,-278,-1121,191,-811,2985,56,20,885
321426,4815760,5044412,4819330,5048706,1160,2848,-414,-260,-1247,-417,174,3825,55,28,883
322427,4816048,5044548,4819527,5048903,1296,2875,-475,-475,-1390,-892,-62,2860,55,28,883
323428,4816328,5044680,4819724,5049100,1311,2930,-471,-841,-1452,-1099,-338,3329,51,20,882
324429,4816644,5044816,4819921,5049297,1034,2933,-401,-1334,-1467,-340,-473,3210,51,20,882
325429,4816904,5044976,4820118,5049494,1357,2800,-297,-1971,-1468,-340,-67,2397,47,28,885
326431,4817184,5045100,4820315,5049691,1196,3057,-264,-2519,-1456,-321,-312,2080,47,28,885
327432,4817468,5045228,4820512,5049888,1133,3063,-301,-2700,-1414,-763,92,3396,45,33,885
328433,4817756,5045364,4820709,5050085,1069,3041,-367,-2679,-1345,-1365,-450,2733,45,33,885
329433,4818004,5045504,4820906,5050282,1297,3042,-459,-2632,-1382,-738,-204,2966,61,22,883
330435,4818284,5045676,4821103,5050479,1061,2854,-468,-2543,-1473,-500,-583,3197,61,22,883
331436,4818512,5045848,4821300,5050676,1373,2866,-384,-2723,-1531,-169,-127,2525,43,32,885
332437,4818772,5046004,4821497,5050873,1146,2985,-259,-3079,-1509,-264,223,2624,43,32,885
333437,4818984,5046160,4821694,5051070,1439,3004,-60,-3568,-1425,-443,-80,2138,55,35,885
334438,4819256,5046332,4821891,5051267,1032,2916,38,-4025,-1349,57,40,2375,55,35,885
335440,4819524,5046508,4822088,5051464,1026,2901,150,-4226,-1253,-213,259,2563,44,41,883
336440,4819740,5046708,4822285,5051661,1344,2751,117,-4436,-1183,214,1075,1930,44,41,883
337441,4820008,5046884,4822482,5051858,988,2911,88,-4454,-1103,-27,905,2414,44,42,885
338442,4820240,5047068,4822679,5052055,1198,2867,53,-4443,-997,-294,-33,2894,44,42,885
339443,4820500,5047260,4822876,5052252,996,2820,95,-4344,-982,586,1086,3106,44,30,884
340444,4820756,5047444,4823073,5052449,996,2877,111,-4488,-992,728,1342,2294,44,30,884
341445,4820988,5047648,4823270,5052646,1130,2750,128,-4628,-961,745,1070,2955,53,50,885
342453,4821232,5047864,4823500,5052876,1050,2682,159,-4763,-914,795,1121,3516,53,50,885
343448,4821504,5048048,4823697,5053073,842,2889,141,-4887,-862,595,1306,2472,60,48,887
344448,4821728,5048272,4823894,5053270,1131,2628,101,-4846,-764,631,1287,4198,60,48,887
345449,4821956,5048516,4824091,5053467,1093,2483,31,-4498,-782,2271,945,4391,38,47,886
346450,4822176,5048736,4824288,5053664,1133,2624,-144,-4144,-748,1264,1532,3308,38,47,886
347452,4822388,5048968,4824485,5053861,1177,2535,-273,-3748,-573,966,1495,4516,37,47,888
348453,4822612,5049156,4824682,5054058,1090,2815,-322,-3388,-455,2606,750,4887,37,47,888
349453,4822832,5049372,4824879,5054255,1106,2632,-311,-3205,-367,2753,1325,3992,29,35,888
350455,4823052,5049592,4825076,5054452,1096,2598,-337,-3325,-207,2493,914,3150,29,35,888
351456,4823208,5049828,4825273,5054649,1514,2482,-296,-3336,-24,2986,961,5172,30,51,887
352457,4823388,5050052,4825470,5054846,1372,2546,-226,-3311,153,3051,636,4430,30,51,887
353458,4823532,5050256,4825667,5055043,1621,2669,-206,-3283,329,3016,95,4502,32,36,888
354459,4823696,5050432,4825864,5055240,1511,2853,-191,-2925,479,3299,22,6502,32,36,888
355460,4823852,5050612,4826061,5055437,1579,2837,-254,-2508,560,3616,-299,5079,22,34,885
356460,4824024,5050780,4826258,5055634,1490,2926,-376,-2158,635,3160,-100,5551,22,34,885
357461,4824180,5050988,4826455,5055831,1609,2672,-493,-1862,769,2641,-959,5675,38,45,882
358463,4824352,5051208,4826652,5056028,1520,2588,-551,-1677,888,2460,-902,5731,38,45,882
359464,4824504,5051388,4826849,5056225,1666,2846,-582,-1734,1032,1504,-1566,5074,27,37,884
360465,4824652,5051576,4827046,5056422,1713,2801,-597,-1915,1162,1686,-1639,5377,27,37,884
361465,4824804,5051752,4827243,5056619,1708,2886,-583,-2078,1233,1755,-2396,5754,38,32,886
362466,4824960,5051940,4827440,5056816,1701,2816,-580,-2270,1221,1864,-2149,5454,38,32,886
363468,4825136,5052132,4827637,5057013,1586,2794,-630,-2352,1147,2064,-2197,5715,42,30,883
364469,4825276,5052328,4827834,5057210,1837,2771,-721,-2214,1097,1335,-1930,6125,42,30,883
365469,4825448,5052484,4828031,5057407,1648,3040,-819,-2055,1086,1017,-1733,5929,44,40,883
366471,4825600,5052640,4828228,5057604,1793,3059,-872,-1918,1050,1524,-1782,6151,44,40,883
367472,4825748,5052812,4828425,5057801,1840,2971,-858,-1843,1030,864,-897,6408,21,41,881
368472,4825908,5052968,4828622,5057998,1782,3089,-818,-1977,1071,445,-1562,5127,21,41,881
369473,4826060,5053132,4828819,5058195,1852,3054,-692,-2119,1070,1140,-932,6144,39,37,880
370474,4826224,5053292,4829016,5058392,1792,3097,-516,-2217,1057,1041,-1375,5716,39,37,880
371476,4826392,5053452,4829213,5058589,1781,3114,-354,-2244,1036,1047,-1311,5334,27,42,881
372476,4826572,5053632,4829410,5058786,1714,2997,-210,-2270,1060,405,-625,4966,27,42,881
373477,4826728,5053792,4829607,5058983,1883,3140,-49,-2141,1044,1018,-949,5470,25,37,880
374479,4826888,5053984,4829804,5059180,1874,2943,122,-2127,1094,198,-946,4227,25,37,880
375480,4827080,5054152,4830001,5059377,1677,3107,253,-2132,1086,1331,-979,4230,42,26,882
376481,4827264,5054328,4830198,5059574,1733,3067,381,-2107,1021,1333,-798,4170,42,26,882
377481,4827452,5054480,4830395,5059771,1713,3238,454,-2104,949,1221,-1300,3510,45,27,879
378482,4827656,5054648,4830592,5059968,1610,3151,516,-2068,949,775,-1024,3958,45,27,879
379483,4827840,5054832,4830789,5060165,1741,3058,569,-1907,949,1463,-1411,4648,29,28,880
380485,4828016,5055012,4830986,5060362,1801,3092,611,-1757,968,980,-1005,4131,29,28,880
381485,4828220,5055176,4831183,5060559,1624,3207,672,-1769,963,1146,194,4461,42,34,881
382487,4828396,5055368,4831380,5060756,1809,3035,710,-1900,995,543,-657,3951,42,34,881
383488,4828584,5055540,4831577,5060953,1738,3172,748,-1913,965,1181,-141,4653,43,35,880
384489,4828800,5055696,4831774,5061150,1555,3291,711,-1877,937,531,-751,4433,43,35,880
385490,4829012,5055884,4831971,5061347,1574,3096,615,-1690,923,384,-173,4969,44,38,881
386491,4829208,5056056,4832168,5061544,1675,3209,515,-1546,945,417,-582,4817,44,38,881
387492,4829404,5056240,4832365,5061741,1676,3141,455,-1536,934,842,15,4550,48,27,880
388493,4829596,5056396,4832562,5061938,1704,3335,450,-1833,977,119,222,3745,48,27,880
389493,4829788,5056568,4832759,5062135,1707,3247,462,-2159,1066,-162,112,3700,31,27,879
390495,4830012,5056728,4832956,5062332,1495,3339,496,-2228,1062,826,-313,4620,31,27,879
391495,4830216,5056904,4833153,5062529,1618,3249,450,-2118,983,985,-42,3694,49,37,878
392497,4830396,5057060,4833350,5062726,1776,3393,340,-1839,1010,130,-61,4096,49,37,878
393497,4830592,5057216,4833547,5062923,1677,3412,269,-1515,1051,496,-388,4227,32,24,879
394499,4830760,5057380,4833744,5063120,1865,3378,239,-1227,1070,709,95,4380,32,24,879
395499,4830952,5057560,4833941,5063317,1718,3286,162,-1173,1071,833,98,2562,35,43,877
396501,4831116,5057772,4834138,5063514,1909,3081,108,-1091,1148,480,295,4134,35,43,877
397501,4831336,5057964,4834335,5063711,1548,3209,117,-1002,1242,258,300,3905,29,43,878
398503,4831480,5058148,4834532,5063908,2048,3266,117,-1059,1306,166,157,3598,29,43,878
399504,4831640,5058344,4834729,5064105,1964,3193,102,-1026,1321,511,-154,4118,30,29,878
400504,4831816,5058492,4834926,5064302,1874,3516,65,-916,1275,701,493,4417,30,29,878
401505,4831992,5058656,4835123,5064499,1883,3431,-50,-857,1186,769,283,2782,32,26,877
402506,4832112,5058824,4835320,5064696,2268,3420,-161,-849,1162,195,301,3382,32,26,877
403507,4832268,5059024,4835517,5064893,2062,3220,-246,-830,1212,57,-298,3558,21,35,876
404509,4832412,5059184,4835714,5065090,2161,3487,-316,-776,1237,-100,266,3298,21,35,876
405509,4832556,5059348,4835911,5065287,2185,3477,-388,-611,1272,-615,868,3981,45,39,875
406511,4832736,5059504,4836108,5065484,1968,3546,-448,-420,1292,-16,243,3679,45,39,875
407511,4832904,5059664,4836305,5065681,2056,3539,-572,-425,1298,420,402,3089,47,23,874
408513,4833052,5059804,4836502,5065878,2204,3691,-700,-378,1330,434,-474,3387,47,23,874
409513,4833224,5059972,4836699,5066075,2065,3529,-729,-421,1314,794,-739,3535,25,38,873
410515,4833372,5060140,4836896,5066272,2237,3543,-633,-531,1356,-305,-383,4416,25,38,873
411515,4833516,5060308,4837093,5066469,2286,3557,-556,-813,1417,-259,-703,2764,43,29,872
412517,4833688,5060492,4837290,5066666,2122,3464,-499,-1009,1457,-332,420,4160,43,29,872
413517,4833832,5060656,4837487,5066863,2322,3604,-475,-1101,1439,65,-637,3377,30,29,874
414519,4833972,5060820,4837684,5067060,2373,3621,-537,-1201,1404,50,-689,2848,30,29,874
415520,4834116,5060976,4837881,5067257,2372,3690,-617,-1190,1465,-558,-723,3359,21,22,875
416521,4834256,5061124,4838078,5067454,2422,3762,-675,-1059,1558,-680,-655,3657,21,22,875
417522,4834372,5061296,4838275,5067651,2609,3624,-662,-928,1750,-2218,-1258,3869,27,30,870
418523,4834500,5061492,4838472,5067848,2565,3476,-544,-682,2175,-4347,-2314,5417,27,30,870
419524,4834640,5061660,4838669,5068045,2516,3665,-589,-842,2077,2670,331,1170,20,45,871
420525,4834760,5061904,4838866,5068242,2675,3171,-717,-1216,1292,7402,126,1829,20,45,871
421526,4834884,5062156,4839063,5068439,2683,3098,-504,-1110,1093,-806,-1985,7773,29,54,870
422527,4835036,5062396,4839260,5068636,2529,3155,-225,-1052,1265,-383,-70,3469,29,54,870
423527,4835164,5062608,4839457,5068833,2710,3324,-186,-1434,1312,1433,-68,818,39,56,873
424528,4835308,5062896,4839654,5069030,2633,2811,-209,-1631,1274,1358,-1296,3812,39,56,873
425536,4835444,5063200,4839884,5069260,2726,2680,-146,-1293,1293,813,-2322,5318,25,64,876
426530,4835576,5063516,4840081,5069457,2780,2553,-38,-1013,1365,717,-1855,3777,25,64,876
427531,4835692,5063800,4840278,5069654,2917,2716,90,-929,1468,260,-813,4003,42,63,878
428532,4835812,5064092,4840475,5069851,2927,2625,169,-1055,1514,1306,-1074,2971,42,63,878
429533,4835936,5064484,4840672,5070048,2935,1916,208,-1188,1467,2541,-1220,3274,30,57,877
430535,4836056,5064828,4840869,5070245,2995,2152,267,-1220,1427,1967,-1131,3607,30,57,877
431536,4836212,5065152,4841066,5070442,2789,2222,365,-1156,1487,758,-417,3763,23,68,877
432536,4836364,5065444,4841263,5070639,2834,2381,442,-1108,1546,1109,-311,3358,23,68,877
433537,4836540,5065752,4841460,5070836,2694,2234,484,-1133,1550,1659,-1492,3166,42,71,878
434538,4836720,5066120,4841657,5071033,2677,1785,544,-966,1562,1396,-1928,4594,42,71,878
435539,4836860,5066488,4841854,5071230,2953,1710,554,-854,1620,319,-2026,2848,26,62,880
436540,4836984,5066788,4842051,5071427,3086,2091,537,-793,1693,-855,-5,3500,26,62,880
437541,4837144,5067100,4842248,5071624,2878,1967,485,-751,1740,-573,884,3028,32,58,883
438543,4837304,5067428,4842445,5071821,2896,1810,319,-833,1653,1727,-345,1495,32,58,883
439543,4837480,5067756,4842642,5072018,2806,1753,287,-709,1528,1717,-921,4118,27,65,879
440544,4837668,5068076,4842839,5072215,2736,1750,383,-436,1486,-91,948,3940,27,65,879
441545,4837928,5068412,4843036,5072412,2259,1589,346,-622,1576,-959,971,372,40,60,882
442546,4838128,5068764,4843233,5072609,2634,1422,242,-796,1736,-508,417,2460,40,60,882
443547,4838316,5069092,4843430,5072806,2714,1516,210,-592,1872,-160,-511,3579,57,54,883
444548,4838544,5069408,4843627,5073003,2451,1539,213,-523,1932,-530,211,2109,57,54,883
445549,4838740,5069712,4843824,5073200,2653,1567,204,-564,1944,348,-78,2312,29,54,884
446551,4838972,5070096,4844021,5073397,2413,986,238,-348,1842,2312,-196,3678,29,54,884
447552,4839236,5070444,4844218,5073594,2185,1146,326,3,1710,2374,-560,3757,62,71,887
448553,4839460,5070752,4844415,5073791,2424,1347,408,220,1699,817,-602,2976,62,71,887
449554,4839688,5071044,4844612,5073988,2386,1406,413,296,1822,4,-142,2384,51,58,890
450554,4839948,5071356,4844809,5074185,2160,1231,421,566,1894,1384,8,3902,51,58,890
451556,4840204,5071748,4845006,5074382,2160,646,489,929,1833,2292,-551,3871,52,69,888
452556,4840440,5072076,4845203,5074579,2269,988,501,1114,1865,222,-205,1980,52,69,888
453558,4840724,5072388,4845400,5074776,1931,1039,470,1255,2009,939,597,2416,55,75,890
454559,4840984,5072728,4845597,5074973,2054,801,325,1603,2146,1794,-635,2648,55,75,890
455560,4841232,5073100,4845794,5075170,2107,525,221,2180,2240,696,-293,3801,62,62,890
456560,4841460,5073396,4845991,5075367,2220,957,317,2828,2225,1301,-114,5010,62,62,890
457561,4841752,5073728,4846188,5075564,1779,672,406,3148,2150,621,261,1679,49,70,893
458563,4842040,5074000,4846385,5075761,1765,1015,299,3120,2166,-103,774,391,49,70,893
459563,4842308,5074356,4846582,5075958,1860,421,144,3271,2172,108,1388,1848,61,55,891
460564,4842608,5074668,4846779,5076155,1615,645,84,3596,2148,-500,1494,2663,61,55,891
461565,4842816,5074952,4846976,5076352,2186,783,149,3997,1977,312,1592,2536,47,53,894
462567,4843092,5075276,4847173,5076549,1727,477,171,4319,1775,421,1403,2426,47,53,894
463568,4843404,5075476,4847370,5076746,1452,1251,134,4660,1696,128,-1219,2403,61,53,895
464569,4843684,5075768,4847567,5076943,1617,634,124,4814,1604,728,-5345,2372,61,53,895
465570,4843936,5076048,4847764,5077140,1768,673,336,4703,1442,-1065,-350,3239,48,59,895
466570,4844188,5076272,4847961,5077337,1745,1012,558,3780,1222,-1102,1386,-153,48,59,895
467571,4844440,5076496,4848158,5077534,1721,1000,778,2761,1010,53,645,3172,56,42,895
468572,4844748,5076684,4848355,5077731,1324,1229,1071,1936,902,-754,-580,3721,56,42,895
469573,4845036,5076908,4848552,5077928,1409,993,1303,1192,871,-2351,-415,4001,57,41,893
470575,4845288,5077120,4848749,5078125,1610,1061,1331,695,813,-1868,-942,3888,57,41,893
471575,4845540,5077340,4848946,5078322,1587,1001,1231,870,692,-1347,373,6004,56,49,895
472576,4845800,5077548,4849143,5078519,1510,1071,864,1508,497,-305,1525,5635,56,49,895
473577,4846080,5077760,4849340,5078716,1349,1040,420,2231,300,-216,-279,5301,58,35,894
474578,4846372,5077924,4849537,5078913,1232,1354,21,2634,215,-1116,-761,6024,58,35,894
475579,4846628,5078132,4849734,5079110,1432,1075,-118,2282,114,-380,-572,4461,56,45,895
476580,4846892,5078324,4849931,5079307,1354,1177,27,1112,9,-497,-2017,4820,56,45,895
477581,4847168,5078592,4850128,5079504,1244,671,254,-134,-106,501,-3289,6122,46,50,893
478583,4847432,5078808,4850325,5079701,1291,988,262,-581,-271,937,-1381,5429,46,50,893
479584,4847708,5079016,4850522,5079898,1181,1033,-121,-448,-365,-484,2047,5544,61,48,895
480584,4847928,5079212,4850719,5080095,1522,1110,-399,-367,-443,-505,1582,5011,61,48,895
481585,4848152,5079360,4850916,5080292,1485,1431,-474,-937,-570,380,-1032,6127,44,30,896
482587,4848412,5079532,4851113,5080489,1233,1292,-385,-1804,-741,631,-1117,5927,44,30,896
483587,4848664,5079788,4851310,5080686,1259,741,-376,-2817,-936,327,-555,5715,58,34,894
484588,4848892,5080040,4851507,5080883,1397,742,-502,-3476,-1149,206,-589,5920,58,34,894
485589,4849136,5080284,4851704,5081080,1276,771,-733,-3607,-1363,273,52,6480,55,51,895
486591,4849360,5080504,4851901,5081277,1390,912,-1053,-3456,-1548,621,637,5593,55,51,895
487592,4849572,5080704,4852098,5081474,1459,1036,-1321,-3346,-1695,1596,7,5068,38,34,895
488593,4849828,5080884,4852295,5081671,1159,1168,-1416,-3518,-1806,1750,-172,4401,38,34,895
489593,4850056,5081088,4852492,5081868,1320,1015,-1399,-3854,-1881,1600,157,3953,37,47,895
490594,4850228,5081348,4852689,5082065,1682,638,-1378,-4175,-1871,898,-1087,3509,37,47,895
491595,4850404,5081540,4852886,5082262,1666,1065,-1360,-4241,-1848,1189,-779,3733,42,28,896
492596,4850544,5081716,4853083,5082459,1917,1174,-1401,-4228,-1884,2063,929,3160,42,28,896
493597,4850712,5081888,4853280,5082656,1755,1211,-1523,-4373,-2036,3482,1054,1399,39,22,895
494599,4850860,5082040,4853477,5082853,1903,1356,-1589,-4360,-2125,3283,1009,3799,39,22,895
495599,4851040,5082176,4853674,5083050,1710,1483,-1575,-4198,-2127,3691,2128,4272,21,33,892
496600,4851232,5082308,4853871,5083247,1638,1536,-1565,-3995,-2045,3223,2567,3991,21,33,892
497601,4851416,5082468,4854068,5083444,1694,1377,-1629,-3849,-1882,2252,707,3949,39,38,891
498603,4851640,5082636,4854265,5083641,1433,1340,-1790,-3809,-1658,2132,-6638,1841,39,38,891
499603,4851828,5082796,4854462,5083838,1662,1407,-1761,-3527,-1508,2322,1059,6063,37,32,890
500604,4852004,5082940,4854659,5084035,1747,1531,-1703,-3296,-1347,1944,1561,3498,37,32,890
501605,4852184,5083112,4854856,5084232,1730,1367,-1819,-3284,-1146,3032,-1311,1899,23,30,893
502607,4852328,5083220,4855053,5084429,1979,1806,-1836,-3176,-937,3668,-99,4630,23,30,893
503607,4852488,5083332,4855250,5084626,1895,1818,-1733,-2954,-914,5488,-912,4084,42,32,891
504609,4852688,5083480,4855447,5084823,1645,1616,-1601,-2737,-1004,5619,-3924,3479,42,32,891
505609,4852836,5083552,4855644,5085020,1991,2146,-1411,-2258,-997,4051,-1209,5879,30,32,888
506610,4853012,5083688,4855841,5085217,1827,1772,-1299,-1808,-707,1706,-1438,3723,30,32,888
507611,4853236,5083848,4856038,5085414,1515,1639,-1237,-1394,-242,1740,-1738,4008,25,16,891
508619,4853420,5083964,4856268,5085644,1786,1965,-1164,-766,110,3537,-2207,5315,25,16,891
509613,4853644,5084092,4856465,5085841,1524,1920,-1085,-61,272,3461,-2376,4808,49,19,888
510615,4853840,5084204,4856662,5086038,1701,2057,-1018,542,314,3414,-1547,4187,49,19,888
511616,4854072,5084320,4856859,5086235,1461,2069,-984,922,365,2785,-1899,3502,31,14,887
512617,4854288,5084464,4857056,5086432,1553,1917,-892,1306,409,2968,-2267,4866,31,14,887
513618,4854492,5084596,4857253,5086629,1626,2021,-670,1659,553,1901,-3103,5467,29,14,888
514618,4854696,5084696,4857450,5086826,1623,2265,-344,1764,760,1324,-2833,5043,29,14,888
515620,4854876,5084792,4857647,5087023,1781,2334,-64,1510,949,1292,-2983,3751,46,15,889
516620,4855100,5084908,4857844,5087220,1494,2246,168,1150,996,2392,-2771,4132,46,15,889
517621,4855316,5085028,4858041,5087417,1537,2254,428,870,956,2279,-2389,5241,34,23,887
518623,4855516,5085156,4858238,5087614,1636,2236,704,855,939,1711,-2381,5954,34,23,887
519624,4855720,5085296,4858435,5087811,1609,2186,857,1155,965,1357,-2132,6552,35,21,887
520625,4855932,5085412,4858632,5088008,1552,2372,684,1033,1070,-24,-2257,1325,35,21,887
521626,4856172,5085552,4858829,5088205,1359,2247,522,811,1170,315,-1203,4993,40,17,886
522627,4856368,5085684,4859026,5088402,1635,2327,631,754,1229,484,-2265,6673,40,17,886
523627,4856632,5085844,4859223,5088599,1181,2168,746,360,1280,-131,-2395,3536,49,20,886
524628,4856868,5085956,4859420,5088796,1339,2507,790,26,1304,254,-1839,5777,49,20,886
525629,4857068,5086092,4859617,5088993,1564,2383,767,-17,1294,147,-1347,6367,34,34,886
526631,4857320,5086232,4859814,5089190,1214,2384,652,-32,1264,191,-1892,5348,34,34,886
527632,4857532,5086368,4860011,5089387,1459,2436,586,-107,1182,631,-2247,5866,48,27,886
528633,4857748,5086504,4860208,5089584,1426,2464,565,-325,1041,698,-2160,5420,48,27,886
529634,4858000,5086660,4860405,5089781,1177,2357,649,-666,938,329,-1968,5641,31,30,888
530635,4858200,5086820,4860602,5089978,1501,2349,593,-1271,724,-96,-533,3503,31,30,888
531636,4858432,5086984,4860799,5090175,1287,2340,421,-1168,624,343,-454,5017,42,25,885
532637,4858656,5087152,4860996,5090372,1325,2328,142,-811,611,847,-233,3832,42,25,885
533637,4858916,5087328,4861193,5090569,1072,2288,-197,-534,626,1211,78,2933,46,38,886
534638,4859128,5087552,4861390,5090766,1367,1976,-460,-245,598,1489,144,3356,46,38,886
535640,4859328,5087748,4861587,5090963,1440,2152,-639,-237,440,2587,1958,2061,33,34,888
536641,4859544,5087944,4861784,5091160,1333,2154,-822,-410,352,2043,1902,820,33,34,888
537641,4859728,5088228,4861981,5091357,1539,1566,-891,-306,443,1672,-243,3374,26,56,891
538643,4859944,5088468,4862178,5091554,1331,1823,-719,-184,626,1478,-1805,3132,26,56,891
539643,4860168,5088704,4862375,5091751,1269,1831,-426,-418,771,966,-33,1805,44,56,889
540644,4860356,5089000,4862572,5091948,1498,1413,-127,-852,963,11,-427,1933,44,56,889
541645,4860580,5089280,4862769,5092145,1262,1478,97,-1047,1109,722,-1315,2975,51,61,892
542646,4860768,5089548,4862966,5092342,1491,1521,201,-982,1071,2026,-133,2888,51,61,892
543648,4860972,5089804,4863163,5092539,1389,1571,220,-761,930,1617,780,3345,42,54,892
544649,4861164,5090068,4863360,5092736,1467,1492,202,-581,795,1375,781,2997,42,54,892
545650,4861396,5090348,4863557,5092933,1202,1356,193,-527,682,916,342,2638,38,55,892
546651,4861592,5090568,4863754,5093130,1428,1721,212,-570,638,26,201,2981,38,55,892
547652,4861744,5090840,4863951,5093327,1722,1364,265,-486,671,-151,398,3764,28,55,892
548653,4861952,5091072,4864148,5093524,1369,1599,291,-393,670,505,110,3639,28,55,892
549654,4862108,5091316,4864345,5093721,1712,1504,338,-382,580,731,528,3648,44,57,892
550655,4862284,5091520,4864542,5093918,1597,1751,426,-443,471,103,39,3745,44,57,892
551656,4862428,5091764,4864739,5094115,1820,1482,492,-544,291,352,1311,3502,32,50,892
552657,4862620,5092008,4864936,5094312,1523,1461,496,-650,82,495,555,3098,32,50,892
553658,4862784,5092232,4865133,5094509,1713,1574,426,-632,21,-357,476,3951,39,47,890
554659,4862988,5092460,4865330,5094706,1460,1537,405,-487,125,-136,650,4493,39,47,890
555659,4863168,5092672,4865527,5094903,1618,1630,418,-252,346,242,82,4187,28,43,890
556660,4863320,5092856,4865724,5095100,1813,1812,443,-103,628,341,-299,3736,28,43,890
557661,4863472,5093036,4865921,5095297,1834,1844,466,11,819,1671,-18,4299,26,38,892
558662,4863644,5093212,4866118,5095494,1720,1879,472,218,909,2680,24,4386,26,38,892
559663,4863796,5093392,4866315,5095691,1865,1862,459,391,1030,2713,-207,3997,38,30,889
560665,4863944,5093552,4866512,5095888,1912,2003,471,583,1182,2795,-355,4242,38,30,889
561665,4864120,5093716,4866709,5096085,1747,1994,563,703,1369,1894,262,4426,28,26,889
562666,4864268,5093888,4866906,5096282,1944,1955,637,704,1589,1235,-513,3787,28,26,889
563667,4864444,5094052,4867103,5096479,1779,2020,669,659,1742,1507,-508,3326,38,22,887
564668,4864620,5094220,4867300,5096676,1788,2008,663,762,1863,1035,172,4103,38,22,887
565669,4864776,5094392,4867497,5096873,1932,1995,572,909,1951,1059,-492,3196,19,22,885
566671,4864908,5094536,4867694,5097070,2111,2193,472,1173,2071,199,-536,4508,19,22,885
567671,4865048,5094732,4867891,5097267,2087,1870,354,1279,2115,276,-405,3127,21,34,888
568673,4865192,5094940,4868088,5097464,2085,1790,250,1198,2110,-3,-862,3326,21,34,888
569673,4865324,5095168,4868285,5097661,2190,1652,213,1178,2102,474,-1506,4455,40,37,885
570674,4865456,5095412,4868482,5097858,2218,1531,149,1135,2068,700,-956,3371,40,37,885
571675,4865596,5095644,4868679,5098055,2194,1592,-8,1055,2046,-110,-1052,3161,26,55,887
572676,4865696,5095868,4868876,5098252,2488,1630,-169,1046,1868,323,-749,4325,26,55,887
573677,4865856,5096148,4869073,5098449,2129,1244,-281,1198,1652,-464,-277,4851,38,47,888
574678,4866052,5096412,4869270,5098646,1906,1315,-433,1308,1605,-245,-1685,3314,38,47,888
575679,4866208,5096680,4869467,5098843,2174,1259,-524,1531,1569,822,-856,5000,47,56,884
576681,4866396,5096972,4869664,5099040,1979,1068,-621,1647,1609,-588,-657,3794,47,56,884
577682,4866592,5097288,4869861,5099237,1930,866,-698,1594,1690,-533,-1078,3720,50,46,890
578682,4866756,5097500,4870058,5099434,2145,1509,-650,1433,1635,419,-979,4875,50,46,890
579683,4866912,5097636,4870255,5099631,2214,2012,-609,1216,1525,-497,-261,3878,41,41,892
580684,4867080,5097812,4870452,5099828,2151,1771,-580,964,1432,-642,-2,3780,41,41,892
581685,4867240,5097964,4870649,5100025,2219,1942,-563,951,1340,61,1020,5461,40,39,888
582687,4867392,5098164,4870846,5100222,2289,1641,-696,897,1224,-227,1659,2944,40,39,888
583687,4867564,5098372,4871043,5100419,2175,1586,-788,1153,1120,-657,965,5659,29,41,887
584689,4867700,5098616,4871240,5100616,2428,1341,-679,1608,1112,-955,-473,6764,29,41,887
585689,4867812,5098888,4871437,5100813,2617,1133,-513,1670,1091,-338,152,3609,30,49,886
586691,4867972,5099040,4871634,5101010,2333,1904,-384,1483,1097,144,615,3898,30,49,886
587691,4868100,5099344,4871831,5101207,2564,907,-219,1378,1203,33,-383,4669,22,48,886
588693,4868260,5099644,4872028,5101404,2381,887,-51,1034,1264,487,-722,3196,22,48,886
589693,4868420,5099944,4872225,5101601,2399,843,51,527,1269,698,-1401,2512,38,59,886
590695,4868572,5100172,4872422,5101798,2468,1279,101,293,1231,858,-1724,3978,38,59,886
591705,4868724,5100424,4872652,5102028,2504,1119,116,483,1240,-194,-1637,5049,23,43,890
592697,4868864,5100648,4872849,5102225,2605,1284,41,747,1243,-764,-1940,4607,23,43,890
593698,4869028,5100864,4873046,5102422,2470,1325,-58,1174,1088,-403,-1717,6280,29,44,887
594699,4869168,5101076,4873243,5102619,2645,1344,-158,1608,753,-425,-1096,6716,29,44,887
595699,4869332,5101272,4873440,5102816,2511,1444,-282,1796,278,-381,-552,6002,30,51,886
596701,4869512,5101488,4873637,5103013,2419,1312,-369,1843,-260,-416,1160,6852,30,51,886
597701,4869672,5101728,4873834,5103210,2562,1143,-389,1643,-697,-959,313,5829,41,47,884
598703,4869836,5101964,4874031,5103407,2551,1151,-330,1310,-979,-642,-133,6414,41,47,884
599704,4870020,5102212,4874228,5103604,2433,1054,-293,994,-1116,189,9,5342,46,38,886
600705,4870184,5102480,4874425,5103801,2573,898,-378,1071,-1159,874,1623,4946,46,38,886
601705,4870348,5102700,4874622,5103998,2589,1188,-330,1394,-1031,248,260,5954,41,49,888
602706,4870540,5102936,4874819,5104195,2417,1071,-90,1336,-797,295,-2732,4395,41,49,888
603707,4870728,5103176,4875016,5104392,2446,1028,246,767,-656,1287,-2798,3750,44,56,889
604708,4870880,5103408,4875213,5104589,2692,1062,639,258,-593,973,-3326,5624,44,56,889
605709,4871056,5103640,4875410,5104786,2552,1047,890,-54,-640,930,-2038,4462,29,47,888
606710,4871208,5103836,4875607,5104983,2723,1273,953,-190,-750,138,-840,4380,29,47,888
607711,4871376,5104008,4875804,5105180,2636,1434,897,-56,-1002,624,-87,5262,45,47,887
608712,4871552,5104180,4876001,5105377,2597,1446,748,111,-1326,84,391,4763,45,47,887
609714,4871704,5104368,4876198,5105574,2766,1349,552,289,-1620,-622,766,5157,36,31,884
610715,4871856,5104580,4876395,5105771,2787,1193,302,434,-1822,-1246,199,4746,36,31,884
611715,4872036,5104780,4876592,5105968,2621,1267,132,596,-1970,-1095,-108,6537,42,39,886
612716,4872220,5104976,4876789,5106165,2602,1293,57,716,-2119,154,294,6698,42,39,886
613717,4872428,5105172,4876986,5106362,2449,1293,9,457,-2246,626,364,4918,50,30,884
614719,4872612,5105336,4877183,5106559,2605,1508,64,73,-2298,843,-512,6390,50,30,884
615719,4872804,5105500,4877380,5106756,2558,1522,203,-366,-2276,407,-710,5413,40,27,887
616720,4873004,5105668,4877577,5106953,2508,1510,251,-827,-2250,315,-809,3508,40,27,887
617721,4873176,5105832,4877774,5107150,2694,1551,249,-887,-2279,1289,-1203,5010,27,37,885
618723,4873376,5105960,4877971,5107347,2519,1806,182,-643,-2354,1335,-862,4213,27,37,885
619723,4873544,5106092,4878168,5107544,2733,1810,50,-331,-2342,318,-496,3402,44,19,884
620724,4873740,5106224,4878365,5107741,2559,1839,-11,-15,-2238,106,-749,4651,44,19,884
621725,4873936,5106316,4878562,5107938,2560,2135,-18,259,-2157,341,-628,3858,38,30,883
622726,4874140,5106432,4878759,5108135,2508,2021,-24,276,-2096,-6,-263,3160,38,30,883
623727,4874340,5106536,4878956,5108332,2533,2137,28,194,-2076,2,-920,4444,39,25,884
624728,4874568,5106620,4879153,5108529,2345,2312,115,-16,-2128,216,-840,3919,39,25,884
625729,4874788,5106708,4879350,5108726,2385,2335,190,-334,-2252,636,-483,3700,48,15,882
626730,4875000,5106804,4879547,5108923,2430,2331,226,-532,-2385,1042,-426,4444,48,15,882
627731,4875248,5106912,4879744,5109120,2183,2295,153,-519,-2406,846,-1423,4263,32,26,882
628732,4875484,5107008,4879941,5109317,2242,2414,21,-318,-2335,832,-534,4778,32,26,882
629733,4875712,5107100,4880138,5109514,2280,2486,-150,-86,-2250,589,-186,4028,35,22,882
630735,4875956,5107208,4880335,5109711,2160,2425,-301,102,-2179,574,115,4172,35,22,882
631735,4876208,5107324,4880532,5109908,2087,2412,-371,43,-2088,-11,-152,3626,61,16,880
632736,4876456,5107472,4880729,5110105,2089,2234,-366,-231,-2034,-173,-916,3093,61,16,880
633737,4876700,5107604,4880926,5110302,2095,2363,-278,-524,-1997,-100,-1175,3694,41,32,883
634738,4876976,5107732,4881123,5110499,1861,2418,-174,-766,-2014,400,-915,3601,41,32,883
635739,4877232,5107852,4881320,5110696,1961,2503,-118,-994,-2056,269,-761,3188,55,34,885
636740,4877496,5107956,4881517,5110893,1883,2644,-131,-1008,-2080,241,-191,3690,55,34,885
637741,4877780,5108068,4881714,5111090,1719,2633,-224,-905,-2052,29,-349,2917,47,28,884
638742,4878040,5108164,4881911,5111287,1843,2777,-372,-908,-2004,-196,-157,2248,47,28,884
639743,4878316,5108264,4882108,5111484,1709,2796,-440,-805,-1953,104,-662,3327,46,29,883
640744,4878608,5108372,4882305,5111681,1568,2786,-438,-792,-1927,410,-749,2808,46,29,883
641746,4878892,5108500,4882502,5111878,1580,2691,-411,-885,-1919,500,-1528,2559,52,29,881
642747,4879168,5108628,4882699,5112075,1596,2722,-286,-985,-1888,215,-1649,3443,52,29,881
643748,4879484,5108764,4882896,5112272,1295,2700,-208,-1220,-1823,37,-1333,2596,43,22,881
644748,4879744,5108904,4883093,5112469,1617,2700,-181,-1482,-1767,-55,-850,2154,43,22,881
645749,4880024,5109036,4883290,5112666,1457,2780,-237,-1627,-1702,-218,-1083,3144,48,30,884
646751,4880320,5109144,4883487,5112863,1314,2970,-335,-1627,-1672,10,-341,2969,48,30,884
647751,4880572,5109280,4883684,5113060,1565,2822,-419,-1725,-1677,-149,-504,2336,48,29,882
648752,4880860,5109400,4883881,5113257,1301,2956,-478,-1769,-1724,374,-781,3433,48,29,882
649753,4881172,5109540,4884078,5113454,1101,2858,-426,-1798,-1769,510,-621,3133,46,34,883
650755,4881428,5109688,4884275,5113651,1426,2830,-344,-2050,-1739,-74,-500,2133,46,34,883
651755,4881708,5109824,4884472,5113848,1239,2932,-228,-2357,-1646,-405,-441,2200,61,26,884
652756,4881976,5109956,4884669,5114045,1284,2986,-91,-2641,-1527,-506,-220,2349,61,26,884
653757,4882272,5110100,4884866,5114242,1065,2936,-16,-2786,-1442,-138,-361,1600,62,23,880
654759,4882544,5110248,4885063,5114439,1183,2933,36,-2753,-1424,398,-264,2790,62,23,880
655760,4882780,5110412,4885260,5114636,1391,2848,96,-2571,-1409,-83,14,2573,58,20,883
656760,4883080,5110556,4885457,5114833,947,2997,92,-2560,-1354,-235,-484,1711,58,20,883
657761,4883332,5110684,4885654,5115030,1223,3128,112,-2518,-1323,368,-98,3023,46,23,884
658763,4883584,5110840,4885851,5115227,1200,2972,192,-2547,-1302,360,-176,2497,46,23,884
659763,4883828,5110988,4886048,5115424,1229,3045,227,-2746,-1252,606,38,2454,42,40,884
660764,4884076,5111148,4886245,5115621,1183,2987,305,-2935,-1155,347,50,3030,42,40,884
661765,4884304,5111340,4886442,5115818,1294,2789,302,-3166,-1050,210,195,2373,57,28,883
662767,4884544,5111508,4886639,5116015,1200,2953,307,-3273,-974,308,607,2999,57,28,883
663767,4884776,5111664,4886836,5116212,1236,3047,234,-3393,-904,308,225,2868,53,44,883
664769,4885020,5111836,4887033,5116409,1140,2959,183,-3347,-884,871,598,3359,53,44,883
665769,4885280,5112012,4887230,5116606,1013,2944,126,-3389,-878,662,761,3211,38,45,882
666771,4885500,5112208,4887427,5116803,1253,2821,93,-3505,-847,371,765,2806,38,45,882
667771,4885732,5112396,4887624,5117000,1163,2876,62,-3712,-771,367,945,3254,57,28,884
668772,4885996,5112568,4887821,5117197,935,2987,30,-3850,-711,657,934,2687,57,28,884
669773,4886232,5112732,4888018,5117394,1092,3052,-19,-4013,-659,518,1084,2993,36,43,885
670774,4886460,5112940,4888215,5117591,1129,2773,-36,-4092,-635,830,1145,3345,36,43,885
671775,4886680,5113136,4888412,5117788,1170,2850,-88,-4145,-616,800,974,3062,58,40,885
672776,4886940,5113348,4888609,5117985,892,2744,-144,-4103,-540,358,896,3417,58,40,885
673777,4887180,5113544,4888806,5118182,998,2846,-176,-3939,-411,379,1182,4440,44,48,886
674786,4887388,5113736,4889036,5118412,1209,2888,-262,-3709,-409,1979,645,3701,44,48,886
675780,4887620,5113920,4889233,5118609,1043,2945,-381,-3452,-383,1076,674,4049,48,37,886
676781,4887856,5114140,4889430,5118806,1001,2711,-487,-3198,-260,767,1216,4388,48,37,886
677781,4888052,5114380,4889627,5119003,1253,2567,-551,-3073,-165,1517,942,4229,31,34,885
678783,4888276,5114568,4889824,5119200,1066,2897,-568,-3081,-105,1718,823,4318,31,34,885
679783,4888508,5114756,4890021,5119397,1000,2902,-580,-3214,6,1165,736,3948,49,32,887
680785,4888684,5114948,4890218,5119594,1360,2880,-563,-3262,80,1793,787,5078,49,32,887
681785,4888892,5115160,4890415,5119791,1156,2750,-578,-3325,110,1653,172,4416,32,39,885
682787,4889052,5115380,4890612,5119988,1472,2691,-564,-3314,216,663,253,5234,32,39,885
683787,4889232,5115604,4890809,5120185,1355,2655,-541,-3214,238,2234,-439,5165,33,42,883
684788,4889408,5115800,4891006,5120382,1390,2831,-492,-3069,246,2053,-581,5703,33,42,883
685789,4889572,5115972,4891203,5120579,1479,2992,-441,-2865,313,1717,-881,5548,31,45,884
686791,4889740,5116160,4891400,5120776,1467,2897,-458,-2725,434,1459,-785,4890,31,45,884
687792,4889920,5116356,4891597,5120973,1400,2848,-500,-2535,568,1577,-997,5333,23,32,881
688793,4890088,5116576,4891794,5121170,1488,2689,-551,-2377,708,1491,-1861,5278,23,32,881
689793,4890240,5116788,4891991,5121367,1608,2734,-545,-2196,866,1041,-1383,5656,23,34,882
690794,4890404,5116976,4892188,5121564,1548,2889,-515,-2258,965,1478,-1775,4820,23,34,882
691795,4890596,5117172,4892385,5121761,1376,2840,-445,-2354,1007,1317,-1695,5750,31,34,884
692796,4890772,5117360,4892582,5121958,1485,2895,-405,-2445,1032,919,-1968,5065,31,34,884
693797,4890924,5117544,4892779,5122155,1656,2926,-409,-2525,1026,1106,-1711,5056,41,43,883
694798,4891096,5117776,4892976,5122352,1542,2611,-430,-2486,1015,976,-1760,5909,41,43,883
695799,4891260,5117960,4893173,5122549,1606,2918,-495,-2430,1053,465,-1542,4974,27,44,883
696800,4891408,5118144,4893370,5122746,1729,2925,-564,-2364,1109,710,-1840,5380,27,44,883
697801,4891568,5118332,4893567,5122943,1670,2905,-565,-2302,1136,867,-1715,6096,21,32,882
698802,4891724,5118508,4893764,5123140,1713,2990,-502,-2386,1144,770,-2102,5111,21,32,882
699803,4891872,5118700,4893961,5123337,1786,2893,-401,-2465,1120,1206,-1219,5829,25,32,880
700804,4892044,5118880,4894158,5123534,1647,2977,-260,-2558,1083,1297,-1421,5058,25,32,880
701805,4892204,5119084,4894355,5123731,1739,2824,-133,-2604,1082,805,-914,5455,28,47,881
702806,4892340,5119268,4894552,5123928,1916,2955,-26,-2640,1125,431,-532,4586,28,47,881
703807,4892528,5119456,4894749,5124125,1595,2935,16,-2604,1168,751,-397,4580,22,47,881
704808,4892696,5119624,4894946,5124322,1733,3074,41,-2447,1181,1093,-763,4655,22,47,881
705809,4892860,5119812,4895143,5124519,1773,2954,63,-2221,1166,1307,-693,4704,32,37,881
706810,4893060,5119988,4895340,5124716,1547,3039,46,-2124,1161,1027,-726,3323,32,37,881
707812,4893232,5120164,4895537,5124913,1733,3049,79,-1948,1165,1264,-1070,4831,48,40,879
708812,4893392,5120344,4895734,5125110,1826,3033,175,-1765,1116,1636,-1140,4201,48,40,879
709813,4893580,5120528,4895931,5125307,1655,3015,328,-1725,1080,1290,-704,4435,25,25,880
710815,4893776,5120740,4896128,5125504,1605,2834,492,-1755,1137,539,-1236,4262,25,25,880
711816,4893952,5120908,4896325,5125701,1740,3122,598,-1954,1172,762,-741,3272,30,25,880
712816,4894120,5121084,4896522,5125898,1803,3082,648,-2038,1164,461,-127,3993,30,25,880
713817,4894316,5121248,4896719,5126095,1630,3173,626,-1856,1141,481,-615,4382,32,39,883
714818,4894516,5121416,4896916,5126292,1603,3161,527,-1492,1149,449,-264,4593,32,39,883
715819,4894680,5121592,4897113,5126489,1844,3122,421,-1259,1141,814,-577,3769,49,38,880
716820,4894912,5121784,4897310,5126686,1403,3025,405,-1227,1131,656,62,4532,49,38,880
717821,4895076,5121936,4897507,5126883,1844,3295,467,-1583,1154,364,-11,2742,49,31,880
718822,4895272,5122088,4897704,5127080,1644,3316,555,-1854,1187,684,130,4230,49,31,880
719824,4895480,5122240,4897901,5127277,1565,3337,639,-1832,1157,1179,-773,4392,50,18,880
720824,4895680,5122372,4898098,5127474,1614,3492,639,-1637,1094,1112,118,4162,50,18,880
721825,4895868,5122544,4898295,5127671,1693,3254,536,-1485,1135,422,-351,3459,32,37,878
722826,4896068,5122676,4898492,5127868,1618,3533,505,-1132,1157,1493,176,5301,32,37,878
723827,4896252,5122812,4898689,5128065,1723,3536,479,-937,1167,1241,-154,3774,29,35,877
724828,4896436,5122944,4898886,5128262,1730,3591,416,-898,1231,641,336,3386,29,35,877
725829,4896620,5123100,4899083,5128459,1736,3460,388,-752,1326,543,285,4691,27,38,876
726831,4896788,5123260,4899280,5128656,1850,3452,380,-613,1375,537,-481,4008,27,38,876
727832,4896964,5123420,4899477,5128853,1809,3469,386,-618,1376,-16,526,3863,50,38,876
728833,4897144,5123580,4899674,5129050,1792,3486,346,-723,1322,437,-84,3668,50,38,876
729833,4897308,5123740,4899871,5129247,1907,3504,306,-788,1210,817,774,3886,39,30,875
730834,4897460,5123876,4900068,5129444,2003,3681,200,-873,1187,-96,829,3347,39,30,875
731835,4897616,5124028,4900265,5129641,1996,3602,45,-947,1177,264,367,2722,22,38,874
732837,4897764,5124192,4900462,5129838,2068,3543,-68,-860,1180,-158,532,4437,22,38,874
733837,4897900,5124344,4900659,5130035,2170,3638,-164,-712,1218,-605,-106,3720,38,26,874
734838,4898032,5124504,4900856,5130232,2225,3606,-228,-555,1202,-87,585,4394,38,26,874
735839,4898224,5124676,4901053,5130429,1852,3543,-258,-483,1187,76,25,4584,26,37,874
736840,4898384,5124840,4901250,5130626,2069,3608,-288,-497,1184,111,180,4105,26,37,874
737841,4898540,5124980,4901447,5130823,2112,3785,-378,-692,1192,587,-343,3153,28,38,873
738842,4898700,5125136,4901644,5131020,2104,3704,-402,-823,1218,208,-27,4127,28,38,873
739843,4898848,5125288,4901841,5131217,2202,3750,-366,-923,1338,-904,-250,4095,40,23,873
740844,4899000,5125440,4902038,5131414,2197,3771,-318,-1023,1620,-2358,-863,3576,40,23,873
741845,4899168,5125616,4902235,5131611,2110,3631,-289,-1139,2002,-2816,-1604,3532,43,37,871
742847,4899324,5125792,4902432,5131808,2203,3641,-400,-1381,1853,2808,1004,1509,43,37,871
743847,4899480,5125972,4902629,5132005,2222,3625,-457,-1208,1225,5353,166,5195,28,34,872
744849,4899624,5126152,4902826,5132202,2321,3634,-445,-744,1113,-1360,-1491,5646,28,34,872
745849,4899748,5126336,4903023,5132399,2479,3616,-530,-669,1226,-170,620,1864,38,31,872
746850,4899892,5126512,4903220,5132596,2378,3676,-595,-758,1266,798,-26,4110,38,31,872
747851,4900024,5126712,4903417,5132793,2482,3526,-579,-746,1239,923,-612,4807,38,28,872
748852,4900160,5126896,4903614,5132990,2484,3633,-546,-948,1225,645,-887,2986,38,28,872
749853,4900276,5127080,4903811,5133187,2646,3639,-494,-1257,1185,1196,-850,3551,18,33,871
750854,4900412,5127316,4904008,5133384,2548,3298,-455,-1395,1162,1013,-828,3987,18,33,871
751855,4900572,5127604,4904205,5133581,2415,2935,-445,-1301,1174,846,-596,4434,40,46,871
752856,4900692,5127860,4904402,5133778,2700,3110,-437,-1044,1287,338,-484,4783,40,46,871
753857,4900844,5128084,4904599,5133975,2520,3299,-439,-1027,1426,353,-904,3186,27,59,872
754858,4900984,5128392,4904796,5134172,2621,2727,-439,-1095,1423,1957,-1404,3126,27,59,872
755859,4901116,5128704,4904993,5134369,2700,2652,-416,-1059,1328,2193,-1409,4001,23,66,874
756860,4901228,5129028,4905190,5134566,2864,2522,-364,-942,1374,433,-1066,4210,23,66,874
757868,4901368,5129328,4905420,5134796,2728,2642,-310,-947,1510,805,-605,3147,43,62,878
758862,4901488,5129640,4905617,5134993,2888,2518,-261,-1066,1540,2122,-898,3115,43,62,878
759863,4901616,5130020,4905814,5135190,2869,2013,-156,-1103,1551,1586,-1529,4011,29,73,876
760864,4901772,5130384,4906011,5135387,2713,2041,-11,-1055,1566,1546,-1457,3884,29,73,876
761865,4901928,5130720,4906208,5135584,2731,2156,104,-1038,1596,1166,-965,3440,36,57,877
762866,4902104,5131016,4906405,5135781,2617,2363,173,-1127,1661,987,-980,3028,36,57,877
763867,4902260,5131320,4906602,5135978,2761,2267,203,-1113,1680,1976,-2069,3375,38,57,879
764868,4902416,5131684,4906799,5136175,2780,1820,270,-1031,1663,1094,-1995,3703,38,57,879
765869,4902540,5132040,4906996,5136372,3013,1801,325,-990,1666,-38,-364,3383,44,65,880
766870,4902680,5132316,4907193,5136569,2939,2267,269,-1034,1724,-441,1035,2128,44,65,880
767871,4902820,5132656,4907390,5136766,2964,1805,165,-1097,1764,1171,-284,2283,43,53,882
768872,4902992,5132996,4907587,5136963,2776,1743,200,-910,1659,2645,-1405,4073,43,53,882
769873,4903200,5133332,4907784,5137160,2547,1708,366,-591,1592,278,-408,4215,32,57,879
770874,4903392,5133628,4907981,5137357,2650,1915,375,-585,1715,-1930,1156,1256,32,57,879
771875,4903600,5133976,4908178,5137554,2546,1524,177,-862,1885,-656,546,391,41,55,882
772877,4903800,5134320,4908375,5137751,2596,1485,50,-764,1955,141,23,3720,41,55,882
773878,4903984,5134668,4908572,5137948,2703,1395,35,-540,1884,420,-152,2357,33,53,880
774879,4904184,5134956,4908769,5138145,2602,1730,19,-545,1793,193,322,1306,33,53,880
775880,4904424,5135260,4908966,5138342,2333,1584,28,-482,1737,1378,-33,2422,38,60,884
776881,4904644,5135648,4909163,5138539,2449,976,132,-170,1685,2241,-774,3843,38,60,884
777882,4904880,5135976,4909360,5138736,2333,1293,309,166,1689,1104,-1064,3611,60,71,884
778883,4905096,5136288,4909557,5138933,2451,1344,426,329,1787,-271,-440,2476,60,71,884
779883,4905340,5136576,4909754,5139130,2256,1454,513,512,1810,1430,88,3299,62,69,889
780884,4905568,5136896,4909951,5139327,2344,1201,569,783,1744,2122,-70,3067,62,69,889
781885,4905828,5137248,4910148,5139524,2117,933,549,887,1750,775,252,1353,59,71,887
782887,4906096,5137616,4910345,5139721,2036,759,592,1035,1833,707,930,2604,59,71,887
783888,4906340,5137920,4910542,5139918,2166,1112,660,1300,1905,1171,450,2616,43,64,889
784888,4906592,5138212,4910739,5140115,2093,1145,655,1553,2019,1298,-384,2049,43,64,889
785890,4906872,5138560,4910936,5140312,1882,729,620,2168,2122,2730,-937,4662,62,70,891
786891,4907112,5138908,4911133,5140509,2115,663,487,3093,2189,1601,-897,4455,62,70,891
787892,4907388,5139240,4911330,5140706,1855,704,185,3554,2310,644,-214,574,53,61,890
788892,4907688,5139492,4911527,5140903,1661,1181,33,3579,2284,-63,1165,828,53,61,890
789894,4907952,5139800,4911724,5141100,1857,782,158,3606,2143,-993,1783,2197,45,51,892
790895,4908224,5140108,4911921,5141297,1774,733,341,3902,1935,-425,1679,2349,45,51,892
791896,4908460,5140424,4912118,5141494,1983,631,322,4367,1842,-315,907,2650,62,55,893
792897,4908776,5140712,4912315,5141691,1432,767,172,4774,1845,108,-2545,1650,62,55,893
793898,4909048,5140948,4912512,5141888,1675,1075,167,4897,1693,796,-2948,2648,66,65,894
794899,4909332,5141280,4912709,5142085,1562,415,396,4639,1495,-1037,-50,2156,66,65,894
795899,4909608,5141548,4912906,5142282,1578,784,633,3796,1300,-826,939,463,66,54,894
796901,4909868,5141800,4913103,5142479,1650,860,850,3032,1120,398,2,3294,66,54,894
797902,4910140,5142020,4913300,5142676,1543,1050,1013,2465,988,125,-724,2704,42,57,895
798903,4910444,5142208,4913497,5142873,1297,1254,1038,1967,913,-1242,-266,2766,42,57,895
799904,4910716,5142440,4913694,5143070,1464,964,1035,1748,902,-2380,756,4729,54,47,894
800905,4910952,5142636,4913891,5143267,1673,1190,1066,1618,901,-1908,127,3949,54,47,894
801905,4911216,5142844,4914088,5143464,1469,1110,957,1821,750,27,1141,5902,42,32,894
802906,4911480,5143060,4914285,5143661,1440,1052,730,2223,544,422,-100,5315,42,32,894
803907,4911744,5143248,4914482,5143858,1411,1231,371,2414,478,-1198,-1136,4737,64,31,893
804908,4912020,5143432,4914679,5144055,1302,1261,148,2170,388,-382,-86,4562,64,31,893
805910,4912288,5143640,4914876,5144252,1322,1106,224,1332,252,-499,-1005,4637,40,46,894
806911,4912508,5143860,4915073,5144449,1612,1021,367,109,108,87,-2270,5085,40,46,894
807912,4912812,5144100,4915270,5144646,1041,877,445,-600,23,399,-3342,5766,51,34,893
808913,4913060,5144344,4915467,5144843,1368,833,174,-413,-71,550,313,7009,51,34,893
809914,4913308,5144556,4915664,5145040,1346,1026,-233,-58,-168,-483,2051,4840,54,50,893
810915,4913540,5144736,4915861,5145237,1431,1234,-540,-268,-324,-268,203,6195,54,50,893
811916,4913768,5144892,4916058,5145434,1443,1402,-554,-921,-556,543,-1494,6483,53,30,896
812916,4914016,5145092,4916255,5145631,1296,1125,-533,-1936,-818,643,-957,5841,53,30,896
813918,4914264,5145356,4916452,5145828,1274,696,-607,-2649,-1009,-18,-1404,6123,37,43,893
814919,4914500,5145572,4916649,5146025,1333,988,-891,-2622,-1172,197,230,6915,37,43,893
815920,4914736,5145844,4916846,5146222,1316,605,-1269,-2468,-1313,-27,1411,4507,56,41,894
816921,4914956,5146036,4917043,5146419,1406,1107,-1469,-2606,-1445,687,-164,5295,56,41,894
817922,4915172,5146232,4917240,5146616,1423,1082,-1363,-3129,-1601,1672,-513,4823,39,41,894
818923,4915412,5146400,4917437,5146813,1254,1270,-1232,-3784,-1687,1079,272,4164,39,41,894
819924,4915608,5146616,4917634,5147010,1531,963,-1166,-4265,-1618,564,-1058,3804,50,40,893
820924,4915772,5146864,4917831,5147207,1745,740,-1120,-4348,-1572,1648,-384,4705,50,40,893
821926,4915944,5147068,4918028,5147404,1706,1012,-1192,-4406,-1688,2464,1179,2521,31,28,894
822927,4916072,5147264,4918225,5147601,2013,1063,-1433,-4474,-1917,3106,337,1629,31,28,894
823927,4916252,5147444,4918422,5147798,1695,1170,-1662,-4088,-2060,2565,673,4532,35,29,893
824929,4916408,5147588,4918619,5147995,1864,1418,-1806,-3391,-2004,2216,741,4959,35,29,893
825929,4916588,5147708,4918816,5148192,1722,1602,-1852,-2788,-1838,2598,799,5016,26,20,891
826931,4916784,5147876,4919013,5148389,1622,1315,-1851,-2514,-1683,3010,-2031,3701,26,20,891
827931,4916992,5148036,4919210,5148586,1543,1381,-1695,-2428,-1595,2784,1805,4926,45,29,890
828932,4917140,5148208,4919407,5148783,1940,1317,-1499,-2602,-1429,1282,2353,3533,45,29,890
829933,4917316,5148364,4919604,5148980,1775,1435,-1424,-3160,-1205,2619,-330,1909,42,22,891
830935,4917468,5148516,4919801,5149177,1945,1480,-1474,-3507,-1009,4580,-4131,2755,42,22,891
831936,4917620,5148644,4919998,5149374,1966,1661,-1520,-3327,-927,5003,-974,4850,31,33,890
832937,4917796,5148796,4920195,5149571,1825,1531,-1555,-3031,-877,3696,-1120,3597,31,33,890
833937,4917972,5148900,4920392,5149768,1834,1872,-1598,-2799,-785,3142,-2615,3309,26,16,889
834938,4918156,5149020,4920589,5149965,1791,1806,-1490,-2113,-611,3262,-1113,7255,26,16,889
835939,4918320,5149116,4920786,5150162,1930,2000,-1278,-1185,-298,2668,-2033,7401,38,14,889
836940,4918532,5149236,4920983,5150359,1625,1884,-1101,-561,75,2189,-1734,5078,38,14,889
837941,4918752,5149384,4921180,5150556,1564,1732,-1008,-294,402,2203,-2297,3937,44,15,888
838943,4918948,5149500,4921377,5150753,1716,1967,-943,-115,559,3132,-2800,4037,44,15,888
839944,4919204,5149608,4921574,5150950,1315,2056,-838,196,618,3035,-2048,4662,38,29,887
840952,4919396,5149728,4921804,5151180,1733,2030,-785,454,642,2778,-2315,3402,38,29,887
841946,4919604,5149832,4922001,5151377,1628,2171,-786,760,659,2592,-3310,4042,43,12,886
842947,4919828,5149984,4922198,5151574,1517,1891,-661,1273,677,2414,-2708,6535,43,12,886
843948,4920016,5150080,4922395,5151771,1746,2286,-372,1808,782,1325,-2716,6724,28,31,887
844949,4920212,5150196,4922592,5151968,1697,2197,-82,2103,984,836,-2257,5286,28,31,887
845949,4920440,5150332,4922789,5152165,1484,2099,110,2106,1128,1520,-2001,4369,34,28,889
846951,4920688,5150436,4922986,5152362,1336,2340,182,1727,1160,1531,-2152,2690,34,28,889
847952,4920912,5150556,4923183,5152559,1475,2275,234,1074,1206,445,-1802,2512,46,21,887
848953,4921168,5150684,4923380,5152756,1250,2255,435,576,1276,843,-2627,4601,46,21,887
849954,4921384,5150792,4923577,5152953,1492,2419,764,457,1277,1339,-2739,6712,33,25,887
850955,4921580,5150936,4923774,5153150,1618,2218,1009,135,1237,505,-2359,3797,33,25,887
851955,4921808,5151088,4923971,5153347,1405,2188,1146,-108,1180,366,-1429,5807,44,17,887
852956,4922060,5151216,4924168,5153544,1231,2370,1136,-248,1197,-574,-1476,4722,44,17,887
853957,4922268,5151372,4924365,5153741,1501,2213,1009,-258,1182,115,-1422,4990,54,20,887
854959,4922496,5151492,4924562,5153938,1363,2472,893,-188,1151,-158,-1994,5878,54,20,887
855960,4922752,5151616,4924759,5154135,1162,2479,831,-261,1100,-847,-1657,5615,49,22,887
856961,4922956,5151768,4924956,5154332,1485,2324,752,-416,996,-705,-1613,5005,49,22,887
857961,4923188,5151896,4925153,5154529,1295,2506,593,-614,827,59,-1032,4521,42,19,886
858963,4923416,5152056,4925350,5154726,1306,2322,380,-668,623,1027,-667,4042,42,19,886
859963,4923624,5152236,4925547,5154923,1428,2205,201,-477,581,240,-1082,5180,50,39,886
860965,4923820,5152412,4925744,5155120,1503,2240,154,-30,734,-812,-1813,5646,50,39,886
861965,4924088,5152588,4925941,5155317,1022,2250,203,17,857,-496,-947,3950,46,39,886
862967,4924316,5152760,4926138,5155514,1259,2286,192,-197,867,564,-162,3131,46,39,886
863968,4924500,5152940,4926335,5155711,1540,2244,133,-431,867,1241,187,3148,50,39,886
864969,4924724,5153128,4926532,5155908,1278,2199,111,-576,891,1437,-189,3406,50,39,886
865970,4924920,5153316,4926729,5156105,1454,2203,137,-736,887,1289,54,2423,47,39,888
866971,4925116,5153516,4926926,5156302,1455,2128,118,-1039,852,1587,1021,1494,47,39,888
867971,4925340,5153796,4927123,5156499,1268,1591,5,-1118,810,2038,1345,1910,38,42,889
868972,4925552,5154036,4927320,5156696,1337,1823,-165,-980,804,2152,906,1839,38,42,889
869973,4925744,5154292,4927517,5156893,1465,1698,-311,-575,858,1549,-1011,2430,29,42,888
870974,4925916,5154568,4927714,5157090,1601,1539,-298,-129,970,579,-784,3373,29,42,888
871976,4926144,5154876,4927911,5157287,1238,1290,-211,113,1209,-659,-948,2248,31,50,891
872977,4926328,5155156,4928108,5157484,1519,1430,-66,112,1358,152,52,2437,31,50,891
873977,4926508,5155404,4928305,5157681,1551,1607,101,-27,1306,634,-390,3260,38,48,891
874979,4926716,5155652,4928502,5157878,1372,1585,210,-378,1079,1074,240,2648,38,48,891
875979,4926920,5155920,4928699,5158075,1394,1430,314,-809,862,454,775,2713,43,49,892
876980,4927084,5156188,4928896,5158272,1660,1398,456,-1176,705,298,764,3369,43,49,892
877981,4927268,5156424,4929093,5158469,1541,1582,549,-1395,618,-244,700,3479,36,41,892
878982,4927420,5156664,4929290,5158666,1760,1538,579,-1397,521,7,91,3841,36,41,892
879984,4927584,5156908,4929487,5158863,1701,1493,549,-1226,354,240,1010,4275,23,51,892
880984,4927764,5157116,4929684,5159060,1608,1714,515,-1048,261,-777,905,3886,23,51,892
881985,4927920,5157352,4929881,5159257,1776,1522,491,-1010,172,85,282,3682,29,52,890
882986,4928072,5157580,4930078,5159454,1822,1559,593,-827,-53,1223,1871,5516,29,52,890
883988,4928240,5157760,4930275,5159651,1735,1867,630,-796,-263,785,268,2675,43,49,889
884988,4928404,5157948,4930472,5159848,1774,1820,605,-986,-297,438,465,2541,43,49,889
885989,4928576,5158144,4930669,5160045,1736,1772,666,-1075,-119,697,731,4076,34,32,889
886991,4928736,5158320,4930866,5160242,1828,1906,787,-1057,183,990,-138,3379,34,32,889
887992,4928900,5158520,4931063,5160439,1818,1755,871,-981,467,2008,498,3249,33,34,888
888993,4929036,5158664,4931260,5160636,2020,2129,909,-858,708,2719,-370,3366,33,34,888
889993,4929188,5158832,4931457,5160833,1940,1992,942,-560,931,3096,-313,4243,29,24,888
890994,4929340,5158996,4931654,5161030,1960,2031,989,-133,1189,2962,-563,4618,29,24,888
891995,4929480,5159164,4931851,5161227,2060,2020,999,330,1419,3204,-333,4524,34,25,885
892996,4929636,5159328,4932048,5161424,1979,2060,1000,806,1640,2103,-1,4829,34,25,885
893997,4929788,5159500,4932245,5161621,2024,2022,979,1143,1847,1636,-460,4485,37,27,885
894998,4929948,5159660,4932442,5161818,1991,2113,911,1373,1943,2283,-105,3907,37,27,885
896000,4930092,5159820,4932639,5162015,2115,2129,815,1608,2042,1559,-26,3936,40,22,884
897000,4930256,5159988,4932836,5162212,2005,2093,641,1665,2102,1960,-571,2646,40,22,884
898001,4930380,5160144,4933033,5162409,2287,2186,496,1521,2174,999,-878,2871,37,32,885
899002,4930504,5160332,4933230,5162606,2320,1991,500,1371,2207,816,-1079,4311,37,32,885
900004,4930656,5160556,4933427,5162803,2165,1754,502,1143,2166,314,-1347,3410,34,45,885
901004,4930800,5160796,4933624,5163000,2240,1636,447,844,2095,-307,-1638,3406,34,45,885
902005,4930924,5161012,4933821,5163197,2397,1778,366,736,1946,167,-735,4575,22,45,884
903006,4931056,5161248,4934018,5163394,2376,1636,188,671,1774,25,-843,3253,22,45,884
904008,4931164,5161472,4934215,5163591,2565,1700,-9,681,1591,36,-530,3835,20,51,887
905009,4931308,5161700,4934412,5163788,2365,1661,-165,835,1381,211,-77,4760,20,51,887
906010,4931516,5161932,4934609,5163985,1961,1622,-347,972,1218,-782,45,3773,28,43,885
907011,4931672,5162156,4934806,5164182,2304,1660,-605,1116,1037,-647,-89,4309,28,43,885
908012,4931848,5162380,4935003,5164379,2189,1648,-860,1471,827,-81,941,5922,34,48,884
909013,4932024,5162632,4935200,5164576,2198,1450,-1151,1672,674,-408,935,4266,34,48,884
910014,4932188,5162852,4935397,5164773,2289,1640,-1355,1684,623,-1126,276,5344,46,50,886
911015,4932356,5162984,4935594,5164970,2277,2219,-1377,1540,556,-63,605,6281,46,50,886
912016,4932524,5163084,4935791,5165167,2290,2462,-1375,1273,493,511,866,5530,27,36,888
913016,4932680,5163208,4935988,5165364,2384,2344,-1369,835,492,488,207,4792,27,36,888
914017,4932836,5163344,4936185,5165561,2402,2297,-1307,650,443,1108,916,6189,34,33,883
915018,4932980,5163504,4936382,5165758,2502,2163,-1218,606,405,360,1275,5145,34,33,883
916019,4933152,5163680,4936579,5165955,2339,2073,-1127,563,422,226,1599,4626,26,31,881
917020,4933276,5163884,4936776,5166152,2671,1895,-1002,546,523,407,778,5013,26,31,881
918021,4933408,5164116,4936973,5166349,2650,1705,-772,633,682,521,89,4953,27,48,881
919023,4933548,5164376,4937170,5166546,2626,1503,-537,722,824,634,360,4130,27,48,881
920023,4933684,5164568,4937367,5166743,2678,1930,-349,771,915,721,677,4190,18,52,882
921025,4933824,5164900,4937564,5166940,2679,997,-231,914,1005,630,-626,4108,18,52,882
922026,4933996,5165192,4937761,5167137,2491,1205,-196,1003,1018,1058,-2187,2662,25,66,884
923027,4934152,5165464,4937958,5167334,2610,1297,-201,1160,889,1168,-978,4383,25,66,884
924036,4934288,5165696,4938188,5167564,2776,1547,-376,1214,799,-549,-2124,2414,41,62,886
925029,4934468,5165924,4938385,5167761,2510,1559,-604,1330,738,-961,-1403,4069,41,62,886
926029,4934624,5166168,4938582,5167958,2679,1439,-716,1577,667,-1091,-2041,5657,44,47,885
927031,4934780,5166404,4938779,5168155,2697,1472,-703,1579,500,-1026,-1836,4906,44,47,885
928032,4934964,5166604,4938976,5168352,2529,1696,-557,1380,250,-1302,-1554,6560,33,46,884
929033,4935120,5166812,4939173,5168549,2723,1642,-351,971,-63,-1210,-1032,6475,33,46,884
930033,4935284,5167048,4939370,5168746,2688,1450,-219,442,-503,-294,102,6213,28,41,883
931035,4935448,5167332,4939567,5168943,2704,1111,-233,148,-972,-33,373,6737,28,41,883
932035,4935636,5167660,4939764,5169140,2558,779,-405,171,-1278,356,225,5959,36,60,883
933037,4935816,5167928,4939961,5169337,2616,1124,-640,622,-1413,205,754,6310,36,60,883
934037,4936004,5168180,4940158,5169534,2571,1200,-890,1193,-1437,226,1467,4984,50,63,886
935039,4936204,5168456,4940355,5169731,2496,1015,-1023,1633,-1276,-285,-761,5015,50,63,886
936039,4936400,5168744,4940552,5169928,2521,901,-833,1786,-971,108,-3406,5663,46,43,887
937041,4936572,5169024,4940749,5170125,2683,914,-450,1410,-868,2981,-3544,3361,46,43,887
938041,4936788,5169252,4940946,5170322,2401,1226,15,992,-810,1530,-3059,5155,29,57,888
939043,4936960,5169452,4941143,5170519,2688,1399,452,532,-654,-115,-3417,4421,29,57,888
940043,4937144,5169632,4941340,5170716,2619,1532,727,48,-608,1248,-2721,3385,51,41,886
941045,4937336,5169800,4941537,5170913,2572,1621,937,-132,-735,452,-1379,5665,51,41,886
942045,4937508,5170016,4941734,5171110,2709,1312,959,-200,-965,-1212,-300,3898,36,47,885
943047,4937692,5170232,4941931,5171307,2640,1304,796,-27,-1165,-1952,-84,4908,36,47,885
944048,4937916,5170428,4942128,5171504,2379,1429,617,387,-1416,-1240,389,6433,46,30,884
945049,4938120,5170608,4942325,5171701,2502,1537,410,705,-1785,-350,466,5133,46,30,884
946050,4938308,5170780,4942522,5171898,2606,1599,307,803,-2103,-320,593,6322,50,38,886
947051,4938516,5170940,4942719,5172095,2478,1690,298,527,-2253,-455,-74,5332,50,38,886
948051,4938712,5171112,4942916,5172292,2554,1626,328,-61,-2310,469,-912,3924,51,40,885
949052,4938884,5171280,4943113,5172489,2716,1664,414,-674,-2312,1007,-1034,5009,51,40,885
950053,4939088,5171452,4943310,5172686,2514,1650,377,-1067,-2232,60,-742,3552,49,36,884
951055,4939276,5171608,4943507,5172883,2618,1769,209,-1175,-2096,-97,-611,4023,49,36,884
952055,4939472,5171748,4943704,5173080,2569,1894,111,-761,-2046,1153,-1260,6074,38,39,882
953057,4939672,5171884,4943901,5173277,2544,1946,31,-489,-2164,1325,-989,3698,38,39,882
954058,4939880,5172016,4944098,5173474,2490,1999,-5,-356,-2321,1982,-1104,4556,53,29,883
955059,4940100,5172132,4944295,5173671,2406,2136,11,-138,-2326,1195,-1139,5250,53,29,883
956060,4940300,5172228,4944492,5173868,2530,2305,-18,-238,-2287,259,23,2581,33,13,883
957060,4940528,5172320,4944689,5174065,2342,2376,-49,-378,-2263,1,13,4111,33,13,883
958061,4940728,5172436,4944886,5174262,2517,2263,-115,-459,-2236,-299,-612,3691,48,30,882
959062,4940964,5172560,4945083,5174459,2276,2245,-204,-474,-2281,1113,-1348,3492,48,30,882
960063,4941220,5172644,4945280,5174656,2126,2545,-167,-363,-2358,1238,-312,5074,56,11,882
961064,4941456,5172764,4945477,5174853,2234,2355,-138,-458,-2433,654,-262,2716,56,11,882
962065,4941700,5172876,4945674,5175050,2164,2442,-143,-509,-2504,1290,-128,3695,41,31,881
963066,4941952,5173016,4945871,5175247,2091,2293,-173,-343,-2439,705,-647,3734,41,31,881
964067,4942180,5173144,4946068,5175444,2228,2398,-251,-261,-2283,96,-751,2135,45,20,881
965068,4942452,5173300,4946265,5175641,1920,2241,-294,-198,-2165,485,-789,3263,45,20,881
966069,4942736,5173428,4946462,5175838,1808,2448,-285,-115,-2138,953,-1722,3443,41,25,884
967071,4943008,5173540,4946659,5176035,1851,2585,-231,-95,-2153,586,-1205,3236,41,25,884
968071,4943268,5173644,4946856,5176232,1899,2677,-154,-185,-2182,507,-1137,3241,56,17,885
969072,4943548,5173744,4947053,5176429,1738,2744,-117,-358,-2234,738,-502,3133,56,17,885
970074,4943824,5173868,4947250,5176626,1729,2628,-77,-552,-2200,-143,127,2636,49,33,883
971075,4944112,5173992,4947447,5176823,1615,2660,-105,-757,-2127,-46,120,2444,49,33,883
972076,4944408,5174120,4947644,5177020,1522,2666,-151,-759,-2085,335,-627,3017,48,30,881
973077,4944716,5174256,4947841,5177217,1399,2643,-173,-692,-1998,-460,-856,2830,48,30,881
974077,4944996,5174372,4948038,5177414,1537,2804,-183,-752,-1935,-70,-995,2594,47,30,881
975079,4945264,5174504,4948235,5177611,1582,2734,-108,-804,-1958,532,-1418,3224,47,30,881
976080,4945576,5174648,4948432,5177808,1258,2682,1,-904,-1918,-378,-1465,3381,66,29,884
977080,4945860,5174768,4948629,5178005,1394,2867,43,-1147,-1863,-189,-463,2491,66,29,884
978082,4946116,5174904,4948826,5178202,1544,2794,50,-1364,-1799,-253,-467,2770,52,20,883
979083,4946428,5175016,4949023,5178399,1144,2982,21,-1527,-1739,-220,-608,3164,52,20,883
980083,4946708,5175140,4949220,5178596,1308,2940,7,-1645,-1715,433,-121,3002,60,28,883
981084,4946968,5175272,4949417,5178793,1406,2919,0,-1866,-1713,418,252,2361,60,28,883
982085,4947256,5175404,4949614,5178990,1192,2948,6,-2064,-1660,-472,-756,2525,67,27,883
983087,4947532,5175536,4949811,5179187,1232,2978,51,-2182,-1562,-950,-282,3252,67,27,883
984087,4947824,5175664,4950008,5179384,1090,3033,62,-2318,-1500,-456,-214,1943,62,24,880
985088,4948112,5175804,4950205,5179581,1076,2984,104,-2449,-1513,202,180,2668,62,24,880
986090,4948324,5175928,4950402,5179778,1545,3117,179,-2541,-1532,-93,-212,3007,64,28,883
987091,4948592,5176072,4950599,5179975,1164,3017,265,-2681,-1487,-168,-246,2280,64,28,883
988091,4948880,5176208,4950796,5180172,999,3093,323,-2932,-1448,466,152,2131,39,19,883
989093,4949124,5176340,4950993,5180369,1254,3148,331,-3131,-1363,27,497,2147,39,19,883
990093,4949352,5176476,4951190,5180566,1341,3151,333,-3236,-1216,-172,188,2230,45,38,882
991094,4949580,5176636,4951387,5180763,1328,3018,279,-3216,-1122,586,509,2812,45,38,882
992096,4949828,5176816,4951584,5180960,1180,2901,224,-3163,-1053,480,417,2262,56,41,881
993096,4950040,5176976,4951781,5181157,1400,3043,170,-3135,-988,352,566,2946,56,41,881
994098,4950272,5177152,4951978,5181354,1259,2953,185,-3141,-917,270,741,3206,48,38,881
995099,4950552,5177328,4952175,5181551,923,2963,185,-3336,-866,571,402,2057,48,38,881
996100,4950772,5177492,4952372,5181748,1289,3054,203,-3529,-838,718,1098,3656,56,43,880
997100,4950980,5177676,4952569,5181945,1359,2935,169,-3755,-793,283,1057,2568,56,43,880
998101,4951244,5177880,4952766,5182142,979,2807,84,-3961,-727,184,1063,2724,50,29,884
999103,4951440,5178076,4952963,5182339,1406,2859,-10,-3999,-686,650,986,3741,50,29,884
1000104,4951692,5178264,4953160,5182536,1032,2914,-128,-4015,-692,1021,1200,2889,49,39,883
1001105,4951952,5178432,4953357,5182733,954,3053,-198,-3965,-659,659,1129,3975,49,39,883
1002105,4952172,5178612,4953554,5182930,1194,2985,-233,-3991,-613,784,1145,3609,60,40,883
1003107,4952384,5178836,4953751,5183127,1238,2699,-288,-4108,-549,744,1221,3108,60,40,883
1004107,4952620,5179024,4953948,5183324,1071,2929,-334,-4194,-464,611,1038,3741,38,50,884
1005108,4952856,5179212,4954145,5183521,1054,2934,-344,-4210,-331,158,948,4020,38,50,884
1006109,4953064,5179444,4954342,5183718,1225,2645,-331,-4063,-301,1553,1109,4834,47,49,884
1007117,4953288,5179660,4954572,5183948,1128,2752,-400,-3931,-325,1599,158,3759,47,49,884
1008111,4953512,5179840,4954769,5184145,1116,2984,-503,-3610,-199,135,1387,4968,47,38,885
1009112,4953740,5180060,4954966,5184342,1077,2725,-581,-3416,-30,663,1160,4217,47,38,885
1010113,4953968,5180256,4955163,5184539,1064,2877,-599,-3269,49,1508,330,4867,38,31,885
1011115,4954176,5180456,4955360,5184736,1185,2851,-622,-3321,141,744,690,3898,38,31,885
1012115,4954392,5180676,4955557,5184933,1126,2717,-673,-3353,276,684,281,4354,33,42,885
1013116,4954556,5180884,4955754,5185130,1466,2787,-737,-3208,321,1901,425,5298,33,42,885
1014117,4954768,5181092,4955951,5185327,1159,2784,-836,-3064,406,1015,-37,4361,29,44,885
1015119,4954940,5181292,4956148,5185524,1421,2833,-890,-2826,552,1160,-945,6018,29,44,885
1016119,4955108,5181484,4956345,5185721,1459,2886,-840,-2532,627,2378,-1208,6788,27,46,882
1017120,4955312,5181688,4956542,5185918,1231,2809,-811,-2529,702,1882,-2144,4418,27,46,882
1018121,4955504,5181876,4956739,5186115,1308,2913,-702,-2483,868,1383,-735,6923,27,45,882
1019123,4955664,5182088,4956936,5186312,1525,2758,-682,-2676,1062,1301,-1517,4157,27,45,882
1020123,4955856,5182312,4957133,5186509,1328,2672,-682,-2785,1225,874,-1668,5221,46,48,884
1021124,4956032,5182516,4957330,5186706,1437,2795,-567,-2753,1318,949,-2454,6572,46,48,884
1022125,4956192,5182724,4957527,5186903,1553,2766,-493,-2786,1344,1081,-1596,4946,45,48,883
1023127,4956380,5182948,4957724,5187100,1383,2654,-473,-2800,1379,789,-2129,4894,45,48,883
1024127,4956544,5183164,4957921,5187297,1548,2697,-482,-2694,1409,694,-1909,5795,44,37,884
1025128,4956708,5183396,4958118,5187494,1562,2582,-521,-2584,1360,892,-1456,4538,44,37,884
1026129,4956888,5183592,4958315,5187691,1470,2809,-574,-2496,1304,780,-1305,5211,43,32,885
1027130,4957020,5183776,4958512,5187888,1799,2891,-638,-2342,1342,591,-2339,5443,43,32,885
1028131,4957172,5183980,4958709,5188085,1694,2762,-644,-2268,1419,572,-1451,5374,30,41,883
1029133,4957356,5184160,4958906,5188282,1500,2921,-619,-2246,1409,1600,-1904,5764,43,40,880
1030133,4957528,5184340,4959103,5188479,1586,2929,-581,-2362,1386,1690,-1702,5056,43,40,880
1031135,4957688,5184560,4959300,5188676,1678,2670,-433,-2522,1353,1467,-1809,5576,42,43,882
1032135,4957836,5184744,4959497,5188873,1774,2902,-220,-2648,1287,1290,-1145,5574,42,43,882
1033136,4958004,5184928,4959694,5189070,1662,2908,-60,-2858,1294,564,-578,4196,21,34,883
1034137,4958176,5185096,4959891,5189267,1649,3021,13,-2955,1352,548,-625,4447,21,34,883
1035139,4958348,5185268,4960088,5189464,1660,3008,25,-2915,1355,609,-292,4052,34,26,882
1036140,4958536,5185452,4960285,5189661,1564,2940,32,-2714,1294,499,115,4149,34,26,882
1037141,4958724,5185616,4960482,5189858,1569,3080,30,-2440,1211,952,-779,4285,31,42,879
1038141,4958868,5185788,4960679,5190055,1867,3042,56,-2109,1106,1548,-1037,4311,31,42,879
1039143,4959060,5185976,4960876,5190252,1570,2947,93,-1811,1005,1683,-1143,4125,45,27,879
1040144,4959224,5186160,4961073,5190449,1760,2978,207,-1641,948,1237,-1106,4130,45,27,879
1041145,4959400,5186356,4961270,5190646,1694,2905,351,-1656,1003,349,-817,3783,27,33,881
1042146,4959584,5186540,4961467,5190843,1650,2986,503,-1806,1060,971,-925,3288,27,33,881
1043147,4959756,5186732,4961664,5191040,1737,2939,628,-1965,1129,333,-829,3779,25,34,881
1044148,4959952,5186880,4961861,5191237,1587,3236,750,-1930,1160,359,-1220,3945,25,34,881
1045149,4960144,5187044,4962058,5191434,1615,3152,782,-1906,1097,1104,93,3464,42,33,881
1046149,4960344,5187200,4962255,5191631,1564,3221,735,-1697,1046,1382,-164,3895,42,33,881
1047150,4960520,5187400,4962452,5191828,1724,2945,652,-1411,1014,1320,501,4377,40,31,880
1048151,4960720,5187560,4962649,5192025,1573,3213,561,-1209,1000,1208,428,3397,40,31,880
1049152,4960900,5187712,4962846,5192222,1706,3282,538,-1089,1046,714,-93,4168,38,28,879
1050153,4961100,5187840,4963043,5192419,1579,3464,581,-966,1117,288,-936,4158,38,28,879
1051154,4961288,5188004,4963240,5192616,1659,3254,660,-960,1106,432,-469,3626,48,33,878
1052155,4961492,5188148,4963437,5192813,1556,3404,733,-1104,1050,463,-465,3628,48,33,878
1053157,4961656,5188316,4963634,5193010,1821,3267,788,-1145,965,1123,-175,3965,48,31,878
1054157,4961820,5188460,4963831,5193207,1836,3442,779,-1140,927,1013,-198,3631,48,31,878
1055159,4962008,5188624,4964028,5193404,1690,3332,673,-1074,928,839,368,3326,24,36,875
1056160,4962184,5188800,4964225,5193601,1775,3267,541,-860,992,134,490,3985,24,36,875
1057160,4962368,5188964,4964422,5193798,1731,3358,458,-516,1084,-62,-183,4899,31,30,875
1058161,4962536,5189168,4964619,5193995,1844,3105,353,-412,1129,-172,334,3534,31,30,875
1059162,4962704,5189316,4964816,5194192,1858,3477,288,-500,1114,-50,107,4145,44,22,876
1060164,4962876,5189472,4965013,5194389,1844,3446,296,-469,992,1263,511,5683,44,22,876
1061164,4963060,5189612,4965210,5194586,1775,3572,234,-627,891,942,150,3169,40,24,875
1062165,4963196,5189756,4965407,5194783,2102,3572,103,-819,860,701,433,3725,40,24,875
1063167,4963324,5189912,4965604,5194980,2182,3516,-21,-852,926,-41,-174,3989,43,29,875
1064168,4963476,5190108,4965801,5195177,2053,3267,-104,-742,1001,-302,75,4178,43,29,875
1065169,4963632,5190268,4965998,5195374,2046,3509,-195,-678,1054,-271,-147,3841,38,23,873
1066169,4963796,5190436,4966195,5195571,2012,3473,-221,-558,1080,-343,340,4507,38,23,873
1067171,4963988,5190576,4966392,5195768,1839,3674,-300,-613,1079,65,-127,3154,34,22,874
1068172,4964124,5190732,4966589,5195965,2217,3593,-378,-738,1071,-119,93,3370,34,22,874
1069172,4964296,5190896,4966786,5196162,2003,3559,-402,-788,1166,-1269,-376,4212,27,22,874
1070173,4964456,5191040,4966983,5196359,2095,3708,-444,-887,1417,-2360,-739,2999,27,22,874
1071175,4964596,5191204,4967180,5196556,2245,3598,-490,-943,1778,-2545,-223,3855,45,27,872
1072176,4964772,5191360,4967377,5196753,2030,3667,-607,-1115,1404,5395,2335,2478,45,27,872
1073177,4964924,5191512,4967574,5196950,2200,3713,-598,-874,789,4823,98,6353,38,23,870
1074178,4965084,5191660,4967771,5197147,2167,3761,-611,-774,819,-1485,-1051,3135,38,23,870
1075178,4965204,5191840,4967968,5197344,2451,3569,-703,-949,1069,-312,321,2119,23,32,871
1076180,4965340,5192012,4968165,5197541,2379,3631,-673,-963,1150,686,-489,4839,23,32,871
1077180,4965488,5192196,4968362,5197738,2325,3563,-607,-855,1101,701,-1069,4231,38,42,871
1078182,4965628,5192360,4968559,5197935,2402,3703,-559,-874,1157,70,-1471,3377,38,42,871
1079183,4965748,5192532,4968756,5198132,2560,3665,-480,-1122,1150,959,-758,3277,38,44,872
1080183,4965876,5192732,4968953,5198329,2542,3490,-401,-1387,1130,817,-1160,3311,38,44,872
1081185,4966028,5192976,4969150,5198526,2411,3195,-333,-1513,1161,698,-536,3608,20,40,869
1082185,4966152,5193216,4969347,5198723,2620,3204,-248,-1403,1162,1615,-304,4223,20,40,869
1083186,4966312,5193460,4969544,5198920,2412,3159,-123,-1297,1222,759,-803,4182,26,43,874
1084188,4966432,5193684,4969741,5199117,2696,3273,-3,-1320,1382,303,-1488,3674,26,43,874
1085189,4966564,5193944,4969938,5199314,2650,3021,74,-1411,1471,1693,-1500,3159,43,46,875
1086189,4966716,5194276,4970135,5199511,2545,2513,133,-1448,1470,1552,-1830,3710,43,46,875
1087191,4966832,5194576,4970332,5199708,2807,2669,209,-1378,1480,850,-2031,4099,42,53,875
1088192,4966952,5194856,4970529,5199905,2816,2758,289,-1235,1551,366,-1141,4130,42,53,875
1089193,4967096,5195116,4970726,5200102,2690,2857,316,-1162,1563,1606,-757,3452,39,48,876
1090201,4967224,5195432,4970956,5200332,2836,2470,306,-1182,1483,2542,-891,3316,39,48,876
1091194,4967368,5195760,4971153,5200529,2760,2338,365,-1066,1402,2174,-928,4647,39,51,876
1092195,4967536,5196100,4971350,5200726,2624,2200,427,-1025,1413,1220,-1052,3495,39,51,876
1093196,4967724,5196400,4971547,5200923,2503,2406,455,-1017,1547,518,-925,3490,46,58,877
1094197,4967868,5196656,4971744,5201120,2802,2656,448,-991,1629,1383,-1448,3532,46,58,877
1095199,4968012,5197000,4971941,5201317,2826,2043,492,-926,1683,576,-1664,4108,27,65,880
1096199,4968152,5197344,4972138,5201514,2876,1979,542,-982,1715,505,-1183,2840,27,65,880
1097200,4968292,5197676,4972335,5201711,2902,1996,537,-1145,1687,780,465,2109,25,60,879
1098201,4968440,5197956,4972532,5201908,2875,2284,535,-1132,1717,118,985,3723,25,60,879
1099202,4968632,5198288,4972729,5202105,2603,1901,500,-1129,1666,1309,38,2114,30,60,879
1100203,4968820,5198636,4972926,5202302,2633,1736,477,-1080,1547,1240,-558,3173,30,60,879
1101205,4969028,5198960,4973123,5202499,2503,1831,461,-978,1590,-1620,627,2901,38,70,882
1102205,4969244,5199244,4973320,5202696,2446,2042,356,-967,1797,-2691,1572,1733,38,70,882
1103207,4969420,5199612,4973517,5202893,2706,1443,176,-977,1906,-498,923,2031,34,56,883
1104208,4969600,5199948,4973714,5203090,2689,1583,49,-712,1764,1611,-273,3558,34,56,883
1105209,4969804,5200284,4973911,5203287,2536,1522,15,-385,1582,1121,-827,3304,43,67,882
1106210,4970024,5200576,4974108,5203484,2427,1756,64,-182,1487,1102,-50,3041,43,67,882
1107211,4970248,5200912,4974305,5203681,2391,1420,90,-93,1444,1812,214,2160,58,55,885
1108211,4970476,5201304,4974502,5203878,2354,986,126,66,1482,1312,149,3359,58,55,885
1109213,4970700,5201636,4974699,5204075,2368,1301,207,401,1611,363,-198,3856,59,70,887
1110213,4970908,5201952,4974896,5204272,2463,1350,232,662,1760,1132,-541,2990,59,70,887
1111215,4971148,5202256,4975093,5204469,2245,1378,151,1020,1867,1956,-624,3106,37,56,887
1112216,4971396,5202636,4975290,5204666,2174,824,51,1406,1964,1478,-34,3181,37,56,887
1113217,4971640,5202988,4975487,5204863,2179,930,89,1620,1982,1866,833,2269,51,59,888
1114217,4971884,5203352,4975684,5205060,2158,782,232,1661,1883,1142,1069,1934,51,59,888
1115218,4972140,5203644,4975881,5205257,2058,1191,360,1764,1865,-690,672,2207,47,63,889
1116219,4972380,5204004,4976078,5205454,2141,695,440,2255,1807,1444,869,4333,47,63,889
1117221,4972588,5204372,4976275,5205651,2336,570,327,2958,1782,2299,-51,3533,55,71,890
1118221,4972888,5204676,4976472,5205848,1717,923,-34,3488,1855,119,-200,1627,55,71,890
1119223,4973164,5204988,4976669,5206045,1833,823,-304,3929,1892,-749,98,3184,48,56,890
1120224,4973404,5205296,4976866,5206242,2040,799,-386,4016,1916,-930,-4246,817,48,56,890
1121225,4973704,5205652,4977063,5206439,1620,429,-199,4158,1655,932,-1030,4427,54,56,893
1122225,4973908,5205956,4977260,5206636,2218,707,-25,4109,1431,-111,429,2506,54,56,893
1123227,4974184,5206244,4977457,5206833,1733,767,-23,3658,1309,72,1794,465,56,55,895
1124227,4974476,5206472,4977654,5207030,1592,1129,-14,3109,1235,460,895,2552,56,55,895
1125228,4974748,5206824,4977851,5207227,1685,287,176,2625,1183,-187,-599,2330,53,45,892
1126229,4975004,5207128,4978048,5207424,1759,540,386,2134,1126,-1047,77,2155,53,45,892
1127231,4975252,5207368,4978245,5207621,1788,921,530,1698,939,423,1063,2339,46,54,893
1128231,4975492,5207580,4978442,5207818,1819,1089,611,1476,733,773,52,2974,46,54,893
1129233,4975772,5207764,4978639,5208015,1533,1270,531,1351,594,743,-434,2696,55,42,893
1130233,4976076,5208012,4978836,5208212,1337,847,518,1552,683,-1720,-145,5040,55,42,893
1131235,4976316,5208236,4979033,5208409,1718,986,480,1562,794,-1626,951,3140,57,42,893
1132235,4976544,5208468,4979230,5208606,1781,920,497,1449,770,-192,619,3461,57,42,893
1133237,4976792,5208660,4979427,5208803,1633,1172,443,1497,686,-274,-376,5780,45,34,893
1134238,4977080,5208840,4979624,5209000,1344,1255,319,1621,639,-359,-959,4626,45,34,893
1135239,4977348,5209000,4979821,5209197,1438,1396,136,1431,605,-597,-1286,4240,47,29,892
1136239,4977612,5209224,4980018,5209394,1435,984,112,1263,429,-191,-1490,5761,47,29,892
1137240,4977864,5209448,4980215,5209591,1486,972,48,931,229,-669,-1550,4526,52,42,891
1138241,4978120,5209680,4980412,5209788,1435,907,-68,794,31,-250,-51,5006,52,42,891
1139242,4978384,5209908,4980609,5209985,1356,918,-153,500,-127,71,689,5605,59,32,894
1140243,4978664,5210092,4980806,5210182,1220,1199,-58,-262,-294,-456,81,4700,59,32,894
1141244,4978892,5210292,4981003,5210379,1532,1098,83,-1322,-426,-257,-950,5813,61,42,895
1142245,4979128,5210440,4981200,5210576,1465,1444,117,-2024,-563,536,-1900,6357,61,42,895
1143247,4979328,5210640,4981397,5210773,1689,1118,-107,-2133,-774,790,-714,6398,55,29,893
1144247,4979596,5210856,4981594,5210970,1234,1010,-542,-1705,-1025,-97,1842,6079,55,29,893
1145248,4979828,5211080,4981791,5211167,1443,948,-969,-1346,-1219,-688,723,5368,45,44,892
1146249,4980072,5211280,4981988,5211364,1348,1096,-1164,-1421,-1427,1043,-1496,5940,45,44,892
1147250,4980272,5211492,4982185,5211561,1622,1015,-1067,-1909,-1664,1800,-153,5747,52,26,893
1148251,4980476,5211692,4982382,5211758,1594,1089,-864,-2949,-1687,-66,114,3768,52,26,893
1149252,4980648,5211880,4982579,5211955,1806,1167,-603,-4006,-1662,1490,-124,4371,26,32,892
1150253,4980808,5212056,4982776,5212152,1897,1252,-428,-4608,-1717,2399,279,4509,26,32,892
1151255,4980964,5212256,4982973,5212349,1940,1100,-569,-4774,-1895,2633,1196,2424,24,30,891
1152256,4981132,5212488,4983170,5212546,1879,885,-823,-4366,-2078,2712,1949,4974,24,30,891
1153256,4981284,5212704,4983367,5212743,1999,977,-1182,-3716,-2161,2881,-928,4277,31,37,890
1154257,4981448,5212864,4983564,5212940,1939,1343,-1486,-2977,-2090,2398,-1235,4818,31,37,890
1155258,4981636,5213008,4983761,5213137,1793,1466,-1590,-2375,-1927,2261,828,6050,44,21,891
1156259,4981856,5213164,4983958,5213334,1583,1409,-1589,-2027,-1730,2031,-601,4063,44,21,891
1157260,4982020,5213288,4984155,5213531,1949,1641,-1583,-1946,-1476,2073,333,3603,41,27,889
1158261,4982232,5213436,4984352,5213728,1642,1513,-1597,-1955,-1204,2578,248,3385,41,27,889
1159262,4982412,5213572,4984549,5213925,1851,1615,-1588,-2005,-954,2913,108,3735,44,36,887
1160263,4982612,5213724,4984746,5214122,1724,1535,-1540,-2107,-837,3666,-140,3227,44,36,887
1161264,4982760,5213860,4984943,5214319,2071,1662,-1537,-2226,-839,4043,-939,3174,34,29,889
1162265,4982944,5213984,4985140,5214516,1853,1769,-1583,-2171,-859,4142,-595,4260,34,29,889
1163266,4983104,5214144,4985337,5214713,2019,1561,-1652,-1884,-821,4161,-1200,4292,32,17,887
1164267,4983272,5214272,4985534,5214910,1983,1791,-1620,-1562,-702,3823,-1806,4792,32,17,887
1165268,4983448,5214392,4985731,5215107,1942,1875,-1445,-1323,-505,3267,-1087,5063,27,21,888
1166270,4983636,5214500,4985928,5215304,1872,1989,-1301,-1174,-275,2702,-1504,4311,27,21,888
1167271,4983808,5214628,4986125,5215501,1983,1894,-1212,-954,-39,2147,-1189,4873,31,18,886
1168272,4983996,5214740,4986322,5215698,1887,2031,-1139,-625,124,2424,-1682,4998,31,18,886
1169272,4984188,5214884,4986519,5215895,1865,1856,-1019,-328,235,2453,-1579,4610,47,26,884
1170274,4984388,5215008,4986716,5216092,1814,2013,-906,-174,327,3007,-2156,4013,47,26,884
1171275,4984604,5215132,4986913,5216289,1706,2045,-799,-22,385,3376,-1842,4329,48,17,885
1172276,4984828,5215244,4987110,5216486,1644,2157,-669,245,480,2599,-1687,5449,48,17,885
1173283,4985044,5215356,4987340,5216716,1701,2210,-518,610,620,2000,-2235,5503,50,27,885
1174278,4985256,5215456,4987537,5216913,1720,2328,-385,938,729,2206,-2839,5359,50,27,885
1175279,4985504,5215592,4987734,5217110,1473,2130,-215,1337,790,2136,-2670,6217,33,13,885
1176280,4985732,5215708,4987931,5217307,1585,2290,-53,1635,909,1036,-2687,5316,33,13,885
1177281,4985940,5215824,4988128,5217504,1705,2327,-14,1591,1041,943,-2174,3193,51,32,886
1178282,4986192,5215944,4988325,5217701,1407,2336,-22,1273,1076,1618,-1943,3255,51,32,886
1179283,4986400,5216064,4988522,5217898,1677,2369,44,961,1065,1606,-2449,4266,41,22,885
1180283,4986624,5216180,4988719,5218095,1566,2431,179,627,1074,1020,-2137,4327,41,22,885
1181284,4986880,5216312,4988916,5218292,1340,2360,371,421,1075,1085,-2068,5332,53,27,883
1182285,4987092,5216448,4989113,5218489,1609,2361,534,91,1133,-205,-2287,4364,53,27,883
1183287,4987320,5216592,4989310,5218686,1496,2336,658,-154,1184,-75,-1573,5342,36,34,886
1184288,4987596,5216728,4989507,5218883,1161,2413,712,-260,1202,-24,-1368,5586,36,34,886
1185288,4987824,5216880,4989704,5219080,1449,2333,630,-387,1234,-688,-1549,4103,57,19,885
1186289,4988080,5217016,4989901,5219277,1248,2460,503,-451,1206,-253,-1884,5281,57,19,885
1187290,4988340,5217136,4990098,5219474,1195,2594,444,-407,1076,-344,-2039,5648,54,23,886
1188291,4988560,5217276,4990295,5219671,1436,2495,431,-548,807,248,-1537,4681,54,23,886
1189292,4988792,5217424,4990492,5219868,1346,2467,451,-792,594,-179,-1630,4656,42,27,885
1190293,4989036,5217572,4990689,5220065,1250,2489,469,-915,553,-333,-1571,4703,42,27,885
1191295,4989248,5217728,4990886,5220262,1444,2457,411,-922,599,85,-1219,4622,41,38,885
1192295,4989520,5217904,4991083,5220459,1036,2342,288,-766,689,37,-1806,4202,41,38,885
1193296,4989748,5218072,4991280,5220656,1298,2405,135,-598,782,-89,-1332,3789,35,25,884
1194297,4990000,5218248,4991477,5220853,1124,2365,20,-417,862,193,-756,4128,35,25,884
1195299,4990236,5218436,4991674,5221050,1207,2294,-97,-355,921,741,-339,3038,31,34,887
1196299,4990440,5218604,4991871,5221247,1404,2433,-209,-502,954,848,272,2183,31,34,887
1197300,4990652,5218832,4992068,5221444,1348,2044,-219,-550,919,1566,-340,4076,30,39,887
1198301,4990880,5219044,4992265,5221641,1234,2139,-158,-769,876,1383,550,1932,30,39,887
1199303,4991080,5219312,4992462,5221838,1409,1758,-168,-1323,783,2319,1967,146,28,42,888
1200304,4991304,5219572,4992659,5222035,1247,1781,-225,-1690,709,2395,1396,1241,28,42,888
1201305,4991484,5219832,4992856,5222232,1529,1753,-274,-1551,770,1033,-1437,2774,34,57,890
1202305,4991692,5220112,4993053,5222429,1351,1593,-330,-1087,885,224,-349,2465,34,57,890
1203306,4991896,5220436,4993250,5222626,1373,1262,-396,-614,1070,-588,-28,2104,49,58,889
1204307,4992084,5220716,4993447,5222823,1476,1500,-374,-144,1217,60,12,3783,49,58,889
1205308,4992276,5220988,4993644,5223020,1454,1518,-264,89,1090,1947,-865,3453,45,49,893
1206309,4992488,5221252,4993841,5223217,1323,1539,-180,57,797,1516,-305,3002,45,49,893
1207311,4992672,5221520,4994038,5223414,1504,1484,-88,-330,567,731,375,2522,31,55,891
1208311,4992852,5221824,4994235,5223611,1536,1212,103,-802,476,218,5,3331,31,55,891
1209313,4993028,5222092,4994432,5223808,1570,1406,327,-1203,437,41,691,3535,36,61,891
1210313,4993192,5222336,4994629,5224005,1661,1536,458,-1492,337,555,392,2896,36,61,891
1211315,4993360,5222572,4994826,5224202,1649,1569,471,-1498,170,843,750,3799,46,43,891
1212315,4993512,5222816,4995023,5224399,1769,1498,438,-1272,130,-726,891,4037,46,43,891
1213316,4993696,5223068,4995220,5224596,1574,1425,432,-905,80,-393,579,4659,24,50,889
1214317,4993856,5223284,4995417,5224793,1741,1642,455,-500,-176,1019,1181,4613,24,50,889
1215319,4994024,5223504,4995614,5224990,1704,1607,403,-364,-420,359,391,3040,35,32,889
1216320,4994192,5223716,4995811,5225187,1717,1650,338,-410,-445,-88,781,3579,35,32,889
1217321,4994340,5223888,4996008,5225384,1865,1912,378,-417,-254,310,325,4229,42,33,889
1218321,4994492,5224084,4996205,5225581,1859,1762,524,-410,30,703,416,3725,42,33,889
1219322,4994644,5224252,4996402,5225778,1879,1950,642,-452,281,2023,-70,3095,21,40,887
1220323,4994788,5224432,4996599,5225975,1953,1884,731,-124,715,2632,-223,3857,21,40,887
1221324,4994924,5224600,4996796,5226172,2030,1971,688,287,892,3381,-38,4062,19,35,887
1222325,4995092,5224768,4996993,5226369,1843,1984,670,745,1108,2762,-62,4975,19,35,887
1223327,4995240,5224940,4997190,5226566,1990,1970,725,1241,1399,2024,-317,5540,33,36,885
1224327,4995372,5225132,4997387,5226763,2119,1848,733,1616,1597,2349,69,4465,33,36,885
1225328,4995568,5225292,4997584,5226960,1719,2065,621,1779,1761,1358,49,3029,40,40,884
1226329,4995712,5225444,4997781,5227157,2069,2134,521,1770,1911,1514,-289,3384,40,40,884
1227330,4995860,5225604,4997978,5227354,2065,2102,537,1771,2046,1287,-573,4599,23,36,886
1228331,4996020,5225772,4998175,5227551,2008,2064,581,1609,2156,601,-717,3517,23,36,886
1229332,4996152,5225964,4998372,5227748,2211,1916,572,1317,2203,147,-330,3492,18,36,884
1230333,4996280,5226196,4998569,5227945,2266,1652,526,1039,2158,196,-1105,4065,18,36,884
1231334,4996408,5226424,4998766,5228142,2298,1663,461,1022,2034,-103,-881,4709,33,46,885
1232336,4996560,5226652,4998963,5228339,2168,1650,310,970,1893,-900,-541,3092,33,46,885
1233336,4996668,5226880,4999160,5228536,2483,1637,140,894,1686,-340,-615,3757,24,53,885
1234338,4996772,5227128,4999357,5228733,2548,1490,24,1043,1442,-199,-492,5210,24,53,885
1235338,4996956,5227420,4999554,5228930,2055,1173,-161,1251,1274,-652,-1332,3459,46,61,884
1236339,4997144,5227684,4999751,5229127,2034,1320,-370,1542,1189,309,-906,4664,46,61,884
1237340,4997296,5227972,4999948,5229324,2280,1130,-587,1859,1159,568,-119,4531,29,44,887
1238341,4997496,5228336,5000145,5229521,1979,581,-778,1842,1240,-540,-1480,3275,29,44,887
1239342,4997664,5228552,5000342,5229718,2192,1498,-777,1714,1308,177,-1624,5162,48,48,888
1240344,4997828,5228720,5000539,5229915,2232,1812,-663,1507,1301,515,-558,4382,48,48,888
1241345,4998008,5228916,5000736,5230112,2140,1637,-601,1177,1266,333,34,3709,27,43,889
1242345,4998168,5229104,5000933,5230309,2282,1691,-556,1113,1283,534,283,5223,27,43,889
1243346,4998320,5229292,5001130,5230506,2352,1695,-625,1068,1274,-31,1099,2777,46,27,886
1244347,4998472,5229520,5001327,5230703,2372,1432,-713,1049,1187,-1103,1197,3798,46,27,886
1245348,4998632,5229744,5001524,5230900,2339,1446,-608,1257,1104,-2132,-275,6310,43,38,885
1246349,4998764,5230024,5001721,5231097,2543,1059,-482,1270,956,-1546,1063,4498,43,38,885
1247350,4998904,5230220,5001918,5231294,2519,1584,-469,1050,859,-1047,473,3445,20,57,885
1248352,4999032,5230512,5002115,5231491,2625,943,-433,887,780,690,-567,5154,20,57,885
1249352,4999156,5230784,5002312,5231688,2682,1036,-317,773,708,945,-812,5373,32,60,884
1250353,4999308,5231040,5002509,5231885,2528,1110,-276,383,694,75,-855,2893,32,60,884
1251354,4999468,5231284,5002706,5232082,2494,1164,-302,234,785,-650,-1296,4548,42,62,886
1252355,4999624,5231596,5002903,5232279,2538,689,-351,526,866,-301,-1379,5420,42,62,886
1253356,4999768,5231872,5003100,5232476,2638,879,-431,897,888,-381,-824,4540,24,60,886
1254357,4999932,5232076,5003297,5232673,2527,1326,-438,1142,859,-510,-1382,5354,24,60,886
1255358,5000088,5232268,5003494,5232870,2596,1403,-296,1156,755,-216,-1228,6134,35,44,886
1256369,5000240,5232464,5003724,5233100,2657,1393,-155,749,536,104,-498,4295,35,44,886
1257361,5000408,5232696,5003921,5233297,2569,1154,-52,203,208,339,-209,5216,28,35,884
1258361,5000576,5232908,5004118,5233494,2583,1272,-18,-84,-213,480,20,5997,28,35,884
1259362,5000732,5233088,5004315,5233691,2677,1479,-132,-126,-630,-408,305,5543,25,45,884
1260363,5000900,5233276,5004512,5233888,2615,1433,-403,126,-913,-1219,283,6328,25,45,884
1261364,5001080,5233476,5004709,5234085,2548,1357,-704,525,-1033,-1115,-69,6183,32,44,883
1262365,5001248,5233660,5004906,5234282,2637,1463,-817,992,-1032,-619,-678,7654,32,44,883
1263366,5001416,5233888,5005103,5234479,2650,1174,-729,1151,-970,48,-758,6252,41,40,885
1264368,5001608,5234136,5005300,5234676,2503,1027,-512,937,-870,735,-1332,5582,41,40,885
1265369,5001800,5234388,5005497,5234873,2506,979,-172,510,-768,989,-2390,5713,38,39,885
1266370,5001976,5234620,5005694,5235070,2615,1088,179,-162,-771,1523,-2600,4132,38,39,885
1267371,5002152,5234828,5005891,5235267,2626,1233,421,-728,-830,1425,-2646,3781,38,36,887
1268372,5002312,5235056,5006088,5235464,2743,1095,567,-811,-822,210,-2229,5320,38,36,887
1269372,5002492,5235228,5006285,5235661,2626,1456,547,-554,-887,470,-1142,4232,34,50,884
1270373,5002676,5235440,5006482,5235858,2607,1199,397,-148,-1100,477,-94,4680,34,50,884
1271374,5002840,5235672,5006679,5236055,2748,1059,249,378,-1371,-425,61,5591,46,49,884
1272375,5002988,5235864,5006876,5236252,2870,1311,79,705,-1572,-937,367,4203,46,49,884
1273376,5003184,5236076,5007073,5236449,2571,1179,-52,917,-1681,-880,63,5247,43,46,885
1274377,5003352,5236268,5007270,5236646,2759,1307,-135,1055,-1810,-21,-160,5089,43,46,885
1275378,5003548,5236436,5007467,5236843,2586,1469,-210,1242,-1986,478,438,5156,51,35,885
1276379,5003752,5236580,5007664,5237040,2534,1643,-202,1484,-2084,412,753,5570,51,35,885
1277380,5003932,5236712,5007861,5237237,2691,1746,-133,1468,-2043,288,-7,4278,39,25,884
1278381,5004108,5236864,5008058,5237434,2726,1642,61,1033,-1906,468,-593,3967,39,25,884
1279382,5004300,5237048,5008255,5237631,2630,1448,396,211,-1910,2415,-1887,4165,26,26,883
1280383,5004496,5237200,5008452,5237828,2606,1667,717,-637,-1988,2194,-1576,4156,26,26,883
1281384,5004668,5237332,5008649,5238025,2767,1821,813,-1183,-1978,741,-612,3783,43,31,881
1282385,5004864,5237456,5008846,5238222,2618,1903,665,-1181,-1965,520,-980,4373,43,31,881
1283386,5005056,5237572,5009043,5238419,2647,1989,396,-650,-2048,1005,9,5257,45,33,881
1284387,5005244,5237696,5009240,5238616,2677,1971,52,-35,-2072,-93,-150,4322,45,33,881
1285388,5005456,5237808,5009437,5238813,2520,2083,-256,370,-2125,523,-120,4177,50,17,879
1286389,5005672,5237920,5009634,5239010,2488,2122,-380,543,-2216,653,-536,5136,50,17,879
1287390,5005860,5238028,5009831,5239207,2668,2186,-348,351,-2300,500,-591,4096,40,29,880
1288391,5006052,5238144,5010028,5239404,2646,2171,-264,-199,-2427,988,-189,3523,40,29,880
1289392,5006296,5238248,5010225,5239601,2301,2287,-172,-582,-2498,1155,-1480,4792,53,20,881
1290393,5006512,5238376,5010422,5239798,2468,2168,-134,-658,-2454,1152,-545,4462,53,20,881
1291394,5006736,5238528,5010619,5239995,2407,2038,-233,-715,-2372,562,-308,3131,49,17,879
1292395,5006988,5238672,5010816,5240192,2209,2111,-402,-583,-2284,386,-65,3907,49,17,879
1293396,5007236,5238800,5011013,5240389,2211,2242,-518,-368,-2178,110,29,3920,45,23,880
1294397,5007484,5238904,5011210,5240586,2190,2434,-606,-288,-2123,208,-1310,2574,45,23,880
1295398,5007732,5239008,5011407,5240783,2168,2475,-566,-159,-2134,992,-1827,4322,48,15,883
1296399,5007984,5239116,5011604,5240980,2120,2489,-411,-185,-2165,1310,-1670,3667,48,15,883
1297401,5008264,5239212,5011801,5241177,1909,2609,-240,-460,-2174,1000,-1348,2530,59,30,881
1298402,5008560,5239304,5011998,5241374,1766,2680,-82,-682,-2083,230,-885,3530,59,30,881
1299403,5008840,5239400,5012195,5241571,1831,2701,-4,-792,-1928,-156,-685,2612,56,17,879
1300404,5009112,5239512,5012392,5241768,1848,2638,-72,-988,-1823,245,-131,1489,56,17,879
1301405,5009416,5239640,5012589,5241965,1602,2568,-100,-960,-1741,-37,-785,3082,54,31,881
1302406,5009696,5239760,5012786,5242162,1715,2653,-69,-857,-1697,-174,-655,3355,54,31,881
1303407,5009996,5239868,5012983,5242359,1546,2767,-15,-1005,-1747,168,-495,2015,47,15,880
1304408,5010312,5239980,5013180,5242556,1395,2781,67,-1229,-1848,284,-999,2860,47,15,880
1305409,5010584,5240096,5013377,5242753,1637,2791,169,-1399,-1877,9,-859,3254,69,27,882
1306410,5010876,5240204,5013574,5242950,1471,2881,172,-1667,-1823,-122,4,1786,69,27,882
1307411,5011152,5240348,5013771,5243147,1536,2680,92,-1743,-1777,319,-212,2546,65,32,883
1308411,5011440,5240448,5013968,5243344,1422,2998,-22,-1598,-1757,386,-647,3382,65,32,883
1309413,5011728,5240560,5014165,5243541,1382,2961,-95,-1478,-1699,-51,-176,2805,67,18,880
1310413,5012020,5240696,5014362,5243738,1317,2838,-104,-1569,-1642,212,-277,2470,67,18,880
1311415,5012312,5240820,5014559,5243935,1275,2945,-54,-1705,-1653,799,-355,2977,64,35,881
1312416,5012612,5240972,5014756,5244132,1181,2791,34,-1901,-1620,71,-466,2943,64,35,881
1313417,5012864,5241088,5014953,5244329,1457,3053,105,-2207,-1546,-200,-214,2228,65,19,880
1314417,5013152,5241236,5015150,5244526,1192,2874,130,-2441,-1524,384,30,2301,65,19,880
1315418,5013432,5241372,5015347,5244723,1206,2977,113,-2559,-1497,122,95,2518,69,23,883
1316419,5013688,5241508,5015544,5244920,1330,3005,84,-2536,-1422,-82,170,2724,69,23,883
1317420,5013988,5241632,5015741,5245117,1010,3112,59,-2504,-1405,662,276,2445,51,34,883
1318421,5014236,5241788,5015938,5245314,1313,2931,30,-2440,-1394,778,-26,2823,51,34,883
1319423,5014504,5241908,5016135,5245511,1157,3191,107,-2387,-1311,685,-338,3224,61,31,881
1320423,5014752,5242044,5016332,5245708,1260,3118,159,-2542,-1211,630,375,2495,61,31,881
1321424,5014980,5242176,5016529,5245905,1372,3172,252,-2803,-1061,-193,534,1925,57,30,882
1322425,5015196,5242356,5016726,5246102,1439,2881,282,-3086,-939,193,361,2304,57,30,882
1323427,5015436,5242536,5016923,5246299,1270,2888,306,-3147,-872,283,437,2704,58,28,881
1324427,5015672,5242696,5017120,5246496,1279,3030,318,-3167,-853,510,523,2499,58,28,881
1325428,5015924,5242832,5017317,5246693,1155,3208,315,-3204,-858,522,719,3031,55,30,881
1326429,5016152,5243020,5017514,5246890,1291,2888,302,-3236,-829,291,1094,2856,55,30,881
1327430,5016400,5243180,5017711,5247087,1144,3079,216,-3317,-771,453,881,2751,57,40,882
1328431,5016624,5243360,5017908,5247284,1283,2963,130,-3328,-686,190,617,3268,57,40,882
1329432,5016852,5243564,5018105,5247481,1244,2811,54,-3430,-643,743,866,3223,57,46,883
1330434,5017120,5243748,5018302,5247678,963,2943,-12,-3578,-651,1051,964,3194,57,46,883
1331435,5017356,5243940,5018499,5247875,1146,2895,-46,-3756,-617,431,871,3557,50,40,882
1332436,5017612,5244120,5018696,5248072,996,2978,-94,-3958,-577,546,875,3531,50,40,882
1333436,5017880,5244308,5018893,5248269,890,2933,-182,-4074,-549,447,1003,3417,56,34,884
1334438,5018108,5244512,5019090,5248466,1126,2831,-297,-4090,-524,488,856,4036,56,34,884
1335439,5018344,5244676,5019287,5248663,1059,3096,-421,-4077,-466,176,650,3679,38,51,883
1336439,5018600,5244892,5019484,5248860,908,2763,-486,-4034,-373,65,846,4612,38,51,883
1337440,5018812,5245112,5019681,5249057,1176,2729,-549,-3837,-369,1376,738,5123,40,51,882
1338441,5019072,5245332,5019878,5249254,850,2720,-670,-3718,-343,767,902,3924,40,51,882
1339449,5019312,5245520,5020108,5249484,970,2938,-794,-3591,-178,14,866,4800,36,50,886
1340443,5019524,5245720,5020305,5249681,1139,2863,-821,-3423,-52,1092,-232,5240,36,50,886
1341444,5019752,5245916,5020502,5249878,1025,2890,-788,-3287,-7,1397,444,5462,55,34,886
1342445,5019948,5246144,5020699,5250075,1226,2677,-814,-3374,46,1239,406,3736,55,34,886
1343447,5020152,5246356,5020896,5250272,1172,2770,-818,-3404,152,960,146,5076,48,45,884
1344448,5020340,5246584,5021093,5250469,1277,2658,-771,-3457,271,637,-251,4826,48,45,884
1345448,5020524,5246808,5021290,5250666,1308,2672,-715,-3544,367,705,-254,4774,30,46,885
1346450,5020716,5246992,5021487,5250863,1260,2929,-668,-3483,452,1037,-972,5306,30,46,885
1347450,5020908,5247188,5021684,5251060,1263,2854,-625,-3226,521,1461,-468,6129,25,48,884
1348452,5021088,5247380,5021881,5251257,1345,2882,-640,-3005,525,2209,-1267,4953,25,48,884
1349452,5021268,5247596,5022078,5251454,1352,2725,-669,-2835,622,1109,-1253,5112,44,34,883
1350453,5021452,5247808,5022275,5251651,1333,2743,-656,-2619,803,965,-1278,6010,44,34,883
1351455,5021628,5248024,5022472,5251848,1393,2711,-586,-2582,940,1485,-1783,5130,37,33,883
1352456,5021804,5248256,5022669,5252045,1403,2597,-543,-2648,1063,1199,-1820,5034,37,33,883
1353456,5021976,5248476,5022866,5252242,1439,2662,-488,-2736,1183,627,-1879,5097,34,37,884
1354458,5022132,5248680,5023063,5252439,1557,2759,-416,-2773,1239,530,-2040,5330,34,37,884
1355459,5022308,5248916,5023260,5252636,1441,2543,-380,-2765,1220,679,-964,5112,44,47,885
1356460,5022448,5249140,5023457,5252833,1691,2607,-418,-2687,1224,625,-1705,4942,44,47,885
1357461,5022600,5249348,5023654,5253030,1637,2703,-501,-2503,1222,1168,-1776,5369,42,40,881
1358461,5022780,5249536,5023851,5253227,1469,2833,-550,-2300,1223,1132,-2201,5673,42,40,881
1359462,5022928,5249716,5024048,5253424,1691,2891,-552,-2210,1245,1219,-2008,5307,42,38,881
1360463,5023096,5249916,5024245,5253621,1578,2766,-508,-2248,1269,1664,-1874,5310,42,38,881
1361464,5023268,5250120,5024442,5253818,1564,2738,-421,-2382,1318,1495,-1408,5095,30,46,883
1362465,5023432,5250328,5024639,5254015,1630,2709,-283,-2542,1396,783,-1000,4942,30,46,883
1363467,5023564,5250508,5024836,5254212,1858,2892,-137,-2625,1393,1529,-935,5075,43,32,881
1364467,5023736,5250688,5025033,5254409,1619,2900,-8,-2602,1401,959,-651,4723,43,32,881
1365468,5023936,5250868,5025230,5254606,1443,2908,63,-2480,1379,1245,-642,4648,46,39,883
