"Data file recorded 2014/9/22  15:32:36"
"%  Right Stride Frequency         = 3.0"
"%  Left Stride Frequency         = 3.0"
"%  Phase (Fractional)         = 32768.0"
"%  Experiment.py "
"%  Motor Gains    = [1800, 200, 100, 0, 0, 1800, 200, 100, 0, 0]
"% Columns: "
"% time | Right Leg Pos | Left Leg Pos | Commanded Right Leg Pos | Commanded Left Leg Pos | DCR | DCL | GyroX | GryoY | GryoZ | AX | AY | AZ | RBEMF | LBEMF | VBatt "
12116,1785436,1819284,1802356,1835124,3800,3800,5,128,238,241,-471,4067,-6,-1,903
13110,1785440,1819280,1802553,1835321,3800,3800,4,126,239,214,-471,4080,-6,-1,903
14111,1785492,1819288,1802750,1835518,3800,3800,3,122,242,227,-486,4049,15,11,903
15112,1785584,1819288,1802947,1835715,3800,3800,2,108,240,217,-534,4071,15,11,903
16113,1785792,1819500,1803144,1835912,3800,3800,3,93,246,244,-523,4082,21,54,862
17114,1785988,1819760,1803341,1836109,3800,3800,4,154,259,307,-583,4113,21,54,862
18115,1786228,1820060,1803538,1836306,3800,3800,2,171,257,299,-688,4128,61,52,863
19116,1786508,1820500,1803735,1836503,3800,3800,-12,215,213,260,-917,4224,61,52,863
20117,1786844,1820760,1803932,1836700,3800,3800,-36,258,152,449,-885,4192,76,57,865
21118,1787168,1821048,1804129,1836897,3800,3800,-46,269,107,702,-512,4079,76,57,865
22119,1787512,1821400,1804326,1837094,3800,3800,-64,384,81,954,-604,4516,82,68,865
23120,1787872,1821776,1804523,1837291,3800,3800,-112,627,21,1019,-695,4533,82,68,865
24121,1788228,1822184,1804720,1837488,3800,3800,-171,867,-50,1104,-525,4512,95,83,867
25122,1788600,1822744,1804917,1837685,3800,3800,-211,1097,-79,1476,-203,4492,95,83,867
26123,1788976,1823272,1805114,1837882,3800,3800,-219,1162,-53,1726,89,4135,89,107,867
27111,1789312,1823872,1805311,1838079,3800,3769,-173,1117,-11,1862,349,3976,89,107,867
28112,1789660,1824456,1805508,1838276,3800,3701,-57,1045,1,1780,628,3641,77,122,868
29113,1790028,1825088,1805705,1838473,3800,3213,125,867,-20,1598,952,3336,77,122,868
30114,1790348,1825748,1805902,1838670,3800,2837,354,676,-59,1449,965,3566,73,129,869
31115,1790664,1826384,1806099,1838867,3800,2796,554,728,-68,1191,311,4486,73,129,869
32116,1790976,1827040,1806296,1839064,3800,2471,704,1131,-10,875,-316,5509,68,129,871
33117,1791252,1827640,1806493,1839261,3800,2647,1164,2392,117,972,-1650,11871,68,129,871
34119,1791476,1828288,1806690,1839458,3800,2151,2113,5015,242,1397,-2783,20221,66,125,873
35120,1791704,1828932,1806887,1839655,3800,1982,2663,6485,310,740,-1659,6582,66,125,873
36121,1791932,1829544,1807084,1839852,3800,2001,2707,6786,350,873,-1236,4797,62,126,873
37121,1792156,1830116,1807281,1840049,3800,2089,2589,6461,394,1006,-1075,3783,62,126,873
38122,1792376,1830676,1807478,1840246,3800,2006,2540,6365,442,1086,-1022,4258,63,108,874
39123,1792548,1831192,1807675,1840443,3800,2143,2523,6435,508,938,-1254,4154,63,108,874
40124,1792720,1831556,1807872,1840640,3800,3021,2529,6494,581,976,-1414,3824,35,88,874
41125,1792880,1831948,1808069,1840837,3800,2762,2541,6368,627,1106,-1128,3399,35,88,874
42126,1793044,1832240,1808266,1841034,3800,3347,2555,6101,648,1283,-441,3111,44,72,873
43140,1793188,1832456,1808463,1841231,3800,3800,2534,5867,676,1599,232,3408,44,72,873
44141,1793308,1832624,1808660,1841428,3800,3800,2457,5799,688,1480,538,3833,26,36,868
45142,1793456,1832748,1808857,1841625,3800,3800,2327,5911,644,990,775,4321,26,36,868
46143,1793576,1832876,1809054,1841822,3800,3800,2196,6157,546,479,1005,4644,37,37,859
47144,1793696,1832976,1809251,1842019,3800,3800,2067,6373,321,-304,1357,4598,37,37,859
48145,1793840,1833084,1809448,1842216,3800,3800,1988,6572,-23,-1055,1639,4521,27,27,859
49146,1793968,1833168,1809645,1842413,3800,3800,1924,6728,-458,-1747,1929,4325,27,27,859
50147,1794076,1833232,1809842,1842610,3800,3800,1851,6787,-923,-2187,2118,4265,41,16,858
51148,1794212,1833296,1810039,1842807,3800,3800,1760,6895,-1300,-2271,2068,4372,41,16,858
52149,1794320,1833348,1810236,1843004,3800,3800,1608,6929,-1584,-2502,1737,4368,37,19,860
53150,1794452,1833412,1810433,1843201,3800,3800,1459,6950,-1754,-2493,1333,4229,37,19,860
54151,1794620,1833464,1810630,1843398,3800,3800,1340,6837,-1833,-2488,1188,3686,33,6,859
55152,1794776,1833512,1810827,1843595,3800,3800,1232,6427,-1903,-2452,1439,2686,33,6,859
56153,1794972,1833548,1811024,1843792,3800,3800,1136,5543,-1980,-2145,2010,1668,29,23,859
57154,1795196,1833612,1811221,1843989,3800,3800,1062,4285,-2004,-1932,1380,857,29,23,859
58155,1795420,1833668,1811418,1844186,3800,3800,975,2920,-1974,-2265,-117,828,54,22,861
59156,1795632,1833744,1811615,1844383,3800,3800,890,1622,-1944,-3058,-694,916,54,22,861
60157,1795868,1833816,1811812,1844580,3800,3800,788,195,-1917,-2823,8,562,53,12,859
61158,1796068,1833896,1812009,1844777,3800,3800,597,-1443,-1871,-2485,226,529,53,12,859
62159,1796296,1834000,1812206,1844974,3800,3800,331,-2715,-1770,-2128,-42,1562,41,30,861
63160,1796504,1834120,1812403,1845171,3800,3800,44,-3932,-1614,-2033,-268,1420,41,30,861
64161,1796668,1834224,1812600,1845368,3800,3800,-262,-4797,-1464,-1674,-457,2599,45,38,860
65162,1796848,1834396,1812797,1845565,3800,3800,-561,-5469,-1361,-1511,-646,2645,45,38,860
66163,1797012,1834564,1812994,1845762,3800,3800,-816,-6095,-1285,-1337,-636,2661,48,31,861
67164,1797176,1834728,1813191,1845959,3800,3800,-1048,-6460,-1221,-1333,-656,3325,48,31,861
68165,1797308,1834908,1813388,1846156,3800,3800,-1265,-6833,-1207,-1313,-554,3014,24,37,861
69166,1797440,1835064,1813585,1846353,3800,3800,-1496,-7124,-1216,-963,-920,3691,24,37,861
70167,1797580,1835220,1813782,1846550,3800,3800,-1735,-7128,-1125,-594,-1579,4400,22,38,859
71168,1797684,1835356,1813979,1846747,3800,3800,-1945,-7028,-911,-274,-2139,4829,22,38,859
72169,1797816,1835512,1814176,1846944,3800,3800,-2115,-6658,-655,138,-2293,5450,40,39,859
73170,1797916,1835620,1814373,1847141,3800,3800,-2222,-6322,-424,333,-1938,5125,40,39,859
74171,1798012,1835740,1814570,1847338,3800,3800,-2251,-6034,-261,682,-1605,4875,19,33,860
75172,1798088,1835856,1814767,1847535,3800,3800,-2204,-5845,-179,961,-1231,4564,19,33,860
76173,1798176,1835944,1814964,1847732,3800,3800,-2058,-5841,-128,1167,-980,4022,29,34,858
77174,1798236,1836036,1815161,1847929,3800,3800,-1866,-5828,-86,1602,-948,4156,29,34,858
78175,1798276,1836120,1815358,1848126,3800,3800,-1656,-5780,-36,1821,-913,4036,25,13,858
79176,1798332,1836196,1815555,1848323,3800,3800,-1432,-5697,31,1908,-784,4164,25,13,858
80177,1798384,1836252,1815752,1848520,3800,3800,-1176,-5483,83,2033,-717,4282,24,15,858
81178,1798416,1836304,1815949,1848717,3800,3800,-871,-5269,135,2024,-542,4213,24,15,858
82179,1798468,1836360,1816146,1848914,3800,3800,-537,-4962,203,1953,-397,4452,23,20,857
83180,1798472,1836428,1816343,1849111,3800,3800,-188,-4656,261,1774,-275,4308,23,20,857
84181,1798484,1836468,1816540,1849308,3800,3800,159,-4333,307,1597,-140,4489,5,18,857
85182,1798500,1836520,1816737,1849505,3800,3800,485,-3842,346,1387,39,4808,5,18,857
86183,1798504,1836568,1816934,1849702,3800,3800,796,-3281,396,1122,105,4837,9,25,857
87184,1798516,1836632,1817131,1849899,3800,3800,1077,-2588,457,799,186,5110,9,25,857
88185,1798512,1836684,1817328,1850096,3800,3800,1331,-1871,525,462,291,5132,16,21,854
89186,1798520,1836744,1817525,1850293,3800,3800,1550,-1153,606,205,190,5106,16,21,854
90187,1798528,1836824,1817722,1850490,3800,3800,1700,-352,679,-73,356,5579,17,26,857
91188,1798548,1836908,1817919,1850687,3800,3800,1768,585,719,-131,933,5860,17,26,857
92189,1798576,1836972,1818116,1850884,3800,3800,1780,1551,761,-73,867,5790,15,28,856
93190,1798596,1837040,1818313,1851081,3800,3800,1749,2541,831,-100,704,5761,15,28,856
94198,1798640,1837116,1818740,1851508,3800,3800,1644,3450,933,-180,515,5743,18,28,856
95192,1798692,1837224,1818937,1851705,3800,3800,1464,4323,1045,-51,500,5479,18,28,856
96193,1798740,1837324,1819134,1851902,3800,3800,1287,4883,1144,-51,573,4420,21,32,858
97194,1798804,1837424,1819331,1852099,3800,3800,1172,5099,1215,-84,678,3379,21,32,858
98195,1798852,1837524,1819528,1852296,3800,3800,1096,5007,1227,-203,702,2608,25,16,858
99196,1798888,1837652,1819725,1852493,3800,3800,1028,4730,1189,-379,493,2034,25,16,858
100197,1798944,1837772,1819922,1852690,3800,3800,967,4318,1139,-453,182,1524,18,23,858
101198,1799004,1837932,1820119,1852887,3800,3800,913,3777,1081,-596,-316,1204,18,23,858
102199,1799044,1838068,1820316,1853084,3800,3800,838,3238,1011,-691,-786,1529,12,35,859
103200,1799108,1838240,1820513,1853281,3800,3800,717,2744,930,-821,-1072,1588,12,35,859
104201,1799168,1838408,1820710,1853478,3800,3800,576,2228,831,-901,-1062,1375,25,28,857
105202,1799204,1838584,1820907,1853675,3800,3800,424,1705,714,-805,-882,1444,25,28,857
106203,1799212,1838776,1821104,1853872,3800,3800,272,1216,585,-682,-683,1584,18,46,856
107204,1799244,1838944,1821301,1854069,3800,3800,115,769,443,-595,-704,1938,18,46,856
108205,1799260,1839112,1821498,1854266,3800,3800,-44,412,294,-572,-764,2220,20,35,858
109206,1799288,1839268,1821695,1854463,3800,3800,-216,110,138,-620,-816,2653,20,35,858
110207,1799320,1839484,1821892,1854660,3800,3800,-405,-58,-34,-604,-682,3055,19,46,858
111208,1799344,1839676,1822089,1854857,3800,3800,-600,-175,-194,-443,-426,3311,19,46,858
112209,1799376,1839912,1822286,1855054,3800,3800,-795,-190,-303,-217,-345,3630,20,45,859
113210,1799428,1840144,1822483,1855251,3800,3800,-989,-185,-349,-60,-379,3857,20,45,859
114211,1799468,1840368,1822680,1855448,3800,3800,-1167,-148,-351,14,-280,4011,22,54,858
115212,1799516,1840604,1822877,1855645,3800,3800,-1322,-103,-342,100,57,4310,22,54,858
116213,1799564,1840832,1823074,1855842,3800,3800,-1460,21,-380,220,532,4693,24,42,858
117214,1799624,1841100,1823271,1856039,3800,3800,-1588,192,-468,351,959,4923,24,42,858
118215,1799680,1841340,1823468,1856236,3800,3800,-1703,388,-580,444,1254,4995,24,45,857
119216,1799748,1841580,1823665,1856433,3800,3800,-1793,507,-710,508,1463,4802,24,45,857
120217,1799840,1841804,1823862,1856630,3800,3800,-1835,506,-839,505,1461,4544,24,52,858
121218,1799940,1842056,1824059,1856827,3800,3800,-1849,392,-926,425,1123,4303,24,52,858
122219,1800056,1842316,1824256,1857024,3800,3800,-1859,157,-954,257,748,4014,26,57,860
123220,1800200,1842596,1824453,1857221,3800,3800,-1849,-132,-933,138,499,3850,26,57,860
124221,1800320,1842828,1824650,1857418,3800,3800,-1834,-428,-860,34,224,3921,36,45,860
125222,1800468,1843072,1824847,1857615,3800,3800,-1819,-719,-733,-195,-232,3799,36,45,860
126223,1800632,1843300,1825044,1857812,3800,3800,-1775,-1126,-566,-534,-706,3521,29,49,860
127224,1800756,1843552,1825241,1858009,3800,3800,-1690,-1593,-377,-800,-931,3437,29,49,860
128225,1800896,1843800,1825438,1858206,3800,3800,-1587,-2110,-168,-1015,-998,3539,22,59,859
129226,1801008,1844040,1825635,1858403,3800,3800,-1471,-2549,57,-1137,-1007,3650,22,59,859
130227,1801120,1844260,1825832,1858600,3800,3800,-1357,-2933,295,-1345,-1130,3889,19,54,860
131228,1801244,1844444,1826029,1858797,3800,3800,-1253,-3200,533,-1443,-931,4182,19,54,860
132229,1801348,1844640,1826226,1858994,3800,3800,-1121,-3453,751,-1639,-679,4275,30,39,860
133230,1801436,1844840,1826423,1859191,3800,3800,-691,-3795,943,-1820,-577,6298,30,39,860
134231,1801508,1845052,1826620,1859388,3800,3800,567,-4178,1095,-1317,-483,14387,32,34,859
135232,1801600,1845224,1826817,1859585,3800,3800,1727,-4177,1282,-1375,-639,11092,32,34,859
136233,1801668,1845396,1827014,1859782,3800,3800,2041,-4002,1538,-1956,-510,6132,19,32,858
137234,1801752,1845568,1827211,1859979,3800,3800,1825,-3594,1752,-2042,215,6334,19,32,858
138235,1801836,1845752,1827408,1860176,3800,3800,1540,-3048,1846,-1827,1467,6590,22,48,856
139236,1801928,1845912,1827605,1860373,3800,3800,1378,-2634,1861,-1633,1941,5979,22,48,856
140237,1802028,1846092,1827802,1860570,3800,3800,1306,-2330,1866,-1148,2488,5688,11,41,859
141238,1802112,1846264,1827999,1860767,3800,3800,1247,-2232,1859,-814,3097,5175,11,41,859
142239,1802224,1846472,1828196,1860964,3800,3800,1184,-2170,1782,-575,3472,4877,32,49,859
143240,1802332,1846664,1828393,1861161,3800,3800,1068,-2030,1700,-342,3191,5136,32,49,859
144241,1802424,1846856,1828590,1861358,3800,3800,864,-1763,1709,-59,2686,5527,15,32,859
145242,1802528,1847064,1828787,1861555,3800,3800,643,-1563,1698,160,3041,4990,15,32,859
146243,1802648,1847264,1828984,1861752,3800,3800,507,-1579,1610,346,3448,4209,18,44,859
147244,1802760,1847440,1829181,1861949,3800,3800,426,-1768,1504,606,3108,4013,18,44,859
148245,1802872,1847628,1829378,1862146,3800,3800,360,-1963,1435,690,2457,3775,25,40,858
149246,1802996,1847868,1829575,1862343,3800,3800,330,-2291,1406,721,2005,3283,25,40,858
150247,1803104,1848100,1829772,1862540,3800,3800,339,-2578,1371,625,1528,3223,14,51,860
151248,1803232,1848332,1829969,1862737,3800,3800,378,-2898,1333,376,894,3062,14,51,860
152249,1803348,1848568,1830166,1862934,3800,3800,440,-3182,1326,295,395,3164,19,43,860
153250,1803476,1848832,1830363,1863131,3800,3800,492,-3317,1338,234,75,3721,19,43,860
154251,1803616,1849116,1830560,1863328,3800,3800,536,-3261,1346,132,-15,3982,26,50,860
155252,1803764,1849400,1830757,1863525,3800,3800,579,-3065,1342,65,181,4325,26,50,860
156253,1803880,1849724,1830954,1863722,3800,3800,620,-2746,1313,-12,199,4713,23,68,860
157254,1804044,1850004,1831151,1863919,3800,3800,647,-2251,1297,13,131,5153,23,68,860
158255,1804208,1850288,1831348,1864116,3800,3800,670,-1607,1323,-142,169,5459,36,73,860
159256,1804404,1850632,1831545,1864313,3800,3800,725,-1028,1321,-448,266,5212,36,73,860
160257,1804604,1851020,1831742,1864510,3800,3800,799,-490,1306,-454,430,5193,44,67,861
161258,1804808,1851404,1831939,1864707,3800,3800,898,-21,1309,-182,891,4771,44,67,861
162259,1805016,1851812,1832136,1864904,3800,3800,1000,394,1284,-50,1336,4661,35,73,862
163260,1805232,1852292,1832333,1865101,3800,3800,1113,759,1205,-161,1670,4274,35,73,862
164261,1805460,1852716,1832530,1865298,3800,3800,1248,943,1059,-185,2043,3800,52,88,864
165262,1805716,1853220,1832727,1865495,3800,3800,1363,1042,860,-5,2090,3408,52,88,864
166250,1805952,1853784,1832924,1865692,3800,3326,1446,1031,683,3,2039,3072,60,85,864
167251,1806264,1854292,1833121,1865889,3800,3541,1530,993,581,100,1802,3040,60,85,864
168252,1806584,1854880,1833318,1866086,3800,2872,1586,1003,517,300,1452,3143,64,114,865
169254,1806920,1855480,1833515,1866283,3800,2622,1632,1045,477,265,1186,2866,64,114,865
170255,1807292,1856056,1833712,1866480,3800,2607,1682,997,414,115,1058,2676,76,118,865
171255,1807684,1856696,1833909,1866677,3800,2015,1740,856,279,53,935,2325,76,118,865
172256,1808104,1857404,1834106,1866874,3800,1367,1822,555,90,-95,682,1868,77,120,872
173257,1808596,1858088,1834303,1867071,3800,1304,1923,224,-128,-145,105,1754,77,120,872
174258,1809072,1858744,1834500,1867268,3800,1279,1977,-20,-322,-114,-495,1952,87,145,876
175259,1809572,1859420,1834697,1867465,3800,946,1989,-161,-476,-302,-714,2047,87,145,876
176260,1810152,1860048,1834894,1867662,3800,1057,1962,-309,-593,-211,-778,1927,115,132,878
177268,1810680,1860800,1835124,1867892,3800,55,1934,-452,-659,1,-610,1716,115,132,878
178262,1811280,1861340,1835321,1868089,3800,1230,1938,-667,-659,130,-270,1473,109,130,881
179263,1811912,1861968,1835518,1868286,3800,492,2001,-1070,-672,341,191,910,109,130,881
180264,1812512,1862528,1835715,1868483,3800,759,2117,-1502,-743,310,232,757,110,110,882
181265,1813144,1863044,1835912,1868680,3800,895,2227,-1686,-831,-190,-725,1451,110,110,882
182267,1813836,1863624,1836109,1868877,3800,328,2298,-1619,-871,-988,-1993,1943,126,114,882
183268,1814532,1864124,1836306,1869074,3800,696,2310,-1312,-883,-1480,-3038,2874,126,114,882
184269,1815228,1864724,1836503,1869271,3800,-105,2298,-778,-849,-1649,-3384,3089,120,114,882
185270,1816020,1865136,1836700,1869468,3800,976,2278,-358,-790,-1676,-3432,2794,120,114,882
186271,1816788,1865472,1836897,1869665,3800,1390,2351,-93,-739,-1711,-3114,2121,158,88,884
187272,1817540,1865932,1837094,1869862,3800,501,2412,-67,-697,-1645,-2934,1815,158,88,884
188273,1818256,1866424,1837291,1870059,3800,172,2530,-92,-652,-1243,-3058,1290,146,99,883
189274,1819112,1866928,1837488,1870256,3800,-37,2601,-320,-584,-1033,-3335,874,146,99,883
190275,1819820,1867400,1837685,1870453,3800,42,2725,-494,-421,-1004,-4333,1153,156,103,885
191276,1820560,1867684,1837882,1870650,3800,1180,2785,-664,-161,-714,-4978,1302,156,103,885
192277,1821332,1867964,1838079,1870847,3800,1168,2859,-825,104,-158,-4677,865,143,82,884
193278,1821976,1868320,1838276,1871044,3800,625,2940,-1273,290,678,-4269,0,143,82,884
194279,1822640,1868664,1838473,1871241,3800,635,3000,-1935,374,1323,-4031,-210,137,65,881
195280,1823312,1869008,1838670,1871438,3800,571,3003,-2689,406,1939,-3784,-416,137,65,881
196281,1823968,1869324,1838867,1871635,3800,694,2951,-3296,409,2410,-3735,-73,129,78,884
197282,1824572,1869612,1839064,1871832,3800,830,2828,-3808,310,2744,-3419,184,129,78,884
198270,1825364,1869888,1839261,1872029,3114,870,2654,-3986,192,3108,-3509,1145,139,53,883
199284,1825968,1870148,1839458,1872226,3800,944,2326,-3745,84,3219,-3308,2399,139,53,883
200272,1826720,1870332,1839655,1872423,2946,1424,1937,-3109,-24,3024,-2921,3070,150,56,882
201273,1827424,1870504,1839852,1872620,3026,1510,1533,-2429,-164,3238,-1986,2934,150,56,882
202274,1828188,1870664,1840049,1872817,2404,1603,1209,-1933,-369,3832,-749,2427,149,32,882
203275,1828772,1870848,1840246,1873014,3362,1458,860,-1394,-587,4581,-85,3147,149,32,882
204276,1829512,1870996,1840443,1873211,2150,1706,435,-692,-821,4755,542,3577,145,36,882
205277,1830068,1871152,1840640,1873408,3144,1674,-19,131,-1015,4707,639,3718,145,36,882
206278,1830668,1871296,1840837,1873605,2694,1773,-505,977,-1206,4677,1135,3718,113,32,882
207279,1831224,1871428,1841034,1873802,2814,1877,-1021,1623,-1378,4829,1400,3161,113,32,882
208280,1831836,1871564,1841231,1873999,2283,1879,-2121,2668,-1823,4857,1361,3459,121,28,881
209281,1832356,1871704,1841428,1874196,2717,1880,-3279,4172,-2047,4553,-221,7279,121,28,881
210282,1832932,1871860,1841625,1874393,2203,1798,-4460,5499,-2192,4402,-1167,4554,102,24,882
211283,1833556,1871956,1841822,1874590,1717,2218,-5281,6048,-2408,4209,-380,3165,102,24,882
212284,1834048,1872068,1842019,1874787,2413,2155,-6072,6473,-2878,4106,579,4462,114,27,883
213285,1834592,1872188,1842216,1874984,1938,2140,-6970,6948,-3525,4034,210,4434,114,27,883
214286,1835096,1872280,1842413,1875181,2054,2361,-7665,7087,-4021,4115,-927,2888,93,20,883
215287,1835636,1872388,1842610,1875378,1680,2301,-8237,6863,-4327,3991,-1835,2766,93,20,883
216288,1836160,1872524,1842807,1875575,1638,2154,-8647,6296,-4648,3378,-2870,1544,93,34,884
217289,1836672,1872644,1843004,1875772,1575,2288,-8770,5299,-5050,2529,-4030,161,93,34,884
218290,1837180,1872756,1843201,1875969,1465,2376,-8733,4116,-5466,1811,-4330,344,88,20,884
219291,1837660,1872896,1843398,1876166,1517,2227,-8655,3075,-5784,1137,-4511,1138,88,20,884
220292,1838172,1873040,1843595,1876363,1180,2226,-8592,2355,-5955,544,-4548,1942,91,35,885
221293,1838680,1873232,1843792,1876560,1069,1929,-8464,1811,-5988,-169,-4617,2703,91,35,885
222294,1839172,1873356,1843989,1876757,1040,2386,-8259,1329,-5959,-850,-4309,3101,90,30,886
223295,1839652,1873496,1844186,1876954,992,2312,-7984,934,-5870,-1625,-4162,3702,90,30,886
224296,1840140,1873656,1844383,1877151,815,2204,-5576,2490,-5383,-4050,-6385,23600,101,26,888
225297,1840544,1873808,1844580,1877348,1249,2274,1247,12339,-3747,-9399,-11398,32767,101,26,888
226298,1841028,1873996,1844777,1877545,624,2054,6725,17700,-2718,-2296,-3722,15130,89,46,885
227299,1841460,1874172,1844974,1877742,847,2139,7405,15634,-2479,-172,-2394,-1171,89,46,885
228300,1841904,1874380,1845171,1877939,664,1935,6230,11336,-2269,377,-5305,-3298,73,40,886
229301,1842332,1874556,1845368,1878136,663,2145,5004,7292,-1735,1823,-5311,-3407,73,40,886
230302,1842788,1874748,1845565,1878333,375,2048,4800,4654,-1127,1856,-1963,-3777,85,50,889
231303,1843192,1874964,1845762,1878530,609,1890,4807,1766,-928,2508,589,-3596,85,50,889
232304,1843544,1875180,1845959,1878727,867,1882,4516,-410,-1042,2746,270,-1329,63,41,889
233305,1843912,1875380,1846156,1878924,692,1982,3686,-2159,-898,2010,-156,475,63,41,889
234306,1844208,1875624,1846353,1879121,1099,1686,2673,-3393,-594,2758,898,1592,73,56,891
235307,1844492,1875816,1846550,1879318,1136,2014,1872,-4796,-488,3318,3189,403,73,56,891
236308,1844784,1876024,1846747,1879515,1044,1911,1591,-6556,-550,2692,4576,219,49,36,889
237309,1845044,1876236,1846944,1879712,1217,1879,1221,-7667,-686,3018,4619,2977,49,36,889
238310,1845320,1876452,1847141,1879909,1083,1847,577,-7823,-907,3103,5484,5506,43,37,888
239311,1845592,1876652,1847338,1880106,1076,1946,-8,-7605,-1119,2126,5955,5820,43,37,888
240312,1845816,1876864,1847535,1880303,1364,1865,-356,-7087,-1490,1608,6142,6489,41,56,889
241313,1846040,1877104,1847732,1880500,1352,1672,-639,-6724,-1985,1083,5428,6804,41,56,889
242314,1846284,1877320,1847929,1880697,1207,1815,-941,-5868,-2350,814,4203,8575,55,38,890
243315,1846464,1877544,1848126,1880894,1615,1753,-1355,-4649,-2544,811,3653,8703,55,38,890
244316,1846692,1877720,1848323,1881091,1301,2063,-1847,-3507,-2629,691,3235,8412,36,50,889
245317,1846944,1877916,1848520,1881288,1127,1938,-2335,-2195,-2634,272,2968,9026,36,50,889
246318,1847124,1878120,1848717,1881485,1586,1886,-2736,-1127,-2707,-67,2812,7703,30,41,887
247319,1847332,1878332,1848914,1881682,1406,1831,-2989,-450,-2906,-178,2424,6542,30,41,887
248320,1847516,1878536,1849111,1881879,1561,1878,-3105,-7,-3082,-407,2053,5504,39,33,887
249321,1847712,1878748,1849308,1882076,1488,1822,-3074,-16,-3196,45,1677,3846,39,33,887
250322,1847888,1878952,1849505,1882273,1622,1870,-2948,-232,-3262,799,1338,3160,49,43,888
251323,1848120,1879140,1849702,1882470,1257,1974,-2744,-606,-3177,943,577,2445,49,43,888
252324,1848344,1879320,1849899,1882667,1296,2032,-2518,-1016,-2916,1327,-378,2366,55,43,888
253325,1848536,1879476,1850096,1882864,1498,2201,-2292,-1406,-2518,1592,-846,2229,55,43,888
254326,1848744,1879688,1850293,1883061,1393,1845,-2001,-1939,-2028,1474,-822,1479,34,30,888
255327,1848920,1879844,1850490,1883258,1602,2214,-1655,-2510,-1552,1548,-763,1118,34,30,888
256328,1849104,1880028,1850687,1883455,1559,2046,-1262,-3191,-1134,1235,-763,531,31,31,885
257329,1849276,1880220,1850884,1883652,1645,1998,-848,-3857,-741,783,-856,768,31,31,885
258330,1849488,1880400,1851081,1883849,1389,2081,-460,-4168,-368,617,-1138,1589,29,34,883
259331,1849672,1880560,1851278,1884046,1570,2222,-119,-4220,-25,253,-1178,2147,29,34,883
260341,1849872,1880744,1851508,1884276,1483,2094,154,-3882,300,-245,-1370,3348,43,32,886
261333,1850076,1880916,1851705,1884473,1455,2181,367,-3195,593,-671,-1662,4086,43,32,886
262334,1850236,1881084,1851902,1884670,1748,2218,537,-2266,818,-1175,-1759,4728,47,44,885
263335,1850392,1881256,1852099,1884867,1791,2205,668,-1140,936,-1601,-1462,5114,47,44,885
264336,1850576,1881448,1852296,1885064,1621,2084,792,-146,920,-1884,-1165,4727,22,37,886
265337,1850716,1881652,1852493,1885261,1922,2006,871,783,787,-1965,-971,4619,22,37,886
266338,1850832,1881836,1852690,1885458,2108,2137,895,1627,615,-1799,-781,4337,42,37,884
267339,1850952,1882036,1852887,1885655,2117,2037,855,2459,460,-1411,-470,4311,42,37,884
268340,1851116,1882212,1853084,1885852,1857,2197,787,3297,372,-973,-658,4387,43,34,883
269341,1851284,1882404,1853281,1886049,1845,2099,734,4072,312,-641,-623,3956,43,34,883
270342,1851456,1882600,1853478,1886246,1831,2076,718,4609,236,-200,-499,3199,33,29,882
271343,1851624,1882820,1853675,1886443,1870,1917,682,4840,151,205,-486,2444,33,29,882
272344,1851760,1883004,1853872,1886640,2097,2147,621,4871,71,504,-702,2031,35,31,884
273345,1851928,1883212,1854069,1886837,1910,1994,559,4786,19,740,-1305,1752,35,31,884
274346,1852064,1883388,1854266,1887034,2137,2204,495,4667,-5,835,-1791,1551,25,40,885
275347,1852172,1883592,1854463,1887231,2351,2026,404,4539,5,851,-2071,1506,25,40,885
276348,1852320,1883812,1854660,1887428,2124,1917,274,4326,46,914,-2219,1325,19,38,885
277349,1852436,1884008,1854857,1887625,2359,2068,117,4053,138,1073,-2364,1234,19,38,885
278350,1852540,1884224,1855054,1887822,2476,1936,-57,3802,295,1155,-2394,1358,38,32,881
279351,1852668,1884424,1855251,1888019,2357,2034,-231,3589,501,1053,-2418,1593,38,32,881
280352,1852800,1884608,1855448,1888216,2361,2141,-407,3500,707,846,-2363,1899,34,34,880
281353,1852944,1884848,1855645,1888413,2309,1773,-596,3476,841,544,-2372,2126,34,34,880
282354,1853072,1885112,1855842,1888610,2441,1594,-802,3464,878,270,-2642,2224,38,38,882
283355,1853196,1885344,1856039,1888807,2498,1779,-1004,3439,849,-4,-2865,2407,38,38,882
284356,1853320,1885588,1856236,1889004,2531,1685,-1195,3483,808,-131,-3034,2811,36,52,883
285357,1853444,1885876,1856433,1889201,2563,1370,-1390,3691,818,-239,-3157,3376,36,52,883
286358,1853580,1886068,1856630,1889398,2516,1973,-1594,4080,931,-534,-3448,4098,28,37,882
287359,1853716,1886236,1856827,1889595,2543,2136,-1797,4643,1114,-740,-3207,4614,28,37,882
288360,1853852,1886352,1857024,1889792,2570,2497,-1969,5244,1253,-975,-2652,4727,42,29,882
289361,1853996,1886516,1857221,1889989,2545,2213,-2070,5685,1290,-1260,-2145,4461,42,29,882
290362,1854120,1886684,1857418,1890186,2702,2200,-2105,5956,1275,-1470,-2076,4083,42,41,879
291363,1854256,1886892,1857615,1890383,2655,1947,-2106,6046,1286,-1524,-2336,3791,42,41,879
292364,1854392,1887164,1857812,1890580,2682,1515,-2099,6184,1387,-1502,-2794,3994,28,51,878
293365,1854504,1887444,1858009,1890777,2870,1428,-2074,6305,1565,-1591,-3158,4043,28,51,878
294366,1854636,1887668,1858206,1890974,2774,1767,-2009,6306,1763,-1615,-3163,3890,19,51,880
295367,1854752,1887960,1858403,1891171,2911,1302,-1893,6250,1962,-1636,-2914,3804,19,51,880
296368,1854884,1888284,1858600,1891368,2840,1046,-1749,6049,2138,-1808,-2554,3331,42,53,881
297369,1854996,1888588,1858797,1891565,3003,1125,-1571,5639,2280,-1914,-2396,2887,42,53,881
298370,1855156,1888880,1858994,1891762,2720,1158,-1355,5095,2391,-2145,-2243,2757,28,64,881
299371,1855284,1889184,1859191,1891959,2950,1037,-1116,4570,2497,-2275,-2095,2870,28,64,881
300372,1855444,1889472,1859388,1892156,2768,1098,-882,4086,2607,-2294,-1954,3047,31,68,882
301373,1855576,1889748,1859585,1892353,2972,1138,-671,3650,2699,-2404,-1549,3141,31,68,882
302374,1855740,1889992,1859782,1892550,2788,1319,-471,3246,2764,-2548,-1090,3448,41,53,881
303375,1855868,1890328,1859979,1892747,3043,683,-270,2881,2788,-2613,-770,3616,41,53,881
304376,1856008,1890640,1860176,1892944,2994,782,-55,2515,2788,-2762,-401,3729,36,62,882
305377,1856128,1890928,1860373,1893141,3154,893,176,2194,2750,-2976,54,3939,36,62,882
306378,1856224,1891232,1860570,1893338,3349,746,397,1898,2648,-3188,663,4148,36,65,882
307379,1856308,1891484,1860767,1893535,3475,1048,609,1661,2491,-3373,1191,4328,36,65,882
308379,1856412,1891776,1860964,1893732,3391,756,1125,1177,2298,-3262,1615,6001,35,69,881
309381,1856516,1892104,1861161,1893929,3433,475,2638,102,2013,-2581,2157,14492,35,69,881
310381,1856612,1892380,1861358,1894126,3528,765,3687,-341,1777,-2856,1999,8354,22,57,878
311383,1856712,1892592,1861555,1894323,3547,1158,3778,-345,1640,-3195,1835,5431,22,57,878
312396,1856780,1892752,1861752,1894520,3800,1500,3438,-43,1487,-3089,1995,5954,28,37,878
313398,1856848,1892928,1861949,1894717,3800,1410,3158,152,1249,-3047,2894,5212,28,37,878
314399,1856932,1893140,1862146,1894914,3800,1178,3042,20,957,-2861,3243,4578,8,43,875
315400,1857004,1893320,1862343,1895111,3800,1387,2990,-188,653,-2665,3359,4374,8,43,875
316401,1857100,1893492,1862540,1895308,3800,1448,2932,-534,422,-2640,3429,4061,14,31,873
317402,1857208,1893672,1862737,1895505,3800,1405,2812,-803,304,-2221,3292,4307,14,31,873
318403,1857312,1893840,1862934,1895702,3800,1494,2642,-1039,274,-2020,3169,4059,35,44,873
319391,1857460,1894000,1863131,1895899,3619,1560,2433,-1292,296,-1721,3425,4241,35,44,873
320405,1857584,1894148,1863328,1896096,3800,1657,2170,-1514,305,-1168,3799,4021,39,44,874
321393,1857724,1894292,1863525,1896293,3728,1706,1860,-1878,260,-919,3612,3757,39,44,874
322407,1857832,1894452,1863722,1896490,3800,1622,1429,-2026,217,-409,3004,4892,34,45,874
323408,1857956,1894608,1863919,1896687,3800,1665,886,-1953,223,193,2461,5114,34,45,874
324409,1858052,1894752,1864116,1896884,3800,1764,343,-1926,201,389,2022,4725,14,42,871
325410,1858140,1894916,1864313,1897081,3800,1654,-146,-2042,81,432,1901,4217,14,42,871
326410,1858212,1895092,1864510,1897278,3800,1589,-575,-2352,-129,604,1972,3569,24,37,872
327411,1858276,1895256,1864707,1897475,3800,1679,-948,-2797,-377,833,2145,3177,24,37,872
328412,1858316,1895408,1864904,1897672,3800,1773,-1289,-3285,-593,855,1911,3122,19,28,871
329414,1858332,1895576,1865101,1897869,3800,1687,-1635,-3649,-761,895,1262,3679,19,28,871
330415,1858328,1895756,1865298,1898066,3800,1620,-1989,-3771,-920,894,615,4271,4,45,871
331416,1858332,1895912,1865495,1898263,3800,1789,-2283,-3845,-1102,813,60,4091,4,45,871
332417,1858344,1896092,1865692,1898460,3800,1646,-2452,-4035,-1316,836,-233,3737,6,44,870
333418,1858344,1896268,1865889,1898657,3800,1681,-2525,-4287,-1539,999,-337,3639,6,44,870
334419,1858344,1896452,1866086,1898854,3800,1637,-2585,-4490,-1717,1146,-371,3918,4,42,869
335420,1858344,1896596,1866283,1899051,3800,1911,-2648,-4566,-1843,1112,-379,4180,4,42,869
336420,1858356,1896760,1866480,1899248,3800,1801,-2687,-4587,-1929,1092,-238,4292,1,27,868
337422,1858364,1896896,1866677,1899445,3800,2004,-2668,-4517,-1982,1211,73,4578,1,27,868
338423,1858384,1897028,1866874,1899642,3800,2057,-2598,-4339,-2048,1298,542,4837,13,39,869
339424,1858400,1897188,1867071,1899839,3800,1899,-2506,-4108,-2163,1376,1063,4785,13,39,869
340424,1858432,1897352,1867268,1900036,3800,1889,-2425,-3909,-2330,1387,1455,4858,-4,42,868
341426,1858484,1897508,1867465,1900233,3800,1958,-2383,-3668,-2500,1423,1508,5075,-4,42,868
342427,1858540,1897648,1867662,1900430,3800,2083,-2376,-3337,-2582,1481,1040,5525,22,42,870
343434,1858596,1897792,1867892,1900660,3800,2097,-2366,-2837,-2535,1447,209,5993,22,42,870
344428,1858672,1897932,1868089,1900857,3800,2147,-2333,-2200,-2391,1309,-663,6216,27,30,870
345430,1858752,1898080,1868286,1901054,3800,2119,-2273,-1511,-2207,1202,-1188,6252,27,30,870
346431,1858848,1898168,1868483,1901251,3800,2542,-2178,-924,-2041,1110,-1289,5984,27,31,867
347432,1858948,1898296,1868680,1901448,3800,2324,-2012,-529,-1935,1027,-1233,5384,27,31,867
348433,1859068,1898428,1868877,1901645,3800,2327,-1782,-250,-1875,953,-1392,5109,23,37,869
349433,1859164,1898572,1869074,1901842,3800,2277,-1527,-43,-1805,814,-1760,4984,23,37,869
350434,1859292,1898704,1869271,1902039,3800,2381,-1252,132,-1719,625,-2207,4820,27,34,868
351435,1859424,1898820,1869468,1902236,3800,2517,-966,333,-1617,497,-2572,4729,27,34,868
352436,1859540,1898972,1869665,1902433,3800,2312,-682,492,-1503,409,-2852,4659,21,24,869
353438,1859684,1899084,1869862,1902630,3800,2601,-406,600,-1387,329,-3010,4577,21,24,869
354439,1859820,1899204,1870059,1902827,3800,2585,-136,694,-1252,296,-3231,4499,32,19,867
355440,1859932,1899316,1870256,1903024,3800,2673,133,797,-1083,196,-3551,4520,32,19,867
356440,1860016,1899424,1870453,1903221,3800,2738,409,940,-909,-28,-3591,4482,15,32,866
357442,1860108,1899548,1870650,1903418,3800,2670,701,973,-776,-224,-3412,4144,15,32,866
358442,1860188,1899664,1870847,1903615,3800,2757,1003,984,-681,-253,-3266,4059,28,24,864
359444,1860268,1899780,1871044,1903812,3800,2793,1283,994,-593,-265,-3025,3979,28,24,864
360444,1860360,1899904,1871241,1904009,3800,2776,1531,941,-517,-143,-2783,3802,8,37,865
361445,1860448,1900016,1871438,1904206,3800,2889,1724,941,-443,82,-2600,4025,8,37,865
362447,1860520,1900152,1871635,1904403,3800,2767,1873,983,-340,207,-2378,3983,20,24,864
363448,1860620,1900288,1871832,1904600,3800,2794,1978,1072,-244,259,-2093,4183,20,24,864
364449,1860708,1900412,1872029,1904797,3800,2903,2062,1257,-172,185,-1797,4343,30,36,864
365449,1860792,1900536,1872226,1904994,3800,2936,2141,1408,-140,12,-1379,4196,30,36,864
366451,1860864,1900668,1872423,1905191,3800,2915,2200,1572,-162,17,-1033,4291,15,23,864
367451,1860952,1900780,1872620,1905388,3800,3078,2245,1757,-192,-20,-715,4283,15,23,864
368452,1861016,1900916,1872817,1905585,3800,2955,2277,1848,-205,40,-476,4103,29,24,863
369454,1861056,1901060,1873014,1905782,3800,2930,2278,1967,-210,233,-302,4124,29,24,863
370455,1861120,1901192,1873211,1905979,3800,3034,2249,2079,-197,207,-176,4052,4,28,863
371456,1861176,1901328,1873408,1906176,3800,3037,2189,2196,-177,129,-16,3987,4,28,863
372456,1861220,1901476,1873605,1906373,3800,2985,2110,2226,-170,74,119,3789,4,24,864
373457,1861280,1901632,1873802,1906570,3800,2954,2025,2218,-157,1,259,3666,4,24,864
374458,1861340,1901788,1873999,1906767,3800,2973,1929,2153,-139,32,340,3468,5,26,864
375459,1861388,1901924,1874196,1906964,3800,3125,1833,1993,-116,-39,390,3053,5,26,864
376460,1861440,1902064,1874393,1907161,3800,3126,1737,1750,-72,-97,440,2959,5,26,864
377461,1861496,1902220,1874590,1907358,3800,3045,1631,1533,-10,-91,467,2817,5,26,864
378463,1861560,1902364,1874787,1907555,3800,3145,1506,1241,58,-160,425,2573,5,41,861
379464,1861620,1902520,1874984,1907752,3800,3089,1354,964,132,-214,355,2615,5,41,861
380465,1861676,1902692,1875181,1907949,3800,3001,1185,615,213,-231,310,2458,24,46,862
381466,1861712,1902868,1875378,1908146,3800,2986,1001,302,294,-208,282,2522,24,46,862
382467,1861748,1903036,1875575,1908343,3800,3050,804,33,386,-217,225,2633,2,46,863
383467,1861796,1903176,1875772,1908540,3800,3251,601,-216,477,-270,259,2630,2,46,863
384469,1861840,1903368,1875969,1908737,3800,2929,403,-461,553,-244,336,2661,2,35,863
385470,1861884,1903572,1876166,1908934,3800,2852,211,-722,616,-306,294,2589,2,35,863
386471,1861908,1903772,1876363,1909131,3800,2877,22,-1009,669,-372,191,2591,23,40,862
387472,1861940,1903960,1876560,1909328,3800,2956,-170,-1256,722,-380,10,2756,23,40,862
388473,1861952,1904152,1876757,1909525,3800,2935,-364,-1446,782,-356,-80,2860,-1,41,864
389474,1861964,1904340,1876954,1909722,3800,2965,-567,-1631,841,-244,-156,2989,-1,41,864
390475,1861968,1904524,1877151,1909919,3800,2996,-762,-1791,902,-200,-219,2944,-6,32,861
391476,1861960,1904700,1877348,1910116,3800,3057,-938,-1995,958,-104,-153,2940,-6,32,861
392477,1861952,1904872,1877545,1910313,3800,3094,-1091,-2178,977,16,-40,2959,-5,45,862
393478,1861956,1905028,1877742,1910510,3800,3213,-1207,-2426,945,158,112,2872,-5,45,862
394478,1861956,1905236,1877939,1910707,3800,2884,-1303,-2659,889,292,221,2992,7,39,862
395480,1861964,1905440,1878136,1910904,3800,2907,-1383,-2902,838,484,326,3001,7,39,862
396480,1861972,1905652,1878333,1911101,3800,2851,-1456,-3092,800,629,396,3126,15,38,861
397481,1861976,1905848,1878530,1911298,3800,2953,-1520,-3265,760,709,451,3293,15,38,861
398482,1861976,1906028,1878727,1911495,3800,3061,-1569,-3375,715,791,407,3408,9,52,864
399483,1861980,1906232,1878924,1911692,3800,2909,-1620,-3445,667,841,400,3656,9,52,864
400484,1861976,1906452,1879121,1911889,3800,2800,-1664,-3468,632,815,373,3834,-5,50,862
401486,1861988,1906628,1879318,1912086,3800,3085,-1698,-3438,602,811,321,4053,-5,50,862
402486,1861984,1906840,1879515,1912283,3800,2854,-1727,-3316,573,779,238,4287,-1,35,860
403488,1861988,1907044,1879712,1912480,3800,2902,-1740,-3149,547,702,148,4404,-1,35,860
404488,1862008,1907236,1879909,1912677,3800,2981,-1742,-2989,516,683,120,4469,11,50,862
405489,1862012,1907396,1880106,1912874,3800,3198,-1733,-2850,490,633,97,4456,11,50,862
406490,1862048,1907576,1880303,1913071,3800,3081,-1720,-2696,487,561,-97,4674,-1,52,862
407491,1862072,1907776,1880500,1913268,3800,2956,-1710,-2476,503,553,-278,4795,-1,52,862
408492,1862112,1907960,1880697,1913465,3800,3063,-1692,-2258,524,490,-377,4824,10,43,862
409494,1862172,1908152,1880894,1913662,3800,3017,-1655,-2053,539,455,-270,4814,10,43,862
410494,1862232,1908308,1881091,1913859,3800,3261,-1592,-1910,548,454,-195,4660,10,33,863
411496,1862324,1908468,1881288,1914056,3800,3253,-1516,-1736,553,376,-228,4792,10,33,863
412497,1862388,1908620,1881485,1914253,3800,3324,-1424,-1593,554,298,-208,4843,11,31,861
413498,1862468,1908776,1881682,1914450,3800,3318,-1336,-1425,550,242,-145,4943,11,31,861
414499,1862556,1908920,1881879,1914647,3800,3417,-1242,-1241,549,196,-235,5001,21,29,861
415499,1862648,1909100,1882076,1914844,3800,3201,-1124,-1101,561,99,-409,4831,21,29,861
416500,1862748,1909276,1882273,1915041,3800,3236,-978,-999,557,-76,-583,4957,11,45,861
417502,1862836,1909448,1882470,1915238,3800,3273,-560,-584,502,-338,-722,8340,11,45,861
418502,1862936,1909668,1882667,1915435,3800,2964,537,728,475,-888,-1007,17555,29,34,861
419504,1863060,1909868,1882864,1915632,3800,3089,1498,1557,460,-746,-952,8391,29,34,861
420504,1863188,1910040,1883061,1915829,3800,3275,1794,1428,451,-272,-560,3847,29,49,862
421506,1863316,1910200,1883258,1916026,3800,3369,1726,929,434,-89,-244,3575,29,49,862
422506,1863440,1910388,1883455,1916223,3800,3199,1631,601,413,51,-135,3932,23,45,862
423508,1863568,1910560,1883652,1916420,3800,3311,1605,469,395,-116,25,4012,23,45,862
424508,1863708,1910728,1883849,1916617,3800,3349,1600,436,366,-392,-29,4183,41,42,859
425510,1863828,1910844,1884046,1916814,3800,3711,1584,406,291,-659,108,4087,41,42,859
426517,1863932,1911004,1884276,1917044,3800,3468,1558,276,180,-919,300,3961,39,27,861
427512,1864072,1911136,1884473,1917241,3800,3672,1514,232,48,-921,536,4189,39,27,861
428512,1864164,1911284,1884670,1917438,3800,3595,1477,202,-82,-895,704,3900,24,38,856
429514,1864272,1911444,1884867,1917635,3800,3538,1446,149,-176,-979,788,4052,24,38,856
430514,1864396,1911580,1885064,1917832,3800,3716,1426,137,-228,-982,877,4028,37,40,857
431516,1864480,1911732,1885261,1918029,3800,3637,1434,-1,-274,-1048,1078,3595,37,40,857
432516,1864576,1911900,1885458,1918226,3800,3550,1426,-76,-327,-1045,1232,3976,16,44,860
433518,1864712,1912052,1885655,1918423,3800,3671,1368,-74,-363,-1017,1378,4133,16,44,860
434518,1864804,1912228,1885852,1918620,3800,3532,1309,-75,-385,-911,1676,3866,35,41,858
435532,1864904,1912360,1886049,1918817,3800,3800,1274,-57,-385,-789,1981,3883,35,41,858
436533,1865000,1912488,1886246,1919014,3800,3800,1250,-113,-358,-726,2220,3779,24,26,858
437522,1865120,1912640,1886443,1919211,3800,3764,1223,-188,-309,-618,2185,3768,24,26,858
438522,1865220,1912792,1886640,1919408,3800,3786,1201,-260,-236,-695,2095,3626,18,30,857
439536,1865340,1912924,1886837,1919605,3800,3800,1183,-337,-153,-776,2002,3710,18,30,857
440524,1865468,1913104,1887034,1919802,3800,3649,1150,-350,-64,-740,1808,3733,37,38,858
441525,1865608,1913276,1887231,1919999,3800,3711,1109,-289,44,-831,1706,3924,37,38,858
442526,1865776,1913464,1887428,1920196,3800,3617,1039,-151,145,-921,1536,4236,21,41,858
443527,1865928,1913640,1887625,1920393,3800,3702,939,34,232,-922,1468,4255,21,41,858
444529,1866112,1913840,1887822,1920590,3800,3552,825,180,318,-885,1569,4253,28,39,858
445530,1866264,1914052,1888019,1920787,3800,3472,700,366,391,-813,1692,4192,28,39,858
446531,1866452,1914244,1888216,1920984,3800,3600,579,431,442,-661,1905,3751,39,34,859
447532,1866596,1914468,1888413,1921181,3800,3390,464,468,484,-576,2038,3641,39,34,859
448533,1866776,1914696,1888610,1921378,3800,3352,348,420,522,-498,2020,3341,27,42,861
449534,1866952,1914940,1888807,1921575,3800,3233,227,268,552,-425,1611,3156,27,42,861
450535,1867112,1915152,1889004,1921772,3800,3428,119,69,580,-333,1464,2918,30,49,862
451536,1867268,1915396,1889201,1921969,3800,3208,38,-287,587,-308,1411,2473,30,49,862
452537,1867456,1915584,1889398,1922166,3800,3563,-20,-752,531,-95,1426,2223,45,57,861
453538,1867620,1915800,1889595,1922363,3800,3382,-66,-1195,448,199,1489,2144,45,57,861
454539,1867780,1916008,1889792,1922560,3800,3428,-137,-1647,390,515,1487,2169,48,57,864
455540,1867952,1916260,1889989,1922757,3800,3130,-257,-2035,372,887,1229,2361,48,57,864
456541,1868120,1916528,1890186,1922954,3800,2999,-389,-2381,362,1125,1051,2414,49,53,861
457542,1868304,1916748,1890383,1923151,3800,3291,-509,-2720,319,1317,857,2461,49,53,861
458543,1868484,1916940,1890580,1923348,3800,3470,-598,-3116,223,1373,749,2274,36,52,864
459544,1868672,1917172,1890777,1923545,3800,3205,-675,-3449,99,1392,661,2489,36,52,864
460545,1868860,1917420,1890974,1923742,3800,3084,-753,-3711,-27,1671,772,2620,29,42,862
461546,1869040,1917656,1891171,1923939,3800,3143,-838,-3943,-125,1916,773,2762,29,42,862
462547,1869244,1917896,1891368,1924136,3800,3101,-912,-4113,-203,2032,894,2942,37,43,863
463547,1869428,1918092,1891565,1924333,3800,3377,-993,-4163,-252,2140,894,3249,37,43,863
464549,1869656,1918272,1891762,1924530,3800,3486,-1071,-4152,-284,2347,894,3362,39,42,864
465550,1869872,1918492,1891959,1924727,3800,3226,-1138,-4097,-295,2455,956,3551,39,42,864
466551,1870128,1918736,1892156,1924924,3800,3057,-1172,-3927,-293,2560,1200,3653,44,41,861
467552,1870424,1918984,1892353,1925121,3800,3011,-1172,-3766,-297,2577,1362,3662,44,41,861
468553,1870676,1919204,1892550,1925318,3800,3177,-1130,-3616,-298,2567,1535,3686,51,47,859
469554,1870956,1919412,1892747,1925515,3800,3248,-1051,-3430,-285,2460,1671,3723,51,47,859
470555,1871248,1919616,1892944,1925712,3800,3271,-937,-3227,-280,2332,1670,3587,55,56,865
471556,1871616,1919808,1893141,1925909,3800,3350,-786,-3073,-285,2156,1540,3544,55,56,865
472556,1871948,1920056,1893338,1926106,3800,2978,-604,-2874,-269,1943,1337,3501,63,62,864
473558,1872340,1920360,1893535,1926303,3800,2583,-425,-2632,-230,1817,974,3614,63,62,864
474559,1872784,1920628,1893732,1926500,3800,2778,-261,-2281,-150,1635,553,3867,67,52,864
475559,1873172,1920864,1893929,1926697,3800,2962,-83,-1937,-27,1343,286,3827,67,52,864
476561,1873604,1921100,1894126,1926894,3800,2946,106,-1551,105,1127,127,3838,91,61,869
477562,1874100,1921336,1894323,1927091,3800,2930,293,-1161,234,947,6,3767,91,61,869
478563,1874560,1921692,1894520,1927288,3800,2111,498,-779,369,718,-72,3684,97,70,867
479564,1875048,1921976,1894717,1927485,3800,2523,717,-453,498,554,-168,3436,97,70,867
480565,1875608,1922264,1894914,1927682,3800,2459,950,-174,649,520,-352,3280,96,72,868
481566,1876120,1922516,1895111,1927879,3800,2661,1171,106,821,440,-421,3213,96,72,868
482567,1876664,1922836,1895308,1928076,3800,2183,1410,296,972,305,-459,2865,116,63,871
483567,1877252,1923144,1895505,1928273,3800,2210,1637,420,1122,279,-472,2760,116,63,871
484568,1877820,1923500,1895702,1928470,3800,1842,1844,646,1276,81,-828,3103,107,62,871
485570,1878408,1923784,1895899,1928667,3800,2254,2027,962,1414,-255,-1016,3062,107,62,871
486570,1879044,1924092,1896096,1928864,3800,2057,2186,1186,1528,-566,-995,2976,131,71,873
487572,1879688,1924448,1896293,1929061,3800,1688,2332,1574,1631,-938,-1260,3420,131,71,873
488572,1880336,1924732,1896490,1929258,3800,2100,2401,2046,1730,-1336,-1500,3704,116,58,873
489574,1881064,1925056,1896687,1929455,3800,1796,2471,2403,1837,-1579,-1403,3115,116,58,873
490575,1881752,1925324,1896884,1929652,3800,2115,2522,2651,1944,-1481,-1157,3220,130,59,876
491575,1882452,1925608,1897081,1929849,3800,1977,2557,2866,2038,-1652,-1103,2976,130,59,876
492576,1883128,1925952,1897278,1930046,3800,1539,2548,2903,2154,-1618,-1221,2618,140,74,877
493578,1883876,1926256,1897475,1930243,3800,1743,2552,2849,2303,-1628,-1189,2461,140,74,877
494578,1884564,1926540,1897672,1930440,3800,1830,2498,2737,2492,-1692,-1400,2700,156,75,876
495579,1885212,1926828,1897869,1930637,3800,1766,2428,2670,2701,-1851,-1859,2709,156,75,876
496568,1885920,1927184,1898066,1930834,3498,1272,2330,2429,2976,-1878,-2219,2251,140,76,878
497582,1886464,1927500,1898263,1931031,3800,1470,2236,2192,3301,-1721,-2565,2581,140,76,878
498583,1886980,1927820,1898460,1931228,3800,1392,2063,1818,3605,-1315,-2741,2258,146,63,877
499584,1887524,1928120,1898657,1931425,3800,1472,1913,1260,3822,-626,-2274,1466,146,63,877
500584,1887968,1928468,1898854,1931622,3800,1107,1743,382,3922,227,-1938,793,103,76,876
501586,1888416,1928880,1899051,1931819,3800,613,1563,-576,3982,988,-2394,918,103,76,876
502586,1888844,1929360,1899248,1932016,3800,64,1295,-1357,4055,1669,-2944,1591,82,76,877
503588,1889248,1929764,1899445,1932213,3800,449,1002,-2160,4102,2339,-3475,1295,82,76,877
504588,1889684,1930012,1899642,1932410,3800,1401,625,-2522,4116,2718,-3657,2732,96,74,879
505589,1890132,1930248,1899839,1932607,3800,1460,249,-2878,4065,2824,-3236,2550,96,74,879
506590,1890536,1930512,1900036,1932804,3800,1256,-112,-3288,3909,3555,-3101,2680,101,63,879
507591,1890992,1930796,1900233,1933001,3800,1092,-514,-3224,3654,3742,-2430,4172,101,63,879
508580,1891472,1931156,1900430,1933198,3546,547,-927,-3204,3284,3701,-1128,3754,97,62,877
509601,1891892,1931372,1900660,1933428,3800,1453,-1346,-3088,2703,4124,46,4385,97,62,877
510582,1892312,1931744,1900857,1933625,3743,402,-1818,-2678,2040,3683,571,5216,98,60,877
511583,1892784,1932080,1901054,1933822,3299,566,-2356,-2120,1383,3676,1294,5949,98,60,877
512584,1893184,1932376,1901251,1934019,3661,773,-2986,-1191,641,3732,2099,7077,103,66,875
513598,1893544,1932688,1901448,1934216,3800,623,-3680,-58,-83,3378,3031,7707,103,66,875
514586,1893952,1932980,1901645,1934413,3450,706,-4353,1302,-670,3320,2584,8415,74,58,882
515587,1894364,1933236,1901842,1934610,3332,905,-4964,2706,-1130,2871,1943,8220,74,58,882
516588,1894772,1933480,1902039,1934807,3265,960,-5559,4245,-1804,1466,3741,9372,76,48,879
517589,1895188,1933660,1902236,1935004,3121,1368,-6045,5857,-2521,1221,2509,8950,76,48,879
518590,1895568,1933824,1902433,1935201,3266,1483,-6250,6274,-3110,1649,1703,4323,72,51,880
519591,1895944,1933984,1902630,1935398,3214,1524,-6159,6310,-3512,478,-212,4889,72,51,880
520592,1896304,1934164,1902827,1935595,3244,1406,-6156,6541,-3955,-16,397,5698,88,47,880
521593,1896672,1934356,1903024,1935792,3120,1335,-6088,6491,-4518,-409,-339,3811,88,47,880
522594,1897064,1934536,1903221,1935989,2885,1417,-5930,6068,-4840,-979,-2431,2813,68,47,878
523595,1897452,1934676,1903418,1936186,2827,1692,-5757,5650,-4837,-1015,-3749,3587,68,47,878
524596,1897940,1934808,1903615,1936383,2075,1772,-5725,5323,-4720,-1061,-4514,3959,71,37,880
525597,1898256,1934928,1903812,1936580,3100,1880,-5704,5004,-4615,-1309,-4506,3568,71,37,880
526598,1898624,1935060,1904009,1936777,2701,1834,-5584,4565,-4468,-1679,-5440,3444,78,37,880
527599,1899080,1935192,1904206,1936974,2038,1864,-5482,3936,-4308,-1647,-5582,3232,78,37,880
528600,1899436,1935304,1904403,1937171,2594,2026,-5263,3284,-4169,-2241,-4734,2878,72,24,878
529601,1899884,1935452,1904600,1937368,1910,1822,-5081,2561,-4044,-2566,-2434,3217,72,24,878
530602,1900328,1935584,1904797,1937565,1826,1952,-5000,2019,-3870,-2728,-1946,3507,90,40,884
531603,1900824,1935736,1904994,1937762,1371,1847,-4890,1346,-3614,-3045,-2379,3422,90,40,884
532604,1901032,1935876,1905191,1937959,3167,1947,-2640,4311,-2849,-4976,-8867,32767,90,35,884
533605,1901476,1936036,1905388,1938156,1585,1839,658,9030,-1825,-4800,-8302,32767,90,35,884
534606,1902064,1936148,1905585,1938353,514,2176,2164,9614,-1433,-2819,-1507,1489,80,27,886
535607,1902328,1936280,1905782,1938550,2509,2081,2208,7375,-1596,-1924,-3464,645,80,27,886
536608,1902692,1936412,1905979,1938747,1812,2110,1912,4627,-2494,1714,-12815,-576,75,23,885
537609,1903120,1936564,1906176,1938944,1311,2004,1735,2895,-2817,-707,-3887,1531,75,23,885
538610,1903652,1936680,1906373,1939141,514,2266,1675,1881,-2447,-852,-2615,1498,67,42,881
539611,1903876,1936844,1906570,1939338,2428,1980,1448,939,-1895,204,-3016,2492,67,42,881
540612,1904288,1937048,1906767,1939535,1159,1728,1008,365,-1884,3113,-3575,1066,80,33,886
541613,1904796,1937236,1906964,1939732,423,1832,606,-923,-2148,1783,-2020,-244,80,33,886
542614,1905156,1937440,1907161,1939929,1277,1730,303,-2156,-2443,1559,-1556,-402,82,37,882
543615,1905548,1937640,1907358,1940126,991,1754,58,-3558,-2680,1372,-933,-1150,82,37,882
544616,1906100,1937848,1907555,1940323,-164,1700,92,-5132,-2850,506,390,217,88,43,889
545617,1906472,1938024,1907752,1940520,884,1909,108,-6288,-2964,879,405,2317,88,43,889
546618,1906856,1938232,1907949,1940717,727,1706,-15,-6857,-2954,918,299,4359,86,37,889
547619,1907316,1938448,1908146,1940914,137,1647,-216,-6750,-2848,1053,-488,5841,86,37,889
548620,1907604,1938620,1908343,1941111,1172,1934,-278,-6624,-2748,1332,-261,5182,75,36,888
549621,1907976,1938836,1908540,1941308,570,1651,-212,-6431,-2675,1509,368,6150,75,36,888
550622,1908320,1939012,1908737,1941505,681,1911,-120,-6090,-2691,1487,239,6336,75,47,892
551623,1908632,1939200,1908934,1941702,830,1840,20,-6038,-2785,1315,159,5162,75,47,892
552624,1908952,1939396,1909131,1941899,726,1790,192,-5912,-2872,1578,375,5585,74,50,891
553625,1909240,1939608,1909328,1942096,886,1685,308,-5736,-2944,2184,288,5286,74,50,891
554626,1909552,1939804,1909525,1942293,686,1785,367,-5599,-3017,2415,76,4953,49,48,888
555627,1909884,1939988,1909722,1942490,501,1867,381,-5393,-3064,2544,-131,5015,49,48,888
556628,1910080,1940184,1909919,1942687,1352,1792,361,-5258,-3089,2987,-431,4587,57,46,888
557629,1910308,1940328,1910116,1942884,1138,2142,322,-5112,-3111,3271,-601,4380,57,46,888
558630,1910548,1940488,1910313,1943081,1044,2058,334,-5113,-3126,3213,-491,3431,45,29,890
559631,1910796,1940616,1910510,1943278,972,2289,407,-5335,-3176,3391,-308,2614,45,29,890
560632,1910980,1940804,1910707,1943475,1378,1918,469,-5613,-3252,3420,-170,2189,56,32,886
561633,1911204,1940956,1910904,1943672,1116,2164,507,-5986,-3342,3331,-8,1448,56,32,886
562634,1911428,1941140,1911101,1943869,1104,1970,503,-6429,-3458,3449,-86,1280,53,30,886
563635,1911612,1941316,1911298,1944066,1360,2030,446,-6797,-3550,3393,-351,1378,53,30,886
564636,1911804,1941468,1911495,1944263,1312,2200,289,-6838,-3584,3356,-695,2467,45,41,886
565637,1912004,1941616,1911692,1944460,1260,2247,68,-6517,-3563,3249,-1061,2866,45,41,886
566638,1912200,1941808,1911889,1944657,1286,1975,-153,-6143,-3488,2870,-1252,2923,50,24,884
567639,1912388,1941976,1912086,1944854,1340,2138,-322,-5728,-3400,2566,-1251,2906,50,24,884
568640,1912596,1942128,1912283,1945051,1209,2259,-435,-5429,-3340,2445,-1127,2340,46,42,885
569641,1912764,1942280,1912480,1945248,1472,2279,-447,-5216,-3293,2259,-1080,1915,46,42,885
570642,1912924,1942444,1912677,1945445,1538,2219,-426,-5033,-3255,2158,-1100,2060,32,43,885
571643,1913120,1942604,1912874,1945642,1313,2261,-362,-4683,-3187,2098,-1355,2471,32,43,885
572643,1913304,1942772,1913071,1945839,1394,2224,-365,-4062,-3046,1950,-1785,3300,30,43,883
573644,1913448,1942936,1913268,1946036,1667,2264,-453,-3096,-2751,1922,-2490,4079,30,43,883
574645,1913644,1943120,1913465,1946233,1343,2146,-549,-2159,-2360,1867,-2397,3812,29,42,885
575647,1913828,1943304,1913662,1946430,1424,2152,-619,-1429,-1979,1929,-1841,2983,29,42,885
576648,1914004,1943488,1913859,1946627,1483,2158,-818,-653,-1525,2214,-2028,3607,30,47,882
577649,1914172,1943672,1914056,1946824,1546,2165,-1295,387,-896,1994,-3327,4076,30,47,882
578650,1914332,1943852,1914253,1947021,1612,2197,-1743,1236,-318,1599,-2669,2772,32,32,883
579651,1914496,1944028,1914450,1947218,1601,2232,-1829,1666,-13,1562,-1007,1672,32,32,883
580652,1914672,1944208,1914647,1947415,1536,2216,-1631,1719,127,1651,-660,1126,39,45,883
581653,1914816,1944400,1914844,1947612,1759,2143,-1465,1859,293,1907,-763,2015,39,45,883
582654,1914988,1944620,1915041,1947809,1595,1959,-1478,2294,555,2187,-781,2791,24,34,883
583655,1915144,1944812,1915238,1948006,1713,2136,-1626,3003,893,2422,-995,3512,24,34,883
584656,1915320,1944996,1915435,1948203,1597,2193,-1802,3796,1254,2342,-1300,3585,24,39,882
585657,1915472,1945212,1915632,1948400,1767,1985,-1863,4310,1556,2014,-1089,2811,24,39,882
586658,1915640,1945412,1915829,1948597,1680,2084,-1758,4512,1704,1746,-498,2102,20,48,883
587659,1915756,1945644,1916026,1948794,2040,1870,-1565,4575,1703,1657,159,2003,20,48,883
588660,1915876,1945868,1916223,1948991,2049,1908,-1388,4794,1648,1517,299,2673,34,34,883
589661,1916008,1946052,1916420,1949188,2003,2165,-1286,5221,1658,1428,-112,3487,34,34,883
590662,1916140,1946272,1916617,1949385,2031,1931,-1247,5940,1774,1444,-559,4438,18,45,883
591663,1916252,1946500,1916814,1949582,2193,1867,-1238,6804,1927,1362,-663,4826,18,45,883
592673,1916352,1946708,1917044,1949812,2326,2003,-1192,7545,2040,1199,-685,4581,40,41,882
593665,1916476,1946956,1917241,1950009,2209,1730,-592,8913,2186,521,-1480,11851,40,41,882
594666,1916604,1947156,1917438,1950206,2214,2030,609,11171,2399,-93,-1854,17739,25,37,882
595667,1916756,1947376,1917635,1950403,2084,1896,1309,11885,2427,596,-780,2949,25,37,882
596668,1916948,1947604,1917832,1950600,1836,1832,1434,11473,2382,541,-1087,1991,24,52,882
597669,1917080,1947820,1918029,1950797,2240,1900,1405,10672,2443,636,-1765,1645,24,52,882
598670,1917228,1948056,1918226,1950994,2161,1758,1413,10255,2662,723,-2274,2489,43,45,880
599671,1917364,1948292,1918423,1951191,2264,1741,1464,10195,2985,457,-2578,2800,43,45,880
600672,1917496,1948508,1918620,1951388,2317,1858,1514,10052,3306,353,-2555,2716,27,39,881
601673,1917624,1948724,1918817,1951585,2373,1851,1567,9784,3545,113,-2191,2624,27,39,881
602674,1917744,1948932,1919014,1951782,2457,1897,1685,9344,3698,-427,-1794,2196,27,40,882
603675,1917876,1949164,1919211,1951979,2411,1732,1823,8914,3765,-743,-1692,2439,27,40,882
604676,1917980,1949424,1919408,1952176,2627,1530,1976,8604,3693,-1168,-1708,2836,24,43,881
605677,1918108,1949664,1919605,1952373,2507,1636,2058,8516,3523,-1656,-1842,3730,24,43,881
606678,1918204,1949880,1919802,1952570,2752,1779,2069,8716,3314,-1961,-2138,4535,20,50,881
607679,1918316,1950080,1919999,1952767,2690,1877,2081,8883,3129,-2245,-2347,4398,20,50,881
608680,1918452,1950264,1920196,1952964,2567,1984,2151,8978,2988,-2331,-2161,4398,36,43,881
609681,1918560,1950520,1920393,1953161,2781,1508,2247,9113,2841,-2217,-1841,4599,36,43,881
610682,1918668,1950780,1920590,1953358,2821,1456,2337,9184,2663,-2311,-1733,4511,32,41,877
611683,1918764,1951036,1920787,1953555,2941,1455,2403,9217,2460,-2340,-1601,4551,32,41,877
612684,1918876,1951236,1920984,1953752,2878,1805,2466,9155,2195,-2267,-1520,4179,24,58,879
613685,1918984,1951492,1921181,1953949,2943,1429,2513,8910,1869,-2275,-1633,3773,24,58,879
614686,1919120,1951648,1921378,1954146,2795,2073,2545,8463,1529,-2310,-1614,3548,24,43,879
615687,1919248,1951768,1921575,1954343,2876,2332,2575,7854,1242,-2259,-1643,3320,24,43,879
616687,1919396,1951872,1921772,1954540,2773,2474,2664,7136,1089,-2240,-1689,3504,34,37,879
617689,1919516,1951992,1921969,1954737,2982,2408,2994,6093,1064,-2517,-1681,4119,34,37,879
618690,1919644,1952124,1922166,1954934,2963,2362,3484,4727,1108,-2611,-1631,3956,39,34,875
619691,1919772,1952296,1922363,1955131,2993,2123,3795,3322,1123,-2214,-1244,2329,39,34,875
620692,1919884,1952484,1922560,1955328,3131,2028,3825,1968,1074,-2198,-975,1660,20,39,872
621693,1920044,1952692,1922757,1955525,2848,1898,3722,794,975,-2220,-681,1647,20,39,872
622694,1920172,1952912,1922954,1955722,3079,1814,3619,-305,868,-2326,-349,1624,22,52,874
623694,1920300,1953132,1923151,1955919,3110,1804,3532,-1321,789,-2273,-61,2040,22,52,874
624696,1920444,1953352,1923348,1956116,3034,1795,3419,-2096,781,-2369,43,2458,36,47,877
625697,1920580,1953620,1923545,1956313,3111,1464,3274,-2555,831,-2391,278,3118,36,47,877
626698,1920724,1953900,1923742,1956510,3085,1353,3117,-2834,911,-2479,457,3493,23,51,876
627699,1920872,1954160,1923939,1956707,3082,1451,2991,-3050,993,-2608,581,3676,23,51,876
628700,1921012,1954384,1924136,1956904,3157,1665,2859,-3150,1051,-2632,787,4091,35,56,877
629701,1921136,1954656,1924333,1957101,3290,1332,2706,-3200,1083,-2692,1166,4308,35,56,877
630702,1921296,1954908,1924530,1957298,3083,1434,2528,-3108,1105,-2745,1339,4387,43,63,878
631703,1921436,1955200,1924727,1957495,3233,1142,2345,-3030,1122,-2910,905,4377,43,63,878
632704,1921544,1955456,1924924,1957692,3473,1342,2161,-2970,1132,-2864,124,4463,43,49,876
633705,1921660,1955716,1925121,1957889,3458,1289,1983,-2819,1135,-2615,-462,4814,43,49,876
634706,1921776,1955992,1925318,1958086,3495,1155,1790,-2573,1169,-2379,-241,4790,15,65,878
635707,1921868,1956260,1925515,1958283,3692,1175,1575,-2308,1255,-2118,-55,4862,15,65,878
636708,1921976,1956536,1925712,1958480,3631,1090,1350,-2005,1370,-1639,397,4992,26,55,875
637709,1922072,1956804,1925909,1958677,3752,1110,1088,-1704,1447,-1355,1312,4816,26,55,875
638710,1922168,1956996,1926106,1958874,3797,1587,784,-1535,1439,-1372,1909,4396,16,53,874
639710,1922276,1957232,1926303,1959071,3762,1295,496,-1438,1380,-984,2128,4347,16,53,874
640725,1922352,1957476,1926500,1959268,3800,1225,159,-1285,1314,-321,2374,4874,28,44,874
641726,1922412,1957732,1926697,1959465,3800,1124,-236,-1044,1279,153,2758,4819,28,44,874
642727,1922492,1957972,1926894,1959662,3800,1205,-655,-868,1220,362,2820,4521,11,51,871
643728,1922584,1958172,1927091,1959859,3800,1455,-1086,-762,1084,603,2903,4349,11,51,871
644728,1922664,1958340,1927288,1960056,3800,1668,-1513,-771,892,908,3214,4200,20,52,872
645730,1922740,1958544,1927485,1960253,3800,1440,-1909,-854,659,1142,3453,3843,20,52,872
646730,1922852,1958764,1927682,1960450,3800,1330,-2274,-1095,393,1413,3531,3427,13,35,872
647731,1922960,1958944,1927879,1960647,3800,1588,-2587,-1440,123,1618,3527,3244,13,35,872
648733,1923056,1959160,1928076,1960844,3800,1355,-2862,-1783,-167,1684,3557,3220,21,49,872
649734,1923164,1959356,1928273,1961041,3800,1481,-3108,-2021,-483,1635,3365,3438,21,49,872
650735,1923264,1959536,1928470,1961238,3800,1588,-3299,-2253,-812,1552,3037,3518,17,50,871
651735,1923348,1959688,1928667,1961435,3800,1783,-3451,-2450,-1138,1619,2738,3758,17,50,871
652737,1923432,1959860,1928864,1961632,3800,1670,-3584,-2553,-1426,1553,2359,4093,27,35,872
653737,1923488,1960048,1929061,1961829,3800,1574,-3677,-2610,-1654,1392,1994,4236,27,35,872
654739,1923556,1960260,1929258,1962026,3800,1418,-3720,-2623,-1844,1260,1559,4410,22,48,868
655739,1923608,1960444,1929455,1962223,3800,1599,-3698,-2569,-2000,1103,1061,4641,22,48,868
656741,1923656,1960644,1929652,1962420,3800,1498,-3600,-2482,-2133,841,652,4849,11,49,870
657742,1923700,1960832,1929849,1962617,3800,1577,-2627,-1318,-2097,-28,-1516,16062,16,47,870
658743,1923748,1961012,1930046,1962814,3800,1635,-382,1909,-1782,-1124,-3719,32645,16,47,870
659744,1923796,1961220,1930243,1963011,3800,1456,1116,3330,-1709,428,185,7038,21,45,870
660744,1923824,1961408,1930440,1963208,3800,1585,1337,2878,-1867,911,824,3224,21,45,870
661745,1923832,1961640,1930637,1963405,3800,1295,1082,1871,-2036,1210,388,3003,17,42,870
662746,1923836,1961852,1930834,1963602,3800,1414,921,1405,-2078,1510,101,3926,17,42,870
663747,1923832,1962048,1931031,1963799,3800,1514,901,1315,-2032,1388,138,3842,0,49,869
664748,1923828,1962252,1931228,1963996,3800,1462,902,1258,-2018,1454,77,3845,0,49,869
665750,1923844,1962404,1931425,1964193,3800,1807,841,1179,-2051,1436,136,4132,14,41,869
666750,1923840,1962560,1931622,1964390,3800,1800,717,1062,-2053,1301,105,4194,14,41,869
667751,1923844,1962744,1931819,1964587,3800,1631,575,1071,-2022,1455,94,4554,-5,40,869
668752,1923860,1962960,1932016,1964784,3800,1423,426,1241,-2001,1249,68,4763,-5,40,869
669753,1923872,1963140,1932213,1964981,3800,1656,314,1478,-2007,720,-27,4919,10,36,869
670754,1923900,1963332,1932410,1965178,3800,1584,223,1663,-2103,395,-141,4737,10,36,869
671755,1923936,1963492,1932607,1965375,3800,1800,160,1695,-2273,90,-140,4462,17,29,870
672756,1923988,1963652,1932804,1965572,3800,1816,93,1763,-2434,-163,-171,4581,17,29,870
673758,1924060,1963780,1933001,1965769,3800,2048,-6,1903,-2544,-347,-532,4576,22,43,869
674758,1924148,1963944,1933198,1965966,3800,1837,-126,2058,-2569,-680,-969,4619,22,43,869
675766,1924252,1964100,1933428,1966196,3800,1921,-255,2309,-2506,-909,-1332,4704,24,30,867
676760,1924356,1964244,1933625,1966393,3800,2019,-370,2474,-2401,-1037,-1729,4343,24,30,867
677762,1924480,1964364,1933822,1966590,3800,2203,-456,2536,-2287,-1191,-1933,4072,38,26,869
678762,1924620,1964508,1934019,1966787,3800,2077,-494,2452,-2154,-1365,-1959,3588,38,26,869
679763,1924744,1964616,1934216,1966984,3800,2341,-478,2211,-2029,-1481,-1942,2985,39,29,867
680764,1924900,1964744,1934413,1967181,3800,2247,-425,1902,-1901,-1637,-2044,2804,39,29,867
681766,1925064,1964864,1934610,1967378,3800,2331,-340,1586,-1726,-1813,-2352,2610,22,22,868
682767,1925216,1964984,1934807,1967575,3800,2366,-235,1201,-1510,-1927,-2640,2419,22,22,868
683767,1925376,1965068,1935004,1967772,3800,2641,-137,891,-1259,-2006,-2329,2587,45,20,867
684768,1925544,1965164,1935201,1967969,3800,2611,-60,551,-967,-2105,-2418,2453,45,20,867
685769,1925648,1965276,1935398,1968166,3800,2549,39,172,-709,-2058,-2505,2238,20,22,864
686770,1925744,1965392,1935595,1968363,3800,2560,146,-178,-495,-1969,-2350,2323,20,22,864
687771,1925876,1965492,1935792,1968560,3800,2703,258,-516,-261,-1881,-2143,2297,29,27,865
688772,1925968,1965632,1935989,1968757,3800,2479,381,-835,-27,-1768,-2271,2197,29,27,865
689774,1926060,1965720,1936186,1968954,3800,2852,544,-1169,182,-1693,-2205,2143,33,25,864
690774,1926156,1965840,1936383,1969151,3800,2687,689,-1444,369,-1493,-2180,2422,33,25,864
691776,1926228,1965964,1936580,1969348,3800,2695,834,-1645,492,-1378,-2112,2516,8,29,863
692776,1926296,1966068,1936777,1969545,3800,2860,982,-1783,569,-1285,-2016,2711,8,29,863
693778,1926360,1966176,1936974,1969742,3800,2876,1115,-1822,632,-955,-1874,2948,13,32,864
694778,1926432,1966276,1937171,1969939,3800,2969,1214,-1810,687,-534,-1753,2978,13,32,864
695779,1926476,1966380,1937368,1970136,3800,2985,1281,-1797,734,-133,-1522,3072,15,23,863
696780,1926504,1966476,1937565,1970333,3800,3080,1329,-1784,748,222,-1140,3017,15,23,863
697782,1926520,1966608,1937762,1970530,3800,2885,1365,-1833,714,639,-724,2925,18,31,860
698782,1926548,1966716,1937959,1970727,3800,3075,1383,-1836,646,973,-381,2988,18,31,860
699783,1926552,1966824,1938156,1970924,3800,3114,1393,-1856,565,1230,-85,2953,1,32,862
700784,1926556,1966936,1938353,1971121,3800,3128,1401,-1838,494,1551,137,2980,1,32,862
701785,1926564,1967032,1938550,1971318,3800,3273,1396,-1831,442,1836,400,3017,15,35,859
702786,1926568,1967196,1938747,1971515,3800,2863,1374,-1823,396,2104,653,3000,15,35,859
703787,1926580,1967292,1938944,1971712,3800,3334,1323,-1832,347,2311,874,2987,16,29,860
704788,1926584,1967428,1939141,1971909,3800,3111,1251,-1794,307,2413,1062,3054,16,29,860
705790,1926600,1967536,1939338,1972106,3800,3326,1160,-1739,267,2496,1214,3118,17,22,856
706791,1926628,1967668,1939535,1972303,3800,3205,1044,-1658,233,2464,1357,3121,17,22,856
707792,1926656,1967800,1939732,1972500,3800,3235,907,-1544,203,2244,1382,3115,21,27,858
708793,1926696,1967948,1939929,1972697,3800,3157,750,-1431,158,2004,1324,3039,21,27,858
709794,1926736,1968104,1940126,1972894,3800,3126,571,-1341,111,1745,1101,3014,9,29,860
710795,1926780,1968264,1940323,1973091,3800,3119,377,-1250,94,1467,948,3029,9,29,860
711796,1926840,1968408,1940520,1973288,3800,3243,173,-1126,103,1201,771,3084,10,29,861
712796,1926872,1968568,1940717,1973485,3800,3160,-33,-1007,122,956,624,3014,10,29,861
713798,1926924,1968760,1940914,1973682,3800,2962,-252,-867,151,675,521,2960,2,45,860
714799,1926956,1968936,1941111,1973879,3800,3073,-484,-741,176,358,360,3025,2,45,860
715800,1927020,1969136,1941308,1974076,3800,2922,-753,-567,185,138,241,3220,3,49,862
716801,1927064,1969312,1941505,1974273,3800,3083,-1037,-450,236,29,-165,3053,3,49,862
717801,1927124,1969512,1941702,1974470,3800,2932,-1294,-390,318,-111,-608,2768,11,35,863
718803,1927192,1969700,1941899,1974667,3800,3012,-1536,-465,375,-195,-800,2611,11,35,863
719803,1927244,1969908,1942096,1974864,3800,2883,-1773,-551,419,-246,-883,2518,23,39,861
720804,1927292,1970096,1942293,1975061,3800,3013,-1983,-743,458,-244,-977,2223,23,39,861
721806,1927348,1970252,1942490,1975258,3800,3232,-2169,-981,523,-134,-1132,2222,24,34,863
722807,1927380,1970444,1942687,1975455,3800,3011,-2343,-1254,607,31,-1206,2261,24,34,863
723808,1927448,1970624,1942884,1975652,3800,3094,-2508,-1542,677,135,-1250,2332,15,53,861
724809,1927508,1970836,1943081,1975849,3800,2888,-2651,-1859,712,265,-1261,2260,15,53,861
725810,1927568,1971068,1943278,1976046,3800,2749,-2752,-2217,717,444,-1238,2218,11,46,862
726811,1927612,1971256,1943475,1976243,3800,3029,-2813,-2583,697,690,-1029,2424,11,46,862
727812,1927668,1971468,1943672,1976440,3800,2873,-2846,-2917,656,891,-692,2643,24,43,864
728812,1927740,1971684,1943869,1976637,3800,2841,-2849,-3179,596,1103,-365,2873,24,43,864
729814,1927804,1971872,1944066,1976834,3800,3021,-2835,-3402,515,1300,-104,3244,19,50,862
730815,1927888,1972092,1944263,1977031,3800,2812,-2811,-3528,418,1464,134,3614,19,50,862
731816,1927960,1972292,1944460,1977228,3800,2937,-2783,-3547,313,1599,294,4148,13,52,860
732817,1928028,1972492,1944657,1977425,3800,2935,-2752,-3410,216,1721,302,4633,13,52,860
733817,1928112,1972680,1944854,1977622,3800,3015,-2709,-3195,138,1808,362,5072,9,48,863
734819,1928204,1972852,1945051,1977819,3800,3127,-2579,-2823,69,1988,458,6106,9,48,863
735819,1928280,1973052,1945248,1978016,3800,2952,-831,-169,-66,3896,1097,30807,13,37,862
736820,1928356,1973252,1945445,1978213,3800,2952,2144,4277,-129,2979,138,32767,13,37,862
737822,1928456,1973432,1945642,1978410,3800,3085,3489,5748,-161,1903,178,5571,23,46,863
738823,1928572,1973632,1945839,1978607,3800,2960,3387,5013,-235,2052,550,3112,23,46,863
739824,1928680,1973804,1946036,1978804,3800,3147,2857,3747,-296,2267,46,3107,15,43,862
740825,1928844,1973988,1946233,1979001,3800,3078,2586,3272,-271,2472,-99,3781,15,43,862
741826,1929036,1974184,1946430,1979198,3800,3005,2464,2970,-220,2079,-28,3272,25,46,861
742827,1929296,1974356,1946627,1979395,3800,3167,2398,2611,-265,2114,374,2768,25,46,861
743828,1929612,1974528,1946824,1979592,3800,3179,2272,1920,-378,2127,1062,2106,49,33,864
744828,1929948,1974712,1947021,1979789,3800,3111,2141,933,-434,1723,787,1812,49,33,864
745830,1930324,1974904,1947218,1979986,3800,3064,1971,181,-412,1180,-498,2598,70,47,864
746831,1930796,1975080,1947415,1980183,3800,3174,1753,-297,-353,285,-1300,3030,70,47,864
747832,1931188,1975228,1947612,1980380,3800,3372,1498,-538,-283,-236,-1488,3940,99,33,866
748833,1931608,1975396,1947809,1980577,3800,3260,1189,-321,-233,-366,-1187,5102,99,33,866
749834,1932076,1975548,1948006,1980774,3800,3381,911,-279,-264,-489,-702,4021,95,31,864
750834,1932544,1975696,1948203,1980971,3800,3429,666,-436,-446,-355,-266,4053,95,31,864
751835,1932992,1975844,1948400,1981168,3800,3451,501,-648,-675,-655,-19,3749,104,31,863
752836,1933436,1976016,1948597,1981365,3800,3313,386,-1135,-844,-800,42,2936,104,31,863
753838,1933900,1976152,1948794,1981562,3800,3566,296,-1714,-926,-506,-282,2697,85,43,863
754838,1934328,1976304,1948991,1981759,3800,3487,160,-2212,-903,-569,-214,3005,85,43,863
755840,1934752,1976444,1949188,1981956,3800,3588,24,-2688,-831,-498,182,2932,81,37,862
756840,1935172,1976608,1949385,1982153,3800,3453,-125,-3117,-820,-171,586,3228,81,37,862
757842,1935556,1976792,1949582,1982350,3800,3335,-209,-3431,-890,-354,1014,3196,91,48,862
758849,1935972,1976944,1949812,1982580,3800,3570,-188,-3855,-1068,-558,1487,2733,91,48,862
759844,1936416,1977100,1950009,1982777,3800,3564,-64,-4558,-1358,-484,1682,2191,90,42,864
760844,1936808,1977264,1950206,1982974,3800,3530,84,-5206,-1655,-326,1758,2436,90,42,864
761845,1937244,1977444,1950403,1983171,3800,3438,198,-5743,-1821,187,2420,2614,95,48,862
762846,1937764,1977616,1950600,1983368,3800,3500,171,-6278,-1806,893,2170,3125,95,48,862
763848,1938324,1977796,1950797,1983565,3800,3459,54,-6167,-1713,887,2283,4652,97,43,862
764861,1938856,1977924,1950994,1983762,3800,3800,44,-6132,-1676,251,3223,3581,97,43,862
765837,1939568,1978080,1951191,1983959,3601,3660,118,-6340,-1775,290,3586,3637,109,30,864
766838,1940276,1978228,1951388,1984156,3405,3733,210,-6256,-1908,126,3540,4281,109,30,864
767851,1941024,1978364,1951585,1984353,2915,3800,356,-6314,-1997,-524,3618,3660,120,37,865
768840,1941808,1978556,1951782,1984550,2434,3489,491,-6216,-2069,-523,3230,4313,120,37,865
769854,1942328,1978740,1951979,1984747,3800,3545,574,-5968,-1993,-891,1980,4666,140,58,866
770842,1943024,1978928,1952176,1984944,2626,3525,596,-5391,-1716,-1368,426,5465,140,58,866
771843,1943876,1979124,1952373,1985141,1365,3477,600,-4569,-1370,-1906,-1035,5476,140,57,866
772844,1944604,1979296,1952570,1985338,1908,3640,635,-4038,-987,-2895,-2086,4964,140,57,866
773845,1945356,1979476,1952767,1985535,1515,3598,668,-3155,-536,-3661,-2384,6279,155,40,874
774846,1946072,1979636,1952964,1985732,1514,3740,729,-2227,-80,-4645,-2451,5564,155,40,874
775860,1946840,1979784,1953161,1985929,939,3800,844,-1490,346,-5426,-2219,5326,151,47,873
776860,1947456,1979940,1953358,1986126,1706,3800,998,-729,809,-5310,-1622,5320,151,47,873
777862,1948044,1980072,1953555,1986323,1710,3800,1244,-298,1291,-5063,-892,3881,138,43,874
778863,1948624,1980208,1953752,1986520,1594,3800,1533,-161,1779,-5134,-1390,3412,138,43,874
779864,1949132,1980332,1953949,1986717,1908,3800,1790,-205,2337,-5251,-2084,3138,116,31,871
780865,1949568,1980448,1954146,1986914,2253,3800,2007,-283,2983,-4826,-2383,2750,116,31,871
781866,1950032,1980544,1954343,1987111,1962,3800,2214,-449,3644,-4396,-2277,2157,103,16,870
782867,1950424,1980652,1954540,1987308,2327,3800,2423,-776,4261,-4165,-2173,1808,103,16,870
783867,1950716,1980792,1954737,1987505,2912,3800,2600,-1212,4799,-3668,-2126,1473,71,32,869
784868,1951000,1980936,1954934,1987702,2924,3800,2748,-1715,5266,-3147,-1885,1191,71,32,869
785870,1951224,1981096,1955131,1987899,3287,3800,2848,-2066,5670,-2994,-1852,1671,58,28,862
786870,1951452,1981252,1955328,1988096,3250,3800,2937,-2576,5999,-1935,-1529,1057,58,28,862
787872,1951664,1981420,1955525,1988293,3344,3800,3015,-2961,6242,-627,-1178,1282,39,36,862
788860,1951856,1981632,1955722,1988490,3472,3767,3036,-3212,6412,-199,-1370,1746,39,36,862
789861,1952032,1981848,1955919,1988687,3582,3736,2946,-3263,6567,212,-2347,2534,59,47,861
790862,1952192,1982068,1956116,1988884,3699,3702,2712,-2977,6730,339,-2682,3673,59,47,861
791876,1952340,1982216,1956313,1989081,3796,3800,2430,-2429,6874,341,-2520,4146,39,45,860
792876,1952492,1982360,1956510,1989278,3792,3800,2126,-1905,6822,1142,-1636,3891,39,45,860
793878,1952696,1982540,1956707,1989475,3464,3800,1825,-1602,6532,2205,-454,3324,49,31,857
794879,1952908,1982716,1956904,1989672,3409,3800,1411,-1303,6039,3001,759,3797,49,31,857
795866,1953124,1982932,1957101,1989869,3376,3786,782,-654,5268,3225,978,5044,40,45,859
796868,1953328,1983172,1957298,1990066,3449,3619,48,136,4478,3347,208,5432,40,45,859
797869,1953516,1983404,1957495,1990263,3553,3655,-685,984,3823,3619,570,5641,50,42,860
798870,1953720,1983652,1957692,1990460,3451,3533,-1346,1611,3140,4333,1800,4800,50,42,860
799870,1953944,1983892,1957889,1990657,3315,3566,-1939,1862,2258,5126,3100,3781,38,51,861
800872,1954200,1984196,1958086,1990854,3090,3120,-2504,1749,1243,5569,3469,2737,38,51,861
801873,1954440,1984564,1958283,1991051,3171,2646,-3035,1339,249,5785,2876,2033,66,64,864
802874,1954688,1984888,1958480,1991248,3100,2866,-3542,958,-600,5316,1748,2393,66,64,864
803875,1954924,1985228,1958677,1991445,3159,2706,-4030,739,-1230,4453,686,2721,60,64,870
804876,1955160,1985568,1958874,1991642,3143,2644,-4425,220,-1745,4355,737,1468,60,64,870
805877,1955392,1985952,1959071,1991839,3152,2288,-4706,-645,-2279,4547,868,473,49,68,871
806878,1955672,1986324,1959268,1992036,2817,2287,-4872,-1724,-2798,4571,863,-94,49,68,871
807879,1955912,1986672,1959465,1992233,3049,2371,-5004,-2814,-3220,4132,157,258,56,80,872
808880,1956120,1987060,1959662,1992430,3244,2038,-5166,-3502,-3426,2850,-1364,1579,56,80,872
809881,1956376,1987428,1959859,1992627,2919,2089,-5321,-3837,-3362,1622,-2170,2387,37,77,874
810882,1956624,1987784,1960056,1992824,2948,2095,-5471,-3942,-3220,1347,-2418,2798,37,77,874
811883,1956860,1988108,1960253,1993021,3006,2241,-5528,-4164,-3149,1669,-1923,2246,63,65,875
812884,1957128,1988532,1960450,1993218,2775,1517,-5513,-4409,-3159,1327,-1527,2713,63,65,875
813885,1957384,1988888,1960647,1993415,2825,1873,-5476,-4300,-3137,131,-2326,4081,44,65,875
814886,1957600,1989196,1960844,1993612,3067,2125,-5369,-3962,-3006,-1081,-2537,4431,44,65,875
815887,1957824,1989504,1961041,1993809,3006,2077,-5204,-3457,-2753,-1040,-2299,5078,49,71,878
816888,1958084,1989892,1961238,1994006,2754,1494,-5041,-2754,-2472,131,-1098,5400,49,71,878
817889,1958364,1990256,1961435,1994203,2593,1571,-4893,-2089,-2178,764,-698,5427,48,77,875
818890,1958632,1990624,1961632,1994400,2638,1472,-4784,-1345,-1862,42,-1810,5789,48,77,875
819891,1958836,1990944,1961829,1994597,3035,1719,-4631,-631,-1516,-1155,-2703,5743,40,81,879
820892,1959056,1991312,1962026,1994794,2926,1345,-4434,-145,-1292,-1156,-1445,5109,40,81,879
821893,1959288,1991692,1962223,1994991,2835,1189,-4211,154,-1341,-349,338,4069,36,67,878
822894,1959592,1992020,1962420,1995188,2339,1458,-3961,65,-1521,311,470,2705,36,67,878
823895,1959880,1992308,1962617,1995385,2399,1668,-3234,424,-1562,1076,-975,7762,61,67,881
824896,1960168,1992608,1962814,1995582,2360,1548,-1100,4472,-1342,2472,-5175,32767,61,67,881
825897,1960456,1992916,1963011,1995779,2321,1451,954,7432,-1136,1137,-2237,11343,66,67,882
826898,1960720,1993196,1963208,1995976,2442,1589,1293,7293,-1047,1550,-577,1439,66,67,882
827899,1961048,1993452,1963405,1996173,1984,1714,1105,5798,-1088,2694,-17,-589,52,67,883
828900,1961420,1993724,1963602,1996370,1633,1581,807,4155,-1120,3519,-254,-654,52,67,883
829901,1961728,1993988,1963799,1996567,1985,1603,838,3381,-1047,3131,-771,19,64,52,882
830902,1962044,1994264,1963996,1996764,1883,1493,880,2552,-920,2483,-1354,25,64,52,882
831903,1962412,1994556,1964193,1996961,1483,1352,837,2235,-854,2997,-1186,1272,61,58,885
832904,1962784,1994808,1964390,1997158,1381,1578,699,1939,-832,3274,-716,1054,61,58,885
833905,1963136,1995056,1964587,1997355,1439,1582,658,1539,-865,3389,-534,655,61,50,887
834906,1963516,1995340,1964784,1997552,1184,1319,673,1212,-931,2799,-1312,935,61,50,887
835907,1963884,1995624,1964981,1997749,1184,1280,305,1677,-1085,681,-9126,-240,75,64,887
836908,1964216,1995892,1965178,1997946,1349,1350,-294,2687,-1054,-2888,-15114,-141,75,64,887
837909,1964592,1996140,1965375,1998143,997,1453,-268,3057,-937,279,-4964,2598,62,49,889
838910,1964896,1996356,1965572,1998340,1400,1645,145,2880,-885,2317,-765,2032,62,49,889
839911,1965224,1996636,1965769,1998537,1192,1209,558,2820,-786,2378,-1028,2763,77,53,888
840912,1965604,1996888,1965966,1998734,787,1360,839,3174,-595,2257,-1507,3404,77,53,888
841920,1965900,1997132,1966196,1998964,1283,1405,1091,3522,-393,1765,-1550,3103,75,57,888
842914,1966180,1997388,1966393,1999161,1346,1304,1373,3831,-233,1551,-1537,3416,75,57,888
843915,1966476,1997608,1966590,1999358,1203,1519,1636,4178,-102,1288,-1320,3604,65,46,889
844916,1966756,1997804,1966787,1999555,1266,1670,1911,4538,15,847,-1333,3695,65,46,889
845917,1967036,1998088,1966984,1999752,1230,1082,2149,4992,90,597,-1274,3910,60,49,888
846918,1967280,1998356,1967181,1999949,1434,1151,2356,5388,155,361,-1143,3657,60,49,888
847919,1967556,1998600,1967378,2000146,1199,1281,2492,5817,239,214,-1015,4045,55,50,889
848920,1967808,1998816,1967575,2000343,1325,1448,2557,6338,350,-5,-1099,4104,55,50,889
849921,1968044,1999000,1967772,2000540,1408,1653,2562,6778,488,-296,-1405,4062,43,28,889
850922,1968284,1999184,1967969,2000737,1364,1660,2477,7272,648,-364,-1501,4246,43,28,889
851923,1968508,1999304,1968166,2000934,1452,2094,2348,7562,779,-347,-977,3533,60,42,886
852924,1968792,1999436,1968363,2001131,1039,2047,2202,7658,784,-343,-72,3183,60,42,886
853925,1969024,1999656,1968560,2001328,1349,1487,2048,7551,723,-401,253,2550,43,47,884
854926,1969276,1999856,1968757,2001525,1199,1612,1910,7142,688,-274,275,1779,43,47,884
855927,1969476,2000084,1968954,2001722,1523,1423,1768,6654,667,-70,568,2100,37,33,887
856928,1969788,2000288,1969151,2001919,773,1570,1600,6248,668,-43,671,2513,37,33,887
857929,1970076,2000484,1969348,2002116,882,1622,1465,5898,676,104,1074,2539,46,31,887
858930,1970376,2000636,1969545,2002313,761,1916,1401,5387,649,365,1203,1962,46,31,887
859931,1970664,2000812,1969742,2002510,796,1776,1418,4485,502,534,1266,1128,65,35,889
860932,1970948,2000984,1969939,2002707,783,1813,1456,3355,285,515,801,677,65,35,889
861933,1971252,2001184,1970136,2002904,611,1636,1590,1958,171,795,138,-19,53,44,887
862934,1971500,2001368,1970333,2003101,939,1742,1701,611,91,1087,174,781,53,44,887
863935,1971824,2001560,1970530,2003298,407,1695,1759,-337,-77,1051,176,1943,53,33,888
864936,1972088,2001720,1970727,2003495,752,1912,1774,-1101,-380,1104,572,2046,53,33,888
865937,1972348,2001896,1970924,2003692,750,1821,1752,-1989,-761,1384,391,1816,56,31,889
866938,1972580,2002060,1971121,2003889,909,1911,1708,-2970,-1127,1771,396,1642,56,31,889
867939,1972780,2002204,1971318,2004086,1107,2060,1590,-3808,-1473,2161,726,2116,58,30,887
868940,1972992,2002400,1971515,2004283,1025,1735,1365,-4486,-1779,2468,623,2302,58,30,887
869941,1973252,2002600,1971712,2004480,698,1710,1068,-5042,-2019,2815,665,2717,57,46,886
870942,1973492,2002800,1971909,2004677,803,1708,665,-5236,-2223,3008,795,3876,57,46,886
871943,1973724,2002972,1972106,2004874,837,1894,123,-4998,-2366,3173,153,5093,51,26,888
872944,1973928,2003164,1972303,2005071,1009,1773,-704,-4295,-2427,3324,-398,6467,51,26,888
873945,1974152,2003328,1972500,2005268,872,1962,-1344,-3990,-2682,3506,2128,4203,49,29,886
874946,1974324,2003488,1972697,2005465,1208,2004,-1720,-4248,-3118,3893,3018,3247,49,29,886
875947,1974520,2003688,1972894,2005662,1058,1753,-2012,-4616,-3551,4194,2763,3401,46,33,887
876948,1974672,2003856,1973091,2005859,1353,1966,-2374,-4666,-3840,4202,2040,4408,46,33,887
877949,1974840,2004024,1973288,2006056,1264,1979,-2859,-4322,-3941,4140,1322,5224,26,30,886
878950,1975048,2004196,1973485,2006253,1010,1965,-3400,-3758,-3952,4323,1182,5516,26,30,886
879951,1975208,2004332,1973682,2006450,1326,2217,-3894,-3195,-3953,4164,960,5473,43,27,884
880952,1975380,2004488,1973879,2006647,1261,2111,-4222,-2905,-3934,4117,706,4567,43,27,884
881953,1975576,2004640,1974076,2006844,1111,2156,-4392,-2859,-3753,3904,-302,3897,24,41,884
882954,1975716,2004796,1974273,2007041,1486,2150,-4485,-2808,-3459,3020,-936,3898,24,41,884
883955,1975884,2004948,1974470,2007238,1323,2195,-4536,-2661,-3153,2087,-1261,4018,30,39,883
884955,1976012,2005100,1974667,2007435,1603,2216,-4521,-2418,-2918,1323,-1215,4177,30,39,883
885957,1976160,2005260,1974864,2007632,1500,2182,-4444,-2020,-2775,783,-860,4953,31,32,882
886958,1976332,2005424,1975061,2007829,1361,2171,-4367,-1310,-2650,361,-862,5808,31,32,882
887959,1976476,2005560,1975258,2008026,1558,2374,-4311,258,-2289,-284,-1274,5725,22,29,881
888959,1976644,2005732,1975455,2008223,1421,2160,-4124,1067,-2060,-706,-1587,7329,22,29,881
889961,1976800,2005916,1975652,2008420,1514,2092,-2105,5658,-1425,-2473,-5325,32767,36,29,882
890962,1976960,2006092,1975849,2008617,1505,2151,329,9876,-818,-2317,-3250,22895,36,29,882
891963,1977128,2006248,1976046,2008814,1468,2295,1151,10326,-664,-1063,-271,1452,26,30,883
892964,1977300,2006404,1976243,2009011,1453,2313,989,8476,-722,-606,123,-114,26,30,883
893965,1977432,2006576,1976440,2009208,1732,2225,659,6431,-682,35,-465,-446,37,30,882
894966,1977624,2006748,1976637,2009405,1359,2236,542,5491,-395,156,-1120,1296,37,30,882
895966,1977800,2006904,1976834,2009602,1468,2355,430,4894,82,229,-1712,1158,27,24,881
896968,1977968,2007072,1977031,2009799,1531,2293,241,4471,531,704,-1279,1809,27,24,881
897969,1978152,2007272,1977228,2009996,1435,2093,60,3724,872,134,-908,968,30,30,881
898970,1978304,2007436,1977425,2010193,1655,2332,-57,2538,1094,-153,-642,408,30,30,881
899971,1978472,2007592,1977622,2010390,1568,2401,-114,1580,1162,-340,-295,1152,35,34,883
900971,1978628,2007764,1977819,2010587,1661,2312,-348,1036,1277,-1084,-1363,2902,35,34,883
901973,1978792,2007912,1978016,2010784,1625,2485,-631,1060,1444,-1404,-2005,4447,47,31,881
902974,1978944,2008092,1978213,2010981,1720,2292,-613,1495,1610,-1802,-2261,6918,47,31,881
903975,1979108,2008280,1978410,2011178,1659,2247,405,3791,2042,-3130,-5576,24175,26,34,881
904976,1979280,2008468,1978607,2011375,1620,2252,1469,6049,2469,-2570,-4469,14000,26,34,881
905977,1979460,2008684,1978804,2011572,1577,2069,1695,6659,2685,-2216,-2723,5474,39,47,881
906978,1979620,2008872,1979001,2011769,1718,2249,1512,6439,2707,-2171,-1826,5231,39,47,881
907979,1979780,2009060,1979198,2011966,1735,2253,1340,6214,2615,-1834,-1226,5206,41,43,881
908980,1979936,2009232,1979395,2012163,1778,2365,1353,6242,2550,-1619,-1228,5294,41,43,881
909981,1980080,2009408,1979592,2012360,1876,2349,1401,6319,2481,-1424,-1601,5227,32,35,881
910982,1980216,2009576,1979789,2012557,1953,2413,1383,6260,2372,-1075,-1923,4668,32,35,881
911983,1980396,2009792,1979986,2012754,1685,2104,1238,5795,2243,-959,-1407,3731,44,48,879
912984,1980568,2010016,1980183,2012951,1745,2043,1092,5149,2127,-752,-1224,3205,44,48,879
913985,1980760,2010224,1980380,2013148,1623,2139,1006,4329,2024,-433,-1202,2689,31,52,878
914986,1980940,2010432,1980577,2013345,1705,2135,944,3410,1973,-302,-1423,2436,31,52,878
915987,1981108,2010628,1980774,2013542,1793,2211,858,2564,1968,-209,-1518,2637,32,52,882
916988,1981280,2010876,1980971,2013739,1779,1864,760,1672,1935,-81,-1679,2379,32,52,882
917989,1981408,2011120,1981168,2013936,2084,1869,638,838,1827,-34,-1831,2841,24,40,881
918990,1981532,2011332,1981365,2014133,2141,2062,513,126,1654,-154,-1974,3207,24,40,881
919991,1981688,2011516,1981562,2014330,1959,2244,375,-456,1428,-240,-2067,3475,40,36,882
920992,1981808,2011716,1981759,2014527,2218,2143,213,-905,1169,-484,-1600,3780,40,36,882
921993,1981936,2011944,1981956,2014724,2198,1955,32,-1262,927,-715,-904,4084,37,52,880
922994,1982044,2012192,1982153,2014921,2362,1808,-150,-1578,725,-717,-859,4270,37,52,880
923995,1982188,2012420,1982350,2015118,2161,1920,-292,-1805,607,-852,-1008,4450,32,53,879
925005,1982348,2012652,1982580,2015348,2091,1895,-367,-2043,583,-942,-1328,4557,32,53,879
925997,1982524,2012864,1982777,2015545,2001,2014,-396,-2225,581,-1001,-1445,4618,32,44,880
926998,1982664,2013120,1982974,2015742,2251,1714,-391,-2393,550,-1176,-1428,4549,32,44,880
927999,1982812,2013372,1983171,2015939,2222,1715,-343,-2542,476,-1288,-1465,4366,40,46,882
928999,1982944,2013600,1983368,2016136,2351,1852,-254,-2780,367,-1289,-1337,4052,40,46,882
930001,1983064,2013832,1983565,2016333,2460,1812,-125,-3132,289,-1303,-1258,3928,28,48,880
931001,1983192,2014036,1983762,2016530,2440,1983,24,-3448,278,-1361,-1193,4011,28,48,880
932003,1983336,2014252,1983959,2016727,2364,1901,171,-3674,335,-1422,-1172,4011,29,40,879
933003,1983444,2014460,1984156,2016924,2628,1946,314,-3898,442,-1476,-1116,3922,29,40,879
934005,1983552,2014692,1984353,2017121,2668,1782,477,-4064,549,-1449,-1168,3903,33,43,879
935005,1983680,2014924,1984550,2017318,2573,1767,677,-4238,622,-1539,-1114,3723,33,43,879
936007,1983788,2015168,1984747,2017515,2737,1672,923,-4469,640,-1623,-930,3597,27,54,877
937008,1983896,2015392,1984944,2017712,2776,1785,1182,-4570,607,-1414,-859,3825,27,54,877
938009,1984012,2015600,1985141,2017909,2762,1881,1433,-4557,575,-1425,-889,3989,32,54,879
939010,1984132,2015848,1985338,2018106,2771,1609,1681,-4482,600,-1504,-1031,4257,32,54,879
940011,1984224,2016100,1985535,2018303,2993,1561,1922,-4338,681,-1398,-1020,4243,36,51,876
941012,1984332,2016364,1985732,2018500,2932,1456,2150,-4168,786,-1334,-762,4188,36,51,876
942013,1984456,2016620,1985929,2018697,2864,1480,2376,-3876,861,-1267,-538,4360,15,46,877
943014,1984592,2016896,1986126,2018894,2817,1322,2615,-3654,883,-1192,-510,4048,15,46,877
944015,1984716,2017124,1986323,2019091,2924,1608,2865,-3432,879,-1063,-646,4183,24,48,879
945016,1984876,2017276,1986520,2019288,2715,2104,3100,-3008,890,-911,-690,4432,24,48,879
946017,1985032,2017384,1986717,2019485,2759,2418,3323,-2602,906,-709,-693,4188,25,30,879
947018,1985164,2017552,1986914,2019682,2938,2056,3528,-2244,915,-571,-721,4050,25,30,879
948019,1985340,2017692,1987111,2019879,2672,2257,3712,-1908,945,-390,-683,3893,39,26,877
949020,1985504,2017872,1987308,2020076,2762,2014,3858,-1538,978,-142,-644,3915,39,26,877
950021,1985660,2018128,1987505,2020273,2830,1514,3974,-1120,951,-82,-428,3957,48,34,875
951021,1985844,2018384,1987702,2020470,2661,1488,4046,-632,854,69,-80,3985,48,34,875
952023,1986012,2018640,1987899,2020667,2775,1462,4077,-188,749,633,105,3733,29,48,876
953023,1986180,2018864,1988096,2020864,2787,1651,4069,240,679,1206,161,3807,29,48,876
954025,1986344,2019176,1988293,2021061,2827,1051,4040,676,633,1463,260,3606,48,54,880
955026,1986520,2019492,1988490,2021258,2762,974,3985,971,533,1700,317,3000,48,54,880
956027,1986688,2019776,1988687,2021455,2825,1136,3904,1117,355,2132,389,2663,46,65,879
957028,1986872,2020016,1988884,2021652,2732,1392,3778,1221,178,2600,392,2698,46,65,879
958029,1987084,2020296,1989081,2021849,2550,1106,3589,1437,56,2952,146,2966,35,52,882
959030,1987272,2020584,1989278,2022046,2704,1017,3360,1771,-27,2932,-37,3197,35,52,882
960031,1987444,2020860,1989475,2022243,2816,1057,3122,2124,-144,2928,36,3174,30,58,881
961032,1987616,2021140,1989672,2022440,2827,996,2869,2486,-349,3390,603,3081,30,58,881
962033,1987776,2021424,1989869,2022637,2918,934,2603,2797,-591,3779,1127,2951,28,67,881
963033,1987928,2021728,1990066,2022834,2989,762,2335,3083,-830,3768,1372,2983,28,67,881
964035,1988064,2022040,1990263,2023031,3116,661,2077,3324,-1119,3712,1597,2659,38,69,879
965035,1988216,2022344,1990460,2023228,3037,664,1821,3463,-1486,3752,1896,2407,38,69,879
966037,1988364,2022620,1990657,2023425,3083,804,1542,3621,-1860,3877,2067,2707,27,69,881
967037,1988544,2022928,1990854,2023622,2892,555,1218,3815,-2172,3877,2039,2779,27,69,881
968039,1988720,2023236,1991051,2023819,2926,508,901,4072,-2415,3838,2088,2690,33,53,881
969040,1988896,2023508,1991248,2024016,2935,700,594,4344,-2627,3721,2263,2943,33,53,881
970041,1989064,2023732,1991445,2024213,2999,988,299,4630,-2872,3610,2470,2881,34,52,882
971042,1989212,2023936,1991642,2024410,3145,1110,35,4799,-3168,3492,2583,2450,34,52,882
972043,1989332,2024172,1991839,2024607,3355,893,-196,4892,-3482,3165,2801,2292,43,39,881
973044,1989472,2024408,1992036,2024804,3255,876,-427,4950,-3787,3047,2588,2290,43,39,881
974045,1989592,2024600,1992233,2025001,3415,1153,-683,5043,-4083,3066,2207,2564,18,35,877
975046,1989704,2024812,1992430,2025198,3502,1021,-950,5213,-4328,2780,2174,2713,18,35,877
976047,1989836,2024984,1992627,2025395,3407,1282,-1229,5453,-4477,2389,2068,2895,21,35,878
977048,1989948,2025196,1992824,2025592,3569,1026,-1520,5691,-4580,2044,1957,3021,21,35,878
978049,1990080,2025348,1993021,2025789,3474,1420,-1804,5941,-4666,1696,1852,3137,21,31,875
979050,1990228,2025504,1993218,2025986,3395,1414,-2053,6140,-4716,1407,1715,2818,21,31,875
980051,1990344,2025696,1993415,2026183,3632,1192,-2265,6201,-4740,1152,1515,2463,30,47,875
981052,1990464,2025876,1993612,2026380,3642,1274,-2431,6080,-4768,710,1544,2173,30,47,875
982053,1990576,2026064,1993809,2026577,3729,1228,-2585,5900,-4812,341,1567,2089,18,31,875
983054,1990728,2026232,1994006,2026774,3500,1366,-2744,5736,-4861,30,1448,2014,18,31,875
984055,1990876,2026408,1994203,2026971,3547,1325,-2882,5452,-4863,-357,1190,1913,21,47,872
985056,1990996,2026560,1994400,2027168,3756,1495,-2990,5198,-4796,-749,727,2042,21,47,872
986057,1991136,2026708,1994597,2027365,3657,1541,-3085,5001,-4700,-1251,366,2154,37,42,872
987058,1991284,2026888,1994794,2027562,3629,1349,-3192,4854,-4599,-1853,93,2520,37,42,872
988059,1991476,2027088,1994991,2027759,3357,1222,-3308,4725,-4471,-2111,-88,2863,29,41,871
989060,1991700,2027288,1995188,2027956,3146,1222,-3416,4614,-4329,-2286,-6,2943,29,41,871
990061,1991940,2027464,1995385,2028153,3027,1381,-3545,4460,-4166,-2467,-304,3175,43,43,874
991062,1992200,2027640,1995582,2028350,2876,1391,-3685,4466,-3927,-2865,-1036,3725,43,43,874
992063,1992496,2027808,1995779,2028547,2608,1453,-3819,4424,-3657,-3583,-1757,3689,65,48,879
993064,1992756,2027960,1995976,2028744,2806,1573,-3910,4334,-3412,-3940,-2229,3688,65,48,879
994065,1992988,2028136,1996173,2028941,2966,1432,-3955,4168,-3184,-4045,-2219,3539,56,34,879
995066,1993244,2028312,1996370,2029138,2790,1441,-3954,3837,-2923,-4090,-2461,3360,56,34,879
996067,1993484,2028512,1996567,2029335,2872,1291,-3914,3365,-2636,-4159,-2635,3033,54,36,878
997068,1993736,2028688,1996764,2029532,2774,1450,-3819,2752,-2337,-4326,-2451,2691,54,36,878
998069,1993992,2028876,1996961,2029729,2723,1379,-3715,1956,-2028,-4424,-2049,2551,38,34,880
999070,1994228,2029060,1997158,2029926,2832,1410,-2656,99,-1666,-5292,-4375,6140,38,34,880
1000071,1994460,2029228,1997355,2030123,2842,1523,1651,-4067,-1305,-6217,-11950,32767,42,45,880
1001072,1994704,2029376,1997552,2030320,2747,1669,4563,-6055,-849,-3589,-6185,13018,42,45,880
1002073,1994972,2029528,1997749,2030517,2566,1665,4461,-5675,-284,-3419,-3581,7262,60,43,879
1003074,1995204,2029656,1997946,2030714,2776,1845,3369,-3979,239,-3623,-3664,8829,60,43,879
1004075,1995416,2029812,1998143,2030911,2895,1688,2770,-2916,525,-3846,-2020,6380,36,22,879
1005076,1995648,2029944,1998340,2031108,2756,1867,2625,-2679,544,-2924,-891,5781,36,22,879
1006077,1995856,2030056,1998537,2031305,2902,2029,2671,-2552,551,-2536,-1044,5156,48,21,876
1007078,1996064,2030176,1998734,2031502,2897,2014,2653,-2845,672,-2403,-1364,4158,48,21,876
1008086,1996288,2030272,1998964,2031732,2800,2223,2524,-2713,781,-1524,-1156,5510,47,24,876
1009080,1996460,2030384,1999161,2031929,3136,2160,2295,-2488,856,-821,-407,5030,47,24,876
1010081,1996640,2030484,1999358,2032126,3095,2278,2208,-2565,912,-22,-546,3678,35,26,876
1011082,1996856,2030596,1999555,2032323,2862,2241,2132,-2956,963,637,-811,3020,35,26,876
1012083,1997028,2030704,1999752,2032520,3149,2306,2117,-3607,1034,1032,-432,2418,31,27,873
1013084,1997220,2030800,1999949,2032717,3026,2425,2013,-4052,1083,1754,-273,3079,31,27,873
1014085,1997452,2030896,2000146,2032914,2761,2470,1909,-4515,1108,2017,-445,2318,43,37,875
1015086,1997620,2031064,2000343,2033111,3174,2033,1781,-5011,1174,2172,-625,2529,43,37,875
1016087,1997796,2031200,2000540,2033308,3134,2261,1628,-5225,1223,2546,-432,3188,32,23,871
1017088,1997988,2031320,2000737,2033505,3037,2395,1514,-5526,1179,2747,248,2653,32,23,871
1018089,1998152,2031460,2000934,2033702,3227,2295,1425,-5688,1023,2770,585,3305,27,31,871
1019090,1998308,2031592,2001131,2033899,3295,2374,1399,-5853,771,2530,822,2736,27,31,871
1020091,1998476,2031728,2001328,2034096,3234,2376,1373,-6215,478,2497,885,2525,28,23,872
1021092,1998648,2031856,2001525,2034293,3220,2457,1296,-6148,166,2499,1126,3614,28,23,872
1022093,1998788,2031976,2001722,2034490,3446,2541,1112,-5911,-180,2258,1867,4013,34,23,871
1023094,1998924,2032120,2001919,2034687,3498,2416,892,-5474,-476,2485,1652,4414,34,23,871
1024094,1999080,2032248,2002116,2034884,3392,2546,697,-4898,-709,2487,1772,4544,40,24,870
1025095,1999220,2032380,2002313,2035081,3518,2550,563,-4416,-933,2134,1978,4231,40,24,870
1026097,1999356,2032528,2002510,2035278,3570,2472,420,-3882,-1266,1970,2453,4340,30,25,868
1027098,1999500,2032668,2002707,2035475,3544,2548,280,-3415,-1641,1705,2441,3835,30,25,868
1028099,1999672,2032824,2002904,2035672,3380,2466,167,-3075,-1954,1707,1971,3455,36,44,866
1029099,1999820,2032976,2003101,2035869,3552,2512,68,-2796,-2146,1831,1497,3163,36,44,866
1030101,2000028,2033112,2003298,2036066,3174,2639,-15,-2654,-2173,1724,1068,2808,33,28,867
1031101,2000192,2033240,2003495,2036263,3463,2720,-110,-2435,-2139,1698,811,2772,33,28,867
1032103,2000364,2033412,2003692,2036460,3425,2456,-181,-2449,-2093,1572,534,2023,26,28,867
1033103,2000556,2033580,2003889,2036657,3302,2495,-249,-2454,-1990,1550,285,2223,26,28,867
1034105,2000724,2033744,2004086,2036854,3466,2535,-273,-2440,-1861,1378,188,1779,33,33,867
1035106,2000896,2033916,2004283,2037051,3453,2496,-243,-2578,-1739,1062,137,1433,33,33,867
1036107,2001112,2034108,2004480,2037248,3170,2374,-194,-2601,-1600,910,-22,1958,31,49,870
1037108,2001352,2034328,2004677,2037445,3002,2189,-163,-2561,-1427,744,-115,1919,31,49,870
1038109,2001544,2034480,2004874,2037642,3305,2635,-125,-2465,-1237,604,-376,2228,37,44,868
1039110,2001760,2034704,2005071,2037839,3147,2174,-111,-2172,-1015,264,-569,2818,37,44,868
1040111,2001960,2034936,2005268,2038036,3246,2109,-90,-1786,-775,91,-543,2791,39,53,873
1041111,2002196,2035168,2005465,2038233,3005,2094,-82,-1391,-575,34,-422,3164,39,53,873
1042113,2002440,2035384,2005662,2038430,2934,2186,-66,-912,-419,-280,-243,3405,51,46,872
1043114,2002688,2035624,2005859,2038627,2888,2018,-29,-509,-280,-221,20,3264,51,46,872
1044115,2002940,2035848,2006056,2038824,2839,2106,-2,-88,-174,-88,231,3370,63,49,875
1045116,2003212,2036048,2006253,2039021,2682,2256,-1,365,-61,-176,251,3754,63,49,875
1046117,2003512,2036312,2006450,2039218,2463,1828,-33,852,51,-136,211,3815,42,56,876
1047118,2003748,2036568,2006647,2039415,2845,1852,-97,1303,137,3,191,3790,42,56,876
1048119,2004004,2036848,2006844,2039612,2696,1666,-196,1720,219,208,314,4029,60,54,877
1049119,2004320,2037088,2007041,2039809,2268,1897,-310,2012,267,517,522,3627,60,54,877
1050121,2004596,2037356,2007238,2040006,2485,1692,-419,2137,248,599,513,3333,44,46,877
1051122,2004852,2037620,2007435,2040203,2584,1688,-563,2205,201,542,395,3507,44,46,877
1052123,2005124,2037868,2007632,2040400,2452,1766,-693,2159,126,636,697,2970,67,45,880
1053124,2005380,2038100,2007829,2040597,2526,1851,-824,1898,-2,882,1014,2599,67,45,880
1054125,2005620,2038324,2008026,2040794,2608,1890,-939,1612,-146,1004,1246,2574,53,54,880
1055126,2005880,2038544,2008223,2040991,2455,1905,-1057,1154,-281,1167,1282,2294,53,54,880
1056127,2006156,2038760,2008420,2041188,2321,1922,-1171,649,-416,1382,925,2363,52,53,879
1057128,2006412,2038980,2008617,2041385,2420,1887,-1317,164,-551,1479,922,2548,52,53,879
1058129,2006676,2039200,2008814,2041582,2341,1878,-1465,-310,-708,1574,1271,2483,56,53,879
1059130,2006916,2039412,2009011,2041779,2473,1922,-1627,-884,-915,1598,1624,2340,56,53,879
1060131,2007176,2039588,2009208,2041976,2320,2156,-1777,-1469,-1160,1545,1748,2531,61,37,879
1061132,2007428,2039756,2009405,2042173,2347,2220,-1941,-1935,-1429,1540,1748,2860,61,37,879
1062133,2007684,2039924,2009602,2042370,2296,2232,-2092,-2406,-1734,1478,1625,2793,60,44,878
1063133,2007916,2040072,2009799,2042567,2431,2380,-2219,-2888,-2054,1341,1309,3131,60,44,878
1064134,2008164,2040252,2009996,2042764,2310,2187,-2331,-3244,-2346,1199,616,3753,56,42,878
1065135,2008424,2040428,2010193,2042961,2207,2223,-2458,-3457,-2600,952,287,3880,56,42,878
1066136,2008664,2040576,2010390,2043158,2313,2419,-2607,-3739,-2817,771,356,3785,59,44,877
1067138,2008940,2040720,2010587,2043355,2054,2468,-2758,-4018,-2984,847,536,3810,59,44,877
1068139,2009212,2040860,2010784,2043552,2046,2519,-2899,-4319,-3103,1072,508,3934,58,42,879
1069140,2009456,2040996,2010981,2043749,2201,2571,-3003,-4617,-3180,1192,350,3874,58,42,879
1070141,2009720,2041128,2011178,2043946,2047,2625,-3045,-4952,-3226,1305,512,3549,65,22,878
1071142,2009988,2041256,2011375,2044143,1991,2681,-3010,-5320,-3235,1399,537,3436,65,22,878
1072143,2010252,2041380,2011572,2044340,1987,2738,-2998,-5562,-3169,1600,203,4043,59,24,875
1073144,2010528,2041508,2011769,2044537,1877,2745,-3001,-5730,-3004,1586,-314,4168,59,24,875
1074145,2010804,2041628,2011966,2044734,1843,2829,-2954,-5876,-2818,1174,-511,4175,60,34,876
1075146,2011092,2041740,2012163,2044931,1728,2917,-2895,-5834,-2679,652,-469,5238,60,34,876
1076147,2011368,2041872,2012360,2045128,1768,2821,-2879,-5499,-2486,228,-1231,6189,49,26,877
1077148,2011656,2041980,2012557,2045325,1653,3010,-2857,-4970,-2209,-71,-1630,6440,49,26,877
1078149,2011960,2042088,2012754,2045522,1506,3051,-2791,-4422,-1995,-587,-1201,6442,48,32,877
1079150,2012220,2042204,2012951,2045719,1755,3037,-2112,-3286,-1832,-483,-1825,12402,48,32,877
1080151,2012504,2042316,2013148,2045916,1567,3100,-130,545,-1547,341,-5044,32767,45,28,876
1081151,2012772,2042424,2013345,2046113,1635,3165,1428,2430,-1324,-871,-1766,7874,45,28,876
1082153,2013048,2042516,2013542,2046310,1551,3312,1838,2089,-1156,-1486,-1191,3231,53,23,875
1083154,2013328,2042632,2013739,2046507,1489,3197,1649,825,-884,-1590,-1841,2758,53,23,875
1084155,2013552,2042724,2013936,2046704,1827,3395,1537,179,-427,-1454,-2672,3922,49,19,874
1085156,2013800,2042844,2014133,2046901,1655,3254,1539,-5,172,-1585,-2645,3681,49,19,874
1086157,2014068,2042956,2014330,2047098,1499,3343,1633,-213,725,-1717,-2333,3000,43,19,875
1087158,2014284,2043064,2014527,2047295,1815,3407,1729,-598,1115,-1871,-1668,2606,43,19,875
1088158,2014476,2043164,2014724,2047492,1967,3500,1829,-1391,1397,-2122,-1280,1500,54,22,874
1089160,2014716,2043288,2014921,2047689,1649,3384,1933,-2186,1651,-1812,-1357,2057,54,22,874
1090161,2014932,2043388,2015118,2047886,1790,3577,1950,-2607,1950,-1864,-1707,2964,41,30,869
1091169,2015128,2043492,2015348,2048116,1930,3609,1955,-2734,2288,-2275,-1852,3585,41,30,869
1092163,2015320,2043632,2015545,2048313,1958,3410,1895,-2557,2555,-2334,-1756,4612,38,34,873
1093164,2015492,2043756,2015742,2048510,2094,3543,1829,-2220,2764,-2421,-1656,5072,38,34,873
1094165,2015684,2043868,2015939,2048707,1972,3655,1747,-1721,2946,-2370,-1471,5933,51,38,869
1095166,2015828,2044016,2016136,2048904,2295,3453,1711,-1115,3043,-2360,-1256,6009,51,38,869
1096166,2015976,2044140,2016333,2049101,2291,3636,1700,-656,3074,-2398,-841,5852,24,28,868
1097167,2016084,2044296,2016530,2049298,2580,3455,1702,-96,3098,-2044,-455,6077,24,28,868
1098169,2016188,2044436,2016727,2049495,2646,3581,1623,345,3116,-1435,-289,5634,18,38,869
1099170,2016284,2044552,2016924,2049692,2741,3767,1504,719,3147,-453,-77,5666,18,38,869
1100171,2016360,2044676,2017121,2049889,2919,3750,1301,1090,3199,593,260,5489,30,35,867
1101185,2016444,2044780,2017318,2050086,2919,3800,1074,1268,3247,1248,237,4708,30,35,867
1102186,2016508,2044884,2017515,2050283,3102,3800,864,1312,3273,1575,208,4378,30,33,864
1103187,2016572,2045000,2017712,2050480,3161,3800,669,1122,3277,1863,187,3561,30,33,864
1104188,2016624,2045084,2017909,2050677,3300,3800,496,718,3249,2324,29,2898,4,31,861
1105189,2016712,2045156,2018106,2050874,3123,3800,298,211,3215,2582,-218,2561,4,31,861
1106190,2016824,2045248,2018303,2051071,3010,3800,48,-309,3203,2623,-628,2596,11,15,858
1107190,2016944,2045308,2018500,2051268,2995,3800,-262,-652,3199,2535,-1102,3196,11,15,858
1108191,2017072,2045364,2018697,2051465,2976,3800,-572,-808,3217,2234,-1386,3492,30,10,860
1109192,2017184,2045400,2018894,2051662,3113,3800,-847,-908,3247,1858,-1325,3825,30,10,860
1110193,2017304,2045460,2019091,2051859,3098,3800,-1075,-914,3230,1284,-1355,4067,25,4,861
1111194,2017412,2045488,2019288,2052056,3212,3800,-1237,-992,3170,858,-1326,3935,25,4,861
1112195,2017508,2045528,2019485,2052253,3331,3800,-1349,-947,3089,712,-1415,4146,34,13,860
1113196,2017580,2045568,2019682,2052450,3537,3800,-1434,-918,2971,733,-1565,4026,34,13,860
1114197,2017660,2045636,2019879,2052647,3539,3800,-1490,-800,2793,630,-1653,4303,30,15,859
1115198,2017752,2045680,2020076,2052844,3510,3800,-1523,-606,2583,416,-1647,4436,30,15,859
1116200,2017848,2045716,2020273,2053041,3530,3800,-1474,-504,2393,110,-1670,3884,31,3,855
1117201,2017952,2045744,2020470,2053238,3521,3800,-1361,-446,2173,-242,-1349,3875,31,3,855
1118201,2018116,2045764,2020667,2053435,3162,3800,-1240,-349,1926,-476,-1238,3921,39,4,855
1119202,2018300,2045836,2020864,2053632,3042,3800,-1152,-215,1636,-646,-1076,3799,39,4,855
1120203,2018512,2045888,2021061,2053829,2862,3800,-1078,-42,1344,-909,-1010,3940,47,7,857
1121204,2018720,2045952,2021258,2054026,2882,3800,-1029,171,1091,-1247,-991,4254,47,7,857
1122206,2018924,2046000,2021455,2054223,2905,3800,-976,499,880,-1461,-768,4395,55,6,861
1123206,2019112,2046036,2021652,2054420,3009,3800,-860,625,658,-1434,-79,3559,55,6,861
1124208,2019308,2046080,2021849,2054617,2960,3800,-710,555,400,-1000,444,3229,33,7,861
1125208,2019524,2046164,2022046,2054814,2827,3800,-584,498,124,-696,633,3101,33,7,861
1126210,2019772,2046276,2022243,2055011,2605,3800,-519,402,-94,-632,264,3065,40,24,861
1127210,2020028,2046424,2022440,2055208,2529,3800,-533,380,-202,-845,-562,3374,40,24,861
1128212,2020260,2046604,2022637,2055405,2665,3800,-554,272,-231,-1074,-390,3048,55,38,863
1129212,2020484,2046788,2022834,2055602,2703,3800,-535,-8,-326,-934,432,2394,55,38,863
1130213,2020736,2047024,2023031,2055799,2504,3800,-504,-430,-534,-336,732,2030,44,60,866
1131214,2020984,2047352,2023228,2055996,2508,3800,-468,-970,-745,369,583,1645,44,60,866
1132216,2021244,2047704,2023425,2056193,2405,3800,-445,-1526,-876,653,1,1786,58,57,865
1133216,2021500,2048016,2023622,2056390,2405,3800,-478,-1893,-898,365,-504,2530,58,57,865
1134205,2021724,2048416,2023819,2056587,2593,3372,-506,-2132,-859,-38,-312,2842,66,70,865
1135206,2021956,2048848,2024016,2056784,2529,3071,-499,-2367,-875,59,81,2759,66,70,865
1136207,2022228,2049272,2024213,2056981,2246,3022,-464,-2614,-985,913,712,2692,59,84,868
1137208,2022484,2049704,2024410,2057178,2320,2871,-407,-2886,-1092,1527,729,2612,59,84,868
1138209,2022724,2050148,2024607,2057375,2402,2688,-410,-2966,-1057,1403,-365,3595,44,81,872
1139210,2022964,2050560,2024804,2057572,2383,2796,-488,-2605,-860,515,-1735,4756,44,81,872
1140211,2023168,2050912,2025001,2057769,2605,3104,-592,-2317,-643,222,-2060,4321,52,90,873
1141212,2023364,2051400,2025198,2057966,2656,2127,-636,-2272,-570,937,-1358,3328,52,90,873
1142213,2023600,2051836,2025395,2058163,2389,2349,-599,-2527,-662,1828,-476,2400,43,91,875
1143214,2023876,2052172,2025592,2058360,2105,2914,-578,-2714,-828,1929,-721,3047,43,91,875
1144215,2024096,2052560,2025789,2058557,2445,2506,-652,-2526,-899,1284,-1879,4282,45,68,877
1145215,2024304,2052972,2025986,2058754,2516,2262,-796,-2046,-863,962,-2104,4832,45,68,877
1146217,2024500,2053344,2026183,2058951,2591,2437,-1008,-1486,-844,1920,-1608,4804,30,74,876
1147218,2024664,2053708,2026380,2059148,2807,2414,-1149,-1258,-928,3183,-341,3234,30,74,876
1148219,2024868,2054112,2026577,2059345,2554,2074,-1223,-1415,-1060,3835,68,2636,35,80,877
1149220,2025144,2054476,2026774,2059542,2069,2252,-1311,-1443,-1182,3650,-428,3166,35,80,877
1150221,2025380,2054776,2026971,2059739,2303,2608,-1399,-1357,-1255,2759,-1313,2985,46,65,873
1151222,2025584,2055072,2027168,2059936,2500,2590,-1409,-1485,-1310,2257,-1287,2083,46,65,873
1152222,2025784,2055448,2027365,2060133,2523,2012,-1386,-1774,-1405,2868,-511,1701,39,72,879
1153223,2025984,2055736,2027562,2060330,2523,2523,-1340,-2161,-1557,3315,-228,1293,39,72,879
1154225,2026204,2056012,2027759,2060527,2388,2565,-1244,-2559,-1724,3209,-218,972,35,45,875
1155225,2026472,2056264,2027956,2060724,2057,2691,-1135,-2808,-1779,3009,-984,1490,35,45,875
1156227,2026736,2056548,2028153,2060921,2052,2454,-1113,-2714,-1640,2574,-2151,2622,56,51,875
1157227,2026988,2056912,2028350,2061118,2104,1881,-1175,-2270,-1420,1716,-2605,3356,56,51,875
1158229,2027232,2057328,2028547,2061315,2133,1461,-1227,-1846,-1293,1585,-1970,2764,48,72,877
1159229,2027460,2057684,2028744,2061512,2220,1767,-1197,-1605,-1293,2043,-1202,2295,48,72,877
1160230,2027704,2058000,2028941,2061709,2099,1965,-1069,-1412,-1314,2083,-941,2003,49,68,880
1161231,2028024,2058436,2029138,2061906,1571,1110,-909,-1152,-1289,1682,-1198,2176,49,68,880
1162233,2028320,2058832,2029335,2062103,1678,1274,-723,-737,-1240,823,-1504,2371,51,79,881
1163233,2028588,2059228,2029532,2062300,1821,1188,-583,-181,-1153,167,-1894,2945,51,79,881
1164234,2028848,2059608,2029729,2062497,1844,1207,-518,615,-1018,469,-1824,3578,66,90,888
1165236,2029144,2060044,2029926,2062694,1575,753,-472,1450,-880,763,-1639,3308,66,90,888
1166237,2029432,2060420,2030123,2062891,1586,1049,-357,2142,-736,561,-1727,2870,50,73,886
1167238,2029700,2060720,2030320,2063088,1680,1480,-159,2703,-575,194,-2107,2566,50,73,886
1168239,2029992,2061152,2030517,2063285,1488,552,86,3099,-435,-115,-2192,2145,50,74,889
1169240,2030252,2061540,2030714,2063482,1661,744,325,3465,-293,155,-1975,2128,50,74,889
1170241,2030552,2061864,2030911,2063679,1365,1088,502,3879,-130,693,-1732,2040,61,77,886
1171242,2030860,2062184,2031108,2063876,1266,1059,622,4229,61,980,-1591,2062,61,77,886
1172243,2031124,2062528,2031305,2064073,1512,845,699,4623,304,1094,-1804,2435,65,76,888
1173244,2031400,2062892,2031502,2064270,1402,647,750,5058,579,1213,-1644,2540,65,76,888
1174252,2031664,2063236,2031732,2064500,1462,722,764,5431,829,1612,-1334,2501,65,57,890
1175246,2031904,2063584,2031929,2064697,1593,631,786,5666,993,1887,-786,1845,65,57,890
1176247,2032128,2063852,2032126,2064894,1682,1100,837,5649,1083,1958,-579,1305,43,54,891
1177247,2032412,2064160,2032323,2065091,1268,802,897,5587,1143,1936,-588,1440,43,54,891
1178249,2032648,2064448,2032520,2065288,1551,887,953,5521,1191,1563,-683,1758,41,57,889
1179250,2032848,2064676,2032717,2065485,1775,1248,963,5574,1227,1550,-641,2212,41,57,889
1180250,2033096,2064868,2032914,2065682,1453,1475,926,5791,1262,1753,-416,2686,34,42,891
1181252,2033336,2065064,2033111,2065879,1484,1452,856,6056,1312,1742,-190,3021,34,42,891
1182253,2033540,2065284,2033308,2066076,1706,1292,749,6469,1380,1580,-336,3714,48,51,885
1183254,2033776,2065488,2033505,2066273,1488,1388,622,6996,1462,1173,-502,4054,48,51,885
1184255,2033996,2065680,2033702,2066470,1578,1466,520,7374,1521,855,-244,4035,55,41,886
1185256,2034208,2065864,2033899,2066667,1622,1521,445,7727,1563,799,-121,4018,55,41,886
1186257,2034448,2065992,2034096,2066864,1428,1902,402,7927,1626,662,-187,3561,42,26,887
1187258,2034680,2066148,2034293,2067061,1462,1745,396,7988,1728,526,-254,3365,42,26,887
1188259,2034900,2066264,2034490,2067258,1527,2031,443,7931,1826,291,-95,3041,45,37,886
1189260,2035148,2066416,2034687,2067455,1330,1826,565,7649,1903,-20,37,2453,45,37,886
1190261,2035412,2066560,2034884,2067652,1200,1899,745,7242,1956,-115,209,2220,56,23,884
1191262,2035644,2066736,2035081,2067849,1384,1709,947,6728,2001,-128,337,2093,56,23,884
1192263,2035896,2066900,2035278,2068046,1235,1798,1146,6279,2067,-22,535,2398,49,33,885
1193264,2036168,2067084,2035475,2068243,1077,1680,1333,5883,2033,-7,719,2692,49,33,885
1194265,2036424,2067252,2035672,2068440,1151,1793,1485,5440,1802,-56,809,2842,53,35,884
1195266,2036680,2067404,2035869,2068637,1125,1912,1569,4987,1506,406,1160,3013,53,35,884
1196266,2036932,2067572,2036066,2068834,1126,1825,1533,4572,1168,840,1496,3708,40,40,887
1197267,2037136,2067736,2036263,2069031,1423,1866,1411,4194,802,1221,1381,4044,40,40,887
1198269,2037376,2067908,2036460,2069228,1178,1827,1270,3865,396,1596,1620,4295,48,31,885
1199270,2037608,2068108,2036657,2069425,1213,1650,1116,3479,-101,2109,2050,4374,48,31,885
1200271,2037828,2068316,2036854,2069622,1277,1595,939,3020,-637,3031,2354,4209,37,36,885
1201271,2038036,2068512,2037051,2069819,1348,1672,719,2541,-1174,3562,2381,4112,37,36,885
1202273,2038276,2068692,2037248,2070016,1129,1779,394,2116,-1683,4141,2379,4543,55,29,887
1203274,2038512,2068880,2037445,2070213,1137,1733,-86,1853,-2158,4539,2643,5110,55,29,887
1204275,2038708,2069020,2037642,2070410,1386,2058,-619,1625,-2604,4611,2589,4980,52,34,885
1205275,2038932,2069212,2037839,2070607,1199,1737,-1158,1434,-3011,4751,2235,5460,52,34,885
1206277,2039120,2069360,2038036,2070804,1428,2033,-1802,1564,-3337,4932,1943,6889,48,26,885
1207277,2039308,2069524,2038233,2071001,1432,1948,-2460,1681,-3607,4919,2310,6080,48,26,885
1208278,2039500,2069660,2038430,2071198,1408,2149,-2929,1287,-3829,4670,2026,4504,22,34,886
1209279,2039700,2069796,2038627,2071395,1357,2177,-2741,1009,-3949,3402,152,9577,22,34,886
1210281,2039864,2069952,2038824,2071592,1596,2070,-222,3824,-3438,-1100,-5103,32767,28,27,884
1211282,2040048,2070096,2039021,2071789,1477,2168,2486,6578,-2855,350,-3199,24612,28,27,884
1212282,2040232,2070264,2039218,2071986,1483,2032,3126,6394,-2701,2239,-775,3237,27,27,883
1213283,2040440,2070396,2039415,2072183,1327,2286,2411,4599,-2734,2163,-1072,2523,27,27,883
1214285,2040628,2070528,2039612,2072380,1456,2314,1706,3068,-2683,2139,-1682,3069,46,27,883
1215286,2040816,2070692,2039809,2072577,1460,2130,1238,2294,-2419,1308,-2087,4043,46,27,883
1216287,2040988,2070816,2040006,2072774,1571,2412,939,1838,-2050,431,-2329,3890,34,35,881
1217288,2041168,2070952,2040203,2072971,1528,2364,680,1265,-1800,-160,-2012,3483,34,35,881
1218289,2041336,2071084,2040400,2073168,1616,2418,496,551,-1625,-1114,-1691,3294,24,30,883
1219289,2041508,2071220,2040597,2073365,1601,2420,409,-180,-1459,-1864,-1275,3278,24,30,883
1220291,2041664,2071332,2040794,2073562,1719,2608,362,-683,-1339,-2490,-1165,3886,42,35,881
1221291,2041836,2071484,2040991,2073759,1630,2378,304,-800,-1184,-3357,-1198,4962,42,35,881
1222293,2041996,2071636,2041188,2073956,1721,2398,210,-485,-1000,-4015,-1129,6159,21,31,880
1223293,2042148,2071752,2041385,2074153,1791,2660,98,29,-898,-4560,-855,6395,21,31,880
1224294,2042336,2071896,2041582,2074350,1570,2508,32,548,-858,-4952,-418,6597,27,32,880
1225295,2042492,2072012,2041779,2074547,1787,2720,-8,1172,-790,-4913,-431,6672,27,32,880
1226297,2042664,2072124,2041976,2074744,1698,2782,-47,1646,-654,-4904,-580,6151,28,37,876
1227298,2042836,2072216,2042173,2074941,1709,2954,-50,1986,-469,-5057,-358,5835,28,37,876
1228299,2042976,2072324,2042370,2075138,1934,2893,-18,2158,-308,-4876,46,5323,39,22,876
1229299,2043120,2072452,2042567,2075335,1932,2799,42,2173,-212,-4378,367,4835,39,22,876
1230301,2043304,2072560,2042764,2075532,1688,2964,102,2093,-160,-4012,573,4428,21,20,875
1231302,2043468,2072652,2042961,2075729,1828,3111,175,1821,-143,-3508,276,3940,21,20,875
1232303,2043632,2072804,2043158,2075926,1842,2755,242,1499,-149,-2812,97,3820,22,31,875
1233304,2043788,2072968,2043355,2076123,1909,2696,287,1165,-107,-2214,97,3587,22,31,875
1234305,2043964,2073160,2043552,2076320,1793,2524,327,687,16,-1726,274,3062,41,34,874
1235306,2044124,2073328,2043749,2076517,1910,2687,366,38,169,-1217,483,2729,41,34,874
1236307,2044296,2073536,2043946,2076714,1846,2433,424,-757,283,-772,646,2366,26,42,877
1237308,2044472,2073748,2044143,2076911,1830,2401,488,-1552,335,-267,537,2213,26,42,877
1238309,2044644,2073940,2044340,2077108,1866,2530,533,-2339,373,86,201,2220,35,41,876
1239310,2044848,2074108,2044537,2077305,1663,2693,551,-3078,445,231,-243,2557,35,41,876
1240311,2045064,2074356,2044734,2077502,1579,2171,533,-3578,543,356,-683,3181,50,34,879
1241312,2045244,2074536,2044931,2077699,1812,2604,484,-3886,656,294,-898,3737,50,34,879
1242313,2045404,2074728,2045128,2077896,1953,2532,407,-4017,735,246,-772,4226,30,52,878
1243314,2045584,2074940,2045325,2078093,1836,2401,283,-4083,760,252,-482,4445,30,52,878
1244315,2045752,2075120,2045522,2078290,1923,2610,129,-4033,752,260,-723,4829,39,33,879
1245316,2045912,2075356,2045719,2078487,1990,2242,-38,-3853,740,266,-994,5102,39,33,879
1246317,2046116,2075560,2045916,2078684,1712,2440,-201,-3718,736,368,-1028,4925,40,35,879
1247318,2046264,2075764,2046113,2078881,2083,2437,-370,-3556,700,331,-946,5300,40,35,879
1248319,2046448,2075956,2046310,2079078,1864,2515,-544,-3298,665,361,-1061,5479,43,38,879
1249320,2046640,2076148,2046507,2079275,1816,2519,-713,-2968,676,396,-1236,5485,43,38,879
1250321,2046784,2076376,2046704,2079472,2139,2280,-870,-2627,747,398,-1386,5473,41,39,877
1251322,2046932,2076628,2046901,2079669,2136,2107,-972,-2345,846,366,-1456,5086,41,39,877
1252323,2047076,2076856,2047098,2079866,2184,2243,-1011,-2186,916,338,-1315,4683,24,54,879
1253324,2047208,2077056,2047295,2080063,2288,2418,-1000,-2139,967,364,-1272,4363,24,54,879
1254325,2047336,2077272,2047492,2080260,2343,2311,-964,-2257,990,366,-1337,4030,21,55,879
1255326,2047456,2077492,2047689,2080457,2427,2275,-899,-2300,992,347,-1410,3967,21,55,879
1256327,2047548,2077764,2047886,2080654,2648,1919,-828,-2375,1016,242,-1625,3692,22,45,877
1257337,2047700,2077996,2048116,2080884,2307,2168,-757,-2439,1092,184,-1905,3742,22,45,877
1258329,2047840,2078232,2048313,2081081,2407,2127,-676,-2534,1222,95,-2042,3667,44,56,877
1259330,2048020,2078448,2048510,2081278,2165,2243,-583,-2629,1360,-55,-2004,3524,44,56,877
1260331,2048144,2078704,2048707,2081475,2547,1968,-474,-2677,1442,-228,-1932,3427,41,45,877
1261332,2048284,2078948,2048904,2081672,2472,2023,-345,-2746,1432,-511,-1705,3190,41,45,877
1262333,2048424,2079212,2049101,2081869,2497,1869,-197,-2792,1339,-725,-1584,3226,39,45,879
1263334,2048532,2079480,2049298,2082066,2736,1813,-46,-2832,1216,-697,-1603,3272,39,45,879
1264335,2048652,2079728,2049495,2082263,2695,1917,82,-2755,1114,-709,-1664,3498,22,42,878
1265336,2048764,2079920,2049692,2082460,2783,2269,179,-2538,1063,-651,-1706,3782,22,42,878
1266337,2048884,2080164,2049889,2082657,2767,1924,267,-2313,1026,-630,-1481,3704,39,59,878
1267338,2048984,2080444,2050086,2082854,2935,1663,360,-2125,970,-545,-1471,3437,39,59,878
1268339,2049080,2080740,2050283,2083051,3004,1520,478,-1992,905,-480,-1387,3240,19,46,875
1269340,2049184,2080976,2050480,2083248,2995,1878,600,-1902,818,-462,-1354,3223,19,46,875
1270341,2049280,2081220,2050677,2083445,3090,1808,717,-1786,701,-359,-1251,3128,21,47,875
1271342,2049388,2081448,2050874,2083642,3055,1895,853,-1667,596,-306,-1287,2996,21,47,875
1272343,2049492,2081720,2051071,2083839,3120,1588,995,-1479,522,-124,-1267,3162,24,60,874
1273344,2049584,2082012,2051268,2084036,3242,1421,1131,-1286,459,180,-1166,3155,24,60,874
1274345,2049688,2082280,2051465,2084233,3208,1540,1263,-1091,399,394,-991,3228,32,51,874
1275346,2049800,2082592,2051662,2084430,3196,1215,1395,-860,347,684,-829,3176,32,51,874
1276347,2049920,2082764,2051859,2084627,3180,2101,1528,-659,310,989,-580,3055,29,57,875
1277348,2050060,2082888,2052056,2084824,3081,2433,1658,-482,290,1081,-546,3249,29,57,875
1278349,2050216,2083048,2052253,2085021,2999,2226,1768,-156,287,1023,-748,3457,40,44,877
1279350,2050360,2083192,2052450,2085218,3098,2349,1879,190,271,913,-787,3388,40,44,877
1280351,2050536,2083384,2052647,2085415,2907,2052,1979,549,243,951,-755,3658,44,35,871
1281352,2050708,2083612,2052844,2085612,2943,1813,2072,991,200,1020,-607,3679,44,35,871
1282353,2050860,2083848,2053041,2085809,3089,1746,2165,1420,130,1068,-449,3595,47,41,871
1283354,2051008,2084120,2053238,2086006,3135,1489,2257,1876,45,1188,-361,3668,47,41,871
1284355,2051192,2084344,2053435,2086203,2917,1777,2327,2335,-28,1406,-342,3876,27,67,876
1285355,2051344,2084664,2053632,2086400,3137,1123,2367,2847,-75,1543,-326,3888,27,67,876
1286357,2051500,2084984,2053829,2086597,3131,1070,2399,3310,-103,1588,-227,3551,34,66,876
1287357,2051672,2085276,2054026,2086794,3042,1204,2426,3713,-137,1657,-201,3472,34,66,876
1288359,2051836,2085524,2054223,2086991,3106,1456,2446,4078,-171,1674,-255,3437,46,69,878
1289360,2052004,2085840,2054420,2087188,3095,980,2456,4459,-223,1657,-260,3306,46,69,878
1290361,2052172,2086132,2054617,2087385,3108,1088,2458,4836,-324,1820,52,3360,30,61,878
1291362,2052340,2086392,2054814,2087582,3122,1260,2447,5226,-472,1748,243,3407,30,61,878
1292363,2052508,2086636,2055011,2087779,3134,1340,2433,5586,-625,1773,109,3335,31,59,878
1293364,2052672,2086912,2055208,2087976,3175,1106,2388,5994,-785,1746,180,3551,31,59,878
1294365,2052816,2087192,2055405,2088173,3323,1045,2335,6382,-943,1669,380,3508,46,61,876
1295366,2052940,2087504,2055602,2088370,3481,794,2287,6760,-1087,1668,338,3421,46,61,876
1296367,2053112,2087760,2055799,2088567,3192,1118,2254,7049,-1219,1652,306,3199,39,62,877
1297368,2053264,2087972,2055996,2088764,3338,1387,2235,7284,-1334,1577,444,3278,39,62,877
1298369,2053452,2088224,2056193,2088961,3117,1112,2195,7532,-1456,1540,920,3366,37,55,876
1299370,2053632,2088476,2056390,2089158,3176,1089,2114,7705,-1589,1562,1138,3286,37,55,876
1300371,2053816,2088764,2056587,2089355,3156,824,2002,7862,-1705,1548,874,3547,30,56,875
1301372,2053988,2089000,2056784,2089552,3243,1132,1843,8121,-1818,1177,674,3808,30,56,875
1302373,2054168,2089204,2056981,2089749,3201,1329,1657,8316,-1935,855,847,3302,53,40,878
1303374,2054364,2089380,2057178,2089946,3102,1513,1457,8285,-2064,1004,1355,2900,53,40,878
1304375,2054536,2089576,2057375,2090143,3263,1389,1261,8102,-2242,1022,2015,2526,34,39,876
1305376,2054692,2089804,2057572,2090340,3382,1175,1032,7813,-2466,742,2581,2428,34,39,876
1306377,2054832,2090000,2057769,2090537,3508,1375,768,7508,-2715,551,3039,2434,37,37,876
1307378,2054948,2090200,2057966,2090734,3694,1349,479,7229,-2949,576,3400,2697,37,37,876
1308391,2055036,2090380,2058163,2090931,3800,1482,158,7015,-3130,540,3555,2766,17,49,875
1309392,2055140,2090548,2058360,2091128,3800,1570,-178,6806,-3220,262,3373,2992,17,49,875
1310393,2055228,2090720,2058557,2091325,3800,1556,-519,6509,-3220,-55,3195,2876,31,33,872
1311394,2055320,2090904,2058754,2091522,3800,1487,-856,6161,-3196,-231,3275,2932,31,33,872
1312396,2055412,2091100,2058951,2091719,3800,1413,-1193,5835,-3206,-550,3363,3051,29,34,870
1313396,2055492,2091296,2059148,2091916,3800,1413,-1534,5462,-3249,-978,3191,3065,29,34,870
1314398,2055612,2091492,2059345,2092113,3800,1413,-1882,5083,-3304,-1175,2951,3073,31,40,869
1315399,2055720,2091676,2059542,2092310,3800,1494,-2228,4710,-3328,-1320,2485,3229,31,40,869
1316400,2055840,2091876,2059739,2092507,3800,1393,-2564,4334,-3306,-1579,1814,3286,35,45,866
1317401,2055976,2092056,2059936,2092704,3800,1526,-2873,3857,-3238,-1759,1056,3031,35,45,866
1318402,2056096,2092240,2060133,2092901,3800,1507,-3130,3157,-3130,-1845,562,2569,22,33,870
1319402,2056208,2092412,2060330,2093098,3800,1593,-3369,2332,-3027,-1997,285,2472,22,33,870
1320404,2056364,2092596,2060527,2093295,3800,1524,-3599,1425,-2953,-2185,126,2670,24,40,871
1321404,2056508,2092796,2060724,2093492,3800,1422,-3831,592,-2882,-2169,-18,3141,24,40,871
1322406,2056636,2093012,2060921,2093689,3800,1314,-4043,-242,-2833,-2361,-313,3465,28,46,870
1323407,2056740,2093192,2061118,2093886,3800,1546,-4243,-920,-2808,-2400,-607,4220,28,46,870
1324408,2056864,2093356,2061315,2094083,3800,1661,-4410,-1614,-2777,-2284,-440,4230,34,33,870
1325408,2056968,2093472,2061512,2094280,3800,1998,-4291,-2489,-2723,-1846,-86,5244,34,33,870
1326410,2057092,2093608,2061709,2094477,3800,1899,-2378,-4665,-2803,-153,385,19169,32,42,869
1327410,2057208,2093784,2061906,2094674,3800,1659,-689,-5952,-2807,-230,214,12868,32,42,869
1328412,2057364,2093916,2062103,2094871,3800,1962,-574,-5797,-2658,-702,588,6948,37,39,867
1329413,2057508,2094060,2062300,2095068,3800,1910,-1241,-4954,-2482,-728,374,7270,37,39,867
1330414,2057672,2094188,2062497,2095265,3800,2041,-1750,-4109,-2317,-1376,-241,7071,29,31,869
1331414,2057844,2094332,2062694,2095462,3800,1965,-1916,-3847,-2203,-1675,-729,6184,29,31,869
1332415,2058012,2094440,2062891,2095659,3800,2229,-1891,-3692,-2140,-1446,-897,6075,40,39,866
1333416,2058172,2094540,2063088,2095856,3800,2322,-1788,-3609,-2049,-1417,-1169,5582,40,39,866
1334418,2058376,2094648,2063285,2096053,3800,2311,-1676,-3563,-1935,-1062,-1385,5498,35,35,866
1335418,2058552,2094744,2063482,2096250,3800,2431,-1567,-3508,-1784,-532,-1215,5562,35,35,866
1336419,2058744,2094820,2063679,2096447,3800,2609,-1413,-3546,-1583,-78,-1061,5340,47,24,865
1337420,2058944,2094888,2063876,2096644,3800,2716,-1199,-3590,-1374,546,-1353,5254,47,24,865
1338422,2059148,2095008,2064073,2096841,3800,2426,-928,-3862,-1205,673,-1288,4479,30,15,864
1339423,2059348,2095088,2064270,2097038,3800,2727,-595,-4415,-1086,854,-923,3793,30,15,864
1340430,2059552,2095176,2064500,2097268,3800,2740,-279,-4929,-1027,1269,-730,3604,50,19,864
1341424,2059776,2095296,2064697,2097465,3800,2575,28,-5472,-981,1329,-551,3151,50,19,864
1342425,2060000,2095372,2064894,2097662,3800,2903,309,-5952,-947,1332,-202,3468,33,15,864
1343414,2060248,2095476,2065091,2097859,3701,2769,550,-6233,-1017,1400,400,3916,33,15,864
1344414,2060492,2095592,2065288,2098056,3706,2730,795,-6447,-1103,1649,321,3787,52,26,865
1345429,2060712,2095700,2065485,2098253,3800,2819,1030,-6456,-1146,1743,-115,4419,52,26,865
1346417,2060976,2095792,2065682,2098450,3543,2967,1212,-6264,-1146,1721,-345,5020,54,22,865
1347418,2061208,2095908,2065879,2098647,3728,2852,1304,-5758,-1144,1881,-43,6022,54,22,865
1348419,2061436,2096008,2066076,2098844,3741,2996,1328,-4946,-1142,2016,73,6624,54,31,862
1349420,2061664,2096112,2066273,2099041,3728,3012,1341,-4085,-1161,2041,474,6477,54,31,862
