"Data file recorded 2014/9/22  15:42:48"
"%  Right Stride Frequency         = 3.0"
"%  Left Stride Frequency         = 3.0"
"%  Phase (Fractional)         = 32768.0"
"%  Experiment.py "
"%  Motor Gains    = [1800, 200, 100, 0, 0, 1800, 200, 100, 0, 0]
"% Columns: "
"% time | Right Leg Pos | Left Leg Pos | Commanded Right Leg Pos | Commanded Left Leg Pos | DCR | DCL | GyroX | GryoY | GryoZ | AX | AY | AZ | RBEMF | LBEMF | VBatt "
10444,6083412,6598460,6078780,6635836,-780,3800,12,126,242,461,-13,4063,-1,1,868
11438,6083416,6598440,6078977,6636033,-746,3800,12,125,243,443,-14,4049,8,1,868
12439,6083412,6598476,6079174,6636230,-609,3800,11,124,247,435,-25,4066,8,1,868
13441,6083404,6598616,6079371,6636427,-495,3800,9,123,242,458,-54,4074,8,19,845
14442,6083408,6598780,6079568,6636624,-486,3800,9,138,237,457,-120,4066,8,19,845
15443,6083400,6598972,6079765,6636821,-322,3800,8,165,213,382,-304,4184,-11,32,845
16443,6083416,6599160,6079962,6637018,-392,3800,0,213,182,409,-573,4276,-11,32,845
17445,6083404,6599476,6080159,6637215,-127,3800,-3,254,138,427,-630,4178,1,45,843
18445,6083416,6599772,6080356,6637412,-196,3800,0,247,101,539,-541,4151,1,45,843
19446,6083404,6600108,6080553,6637609,46,3800,1,266,84,770,-381,4025,-6,58,847
20447,6083408,6600448,6080750,6637806,29,3800,9,214,63,865,-58,3890,-6,58,847
21448,6083400,6600824,6080947,6638003,195,3800,33,149,47,993,206,3749,-5,60,848
22450,6083408,6601212,6081144,6638200,177,3800,74,9,47,1058,504,3575,-5,60,848
23450,6083400,6601632,6081341,6638397,367,3800,126,-172,59,1059,704,3525,17,60,849
24451,6083396,6601988,6081538,6638594,430,3800,194,-351,87,1026,791,3491,17,60,849
25452,6083396,6602364,6081735,6638791,491,3800,284,-511,142,1062,802,3414,13,71,845
26453,6083392,6602792,6081932,6638988,604,3800,397,-655,203,988,913,3488,13,71,845
27454,6083404,6603172,6082129,6639185,585,3800,517,-753,275,842,784,3626,15,70,849
28455,6083392,6603600,6082326,6639382,826,3800,631,-791,340,657,708,3866,15,70,849
29457,6083396,6604052,6082523,6639579,811,3800,731,-736,422,530,486,4082,22,70,846
30458,6083404,6604564,6082720,6639776,869,3800,801,-607,542,418,199,4354,22,70,846
31458,6083412,6604944,6082917,6639973,952,3800,825,-358,674,205,-59,4741,2,85,847
32459,6083404,6605304,6083114,6640170,1142,3800,825,7,789,-81,-378,4854,2,85,847
33460,6083412,6605684,6083311,6640367,1125,3800,813,409,861,-375,-918,5073,4,75,847
34461,6083416,6606156,6083508,6640564,1235,3800,754,906,873,-626,-1563,5550,4,75,847
35462,6083416,6606580,6083705,6640761,1347,3800,658,1438,935,-404,-2049,5483,7,82,844
36463,6083408,6607112,6083902,6640958,1487,3800,532,1885,1089,8,-1924,5078,7,82,844
37464,6083424,6607664,6084099,6641155,1416,3800,382,2159,1272,353,-1421,4693,-2,108,845
38466,6083424,6608368,6084296,6641352,1603,3800,248,2179,1398,450,-812,3747,-2,108,845
39466,6083416,6609104,6084493,6641549,1743,3800,153,1923,1429,503,-463,3095,9,125,846
40467,6083428,6609812,6084690,6641746,1699,3800,96,1571,1445,641,-39,2764,9,125,846
41468,6083428,6610452,6084887,6641943,1862,3800,80,978,1476,731,261,2175,16,138,846
42469,6083432,6611168,6085084,6642140,1921,3800,93,407,1530,911,62,2350,16,138,846
43470,6083448,6611808,6085281,6642337,1926,3800,72,0,1602,917,-121,2718,15,127,846
44471,6083448,6612564,6085478,6642534,2114,3800,38,-357,1636,1029,-119,2774,15,127,846
45472,6083472,6613192,6085675,6642731,2040,3800,1,-673,1594,1278,-140,3066,8,139,844
46473,6083488,6613844,6085872,6642928,2169,3800,-33,-843,1512,1395,105,3488,8,139,844
47475,6083504,6614484,6086069,6643125,2250,3800,-92,-900,1395,1238,474,3809,18,134,843
48475,6083540,6615140,6086266,6643322,2195,3800,-175,-865,1195,1006,901,4061,18,134,843
49476,6083588,6615668,6086463,6643519,2187,3800,-266,-759,964,834,1368,4247,7,115,843
50477,6083632,6616252,6086660,6643716,2279,3800,-368,-594,751,947,1806,4335,7,115,843
51478,6083684,6616732,6086857,6643913,2294,3800,-423,-543,562,1023,1975,3930,7,96,841
52479,6083768,6617136,6087054,6644110,2144,3800,-427,-596,419,821,2004,3945,7,96,841
53480,6083852,6617532,6087251,6644307,2194,3800,-466,-476,324,461,1721,4571,16,81,841
54481,6083964,6617896,6087448,6644504,2058,3800,-558,-248,270,255,1237,4857,16,81,841
55482,6084072,6618252,6087645,6644701,2122,3800,-684,105,281,350,1034,5191,23,68,840
56483,6084200,6618528,6087842,6644898,2028,3800,-845,430,333,570,1227,5085,23,68,840
57484,6084312,6618792,6088039,6645095,2166,3800,-1012,688,349,674,1689,4667,35,57,839
58485,6084404,6619060,6088236,6645292,2338,3800,-1165,752,318,733,2109,4207,35,57,839
59486,6084508,6619264,6088433,6645489,2304,3800,-1292,562,290,1084,2453,3365,33,59,839
60487,6084612,6619436,6088630,6645686,2346,3800,-1426,201,269,1650,2605,3058,33,59,839
61488,6084692,6619592,6088827,6645883,2549,3800,-1566,-150,271,2100,2695,2910,18,38,835
62489,6084780,6619712,6089024,6646080,2548,3800,-1706,-509,284,2274,2659,2735,18,38,835
63490,6084872,6619784,6089221,6646277,2569,3800,-1860,-834,292,2334,2419,2734,29,20,836
64491,6084980,6619840,6089418,6646474,2509,3800,-2017,-1131,348,2482,2260,2817,29,20,836
65492,6085080,6619876,6089615,6646671,2602,3800,-2158,-1370,459,2551,2229,2719,17,7,835
66493,6085200,6619908,6089812,6646868,2512,3800,-2264,-1699,562,2314,2078,2341,17,7,835
67494,6085324,6619920,6090009,6647065,2520,3800,-2323,-2015,666,1971,1675,2501,24,7,834
68495,6085428,6619928,6090206,6647262,2687,3800,-2347,-2155,761,1524,1236,2910,24,7,834
69496,6085540,6619928,6090403,6647459,2676,3800,-2349,-2141,809,965,816,3180,29,-3,833
70497,6085620,6619924,6090600,6647656,2927,3800,-2323,-2041,813,437,365,3467,29,-3,833
71498,6085676,6619976,6090797,6647853,3140,3800,-2276,-1826,824,310,-24,3723,19,14,833
72499,6085716,6619988,6090994,6648050,3310,3800,-2209,-1579,839,510,-150,3552,19,14,833
73500,6085760,6619988,6091191,6648247,3353,3800,-2105,-1435,841,848,-27,3186,23,1,828
74501,6085804,6619996,6091388,6648444,3421,3800,-1977,-1337,826,1097,-102,3058,23,1,828
75502,6085828,6620000,6091585,6648641,3624,3800,-1828,-1254,790,1156,-248,2979,11,10,828
76516,6085836,6620040,6091782,6648838,3800,3800,-1651,-1092,743,816,-524,3135,11,10,828
77517,6085828,6620060,6091979,6649035,3800,3800,-1468,-839,683,406,-753,3415,11,1,827
78518,6085844,6620056,6092176,6649232,3800,3800,-1315,-490,594,289,-733,3672,11,1,827
79519,6085848,6620076,6092373,6649429,3800,3800,-1191,-126,474,343,-494,3917,-1,18,823
80520,6085852,6620092,6092570,6649626,3800,3800,-1084,298,340,323,-409,4091,-1,18,823
81521,6085848,6620132,6092767,6649823,3800,3800,-995,724,199,143,-530,4203,0,4,823
82522,6085856,6620172,6092964,6650020,3800,3800,-949,1252,53,-112,-702,4559,0,4,823
83523,6085864,6620160,6093161,6650217,3800,3800,-944,1836,-95,-267,-845,4671,4,1,824
84524,6085872,6620152,6093358,6650414,3800,3800,-961,2285,-224,-107,-1027,4350,4,1,824
85525,6085880,6620164,6093555,6650611,3800,3800,-983,2583,-327,193,-1400,4083,3,6,824
86526,6085888,6620168,6093752,6650808,3800,3800,-1023,2723,-429,151,-2047,3687,3,6,824
87527,6085884,6620208,6093949,6651005,3800,3800,-1075,2706,-542,78,-3006,3290,2,-1,824
88528,6085908,6620240,6094146,6651202,3800,3800,-1156,2655,-609,231,-3895,3439,2,-1,824
89529,6085908,6620224,6094343,6651399,3800,3800,-1238,2718,-563,318,-4982,3721,10,0,824
90530,6085920,6620240,6094540,6651596,3800,3800,-1327,2755,-498,235,-5586,3509,10,0,824
91531,6085944,6620256,6094737,6651793,3800,3800,-1423,2672,-472,61,-6000,3355,5,17,820
92539,6085960,6620284,6095164,6652220,3800,3800,-1524,2470,-477,-32,-6126,3346,5,17,820
93533,6085996,6620304,6095361,6652417,3800,3800,-1628,2276,-499,-79,-5946,3467,17,15,824
94534,6086044,6620356,6095558,6652614,3800,3800,-1743,2096,-520,-90,-5313,3633,17,15,824
95536,6086136,6620368,6095755,6652811,3800,3800,-1876,2018,-529,-29,-4551,3956,21,10,824
96536,6086224,6620372,6095952,6653008,3800,3800,-2039,1949,-526,21,-3749,4208,21,10,824
97538,6086364,6620412,6096149,6653205,3800,3800,-2212,1940,-504,-28,-2900,4618,26,17,825
98538,6086508,6620416,6096346,6653402,3800,3800,-2380,1946,-462,-184,-2115,4883,26,17,825
99539,6086704,6620448,6096543,6653599,3800,3800,-2519,1951,-409,-444,-1365,4985,42,18,823
100540,6086908,6620476,6096740,6653796,3800,3800,-2609,1911,-366,-785,-694,5063,42,18,823
101541,6087120,6620504,6096937,6653993,3800,3800,-2651,1858,-321,-1125,-143,5095,57,20,825
102542,6087316,6620504,6097134,6654190,3800,3800,-2627,1719,-249,-1543,68,5043,57,20,825
103543,6087508,6620520,6097331,6654387,3800,3800,-2559,1541,-145,-1924,82,5175,32,13,825
104544,6087752,6620540,6097528,6654584,3800,3800,-2464,1266,-39,-1923,317,4993,32,13,825
105545,6088020,6620564,6097725,6654781,3800,3800,-2344,906,33,-1371,690,4688,43,17,826
106533,6088356,6620592,6097922,6654978,3397,3800,-2168,438,66,-967,694,4279,43,17,826
107534,6088716,6620612,6098119,6655175,3178,3800,-1955,-124,93,-1229,164,4374,67,18,827
108535,6089044,6620648,6098316,6655372,3322,3800,-1751,-430,181,-1684,-395,5448,67,18,827
109537,6089368,6620684,6098513,6655569,3292,3800,-1587,-510,328,-2015,-329,6092,71,20,830
110537,6089756,6620732,6098710,6655766,2810,3800,-1428,-499,452,-1879,160,6588,71,20,830
111538,6090124,6620756,6098907,6655963,2862,3800,-599,738,481,246,1145,17944,86,22,831
112539,6090428,6620796,6099104,6656160,3216,3800,546,2339,425,840,1713,17213,86,22,831
113540,6090756,6620820,6099301,6656357,3011,3800,1206,2517,422,-587,1115,5016,74,20,832
114541,6091124,6620852,6099498,6656554,2687,3800,1267,1596,499,-962,414,4233,74,20,832
115542,6091516,6620852,6099695,6656751,2453,3800,1352,577,581,-692,88,3934,69,4,832
116543,6091920,6620868,6099892,6656948,2289,3800,1336,22,670,-215,-9,5214,69,4,832
117544,6092304,6620904,6100089,6657145,2333,3800,1341,-73,805,-372,-392,5643,77,3,834
118545,6092736,6620932,6100286,6657342,1931,3800,1269,-283,935,-187,-371,5374,77,3,834
119546,6093196,6620984,6100483,6657539,1642,3800,1212,-511,1024,578,399,4910,83,10,836
120548,6093600,6620992,6100680,6657736,1903,3800,1148,-920,1106,1037,904,4506,83,10,836
121548,6093976,6621052,6100877,6657933,2000,3800,1065,-1376,1102,1386,906,4538,81,14,838
122549,6094392,6621084,6101074,6658130,1655,3800,971,-1797,1054,1521,982,4447,81,14,838
123550,6094824,6621088,6101271,6658327,1454,3800,905,-2030,1020,1617,1210,4912,84,4,837
124551,6095248,6621104,6101468,6658524,1405,3800,786,-1991,933,1707,1258,5488,84,4,837
125553,6095644,6621104,6101665,6658721,1493,3800,623,-1951,782,1785,1242,5465,90,15,837
126553,6096072,6621108,6101862,6658918,1193,3800,485,-1830,665,2031,1135,5632,90,15,837
127554,6096452,6621124,6102059,6659115,1414,3800,411,-1657,601,2090,919,5296,85,12,839
128555,6096792,6621152,6102256,6659312,1602,3800,398,-1633,536,1760,676,4797,85,12,839
129557,6097168,6621176,6102453,6659509,1299,3800,423,-1679,466,1478,511,4653,85,2,837
130557,6097528,6621204,6102650,6659706,1328,3800,514,-1799,368,1342,493,4196,85,2,837
131558,6097896,6621236,6102847,6659903,1204,3800,652,-1847,245,1001,571,4235,63,20,839
132559,6098268,6621268,6103044,6660100,1103,3800,837,-1801,132,551,480,4412,63,20,839
133560,6098620,6621316,6103241,6660297,1161,3800,1026,-1770,47,418,311,4253,62,17,840
134561,6098968,6621372,6103438,6660494,1121,3800,1221,-1604,14,370,154,4507,62,17,840
135562,6099344,6621444,6103635,6660691,868,3800,1407,-1337,20,63,264,4416,76,9,839
136564,6099696,6621500,6103832,6660888,951,3800,1589,-1224,31,-109,426,4083,76,9,839
137564,6100016,6621544,6104029,6661085,1098,3800,1769,-1101,45,-100,743,3944,68,17,841
138565,6100364,6621628,6104226,6661282,857,3800,1968,-985,72,-202,1127,3514,68,17,841
139566,6100684,6621716,6104423,6661479,979,3800,2167,-894,78,-498,966,3359,53,14,841
140567,6100976,6621808,6104620,6661676,1113,3800,2328,-786,89,-1000,281,3361,53,14,841
141569,6101264,6621896,6104817,6661873,1099,3800,2456,-679,135,-902,351,3083,69,18,842
142569,6101556,6622020,6105014,6662070,1032,3800,2500,-473,175,-583,686,3286,69,18,842
143570,6101812,6622168,6105211,6662267,1232,3800,2454,-307,209,-521,1107,3031,65,28,839
144571,6102068,6622324,6105408,6662464,1207,3800,2307,-165,270,-148,1297,3031,65,28,839
145572,6102312,6622488,6105605,6662661,1262,3800,2125,-3,325,341,1343,2644,41,30,841
146573,6102532,6622648,6105802,6662858,1403,3800,1958,-96,343,530,1321,1478,41,30,841
147574,6102752,6622828,6105999,6663055,1392,3800,1837,-514,304,779,940,664,38,27,841
148575,6102956,6622980,6106196,6663252,1490,3800,1689,-1040,244,1056,299,408,38,27,841
149576,6103148,6623180,6106393,6663449,1569,3800,1493,-1532,226,1173,-445,672,52,46,841
150577,6103316,6623356,6106590,6663646,1731,3800,1229,-1828,267,1420,-1259,1109,52,46,841
151578,6103508,6623512,6106787,6663843,1584,3800,911,-1920,363,1483,-2129,1642,49,50,839
152579,6103696,6623696,6106984,6664040,1613,3800,578,-1914,498,1573,-2785,1820,49,50,839
153581,6103856,6623884,6107181,6664237,1806,3800,257,-1905,603,1893,-3091,1865,27,52,839
154581,6104028,6624108,6107378,6664434,1743,3800,-19,-2023,663,2038,-3168,1520,27,52,839
155582,6104200,6624292,6107575,6664631,1754,3800,-253,-2219,669,2014,-3018,1470,22,48,838
156583,6104352,6624488,6107772,6664828,1899,3800,-466,-2355,629,1979,-2933,1662,22,48,838
157585,6104516,6624664,6107969,6665025,1840,3800,-667,-2437,586,1935,-2898,1863,33,35,839
158585,6104680,6624832,6108166,6665222,1854,3800,-917,-2260,587,2014,-2989,2790,33,35,839
159586,6104832,6625000,6108363,6665419,1950,3800,-1221,-1845,647,2060,-2979,3420,29,36,838
160587,6105032,6625156,6108560,6665616,1650,3800,-1553,-1342,723,2008,-2657,3679,29,36,838
161589,6105184,6625320,6108757,6665813,1970,3800,-1870,-892,763,2047,-1947,3525,32,34,839
162589,6105360,6625488,6108954,6666010,1830,3800,-2159,-551,765,2058,-1067,3507,32,34,839
163590,6105524,6625628,6109151,6666207,1920,3800,-2432,-183,741,1978,-420,3678,40,40,839
164591,6105712,6625792,6109348,6666404,1774,3800,-2669,213,711,1825,-2,3658,40,40,839
165592,6105884,6625960,6109545,6666601,1886,3800,-2872,603,706,1742,192,3705,29,30,839
166593,6106056,6626104,6109742,6666798,1898,3800,-3061,1016,733,1653,264,3867,29,30,839
167594,6106260,6626264,6109939,6666995,1695,3800,-3229,1411,773,1483,252,3741,35,43,837
168595,6106460,6626416,6110136,6667192,1720,3800,-3377,1679,801,1374,330,3555,35,43,837
169597,6106648,6626568,6110333,6667389,1800,3800,-3503,1856,831,1210,275,3367,44,24,838
170597,6106828,6626708,6110530,6667586,1858,3800,-3628,1988,880,907,148,3446,44,24,838
171598,6107040,6626860,6110727,6667783,1652,3800,-3728,2124,940,526,-128,3450,39,38,839
172599,6107204,6627016,6110924,6667980,1967,3800,-3807,2211,1030,132,-559,3473,39,38,839
173601,6107416,6627172,6111121,6668177,1662,3800,-3843,2309,1155,-290,-1083,3515,36,28,838
174601,6107588,6627292,6111318,6668374,1923,3800,-3832,2321,1293,-653,-1388,3282,36,28,838
175609,6107768,6627464,6111548,6668604,1896,3800,-3759,2258,1431,-926,-1519,3229,49,32,838
176603,6107984,6627624,6111745,6668801,1663,3800,-3664,2256,1558,-1184,-1538,3683,49,32,838
177604,6108176,6627804,6111942,6668998,1816,3800,-3564,2427,1680,-1510,-1433,4124,49,28,838
178605,6108364,6627964,6112139,6669195,1845,3800,-3469,2550,1800,-1745,-1587,4126,49,28,838
179606,6108552,6628144,6112336,6669392,1850,3800,-3382,2664,1920,-1741,-1546,4476,40,45,838
180607,6108740,6628316,6112533,6669589,1855,3800,-3280,2767,2074,-1861,-1280,4420,40,45,838
181608,6108900,6628476,6112730,6669786,2047,3800,-3099,2693,2221,-2095,-975,3857,46,46,839
182609,6109084,6628648,6112927,6669983,1903,3800,-2864,2507,2361,-2199,-952,3851,46,46,839
183610,6109276,6628824,6113124,6670180,1857,3800,-2605,2326,2521,-2150,-756,4065,47,41,839
184611,6109472,6629012,6113321,6670377,1833,3800,-2309,2114,2662,-1987,-356,3892,47,41,839
185613,6109640,6629188,6113518,6670574,2021,3800,-1732,2070,2681,-1767,-110,6445,40,43,838
186614,6109824,6629380,6113715,6670771,1927,3800,547,4744,2492,942,593,32767,40,43,838
187614,6109972,6629592,6113912,6670968,2175,3800,3326,8079,2253,850,-93,27062,38,45,838
188615,6110100,6629796,6114109,6671165,2331,3800,4333,8719,2259,-1179,-568,4195,38,45,838
189616,6110268,6630032,6114306,6671362,2094,3800,4109,7533,2350,-1243,18,2806,40,50,837
190617,6110392,6630236,6114503,6671559,2402,3800,3732,6129,2361,-918,227,2517,40,50,837
191618,6110524,6630480,6114700,6671756,2382,3800,3591,5212,2322,-802,369,2721,36,43,835
192619,6110648,6630732,6114897,6671953,2465,3800,3623,4434,2263,-983,537,2210,36,43,835
193620,6110756,6630984,6115094,6672150,2605,3800,3644,3573,2092,-980,916,2110,24,54,837
194621,6110904,6631196,6115291,6672347,2376,3800,3610,2652,1808,-1170,1537,1941,24,54,837
195622,6111096,6631400,6115488,6672544,2105,3800,3500,1810,1519,-1407,1479,2507,32,40,836
196623,6111248,6631580,6115685,6672741,2375,3800,3322,1212,1258,-1398,1214,2996,32,40,836
197624,6111400,6631764,6115882,6672938,2396,3800,3118,729,1024,-1530,1110,3340,38,50,836
198625,6111544,6631968,6116079,6673135,2470,3800,2916,483,810,-1596,1076,4053,38,50,836
199626,6111700,6632156,6116276,6673332,2414,3800,2700,303,649,-1516,519,4125,46,46,836
200627,6111844,6632316,6116473,6673529,2513,3800,2473,92,531,-1556,56,4163,46,46,836
201628,6111988,6632504,6116670,6673726,2537,3800,2232,-22,381,-1596,89,4395,45,49,835
202629,6112100,6632672,6116867,6673923,2775,3800,2004,-218,169,-1639,243,3846,45,49,835
203630,6112224,6632808,6117064,6674120,2733,3800,1797,-460,-46,-1737,200,3772,26,36,833
204632,6112348,6632960,6117261,6674317,2767,3800,1652,-750,-196,-1761,180,3519,32,40,833
205632,6112476,6633092,6117458,6674514,2773,3800,1560,-1019,-280,-1648,47,3617,32,40,833
206633,6112608,6633216,6117655,6674711,2777,3800,1452,-1108,-287,-1557,-350,4271,41,35,833
207634,6112732,6633332,6117852,6674908,2861,3800,1329,-1076,-204,-1470,-752,4351,41,35,833
208635,6112824,6633408,6118049,6675105,3108,3800,1165,-958,-68,-1327,-1082,4628,26,27,832
209636,6112960,6633488,6118246,6675302,2860,3800,1000,-898,76,-1429,-1027,4139,26,27,832
210637,6113060,6633588,6118443,6675499,3129,3800,888,-1060,183,-1601,-751,3436,34,25,829
211638,6113180,6633700,6118640,6675696,3039,3800,818,-1383,253,-1665,-605,2905,34,25,829
212639,6113312,6633796,6118837,6675893,2993,3800,801,-1882,332,-1635,-580,2378,19,24,829
213640,6113428,6633908,6119034,6676090,3130,3800,781,-2268,453,-1448,-769,2707,19,24,829
214641,6113552,6634048,6119231,6676287,3113,3800,723,-2538,619,-1282,-848,2935,32,36,832
215642,6113660,6634176,6119428,6676484,3253,3800,612,-2658,821,-1155,-991,3241,32,36,832
216643,6113768,6634320,6119625,6676681,3293,3800,473,-2651,1023,-1144,-834,3407,20,26,831
217644,6113892,6634468,6119822,6676878,3226,3800,358,-2702,1155,-1266,-272,3135,20,26,831
218646,6113992,6634644,6120019,6677075,3420,3800,263,-2775,1193,-1126,405,3185,25,45,830
219647,6114124,6634848,6120216,6677272,3251,3800,157,-2813,1196,-896,816,3376,25,45,830
220647,6114240,6635092,6120413,6677469,3387,3800,30,-2821,1208,-509,949,3499,27,51,828
221649,6114352,6635312,6120610,6677666,3451,3800,-123,-2681,1226,-213,908,3855,27,51,828
222650,6114452,6635524,6120807,6677863,3569,3800,-271,-2538,1220,-130,988,3723,39,41,829
223651,6114568,6635776,6121004,6678060,3506,3800,-422,-2370,1202,-13,600,3962,39,41,829
224651,6114716,6636088,6121201,6678257,3329,3800,-575,-2180,1148,155,469,3896,28,69,829
225653,6114848,6636428,6121398,6678454,3459,3800,-724,-2100,1059,441,477,3696,28,69,829
226653,6114960,6636776,6121595,6678651,3622,3800,-900,-1973,970,1012,353,3892,29,71,832
227654,6115096,6637128,6121792,6678848,3500,3800,-1091,-1850,892,1484,323,3802,29,71,832
228655,6115232,6637548,6121989,6679045,3529,3800,-1273,-1751,799,1653,11,3746,25,80,828
229657,6115344,6637956,6122186,6679242,3717,3800,-1449,-1611,658,1802,-272,3779,25,80,828
230658,6115488,6638364,6122383,6679439,3542,3800,-1596,-1594,477,2033,-318,3404,25,79,831
231658,6115600,6638868,6122580,6679636,3781,3800,-1723,-1621,304,2550,-526,3497,25,79,831
232672,6115692,6639388,6122777,6679833,3800,3800,-1824,-1696,127,2916,-441,3191,19,89,830
233673,6115792,6639884,6122974,6680030,3800,3800,-1880,-1889,-79,3076,-566,3016,19,89,830
234674,6115872,6640476,6123171,6680227,3800,3800,-1923,-1962,-313,3263,-681,3355,21,105,829
235675,6115956,6641060,6123368,6680424,3800,3800,-1925,-2054,-553,3494,-430,3136,21,105,829
236676,6116048,6641716,6123565,6680621,3800,3800,-1909,-2092,-793,3738,-463,3502,20,123,830
237677,6116116,6642452,6123762,6680818,3800,3800,-1897,-1994,-1053,3760,-693,3857,20,123,830
238678,6116192,6643180,6123959,6681015,3800,3800,-1841,-1931,-1323,3791,-693,3712,35,147,831
239679,6116284,6643928,6124156,6681212,3800,3800,-1749,-1763,-1593,4032,-566,4100,35,147,831
240680,6116364,6644728,6124353,6681409,3800,3800,-1460,-1283,-2093,4253,-221,4066,28,143,831
241681,6116428,6645500,6124550,6681606,3800,3800,-1290,-928,-2341,4194,-505,4544,28,143,831
242682,6116468,6646432,6124747,6681803,3800,3800,-1111,-460,-2566,4202,-718,4837,23,157,831
243683,6116520,6647188,6124944,6682000,3800,3800,-924,113,-2762,4229,-996,5132,23,157,831
244684,6116568,6648088,6125141,6682197,3800,3800,-699,782,-2930,4108,-1186,5054,32,150,831
245685,6116636,6648976,6125338,6682394,3800,3800,-439,1394,-3096,3896,-1288,4967,32,150,831
246686,6116696,6649820,6125535,6682591,3800,3800,-161,2093,-3295,3793,-1280,5120,35,176,833
247687,6116788,6650784,6125732,6682788,3800,3800,145,2751,-3505,3694,-1569,4824,35,176,833
248688,6116884,6651792,6125929,6682985,3800,3800,508,3306,-3668,3719,-1946,4323,30,185,832
249689,6117040,6652648,6126126,6683182,3800,3800,907,3717,-3826,3564,-2169,4047,30,185,832
250690,6117220,6653584,6126323,6683379,3800,3800,1320,4153,-4014,3377,-2473,4053,45,179,833
251691,6117448,6654476,6126520,6683576,3800,3800,1705,4642,-4185,3649,-2447,3975,45,179,833
252692,6117704,6655356,6126717,6683773,3800,3800,2103,5042,-4268,3925,-2737,3474,63,165,835
253681,6117968,6656364,6126914,6683970,3729,3800,2457,5558,-4275,4097,-2621,3923,63,165,835
254681,6118244,6657304,6127111,6684167,3621,3800,2764,6144,-4274,4067,-2385,3846,73,183,834
255682,6118552,6658156,6127308,6684364,3373,3800,3080,6609,-4326,3986,-2058,3247,73,183,834
256683,6118836,6659044,6127505,6684561,3487,3800,3412,7022,-4400,4066,-1811,2944,76,161,835
257684,6119112,6659852,6127702,6684758,3504,3800,3717,7371,-4474,3926,-1337,2627,76,161,835
258694,6119388,6660672,6127932,6684988,3485,3800,3977,7693,-4550,3750,-974,2552,75,170,838
259686,6119656,6661564,6128129,6685185,3506,3800,4178,8131,-4555,3663,-602,2798,75,170,838
260687,6119888,6662352,6128326,6685382,3717,3800,4331,8653,-4567,3096,60,2714,56,171,837
261688,6120112,6663132,6128523,6685579,3757,3800,4454,9093,-4675,2430,555,2298,56,171,837
262702,6120284,6663916,6128720,6685776,3800,3800,4544,9512,-4842,1884,1036,2375,39,176,834
263703,6120464,6664624,6128917,6685973,3800,3800,4571,10043,-5004,1526,2101,2492,39,176,834
264704,6120628,6665392,6129114,6686170,3800,3800,4512,10396,-5282,1312,3650,1935,48,129,833
265705,6120788,6666016,6129311,6686367,3800,3800,4352,10629,-5699,1157,4713,1558,48,129,833
266706,6120920,6666588,6129508,6686564,3800,3800,4098,10727,-6046,1119,4723,1281,24,107,830
267707,6121024,6667168,6129705,6686761,3800,3800,3782,10681,-6143,1091,4659,1008,24,107,830
268708,6121136,6667664,6129902,6686958,3800,3800,3522,10509,-5965,846,4710,629,41,118,830
269709,6121232,6668268,6130099,6687155,3800,3800,3304,10173,-5703,355,5341,134,41,118,830
270710,6121320,6668760,6130296,6687352,3800,3800,3085,9583,-5423,214,5564,-450,30,113,827
271711,6121424,6669256,6130493,6687549,3800,3800,2768,8955,-5093,28,5289,-340,30,113,827
272712,6121496,6669776,6130690,6687746,3800,3800,2374,8258,-4753,-401,5406,-614,25,102,829
273713,6121560,6670228,6130887,6687943,3800,3800,1954,7462,-4388,-606,4692,-813,25,102,829
274714,6121628,6670568,6131084,6688140,3800,3800,1540,6600,-3950,-724,3618,-764,28,79,828
275715,6121688,6670900,6131281,6688337,3800,3800,1139,5716,-3412,-762,1813,-563,28,79,828
276716,6121720,6671220,6131478,6688534,3800,3800,737,4950,-2786,-722,-572,-173,15,62,826
277717,6121760,6671572,6131675,6688731,3800,3800,345,4217,-2099,-1008,-3714,38,15,62,826
278718,6121748,6671932,6131872,6688928,3800,3800,-483,4189,-1019,-1051,-8986,3249,17,85,825
279719,6121756,6672388,6132069,6689125,3800,3800,-2100,5220,641,-845,-12976,6045,17,85,825
280720,6121764,6672820,6132266,6689322,3800,3800,-3536,5643,2351,-1402,-11564,2468,9,82,827
281721,6121764,6673204,6132463,6689519,3800,3800,-4015,4552,3452,-2433,-8906,-1416,9,82,827
282722,6121760,6673624,6132660,6689716,3800,3800,-3868,2338,3972,-3082,-7973,-3178,10,95,826
283723,6121752,6674024,6132857,6689913,3800,3800,-3627,-89,4349,-3365,-7981,-3362,10,95,826
284724,6121760,6674396,6133054,6690110,3800,3800,-3617,-1909,4849,-3630,-7263,-1550,-1,92,827
285725,6121768,6674816,6133251,6690307,3800,3800,-3939,-2764,5446,-3510,-6296,1555,-1,92,827
286726,6121780,6675364,6133448,6690504,3800,3800,-4356,-3014,6088,-2922,-5011,2951,17,94,827
287727,6121756,6675800,6133645,6690701,3800,3800,-4683,-3084,6873,-2499,-3863,3961,17,94,827
288728,6121756,6676384,6133842,6690898,3800,3800,-4844,-3199,7702,-2564,-3025,4103,19,95,827
289729,6121772,6676880,6134039,6691095,3800,3800,-4925,-3452,8408,-2757,-1292,4543,19,95,827
290730,6121764,6677400,6134236,6691292,3800,3800,-4989,-3263,9047,-2724,113,6717,15,94,828
291731,6121756,6677992,6134433,6691489,3800,3800,-5006,-2827,9605,-2587,989,6982,15,94,828
292732,6121760,6678476,6134630,6691686,3800,3800,-4911,-2519,10042,-2589,1709,6681,18,94,828
293733,6121764,6678952,6134827,6691883,3800,3800,-4699,-2355,10393,-2368,2414,7163,18,94,828
294734,6121752,6679368,6135024,6692080,3800,3800,-2379,-3053,10291,1403,3131,23644,19,78,827
295735,6121768,6679764,6135221,6692277,3800,3800,2741,-3927,9615,4829,2902,32767,19,78,827
296736,6121776,6680128,6135418,6692474,3800,3800,5509,-3484,9501,-1377,2205,14828,4,68,827
297737,6121772,6680504,6135615,6692671,3800,3800,5264,-2008,9920,-3148,2603,10160,4,68,827
298738,6121764,6680800,6135812,6692868,3800,3800,4114,11,10254,-4188,3009,10849,-4,68,824
299739,6121768,6681056,6136009,6693065,3800,3800,3327,1703,10145,-5257,4423,9890,-4,68,824
300740,6121772,6681300,6136206,6693262,3800,3800,3011,2789,9510,-5959,5078,8441,-3,67,824
301741,6121768,6681596,6136403,6693459,3800,3800,2672,3272,8355,-6645,6063,6859,-3,67,824
302742,6121772,6681968,6136600,6693656,3800,3800,2048,3575,6769,-6695,7867,7050,14,74,826
303743,6121768,6682288,6136797,6693853,3800,3800,1319,3709,5027,-6343,7265,6125,14,74,826
304744,6121776,6682644,6136994,6694050,3800,3800,752,3334,3440,-5981,5319,4325,4,82,826
305745,6121772,6683024,6137191,6694247,3800,3800,189,2685,2176,-5285,2927,4439,4,82,826
306746,6121780,6683424,6137388,6694444,3800,3800,-454,2103,917,-4093,2901,4860,17,71,826
307747,6121780,6683800,6137585,6694641,3800,3800,-985,1090,-689,-3332,4078,2356,17,71,826
308748,6121768,6684228,6137782,6694838,3800,3800,-1329,-617,-2338,-2353,3503,297,17,94,827
309749,6121788,6684628,6137979,6695035,3800,3800,-1571,-2789,-3525,-547,1997,-1196,17,94,827
310750,6121788,6684972,6138176,6695232,3800,3800,-1698,-5399,-4213,875,1488,-3280,13,68,825
311751,6121776,6685320,6138373,6695429,3800,3800,-1774,-8167,-4584,1899,1554,-4507,13,68,825
312752,6121784,6685648,6138570,6695626,3800,3800,-1899,-10734,-4724,3097,740,-4379,-3,67,825
313753,6121784,6686008,6138767,6695823,3800,3800,-2090,-12995,-4648,4263,-290,-3771,-3,67,825
314754,6121776,6686292,6138964,6696020,3800,3800,-2359,-14940,-4479,4786,-751,-2756,16,74,826
315755,6121788,6686572,6139161,6696217,3800,3800,-2684,-16266,-4249,5050,-1361,-814,16,74,826
316756,6121796,6686848,6139358,6696414,3800,3800,-3045,-16806,-3991,5220,-1920,968,-4,68,825
317757,6121792,6687128,6139555,6696611,3800,3800,-3465,-16693,-3778,4912,-2521,2812,-4,68,825
318758,6121808,6687388,6139752,6696808,3800,3800,-3836,-16034,-3589,4215,-2975,4448,-3,68,825
319759,6121828,6687656,6139949,6697005,3800,3800,-4048,-14922,-3403,3592,-3305,5803,-3,68,825
320760,6121820,6687936,6140146,6697202,3800,3800,-4124,-13393,-3321,2909,-3387,6818,5,49,824
321761,6121860,6688160,6140343,6697399,3800,3800,-4125,-11464,-3355,1967,-3414,7996,5,49,824
322762,6121912,6688364,6140540,6697596,3800,3800,-4059,-9265,-3483,870,-3592,8662,22,56,823
323763,6121972,6688552,6140737,6697793,3800,3800,-3972,-6889,-3702,-17,-4099,9379,22,56,823
324764,6122076,6688740,6140934,6697990,3800,3800,-3792,-4418,-3903,-520,-4393,9469,11,32,825
325765,6122180,6688888,6141131,6698187,3800,3800,-3587,-2055,-4180,-1123,-4150,9348,11,32,825
326766,6122320,6689032,6141328,6698384,3800,3800,-3241,166,-4364,-973,-4377,8981,38,43,825
327767,6122444,6689184,6141525,6698581,3800,3800,-2813,2315,-4474,-788,-3773,8801,38,43,825
328768,6122600,6689316,6141722,6698778,3800,3800,-2396,4388,-4536,-430,-2974,8362,34,28,826
329769,6122728,6689420,6141919,6698975,3800,3800,-1960,6038,-4558,-69,-2363,6907,34,28,826
330770,6122868,6689544,6142116,6699172,3800,3800,-1404,7044,-4535,318,-2198,5064,24,20,825
331771,6123020,6689656,6142313,6699369,3800,3800,-696,7414,-4399,783,-2333,3594,24,20,825
332771,6123188,6689748,6142510,6699566,3800,3800,51,7528,-4139,1370,-2051,3342,27,35,824
333773,6123332,6689860,6142707,6699763,3800,3800,805,7297,-3811,1575,-1073,2147,27,35,824
334774,6123448,6689932,6142904,6699960,3800,3800,1532,6860,-3461,1920,109,1987,27,30,824
335775,6123552,6690032,6143101,6700157,3800,3800,2167,6310,-3139,2099,1113,1584,27,30,824
336776,6123632,6690120,6143298,6700354,3800,3800,2716,5662,-2819,1903,1392,1490,17,15,825
337777,6123716,6690216,6143495,6700551,3800,3800,3165,5194,-2367,1734,992,2528,17,15,825
338778,6123772,6690308,6143692,6700748,3800,3800,3460,5001,-1750,1316,404,3477,8,12,824
339779,6123820,6690380,6143889,6700945,3800,3800,3622,5096,-1043,761,156,4088,8,12,824
340780,6123820,6690448,6144086,6701142,3800,3800,3696,5301,-351,295,454,4456,18,14,823
341788,6123816,6690592,6144316,6701372,3800,3800,3714,5489,259,-80,1008,4323,18,14,823
342782,6123828,6690712,6144513,6701569,3800,3800,3712,5568,792,-520,1271,4013,13,22,821
343783,6123808,6690840,6144710,6701766,3800,3800,3691,5559,1302,-945,1115,3769,13,22,821
344784,6123824,6690968,6144907,6701963,3800,3800,3633,5440,1798,-1316,678,3532,7,27,822
345785,6123812,6691100,6145104,6702160,3800,3800,3545,5346,2268,-1772,242,3481,7,27,822
346786,6123832,6691232,6145301,6702357,3800,3800,3383,5353,2676,-2135,-182,3908,14,27,823
347787,6123820,6691384,6145498,6702554,3800,3800,3125,5555,3009,-2373,-544,4285,14,27,823
348788,6123828,6691520,6145695,6702751,3800,3800,2840,5600,3270,-2648,-769,3464,8,27,823
349790,6123816,6691684,6145892,6702948,3800,3800,2530,5478,3501,-2801,-1487,3366,8,27,823
350790,6123804,6691840,6146089,6703145,3800,3800,2166,5355,3731,-2816,-2130,3599,12,26,824
351791,6123824,6691972,6146286,6703342,3800,3800,1774,5189,3960,-2899,-2583,3385,12,26,824
352792,6123800,6692100,6146483,6703539,3800,3800,1369,4983,4169,-2863,-2917,3164,14,27,823
353794,6123808,6692244,6146680,6703736,3800,3800,986,4676,4378,-2629,-3058,2739,14,27,823
354794,6123808,6692356,6146877,6703933,3800,3800,622,4243,4603,-2281,-3058,2383,9,20,822
355795,6123804,6692508,6147074,6704130,3800,3800,240,3579,4770,-1987,-2773,1805,9,20,822
356796,6123804,6692632,6147271,6704327,3800,3800,-140,2632,4828,-1696,-1915,1195,12,19,822
357797,6123808,6692756,6147468,6704524,3800,3800,-498,1472,4755,-1250,-405,812,12,19,822
358798,6123812,6692912,6147665,6704721,3800,3800,-845,280,4574,-955,646,846,14,41,823
359799,6123804,6693060,6147862,6704918,3800,3800,-1176,-815,4292,-855,1367,1198,14,41,823
360800,6123796,6693240,6148059,6705115,3800,3800,-1442,-1739,3921,-902,1711,1497,12,33,823
361801,6123808,6693384,6148256,6705312,3800,3800,-1628,-2565,3425,-998,1581,1711,12,33,823
362802,6123800,6693528,6148453,6705509,3800,3800,-1789,-3166,2883,-819,1044,2489,1,27,821
363803,6123808,6693672,6148650,6705706,3800,3800,-1998,-3461,2428,-340,1063,3440,1,27,821
364804,6123808,6693820,6148847,6705903,3800,3800,-2334,-3454,2074,96,1410,4086,9,24,822
365805,6123800,6693964,6149044,6706100,3800,3800,-2685,-3425,1653,-62,2333,3684,9,24,822
366806,6123796,6694076,6149241,6706297,3800,3800,-2906,-3606,1095,-72,2507,2993,12,32,822
367807,6123804,6694216,6149438,6706494,3800,3800,-3004,-4010,516,322,1698,2653,12,32,822
368808,6123808,6694304,6149635,6706691,3800,3800,-3035,-4572,-40,331,1300,2130,4,23,823
369809,6123800,6694388,6149832,6706888,3800,3800,-3017,-5216,-551,413,1288,1852,4,23,823
370810,6123816,6694472,6150029,6707085,3800,3800,-3001,-5852,-988,702,992,1931,14,16,822
371811,6123804,6694520,6150226,6707282,3800,3800,-2996,-6394,-1289,855,624,2178,14,16,822
372812,6123800,6694596,6150423,6707479,3800,3800,-2977,-6870,-1502,854,458,2158,3,8,822
373813,6123808,6694636,6150620,6707676,3800,3800,-2931,-7311,-1691,836,280,2202,3,8,822
374814,6123808,6694616,6150817,6707873,3800,3800,-2868,-7643,-1830,632,-143,2860,1,16,821
375815,6123788,6694620,6151014,6708070,3800,3800,-2808,-7759,-1933,430,-150,3538,1,16,821
376816,6123796,6694620,6151211,6708267,3800,3800,-2730,-7793,-2009,392,31,3684,7,4,820
377817,6123808,6694636,6151408,6708464,3800,3800,-2622,-7686,-2000,443,168,4173,7,4,820
378818,6123800,6694652,6151605,6708661,3800,3800,-2516,-7382,-1925,528,397,4762,6,15,821
379819,6123792,6694656,6151802,6708858,3800,3800,-2413,-6963,-1857,434,379,4883,6,15,821
380820,6123808,6694676,6151999,6709055,3800,3800,-2266,-6542,-1804,311,301,4927,16,17,821
381821,6123804,6694688,6152196,6709252,3800,3800,-2086,-6074,-1745,309,193,5167,16,17,821
382822,6123784,6694732,6152393,6709449,3800,3800,-1910,-5596,-1676,287,-13,5387,14,20,821
383823,6123796,6694764,6152590,6709646,3800,3800,-1739,-5102,-1618,148,-316,5416,14,20,821
384824,6123800,6694812,6152787,6709843,3800,3800,-1534,-4593,-1533,258,-730,5533,16,20,821
385825,6123792,6694848,6152984,6710040,3800,3800,-1306,-4003,-1385,554,-1062,5756,16,20,821
386826,6123792,6694872,6153181,6710237,3800,3800,-1082,-3373,-1167,849,-1262,5862,9,20,821
387827,6123796,6694912,6153378,6710434,3800,3800,-769,-2686,-891,1343,-1505,6529,9,20,821
388828,6123792,6694948,6153575,6710631,3800,3800,221,-741,-578,2474,-2520,18338,11,4,820
389829,6123796,6694984,6153772,6710828,3800,3800,1314,950,-350,2416,-1372,11000,11,4,820
390830,6123816,6695028,6153969,6711025,3800,3800,1805,1311,-190,2270,-414,3862,16,10,821
391831,6123796,6695044,6154166,6711222,3800,3800,1892,928,-46,2545,-470,3321,16,10,821
392832,6123788,6695076,6154363,6711419,3800,3800,1910,556,143,2795,-726,3294,4,10,818
393833,6123808,6695116,6154560,6711616,3800,3800,1952,547,401,2890,-841,3840,4,10,818
394834,6123812,6695164,6154757,6711813,3800,3800,1982,613,670,2801,-985,3603,4,16,821
395835,6123800,6695196,6154954,6712010,3800,3800,1990,667,914,2776,-1115,3702,4,16,821
396836,6123804,6695260,6155151,6712207,3800,3800,1977,719,1114,2493,-1031,3624,0,15,822
397837,6123804,6695284,6155348,6712404,3800,3800,1929,722,1272,2223,-1095,3619,0,15,822
398838,6123784,6695284,6155545,6712601,3800,3800,1865,917,1397,2107,-1240,4053,9,1,820
399839,6123792,6695304,6155742,6712798,3800,3800,1775,1211,1531,1854,-1334,4296,9,1,820
400840,6123820,6695308,6155939,6712995,3800,3800,1667,1666,1665,1702,-1403,4817,11,1,821
401841,6123792,6695364,6156136,6713192,3800,3800,1532,2164,1767,1529,-1262,4934,11,1,821
402842,6123796,6695384,6156333,6713389,3800,3800,1376,2684,1836,1342,-1182,5032,4,8,819
403843,6123808,6695400,6156530,6713586,3800,3800,1206,3216,1880,1246,-1055,5002,4,8,819
404844,6123800,6695400,6156727,6713783,3800,3800,1032,3610,1867,1076,-645,4392,-1,8,821
405845,6123808,6695424,6156924,6713980,3800,3800,864,3814,1785,928,-165,3974,-1,8,821
406846,6123816,6695444,6157121,6714177,3800,3800,703,3905,1666,886,107,3631,9,7,821
407847,6123816,6695496,6157318,6714374,3800,3800,559,3838,1541,866,262,3213,9,7,821
408848,6123796,6695512,6157515,6714571,3800,3800,415,3759,1448,937,303,3299,5,5,821
409849,6123796,6695552,6157712,6714768,3800,3800,264,3675,1383,952,389,3152,5,5,821
410850,6123808,6695572,6157909,6714965,3800,3800,105,3531,1291,933,587,2910,6,5,821
411851,6123792,6695596,6158106,6715162,3800,3800,-48,3347,1163,868,783,2713,6,5,821
412852,6123804,6695620,6158303,6715359,3800,3800,-169,3012,978,776,1254,2312,7,1,821
413853,6123804,6695652,6158500,6715556,3800,3800,-228,2583,759,815,1502,2058,7,1,821
414854,6123804,6695684,6158697,6715753,3800,3800,-237,2086,542,712,1368,1986,5,3,821
415855,6123808,6695688,6158894,6715950,3800,3800,-236,1668,360,514,806,2257,5,3,821
416856,6123808,6695716,6159091,6716147,3800,3800,-285,1425,220,330,264,2889,-4,5,821
417857,6123816,6695748,6159288,6716344,3800,3800,-386,1351,109,120,-51,3208,-4,5,821
418858,6123812,6695776,6159485,6716541,3800,3800,-523,1333,17,-36,-307,3407,9,5,821
419859,6123812,6695828,6159682,6716738,3800,3800,-670,1309,-79,-191,-458,3369,9,5,821
420860,6123804,6695856,6159879,6716935,3800,3800,-790,1176,-182,-369,-428,3216,0,2,819
421861,6123804,6695864,6160076,6717132,3800,3800,-880,1037,-271,-439,-542,3250,0,2,819
422862,6123800,6695872,6160273,6717329,3800,3800,-954,904,-314,-498,-689,3312,3,14,817
423863,6123800,6695880,6160470,6717526,3800,3800,-1017,832,-315,-524,-692,3420,3,14,817
424871,6123804,6695904,6160700,6717756,3800,3800,-1077,763,-298,-527,-532,3440,6,14,821
425865,6123796,6695912,6160897,6717953,3800,3800,-1131,639,-291,-521,-282,3356,6,14,821
426866,6123808,6695908,6161094,6718150,3800,3800,-1177,456,-304,-494,-62,3279,15,14,820
427867,6123828,6695904,6161291,6718347,3800,3800,-1214,237,-318,-452,46,3259,15,14,820
428868,6123808,6695884,6161488,6718544,3800,3800,-1238,22,-324,-448,95,3312,1,9,820
429869,6123832,6695892,6161685,6718741,3800,3800,-1245,-154,-325,-469,52,3432,1,9,820
430870,6123808,6695908,6161882,6718938,3800,3800,-1243,-278,-317,-503,-66,3616,6,14,820
431871,6123800,6695920,6162079,6719135,3800,3800,-1239,-366,-301,-531,-200,3805,6,14,820
432872,6123840,6695924,6162276,6719332,3800,3800,-1232,-431,-283,-596,-246,3892,11,15,819
433873,6123816,6695908,6162473,6719529,3800,3800,-1217,-524,-274,-664,-318,3976,11,15,819
434874,6123816,6695908,6162670,6719726,3800,3800,-1195,-591,-276,-722,-370,4056,13,11,820
435875,6123824,6695928,6162867,6719923,3800,3800,-1168,-679,-283,-748,-405,4036,13,11,820
436876,6123836,6695932,6163064,6720120,3800,3800,-1135,-732,-290,-784,-421,4079,10,14,820
437877,6123828,6695936,6163261,6720317,3800,3800,-1098,-797,-293,-784,-467,4138,10,14,820
438878,6123816,6695940,6163458,6720514,3800,3800,-1054,-842,-290,-747,-534,4243,4,10,821
439879,6123832,6695932,6163655,6720711,3800,3800,-1006,-909,-281,-774,-553,4320,4,10,821
440880,6123836,6695940,6163852,6720908,3800,3800,-950,-965,-270,-763,-567,4336,-4,11,821
441881,6123832,6695936,6164049,6721105,3800,3800,-890,-1025,-257,-741,-633,4344,-4,11,821
442882,6123852,6695948,6164246,6721302,3800,3800,-823,-1062,-236,-705,-659,4337,14,15,819
443883,6123864,6695972,6164443,6721499,3800,3800,-750,-1112,-209,-684,-673,4376,14,15,819
444884,6123848,6695976,6164640,6721696,3800,3800,-676,-1155,-178,-624,-679,4428,-1,15,820
445885,6123880,6695960,6164837,6721893,3800,3800,-601,-1202,-142,-596,-634,4503,-1,15,820
446886,6123924,6695968,6165034,6722090,3800,3800,-522,-1229,-98,-544,-591,4615,6,15,821
447887,6123952,6695960,6165231,6722287,3800,3800,-442,-1210,-45,-473,-605,4759,6,15,821
448888,6124000,6695984,6165428,6722484,3800,3800,-359,-1150,18,-405,-623,4875,13,3,821
449889,6124064,6696004,6165625,6722681,3800,3800,-272,-1052,88,-369,-642,4980,13,3,821
450890,6124144,6696020,6165822,6722878,3800,3800,-171,-952,162,-321,-681,5181,9,5,822
451891,6124212,6696016,6166019,6723075,3800,3800,-54,-840,237,-259,-731,5336,9,5,822
452892,6124292,6696044,6166216,6723272,3800,3800,74,-734,310,-196,-801,5477,8,1,821
453893,6124372,6696072,6166413,6723469,3800,3800,202,-597,387,-153,-922,5513,8,1,821
454894,6124440,6696084,6166610,6723666,3800,3800,321,-474,456,-171,-946,5353,10,12,821
455895,6124532,6696132,6166807,6723863,3800,3800,428,-353,502,-194,-916,5127,10,12,821
456896,6124600,6696136,6167004,6724060,3800,3800,519,-281,527,-155,-910,4920,7,11,822
457897,6124648,6696168,6167201,6724257,3800,3800,592,-229,552,-106,-1004,4775,7,11,822
458898,6124700,6696180,6167398,6724454,3800,3800,649,-219,579,-93,-1047,4664,4,19,822
459899,6124744,6696220,6167595,6724651,3800,3800,703,-207,604,-53,-1005,4556,4,19,822
460900,6124780,6696264,6167792,6724848,3800,3800,757,-226,618,-15,-943,4408,11,20,821
461901,6124804,6696288,6167989,6725045,3800,3800,815,-247,618,57,-798,4264,11,20,821
462902,6124848,6696280,6168186,6725242,3800,3800,871,-286,604,127,-666,4202,8,13,821
463903,6124828,6696284,6168383,6725439,3800,3800,920,-329,568,232,-493,4132,8,13,821
464904,6124820,6696304,6168580,6725636,3800,3800,966,-392,502,336,-205,4108,2,15,819
465905,6124840,6696312,6168777,6725833,3800,3800,1031,-477,409,460,186,4030,2,15,819
466906,6124832,6696348,6168974,6726030,3800,3800,1099,-579,285,582,540,3932,7,16,820
467907,6124824,6696360,6169171,6726227,3800,3800,1147,-655,170,724,693,3977,7,16,820
468908,6124836,6696380,6169368,6726424,3800,3800,1153,-666,67,840,920,4135,-2,11,821
469909,6124832,6696396,6169565,6726621,3800,3800,1118,-600,-1,1007,912,4365,-2,11,821
470910,6124824,6696420,6169762,6726818,3800,3800,1046,-469,-12,1090,742,4538,-3,16,821
471911,6124824,6696432,6169959,6727015,3800,3800,941,-297,22,1152,545,4756,-3,16,821
472912,6124852,6696444,6170156,6727212,3800,3800,803,-34,79,1154,411,4936,16,16,821
473913,6124832,6696476,6170353,6727409,3800,3800,650,252,135,1090,303,4925,16,16,821
474914,6124828,6696484,6170550,6727606,3800,3800,517,510,170,1035,343,4630,-2,10,821
475915,6124828,6696500,6170747,6727803,3800,3800,409,658,187,972,329,4395,-2,10,821
476916,6124852,6696536,6170944,6728000,3800,3800,310,746,205,939,245,4255,0,11,820
477917,6124832,6696592,6171141,6728197,3800,3800,211,771,242,888,89,4099,0,11,820
478918,6124848,6696632,6171338,6728394,3800,3800,116,784,294,796,-77,3950,6,17,821
479919,6124840,6696660,6171535,6728591,3800,3800,30,764,341,731,-131,3793,6,17,821
480920,6124832,6696672,6171732,6728788,3800,3800,-33,722,368,652,-151,3563,5,18,821
481921,6124840,6696688,6171929,6728985,3800,3800,-85,652,391,565,-271,3579,5,18,821
482922,6124852,6696728,6172126,6729182,3800,3800,-148,614,428,536,-455,3709,-3,14,821
483923,6124828,6696744,6172323,6729379,3800,3800,-213,549,472,478,-567,3585,-3,14,821
484924,6124836,6696780,6172520,6729576,3800,3800,-263,458,505,365,-650,3504,-2,9,821
485925,6124848,6696784,6172717,6729773,3800,3800,-299,373,531,262,-824,3548,-2,9,821
486926,6124840,6696808,6172914,6729970,3800,3800,-324,297,554,144,-979,3541,6,19,820
487927,6124844,6696852,6173111,6730167,3800,3800,-333,235,567,10,-1030,3522,6,19,820
488928,6124852,6696888,6173308,6730364,3800,3800,-332,168,567,-85,-1091,3595,2,19,820
489929,6124856,6696940,6173505,6730561,3800,3800,-330,124,572,-96,-1186,3719,2,19,820
490930,6124840,6697000,6173702,6730758,3800,3800,-326,69,571,-94,-1159,3725,0,16,821
491931,6124844,6697040,6173899,6730955,3800,3800,-315,42,557,-82,-1002,3752,0,16,821
492932,6124840,6697048,6174096,6731152,3800,3800,-299,21,533,-10,-902,3798,16,6,821
493933,6124832,6697112,6174293,6731349,3800,3800,-282,41,510,21,-810,3839,16,6,821
494934,6124836,6697148,6174490,6731546,3800,3800,-259,37,486,18,-750,3820,2,19,819
495935,6124856,6697188,6174687,6731743,3800,3800,-225,23,466,84,-658,3788,2,19,819
496936,6124836,6697244,6174884,6731940,3800,3800,-184,-28,449,154,-632,3791,2,7,821
497937,6124836,6697264,6175081,6732137,3800,3800,-140,-71,442,242,-613,3789,2,7,821
498938,6124860,6697296,6175278,6732334,3800,3800,-95,-129,440,330,-577,3755,3,4,820
499939,6124848,6697312,6175475,6732531,3800,3800,-53,-147,436,382,-538,3781,3,4,820
500940,6124848,6697336,6175672,6732728,3800,3800,-11,-172,430,483,-494,3830,-4,1,821
501941,6124864,6697340,6175869,6732925,3800,3800,25,-177,423,572,-487,3950,-4,1,821
502942,6124864,6697352,6176066,6733122,3800,3800,48,-165,422,642,-467,4069,16,7,821
503943,6124852,6697364,6176263,6733319,3800,3800,63,-140,416,690,-400,4094,16,7,821
504944,6124860,6697360,6176460,6733516,3800,3800,80,-104,395,668,-363,4099,14,0,821
505945,6124868,6697364,6176657,6733713,3800,3800,89,-48,371,617,-372,4130,14,0,821
506946,6124856,6697388,6176854,6733910,3800,3800,90,27,347,615,-313,4110,-3,2,821
507954,6124860,6697424,6177084,6734140,3800,3800,88,74,320,570,-227,4091,-3,2,821
508948,6124880,6697440,6177281,6734337,3800,3800,83,113,288,558,-211,4123,1,17,820
509949,6124880,6697448,6177478,6734534,3800,3800,72,129,261,562,-151,4074,1,17,820
510950,6124876,6697472,6177675,6734731,3800,3800,53,172,234,537,-118,4094,2,1,821
511951,6124912,6697496,6177872,6734928,3800,3800,28,218,211,501,-104,4083,2,1,821
512952,6124928,6697512,6178069,6735125,3800,3800,0,280,192,468,-76,4028,-2,5,821
513953,6124940,6697560,6178266,6735322,3800,3800,-25,283,169,417,-36,3897,-2,5,821
514954,6124980,6697584,6178463,6735519,3800,3800,-50,267,152,352,-72,3847,3,3,821
515955,6125052,6697620,6178660,6735716,3800,3800,-76,199,139,288,-138,3789,3,3,821
516956,6125100,6697620,6178857,6735913,3800,3800,-99,135,130,219,-225,3752,27,10,822
517957,6125200,6697664,6179054,6736110,3800,3800,-130,91,123,134,-192,3800,27,10,822
518958,6125336,6697708,6179251,6736307,3800,3800,-168,89,117,101,-232,3812,35,16,823
519959,6125420,6697740,6179448,6736504,3800,3800,-195,68,121,53,-299,3751,35,16,823
520960,6125536,6697740,6179645,6736701,3800,3800,-212,43,127,-56,-291,3760,27,16,822
521961,6125676,6697748,6179842,6736898,3800,3800,-223,-8,119,-177,-345,3830,27,16,822
522962,6125796,6697748,6180039,6737095,3800,3800,-222,-69,105,-246,-433,3757,40,15,823
523963,6125904,6697760,6180236,6737292,3800,3800,-204,-105,98,-346,-591,3827,40,15,823
524964,6126020,6697768,6180433,6737489,3800,3800,-167,-139,89,-434,-656,3812,32,16,822
525965,6126128,6697788,6180630,6737686,3800,3800,-120,-146,69,-468,-622,3852,32,16,822
526966,6126192,6697804,6180827,6737883,3800,3800,-64,-162,41,-543,-617,3809,14,16,822
527967,6126276,6697824,6181024,6738080,3800,3800,2,-197,2,-552,-623,3810,14,16,822
528968,6126344,6697832,6181221,6738277,3800,3800,78,-254,-44,-451,-533,3831,7,17,822
529969,6126360,6697860,6181418,6738474,3800,3800,156,-282,-90,-364,-408,3943,7,17,822
530970,6126404,6697896,6181615,6738671,3800,3800,231,-283,-144,-233,-197,4051,4,16,820
531971,6126440,6697936,6181812,6738868,3800,3800,296,-221,-199,-90,-31,4199,4,16,820
532972,6126468,6697968,6182009,6739065,3800,3800,345,-157,-240,87,160,4322,15,5,821
533973,6126476,6697992,6182206,6739262,3800,3800,373,-59,-268,311,415,4415,15,5,821
534974,6126496,6698032,6182403,6739459,3800,3800,391,10,-303,479,662,4407,8,19,821
535975,6126488,6698048,6182600,6739656,3800,3800,407,69,-352,613,965,4369,8,19,821
536976,6126480,6698080,6182797,6739853,3800,3800,417,118,-413,749,1120,4421,7,11,821
537977,6126496,6698104,6182994,6740050,3800,3800,411,221,-455,863,1205,4463,7,11,821
538978,6126488,6698124,6183191,6740247,3800,3800,388,333,-481,884,1302,4514,8,2,821
539979,6126484,6698156,6183388,6740444,3800,3800,352,436,-498,930,1301,4531,8,2,821
540980,6126500,6698168,6183585,6740641,3800,3800,301,517,-493,960,1251,4572,16,10,821
541981,6126500,6698208,6183782,6740838,3800,3800,234,601,-469,904,1120,4554,16,10,821
542982,6126496,6698228,6183979,6741035,3800,3800,155,670,-431,769,952,4452,4,20,820
543983,6126500,6698268,6184176,6741232,3800,3800,66,735,-377,657,721,4408,4,20,820
544984,6126512,6698320,6184373,6741429,3800,3800,-32,814,-301,542,523,4341,12,13,821
545985,6126496,6698320,6184570,6741626,3800,3800,-133,853,-199,400,316,4296,12,13,821
546986,6126496,6698328,6184767,6741823,3800,3800,-243,868,-74,248,84,4298,14,16,821
547987,6126508,6698324,6184964,6742020,3800,3800,-351,830,66,118,-40,4166,14,16,821
548988,6126508,6698340,6185161,6742217,3800,3800,-454,781,209,-1,-105,4046,-4,14,820
549989,6126484,6698352,6185358,6742414,3800,3800,-550,705,351,-129,-208,3939,-4,14,820
550990,6126512,6698352,6185555,6742611,3800,3800,-632,624,488,-285,-261,3833,0,14,820
551991,6126508,6698348,6185752,6742808,3800,3800,-701,520,619,-368,-333,3898,0,14,820
552992,6126500,6698364,6185949,6743005,3800,3800,-770,444,754,-460,-409,3953,12,16,819
553993,6126504,6698368,6186146,6743202,3800,3800,-827,323,883,-578,-441,3906,12,16,819
554994,6126524,6698384,6186343,6743399,3800,3800,-866,202,990,-714,-501,3839,5,15,819
555995,6126520,6698400,6186540,6743596,3800,3800,-891,74,1081,-826,-625,3821,5,15,819
556996,6126516,6698396,6186737,6743793,3800,3800,-898,-20,1154,-891,-732,3880,7,16,820
557997,6126524,6698404,6186934,6743990,3800,3800,-896,-104,1210,-964,-819,3963,7,16,820
558998,6126524,6698428,6187131,6744187,3800,3800,-891,-165,1252,-972,-807,4058,-4,12,820
559999,6126508,6698440,6187328,6744384,3800,3800,-874,-237,1266,-922,-737,4052,-4,12,820
561000,6126528,6698468,6187525,6744581,3800,3800,-842,-309,1248,-861,-645,4116,6,15,820
562001,6126528,6698500,6187722,6744778,3800,3800,-798,-356,1193,-765,-542,4245,6,15,820
563002,6126528,6698528,6187919,6744975,3800,3800,-738,-381,1104,-650,-435,4234,9,20,821
564003,6126556,6698584,6188116,6745172,3800,3800,-658,-405,989,-533,-382,4188,9,20,821
565004,6126568,6698632,6188313,6745369,3800,3800,-565,-457,862,-361,-365,4182,0,19,819
566005,6126552,6698688,6188510,6745566,3800,3800,-462,-532,742,-197,-392,4144,0,19,819
567006,6126588,6698752,6188707,6745763,3800,3800,-351,-641,626,-13,-556,4147,1,23,821
568007,6126640,6698808,6188904,6745960,3800,3800,-245,-723,524,140,-774,4155,1,23,821
569008,6126676,6698864,6189101,6746157,3800,3800,-147,-810,438,269,-889,4153,7,8,821
570009,6126752,6698928,6189298,6746354,3800,3800,-54,-859,349,378,-1006,4193,7,8,821
571010,6126832,6699004,6189495,6746551,3800,3800,40,-917,257,471,-1108,4235,8,10,822
572011,6126924,6699068,6189692,6746748,3800,3800,134,-953,164,585,-1115,4266,8,10,822
573012,6127012,6699120,6189889,6746945,3800,3800,223,-995,73,709,-1089,4358,11,8,822
574013,6127116,6699188,6190086,6747142,3800,3800,305,-1009,-7,814,-1038,4394,11,8,822
575014,6127232,6699236,6190283,6747339,3800,3800,377,-997,-76,893,-1102,4477,30,25,821
576015,6127348,6699296,6190480,6747536,3800,3800,445,-937,-129,954,-1108,4446,30,25,821
577016,6127468,6699348,6190677,6747733,3800,3800,513,-890,-169,958,-1090,4412,36,20,822
578017,6127588,6699404,6190874,6747930,3800,3800,587,-856,-200,981,-1067,4354,36,20,822
579018,6127668,6699456,6191071,6748127,3800,3800,665,-835,-206,975,-1050,4411,36,20,823
580019,6127764,6699504,6191268,6748324,3800,3800,742,-815,-196,947,-975,4354,36,20,823
581020,6127868,6699544,6191465,6748521,3800,3800,817,-788,-184,927,-831,4264,27,19,820
582021,6127956,6699584,6191662,6748718,3800,3800,892,-747,-170,952,-620,4290,27,19,820
583022,6128012,6699632,6191859,6748915,3800,3800,963,-677,-161,920,-410,4265,9,22,822
584023,6128092,6699696,6192056,6749112,3800,3800,1037,-622,-168,870,-174,4203,9,22,822
585024,6128136,6699756,6192253,6749309,3800,3800,1102,-567,-181,824,41,4239,8,22,822
586025,6128196,6699792,6192450,6749506,3800,3800,1148,-483,-184,779,151,4368,8,22,822
587026,6128236,6699836,6192647,6749703,3800,3800,1174,-345,-200,709,469,4413,11,23,821
588027,6128276,6699908,6192844,6749900,3800,3800,1189,-216,-241,729,820,4357,11,23,821
589028,6128284,6699976,6193041,6750097,3800,3800,1194,-56,-278,789,975,4311,4,22,822
590029,6128304,6700060,6193238,6750294,3800,3800,1187,75,-294,810,1103,4249,4,22,822
591039,6128344,6700128,6193468,6750524,3800,3800,1150,225,-296,806,1238,4308,3,9,821
592031,6128360,6700184,6193665,6750721,3800,3800,1076,362,-281,834,1307,4354,3,9,821
593032,6128408,6700228,6193862,6750918,3800,3800,978,512,-246,849,1264,4284,16,13,821
594033,6128468,6700280,6194059,6751115,3800,3800,876,644,-192,801,1256,4198,16,13,821
595034,6128516,6700308,6194256,6751312,3800,3800,770,772,-129,726,1165,4108,12,8,821
596035,6128572,6700356,6194453,6751509,3800,3800,651,870,-56,643,951,4059,12,8,821
597036,6128656,6700368,6194650,6751706,3800,3800,522,949,32,542,718,3911,8,17,820
598037,6128716,6700380,6194847,6751903,3800,3800,408,930,101,376,610,3572,8,17,820
599038,6128756,6700372,6195044,6752100,3800,3800,307,858,151,176,459,3464,4,14,820
600039,6128828,6700392,6195241,6752297,3800,3800,205,764,202,61,229,3364,4,14,820
601040,6128888,6700404,6195438,6752494,3800,3800,113,667,251,-61,55,3213,5,14,821
602041,6128932,6700452,6195635,6752691,3800,3800,27,579,298,-163,-83,3217,5,14,821
603042,6129000,6700468,6195832,6752888,3800,3800,-56,468,353,-210,-260,3233,6,6,821
604043,6129080,6700524,6196029,6753085,3800,3800,-148,376,419,-191,-386,3325,6,6,821
605044,6129124,6700548,6196226,6753282,3800,3800,-239,287,484,-195,-506,3327,20,8,821
606045,6129208,6700620,6196423,6753479,3800,3800,-328,222,551,-144,-578,3370,20,8,821
607046,6129308,6700672,6196620,6753676,3800,3800,-412,172,613,-98,-595,3443,31,10,822
608047,6129396,6700760,6196817,6753873,3800,3800,-488,153,657,-59,-498,3418,31,10,822
609048,6129468,6700816,6197014,6754070,3800,3800,-546,105,668,31,-344,3449,34,12,819
610049,6129580,6700900,6197211,6754267,3800,3800,-592,60,644,129,-190,3501,34,12,819
611049,6129708,6700976,6197408,6754464,3800,3800,-628,-13,604,197,-216,3561,34,18,822
612051,6129796,6701080,6197605,6754661,3800,3800,-662,-37,561,269,-378,3670,34,18,822
613052,6129920,6701176,6197802,6754858,3800,3800,-674,-78,503,355,-331,3623,29,16,823
614053,6130044,6701272,6197999,6755055,3800,3800,-669,-97,429,394,-374,3664,29,16,823
615054,6130124,6701380,6198196,6755252,3800,3800,-650,-132,351,337,-563,3639,16,20,823
616055,6130216,6701460,6198393,6755449,3800,3800,-605,-202,275,308,-688,3492,16,20,823
617056,6130340,6701532,6198590,6755646,3800,3800,-540,-332,191,281,-783,3515,19,17,822
618057,6130424,6701648,6198787,6755843,3800,3800,-456,-446,112,289,-878,3613,19,17,822
619058,6130512,6701748,6198984,6756040,3800,3800,-359,-545,31,189,-892,3553,12,18,822
620059,6130640,6701832,6199181,6756237,3800,3800,-260,-646,-54,198,-785,3573,12,18,822
621060,6130772,6701936,6199378,6756434,3800,3800,-169,-668,-126,322,-599,3791,23,15,822
622061,6130860,6702016,6199575,6756631,3800,3800,-80,-672,-192,272,-374,3881,23,15,822
623062,6131028,6702116,6199772,6756828,3800,3800,2,-678,-259,209,-160,3946,25,17,823
624063,6131188,6702216,6199969,6757025,3800,3800,71,-691,-312,240,96,4011,25,17,823
625064,6131328,6702284,6200166,6757222,3800,3800,127,-668,-348,179,243,4053,26,22,822
626065,6131500,6702392,6200363,6757419,3800,3800,171,-633,-382,109,388,4055,26,22,822
627066,6131700,6702492,6200560,6757616,3800,3800,213,-594,-408,37,562,3953,47,32,823
628067,6131880,6702588,6200757,6757813,3800,3800,243,-575,-419,1,643,4035,47,32,823
629068,6132088,6702676,6200954,6758010,3800,3800,258,-533,-408,-5,713,3989,41,14,824
630069,6132316,6702776,6201151,6758207,3800,3800,261,-566,-381,-75,805,3948,41,14,824
631070,6132516,6702848,6201348,6758404,3800,3800,254,-577,-350,2,1053,3945,32,16,822
632071,6132704,6702936,6201545,6758601,3800,3800,247,-630,-327,4,1114,3771,32,16,822
633072,6132948,6703012,6201742,6758798,3800,3800,249,-675,-302,-68,1128,3728,35,13,823
634073,6133164,6703116,6201939,6758995,3800,3800,251,-748,-283,-154,1153,3700,35,13,823
635074,6133392,6703200,6202136,6759192,3800,3800,247,-839,-267,-154,1065,3665,47,30,824
636075,6133636,6703292,6202333,6759389,3800,3800,231,-914,-229,-201,846,3706,47,30,824
637076,6133844,6703384,6202530,6759586,3800,3800,214,-1015,-191,-275,724,3595,43,16,824
638077,6134068,6703500,6202727,6759783,3800,3800,189,-1119,-160,-336,494,3742,43,16,824
639078,6134300,6703612,6202924,6759980,3800,3800,140,-1136,-122,-362,295,3936,54,22,824
640079,6134536,6703760,6203121,6760177,3800,3800,88,-1145,-80,-378,262,3788,54,22,824
641080,6134772,6703884,6203318,6760374,3800,3800,44,-1191,-60,-312,415,3731,55,36,823
642081,6135036,6704028,6203515,6760571,3800,3800,12,-1263,-57,-213,682,3688,55,36,823
643082,6135284,6704240,6203712,6760768,3800,3800,-5,-1407,-71,-68,917,3565,48,46,824
644083,6135568,6704420,6203909,6760965,3800,3800,-8,-1540,-100,51,1020,3517,48,46,824
645084,6135868,6704592,6204106,6761162,3800,3800,3,-1705,-114,173,1189,3422,60,27,825
646085,6136220,6704788,6204303,6761359,3800,3800,15,-1814,-102,273,1116,3628,60,27,825
647086,6136548,6704956,6204500,6761556,3800,3800,14,-1867,-66,367,976,3740,77,37,826
648087,6136868,6705124,6204697,6761753,3800,3800,9,-1890,-7,453,932,3837,77,37,826
649088,6137284,6705292,6204894,6761950,3800,3800,5,-1823,78,489,623,4200,76,53,826
650089,6137656,6705520,6205091,6762147,3800,3800,15,-1742,162,290,417,4133,76,53,826
651090,6138060,6705756,6205288,6762344,3800,3800,66,-1668,229,55,177,4144,70,54,827
652091,6138520,6705968,6205485,6762541,3800,3800,129,-1540,278,-40,262,4161,70,54,827
653092,6138972,6706164,6205682,6762738,3800,3800,196,-1457,326,-52,378,4137,97,54,827
654093,6139436,6706352,6205879,6762935,3800,3800,239,-1250,405,-211,43,4652,97,54,827
655094,6139992,6706540,6206076,6763132,3800,3800,263,-979,520,-393,-213,4771,87,40,828
656095,6140508,6706748,6206273,6763329,3800,3800,296,-672,656,-556,-296,4858,87,40,828
657096,6141064,6707008,6206470,6763526,3800,3800,319,-374,796,-613,-438,4893,122,53,828
658097,6141692,6707232,6206667,6763723,3800,3800,375,-130,947,-677,-576,4654,122,53,828
659098,6142296,6707436,6206864,6763920,3800,3800,415,32,1112,-834,-702,4526,125,39,829
660099,6142924,6707636,6207061,6764117,3800,3800,528,122,1280,-1131,-668,4150,125,39,829
661100,6143568,6707828,6207258,6764314,3800,3800,591,-21,1458,-1186,-645,3844,140,45,830
662101,6144212,6708020,6207455,6764511,3800,3800,737,-229,1636,-972,-223,3446,140,45,830
663102,6144856,6708284,6207652,6764708,3800,3800,833,-631,1817,-1013,167,3217,147,47,829
664103,6145544,6708520,6207849,6764905,3800,3800,955,-996,2017,-1074,94,3446,147,47,829
665104,6146176,6708752,6208046,6765102,3800,3800,1012,-1319,2234,-1253,-102,3559,125,51,829
666105,6146796,6708960,6208243,6765299,3800,3800,1088,-1735,2466,-1198,17,3264,125,51,829
667106,6147384,6709184,6208440,6765496,3800,3800,1130,-2048,2743,-1101,-171,3840,122,47,830
668107,6148024,6709428,6208637,6765693,3800,3800,1115,-2326,3054,-1179,-418,4134,122,47,830
669108,6148552,6709688,6208834,6765890,3800,3800,1112,-2653,3327,-1081,-368,3831,139,64,830
670109,6149080,6709992,6209031,6766087,3800,3800,1138,-2946,3587,-281,-136,3970,139,64,830
671110,6149648,6710332,6209228,6766284,3800,3800,1179,-3497,3739,735,341,3048,105,60,830
672111,6150084,6710676,6209425,6766481,3800,3800,1203,-3948,3896,1859,-665,3697,105,60,830
673112,6150532,6711068,6209622,6766678,3800,3800,1172,-4316,4073,2252,-1520,3616,112,72,830
674120,6150968,6711580,6209852,6766908,3800,3800,1021,-4555,4198,2077,-3097,4399,112,72,830
675114,6151320,6712032,6210049,6767105,3800,3800,852,-4468,4305,2371,-4111,4883,77,90,828
676115,6151688,6712580,6210246,6767302,3800,3800,659,-4548,4545,2779,-6481,4875,77,90,828
677116,6152076,6713188,6210443,6767499,3800,3800,440,-3988,4759,3134,-6290,6377,69,105,830
678117,6152444,6713724,6210640,6767696,3800,3800,298,-3451,4917,3394,-4979,5967,69,105,830
679118,6152848,6714496,6210837,6767893,3800,3800,117,-2907,4808,4184,-2898,7025,95,117,831
680119,6153292,6715116,6211034,6768090,3800,3800,-118,-1477,4596,4691,-1583,8913,95,117,831
681120,6153696,6715868,6211231,6768287,3800,3800,-288,-369,4524,4328,-622,7782,90,140,832
682121,6154120,6716628,6211428,6768484,3800,3800,-432,838,4333,4840,1046,8296,90,140,832
683122,6154644,6717504,6211625,6768681,3800,3800,-580,2245,3986,4434,2437,8437,94,145,832
684123,6155076,6718316,6211822,6768878,3800,3800,-670,3460,3575,4549,3912,7883,94,145,832
685124,6155584,6719112,6212019,6769075,3800,3800,-783,4720,3020,4985,3952,7615,102,161,833
686125,6156160,6719880,6212216,6769272,3800,3800,-840,5499,2443,4276,3509,6192,102,161,833
687126,6156676,6720660,6212413,6769469,3800,3800,-893,6363,1888,4128,3324,7378,124,135,832
688127,6157300,6721380,6212610,6769666,3800,3800,-984,7392,1318,4093,2401,6647,124,135,832
689128,6157916,6722144,6212807,6769863,3800,3800,-1019,7909,789,3801,2021,5142,120,154,835
690129,6158612,6722784,6213004,6770060,3800,3800,-1072,8757,410,3979,525,6683,120,154,835
691130,6159292,6723400,6213201,6770257,3800,3800,-1129,9564,125,3387,-1023,5573,131,127,835
692131,6159988,6723940,6213398,6770454,3800,3800,-1100,10115,-195,2424,-2069,4855,131,127,835
693132,6160776,6724460,6213595,6770651,3800,3800,-1001,10640,-594,1953,-2459,4288,135,124,835
694133,6161500,6724892,6213792,6770848,3800,3800,-840,10724,-1035,1767,-3779,2810,135,124,835
695134,6162328,6725444,6213989,6771045,3800,3800,-706,10751,-1516,1553,-4675,2894,150,113,834
696135,6163208,6725976,6214186,6771242,3800,3800,-614,10813,-1890,1555,-5127,2444,150,113,834
697136,6164068,6726432,6214383,6771439,3800,3800,-595,10737,-2155,1776,-4574,1946,150,101,833
698137,6164952,6726972,6214580,6771636,3800,3800,-662,10795,-2333,1735,-4152,2445,150,101,833
699138,6165916,6727480,6214777,6771833,3800,3800,-571,10579,-2510,933,-3101,706,181,106,836
700139,6166856,6727940,6214974,6772030,3800,3800,-259,9721,-2724,301,-3227,-965,181,106,836
701140,6167828,6728432,6215171,6772227,3800,3800,163,8831,-2852,-77,-3284,-582,199,102,835
702141,6168904,6728832,6215368,6772424,3800,3800,507,8190,-2790,-510,-3224,222,199,102,835
703142,6169828,6729160,6215565,6772621,3800,3800,679,7844,-2685,-725,-3042,500,169,107,835
704143,6170776,6729568,6215762,6772818,3800,3800,782,7390,-2698,-1195,-2152,-137,169,107,835
705144,6171804,6729996,6215959,6773015,3800,3800,945,6713,-2818,-1545,-1032,-523,198,75,835
706145,6172732,6730380,6216156,6773212,3800,3800,1042,6053,-3004,-1780,-215,118,198,75,835
707146,6173652,6730804,6216353,6773409,3800,3800,1084,5672,-3077,-2379,398,642,167,85,834
708147,6174568,6731240,6216550,6773606,3800,3800,1093,5248,-3010,-3070,785,518,167,85,834
709148,6175612,6731664,6216747,6773803,3800,3800,1064,4839,-2858,-3336,898,880,178,95,834
710149,6176432,6732144,6216944,6774000,3800,3800,873,4674,-2562,-3981,937,2191,178,95,834
711150,6177260,6732664,6217141,6774197,3800,3800,559,4878,-2192,-4822,826,3180,192,108,835
712151,6178132,6733128,6217338,6774394,3800,3800,147,5028,-1924,-5134,1007,3018,192,108,835
713152,6178856,6733664,6217535,6774591,3800,3800,-290,5267,-1848,-5010,1974,3426,185,107,836
714153,6179556,6734180,6217732,6774788,3800,3800,-708,5316,-1898,-4576,1524,2753,185,107,836
715154,6180220,6734716,6217929,6774985,3800,3800,-903,4934,-1976,-3839,-514,1504,149,122,835
716155,6180748,6735356,6218126,6775182,3800,3800,-935,3977,-1935,-3025,-2191,336,149,122,835
717156,6181220,6735980,6218323,6775379,3800,3800,-864,2420,-1677,-2230,-3584,-718,136,121,833
718157,6181660,6736488,6218520,6775576,3800,3800,-833,394,-1242,-1515,-4429,-1286,136,121,833
719158,6181984,6737080,6218717,6775773,3800,3800,-806,-1902,-778,-1303,-5465,-1408,91,114,830
720159,6182240,6737616,6218914,6775970,3800,3800,-800,-4275,-487,-1047,-6970,-1170,91,114,830
721160,6182440,6738300,6219111,6776167,3800,3800,-783,-6606,-374,-623,-8640,-868,58,129,829
722161,6182580,6739024,6219308,6776364,3800,3800,-779,-8849,-337,-12,-9337,-624,58,129,829
723162,6182692,6739744,6219505,6776561,3800,3800,-734,-11022,-333,908,-11003,473,48,155,830
724163,6182768,6740560,6219702,6776758,3800,3800,435,-13754,-1081,5443,-18618,9736,48,155,830
725163,6182820,6741304,6219899,6776955,3800,3800,951,-14894,-1483,2900,-10733,7212,22,157,828
726165,6182856,6742212,6220096,6777152,3800,3800,-192,-12982,-1027,2438,-7646,13607,22,157,828
727166,6182880,6743080,6220293,6777349,3800,3800,-2340,-8486,-3,2641,-7384,18628,27,171,829
728167,6182892,6743980,6220490,6777546,3800,3800,-161,1523,500,9651,-949,32767,27,171,829
729168,6182936,6744876,6220687,6777743,3800,3800,5359,13241,-9,10193,3276,32767,23,165,829
730169,6183008,6745788,6220884,6777940,3800,3800,7841,16548,-413,3231,494,6576,23,165,829
731170,6183152,6746756,6221081,6778137,3800,3800,7733,14051,-430,2673,1477,246,19,181,830
732171,6183284,6747660,6221278,6778334,3800,3800,7045,9753,-344,3511,2163,-2561,19,181,830
733172,6183464,6748600,6221475,6778531,3800,3800,6539,7380,-268,4167,2889,-150,47,190,832
734173,6183680,6749436,6221672,6778728,3800,3800,6158,5915,-113,3496,3058,-867,47,190,832
735174,6183848,6750272,6221869,6778925,3800,3800,5879,4417,-6,3302,2333,-1708,62,189,832
736175,6184040,6751036,6222066,6779122,3800,3800,5610,2764,168,2560,1761,-1398,62,189,832
737176,6184200,6751756,6222263,6779319,3800,3800,5358,1170,661,1818,1056,-250,52,167,832
738177,6184336,6752396,6222460,6779516,3800,3800,4804,406,1332,2187,428,2283,52,167,832
739178,6184468,6753076,6222657,6779713,3800,3800,4245,72,1871,884,1521,1686,39,141,830
740179,6184624,6753676,6222854,6779910,3800,3800,3836,-774,2158,-773,3134,369,39,141,830
741180,6184756,6754244,6223051,6780107,3800,3800,3505,-1418,2106,-1366,4330,1069,40,116,829
742181,6184884,6754708,6223248,6780304,3800,3800,3196,-2147,1893,-2174,5702,539,40,116,829
743182,6185024,6755208,6223445,6780501,3800,3800,3025,-2802,1755,-2796,6072,134,34,110,828
744183,6185140,6755680,6223642,6780698,3800,3800,2944,-3339,1711,-3166,5631,276,34,110,828
745184,6185248,6756108,6223839,6780895,3800,3800,2695,-3240,1898,-3690,4834,3072,37,85,827
746185,6185348,6756480,6224036,6781092,3800,3800,2226,-2067,2135,-4404,4898,5248,37,85,827
747186,6185428,6756824,6224233,6781289,3800,3800,1728,-765,2264,-4811,4996,4485,13,66,826
748187,6185512,6757128,6224430,6781486,3800,3800,1457,211,2224,-5315,5206,3637,13,66,826
749188,6185564,6757440,6224627,6781683,3800,3800,1321,853,2113,-5382,5323,2769,33,67,825
750189,6185624,6757736,6224824,6781880,3800,3800,1266,897,1964,-5466,5088,690,33,67,825
751190,6185656,6758012,6225021,6782077,3800,3800,1252,596,1835,-5600,4067,-50,27,62,824
752191,6185668,6758264,6225218,6782274,3800,3800,1337,193,1722,-5608,3408,-467,27,62,824
753192,6185676,6758508,6225415,6782471,3800,3800,1382,-111,1604,-5105,2441,-282,17,51,822
754193,6185676,6758772,6225612,6782668,3800,3800,1258,-296,1457,-4780,1773,-67,17,51,822
755194,6185692,6759024,6225809,6782865,3800,3800,1013,-549,1356,-4072,778,10,17,53,823
756195,6185676,6759288,6226006,6783062,3800,3800,549,-556,1397,-2867,-641,1459,17,53,823
757203,6185688,6759592,6226236,6783292,3800,3800,-101,-325,1603,-2204,-1740,2320,17,63,823
758197,6185680,6759856,6226433,6783489,3800,3800,-767,-88,1775,-1605,-1694,1941,17,63,823
759198,6185696,6760168,6226630,6783686,3800,3800,-1329,-411,1715,-837,-870,33,12,64,823
760199,6185696,6760496,6226827,6783883,3800,3800,-1764,-1409,1451,-198,-199,-1795,12,64,823
761200,6185700,6760836,6227024,6784080,3800,3800,-2052,-3081,1078,491,78,-3691,16,69,822
762201,6185704,6761160,6227221,6784277,3800,3800,-2230,-5190,654,1129,293,-4597,16,69,822
763202,6185716,6761488,6227418,6784474,3800,3800,-2357,-7368,226,2003,791,-4593,-1,66,822
764203,6185720,6761820,6227615,6784671,3800,3800,-2538,-9314,-139,2829,389,-4023,-1,66,822
765204,6185728,6762136,6227812,6784868,3800,3800,-2849,-10891,-402,3347,-511,-2778,13,71,824
766205,6185732,6762420,6228009,6785065,3800,3800,-3270,-11959,-614,3572,-1226,-1158,13,71,824
767206,6185756,6762648,6228206,6785262,3800,3800,-3732,-12605,-866,3776,-1969,41,16,64,823
768207,6185776,6762868,6228403,6785459,3800,3800,-4226,-12850,-1188,3989,-2666,1406,16,64,823
769208,6185804,6763080,6228600,6785656,3800,3800,-4697,-12872,-1552,3853,-3434,1970,8,54,823
770209,6185832,6763232,6228797,6785853,3800,3800,-5019,-13006,-1939,3743,-3589,1312,8,54,823
771210,6185880,6763348,6228994,6786050,3800,3800,-5170,-13127,-2273,3911,-3738,1682,12,27,822
772211,6185924,6763400,6229191,6786247,3800,3800,-5293,-12744,-2471,4019,-3953,3459,12,27,822
773212,6185972,6763444,6229388,6786444,3800,3800,-5484,-11676,-2616,3914,-3904,5026,7,9,821
774213,6186004,6763456,6229585,6786641,3800,3800,-5609,-10321,-2724,3649,-3812,5318,7,9,821
775214,6186028,6763452,6229782,6786838,3800,3800,-5589,-9033,-2811,3331,-3478,5075,1,8,819
776215,6186072,6763452,6229979,6787035,3800,3800,-5409,-7872,-2895,3011,-3069,4968,1,8,819
777216,6186108,6763460,6230176,6787232,3800,3800,-5093,-6727,-2987,2611,-2480,4959,5,14,820
778217,6186148,6763456,6230373,6787429,3800,3800,-4747,-5418,-3063,2324,-1929,5455,5,14,820
779218,6186192,6763464,6230570,6787626,3800,3800,-4411,-3960,-3066,2186,-1301,5614,20,13,820
780219,6186232,6763460,6230767,6787823,3800,3800,-4067,-2599,-3026,2038,-696,5200,20,13,820
781220,6186268,6763468,6230964,6788020,3800,3800,-3698,-1379,-2937,1645,-277,4903,3,15,821
782221,6186240,6763492,6231161,6788217,3800,3800,-3245,-323,-2772,1250,-255,4666,3,15,821
783222,6186244,6763492,6231358,6788414,3800,3800,-2711,585,-2587,883,-222,4205,-4,15,820
784223,6186256,6763484,6231555,6788611,3800,3800,-2158,1417,-2393,649,299,4142,-4,15,820
785224,6186252,6763492,6231752,6788808,3800,3800,-1592,2207,-2138,491,1131,3885,15,1,819
786225,6186256,6763484,6231949,6789005,3800,3800,-1059,2945,-1805,306,1866,3800,15,1,819
787226,6186268,6763496,6232146,6789202,3800,3800,-602,3606,-1392,181,2488,3640,8,13,819
788227,6186256,6763512,6232343,6789399,3800,3800,-239,4201,-914,124,2863,3668,8,13,819
789227,6186256,6763512,6232540,6789596,3800,3800,35,4736,-432,-162,2942,3544,3,13,819
790229,6186276,6763500,6232737,6789793,3800,3800,276,5144,13,-600,2768,3215,3,13,819
791230,6186268,6763492,6232934,6789990,3800,3800,497,5451,438,-996,2483,2980,17,15,820
792231,6186268,6763504,6233131,6790187,3800,3800,689,5631,828,-1410,2628,2484,17,15,820
793232,6186288,6763504,6233328,6790384,3800,3800,872,5605,1133,-1875,2999,1905,9,14,820
794233,6186280,6763516,6233525,6790581,3800,3800,1023,5455,1338,-2308,3161,1783,9,14,820
795234,6186276,6763512,6233722,6790778,3800,3800,1103,5337,1511,-2496,2924,2152,7,15,818
796235,6186288,6763488,6233919,6790975,3800,3800,1091,5412,1728,-2536,2286,2777,7,15,818
797236,6186304,6763504,6234116,6791172,3800,3800,1015,5644,2013,-2557,1509,3209,5,6,818
798237,6186316,6763496,6234313,6791369,3800,3800,886,5981,2321,-2574,744,3604,5,6,818
799238,6186316,6763524,6234510,6791566,3800,3800,697,6325,2599,-2669,185,3815,0,14,820
800239,6186348,6763512,6234707,6791763,3800,3800,529,6450,2812,-2659,-247,2913,0,14,820
801240,6186348,6763496,6234904,6791960,3800,3800,457,6269,2975,-2462,-929,2442,-3,12,819
802241,6186372,6763492,6235101,6792157,3800,3800,359,6084,3027,-2374,-1463,3030,-3,12,819
803242,6186416,6763496,6235298,6792354,3800,3800,183,5991,2974,-2145,-2067,3334,3,9,820
804243,6186456,6763508,6235495,6792551,3800,3800,-38,5875,2858,-1707,-2423,3006,3,9,820
805244,6186500,6763524,6235692,6792748,3800,3800,-305,5682,2718,-1204,-2939,3222,16,15,820
806245,6186572,6763516,6235889,6792945,3800,3800,-624,5487,2602,-558,-3385,3545,16,15,820
807246,6186644,6763512,6236086,6793142,3800,3800,-976,5206,2482,55,-3852,3392,24,12,819
808247,6186680,6763500,6236283,6793339,3800,3800,-1291,4686,2305,581,-3760,2762,24,12,819
809248,6186744,6763520,6236480,6793536,3800,3800,-1554,3960,2073,1155,-3194,2402,26,15,821
810249,6186808,6763512,6236677,6793733,3800,3800,-1797,3103,1796,1810,-2260,2208,26,15,821
811250,6186872,6763520,6236874,6793930,3800,3800,-2034,2228,1511,2416,-1551,2352,15,14,821
812251,6186920,6763540,6237071,6794127,3800,3800,-2254,1246,1223,2669,-1057,2365,15,14,821
813252,6186980,6763528,6237268,6794324,3800,3800,-2446,158,907,2706,-734,2695,22,14,820
814253,6187012,6763520,6237465,6794521,3800,3800,-2616,-889,569,2661,-337,3480,22,14,820
815254,6187024,6763528,6237662,6794718,3800,3800,-1821,-2500,342,971,-330,10051,16,13,820
816255,6187076,6763548,6237859,6794915,3800,3800,1084,-4699,464,-2015,-1438,28281,16,13,820
817256,6187080,6763560,6238056,6795112,3800,3800,2929,-5304,510,490,-949,15215,14,16,819
818257,6187100,6763560,6238253,6795309,3800,3800,2632,-4587,273,2026,260,8785,14,16,819
819258,6187132,6763564,6238450,6795506,3800,3800,1546,-3145,-141,1670,941,9405,12,8,819
820259,6187164,6763552,6238647,6795703,3800,3800,647,-1779,-602,1107,1557,9612,12,8,819
821260,6187176,6763568,6238844,6795900,3800,3800,143,-571,-1063,770,2122,9244,8,10,820
822261,6187208,6763568,6239041,6796097,3800,3800,-192,414,-1538,413,2150,8519,8,10,820
823262,6187232,6763588,6239238,6796294,3800,3800,-469,1221,-1989,198,1708,7807,3,16,818
824263,6187256,6763584,6239435,6796491,3800,3800,-714,1861,-2345,12,1147,7339,3,16,818
825264,6187276,6763592,6239632,6796688,3800,3800,-896,2303,-2585,33,546,6542,17,5,820
826265,6187292,6763596,6239829,6796885,3800,3800,-1006,2413,-2740,128,209,5480,17,5,820
827266,6187284,6763608,6240026,6797082,3800,3800,-1070,2166,-2822,287,96,4446,-2,15,820
828267,6187268,6763620,6240223,6797279,3800,3800,-1082,1556,-2836,568,49,3107,-2,15,820
829268,6187292,6763644,6240420,6797476,3800,3800,-1008,646,-2802,742,2,2104,-1,15,818
830269,6187296,6763664,6240617,6797673,3800,3800,-859,-447,-2718,720,-157,1439,-1,15,818
831270,6187280,6763652,6240814,6797870,3800,3800,-678,-1611,-2589,656,-496,1194,9,17,819
832271,6187304,6763672,6241011,6798067,3800,3800,-504,-2751,-2427,429,-975,1191,9,17,819
833272,6187300,6763696,6241208,6798264,3800,3800,-362,-3788,-2224,24,-1670,1526,-1,17,819
834273,6187308,6763720,6241405,6798461,3800,3800,-232,-4653,-1979,-402,-2296,1841,-1,17,819
835274,6187304,6763724,6241602,6798658,3800,3800,-129,-5382,-1713,-740,-2456,2199,17,6,820
836275,6187312,6763736,6241799,6798855,3800,3800,-54,-5852,-1447,-1022,-2274,2897,17,6,820
837276,6187324,6763740,6241996,6799052,3800,3800,-19,-6096,-1194,-1259,-2123,3516,-3,1,820
838277,6187312,6763760,6242193,6799249,3800,3800,-17,-6072,-940,-1489,-1892,4251,-3,1,820
839278,6187328,6763772,6242390,6799446,3800,3800,-42,-5842,-674,-1715,-1590,4887,0,18,819
840285,6187336,6763796,6242620,6799676,3800,3800,-81,-5439,-402,-1866,-1268,5294,0,18,819
841280,6187328,6763828,6242817,6799873,3800,3800,-126,-4911,-112,-1939,-1095,5651,13,19,819
842281,6187352,6763828,6243014,6800070,3800,3800,-175,-4259,192,-1956,-804,5869,13,19,819
843282,6187360,6763828,6243211,6800267,3800,3800,-227,-3552,503,-1795,-510,5972,16,14,819
844283,6187368,6763820,6243408,6800464,3800,3800,-259,-2843,815,-1569,-293,5902,16,14,819
845284,6187376,6763832,6243605,6800661,3800,3800,-262,-2204,1131,-1336,-151,5757,4,13,819
846285,6187400,6763832,6243802,6800858,3800,3800,-226,-1640,1438,-979,-28,5482,4,13,819
847286,6187416,6763844,6243999,6801055,3800,3800,-146,-1187,1710,-662,166,5036,19,15,820
848287,6187452,6763832,6244196,6801252,3800,3800,-24,-823,1928,-339,237,4694,19,15,820
849288,6187500,6763820,6244393,6801449,3800,3800,129,-546,2098,25,110,4364,0,13,820
850289,6187532,6763832,6244590,6801646,3800,3800,304,-376,2227,324,-88,4009,0,13,820
851290,6187572,6763840,6244787,6801843,3800,3800,522,-319,2317,542,-248,3577,3,9,818
852291,6187620,6763828,6244984,6802040,3800,3800,777,-389,2348,731,-449,3232,3,9,818
853292,6187644,6763836,6245181,6802237,3800,3800,1049,-476,2321,852,-718,3151,1,13,819
854293,6187656,6763836,6245378,6802434,3800,3800,1313,-521,2252,1021,-962,3238,1,13,819
855294,6187668,6763828,6245575,6802631,3800,3800,1547,-453,2169,1176,-1235,3488,9,14,819
856294,6187688,6763844,6245772,6802828,3800,3800,1740,-294,2071,1304,-1325,3735,9,14,819
857295,6187676,6763824,6245969,6803025,3800,3800,1904,-67,1930,1403,-1245,3767,-1,15,819
858297,6187700,6763836,6246166,6803222,3800,3800,2047,128,1728,1485,-1038,3734,-1,15,819
859298,6187728,6763848,6246363,6803419,3800,3800,2161,350,1474,1612,-775,3814,15,14,819
860299,6187728,6763836,6246560,6803616,3800,3800,2235,633,1204,1725,-631,4048,15,14,819
861300,6187732,6763832,6246757,6803813,3800,3800,2260,1043,940,1877,-528,4295,0,14,818
862301,6187772,6763836,6246954,6804010,3800,3800,2235,1504,700,2069,-417,4412,0,14,818
863302,6187808,6763840,6247151,6804207,3800,3800,2173,1976,472,2264,-166,4430,19,9,819
864303,6187840,6763840,6247348,6804404,3800,3800,2095,2363,237,2416,176,4218,19,9,819
865304,6187904,6763848,6247545,6804601,3800,3800,2014,2634,-13,2456,365,3810,8,15,820
866305,6187968,6763836,6247742,6804798,3800,3800,1936,2794,-260,2438,451,3417,8,15,820
867305,6187996,6763836,6247939,6804995,3800,3800,1866,2863,-490,2409,494,3073,4,15,820
868307,6188052,6763848,6248136,6805192,3800,3800,1790,2864,-688,2249,455,2802,4,15,820
869307,6188112,6763856,6248333,6805389,3800,3800,1707,2788,-865,2024,345,2549,4,12,820
870309,6188152,6763868,6248530,6805586,3800,3800,1614,2662,-1018,1777,135,2386,4,12,820
871310,6188216,6763852,6248727,6805783,3800,3800,1505,2510,-1132,1459,-142,2406,15,14,820
872311,6188292,6763848,6248924,6805980,3800,3800,1373,2394,-1205,1082,-349,2393,15,14,820
873311,6188336,6763856,6249121,6806177,3800,3800,1221,2288,-1242,760,-512,2383,13,11,819
874313,6188384,6763860,6249318,6806374,3800,3800,1053,2231,-1253,475,-610,2458,13,11,819
875314,6188440,6763868,6249515,6806571,3800,3800,864,2192,-1240,183,-632,2552,3,11,819
876315,6188484,6763884,6249712,6806768,3800,3800,634,2234,-1206,-88,-644,2869,3,11,819
877316,6188532,6763864,6249909,6806965,3800,3800,343,2355,-1146,-250,-670,3292,19,14,820
878317,6188572,6763868,6250106,6807162,3800,3800,22,2575,-1035,-288,-658,3422,19,14,820
879318,6188636,6763872,6250303,6807359,3800,3800,-293,2767,-903,-379,-451,3330,16,11,820
880319,6188636,6763868,6250500,6807556,3800,3800,-572,2882,-799,-513,-129,3090,16,11,820
881320,6188652,6763872,6250697,6807753,3800,3800,-802,2832,-723,-659,22,2602,12,3,820
882321,6188664,6763884,6250894,6807950,3800,3800,-990,2632,-659,-812,-69,2240,12,3,820
883322,6188640,6763884,6251091,6808147,3800,3800,-1157,2303,-583,-936,-211,2088,10,15,818
884323,6188648,6763872,6251288,6808344,3800,3800,-1313,1942,-478,-977,-399,2056,10,15,818
885324,6188660,6763876,6251485,6808541,3800,3800,-1464,1568,-352,-984,-484,2089,4,11,818
886325,6188664,6763876,6251682,6808738,3800,3800,-1612,1210,-212,-888,-385,2104,4,11,818
887326,6188652,6763884,6251879,6808935,3800,3800,-1757,870,-74,-725,-113,2197,8,14,819
888327,6188652,6763888,6252076,6809132,3800,3800,-1906,533,52,-584,143,2340,8,14,819
889328,6188664,6763892,6252273,6809329,3800,3800,-2041,198,161,-461,292,2457,14,15,819
890329,6188648,6763884,6252470,6809526,3800,3800,-2161,-153,255,-407,373,2620,14,15,819
891330,6188652,6763880,6252667,6809723,3800,3800,-2262,-470,335,-363,365,2774,5,13,819
892331,6188664,6763888,6252864,6809920,3800,3800,-2346,-748,411,-348,178,3007,5,13,819
893332,6188664,6763912,6253061,6810117,3800,3800,-2423,-942,487,-320,-67,3279,0,12,819
894334,6188668,6763912,6253258,6810314,3800,3800,-2493,-1089,566,-235,-272,3572,0,12,819
895334,6188676,6763900,6253455,6810511,3800,3800,-2559,-1160,638,-99,-349,3911,2,10,818
896335,6188680,6763892,6253652,6810708,3800,3800,-2614,-1219,701,31,-358,4114,2,10,818
897336,6188656,6763888,6253849,6810905,3800,3800,-2657,-1237,752,214,-312,4282,-4,12,819
898337,6188680,6763904,6254046,6811102,3800,3800,-2684,-1235,783,394,-258,4479,-4,12,819
899338,6188672,6763916,6254243,6811299,3800,3800,-2690,-1178,801,518,-254,4611,2,13,819
900339,6188680,6763916,6254440,6811496,3800,3800,-2662,-1122,810,621,-332,4725,2,13,819
901340,6188684,6763912,6254637,6811693,3800,3800,-2604,-1077,811,698,-442,4790,-1,10,819
902341,6188684,6763924,6254834,6811890,3800,3800,-2515,-1056,796,750,-477,4940,-1,10,819
903342,6188672,6763920,6255031,6812087,3800,3800,-2398,-1030,750,848,-409,5029,1,5,819
904343,6188688,6763912,6255228,6812284,3800,3800,-2093,-885,691,1129,-532,6570,1,5,819
905344,6188692,6763932,6255425,6812481,3800,3800,-686,751,541,3054,-833,23142,2,15,818
906345,6188688,6763916,6255622,6812678,3800,3800,1118,2804,402,2362,-1389,19304,2,15,818
907346,6188680,6763932,6255819,6812875,3800,3800,1867,3214,334,1141,-273,4574,11,9,818
908347,6188708,6763916,6256016,6813072,3800,3800,1794,2499,271,1025,-84,3417,11,9,818
909348,6188708,6763932,6256213,6813269,3800,3800,1601,1658,217,1081,-307,3403,12,3,819
910349,6188688,6763940,6256410,6813466,3800,3800,1526,1272,201,926,-572,3972,12,3,819
911350,6188728,6763932,6256607,6813663,3800,3800,1535,1097,194,597,-800,3908,6,10,819
912351,6188744,6763944,6256804,6813860,3800,3800,1528,965,171,452,-982,3871,6,10,819
913352,6188752,6763932,6257001,6814057,3800,3800,1481,738,139,141,-1002,3649,0,14,819
914353,6188772,6763940,6257198,6814254,3800,3800,1419,435,116,-131,-1142,3583,0,14,819
915354,6188828,6763932,6257395,6814451,3800,3800,1347,219,83,-301,-1280,3945,10,4,819
916355,6188876,6763956,6257592,6814648,3800,3800,1271,128,47,-613,-1240,4122,10,4,819
917356,6188912,6763960,6257789,6814845,3800,3800,1205,147,13,-871,-1056,4363,19,11,819
918357,6188972,6763960,6257986,6815042,3800,3800,1142,232,-44,-981,-806,4237,19,11,819
919358,6189008,6763964,6258183,6815239,3800,3800,1100,237,-103,-1079,-504,4035,20,13,820
920359,6189036,6763964,6258380,6815436,3800,3800,1051,103,-174,-1111,-211,3662,20,13,820
921360,6189076,6763976,6258577,6815633,3800,3800,1029,-10,-158,-1132,-261,3719,18,15,820
922361,6189124,6763984,6258774,6815830,3800,3800,1004,-77,-120,-1090,-229,3716,18,15,820
923371,6189156,6763996,6259004,6816060,3800,3800,990,-149,-70,-1010,-158,3556,22,15,820
924363,6189196,6763996,6259201,6816257,3800,3800,975,-198,-22,-955,-3,3641,22,15,820
925364,6189244,6763988,6259398,6816454,3800,3800,955,-247,23,-843,63,3621,23,-1,820
926365,6189288,6764004,6259595,6816651,3800,3800,934,-304,67,-715,14,3584,23,-1,820
927366,6189292,6764004,6259792,6816848,3800,3800,905,-370,122,-640,-105,3582,2,5,818
928367,6189312,6764020,6259989,6817045,3800,3800,870,-433,192,-536,-214,3556,2,5,818
929368,6189312,6764020,6260186,6817242,3800,3800,819,-466,265,-419,-276,3646,-1,15,818
930369,6189296,6764044,6260383,6817439,3800,3800,751,-439,329,-326,-248,3680,-1,15,818
931370,6189324,6764040,6260580,6817636,3800,3800,677,-424,379,-225,-178,3689,-2,13,819
932371,6189324,6764044,6260777,6817833,3800,3800,597,-410,405,-56,-40,3653,-2,13,819
933372,6189308,6764052,6260974,6818030,3800,3800,517,-454,425,146,110,3571,-5,8,819
934373,6189328,6764072,6261171,6818227,3800,3800,431,-494,444,259,150,3557,-5,8,819
935374,6189316,6764076,6261368,6818424,3800,3800,335,-544,464,347,72,3535,14,14,819
936375,6189308,6764068,6261565,6818621,3800,3800,230,-552,494,476,-35,3523,14,14,819
937376,6189324,6764056,6261762,6818818,3800,3800,120,-557,526,613,-89,3539,13,14,819
938377,6189336,6764084,6261959,6819015,3800,3800,14,-578,541,679,-73,3462,13,14,819
939378,6189320,6764084,6262156,6819212,3800,3800,-89,-629,535,752,-65,3496,16,16,818
940379,6189320,6764112,6262353,6819409,3800,3800,-184,-664,519,829,-104,3505,16,16,818
941380,6189328,6764112,6262550,6819606,3800,3800,-270,-686,501,865,-181,3512,0,16,819
942381,6189332,6764116,6262747,6819803,3800,3800,-347,-684,482,817,-250,3484,0,16,819
943382,6189308,6764112,6262944,6820000,3800,3800,-416,-680,458,733,-298,3475,12,1,819
944383,6189332,6764124,6263141,6820197,3800,3800,-481,-674,427,711,-351,3510,12,1,819
945384,6189340,6764140,6263338,6820394,3800,3800,-539,-656,397,667,-427,3564,-5,14,819
946385,6189324,6764144,6263535,6820591,3800,3800,-585,-638,373,578,-501,3640,-5,14,819
947386,6189320,6764156,6263732,6820788,3800,3800,-619,-566,357,544,-543,3712,-3,6,819
948387,6189348,6764160,6263929,6820985,3800,3800,-639,-488,343,470,-585,3686,-3,6,819
949388,6189320,6764164,6264126,6821182,3800,3800,-644,-397,326,404,-590,3629,1,13,818
950389,6189320,6764172,6264323,6821379,3800,3800,-638,-338,305,331,-588,3581,1,13,818
951390,6189344,6764196,6264520,6821576,3800,3800,-622,-284,287,289,-579,3614,13,17,815
952391,6189328,6764220,6264717,6821773,3800,3800,-599,-251,269,271,-584,3686,13,17,815
953392,6189308,6764220,6264914,6821970,3800,3800,-568,-175,255,240,-553,3702,17,16,816
954393,6189332,6764204,6265111,6822167,3800,3800,-526,-92,237,213,-523,3711,17,16,816
955394,6189336,6764208,6265308,6822364,3800,3800,-478,27,216,203,-500,3733,11,4,816
956395,6189320,6764208,6265505,6822561,3800,3800,-427,125,191,172,-485,3723,11,4,816
957396,6189340,6764212,6265702,6822758,3800,3800,-371,216,173,167,-493,3694,-3,15,819
958397,6189344,6764224,6265899,6822955,3800,3800,-315,274,166,171,-480,3766,-3,15,819
959398,6189328,6764220,6266096,6823152,3800,3800,-264,335,159,161,-474,3771,16,3,819
960399,6189328,6764220,6266293,6823349,3800,3800,-216,416,158,157,-506,3862,16,3,819
961400,6189340,6764204,6266490,6823546,3800,3800,-174,521,162,135,-520,3896,17,-1,818
962401,6189336,6764220,6266687,6823743,3800,3800,-141,641,171,175,-513,3930,17,-1,818
963402,6189320,6764224,6266884,6823940,3800,3800,-119,745,185,215,-539,3914,-5,15,819
964403,6189340,6764228,6267081,6824137,3800,3800,-104,816,193,259,-543,3878,-5,15,819
965404,6189356,6764240,6267278,6824334,3800,3800,-92,835,194,292,-559,3848,-1,15,819
966405,6189336,6764224,6267475,6824531,3800,3800,-82,853,193,314,-551,3818,-1,15,819
967406,6189336,6764216,6267672,6824728,3800,3800,-81,869,189,338,-535,3839,4,5,819
968407,6189356,6764224,6267869,6824925,3800,3800,-91,913,184,388,-522,3868,4,5,819
969408,6189336,6764236,6268066,6825122,3800,3800,-111,929,175,451,-515,3883,-5,15,819
970409,6189344,6764244,6268263,6825319,3800,3800,-139,938,169,493,-490,3870,-5,15,819
971410,6189356,6764232,6268460,6825516,3800,3800,-174,896,168,559,-490,3849,9,2,818
972411,6189368,6764236,6268657,6825713,3800,3800,-216,852,169,581,-469,3864,9,2,818
973412,6189356,6764236,6268854,6825910,3800,3800,-265,795,173,590,-470,3856,8,13,818
974413,6189376,6764236,6269051,6826107,3800,3800,-316,771,177,600,-473,3856,8,13,818
975414,6189376,6764240,6269248,6826304,3800,3800,-373,735,181,590,-464,3894,11,9,819
976415,6189368,6764248,6269445,6826501,3800,3800,-432,692,176,572,-405,3942,11,9,819
977416,6189384,6764244,6269642,6826698,3800,3800,-485,612,161,510,-317,3929,16,4,819
978417,6189412,6764240,6269839,6826895,3800,3800,-532,527,136,449,-253,3944,16,4,819
979418,6189416,6764240,6270036,6827092,3800,3800,-572,447,104,411,-251,3981,18,15,819
980419,6189440,6764248,6270233,6827289,3800,3800,-612,389,74,364,-235,4051,18,15,819
981420,6189488,6764248,6270430,6827486,3800,3800,-648,343,49,314,-228,4052,4,12,819
982421,6189528,6764260,6270627,6827683,3800,3800,-679,284,25,244,-196,4030,4,12,819
983422,6189568,6764268,6270824,6827880,3800,3800,-705,214,-1,144,-197,4077,12,-2,819
984423,6189640,6764256,6271021,6828077,3800,3800,-719,121,-28,86,-205,4088,12,-2,819
985424,6189664,6764260,6271218,6828274,3800,3800,-723,45,-49,18,-224,4134,5,13,819
986425,6189692,6764264,6271415,6828471,3800,3800,-720,-28,-66,-51,-272,4159,5,13,819
987426,6189724,6764272,6271612,6828668,3800,3800,-709,-77,-82,-109,-314,4192,2,15,819
988427,6189736,6764280,6271809,6828865,3800,3800,-693,-141,-91,-163,-383,4243,2,15,819
989428,6189748,6764276,6272006,6829062,3800,3800,-667,-192,-91,-174,-438,4254,6,2,819
990429,6189760,6764280,6272203,6829259,3800,3800,-634,-271,-82,-199,-464,4280,6,2,819
991430,6189784,6764280,6272400,6829456,3800,3800,-597,-330,-75,-247,-467,4342,-2,15,819
992431,6189796,6764292,6272597,6829653,3800,3800,-559,-384,-73,-237,-394,4397,-2,15,819
993432,6189816,6764304,6272794,6829850,3800,3800,-515,-395,-65,-174,-397,4470,17,15,818
994433,6189860,6764312,6272991,6830047,3800,3800,-468,-400,-34,-93,-429,4548,17,15,818
995434,6189868,6764304,6273188,6830244,3800,3800,-425,-382,10,-14,-411,4599,-1,13,818
996435,6189888,6764300,6273385,6830441,3800,3800,-381,-391,50,31,-325,4606,-1,13,818
997436,6189916,6764316,6273582,6830638,3800,3800,-326,-409,84,89,-260,4595,16,14,819
998437,6189936,6764312,6273779,6830835,3800,3800,-262,-419,115,157,-244,4649,16,14,819
999438,6189932,6764328,6273976,6831032,3800,3800,-194,-394,148,187,-279,4690,5,11,819
1000439,6189960,6764348,6274173,6831229,3800,3800,-124,-330,181,215,-340,4787,5,11,819
1001440,6189968,6764348,6274370,6831426,3800,3800,-58,-260,215,253,-338,4851,14,10,819
1002441,6189948,6764356,6274567,6831623,3800,3800,7,-197,247,256,-383,4848,14,10,819
1003442,6189960,6764356,6274764,6831820,3800,3800,70,-163,280,321,-432,4853,-5,14,819
1004443,6189988,6764376,6274961,6832017,3800,3800,134,-109,313,367,-465,4892,-5,14,819
1005444,6189972,6764404,6275158,6832214,3800,3800,190,-41,346,390,-471,4904,9,8,817
1006452,6189968,6764404,6275388,6832444,3800,3800,241,62,379,438,-458,4915,9,8,817
1007446,6189972,6764420,6275585,6832641,3800,3800,284,153,409,489,-447,4914,12,15,819
1008447,6189968,6764428,6275782,6832838,3800,3800,324,239,432,503,-381,4889,12,15,819
1009448,6189960,6764440,6275979,6833035,3800,3800,356,275,436,507,-288,4850,-3,13,819
1010449,6189980,6764464,6276176,6833232,3800,3800,380,320,424,492,-241,4778,-3,13,819
1011450,6189980,6764472,6276373,6833429,3800,3800,401,342,401,489,-221,4626,-3,16,819
1012451,6189956,6764488,6276570,6833626,3800,3800,421,363,380,513,-122,4511,-3,16,819
1013452,6189964,6764500,6276767,6833823,3800,3800,428,380,374,555,-159,4644,16,15,819
1014453,6189984,6764500,6276964,6834020,3800,3800,426,414,379,536,-196,4621,16,15,819
1015454,6189968,6764512,6277161,6834217,3800,3800,429,410,378,436,-217,4520,4,16,818
1016455,6189972,6764504,6277358,6834414,3800,3800,438,400,372,365,-254,4500,4,16,818
1017456,6189988,6764516,6277555,6834611,3800,3800,448,391,365,334,-276,4471,-5,13,817
1018457,6189984,6764524,6277752,6834808,3800,3800,461,388,357,275,-263,4386,-5,13,817
1019458,6189964,6764512,6277949,6835005,3800,3800,477,382,346,190,-263,4282,3,11,818
1020459,6189976,6764500,6278146,6835202,3800,3800,495,358,323,98,-241,4181,3,11,818
1021460,6189976,6764516,6278343,6835399,3800,3800,516,321,288,-19,-239,4132,12,9,818
1022461,6189956,6764524,6278540,6835596,3800,3800,532,276,250,-112,-301,4209,12,9,818
1023462,6189976,6764524,6278737,6835793,3800,3800,538,275,218,-193,-341,4231,-3,15,819
1024463,6189976,6764528,6278934,6835990,3800,3800,546,280,192,-231,-316,4211,-3,15,819
1025464,6189964,6764508,6279131,6836187,3800,3800,552,310,170,-277,-297,4159,-3,15,819
1026465,6189956,6764512,6279328,6836384,3800,3800,552,314,149,-279,-254,4100,-3,15,819
1027466,6189992,6764508,6279525,6836581,3800,3800,548,310,135,-289,-280,4075,-4,11,818
1028467,6189980,6764532,6279722,6836778,3800,3800,540,269,134,-274,-368,4045,-4,11,818
1029468,6189956,6764532,6279919,6836975,3800,3800,530,243,152,-263,-426,3984,-3,14,818
1030469,6189988,6764540,6280116,6837172,3800,3800,518,200,178,-229,-445,3907,-3,14,818
1031470,6189984,6764524,6280313,6837369,3800,3800,505,172,204,-184,-478,3827,14,5,818
1032471,6189964,6764528,6280510,6837566,3800,3800,494,104,229,-171,-472,3757,14,5,818
1033472,6189980,6764528,6280707,6837763,3800,3800,487,23,253,-111,-444,3691,-4,13,819
1034473,6189988,6764536,6280904,6837960,3800,3800,477,-82,271,-97,-461,3692,-4,13,819
1035474,6189972,6764548,6281101,6838157,3800,3800,465,-172,292,-65,-522,3704,-2,13,819
1036475,6189972,6764548,6281298,6838354,3800,3800,450,-249,317,-30,-503,3725,-2,13,819
1037476,6189988,6764516,6281495,6838551,3800,3800,437,-292,344,12,-498,3714,-1,13,818
1038477,6189980,6764544,6281692,6838748,3800,3800,422,-313,368,45,-483,3746,-1,13,818
1039478,6189964,6764544,6281889,6838945,3800,3800,402,-333,394,100,-443,3750,0,15,818
1040479,6189976,6764556,6282086,6839142,3800,3800,380,-343,416,142,-415,3800,0,15,818
1041480,6189972,6764568,6282283,6839339,3800,3800,357,-350,435,193,-349,3848,-2,6,819
1042481,6189972,6764560,6282480,6839536,3800,3800,333,-328,451,269,-309,3879,-2,6,819
1043482,6189980,6764548,6282677,6839733,3800,3800,308,-293,460,293,-289,3875,13,1,819
1044483,6189984,6764564,6282874,6839930,3800,3800,283,-222,462,347,-263,3907,13,1,819
1045484,6189968,6764556,6283071,6840127,3800,3800,257,-175,459,378,-224,3898,-5,13,819
1046485,6189980,6764572,6283268,6840324,3800,3800,231,-133,453,402,-209,3836,-5,13,819
1047486,6190000,6764568,6283465,6840521,3800,3800,206,-135,444,426,-206,3766,4,12,819
1048487,6189984,6764568,6283662,6840718,3800,3800,183,-125,432,473,-211,3729,4,12,819
1049488,6189972,6764560,6283859,6840915,3800,3800,163,-124,414,499,-243,3758,17,11,817
1050489,6189984,6764576,6284056,6841112,3800,3800,142,-92,390,480,-238,3704,17,11,817
1051490,6189984,6764572,6284253,6841309,3800,3800,121,-75,366,458,-242,3689,13,5,818
1052491,6189980,6764584,6284450,6841506,3800,3800,99,-60,344,457,-302,3688,13,5,818
1053492,6189988,6764580,6284647,6841703,3800,3800,74,-71,321,495,-362,3694,-5,15,819
1054493,6189984,6764600,6284844,6841900,3800,3800,46,-76,300,494,-365,3670,-5,15,819
1055494,6189968,6764592,6285041,6842097,3800,3800,21,-74,278,475,-379,3682,-2,7,819
1056495,6189984,6764592,6285238,6842294,3800,3800,-5,-47,255,473,-344,3664,-2,7,819
1057496,6189988,6764604,6285435,6842491,3800,3800,-32,-14,234,467,-337,3660,1,-1,819
1058497,6189984,6764608,6285632,6842688,3800,3800,-62,8,208,478,-314,3661,1,-1,819
1059498,6189972,6764608,6285829,6842885,3800,3800,-90,25,187,466,-332,3675,-5,13,817
1060499,6190000,6764600,6286026,6843082,3800,3800,-116,22,169,453,-341,3688,-5,13,817
1061500,6189988,6764604,6286223,6843279,3800,3800,-140,33,156,440,-387,3662,12,9,818
1062501,6189980,6764604,6286420,6843476,3800,3800,-164,49,146,433,-412,3687,12,9,818
1063502,6189996,6764612,6286617,6843673,3800,3800,-186,100,143,430,-419,3696,-4,14,818
1064503,6189988,6764632,6286814,6843870,3800,3800,-205,133,144,390,-432,3749,-4,14,818
1065504,6189964,6764628,6287011,6844067,3800,3800,-218,170,146,398,-443,3741,-5,15,818
1066505,6189996,6764612,6287208,6844264,3800,3800,-228,179,151,410,-441,3758,-5,15,818
1067506,6189988,6764624,6287405,6844461,3800,3800,-238,212,162,396,-453,3811,-4,7,818
1068507,6189976,6764628,6287602,6844658,3800,3800,-248,246,172,386,-442,3812,-4,7,818
1069508,6189976,6764640,6287799,6844855,3800,3800,-255,316,181,383,-434,3865,15,15,818
1070509,6190000,6764648,6287996,6845052,3800,3800,-260,374,189,351,-422,3897,15,15,818
1071510,6189976,6764644,6288193,6845249,3800,3800,-263,435,195,382,-400,3908,-1,13,817
1072511,6189984,6764636,6288390,6845446,3800,3800,-267,465,202,398,-404,3902,-1,13,817
1073512,6189984,6764648,6288587,6845643,3800,3800,-272,491,210,389,-351,3914,15,7,818
1074513,6189996,6764672,6288784,6845840,3800,3800,-278,520,213,378,-352,3959,15,7,818
1075514,6189980,6764668,6288981,6846037,3800,3800,-286,567,214,363,-327,3960,-5,7,818
1076515,6189984,6764672,6289178,6846234,3800,3800,-290,613,214,346,-314,3950,-5,7,818
1077516,6189996,6764676,6289375,6846431,3800,3800,-293,638,213,345,-298,3962,-5,9,818
1078517,6189972,6764664,6289572,6846628,3800,3800,-298,646,208,335,-284,3934,-5,9,818
1079518,6189976,6764664,6289769,6846825,3800,3800,-304,622,202,288,-284,3941,-2,2,818
1080519,6190008,6764688,6289966,6847022,3800,3800,-310,607,196,286,-282,3933,-2,2,818
1081520,6189972,6764708,6290163,6847219,3800,3800,-320,592,189,267,-296,3887,12,16,814
1082521,6189984,6764748,6290360,6847416,3800,3800,-329,598,186,252,-275,3935,12,16,814
1083522,6189992,6764744,6290557,6847613,3800,3800,-341,578,184,219,-300,3965,0,6,817
1084523,6189992,6764748,6290754,6847810,3800,3800,-356,559,181,183,-359,3978,0,6,817
1085524,6189972,6764780,6290951,6848007,3800,3800,-376,490,183,177,-354,3965,16,11,819
1086525,6190000,6764792,6291148,6848204,3800,3800,-393,435,185,159,-337,3973,16,11,819
1087526,6190000,6764808,6291345,6848401,3800,3800,-410,376,191,135,-316,3965,16,5,819
1088527,6189980,6764836,6291542,6848598,3800,3800,-420,334,197,120,-317,3932,16,5,819
1089535,6189980,6764840,6291772,6848828,3800,3800,-430,282,204,88,-334,3980,-3,5,819
1090529,6190008,6764832,6291969,6849025,3800,3800,-439,237,217,86,-321,4040,-3,5,819
1091530,6189976,6764868,6292166,6849222,3800,3800,-442,160,231,75,-295,4045,2,7,819
1092531,6189980,6764860,6292363,6849419,3800,3800,-439,92,245,41,-277,4087,2,7,819
1093532,6190004,6764864,6292560,6849616,3800,3800,-433,41,254,16,-260,4126,-2,-1,817
1094533,6189984,6764868,6292757,6849813,3800,3800,-422,28,261,2,-259,4228,-2,-1,817
1095534,6189988,6764868,6292954,6850010,3800,3800,-407,35,267,-40,-228,4290,8,8,818
1096535,6189992,6764868,6293151,6850207,3800,3800,-394,44,274,-49,-216,4362,8,8,818
1097536,6190000,6764872,6293348,6850404,3800,3800,-381,60,279,-49,-236,4422,13,11,818
1098537,6189980,6764860,6293545,6850601,3800,3800,-366,62,280,-62,-234,4426,13,11,818
1099538,6189996,6764884,6293742,6850798,3800,3800,-351,84,279,-52,-188,4481,-3,3,819
1100539,6189996,6764880,6293939,6850995,3800,3800,-336,112,275,-28,-155,4538,-3,3,819
1101540,6189976,6764876,6294136,6851192,3800,3800,-317,161,267,3,-121,4504,6,10,819
1102541,6189984,6764876,6294333,6851389,3800,3800,-296,187,259,18,-167,4509,6,10,819
1103542,6190000,6764864,6294530,6851586,3800,3800,-276,212,251,40,-231,4533,-2,2,817
1104543,6189992,6764876,6294727,6851783,3800,3800,-254,196,248,47,-266,4478,-2,2,817
1105544,6189980,6764880,6294924,6851980,3800,3800,-226,187,246,87,-303,4443,2,3,818
1106545,6189996,6764888,6295121,6852177,3800,3800,-203,165,244,116,-357,4445,2,3,818
1107546,6189992,6764892,6295318,6852374,3800,3800,-183,176,244,137,-425,4486,-5,2,819
1108547,6189980,6764880,6295515,6852571,3800,3800,-163,168,248,144,-488,4476,-5,2,819
1109548,6190000,6764880,6295712,6852768,3800,3800,-143,156,251,142,-550,4431,15,3,818
1110549,6189996,6764892,6295909,6852965,3800,3800,-122,113,254,172,-569,4461,15,3,818
1111550,6189988,6764904,6296106,6853162,3800,3800,-102,74,256,215,-560,4447,-5,-1,818
1112551,6189992,6764904,6296303,6853359,3800,3800,-81,44,257,218,-558,4422,-5,-1,818
1113552,6190000,6764896,6296500,6853556,3800,3800,-57,37,252,207,-531,4437,-3,6,818
1114553,6189996,6764896,6296697,6853753,3800,3800,-31,41,246,239,-516,4492,-3,6,818
1115554,6189988,6764896,6296894,6853950,3800,3800,-3,36,244,234,-484,4467,-1,0,818
1116555,6190008,6764912,6297091,6854147,3800,3800,25,20,242,268,-437,4478,-1,0,818
1117556,6189992,6764916,6297288,6854344,3800,3800,52,-9,243,250,-433,4482,2,-2,818
1118557,6189988,6764920,6297485,6854541,3800,3800,80,-14,247,246,-419,4497,2,-2,818
1119558,6190000,6764920,6297682,6854738,3800,3800,110,-10,253,224,-407,4517,7,6,818
1120559,6190000,6764900,6297879,6854935,3800,3800,144,23,259,205,-403,4535,7,6,818
1121560,6189980,6764920,6298076,6855132,3800,3800,177,35,267,179,-410,4508,15,8,819
1122561,6189988,6764936,6298273,6855329,3800,3800,212,50,276,171,-437,4504,15,8,819
1123561,6190004,6764944,6298470,6855526,3800,3800,251,31,280,144,-434,4466,2,5,818
1124563,6189996,6764936,6298667,6855723,3800,3800,288,30,283,134,-407,4450,2,5,818
1125563,6189996,6764932,6298864,6855920,3800,3800,324,26,288,146,-374,4458,-3,0,817
1126565,6190012,6764928,6299061,6856117,3800,3800,361,53,294,154,-349,4395,-3,0,817
1127566,6190004,6764944,6299258,6856314,3800,3800,394,64,302,157,-340,4349,-3,5,817
1128567,6189992,6764960,6299455,6856511,3800,3800,425,76,312,158,-332,4321,-3,5,817
1129568,6190004,6764964,6299652,6856708,3800,3800,451,55,320,153,-348,4337,-2,2,818
1130569,6190004,6764976,6299849,6856905,3800,3800,471,44,324,127,-362,4265,-2,2,818
1131570,6189992,6764956,6300046,6857102,3800,3800,488,29,328,144,-337,4232,11,7,819
1132571,6190000,6764960,6300243,6857299,3800,3800,501,31,334,170,-297,4202,11,7,819
1133572,6190012,6764992,6300440,6857496,3800,3800,507,40,341,171,-277,4151,-1,11,818
1134573,6190000,6765000,6300637,6857693,3800,3800,515,24,342,214,-248,4094,-1,11,818
1135574,6189988,6765000,6300834,6857890,3800,3800,519,-10,349,266,-282,4070,6,5,815
1136575,6190016,6765016,6301031,6858087,3800,3800,516,-60,360,259,-314,4057,6,5,815
1137576,6190000,6765020,6301228,6858284,3800,3800,512,-88,367,256,-362,4023,11,12,817
1138577,6190008,6765024,6301425,6858481,3800,3800,507,-111,372,270,-389,4024,11,12,817
1139578,6190008,6765020,6301622,6858678,3800,3800,501,-107,376,319,-371,4006,3,10,819
1140579,6190008,6765036,6301819,6858875,3800,3800,492,-120,379,322,-341,3975,3,10,819
1141580,6189992,6765040,6302016,6859072,3800,3800,484,-132,378,336,-345,3935,-2,4,818
1142581,6190012,6765056,6302213,6859269,3800,3800,477,-168,377,345,-360,3951,-2,4,818
1143582,6190008,6765052,6302410,6859466,3800,3800,466,-169,376,337,-390,3946,-5,4,818
1144583,6190000,6765064,6302607,6859663,3800,3800,454,-165,377,321,-403,3937,-5,4,818
1145584,6190004,6765072,6302804,6859860,3800,3800,441,-121,375,367,-369,3972,16,6,818
1146585,6190012,6765092,6303001,6860057,3800,3800,429,-86,367,374,-320,3939,16,6,818
1147586,6190012,6765116,6303198,6860254,3800,3800,416,-44,357,366,-290,3937,8,6,817
1148587,6190000,6765132,6303395,6860451,3800,3800,402,-27,345,380,-277,3945,8,6,817
1149588,6190020,6765128,6303592,6860648,3800,3800,387,-6,331,367,-261,3943,-5,3,817
1150589,6190016,6765152,6303789,6860845,3800,3800,373,24,323,390,-289,3889,-5,3,817
1151590,6190004,6765164,6303986,6861042,3800,3800,357,73,315,366,-263,3885,-5,3,818
1152591,6190020,6765196,6304183,6861239,3800,3800,340,121,311,362,-268,3863,-5,3,818
1153592,6190028,6765192,6304380,6861436,3800,3800,325,155,307,345,-296,3803,16,2,818
1154593,6190012,6765184,6304577,6861633,3800,3800,307,174,305,329,-302,3829,16,2,818
1155594,6190012,6765192,6304774,6861830,3800,3800,287,176,300,304,-304,3804,5,1,818
1156595,6190024,6765200,6304971,6862027,3800,3800,270,194,297,296,-312,3794,5,1,818
1157596,6190016,6765208,6305168,6862224,3800,3800,254,213,289,307,-287,3770,3,7,819
1158597,6190036,6765204,6305365,6862421,3800,3800,238,261,280,258,-265,3756,3,7,819
1159598,6190064,6765204,6305562,6862618,3800,3800,218,294,269,239,-229,3753,19,14,815
1160599,6190072,6765204,6305759,6862815,3800,3800,196,332,258,234,-153,3745,19,14,815
1161600,6190056,6765204,6305956,6863012,3800,3800,167,341,239,191,-120,3754,-2,1,818
1162601,6190096,6765216,6306153,6863209,3800,3800,135,371,221,180,-117,3781,-2,1,818
1163602,6190112,6765212,6306350,6863406,3800,3800,102,399,200,145,-81,3743,14,6,819
1164603,6190136,6765228,6306547,6863603,3800,3800,67,450,180,124,-78,3723,14,6,819
1165604,6190180,6765232,6306744,6863800,3800,3800,28,474,156,118,-82,3717,19,-2,819
1166605,6190228,6765240,6306941,6863997,3800,3800,-8,490,130,103,-81,3658,19,-2,819
1167606,6190272,6765236,6307138,6864194,3800,3800,-45,454,107,60,-117,3658,11,0,819
1168607,6190320,6765256,6307335,6864391,3800,3800,-79,407,87,21,-166,3592,11,0,819
1169608,6190396,6765264,6307532,6864588,3800,3800,-114,350,71,27,-233,3541,5,4,818
1170609,6190416,6765280,6307729,6864785,3800,3800,-146,300,52,11,-291,3476,5,4,818
1171610,6190452,6765308,6307926,6864982,3800,3800,-171,232,34,47,-303,3448,3,10,818
1172618,6190532,6765308,6308156,6865212,3800,3800,-189,134,20,100,-297,3416,3,10,818
1173612,6190596,6765328,6308353,6865409,3800,3800,-206,25,15,163,-299,3422,11,3,819
1174613,6190648,6765344,6308550,6865606,3800,3800,-215,-95,9,161,-266,3435,11,3,819
1175614,6190748,6765364,6308747,6865803,3800,3800,-223,-198,-6,143,-222,3452,26,12,820
1176615,6190832,6765392,6308944,6866000,3800,3800,-232,-274,-30,150,-201,3573,26,12,820
1177616,6190904,6765420,6309141,6866197,3800,3800,-238,-291,-51,179,-163,3688,19,21,820
1178617,6190996,6765452,6309338,6866394,3800,3800,-242,-311,-60,216,-155,3781,19,21,820
1179618,6191100,6765496,6309535,6866591,3800,3800,-246,-308,-63,287,-132,3894,18,13,820
1180619,6191192,6765504,6309732,6866788,3800,3800,-249,-324,-71,281,-53,3885,18,13,820
1181620,6191248,6765508,6309929,6866985,3800,3800,-237,-345,-89,258,15,3815,28,5,819
1182621,6191332,6765516,6310126,6867182,3800,3800,-214,-387,-111,271,9,3852,28,5,819
1183622,6191396,6765524,6310323,6867379,3800,3800,-190,-369,-121,322,-32,3961,11,15,819
1184623,6191420,6765516,6310520,6867576,3800,3800,-170,-343,-115,331,-14,3974,11,15,819
1185624,6191448,6765520,6310717,6867773,3800,3800,-151,-309,-107,354,27,4027,2,15,819
1186625,6191480,6765512,6310914,6867970,3800,3800,-133,-296,-100,371,90,4076,2,15,819
1187626,6191468,6765520,6311111,6868167,3800,3800,-117,-278,-98,413,189,4093,12,15,819
1188627,6191504,6765520,6311308,6868364,3800,3800,-105,-251,-96,486,243,4134,12,15,819
1189628,6191512,6765528,6311505,6868561,3800,3800,-109,-181,-91,535,348,4249,18,10,818
1190629,6191500,6765520,6311702,6868758,3800,3800,-130,-68,-82,608,492,4346,18,10,818
1191630,6191508,6765524,6311899,6868955,3800,3800,-163,48,-75,635,624,4356,9,14,817
1192631,6191536,6765536,6312096,6869152,3800,3800,-204,150,-73,648,665,4439,9,14,817
1193632,6191524,6765532,6312293,6869349,3800,3800,-261,250,-64,700,672,4526,10,15,817
1194633,6191532,6765540,6312490,6869546,3800,3800,-329,361,-50,698,689,4475,10,15,817
1195634,6191560,6765540,6312687,6869743,3800,3800,-397,445,-36,658,610,4404,5,9,818
1196635,6191560,6765540,6312884,6869940,3800,3800,-466,534,-16,606,472,4397,5,9,818
1197636,6191560,6765544,6313081,6870137,3800,3800,-536,580,9,570,299,4311,-4,11,818
1198637,6191588,6765552,6313278,6870334,3800,3800,-604,594,39,511,75,4187,-4,11,818
1199638,6191620,6765560,6313475,6870531,3800,3800,-661,537,76,440,-193,4111,14,6,818
1200639,6191620,6765556,6313672,6870728,3800,3800,-715,483,125,326,-496,4094,14,6,818
1201640,6191636,6765556,6313869,6870925,3800,3800,-763,422,183,221,-718,4071,0,15,818
1202641,6191688,6765552,6314066,6871122,3800,3800,-800,369,237,132,-827,3991,0,15,818
1203642,6191696,6765560,6314263,6871319,3800,3800,-818,289,278,104,-898,3997,-1,7,817
1204643,6191684,6765576,6314460,6871516,3800,3800,-820,214,311,79,-943,4041,-1,7,817
1205644,6191708,6765576,6314657,6871713,3800,3800,-812,122,344,15,-971,4111,-4,8,818
1206645,6191692,6765616,6314854,6871910,3800,3800,-802,52,370,-21,-981,4163,14,2,818
1207646,6191680,6765608,6315051,6872107,3800,3800,-782,0,388,-11,-973,4238,14,2,818
1208647,6191696,6765620,6315248,6872304,3800,3800,-750,-17,397,-5,-897,4304,8,5,818
1209648,6191696,6765636,6315445,6872501,3800,3800,-711,-6,402,12,-857,4425,8,5,818
1210649,6191696,6765636,6315642,6872698,3800,3800,-673,38,411,77,-861,4562,12,2,818
1211650,6191708,6765668,6315839,6872895,3800,3800,-636,88,420,82,-863,4691,12,2,818
1212651,6191704,6765692,6316036,6873092,3800,3800,-589,113,423,98,-806,4686,-4,17,817
1213652,6191692,6765700,6316233,6873289,3800,3800,-531,148,413,149,-688,4716,-4,17,817
1214653,6191700,6765720,6316430,6873486,3800,3800,-464,179,399,228,-589,4702,-3,16,817
1215654,6191716,6765740,6316627,6873683,3800,3800,-383,214,376,281,-441,4609,-3,16,817
1216655,6191712,6765756,6316824,6873880,3800,3800,-291,214,348,300,-370,4619,15,7,818
1217656,6191704,6765792,6317021,6874077,3800,3800,-194,212,314,324,-346,4625,15,7,818
1218657,6191728,6765828,6317218,6874274,3800,3800,-89,163,281,315,-295,4610,12,19,818
1219658,6191728,6765848,6317415,6874471,3800,3800,18,134,249,294,-310,4635,12,19,818
1220659,6191728,6765856,6317612,6874668,3800,3800,116,119,226,303,-330,4677,0,8,818
1221660,6191744,6765880,6317809,6874865,3800,3800,206,145,214,292,-361,4652,0,8,818
1222661,6191772,6765868,6318006,6875062,3800,3800,282,168,210,225,-409,4715,15,14,818
1223662,6191796,6765892,6318203,6875259,3800,3800,349,203,208,215,-396,4710,15,14,818
1224663,6191828,6765900,6318400,6875456,3800,3800,409,198,200,175,-355,4655,7,14,817
1225664,6191912,6765904,6318597,6875653,3800,3800,455,216,192,130,-398,4707,7,14,817
1226665,6191956,6765904,6318794,6875850,3800,3800,492,241,191,76,-377,4688,18,16,819
1227666,6192016,6765904,6318991,6876047,3800,3800,523,278,187,10,-361,4601,18,16,819
1228667,6192112,6765928,6319188,6876244,3800,3800,549,309,176,-60,-322,4558,7,10,819
1229668,6192164,6765948,6319385,6876441,3800,3800,574,310,159,-72,-261,4468,7,10,819
1230669,6192212,6765960,6319582,6876638,3800,3800,596,272,136,-99,-198,4321,12,17,819
1231670,6192300,6765976,6319779,6876835,3800,3800,620,188,111,-134,-177,4218,12,17,819
1232671,6192360,6766008,6319976,6877032,3800,3800,642,112,83,-194,-260,4167,17,7,819
1233672,6192412,6766016,6320173,6877229,3800,3800,662,25,56,-254,-382,4059,17,7,819
1234673,6192456,6766064,6320370,6877426,3800,3800,680,-67,36,-268,-495,3934,5,14,818
1235674,6192516,6766108,6320567,6877623,3800,3800,691,-186,21,-223,-616,3857,5,14,818
1236675,6192556,6766132,6320764,6877820,3800,3800,699,-310,17,-180,-706,3790,20,22,818
1237676,6192584,6766164,6320961,6878017,3800,3800,703,-467,21,-139,-768,3759,20,22,818
1238677,6192676,6766208,6321158,6878214,3800,3800,705,-606,31,-52,-718,3718,21,23,819
1239678,6192708,6766248,6321355,6878411,3800,3800,709,-751,44,57,-624,3645,21,23,819
1240679,6192704,6766304,6321552,6878608,3800,3800,711,-845,58,126,-570,3667,16,20,816
1241680,6192772,6766328,6321749,6878805,3800,3800,713,-939,78,207,-514,3685,16,20,816
1242681,6192788,6766376,6321946,6879002,3800,3800,717,-999,103,311,-439,3810,11,8,819
1243682,6192788,6766408,6322143,6879199,3800,3800,721,-1041,131,376,-314,3859,11,8,819
1244683,6192832,6766444,6322340,6879396,3800,3800,731,-1047,155,428,-176,3910,15,17,819
1245684,6192852,6766504,6322537,6879593,3800,3800,747,-1030,175,503,-57,3972,15,17,819
1246685,6192864,6766552,6322734,6879790,3800,3800,760,-955,203,545,37,4074,22,12,816
1247686,6192892,6766596,6322931,6879987,3800,3800,767,-826,232,531,151,4159,22,12,816
1248687,6192928,6766620,6323128,6880184,3800,3800,770,-678,258,531,239,4179,19,9,819
1249688,6192944,6766628,6323325,6880381,3800,3800,768,-523,289,562,263,4246,19,9,819
1250689,6192976,6766644,6323522,6880578,3800,3800,759,-354,329,565,224,4287,22,10,816
1251690,6193012,6766656,6323719,6880775,3800,3800,746,-159,373,533,216,4233,22,10,816
1252691,6193044,6766668,6323916,6880972,3800,3800,735,14,420,514,234,4192,17,7,818
1253692,6193040,6766692,6324113,6881169,3800,3800,719,215,468,533,252,4210,17,7,818
1254693,6193064,6766692,6324310,6881366,3800,3800,691,393,520,550,258,4119,7,2,818
1255703,6193064,6766704,6324540,6881596,3800,3800,657,549,566,527,213,3979,7,2,818
1256695,6193052,6766728,6324737,6881793,3800,3800,615,652,606,470,191,3944,5,6,817
1257696,6193068,6766744,6324934,6881990,3800,3800,561,772,638,431,166,3941,5,6,817
1258696,6193072,6766772,6325131,6882187,3800,3800,495,888,652,384,167,3891,7,4,817
1259698,6193072,6766804,6325328,6882384,3800,3800,419,1013,653,341,129,3800,7,4,817
1260699,6193084,6766836,6325525,6882581,3800,3800,327,1116,640,311,88,3783,8,10,818
1261700,6193096,6766872,6325722,6882778,3800,3800,221,1204,615,282,26,3755,8,10,818
1262701,6193092,6766904,6325919,6882975,3800,3800,107,1217,584,294,-36,3601,5,5,818
1263702,6193080,6766920,6326116,6883172,3800,3800,-15,1205,551,289,-150,3551,5,5,818
1264703,6193128,6766944,6326313,6883369,3800,3800,-139,1160,514,268,-227,3452,15,10,818
1265704,6193140,6766956,6326510,6883566,3800,3800,-261,1103,473,282,-308,3313,15,10,818
1266705,6193152,6766996,6326707,6883763,3800,3800,-376,1003,429,279,-364,3169,18,2,819
1267706,6193204,6767016,6326904,6883960,3800,3800,-481,851,379,243,-455,3072,18,2,819
1268707,6193256,6767052,6327101,6884157,3800,3800,-574,667,325,264,-532,3034,14,14,815
1269708,6193300,6767088,6327298,6884354,3800,3800,-657,442,277,270,-586,3028,14,14,815
1270709,6193360,6767124,6327495,6884551,3800,3800,-726,218,227,245,-598,2974,19,5,818
1271710,6193436,6767176,6327692,6884748,3800,3800,-783,6,177,237,-618,3033,19,5,818
1272711,6193480,6767220,6327889,6884945,3800,3800,-828,-161,134,226,-617,3123,8,18,819
1273712,6193540,6767264,6328086,6885142,3800,3800,-861,-328,97,218,-591,3225,8,18,819
1274713,6193608,6767308,6328283,6885339,3800,3800,-884,-451,72,195,-553,3402,8,20,819
1275714,6193652,6767328,6328480,6885536,3800,3800,-894,-572,57,209,-449,3534,8,20,819
1276715,6193696,6767388,6328677,6885733,3800,3800,-885,-644,41,179,-390,3651,14,20,819
1277716,6193760,6767440,6328874,6885930,3800,3800,-861,-709,26,132,-389,3716,14,20,819
1278717,6193784,6767484,6329071,6886127,3800,3800,-823,-703,17,148,-337,3878,2,21,817
1279718,6193796,6767524,6329268,6886324,3800,3800,-773,-678,20,149,-291,3999,2,21,817
1280719,6193848,6767568,6329465,6886521,3800,3800,-713,-631,32,181,-301,4092,8,12,818
1281720,6193892,6767628,6329662,6886718,3800,3800,-650,-591,47,194,-310,4217,8,12,818
1282721,6193912,6767684,6329859,6886915,3800,3800,-580,-527,68,196,-247,4264,1,20,819
1283722,6193956,6767732,6330056,6887112,3800,3800,-505,-463,90,256,-136,4286,1,20,819
1284723,6194028,6767768,6330253,6887309,3800,3800,-427,-377,113,293,-15,4331,4,20,819
1285724,6194064,6767820,6330450,6887506,3800,3800,-345,-293,129,339,135,4314,4,20,819
1286725,6194108,6767868,6330647,6887703,3800,3800,-262,-218,139,380,206,4337,4,10,819
1287726,6194184,6767940,6330844,6887900,3800,3800,-185,-152,157,411,225,4399,4,10,819
1288727,6194208,6767988,6331041,6888097,3800,3800,-115,-114,185,410,207,4336,9,11,819
1289728,6194228,6768040,6331238,6888294,3800,3800,-46,-69,210,402,178,4291,9,11,819
1290729,6194284,6768080,6331435,6888491,3800,3800,17,-25,234,364,103,4293,1,7,818
1291730,6194324,6768116,6331632,6888688,3800,3800,68,60,263,311,-28,4328,1,7,818
1292731,6194352,6768140,6331829,6888885,3800,3800,112,114,298,300,-70,4231,7,19,818
1293732,6194416,6768164,6332026,6889082,3800,3800,152,156,320,309,-108,4239,7,19,818
1294733,6194480,6768200,6332223,6889279,3800,3800,180,168,335,281,-83,4262,5,11,818
1295734,6194520,6768248,6332420,6889476,3800,3800,201,176,340,258,-6,4173,5,11,818
1296735,6194564,6768244,6332617,6889673,3800,3800,209,169,338,260,-15,4163,3,17,818
1297736,6194640,6768264,6332814,6889870,3800,3800,200,220,339,263,-22,4204,3,17,818
1298737,6194720,6768268,6333011,6890067,3800,3800,184,239,338,267,13,4111,18,5,819
1299738,6194780,6768272,6333208,6890264,3800,3800,162,253,327,259,51,4125,18,5,819
1300739,6194908,6768292,6333405,6890461,3800,3800,134,242,309,247,112,4120,22,13,818
1301740,6194996,6768320,6333602,6890658,3800,3800,102,237,276,256,155,4138,22,13,818
1302741,6195076,6768340,6333799,6890855,3800,3800,64,232,224,224,168,4124,27,13,815
1303742,6195208,6768372,6333996,6891052,3800,3800,24,236,175,159,138,4095,27,13,815
1304743,6195320,6768400,6334193,6891249,3800,3800,-23,256,125,139,114,4130,23,5,819
1305744,6195432,6768444,6334390,6891446,3800,3800,-70,259,64,109,129,4077,23,5,819
1306745,6195544,6768472,6334587,6891643,3800,3800,-114,221,0,115,36,4044,18,7,819
1307746,6195656,6768548,6334784,6891840,3800,3800,-160,165,-60,159,-93,4058,18,7,819
1308747,6195748,6768596,6334981,6892037,3800,3800,-205,129,-105,135,-260,4055,26,14,819
1309748,6195836,6768676,6335178,6892234,3800,3800,-247,64,-139,191,-452,3951,26,14,819
1310749,6195960,6768736,6335375,6892431,3800,3800,-272,-27,-171,258,-476,3817,19,8,820
1311750,6196056,6768784,6335572,6892628,3800,3800,-290,-153,-200,284,-527,3834,19,8,820
1312751,6196136,6768848,6335769,6892825,3800,3800,-295,-319,-223,307,-621,3697,19,13,819
1313752,6196260,6768912,6335966,6893022,3800,3800,-292,-511,-232,461,-639,3762,19,13,819
1314753,6196376,6768992,6336163,6893219,3800,3800,-281,-650,-223,556,-560,3821,15,15,818
1315754,6196476,6769072,6336360,6893416,3800,3800,-260,-788,-207,612,-498,3921,15,15,818
1316755,6196620,6769164,6336557,6893613,3800,3800,-233,-859,-186,696,-421,4044,34,17,820
1317756,6196776,6769248,6336754,6893810,3800,3800,-193,-930,-161,691,-310,4057,34,17,820
1318757,6196936,6769328,6336951,6894007,3800,3800,-147,-965,-137,660,-238,4201,26,32,820
1319758,6197076,6769428,6337148,6894204,3800,3800,-94,-997,-118,659,-84,4258,26,32,820
1320759,6197260,6769532,6337345,6894401,3800,3800,-25,-1017,-100,645,81,4347,46,37,821
1321760,6197444,6769684,6337542,6894598,3800,3800,53,-971,-82,593,217,4501,46,37,821
1322761,6197588,6769788,6337739,6894795,3800,3800,138,-894,-66,493,375,4480,40,19,819
1323762,6197800,6769896,6337936,6894992,3800,3800,229,-790,-55,379,478,4574,40,19,819
1324763,6197980,6770012,6338133,6895189,3800,3800,319,-652,-49,243,504,4684,37,17,819
1325764,6198148,6770096,6338330,6895386,3800,3800,419,-544,-31,211,528,4611,37,17,819
1326765,6198324,6770192,6338527,6895583,3800,3800,515,-456,6,246,621,4611,46,18,820
1327766,6198528,6770288,6338724,6895780,3800,3800,621,-404,45,198,667,4382,46,18,820
1328767,6198712,6770388,6338921,6895977,3800,3800,717,-365,78,154,645,4360,50,17,821
1329768,6198896,6770484,6339118,6896174,3800,3800,817,-309,115,94,660,4202,50,17,821
1330769,6199124,6770596,6339315,6896371,3800,3800,919,-334,151,78,682,4020,52,34,821
1331770,6199320,6770704,6339512,6896568,3800,3800,1016,-370,185,75,701,3971,52,34,821
1332771,6199508,6770848,6339709,6896765,3800,3800,1092,-441,215,64,805,3910,53,41,821
1333772,6199712,6771004,6339906,6896962,3800,3800,1155,-487,237,79,878,3907,53,41,821
1334773,6199912,6771148,6340103,6897159,3800,3800,1199,-541,250,77,884,3937,34,23,821
1335774,6200096,6771296,6340300,6897356,3800,3800,1214,-525,253,80,872,3977,34,23,821
1336775,6200332,6771432,6340497,6897553,3800,3800,1215,-542,253,122,929,3851,39,22,821
1337776,6200564,6771556,6340694,6897750,3800,3800,1190,-566,244,163,885,3864,39,22,821
1338784,6200768,6771700,6340924,6897980,3800,3800,1142,-610,247,312,907,3856,34,25,822
1339778,6201012,6771840,6341121,6898177,3800,3800,1081,-681,261,488,986,3702,34,25,822
1340779,6201248,6771968,6341318,6898374,3800,3800,1016,-780,273,666,987,3678,55,41,821
1341780,6201496,6772084,6341515,6898571,3800,3800,940,-843,288,798,933,3658,55,41,821
1342781,6201776,6772260,6341712,6898768,3800,3800,855,-895,319,898,874,3602,65,49,823
1343782,6202076,6772468,6341909,6898965,3800,3800,765,-950,348,961,830,3598,65,49,823
1344783,6202348,6772644,6342106,6899162,3800,3800,676,-1023,366,942,786,3577,46,35,821
1345784,6202620,6772796,6342303,6899359,3800,3800,604,-1113,373,885,777,3501,46,35,821
1346785,6202960,6772956,6342500,6899556,3800,3800,553,-1216,383,847,647,3427,60,35,821
1347786,6203292,6773104,6342697,6899753,3800,3800,492,-1226,414,659,151,3851,60,35,821
1348787,6203632,6773292,6342894,6899950,3800,3800,405,-1040,484,405,-260,4205,73,35,823
1349788,6204044,6773452,6343091,6900147,3800,3800,333,-864,571,212,-197,4146,73,35,823
1350789,6204424,6773612,6343288,6900344,3800,3800,288,-796,668,157,-68,4040,87,40,824
1351790,6204868,6773852,6343485,6900541,3800,3800,239,-618,773,84,-134,4500,87,40,824
1352791,6205344,6774052,6343682,6900738,3800,3800,209,-434,872,-223,225,4163,97,35,825
1353792,6205816,6774244,6343879,6900935,3800,3800,222,-366,961,-249,618,4018,97,35,825
1354793,6206328,6774444,6344076,6901132,3800,3800,243,-228,1048,-133,767,4151,88,40,824
1355794,6206860,6774620,6344273,6901329,3800,3800,269,-173,1157,-369,771,3971,88,40,824
1356795,6207424,6774780,6344470,6901526,3800,3800,311,-92,1281,-614,425,4101,92,34,824
1357796,6207952,6774952,6344667,6901723,3800,3800,322,-66,1436,-710,87,4125,92,34,824
1358797,6208568,6775160,6344864,6901920,3800,3800,389,-36,1607,-727,17,4019,119,43,826
1359798,6209128,6775432,6345061,6902117,3800,3800,423,-46,1783,-865,-89,4102,119,43,826
1360799,6209732,6775680,6345258,6902314,3800,3800,521,-105,1938,-1131,-216,3753,134,48,827
1361800,6210364,6775908,6345455,6902511,3800,3800,589,-226,2081,-1447,-342,3835,134,48,827
1362801,6210924,6776132,6345652,6902708,3800,3800,698,-270,2215,-1660,-431,4006,125,49,827
1363802,6211444,6776348,6345849,6902905,3800,3800,768,-421,2354,-1870,-414,3837,125,49,827
1364803,6212012,6776584,6346046,6903102,3800,3800,877,-579,2519,-1853,-393,3887,129,65,826
1365804,6212508,6776908,6346243,6903299,3800,3800,965,-762,2670,-1822,-394,3854,129,65,826
1366805,6212976,6777200,6346440,6903496,3800,3800,1061,-843,2848,-1565,-473,4186,100,62,825
1367806,6213448,6777488,6346637,6903693,3800,3800,1136,-952,3005,-1206,-238,3825,100,62,825
1368807,6213952,6777748,6346834,6903890,3800,3800,1227,-1235,3113,-916,-338,3530,89,58,825
1369808,6214396,6778040,6347031,6904087,3800,3800,1273,-1242,3202,-653,-371,4233,89,58,825
1370809,6214828,6778456,6347228,6904284,3800,3800,1280,-1540,3227,-429,208,3508,95,74,827
1371810,6215288,6778816,6347425,6904481,3800,3800,1213,-1550,3231,-279,54,4534,95,74,827
1372811,6215688,6779148,6347622,6904678,3800,3800,1124,-1392,3307,-291,436,4485,93,68,826
1373812,6216140,6779588,6347819,6904875,3800,3800,1004,-1478,3341,-244,905,3932,93,68,826
1374813,6216580,6780032,6348016,6905072,3800,3800,850,-996,3346,35,1460,5247,85,80,826
1375814,6216988,6780472,6348213,6905269,3800,3800,692,-911,3391,278,1999,3884,85,80,826
1376815,6217448,6780964,6348410,6905466,3800,3800,479,-668,3381,881,1641,5240,84,98,827
1377816,6217932,6781468,6348607,6905663,3800,3800,182,230,3412,810,1697,6377,84,98,827
1378817,6218412,6781924,6348804,6905860,3800,3800,-75,609,3536,813,1527,4585,110,115,827
1379818,6218920,6782560,6349001,6906057,3800,3800,-322,1136,3655,1122,228,5028,110,115,827
