"Data file recorded 2014/9/24  13:29:53"
"%  Right Stride Frequency         = 3.0"
"%  Left Stride Frequency         = 3.0"
"%  Phase (Fractional)         = 32768.0"
"%  Experiment.py "
"%  Motor Gains    = [1800, 200, 100, 0, 0, 1800, 200, 100, 0, 0]
"% Columns: "
"% time | Right Leg Pos | Left Leg Pos | Commanded Right Leg Pos | Commanded Left Leg Pos | DCR | DCL | GyroX | GryoY | GryoZ | AX | AY | AZ | RBEMF | LBEMF | VBatt "
11404,10830448,12114224,10833553,12111505,2126,-533,-379,-556,361,74,-532,4042,4,-8,855
12405,10830448,12114216,10833750,12111702,2138,-369,-378,-556,362,56,-522,4056,-11,-3,854
13406,10830480,12114224,10833947,12111899,2011,-387,-377,-559,362,54,-536,4078,-11,-3,854
14407,10830512,12114228,10834144,12112096,2084,-277,-379,-537,361,71,-527,4059,-2,0,855
15408,10830564,12114220,10834341,12112293,2023,-112,-381,-553,369,109,-557,4062,-2,0,855
16409,10830616,12114224,10834538,12112490,2088,-104,-383,-561,376,110,-527,4056,-4,9,846
17410,10830656,12114224,10834735,12112687,2233,8,-385,-505,383,151,-538,4085,-4,9,846
18411,10830728,12114220,10834932,12112884,2088,121,-390,-511,390,181,-454,4108,6,8,847
19412,10830812,12114216,10835129,12113081,2064,209,-392,-498,390,183,-427,4116,6,8,847
20413,10830892,12114220,10835326,12113278,2141,244,-391,-470,378,181,-415,4081,20,6,847
21414,10830984,12114220,10835523,12113475,2113,355,-388,-447,358,189,-329,4073,20,6,847
22415,10831084,12114220,10835720,12113672,2107,442,-390,-440,335,201,-296,4132,14,-6,846
23416,10831188,12114228,10835917,12113869,2124,475,-395,-363,319,228,-350,4185,14,-6,846
24416,10831332,12114220,10836114,12114066,1897,665,-399,-303,303,227,-384,4175,11,0,846
25418,10831436,12114220,10836311,12114263,2189,701,-399,-229,277,249,-346,4149,11,0,846
26418,10831536,12114216,10836508,12114460,2257,815,-401,-190,248,268,-272,4170,21,-4,846
27420,10831644,12114232,10836705,12114657,2248,769,-410,-129,213,235,-172,4137,21,-4,846
28420,10831752,12114232,10836902,12114854,2288,956,-418,-81,174,233,-106,4071,27,12,844
29422,10831880,12114240,10837099,12115051,2194,989,-423,-52,140,250,-228,4077,27,12,844
30423,10832004,12114240,10837296,12115248,2252,1125,-416,-50,127,235,-323,4183,29,15,844
31424,10832140,12114236,10837493,12115445,2205,1239,-390,21,131,246,-134,4293,29,15,844
32425,10832280,12114248,10837690,12115642,2206,1220,-352,64,127,219,173,4323,26,14,844
33426,10832388,12114244,10837887,12115839,2446,1409,-272,201,119,313,216,5047,26,14,844
34427,10832508,12114244,10838084,12116036,2406,1471,-34,651,113,474,391,8038,38,13,843
35460,10832632,12114256,10849740,12127692,3800,3800,195,982,84,320,532,5614,38,13,843
36454,10832736,12114284,10849937,12127889,3800,3800,208,890,33,219,546,3616,23,19,843
37455,10832900,12114488,10850134,12128086,3800,3800,104,562,3,177,452,3364,23,19,843
38456,10833064,12114784,10850331,12128283,3800,3800,-12,206,-16,241,194,3391,35,11,840
39457,10833264,12115096,10850528,12128480,3800,3800,-81,-23,-43,84,193,3688,35,11,840
40458,10833492,12115520,10850725,12128677,3800,3800,-21,134,-45,110,-646,5776,40,46,820
41447,10833732,12116032,10850922,12128874,3800,3687,210,671,-34,438,-841,8237,40,46,820
42460,10833984,12116480,10851119,12129071,3800,3800,346,952,-78,198,115,4697,53,74,823
43448,10834292,12117032,10851316,12129268,3800,3176,264,891,-158,42,515,3884,53,74,823
44449,10834596,12117688,10851513,12129465,3800,2326,134,639,-234,195,588,3570,52,93,823
45451,10834884,12118256,10851710,12129662,3800,2715,239,572,-323,631,1160,5838,52,93,823
46452,10835216,12118808,10851907,12129859,3800,2661,653,965,-441,1047,1518,8895,76,116,826
47452,10835516,12119372,10852104,12130056,3800,2427,1034,1011,-532,911,1333,4590,76,116,826
48453,10835828,12119908,10852301,12130253,3800,2455,1294,842,-577,1064,1487,4950,60,118,829
49454,10836180,12120408,10852498,12130450,3800,2548,1496,549,-580,996,1864,4491,60,118,829
50455,10836476,12120756,10852695,12130647,3800,3434,1669,151,-589,1011,2627,3449,81,117,829
51456,10836788,12121120,10852892,12130844,3800,3263,1906,-155,-612,1154,3184,4478,81,117,829
52457,10837096,12121468,10853089,12131041,3800,3298,2179,-233,-629,1214,3340,4996,80,90,832
53459,10837356,12121780,10853286,12131238,3800,3475,2393,-236,-613,747,3061,4394,80,90,832
54459,10837632,12122076,10853483,12131435,3800,3533,2546,-265,-544,430,2653,4149,77,77,830
55461,10837988,12122344,10853680,12131632,3800,3679,2675,-154,-435,335,2234,4555,77,77,830
56474,10838332,12122568,10853877,12131829,3800,3800,2824,14,-325,491,2737,4447,71,71,827
57475,10838680,12122744,10854074,12132026,3800,3800,2947,166,-296,631,3543,4606,71,71,827
58476,10839040,12122916,10854271,12132223,3800,3800,2955,457,-465,804,4425,5392,58,62,825
59477,10839476,12123024,10854468,12132420,3800,3800,2789,1075,-738,681,4457,6378,58,62,825
60478,10839904,12123156,10854665,12132617,3800,3800,2498,1988,-1086,86,4378,6777,70,46,823
61480,10840316,12123244,10854862,12132814,3800,3800,2142,2887,-1482,-318,3893,6450,70,46,823
62481,10840764,12123340,10855059,12133011,3800,3800,1736,3510,-1867,-381,3149,5778,94,25,822
63481,10841248,12123408,10855256,12133208,3800,3800,1343,3816,-2172,-31,1896,4770,94,25,822
64482,10841708,12123476,10855453,12133405,3800,3800,987,3621,-2405,63,1061,3323,100,27,823
65483,10842248,12123532,10855650,12133602,3800,3800,655,3081,-2633,-51,696,2374,100,27,823
66484,10842720,12123552,10855847,12133799,3800,3800,313,2220,-2903,44,723,1498,91,32,823
67473,10843256,12123564,10856044,12133996,3617,3800,-73,1235,-3228,355,1613,1112,91,32,823
68473,10843804,12123592,10856241,12134193,3391,3800,-476,319,-3509,541,2072,1225,110,18,823
69474,10844328,12123640,10856438,12134390,3399,3800,-859,-734,-3696,624,1896,601,110,18,823
70475,10844844,12123688,10856635,12134587,3312,3800,-1205,-1903,-3787,786,1038,552,108,20,822
71476,10845400,12123756,10856832,12134784,2906,3800,-1516,-2958,-3754,888,450,994,108,20,822
72477,10845916,12123840,10857029,12134981,3018,3800,-1735,-3864,-3605,1093,-452,1583,111,17,823
73478,10846384,12123928,10857226,12135178,3201,3800,-1414,-3922,-3334,915,-1433,8735,111,17,823
74479,10846896,12124032,10857423,12135375,2790,3800,262,-1775,-2878,-518,-2063,27661,109,29,825
75480,10847392,12124140,10857620,12135572,2760,3800,1704,-653,-2640,425,-15,9319,109,29,825
76481,10847820,12124260,10857817,12135769,3086,3800,1974,-1394,-2625,1209,1048,1418,113,31,827
77482,10848272,12124396,10858014,12135966,2826,3800,1631,-3010,-2610,1549,1616,1217,113,31,827
78484,10848716,12124560,10858211,12136163,2769,3800,1328,-4226,-2580,1786,2227,1600,91,37,826
79484,10849152,12124740,10858408,12136360,2716,3800,1238,-5109,-2562,1336,2876,1701,91,37,826
80485,10849584,12124948,10858605,12136557,2639,3800,1231,-5729,-2548,1154,2589,2230,99,30,827
81486,10850004,12125164,10858802,12136754,2618,3800,1136,-6106,-2555,998,2547,3129,99,30,827
82487,10850440,12125424,10858999,12136951,2415,3800,1015,-6330,-2549,532,2678,3500,75,40,827
83488,10850884,12125660,10859196,12137148,2257,3800,900,-6369,-2500,567,2565,3997,75,40,827
84489,10851320,12125908,10859393,12137345,2204,3800,785,-6275,-2405,385,2688,4435,92,48,827
85490,10851728,12126176,10859590,12137542,2288,3800,679,-5969,-2238,168,2632,5107,92,48,827
86491,10852108,12126448,10859787,12137739,2384,3800,566,-5512,-2064,137,2429,5370,71,52,829
87493,10852580,12126768,10859984,12137936,1690,3800,483,-5150,-1906,-10,2239,5154,71,52,829
88493,10852984,12127096,10860181,12138133,2025,3800,417,-4643,-1702,78,1923,5467,92,57,831
89494,10853368,12127444,10860378,12138330,2069,3800,379,-4255,-1459,198,2199,4885,92,57,831
90483,10853780,12127820,10860575,12138527,1802,3699,348,-4002,-1184,276,2570,4556,96,63,830
91483,10854148,12128176,10860772,12138724,2002,3756,311,-3755,-896,313,2712,4329,96,63,830
92484,10854512,12128552,10860969,12138921,1955,3554,278,-3629,-595,195,2447,3713,71,64,833
93486,10854956,12128932,10861166,12139118,1348,3451,239,-3562,-289,-51,1891,3653,71,64,833
94487,10855332,12129324,10861363,12139315,1696,3292,227,-3587,4,-310,1320,3281,68,85,831
95488,10855676,12129712,10861560,12139512,1832,3235,246,-3659,269,-431,442,3055,68,85,831
96489,10856044,12130132,10861757,12139709,1608,2939,267,-3694,524,-673,-142,3145,91,77,833
97490,10856384,12130544,10861954,12139906,1721,2896,258,-3792,759,-1030,-495,2939,91,77,833
98491,10856716,12130988,10862151,12140103,1713,2589,204,-3776,954,-1165,-924,3232,70,89,837
99492,10857080,12131384,10862348,12140300,1441,2804,119,-3699,1132,-1597,-1315,3440,70,89,837
100493,10857380,12131816,10862545,12140497,1796,2477,4,-3539,1329,-2036,-2017,3659,65,91,836
101494,10857692,12132200,10862742,12140694,1672,2696,-144,-3391,1527,-2433,-2503,3435,65,91,836
102495,10858024,12132596,10862939,12140891,1488,2536,-304,-3372,1746,-2600,-2950,3227,72,91,839
103496,10858312,12133052,10863136,12141088,1724,2048,-449,-3455,1999,-2415,-3163,2974,72,91,839
104497,10858588,12133440,10863333,12141285,1766,2391,-588,-3627,2251,-2288,-3080,2746,57,76,839
105498,10858844,12133796,10863530,12141482,1866,2522,-720,-3811,2486,-2308,-3181,2891,57,76,839
106499,10859152,12134140,10863727,12141679,1493,2535,-818,-4026,2734,-2178,-3389,2574,51,92,838
107500,10859424,12134480,10863924,12141876,1686,2498,-883,-4262,3004,-2255,-3582,2764,51,92,838
108500,10859660,12134804,10864121,12142073,1894,2544,-958,-4394,3272,-2398,-3776,3236,62,67,842
109502,10859916,12135136,10864318,12142270,1744,2436,-1048,-4553,3514,-2271,-3741,3027,62,67,842
110503,10860120,12135416,10864515,12142467,2067,2726,-1131,-4724,3764,-1998,-3608,2967,49,69,839
111504,10860324,12135696,10864712,12142664,2065,2691,-1240,-4864,4040,-1661,-3612,3311,49,69,839
112505,10860548,12135940,10864909,12142861,1929,2896,-1370,-4949,4319,-1346,-3632,3613,40,70,840
113505,10860740,12136152,10865106,12143058,2132,3091,-1467,-5093,4572,-1026,-3331,3228,40,70,840
114506,10860916,12136388,10865303,12143255,2241,2925,-1495,-5289,4821,-681,-3060,3365,50,58,840
115507,10861092,12136544,10865500,12143452,2252,3444,-1579,-5273,5130,-393,-3371,4500,50,58,840
116508,10861260,12136724,10865697,12143649,2315,3303,-1731,-5037,5499,-151,-3475,4933,31,43,836
117510,10861404,12136904,10865894,12143846,2490,3312,-1862,-4808,5837,120,-3111,4679,31,43,836
118517,10861556,12137088,10866124,12144076,2475,3308,-1954,-4624,6080,528,-2789,4957,30,36,834
119512,10861688,12137292,10866321,12144273,2629,3181,-2025,-4393,6271,844,-2892,5250,30,36,834
120512,10861868,12137468,10866518,12144470,2338,3368,-2081,-4187,6446,1109,-3030,5163,46,46,831
121514,10862036,12137624,10866715,12144667,2426,3512,-2121,-3892,6553,1293,-2874,5445,46,46,831
122514,10862188,12137780,10866912,12144864,2546,3531,-2191,-3411,6624,1261,-3040,6245,45,42,831
123516,10862312,12137948,10867109,12145061,2755,3470,-2226,-2923,6704,1346,-3117,6015,45,42,831
124516,10862448,12138128,10867306,12145258,2707,3404,-2160,-2640,6732,1617,-2991,5497,24,37,831
125517,10862572,12138324,10867503,12145455,2815,3305,-2033,-2392,6667,1696,-2617,5594,24,37,831
126518,10862680,12138488,10867700,12145652,2956,3522,-1855,-2276,6530,2016,-2218,4949,41,37,828
127520,10862820,12138648,10867897,12145849,2782,3564,-1636,-2355,6288,2707,-1830,4303,41,37,828
128521,10862976,12138812,10868094,12146046,2701,3556,-1378,-2479,5991,2890,-1726,4653,37,41,827
129522,10863116,12138980,10868291,12146243,2827,3544,-1117,-2384,5707,2798,-2076,5177,37,41,827
130523,10863276,12139128,10868488,12146440,2719,3692,-836,-2203,5435,2407,-2519,5028,30,42,829
131524,10863436,12139264,10868685,12146637,2736,3796,-504,-2022,5144,1936,-2629,5147,30,42,829
132538,10863592,12139396,10868882,12146834,2780,3800,-120,-1807,4747,1828,-1710,5026,28,44,828
133539,10863756,12139532,10869079,12147031,2746,3800,293,-1754,4200,1853,-566,4319,28,44,828
134527,10863920,12139700,10869276,12147228,2761,3668,646,-1656,3589,1978,-80,4722,26,28,827
135528,10864068,12139860,10869473,12147425,2884,3735,888,-1363,2939,2041,825,5346,26,28,827
136529,10864240,12140040,10869670,12147622,2746,3619,1107,-1034,2278,2056,1596,4899,46,33,826
137543,10864424,12140164,10869867,12147819,2677,3800,1433,-735,1679,1772,1975,4573,46,33,826
138543,10864584,12140316,10870064,12148016,2845,3800,1836,-595,1104,1296,1961,4440,38,27,825
139545,10864744,12140472,10870261,12148213,2862,3800,2165,-197,663,1280,973,5564,38,27,825
140545,10864944,12140620,10870458,12148410,2612,3800,2342,391,295,1332,842,5561,36,23,825
141534,10865112,12140824,10870655,12148607,2825,3565,2472,785,-72,1421,720,4381,36,23,825
142535,10865312,12141028,10870852,12148804,2625,3564,2634,933,-470,1557,1270,3575,41,34,824
143536,10865528,12141248,10871049,12149001,2518,3455,2778,949,-819,1506,851,3384,41,34,824
144537,10865740,12141472,10871246,12149198,2537,3420,2808,1048,-1011,1498,-27,3810,46,45,826
145538,10865976,12141676,10871443,12149395,2371,3543,2768,1210,-1072,1124,-328,3576,46,45,826
146539,10866220,12141868,10871640,12149592,2301,3622,2729,1299,-1123,744,-424,3144,37,53,827
147540,10866444,12142060,10871837,12149789,2415,3625,2698,1272,-1183,571,-740,2879,37,53,827
148541,10866644,12142248,10872034,12149986,2565,3656,2688,1095,-1213,650,-651,2234,60,37,829
149542,10866888,12142444,10872231,12150183,2271,3607,2691,882,-1190,1020,-783,2086,60,37,829
150543,10867128,12142620,10872428,12150380,2279,3743,2677,666,-1129,1163,-919,1974,45,35,829
151544,10867356,12142796,10872625,12150577,2341,3754,2659,509,-1048,867,-1082,2017,45,35,829
152545,10867596,12142996,10872822,12150774,2248,3604,2627,441,-968,263,-1122,2293,58,34,829
153559,10867812,12143160,10873019,12150971,2391,3800,2575,413,-900,-68,-871,2431,58,34,829
154547,10868032,12143336,10873216,12151168,2357,3780,2497,441,-874,171,-422,2431,42,32,830
155548,10868308,12143512,10873413,12151365,1973,3792,2422,456,-889,576,194,2059,42,32,830
156549,10868532,12143736,10873610,12151562,2286,3481,2377,399,-919,874,626,1949,46,36,829
157550,10868744,12143984,10873807,12151759,2355,3310,2338,436,-937,260,206,2409,46,36,829
158551,10868948,12144204,10874004,12151956,2403,3476,2257,630,-891,-580,-381,3091,51,46,828
159552,10869188,12144400,10874201,12152153,2160,3629,2167,890,-876,-751,2,2848,51,46,828
160553,10869416,12144584,10874398,12152350,2223,3710,2101,1071,-937,-282,534,2363,44,47,829
161554,10869644,12144784,10874595,12152547,2210,3611,2035,1150,-1058,276,824,2087,44,47,829
162555,10869904,12145048,10874792,12152744,1984,3183,1943,1197,-1151,306,663,2279,37,44,831
163556,10870148,12145324,10874989,12152941,2064,3075,1797,1415,-1198,-511,310,2803,37,44,831
164557,10870360,12145576,10875186,12153138,2258,3202,1630,1742,-1204,-935,173,2905,51,45,830
165558,10870596,12145840,10875383,12153335,2092,3099,1506,1875,-1191,-276,743,2188,51,45,830
166559,10870860,12146044,10875580,12153532,1889,3472,1406,1850,-1169,531,1087,1785,57,52,831
167560,10871132,12146344,10875777,12153729,1807,2828,1322,1620,-1139,897,1162,1071,57,52,831
168561,10871404,12146684,10875974,12153926,1775,2517,1225,1316,-1090,752,865,982,61,59,834
169562,10871640,12147008,10876171,12154123,1984,2562,1063,1071,-991,7,523,1373,61,59,834
170563,10871864,12147316,10876368,12154320,2047,2615,844,989,-855,-303,449,1632,63,51,833
171564,10872136,12147636,10876565,12154517,1715,2487,607,922,-702,238,771,1438,63,51,833
172565,10872372,12148000,10876762,12154714,1924,2140,424,663,-542,748,1295,926,38,55,836
173566,10872632,12148372,10876959,12154911,1747,2015,250,415,-404,763,1344,1076,38,55,836
174567,10872932,12148740,10877156,12155108,1453,1966,-15,384,-228,59,630,2066,42,71,838
175568,10873168,12149080,10877353,12155305,1837,2079,-366,518,22,-584,411,2518,42,71,838
176569,10873464,12149484,10877550,12155502,1418,1589,-720,596,259,-244,1184,2008,48,63,839
177570,10873756,12149872,10877747,12155699,1402,1606,-993,400,402,437,1976,1357,48,63,839
178571,10874008,12150232,10877944,12155896,1629,1711,-1226,251,512,633,1718,1966,53,82,842
179572,10874300,12150644,10878141,12156093,1338,1293,-1523,540,698,-127,771,3419,53,82,842
180573,10874616,12151044,10878338,12156290,1136,1280,-1881,1175,971,-1097,468,4227,59,85,841
181574,10874952,12151456,10878535,12156487,951,1111,-2221,1873,1115,-1056,1804,4318,59,85,841
182575,10875252,12151800,10878732,12156684,1132,1473,-2527,2483,1115,142,2440,3979,49,84,844
183576,10875468,12152196,10878929,12156881,1648,1060,-2804,2812,1104,1215,2642,3431,49,84,844
184577,10875796,12152612,10879126,12157078,892,840,-3063,2994,1144,1277,2223,3168,71,78,846
185578,10876152,12152916,10879323,12157275,648,1494,-3240,3070,1174,575,2030,2686,71,78,846
186579,10876520,12153212,10879520,12157472,498,1502,-3351,2978,1161,255,1593,2367,63,74,847
187580,10876804,12153444,10879717,12157669,986,1887,-3400,2802,1136,533,1081,2015,63,74,847
188581,10877064,12153748,10879914,12157866,1108,1391,-3404,2554,1142,1013,795,1734,75,69,846
189582,10877464,12154044,10880111,12158063,145,1398,-3378,2275,1191,1051,381,1922,75,69,846
190583,10877796,12154320,10880308,12158260,511,1489,-3312,2069,1275,706,-235,2165,60,56,847
191584,10878100,12154528,10880505,12158457,639,1910,-3213,1996,1304,429,-538,2432,60,56,847
192585,10878372,12154772,10880702,12158654,806,1665,-3057,1937,1228,344,-520,2380,74,53,845
193586,10878700,12155020,10880899,12158851,400,1618,-2868,1915,1058,313,-350,2587,74,53,845
194587,10878984,12155308,10881096,12159048,637,1329,-2695,2041,876,419,-798,3077,51,42,847
195588,10879244,12155620,10881293,12159245,760,1130,-2585,2388,719,326,-1185,3834,51,42,847
196589,10879512,12155856,10881490,12159442,679,1588,-2518,3000,515,-46,-1022,4497,72,48,846
197590,10879772,12156140,10881687,12159639,701,1250,-2442,3678,189,-664,-395,4545,72,48,846
198591,10880040,12156432,10881884,12159836,621,1159,-2384,4291,-226,-927,-358,4614,58,54,847
199592,10880308,12156712,10882081,12160033,590,1199,-2423,4972,-639,-806,-878,4853,58,54,847
200593,10880520,12156956,10882278,12160230,934,1403,-2544,5684,-1041,-878,-599,4752,43,59,849
201601,10880708,12157200,10882508,12160460,1103,1398,-2670,6211,-1489,-1141,-611,4057,43,59,849
202595,10880964,12157392,10882705,12160657,652,1725,-2759,6373,-1977,-1383,-621,3332,43,38,848
203596,10881208,12157544,10882902,12160854,707,1996,-2851,6419,-2434,-1527,-840,3225,43,38,848
204596,10881420,12157760,10883099,12161051,900,1589,-2981,6439,-2816,-1589,-1120,3107,41,32,848
205598,10881700,12157964,10883296,12161248,439,1661,-3115,6297,-3109,-1770,-1479,2445,41,32,848
206599,10881892,12158164,10883493,12161445,991,1685,-3193,5830,-3351,-1823,-1553,1513,46,37,847
207600,10882108,12158328,10883690,12161642,834,1926,-3203,5099,-3537,-1812,-1735,996,46,37,847
208601,10882340,12158456,10883887,12161839,718,2181,-3236,4287,-3636,-1816,-2169,1116,55,41,845
209602,10882568,12158608,10884084,12162036,730,2052,-3313,3388,-3681,-1887,-2216,694,55,41,845
210603,10882820,12158736,10884281,12162233,557,2232,-3396,2395,-3694,-1944,-2176,644,53,27,847
211604,10883040,12158852,10884478,12162430,746,2344,-3463,1431,-3666,-2154,-2453,910,53,27,847
212605,10883324,12158992,10884675,12162627,308,2220,-3565,525,-3545,-2336,-2912,1363,54,20,845
213606,10883640,12159112,10884872,12162824,56,2380,-3795,-168,-3326,-2534,-3285,2194,54,20,845
214607,10883920,12159220,10885069,12163021,245,2494,-4108,-687,-3091,-2711,-3090,2628,43,22,844
215608,10884220,12159336,10885266,12163218,75,2480,-4477,-1087,-2863,-2774,-3383,3247,43,22,844
216609,10884504,12159448,10885463,12163415,137,2544,-4860,-1407,-2651,-2986,-3391,3431,63,18,842
217610,10884736,12159548,10885660,12163612,447,2661,-5117,-1917,-2461,-3082,-2988,3096,63,18,842
218611,10885012,12159656,10885857,12163809,137,2652,-5218,-2550,-2291,-2755,-2295,3163,45,17,843
219612,10885300,12159760,10886054,12164006,23,2718,-5211,-3113,-2131,-2446,-1716,3657,45,17,843
220613,10885528,12159856,10886251,12164203,384,2814,-5166,-3515,-1981,-2205,-1480,4211,58,16,843
221614,10885796,12159952,10886448,12164400,103,2859,-5091,-3895,-1880,-1928,-1193,4245,58,16,843
222615,10886036,12160056,10886645,12164597,259,2851,-4984,-4231,-1792,-1697,-1383,4546,46,15,842
223616,10886276,12160180,10886842,12164794,240,2758,-4863,-4506,-1683,-1597,-1767,4813,46,15,842
224617,10886512,12160260,10887039,12164991,248,3086,-4704,-4847,-1568,-1466,-2215,4647,41,16,842
225618,10886800,12160364,10887236,12165188,-117,2977,-4087,-5180,-1495,-268,-2974,8366,41,16,842
226619,10886976,12160508,10887433,12165385,592,2752,-1773,-4871,-1638,3195,-4846,26659,40,24,838
227620,10887236,12160664,10887630,12165582,41,2696,950,-4028,-1804,2835,-5342,24183,40,24,838
228621,10887440,12160784,10887827,12165779,388,2956,1637,-3416,-1709,741,-4001,9154,34,28,841
229622,10887628,12160960,10888024,12165976,492,2616,931,-3683,-1436,700,-3848,4257,34,28,841
230623,10887856,12161088,10888221,12166173,228,2947,129,-4550,-1192,1189,-3953,3107,33,25,841
231624,10888056,12161252,10888418,12166370,402,2738,-543,-5230,-920,1607,-4477,3821,33,25,841
232625,10888244,12161416,10888615,12166567,481,2753,-1087,-5843,-673,2209,-4268,2890,30,20,842
233626,10888388,12161596,10888812,12166764,779,2662,-1574,-6511,-501,3180,-3322,2648,30,20,842
234627,10888600,12161792,10889009,12166961,347,2563,-1999,-7320,-334,3889,-2516,2161,49,37,842
235628,10888756,12161976,10889206,12167158,715,2645,-2408,-8029,-180,4498,-1787,2504,49,37,842
236628,10888920,12162144,10889403,12167355,680,2758,-2786,-8561,36,4912,-2080,3678,42,29,841
237630,10889080,12162276,10889600,12167552,721,3013,-1819,-6414,190,8354,-2470,26935,42,29,841
238631,10889264,12162428,10889797,12167749,577,2909,-192,-3244,274,7802,-2819,23029,28,26,839
239632,10889392,12162580,10889994,12167946,957,2930,282,-2690,437,4500,-1889,2555,28,26,839
240633,10889512,12162720,10890191,12168143,1042,3031,-5,-3996,582,3996,-1466,1278,41,27,841
241634,10889664,12162844,10890388,12168340,862,3164,-288,-5569,660,4071,-1723,970,41,27,841
242635,10889788,12162952,10890585,12168537,1069,3304,-301,-6274,781,4007,-2367,2749,20,29,839
243636,10889964,12163088,10890782,12168734,753,3157,-125,-6279,928,3448,-2444,3508,20,29,839
244637,10890112,12163188,10890979,12168931,950,3425,129,-5933,996,2859,-2802,4086,36,34,839
245638,10890248,12163276,10891176,12169128,1051,3549,428,-5562,957,1901,-2835,4320,36,34,839
246639,10890396,12163372,10891373,12169325,999,3545,730,-5002,864,1039,-3123,5160,33,31,837
247640,10890544,12163456,10891570,12169522,1020,3670,974,-4107,752,378,-3284,5976,33,31,837
248640,10890692,12163556,10891767,12169719,1042,3614,1152,-3046,643,-450,-3008,6392,29,27,836
249642,10890832,12163644,10891964,12169916,1117,3739,1307,-1818,488,-961,-2751,6764,29,27,836
250643,10890940,12163756,10892161,12170113,1356,3627,1478,-625,273,-1309,-2598,6262,37,25,834
251644,10891108,12163868,10892358,12170310,995,3665,1679,447,69,-1710,-2528,6092,37,25,834
252644,10891276,12164008,10892555,12170507,1008,3517,1874,1438,-73,-1765,-2845,5837,30,21,833
253646,10891436,12164196,10892752,12170704,1074,3222,2069,2230,-105,-1539,-3679,5137,30,21,833
254647,10891616,12164448,10892949,12170901,956,2799,2292,2786,-43,-1217,-3291,4183,33,23,832
255648,10891788,12164808,10893146,12171098,1018,2054,2533,2942,34,-782,-1974,2885,33,23,832
256649,10891964,12165152,10893343,12171295,1003,2090,2749,2644,126,-71,-1211,1631,43,49,834
257649,10892140,12165452,10893540,12171492,1012,2321,2938,2087,291,695,-741,849,43,49,834
258651,10892336,12165660,10893737,12171689,887,2893,3105,1355,548,1384,-429,198,29,52,837
259652,10892484,12165876,10893934,12171886,1210,2836,3268,488,872,1938,-358,-185,29,52,837
260653,10892644,12166160,10894131,12172083,1151,2373,3417,-386,1243,2241,-321,-152,36,46,843
261654,10892788,12166476,10894328,12172280,1274,2122,3497,-1064,1610,2517,-244,595,36,46,843
262655,10892944,12166756,10894525,12172477,1217,2312,3497,-1494,1898,2873,280,981,39,61,843
263656,10893100,12167056,10894722,12172674,1236,2142,3366,-1690,2139,2954,205,1773,39,61,843
264657,10893240,12167368,10894919,12172871,1361,2018,3085,-1646,2367,2989,168,2434,28,66,838
265658,10893380,12167700,10895116,12173068,1386,1834,2802,-1615,2506,2955,987,2448,28,66,838
266659,10893512,12167996,10895313,12173265,1466,2017,2532,-1444,2549,3016,1430,3122,22,61,843
267660,10893692,12168260,10895510,12173462,1173,2189,2216,-1122,2522,3023,1579,3627,22,61,843
268661,10893836,12168528,10895707,12173659,1422,2133,1841,-645,2462,2990,1704,4143,37,54,842
269662,10893940,12168788,10895904,12173856,1714,2157,1457,-28,2378,3018,1720,4480,37,54,842
270663,10894060,12169032,10896101,12174053,1647,2237,1105,574,2267,3106,1698,4425,35,62,843
271664,10894164,12169304,10896298,12174250,1788,2030,798,1024,2117,3111,1916,4224,35,62,843
272665,10894280,12169536,10896495,12174447,1750,2266,546,1351,1953,3164,1686,3944,22,53,843
273666,10894376,12169760,10896692,12174644,1919,2305,357,1571,1828,3344,847,3506,22,53,843
274667,10894504,12169960,10896889,12174841,1751,2454,224,1624,1708,3424,1002,2889,17,43,841
275668,10894588,12170176,10897086,12175038,2075,2347,150,1544,1552,3247,1946,2593,17,43,841
276669,10894700,12170372,10897283,12175235,1939,2474,114,1343,1388,3038,2325,2412,25,49,841
277670,10894804,12170556,10897480,12175432,2029,2555,45,1111,1242,2887,2045,2351,25,49,841
278671,10894896,12170728,10897677,12175629,2152,2642,8,835,1123,2527,1804,2019,16,31,839
279672,10894980,12170900,10897874,12175826,2251,2654,-3,523,1051,2124,995,1993,16,31,839
280673,10895124,12171080,10898071,12176023,1901,2613,-23,213,1037,1763,28,2133,29,40,837
281674,10895260,12171292,10898268,12176220,1977,2406,-50,-8,1066,1356,-250,2349,29,40,837
282675,10895392,12171488,10898465,12176417,2032,2508,-60,-149,1097,1010,-9,2506,28,29,836
283676,10895532,12171676,10898662,12176614,2007,2563,-59,-256,1121,666,-213,2642,28,29,836
284686,10895664,12171864,10898892,12176844,2101,2582,-73,-309,1132,377,74,2881,38,39,835
285678,10895784,12172072,10899089,12177041,2211,2453,-81,-285,1143,128,-74,3111,38,39,835
286679,10895920,12172296,10899286,12177238,2138,2342,-99,-235,1152,-117,23,3130,37,33,837
287680,10896036,12172512,10899483,12177435,2299,2385,-137,-140,1186,-429,14,3217,37,33,837
288681,10896164,12172776,10899680,12177632,2256,2056,-176,-60,1257,-686,72,3269,27,51,837
289682,10896280,12173040,10899877,12177829,2366,2028,-219,56,1370,-843,166,3392,27,51,837
290683,10896416,12173300,10900074,12178026,2269,2026,-265,118,1513,-997,237,3299,21,55,837
291684,10896536,12173556,10900271,12178223,2404,2026,-306,144,1662,-1226,116,3154,21,55,837
292685,10896656,12173788,10900468,12178420,2438,2162,-360,214,1810,-1389,-322,3510,19,61,835
293686,10896808,12174132,10900665,12178617,2258,1398,-421,350,1966,-1524,-465,3632,19,61,835
294687,10896944,12174452,10900862,12178814,2386,1494,-473,516,2098,-1553,-16,3672,27,44,838
295688,10897052,12174756,10901059,12179011,2601,1548,-532,702,2170,-1546,794,3881,27,44,838
296689,10897204,12175140,10901256,12179208,2346,967,-589,888,2203,-1627,1210,3991,39,57,838
297690,10897320,12175348,10901453,12179405,2608,2063,-665,1063,2197,-1504,1250,3918,39,57,838
298691,10897436,12175552,10901650,12179602,2644,2086,-767,1155,2165,-1377,1362,3791,28,65,841
299692,10897596,12175756,10901847,12179799,2387,2083,-909,1263,2119,-1268,970,3983,28,65,841
300693,10897740,12175980,10902044,12179996,2511,1947,-1048,1370,2052,-1129,314,3896,27,51,839
301694,10897904,12176208,10902241,12180193,2400,1910,-1075,1416,2000,-853,-627,4148,27,51,839
302695,10898068,12176504,10902438,12180390,2416,1442,-398,2643,1892,1084,-89,14781,24,48,836
303696,10898216,12176860,10902635,12180587,2538,997,645,4608,1654,1703,921,16164,24,48,836
304697,10898360,12177100,10902832,12180784,2588,1704,1080,5084,1458,-108,1303,3003,34,45,837
305698,10898536,12177360,10903029,12180981,2398,1553,927,4372,1335,-152,1767,2039,34,45,837
306699,10898696,12177664,10903226,12181178,2515,1232,723,3370,1252,-38,1594,1472,46,60,838
307700,10898840,12177948,10903423,12181375,2639,1319,584,2598,1227,5,1100,1795,46,60,838
308701,10899012,12178172,10903620,12181572,2476,1683,527,2001,1261,-183,926,1790,45,50,840
309702,10899160,12178468,10903817,12181769,2648,1189,415,1540,1263,-199,961,2334,45,50,840
310703,10899300,12178764,10904014,12181966,2724,1147,230,1312,1198,-442,866,2839,29,50,840
311704,10899452,12179052,10904211,12182163,2670,1158,29,1213,1125,-574,-201,3445,29,50,840
312705,10899608,12179360,10904408,12182360,2664,984,-156,1285,1024,-618,-632,3962,44,63,839
313706,10899756,12179660,10904605,12182557,2736,990,-321,1449,841,-1067,315,4200,44,63,839
314706,10899884,12179984,10904802,12182754,2893,784,-487,1702,601,-1324,824,4535,31,64,839
315708,10900048,12180280,10904999,12182951,2683,916,-665,2080,381,-1445,624,4886,31,64,839
316708,10900184,12180544,10905196,12183148,2886,1087,-853,2495,242,-1597,612,5273,25,51,840
317710,10900308,12180872,10905393,12183345,2994,630,-1004,2933,152,-1580,762,5134,25,51,840
318711,10900468,12181204,10905590,12183542,2785,546,-1069,3152,62,-1652,842,4480,44,62,839
319712,10900600,12181556,10905787,12183739,2990,354,-988,3374,24,-1691,415,5770,44,62,839
320713,10900736,12181840,10905984,12183936,2993,741,-801,3686,53,-1598,-58,6675,29,57,840
321714,10900860,12182124,10906181,12184133,3101,703,-704,3706,105,-1248,-32,3969,29,57,840
322715,10900984,12182424,10906378,12184330,3134,558,-702,3453,219,-943,-925,3258,22,59,839
323716,10901096,12182680,10906575,12184527,3248,807,-659,3026,382,-763,-1334,2772,22,59,839
324717,10901224,12182936,10906772,12184724,3180,782,-559,2591,542,-734,-841,2854,18,59,839
325718,10901348,12183196,10906969,12184921,3238,730,-453,2257,664,-916,-20,3061,18,59,839
326719,10901468,12183384,10907166,12185118,3298,1184,-381,2039,726,-1111,563,3384,17,62,838
327720,10901600,12183612,10907363,12185315,3252,921,-388,2000,714,-1454,1140,3869,17,62,838
328721,10901732,12183844,10907560,12185512,3282,881,-455,2090,683,-1761,705,4379,24,44,837
329722,10901848,12184044,10907757,12185709,3418,1079,-585,2340,641,-1845,378,4796,24,44,837
330723,10901984,12184240,10907954,12185906,3321,1106,-769,2596,595,-1988,208,4874,22,41,838
331724,10902104,12184424,10908151,12186103,3456,1186,-1013,2926,530,-2104,75,4993,22,41,838
332725,10902196,12184580,10908348,12186300,3678,1379,-1304,3200,444,-2230,-284,4685,17,43,837
333726,10902320,12184704,10908545,12186497,3512,1612,-1592,3265,387,-2199,-1012,4188,17,43,837
334727,10902476,12184824,10908742,12186694,3331,1671,-1867,3180,379,-2117,-843,4002,33,46,834
335728,10902632,12184940,10908939,12186891,3350,1732,-2095,3056,428,-2210,-925,4062,33,46,834
336729,10902800,12185076,10909136,12187088,3289,1635,-2064,3043,503,-2281,-974,6424,28,30,833
337730,10903044,12185192,10909333,12187285,2794,1795,-1290,3518,472,-1320,-600,14491,28,30,833
338731,10903284,12185308,10909530,12187482,2802,1832,18,3687,283,-786,134,13899,33,31,832
339731,10903540,12185408,10909727,12187679,2677,1974,883,3097,71,-1032,444,6757,33,31,832
340733,10903840,12185508,10909924,12187876,2358,2017,872,1616,-140,-979,543,1211,34,29,834
341734,10904120,12185628,10910121,12188073,2448,1927,419,-236,-377,-867,749,188,34,29,834
342735,10904380,12185740,10910318,12188270,2546,2014,-4,-1570,-597,-770,1515,1641,49,32,837
343736,10904660,12185844,10910515,12188467,2385,2106,-35,-2317,-799,-164,1536,5591,49,32,837
344737,10904892,12185928,10910712,12188664,2671,2281,534,-2627,-1072,772,1483,10899,52,16,836
345738,10905112,12186004,10910909,12188861,2738,2385,1124,-2767,-1329,406,1678,8511,52,16,836
346739,10905340,12186084,10911106,12189058,2675,2411,1170,-3021,-1535,-66,1696,4690,62,26,837
347739,10905520,12186156,10911303,12189255,2984,2517,483,-3536,-1809,-495,1536,4091,62,26,837
348741,10905704,12186256,10911500,12189452,2966,2386,228,-3537,-1834,-62,1352,4739,41,29,836
349742,10905908,12186348,10911697,12189649,2838,2482,33,-3403,-1825,281,1233,4812,41,29,836
350743,10906144,12186460,10911894,12189846,2622,2395,-100,-3312,-1806,107,1204,4838,47,14,834
351744,10906376,12186576,10912091,12190043,2633,2406,-148,-3278,-1835,130,1104,4677,47,14,834
352745,10906676,12186696,10912288,12190240,2164,2416,-31,-3269,-1883,622,1388,5748,30,17,832
353746,10906972,12186800,10912485,12190437,2146,2558,241,-2841,-1885,1373,1531,8562,30,17,832
354747,10907276,12186920,10912682,12190634,2050,2492,411,-2492,-1856,1253,1412,5646,47,31,833
355747,10907644,12187004,10912879,12190831,1576,2767,430,-2416,-1876,943,1711,4300,47,31,833
356749,10907960,12187104,10913076,12191028,1850,2711,373,-2376,-1945,771,1777,4638,49,19,835
357750,10908296,12187208,10913273,12191225,1665,2728,312,-2218,-2013,524,1616,4760,49,19,835
358751,10908628,12187332,10913470,12191422,1631,2635,248,-1953,-2039,83,1079,4795,60,29,835
359752,10908988,12187432,10913667,12191619,1386,2828,237,-1729,-2043,-277,625,4606,60,29,835
360753,10909312,12187560,10913864,12191816,1556,2685,298,-1609,-2060,-370,237,4304,78,28,837
361754,10909624,12187692,10914061,12192013,1581,2689,409,-1469,-2097,-490,72,4225,78,28,837
362755,10909924,12187828,10914258,12192210,1612,2692,527,-1403,-2147,-524,-182,4036,54,35,837
363756,10910252,12187980,10914455,12192407,1381,2612,624,-1430,-2206,-373,-412,3783,54,35,837
364757,10910552,12188124,10914652,12192604,1510,2686,731,-1449,-2267,-395,41,3632,74,30,838
365758,10910860,12188268,10914849,12192801,1412,2711,815,-1484,-2360,-616,1107,3304,74,30,838
366759,10911144,12188396,10915046,12192998,1525,2842,854,-1694,-2460,-736,1140,2895,53,29,838
367767,10911396,12188552,10915276,12193228,1717,2700,898,-1979,-2481,-738,195,2760,53,29,838
368761,10911696,12188672,10915473,12193425,1372,2960,971,-2231,-2437,-629,169,2579,67,37,838
369762,10911960,12188828,10915670,12193622,1568,2754,1039,-2592,-2397,-555,625,2202,67,37,838
370763,10912216,12188964,10915867,12193819,1593,2907,1079,-2938,-2333,-267,374,2368,67,25,837
371763,10912492,12189088,10916064,12194016,1434,3014,1110,-3231,-2210,119,-22,2366,67,25,837
372765,10912756,12189224,10916261,12194213,1480,2967,1151,-3434,-2056,298,-27,2453,68,40,838
373766,10912996,12189348,10916458,12194410,1612,3075,1182,-3532,-1903,277,252,2764,68,40,838
374767,10913256,12189504,10916655,12194607,1460,2894,1154,-3489,-1758,241,702,3081,49,40,838
375768,10913468,12189640,10916852,12194804,1754,3047,1074,-3310,-1595,295,1158,3517,49,40,838
376769,10913688,12189760,10917049,12195001,1695,3182,984,-3017,-1389,415,865,3634,46,23,836
377770,10913956,12189900,10917246,12195198,1364,3083,931,-2727,-1169,465,387,3512,46,23,836
378771,10914192,12190016,10917443,12195395,1547,3269,886,-2489,-943,436,177,3498,51,36,835
379772,10914464,12190148,10917640,12195592,1290,3199,833,-2240,-712,499,-192,3606,51,36,835
380772,10914736,12190280,10917837,12195789,1257,3228,771,-1887,-492,543,-447,3644,41,33,833
381774,10914984,12190392,10918034,12195986,1386,3392,702,-1541,-293,489,-614,3528,41,33,833
382775,10915216,12190540,10918231,12196183,1471,3189,642,-1241,-127,377,-744,3328,40,32,836
383775,10915500,12190668,10918428,12196380,1108,3347,592,-981,2,264,-548,3179,40,32,836
384776,10915776,12190816,10918625,12196577,1125,3244,560,-795,91,165,171,2935,53,39,835
385777,10916056,12190976,10918822,12196774,1063,3186,494,-698,141,85,168,2700,53,39,835
386778,10916300,12191124,10919019,12196971,1268,3284,411,-736,204,143,-833,2312,42,38,833
387779,10916608,12191264,10919216,12197168,820,3360,329,-800,281,195,-1560,2053,42,38,833
388780,10916888,12191400,10919413,12197365,959,3413,247,-972,360,134,-1867,1686,67,38,836
389782,10917148,12191540,10919610,12197562,1056,3414,147,-1155,431,28,-1892,1694,67,38,836
390783,10917416,12191680,10919807,12197759,976,3440,24,-1341,499,-166,-2049,1707,63,26,835
391784,10917684,12191856,10920004,12197956,945,3226,-99,-1563,552,-267,-2007,1577,63,26,835
392785,10917952,12192012,10920201,12198153,915,3370,-226,-1793,566,-427,-1352,1473,57,39,835
393786,10918168,12192160,10920398,12198350,1231,3443,-372,-2025,559,-571,-871,1524,57,39,835
394787,10918384,12192308,10920595,12198547,1223,3465,-560,-2224,543,-549,-896,1703,39,41,833
395788,10918620,12192480,10920792,12198744,1082,3327,-759,-2355,556,-501,-1797,1760,39,41,833
396789,10918820,12192680,10920989,12198941,1306,3152,-945,-2515,610,-510,-2255,1805,57,24,837
397790,10919028,12192868,10921186,12199138,1252,3233,-1116,-2678,683,-464,-2423,1879,57,24,837
398791,10919220,12193060,10921383,12199335,1354,3211,-1305,-2832,781,-417,-2677,2133,35,44,835
399792,10919428,12193232,10921580,12199532,1250,3348,-1495,-2872,897,-371,-2770,2329,35,44,835
400793,10919604,12193424,10921777,12199729,1459,3226,-1674,-2938,1008,-402,-2589,2281,36,48,835
401794,10919788,12193600,10921974,12199926,1415,3336,-1844,-3002,1108,-360,-2261,2425,36,48,835
402795,10919992,12193792,10922171,12200123,1288,3241,-2029,-3049,1211,-164,-2043,2546,44,29,835
403796,10920184,12193968,10922368,12200320,1365,3351,-2211,-3102,1320,67,-1901,2567,44,29,835
404797,10920384,12194140,10922565,12200517,1315,3388,-2410,-3181,1429,221,-1990,2630,48,41,835
405798,10920588,12194360,10922762,12200714,1287,3079,-2610,-3269,1522,360,-2099,2655,48,41,835
406799,10920792,12194584,10922959,12200911,1284,3043,-2808,-3330,1610,538,-2146,2775,41,37,835
407800,10920972,12194812,10923156,12201108,1442,3006,-3009,-3339,1691,639,-2171,3116,41,37,835
408801,10921164,12195040,10923353,12201305,1369,2994,-3202,-3308,1744,680,-2178,3210,34,44,834
409802,10921352,12195300,10923550,12201502,1399,2767,-3372,-3354,1762,703,-2045,3299,34,44,834
410803,10921500,12195552,10923747,12201699,1671,2794,-3519,-3376,1744,669,-1919,3372,36,56,837
411804,10921676,12195824,10923944,12201896,1506,2637,-3641,-3410,1690,693,-1843,3534,36,56,837
412805,10921872,12196128,10924141,12202093,1382,2392,-3752,-3378,1628,804,-2091,3788,36,58,836
413806,10922080,12196388,10924338,12202290,1302,2640,-3831,-3338,1574,826,-2317,3817,36,58,836
414807,10922240,12196636,10924535,12202487,1619,2694,-3874,-3325,1531,798,-2555,4073,28,61,837
415808,10922440,12196916,10924732,12202684,1368,2458,-3883,-3331,1474,569,-2627,4216,28,61,837
416809,10922604,12197188,10924929,12202881,1608,2476,-3251,-2637,1386,1332,-2583,10523,50,50,839
417810,10922764,12197480,10925126,12203078,1649,2311,-578,2411,958,5896,-1356,32767,50,50,839
418811,10922932,12197756,10925323,12203275,1613,2377,1781,5895,565,1931,-1910,15248,28,56,840
419812,10923096,12198008,10925520,12203472,1653,2504,2110,5595,389,351,-994,1738,28,56,840
420813,10923272,12198256,10925717,12203669,1588,2507,1533,3411,339,698,-1043,-42,45,48,840
421814,10923464,12198500,10925914,12203866,1490,2513,993,1251,342,1057,-1432,-69,45,48,840
422815,10923624,12198764,10926111,12204063,1706,2359,737,-138,475,699,-1866,394,29,55,839
423816,10923776,12199008,10926308,12204260,1777,2465,574,-1447,675,437,-2092,159,29,55,839
424817,10923952,12199224,10926505,12204457,1636,2632,343,-2505,808,193,-1843,951,29,53,838
425818,10924100,12199424,10926702,12204654,1834,2732,103,-3675,911,-530,-1331,860,29,53,838
426819,10924244,12199648,10926899,12204851,1882,2571,-152,-4777,934,-387,-1156,1533,39,44,839
427820,10924432,12199856,10927096,12205048,1612,2667,-433,-5615,934,-418,-1118,2289,39,44,839
428820,10924604,12200076,10927293,12205245,1723,2583,-689,-6204,1015,-618,-1174,3243,44,45,838
429822,10924784,12200272,10927490,12205442,1682,2734,-941,-6447,1124,-420,-1399,4066,44,45,838
430823,10924936,12200472,10927687,12205639,1876,2709,-1138,-6668,1241,-558,-1034,4224,26,39,836
431824,10925080,12200640,10927884,12205836,1951,2923,-1201,-6636,1345,-281,-412,5824,26,39,836
432825,10925240,12200812,10928081,12206033,1867,2910,-344,-4762,1313,1897,210,21716,26,33,837
433826,10925380,12201004,10928278,12206230,2018,2788,924,-2245,1233,1448,162,19637,26,33,837
434827,10925516,12201204,10928475,12206427,2071,2738,1321,-1221,1322,-530,-167,6234,38,32,835
435828,10925652,12201340,10928672,12206624,2098,3166,1075,-1458,1544,-517,-235,5109,38,32,835
436828,10925804,12201496,10928869,12206821,2018,3060,769,-1882,1830,-319,-629,4882,29,27,834
437830,10925964,12201628,10929066,12207018,1985,3239,649,-2096,2117,-378,-372,4575,29,27,834
438831,10926112,12201756,10929263,12207215,2082,3295,678,-2440,2364,-423,-235,3836,24,38,835
439832,10926264,12201888,10929460,12207412,2077,3300,705,-2604,2598,-310,-406,4277,24,38,835
440833,10926400,12202024,10929657,12207609,2205,3303,746,-2906,2867,-538,-207,3763,37,26,832
441834,10926540,12202144,10929854,12207806,2206,3438,782,-3224,3127,-474,-251,4054,37,26,832
442835,10926664,12202272,10930051,12208003,2338,3420,831,-3457,3358,-442,-310,4047,36,24,832
443836,10926808,12202432,10930248,12208200,2237,3237,905,-3690,3573,-460,-458,3937,36,24,832
444837,10926936,12202604,10930445,12208397,2369,3174,973,-3786,3734,-376,-717,4214,31,37,832
445838,10927052,12202764,10930642,12208594,2479,3267,1035,-3942,3867,-536,-798,4015,31,37,832
446839,10927172,12202924,10930839,12208791,2489,3284,1069,-3981,3971,-510,-748,4587,22,42,829
447840,10927320,12203068,10931036,12208988,2337,3408,1096,-3890,4028,-616,-204,4548,22,42,829
448841,10927452,12203220,10931233,12209185,2465,3379,1129,-3782,4059,-846,120,4686,22,38,831
449842,10927604,12203388,10931430,12209382,2361,3293,1152,-3497,4074,-783,226,5197,22,38,831
450850,10927756,12203592,10931660,12209612,2396,3080,1210,-3328,4076,-683,169,4601,31,28,830
451844,10927864,12203772,10931857,12209809,2711,3239,1315,-3175,4049,-427,-53,4621,31,28,830
452844,10927980,12203968,10932054,12210006,2697,3141,1450,-3118,3995,-98,49,4147,37,27,830
453846,10928096,12204156,10932251,12210203,2733,3196,1586,-3199,3919,416,201,3900,37,27,830
454847,10928208,12204356,10932448,12210400,2797,3121,1704,-3127,3840,819,310,3966,40,41,830
455848,10928332,12204580,10932645,12210597,2755,2960,1818,-3163,3746,969,291,3570,40,41,830
456849,10928452,12204772,10932842,12210794,2815,3163,1909,-3146,3623,1162,200,3778,27,37,828
457850,10928608,12204988,10933039,12210991,2608,3006,1961,-3040,3514,1223,-40,4040,27,37,828
458851,10928728,12205216,10933236,12211188,2868,2919,1960,-2786,3433,1288,-270,4235,39,40,827
459852,10928832,12205504,10933433,12211385,3009,2505,1911,-2463,3378,1328,-416,4253,39,40,827
460853,10928916,12205764,10933630,12211582,3185,2653,1885,-2301,3312,1542,-79,3736,39,48,831
461854,10929004,12206032,10933827,12211779,3209,2573,1863,-2130,3199,2062,218,3818,39,48,831
462855,10929068,12206280,10934024,12211976,3418,2677,1799,-1902,3077,2420,390,3851,34,61,831
463856,10929140,12206560,10934221,12212173,3424,2441,1690,-1638,2966,2620,269,3825,34,61,831
464857,10929200,12206824,10934418,12212370,3561,2513,1592,-1364,2808,2672,465,3514,28,62,831
465858,10929268,12207080,10934615,12212567,3568,2538,1534,-1170,2623,2790,708,3347,28,62,831
466859,10929348,12207352,10934812,12212764,3546,2406,1477,-932,2443,3030,751,3323,7,64,830
467860,10929448,12207620,10935009,12212961,3464,2401,1414,-743,2288,3011,518,3064,7,64,830
468861,10929548,12207884,10935206,12213158,3508,2397,1355,-577,2145,2796,302,2944,12,59,828
469862,10929668,12208132,10935403,12213355,3418,2476,1290,-385,2001,2397,-291,2987,12,59,828
470862,10929828,12208392,10935600,12213552,3185,2374,1214,-142,1861,1830,-974,2945,29,42,828
471864,10929980,12208656,10935797,12213749,3256,2321,1133,146,1748,1324,-1434,3076,29,42,828
472865,10930124,12208880,10935994,12213946,3330,2560,1082,447,1681,765,-1628,3089,30,49,829
473866,10930224,12209120,10936191,12214143,3649,2442,1042,739,1650,555,-1640,3141,30,49,829
474866,10930352,12209396,10936388,12214340,3505,2183,1001,965,1642,772,-1219,2902,26,59,828
475880,10930436,12209688,10936585,12214537,3800,2042,964,1153,1605,1024,-686,2537,26,59,828
476868,10930540,12209956,10936782,12214734,3749,2162,970,1122,1505,1316,-43,1639,40,47,831
477870,10930664,12210212,10936979,12214931,3657,2212,1046,862,1402,1420,179,1106,40,47,831
478871,10930780,12210464,10937176,12215128,3743,2214,1154,618,1367,1345,135,1497,22,60,827
479872,10930900,12210764,10937373,12215325,3753,1870,1252,596,1387,1055,-31,1888,22,60,827
480873,10931068,12211068,10937570,12215522,3468,1799,1339,709,1406,694,-144,2103,33,60,828
481874,10931232,12211364,10937767,12215719,3508,1806,1428,863,1384,511,-345,2223,33,60,828
482875,10931428,12211664,10937964,12215916,3310,1736,1483,1139,1315,232,-756,2681,41,52,829
483876,10931636,12211968,10938161,12216113,3231,1665,1480,1550,1242,-473,-1352,3259,41,52,829
484876,10931856,12212292,10938358,12216310,3148,1485,1436,2169,1173,-1276,-1353,3687,31,69,830
485878,10932064,12212624,10938555,12216507,3219,1377,1415,2745,1087,-1482,-536,3210,31,69,830
486878,10932336,12212920,10938752,12216704,2787,1558,1455,2907,957,-502,790,2102,42,60,832
487880,10932604,12213240,10938949,12216901,2782,1355,1542,2991,811,594,1870,1706,42,60,832
488881,10932888,12213644,10939146,12217098,2645,740,1626,2957,673,450,2165,1396,57,64,835
489882,10933156,12214000,10939343,12217295,2715,971,1703,2856,582,-116,1854,1516,57,64,835
490883,10933420,12214316,10939540,12217492,2712,1169,1804,2743,566,-405,1420,1230,63,73,835
491884,10933676,12214628,10939737,12217689,2737,1145,1954,2448,568,20,1086,621,63,73,835
492884,10933924,12214980,10939934,12217886,2766,827,2115,2074,537,863,1166,411,67,58,838
493886,10934200,12215340,10940131,12218083,2557,706,2222,1661,571,1455,1221,382,67,58,838
494887,10934476,12215656,10940328,12218280,2523,929,2216,1510,693,1268,1035,1298,65,69,840
495888,10934744,12215968,10940525,12218477,2544,904,2170,1550,829,594,1175,1583,65,69,840
496889,10935084,12216360,10940722,12218674,2032,318,2153,1581,909,848,1747,1513,49,75,839
497890,10935380,12216728,10940919,12218871,2265,394,2138,1638,944,1690,2016,1433,49,75,839
498891,10935712,12217064,10941116,12219068,1981,533,2076,1731,1019,1854,1607,1755,63,59,841
499892,10936040,12217416,10941313,12219265,1950,366,1939,2046,1122,1116,1067,2536,63,59,841
500893,10936328,12217724,10941510,12219462,2161,592,1814,2256,1161,482,1654,1795,58,59,840
501894,10936660,12218056,10941707,12219659,1827,383,1695,2377,1072,830,2508,1854,58,59,840
502895,10936968,12218256,10941904,12219856,1930,1208,1520,2741,953,1542,2737,2712,66,58,843
503896,10937264,12218460,10942101,12220053,1962,1180,1281,3254,902,1696,2610,2946,66,58,843
504897,10937516,12218700,10942298,12220250,2214,936,995,3820,837,1097,2838,2883,77,60,846
505898,10937812,12218924,10942495,12220447,1896,1025,686,4220,640,694,3324,2347,77,60,846
506899,10938140,12219120,10942692,12220644,1639,1200,366,4562,336,847,3413,2184,49,50,846
507900,10938436,12219284,10942889,12220841,1796,1415,-1,4966,32,610,3179,2280,49,50,846
508900,10938752,12219444,10943086,12221038,1620,1456,-387,5220,-230,149,3049,1832,45,51,843
509902,10939028,12219624,10943283,12221235,1836,1339,-802,5293,-574,62,3445,1450,45,51,843
510903,10939328,12219800,10943480,12221432,1642,1374,-1276,5336,-1002,337,3705,1515,71,45,844
511904,10939680,12219928,10943677,12221629,1250,1704,-1791,5349,-1412,442,3408,1271,71,45,844
512905,10939940,12220056,10943874,12221826,1797,1735,-2298,5162,-1791,41,2817,572,51,33,842
513906,10940228,12220168,10944071,12222023,1583,1873,-2761,4825,-2121,-244,1860,347,51,33,842
514906,10940496,12220364,10944268,12222220,1678,1348,-3209,4480,-2424,-242,1504,324,52,42,843
515907,10940808,12220596,10944465,12222417,1354,1109,-3700,4144,-2714,-526,1170,285,52,42,843
516908,10941100,12220832,10944662,12222614,1437,1067,-4200,3807,-2944,-973,192,328,54,32,844
517910,10941388,12221024,10944859,12222811,1423,1344,-4657,3291,-3145,-1373,-410,-75,54,32,844
518910,10941704,12221212,10945056,12223008,1197,1374,-5077,2651,-3326,-1540,-832,-177,66,51,842
519911,10942004,12221372,10945253,12223205,1251,1565,-5454,1996,-3501,-1876,-1256,-367,66,51,842
520913,10942288,12221616,10945450,12223402,1314,1019,-5769,1132,-3665,-2256,-1674,-593,51,49,846
521914,10942588,12221844,10945647,12223599,1169,1107,-6017,317,-3770,-2319,-1973,2,51,49,846
522915,10942848,12222068,10945844,12223796,1392,1120,-6202,-325,-3752,-2269,-2203,791,69,49,844
523916,10943076,12222268,10946041,12223993,1579,1269,-6335,-762,-3611,-2244,-2562,1464,69,49,844
524917,10943384,12222480,10946238,12224190,1031,1188,-6426,-1087,-3320,-2327,-3178,2203,70,46,843
525918,10943648,12222644,10946435,12224387,1277,1502,-6480,-1269,-2945,-2280,-2995,2983,70,46,843
526919,10943940,12222816,10946632,12224584,1061,1463,-6472,-1379,-2661,-2287,-2204,3154,63,27,846
527920,10944196,12222932,10946829,12224781,1261,1850,-6362,-1708,-2526,-2539,-1397,2632,63,27,846
528921,10944476,12223048,10947026,12224978,1074,1886,-6179,-2264,-2513,-2565,-875,2579,51,36,844
529922,10944736,12223220,10947223,12225175,1172,1547,-5980,-2883,-2558,-2219,-342,2707,51,36,844
530923,10945020,12223396,10947420,12225372,984,1532,-5820,-3324,-2583,-1926,-60,3471,54,37,844
531924,10945236,12223572,10947617,12225569,1402,1541,-5747,-3388,-2517,-1439,-150,5015,54,37,844
532925,10945496,12223708,10947814,12225766,1099,1819,-5934,-2801,-2405,-621,607,7335,67,25,843
533933,10945924,12223844,10948044,12225996,-37,1860,-5957,-2407,-2311,-785,-146,5420,67,25,843
534927,10946132,12223964,10948241,12226193,1333,1994,-5763,-2457,-2252,-500,-213,5218,44,40,843
535928,10946376,12224116,10948438,12226390,1088,1815,-4435,-1711,-2235,1736,-374,14847,44,40,843
536929,10946612,12224252,10948635,12226587,1122,1942,-589,5011,-2628,8954,-183,32767,39,36,844
537930,10946920,12224420,10948832,12226784,623,1755,2388,8913,-2856,3239,-303,12830,39,36,844
538931,10947228,12224596,10949029,12226981,574,1715,2814,8200,-2724,2079,545,2106,42,38,846
539932,10947540,12224764,10949226,12227178,499,1778,2126,5085,-2496,2490,569,-570,42,38,846
540933,10947788,12224900,10949423,12227375,877,2005,1694,2295,-2261,2961,-600,-394,60,32,844
541934,10948008,12225024,10949620,12227572,1042,2112,1489,374,-1881,2827,-1464,-47,60,32,844
542935,10948328,12225168,10949817,12227769,364,2012,1335,-1180,-1567,3034,-1034,62,63,32,845
543936,10948700,12225296,10950014,12227966,-38,2142,1037,-2609,-1405,3090,-1037,858,63,32,845
544937,10948992,12225428,10950211,12228163,420,2146,611,-3728,-1343,2318,-918,1968,60,29,845
545938,10949288,12225544,10950408,12228360,352,2282,145,-4593,-1397,1931,-1241,2613,60,29,845
546939,10949652,12225680,10950605,12228557,-146,2185,-258,-5262,-1513,1736,-1144,3037,61,25,841
547939,10949948,12225812,10950802,12228754,236,2239,-537,-5829,-1608,1628,-656,3567,61,25,841
548941,10950156,12225960,10950999,12228951,781,2161,-724,-6154,-1744,1859,-410,4028,56,39,845
549942,10950488,12226128,10951196,12229148,-53,2050,-942,-6237,-1888,1792,-370,5093,56,39,845
550943,10950736,12226292,10951393,12229345,449,2089,-1135,-6095,-2020,2012,-502,5562,69,42,843
551944,10950988,12226428,10951590,12229542,400,2292,-1262,-5846,-2194,2253,-683,5317,69,42,843
552945,10951256,12226572,10951787,12229739,270,2265,-1383,-5663,-2417,2285,-127,5482,43,22,844
553946,10951488,12226744,10951984,12229936,479,2102,-1549,-5225,-2694,2316,477,6099,43,22,844
554947,10951684,12226864,10952181,12230133,705,2462,-1759,-4670,-2859,2369,-113,6167,48,35,845
555948,10951940,12226996,10952378,12230330,304,2416,-1889,-4132,-2943,2276,148,5817,48,35,845
556949,10952192,12227144,10952575,12230527,305,2338,-1904,-3678,-3035,2112,415,5535,56,38,842
557950,10952404,12227316,10952772,12230724,548,2200,-1968,-3197,-3061,1965,34,5933,56,38,842
558951,10952604,12227456,10952969,12230921,622,2425,-2144,-2600,-3027,1619,160,5764,45,37,844
559951,10952792,12227556,10953166,12231118,701,2719,-2322,-2253,-2979,1381,592,4549,45,37,844
560952,10953008,12227660,10953363,12231315,518,2736,-2557,-2174,-2954,1525,449,4197,44,21,843
561954,10953216,12227784,10953560,12231512,563,2643,-2773,-2198,-2882,1515,-154,3477,44,21,843
562955,10953428,12227892,10953757,12231709,531,2783,-2907,-2420,-2716,1461,-382,2772,32,22,843
563955,10953604,12227992,10953954,12231906,765,2877,-2993,-2741,-2532,1512,-598,2462,32,22,843
564956,10953780,12228120,10954151,12232103,775,2732,-3118,-2965,-2398,1243,-537,2787,36,15,840
565958,10953896,12228220,10954348,12232300,1186,2950,-3236,-3019,-2305,1216,-540,2847,36,15,840
566959,10954040,12228332,10954545,12232497,1034,2914,-3387,-2929,-2206,1110,-1743,3305,33,15,839
567960,10954176,12228420,10954742,12232694,1111,3113,-3626,-2620,-2059,788,-2756,3997,33,15,839
568960,10954344,12228508,10954939,12232891,924,3162,-3870,-2314,-1921,489,-3173,3493,39,19,838
569962,10954500,12228624,10955136,12233088,1017,3022,-4085,-2144,-1849,311,-3684,3214,39,19,838
570962,10954684,12228716,10955333,12233285,848,3219,-4237,-2038,-1790,45,-4514,3223,40,29,837
571964,10954880,12228824,10955530,12233482,773,3159,-4436,-1789,-1672,-218,-5474,3851,40,29,837
572964,10955040,12228924,10955727,12233679,1014,3253,-4690,-1417,-1461,-604,-6155,3984,39,29,836
573966,10955200,12229020,10955924,12233876,1031,3323,-4915,-1057,-1175,-1085,-6305,4019,39,29,836
574967,10955352,12229140,10956121,12234073,1101,3208,-5039,-883,-884,-1329,-5960,3706,37,28,837
575968,10955504,12229264,10956318,12234270,1121,3216,-5086,-755,-607,-1403,-5565,3830,37,28,837
576968,10955644,12229392,10956515,12234467,1221,3223,-5124,-531,-257,-1331,-5370,4165,27,27,837
577970,10955824,12229544,10956712,12234664,979,3094,-3865,1721,286,-1161,-6340,22841,27,27,837
578971,10955964,12229696,10956909,12234861,1254,3114,-537,8021,1070,-851,-7438,32767,22,20,834
579972,10956100,12229884,10957106,12235058,1306,2894,1554,10288,1627,-280,-4031,4904,22,20,834
580972,10956260,12230192,10957303,12235255,1173,2096,1734,8803,1962,329,-2607,-509,39,36,835
581974,10956412,12230488,10957500,12235452,1243,2129,1174,5743,2285,1320,-2778,-2220,39,36,835
582974,10956576,12230808,10957697,12235649,1182,1926,817,3541,2723,2083,-2734,-1483,41,54,837
583976,10956716,12231128,10957894,12235846,1357,1872,668,1941,3191,2370,-2068,-1158,41,54,837
584976,10956868,12231392,10958091,12236043,1302,2193,462,753,3499,3226,-1437,-207,40,68,838
585978,10957028,12231748,10958288,12236240,1269,1550,148,-220,3693,3231,-1123,468,40,68,838
586979,10957240,12232044,10958485,12236437,938,1882,-189,-1142,3829,2738,-856,1090,45,69,842
587980,10957404,12232312,10958682,12236634,1252,2027,-551,-1712,3785,2797,-399,2313,45,69,842
588981,10957608,12232576,10958879,12236831,999,2023,-761,-2171,3673,2529,104,2267,47,57,841
589982,10957816,12232900,10959076,12237028,970,1594,-900,-2305,3493,2468,822,3831,47,57,841
590983,10958000,12233224,10959273,12237225,1126,1538,-1126,-2017,3210,2370,974,5187,51,66,843
591984,10958200,12233544,10959470,12237422,1025,1510,-1387,-1509,2895,1753,977,5642,51,66,843
592985,10958380,12233852,10959667,12237619,1157,1537,-1580,-858,2525,1447,737,5981,38,59,843
593986,10958588,12234128,10959864,12237816,978,1703,-1629,-435,2132,1225,348,5368,38,59,843
594987,10958764,12234424,10960061,12238013,1187,1535,-1598,57,1758,816,62,5913,43,58,845
595988,10958968,12234684,10960258,12238210,1009,1733,-1530,572,1427,571,80,5720,43,58,845
596989,10959188,12234948,10960455,12238407,899,1680,-1393,802,1123,654,142,4974,43,62,846
597990,10959384,12235164,10960652,12238604,1051,1971,-1130,931,842,633,65,4587,43,62,846
598991,10959564,12235400,10960849,12238801,1158,1830,-763,703,531,592,-196,3311,45,48,845
599992,10959728,12235604,10961046,12238998,1273,2028,-304,129,172,765,-813,2635,45,48,845
600993,10959860,12235804,10961243,12239195,1501,2052,207,-528,-153,1041,-588,2337,30,40,844
601994,10960008,12236008,10961440,12239392,1424,2025,757,-1273,-335,1360,-881,1775,30,40,844
602995,10960120,12236212,10961637,12239589,1686,2023,1260,-1985,-301,1545,-1531,2020,45,39,843
603995,10960248,12236404,10961834,12239786,1616,2100,1677,-2658,-135,1245,-709,2017,45,39,843
604996,10960336,12236584,10962031,12239983,1914,2183,2029,-3386,42,1144,-293,1844,26,40,842
605998,10960468,12236776,10962228,12240180,1669,2110,2350,-4069,289,1033,-1101,1854,26,40,842
606999,10960556,12236956,10962425,12240377,1992,2194,2654,-4641,655,743,-1041,2228,39,37,841
608000,10960688,12237164,10962622,12240574,1745,2015,2882,-4926,1055,679,-502,3066,39,37,841
609000,10960860,12237352,10962819,12240771,1507,2144,3048,-5013,1464,435,-234,3427,19,29,840
610001,10961004,12237552,10963016,12240968,1706,2069,3175,-4865,1881,195,-125,3990,19,29,840
611003,10961152,12237756,10963213,12241165,1703,2042,3272,-4546,2271,-45,1,4442,37,28,838
612004,10961296,12237952,10963410,12241362,1752,2092,3356,-4130,2667,-313,-362,4865,41,31,839
613004,10961424,12238188,10963607,12241559,1882,1826,3436,-3538,3098,-439,-798,5123,41,31,839
614006,10961552,12238436,10963804,12241756,1913,1729,3524,-2911,3501,-680,-896,5029,35,48,840
615006,10961684,12238716,10964001,12241953,1917,1493,3624,-2231,3821,-1037,-1006,5137,35,48,840
616007,10961828,12238968,10964198,12242150,1866,1645,3697,-1573,4095,-1363,-1319,5133,42,50,840
617017,10961940,12239232,10964428,12242380,2118,1556,3731,-915,4310,-1469,-1151,5096,42,50,840
618009,10962056,12239492,10964625,12242577,2129,1553,3784,-216,4488,-1345,-897,4938,21,50,841
619011,10962188,12239852,10964822,12242774,2058,858,3870,387,4672,-1207,-1677,4568,21,50,841
620012,10962304,12240156,10965019,12242971,2195,1161,3967,911,4865,-1011,-2194,4214,21,60,841
621012,10962444,12240468,10965216,12243168,2070,1061,4024,1359,4993,-873,-1659,3849,21,60,841
622014,10962568,12240820,10965413,12243365,2203,743,4056,1686,5039,-656,-915,3426,21,74,839
623015,10962672,12241024,10965610,12243562,2369,1666,4062,1905,5007,-530,-458,2885,21,74,839
624016,10962792,12241264,10965807,12243759,2303,1422,4044,1912,4938,-371,-464,2336,24,61,841
625017,10962908,12241516,10966004,12243956,2364,1324,3987,1821,4809,-125,-338,1878,24,61,841
626017,10963036,12241752,10966201,12244153,2320,1407,3867,1616,4582,-4,104,1113,18,54,842
627019,10963164,12242060,10966398,12244350,2351,909,3688,1278,4259,74,697,710,18,54,842
628019,10963300,12242424,10966595,12244547,2328,485,3452,953,3911,346,954,1043,24,44,840
629020,10963448,12242768,10966792,12244744,2276,547,3198,742,3558,598,1397,1091,24,44,840
630022,10963584,12243012,10966989,12244941,2378,1151,2940,563,3160,731,1896,1052,40,51,840
631023,10963724,12243272,10967186,12245138,2379,1024,2671,301,2685,792,2265,730,40,51,840
632024,10963880,12243488,10967383,12245335,2298,1291,2370,38,2215,955,2302,1008,44,63,842
633024,10964024,12243752,10967580,12245532,2396,962,2008,-7,1793,969,2626,1458,44,63,842
634026,10964208,12244112,10967777,12245729,2153,290,1615,16,1406,734,2445,1539,23,62,840
635027,10964376,12244372,10967974,12245926,2267,888,1209,45,1019,447,2226,1625,23,62,840
636028,10964532,12244640,10968171,12246123,2360,807,831,22,597,214,2386,1612,37,65,840
637028,10964728,12244884,10968368,12246320,2111,937,469,64,142,207,2588,1834,37,65,840
638030,10964888,12245168,10968565,12246517,2353,648,94,233,-244,360,2636,2124,30,61,844
639031,10965068,12245408,10968762,12246714,2236,905,-292,471,-561,222,2772,2322,30,61,844
640032,10965248,12245716,10968959,12246911,2244,432,-660,775,-898,42,3005,2547,32,60,841
641033,10965448,12246008,10969156,12247108,2119,490,-991,1057,-1269,-98,3131,2490,32,60,841
642033,10965644,12246332,10969353,12247305,2145,234,-1292,1330,-1569,13,2810,2678,48,49,842
643035,10965804,12246624,10969550,12247502,2387,393,-1595,1660,-1704,159,2339,3003,48,49,842
644036,10966004,12246908,10969747,12247699,2136,405,-1910,2129,-1737,159,2335,3365,41,53,842
645037,10966176,12247188,10969944,12247896,2323,394,-2200,2538,-1756,96,2378,3196,41,53,842
646038,10966360,12247512,10970141,12248093,2254,63,-2407,2815,-1789,-68,2396,2798,38,59,844
647039,10966532,12247728,10970338,12248290,2341,729,-2586,3063,-1803,57,2310,3133,38,59,844
648040,10966716,12247924,10970535,12248487,2273,855,-2791,3465,-1734,234,1683,3664,35,51,844
649040,10966908,12248124,10970732,12248684,2226,829,-2989,3898,-1593,329,1248,3674,35,51,844
650041,10967104,12248412,10970929,12248881,2201,239,-3119,4129,-1517,270,2274,2927,34,63,844
651042,10967308,12248716,10971126,12249078,2149,93,-3185,4185,-1549,124,3512,2760,34,63,844
652044,10967500,12248940,10971323,12249275,2228,581,-3250,4368,-1617,-216,3530,3410,36,54,843
653045,10967712,12249152,10971520,12249472,2096,649,-3388,4716,-1709,-631,2875,4285,36,54,843
654046,10967920,12249428,10971717,12249669,2117,214,-3630,5475,-1794,-1008,1874,5581,34,48,843
655047,10968104,12249632,10971914,12249866,2274,661,-3906,6396,-1846,-1488,1111,5876,34,48,843
656048,10968300,12249856,10972111,12250063,2200,524,-4167,7118,-1938,-1825,889,5344,47,44,842
657049,10968480,12250072,10972308,12250260,2308,566,-4394,7510,-2101,-2071,905,4706,47,44,842
658050,10968688,12250264,10972505,12250457,2129,718,-4549,7500,-2320,-2253,999,3798,48,43,845
659051,10968920,12250440,10972702,12250654,1965,828,-4621,7366,-2632,-2547,1225,4327,48,43,845
660052,10969112,12250592,10972899,12250851,2218,997,-3055,9989,-2634,-4651,-608,31110,39,46,843
661053,10969316,12250744,10973096,12251048,2140,1017,-62,14892,-2340,-5333,-970,32767,39,46,843
662054,10969560,12250892,10973293,12251245,1870,1064,1436,16070,-2526,-2228,3098,4957,44,38,843
663055,10969756,12250984,10973490,12251442,2171,1460,1588,13986,-2897,-2218,2544,3071,44,38,843
664056,10969960,12251076,10973687,12251639,2118,1506,2625,10755,-2855,-3901,-1502,13889,40,19,842
665057,10970160,12251140,10973884,12251836,2143,1739,3740,8412,-2534,-2235,-1965,7840,40,19,842
666058,10970404,12251192,10974081,12252033,1848,1878,3686,6617,-2308,-584,160,-663,41,18,843
667059,10970644,12251252,10974278,12252230,1855,1889,2944,4886,-2362,-55,721,-1313,41,18,843
668060,10970868,12251312,10974475,12252427,1944,1949,2180,2939,-2541,-511,1270,-1515,52,19,840
669061,10971124,12251388,10974672,12252624,1719,1903,1498,797,-2726,-927,1315,-1628,52,19,840
670062,10971352,12251456,10974869,12252821,1881,2009,726,-1052,-2925,-691,649,-901,57,24,840
671063,10971596,12251512,10975066,12253018,1760,2147,-158,-2546,-2854,-1207,-1222,424,57,24,840
672064,10971832,12251572,10975263,12253215,1794,2183,-964,-3608,-2695,-1576,-1391,1180,47,14,839
673065,10972096,12251644,10975460,12253412,1591,2162,-1499,-4849,-2709,-1851,-616,367,47,14,839
674066,10972364,12251696,10975657,12253609,1535,2351,-1869,-6113,-2759,-2050,-426,1555,60,10,839
675067,10972648,12251788,10975854,12253806,1397,2148,-2239,-6720,-2759,-1983,-451,3660,60,10,839
676068,10972888,12251896,10976051,12254003,1653,2087,-2573,-6867,-2639,-2261,-593,5615,49,22,838
677069,10973168,12252012,10976248,12254200,1368,2074,-2251,-6421,-2244,-3680,-2508,13770,49,22,838
678070,10973464,12252144,10976445,12254397,1226,2003,-1415,-5689,-1775,-3618,-2966,15250,42,27,837
679071,10973712,12252244,10976642,12254594,1503,2245,-1149,-5147,-1465,-2538,-1484,7849,42,27,837
680072,10973980,12252364,10976839,12254791,1348,2155,-1452,-4618,-1275,-2562,-1016,6739,66,19,840
681073,10974240,12252492,10977036,12254988,1370,2135,-1806,-4453,-1130,-2492,-635,5341,66,19,840
682074,10974500,12252620,10977233,12255185,1344,2167,-1933,-4459,-959,-2063,-561,4894,45,37,842
683075,10974760,12252720,10977430,12255382,1316,2384,-1897,-4460,-766,-1767,-264,4765,45,37,842
684076,10975036,12252852,10977627,12255579,1182,2214,-1794,-4594,-591,-1300,387,4195,52,31,841
685077,10975248,12252960,10977824,12255776,1576,2403,-1670,-4834,-462,-856,947,3885,52,31,841
686078,10975468,12253088,10978021,12255973,1516,2309,-1508,-5183,-325,-601,832,3240,57,26,841
687079,10975716,12253236,10978218,12256170,1319,2206,-1272,-5668,-172,-257,394,2899,57,26,841
688080,10975948,12253368,10978415,12256367,1405,2335,-991,-6209,-8,-83,-114,2620,40,25,839
689081,10976180,12253516,10978612,12256564,1389,2258,-644,-6809,155,41,-337,2256,40,25,839
690082,10976408,12253620,10978809,12256761,1402,2574,-273,-7390,273,418,-619,2068,58,23,839
691083,10976648,12253720,10979006,12256958,1308,2642,105,-8020,344,609,-784,2100,58,23,839
692084,10976860,12253832,10979203,12257155,1477,2605,467,-8420,387,888,-815,2579,39,34,840
693085,10977108,12253924,10979400,12257352,1230,2777,810,-8657,388,1072,-738,2804,39,34,840
694086,10977328,12254012,10979597,12257549,1395,2851,1153,-8720,378,1150,-556,3297,40,18,838
695087,10977536,12254096,10979794,12257746,1466,2926,1443,-8541,370,1169,-735,3946,40,18,838
696088,10977764,12254184,10979991,12257943,1327,2949,1691,-8168,344,983,-1054,4297,37,13,838
697089,10977976,12254272,10980188,12258140,1422,2998,1913,-7629,317,991,-1088,4691,37,13,838
698090,10978196,12254348,10980385,12258337,1361,3126,2100,-6926,321,1087,-1077,5024,37,23,835
699091,10978404,12254432,10980582,12258534,1433,3127,2244,-6080,359,1225,-965,5430,37,23,835
700099,10978624,12254560,10980812,12258764,1362,2898,2353,-5129,421,1384,-874,5442,52,15,835
701093,10978820,12254664,10981009,12258961,1512,3090,2472,-4253,459,1388,-870,5034,52,15,835
702094,10979016,12254764,10981206,12259158,1514,3158,2592,-3424,456,1396,-878,4806,30,25,835
703095,10979240,12254864,10981403,12259355,1327,3201,2700,-2674,443,1463,-694,4414,30,25,835
704096,10979428,12254996,10981600,12259552,1557,3031,2788,-2080,433,1616,11,3871,29,13,836
705097,10979636,12255088,10981797,12259749,1427,3328,2840,-1595,432,1753,-90,3424,29,13,836
706098,10979896,12255176,10981994,12259946,1075,3402,2857,-1264,435,1834,-577,2725,43,19,835
707099,10980120,12255288,10982191,12260143,1289,3290,2860,-1092,417,1788,-824,2124,43,19,835
708100,10980340,12255392,10982388,12260340,1304,3382,2838,-1041,395,1666,-1319,1851,55,22,835
709101,10980592,12255484,10982585,12260537,1080,3504,2750,-982,391,1704,-1683,1662,55,22,835
710102,10980788,12255600,10982782,12260734,1431,3391,2595,-941,413,1765,-1989,1371,39,17,833
711103,10981032,12255712,10982979,12260931,1110,3454,2408,-942,433,1750,-2051,1112,39,17,833
712104,10981272,12255816,10983176,12261128,1117,3546,2202,-1077,414,1704,-1643,759,57,19,834
713105,10981524,12255940,10983373,12261325,1018,3454,1969,-1286,363,1586,-1469,639,57,19,834
714106,10981772,12256048,10983570,12261522,1022,3594,1707,-1423,336,1508,-1971,719,50,19,833
715106,10982004,12256176,10983767,12261719,1106,3500,1413,-1494,347,1424,-2131,745,50,19,833
716107,10982252,12256344,10983964,12261916,984,3264,1099,-1541,363,1359,-1879,785,53,36,833
717109,10982484,12256484,10984161,12262113,1069,3465,789,-1550,349,1258,-1550,955,53,36,833
718110,10982688,12256632,10984358,12262310,1241,3438,479,-1544,303,1109,-1012,968,54,41,833
719111,10982932,12256764,10984555,12262507,971,3567,142,-1486,242,1120,-735,1213,54,41,833
720112,10983132,12256904,10984752,12262704,1244,3543,-225,-1387,196,1167,-779,1436,54,29,835
721113,10983344,12257024,10984949,12262901,1164,3703,-589,-1243,149,1213,-892,1437,54,29,835
722114,10983560,12257192,10985146,12263098,1130,3417,-932,-1129,107,1270,-1366,1346,40,33,833
723115,10983740,12257352,10985343,12263295,1363,3485,-1255,-1069,97,1270,-1695,1418,40,33,833
724116,10983928,12257504,10985540,12263492,1318,3556,-1563,-965,114,1300,-1655,1686,51,28,833
725117,10984100,12257672,10985737,12263689,1429,3470,-1872,-807,149,1295,-1607,1956,51,28,833
726118,10984260,12257832,10985934,12263886,1520,3537,-2171,-636,173,1271,-971,2031,41,31,834
727119,10984424,12258028,10986131,12264083,1511,3313,-2429,-510,178,1483,-249,1885,41,31,834
728120,10984620,12258220,10986328,12264280,1311,3342,-2664,-428,197,1687,-243,1933,31,45,832
729121,10984800,12258396,10986525,12264477,1419,3452,-2901,-356,251,1757,-622,2028,31,45,832
730122,10984964,12258564,10986722,12264674,1534,3517,-3112,-375,314,1764,-1277,1871,40,32,832
731123,10985140,12258760,10986919,12264871,1468,3343,-3300,-485,355,1717,-1621,1842,40,32,832
732124,10985296,12258960,10987116,12265068,1611,3318,-3496,-505,374,1601,-1538,2297,26,43,833
733125,10985476,12259124,10987313,12265265,1470,3558,-3736,-436,364,1379,-1524,2630,26,43,833
734126,10985656,12259308,10987510,12265462,1477,3440,-3983,-315,300,1042,-1541,2827,26,32,832
735127,10985848,12259472,10987707,12265659,1404,3580,-4214,-189,176,761,-1664,2997,26,32,832
736128,10986028,12259664,10987904,12265856,1488,3410,-4418,-70,20,607,-1736,3007,31,43,833
737129,10986232,12259844,10988101,12266053,1335,3493,-4612,-21,-123,535,-2208,3225,31,43,833
738130,10986388,12260100,10988298,12266250,1653,2993,-4781,0,-253,321,-2438,3230,34,48,833
739131,10986560,12260332,10988495,12266447,1565,3129,-4913,-102,-389,108,-2513,3003,34,48,833
740132,10986728,12260556,10988692,12266644,1603,3168,-5011,-270,-543,-47,-2529,2847,27,45,833
741132,10986920,12260776,10988889,12266841,1455,3184,-5083,-523,-704,-252,-2234,2861,27,45,833
742134,10987064,12261040,10989086,12267038,1779,2881,-5137,-782,-833,-375,-2033,3007,26,42,834
743135,10987220,12261328,10989283,12267235,1722,2692,-5162,-1103,-913,-381,-2171,3030,26,42,834
744136,10987420,12261600,10989480,12267432,1447,2760,-5072,-1442,-943,-259,-2336,3523,43,44,833
745137,10987604,12261864,10989677,12267629,1552,2782,-2792,1564,-669,-975,-3558,32767,43,44,833
746138,10987760,12262104,10989874,12267826,1746,2914,1424,7652,-136,-2181,-4173,32767,44,50,835
747139,10987944,12262372,10990071,12268023,1577,2709,3620,9076,-26,-182,-1185,2792,44,50,835
748140,10988084,12262660,10990268,12268220,1877,2545,3540,6780,-129,491,-584,-1209,30,62,838
749140,10988268,12262980,10990465,12268417,1609,2292,2804,3465,-126,1144,-1691,-2142,30,62,838
750142,10988420,12263248,10990662,12268614,1829,2587,2339,1274,129,1238,-2235,-522,39,60,836
751143,10988576,12263516,10990859,12268811,1822,2556,2106,-176,547,790,-2015,-113,39,60,836
752144,10988744,12263760,10991056,12269008,1761,2687,1899,-1431,842,1049,-1729,-29,33,59,837
753145,10988952,12264040,10991253,12269205,1506,2426,1639,-2735,987,536,-956,166,33,59,837
754146,10989092,12264320,10991450,12269402,1957,2391,1372,-4232,1000,-205,-172,93,40,51,836
755147,10989244,12264564,10991647,12269599,1902,2596,1034,-5582,820,-269,303,773,40,51,836
756148,10989408,12264752,10991844,12269796,1842,2951,630,-6523,670,-839,334,2203,30,45,837
757149,10989552,12264968,10992041,12269993,1990,2769,155,-6765,646,-1107,-175,4115,30,45,837
758150,10989696,12265184,10992238,12270190,2015,2761,-367,-6706,641,-1222,-210,4939,42,44,837
759151,10989844,12265392,10992435,12270387,2011,2808,-876,-6407,648,-1638,115,6014,42,44,837
760152,10990012,12265608,10992632,12270584,1900,2750,-1321,-5846,619,-1668,562,6422,22,51,835
761153,10990184,12265804,10992829,12270781,1886,2877,-1687,-5462,541,-1837,856,6210,22,51,835
762154,10990376,12266000,10993026,12270978,1764,2878,-2000,-4924,518,-2141,909,7175,45,34,835
763155,10990524,12266172,10993223,12271175,2061,3040,-2151,-4335,586,-2146,748,7584,45,34,835
764156,10990668,12266356,10993420,12271372,2110,2972,-1470,-2864,673,-1026,1028,18279,33,36,834
765156,10990800,12266552,10993617,12271569,2213,2898,-295,-929,755,-794,1307,18454,33,36,834
766158,10990936,12266736,10993814,12271766,2216,2980,270,-703,934,-1771,1373,4375,45,31,834
767159,10991076,12266888,10994011,12271963,2216,3201,236,-1731,1236,-1607,1110,2587,45,31,834
768160,10991188,12267040,10994208,12272160,2430,3222,86,-2999,1674,-1518,737,2031,40,28,833
769161,10991336,12267152,10994405,12272357,2226,3510,54,-4137,2189,-1551,268,1896,40,28,833
770162,10991492,12267304,10994602,12272554,2195,3281,117,-5008,2714,-1851,-305,2239,22,38,832
771163,10991632,12267428,10994799,12272751,2321,3489,214,-5729,3198,-2175,-638,2590,22,38,832
772164,10991780,12267524,10994996,12272948,2293,3709,326,-6286,3606,-2168,-756,2963,26,24,830
773165,10991920,12267648,10995193,12273145,2369,3567,456,-6826,3944,-2084,-823,3051,26,24,830
774166,10992072,12267768,10995390,12273342,2314,3627,572,-7213,4231,-1915,-840,3672,26,34,830
775167,10992204,12267928,10995587,12273539,2468,3394,641,-7358,4440,-1662,-722,4452,26,34,830
776168,10992336,12268108,10995784,12273736,2498,3278,672,-7257,4595,-1356,-798,5032,29,20,827
777169,10992444,12268264,10995981,12273933,2687,3447,706,-6924,4730,-1138,-940,5536,29,20,827
778170,10992560,12268412,10996178,12274130,2673,3519,733,-6551,4787,-937,-379,5714,39,25,828
779171,10992676,12268556,10996375,12274327,2710,3569,762,-6077,4728,-819,462,6123,39,25,828
780172,10992824,12268712,10996572,12274524,2532,3513,775,-5437,4602,-716,975,6490,37,39,829
781172,10993000,12268880,10996769,12274721,2367,3451,779,-4781,4488,-420,633,6561,37,39,829
782173,10993144,12269044,10996966,12274918,2591,3493,804,-4102,4418,-147,238,6651,41,40,827
783182,10993280,12269212,10997196,12275148,2683,3496,851,-3440,4346,88,281,6417,41,40,827
784176,10993408,12269392,10997393,12275345,2764,3430,928,-2950,4214,503,569,5753,43,27,827
785177,10993528,12269556,10997590,12275542,2849,3545,1035,-2700,4043,957,696,5161,43,27,827
786178,10993648,12269736,10997787,12275739,2883,3454,1162,-2548,3886,1363,604,4760,40,30,826
787179,10993776,12269932,10997984,12275936,2865,3355,1303,-2509,3736,1701,504,4261,40,30,826
788180,10993876,12270120,10998181,12276133,3082,3410,1460,-2568,3606,2008,227,3836,39,33,826
789181,10994020,12270312,10998378,12276330,2832,3388,1614,-2686,3507,2229,-222,3689,39,33,826
790182,10994148,12270504,10998575,12276527,2963,3392,1743,-2792,3408,2352,-566,3622,34,33,825
791183,10994264,12270708,10998772,12276724,3075,3315,1855,-2921,3286,2341,-736,3499,34,33,825
792184,10994368,12270988,10998969,12276921,3191,2805,1942,-2981,3146,2252,-803,3655,22,54,826
793185,10994444,12271232,10999166,12277118,3421,3010,2004,-2998,2992,2188,-798,3687,22,54,826
794186,10994520,12271480,10999363,12277315,3475,2964,2035,-2983,2828,2327,-557,3685,16,40,826
795187,10994592,12271708,10999560,12277512,3555,3076,2060,-2938,2671,2599,-202,3629,16,40,826
796188,10994656,12271984,10999757,12277709,3664,2742,2099,-2919,2503,2942,166,3631,14,51,827
797189,10994716,12272344,10999954,12277906,3750,2147,2110,-2711,2323,3137,392,4075,14,51,827
798190,10994784,12272660,11000151,12278103,3758,2371,2071,-2368,2135,2991,335,4227,14,63,824
799204,10994840,12272944,11000348,12278300,3800,2534,2009,-2003,1940,3007,124,4162,14,63,824
800192,10994936,12273248,11000545,12278497,3691,2363,1960,-1655,1782,3085,-90,3974,16,70,824
801206,10995020,12273592,11000742,12278694,3800,2050,1933,-1345,1675,3044,-170,3869,16,70,824
802207,10995112,12273912,11000939,12278891,3800,2147,1889,-977,1618,2833,-759,4046,30,61,826
803195,10995260,12274224,11001136,12279088,3488,2147,1846,-524,1578,2311,-1257,4135,30,61,826
804196,10995408,12274504,11001333,12279285,3510,2311,1811,3,1580,1999,-1590,4294,13,56,826
805197,10995556,12274824,11001530,12279482,3533,2007,1788,512,1605,1903,-1575,4080,13,56,826
806198,10995708,12275172,11001727,12279679,3529,1767,1780,981,1642,1694,-1596,4038,41,57,828
807199,10995828,12275472,11001924,12279876,3763,2023,1754,1451,1710,1424,-1600,4089,41,57,828
808200,10995968,12275788,11002121,12280073,3664,1872,1715,1801,1794,1229,-1430,3631,27,57,829
809201,10996096,12276072,11002318,12280270,3772,2034,1712,1972,1841,1248,-871,2838,27,57,829
810214,10996224,12276408,11002515,12280467,3800,1649,1776,1936,1843,1483,-192,2088,40,57,830
811203,10996368,12276720,11002712,12280664,3727,1749,1886,1695,1844,1780,124,1582,40,57,830
812204,10996572,12277020,11002909,12280861,3350,1779,2010,1495,1894,1795,-40,1730,34,61,829
813205,10996800,12277328,11003106,12281058,3188,1682,2125,1528,1958,1242,-98,2266,34,61,829
814206,10997036,12277704,11003303,12281255,3123,1179,2245,1581,1994,860,197,1893,25,70,829
815207,10997308,12278068,11003500,12281452,2866,1181,2374,1502,1995,1090,667,1508,25,70,829
816208,10997512,12278412,11003697,12281649,3289,1242,2478,1482,2012,1154,955,1996,59,71,831
817209,10997732,12278740,11003894,12281846,3179,1284,2526,1564,2009,845,1309,2116,59,71,831
818210,10997976,12279108,11004091,12282043,3010,960,2572,1702,1971,612,1407,1873,64,80,835
819211,10998252,12279520,11004288,12282240,2776,592,2620,1863,1926,615,1328,2172,64,80,835
820212,10998476,12279856,11004485,12282437,3091,1006,2640,2186,1902,643,603,2541,64,77,834
821213,10998704,12280168,11004682,12282634,3054,1106,2618,2625,1920,166,-75,2908,64,77,834
822214,10998948,12280564,11004879,12282831,2934,494,2627,3029,1946,-9,266,2515,45,79,837
823215,10999180,12280920,11005076,12283028,2995,674,2651,3311,1935,485,752,2191,45,79,837
824216,10999440,12281292,11005273,12283225,2793,498,2635,3637,1877,1055,1119,2153,49,81,838
825217,10999752,12281608,11005470,12283422,2418,796,2596,3842,1858,1424,1002,1633,49,81,838
826218,11000028,12281940,11005667,12283619,2610,637,2531,4052,1889,1302,891,1848,46,76,838
827218,11000292,12282272,11005864,12283816,2656,578,2434,4304,1933,828,922,1923,46,76,838
828220,11000600,12282652,11006061,12284013,2334,198,2364,4440,1931,901,1084,1361,54,77,839
829221,11000876,12283068,11006258,12284210,2501,-124,2313,4494,1844,1465,1286,1076,54,77,839
830222,11001144,12283440,11006455,12284407,2520,75,2243,4476,1769,2137,1311,778,66,61,840
831223,11001452,12283668,11006652,12284604,2223,962,2079,4517,1733,2198,1184,1171,66,61,840
832224,11001724,12283900,11006849,12284801,2416,921,1861,4502,1660,1481,1790,839,56,53,842
833225,11001992,12284128,11007046,12284998,2410,933,1639,4504,1509,1385,2004,863,56,53,842
834226,11002348,12284344,11007243,12285195,1792,999,1375,4654,1339,2235,2417,1254,51,56,842
835227,11002668,12284588,11007440,12285392,1963,805,1073,4865,1159,2599,2928,1258,51,56,842
836228,11002964,12284768,11007637,12285589,2070,1212,751,5161,965,2178,3121,1339,73,48,841
837229,11003244,12284952,11007834,12285786,2135,1193,446,5282,705,1302,3398,849,73,48,841
838230,11003556,12285120,11008031,12285983,1885,1306,108,5332,375,1268,3460,1058,68,37,843
839231,11003856,12285316,11008228,12286180,1916,1131,-308,5612,-37,1454,3967,1530,68,37,843
840232,11004188,12285492,11008425,12286377,1657,1265,-775,5910,-446,1402,3866,1367,60,48,842
841233,11004460,12285668,11008622,12286574,2001,1276,-1257,6189,-836,1049,3559,1347,60,48,842
842234,11004728,12285872,11008819,12286771,1994,1098,-1757,6370,-1235,722,3619,1315,51,31,841
843234,11005044,12286040,11009016,12286968,1643,1335,-2312,6599,-1639,645,3348,1464,51,31,841
844236,11005408,12286184,11009213,12287165,1271,1509,-2876,6769,-2050,381,3058,1103,51,46,842
845236,11005708,12286284,11009410,12287362,1626,1826,-3415,6730,-2445,21,2384,612,51,46,842
846238,11005984,12286508,11009607,12287559,1742,1039,-3951,6605,-2784,-126,711,541,65,33,842
847239,11006300,12286732,11009804,12287756,1440,1029,-4452,6347,-3086,-521,-389,41,65,33,842
848240,11006616,12286904,11010001,12287953,1389,1364,-4880,5934,-3383,-1111,-1020,-305,58,49,843
849241,11006932,12287116,11010198,12288150,1337,1108,-5237,5330,-3672,-1565,-841,-648,58,49,843
850242,11007244,12287368,11010395,12288347,1312,834,-5557,4706,-3950,-1817,112,-440,57,49,843
851243,11007568,12287620,11010592,12288544,1182,810,-5861,4203,-4204,-2071,242,-180,57,49,843
852244,11007864,12287868,11010789,12288741,1314,813,-6087,3652,-4381,-2430,-820,-80,67,40,843
853245,11008164,12288076,11010986,12288938,1245,1058,-6229,3140,-4417,-2443,-2374,508,67,40,843
854246,11008472,12288248,11011183,12289135,1146,1294,-6335,2811,-4300,-2204,-3020,1155,64,42,844
855247,11008736,12288416,11011380,12289332,1392,1332,-6456,2629,-4065,-2108,-3582,1768,64,42,844
856248,11009056,12288540,11011577,12289529,988,1639,-6567,2393,-3788,-2451,-3545,1928,68,45,846
857249,11009336,12288720,11011774,12289726,1203,1297,-6628,1939,-3608,-2758,-1926,1855,68,45,846
858250,11009604,12288916,11011971,12289923,1247,1198,-6604,1433,-3602,-2880,-382,1946,51,27,845
859251,11009888,12289064,11012168,12290120,1109,1520,-6464,788,-3679,-2807,-754,1742,51,27,845
860252,11010196,12289196,11012365,12290317,911,1648,-6203,98,-3734,-2690,-1830,1890,65,29,845
861253,11010464,12289328,11012562,12290514,1130,1677,-5895,-625,-3729,-2405,-1981,2197,65,29,845
862254,11010828,12289492,11012759,12290711,457,1491,-5624,-1184,-3666,-1960,-1949,2835,60,24,844
863255,11011120,12289604,11012956,12290908,865,1855,-5420,-1601,-3541,-1596,-2045,3416,60,24,844
864256,11011340,12289724,11013153,12291105,1306,1838,-5241,-2030,-3396,-1311,-1659,3677,52,30,843
865257,11011572,12289820,11013350,12291302,1216,2033,-5074,-2398,-3288,-990,-977,4192,52,30,843
866265,11011800,12289932,11013580,12291532,1242,1985,-4894,-2658,-3222,-694,-611,4530,62,28,842
867259,11012104,12290032,11013777,12291729,721,2103,-4735,-2830,-3183,-367,-681,5154,62,28,842
868260,11012396,12290168,11013974,12291926,754,1905,-4567,-3074,-3142,-187,-820,4934,58,29,843
869261,11012668,12290268,11014171,12292123,846,2173,-4353,-3548,-3067,212,-1019,4493,58,29,843
870262,11012972,12290372,11014368,12292320,600,2190,-4155,-3966,-2965,736,-738,5284,56,32,841
871262,11013208,12290448,11014565,12292517,1008,2418,-2340,-2184,-2906,3535,-1582,28052,56,32,841
872263,11013532,12290532,11014762,12292714,402,2418,1549,2976,-3078,6239,-2316,32767,55,19,842
873265,11013832,12290640,11014959,12292911,507,2307,3850,5064,-3169,2102,-908,9946,55,19,842
874266,11014136,12290764,11015156,12293108,436,2240,3962,3799,-3100,1388,-87,2346,48,24,841
875267,11014472,12290856,11015353,12293305,175,2487,3336,1180,-2998,1845,-578,1005,48,24,841
876267,11014816,12291004,11015550,12293502,60,2158,2854,-591,-2796,1949,-1647,2245,51,21,838
877268,11015136,12291144,11015747,12293699,156,2234,2543,-1813,-2501,1465,-1872,1806,51,21,838
878270,11015428,12291296,11015944,12293896,289,2179,2214,-2881,-2296,1691,-2108,1969,65,25,841
879271,11015720,12291460,11016141,12294093,248,2120,1768,-3888,-2206,1669,-1480,2225,65,25,841
880271,11016004,12291652,11016338,12294290,259,1947,1325,-5011,-2192,1609,-779,1895,51,36,841
881273,11016288,12291804,11016535,12294487,221,2218,919,-6114,-2288,1872,-365,1825,51,36,841
882274,11016552,12291968,11016732,12294684,317,2157,536,-6979,-2377,1729,-366,2760,46,35,843
883275,11016800,12292120,11016929,12294881,394,2253,259,-7578,-2432,1822,-46,2796,46,35,843
884276,11017080,12292272,11017126,12295078,158,2273,91,-8190,-2530,2039,491,2637,40,39,843
885277,11017248,12292404,11017323,12295275,870,2427,-84,-8569,-2611,1908,514,3883,40,39,843
886278,11017500,12292520,11017520,12295472,321,2563,-230,-8596,-2644,1854,-94,4524,54,36,842
887279,11017728,12292660,11017717,12295669,458,2439,-326,-8515,-2718,1611,-656,4541,54,36,842
888280,11017932,12292788,11017914,12295866,605,2545,-508,-8080,-2850,1085,-856,5974,33,22,842
889281,11018120,12292924,11018111,12296063,709,2522,-834,-7201,-2907,592,-1353,6754,33,22,842
890282,11018344,12293056,11018308,12296260,472,2577,-1217,-6293,-2953,170,-327,6423,51,24,840
891283,11018552,12293160,11018505,12296457,567,2792,-1490,-5440,-2972,-287,116,6239,51,24,840
892284,11018744,12293264,11018702,12296654,669,2834,-1687,-4666,-2913,-414,-145,6191,54,33,841
893284,11018932,12293352,11018899,12296851,698,2983,-1869,-3974,-2764,-423,-734,5627,54,33,841
894286,11019076,12293456,11019096,12297048,996,2924,-2021,-3449,-2604,-594,-337,4751,48,23,840
895287,11019224,12293568,11019293,12297245,993,2912,-2207,-3259,-2504,-246,-267,3847,48,23,840
896287,11019376,12293668,11019490,12297442,988,3031,-2490,-3135,-2372,214,-1003,3565,21,24,839
897289,11019532,12293748,11019687,12297639,981,3207,-2653,-3319,-2176,81,-957,2116,21,24,839
898290,11019680,12293840,11019884,12297836,1053,3180,-2637,-3781,-1921,133,-1249,1546,38,17,836
899291,11019844,12293936,11020081,12298033,968,3200,-2627,-4156,-1595,-38,-1951,2316,38,17,836
900292,11020028,12294040,11020278,12298230,848,3192,-2937,-3823,-1166,-640,-3257,4508,39,29,837
901293,11020164,12294164,11020475,12298427,1175,3099,-3404,-3219,-747,-1188,-4113,4001,39,29,837
902294,11020332,12294272,11020672,12298624,988,3239,-3740,-2957,-436,-1448,-4012,3162,34,26,835
903295,11020472,12294356,11020869,12298821,1188,3440,-3981,-2895,-114,-1474,-4586,3513,34,26,835
904296,11020620,12294440,11021066,12299018,1159,3490,-4264,-2715,307,-1234,-5315,3775,38,25,835
905297,11020760,12294544,11021263,12299215,1235,3407,-4587,-2508,785,-1026,-5071,3759,38,25,835
906298,11020932,12294676,11021460,12299412,1046,3262,-4797,-2425,1225,-689,-4687,3301,35,15,835
907299,11021088,12294780,11021657,12299609,1164,3479,-4895,-2501,1649,15,-4788,3262,35,15,835
908300,11021248,12294908,11021854,12299806,1155,3360,-4909,-2574,2057,633,-4453,3604,41,14,830
909300,11021392,12295036,11022051,12300003,1278,3390,-4368,-2124,2407,1923,-4219,8069,41,14,830
910302,11021536,12295168,11022248,12300200,1301,3395,-1531,3208,2386,8616,-4581,32767,21,27,832
911303,11021672,12295312,11022445,12300397,1379,3344,1481,7502,2426,4869,-4686,19888,21,27,832
912304,11021812,12295480,11022642,12300594,1379,3208,2154,7647,2623,2075,-3022,1763,40,30,833
913305,11021948,12295748,11022839,12300791,1431,2553,1664,5697,2846,2087,-3405,167,40,30,833
914306,11022112,12296088,11023036,12300988,1271,2041,1075,3825,3118,2612,-4033,513,22,34,834
915307,11022280,12296456,11023233,12301185,1258,1792,842,2856,3356,2591,-3038,831,22,34,834
916308,11022484,12296800,11023430,12301382,1030,1878,800,1977,3461,3377,-1477,400,39,67,835
917309,11022648,12297180,11023627,12301579,1296,1574,759,1091,3443,4212,-618,221,39,67,835
918310,11022848,12297488,11023824,12301776,1069,1976,678,-5,3423,3786,101,240,39,74,838
919311,11023000,12297776,11024021,12301973,1389,2062,519,-869,3360,3650,247,1173,39,74,838
920312,11023180,12298028,11024218,12302170,1222,2263,313,-1215,3181,3390,162,2682,52,64,842
921313,11023336,12298328,11024415,12302367,1390,1918,81,-1104,2996,3010,-210,4145,52,64,842
922314,11023540,12298684,11024612,12302564,1088,1500,-223,-524,2751,2933,-309,5066,48,49,844
923315,11023676,12299008,11024809,12302761,1539,1645,-483,-45,2389,2482,346,4677,48,49,844
924316,11023872,12299360,11025006,12302958,1165,1402,-677,470,1973,2203,679,5428,35,58,841
925317,11024100,12299684,11025203,12303155,951,1522,-772,1021,1532,2063,716,5129,35,58,841
926318,11024272,12299992,11025400,12303352,1312,1574,-758,1372,1102,1856,751,4795,34,68,842
927319,11024480,12300296,11025597,12303549,1083,1552,-691,1737,661,1866,1158,4790,34,68,842
928320,11024700,12300544,11025794,12303746,998,1881,-561,1757,181,1960,1476,3550,43,57,843
929321,11024896,12300724,11025991,12303943,1149,2314,-378,1685,-266,1983,975,3433,43,57,843
930322,11025064,12300980,11026188,12304140,1336,1813,-115,1433,-653,1871,583,2759,45,45,843
931323,11025252,12301204,11026385,12304337,1215,2002,205,868,-1071,1916,821,1816,45,45,843
932324,11025376,12301432,11026582,12304534,1648,1964,566,234,-1466,2009,1150,1771,33,52,843
933325,11025520,12301668,11026779,12304731,1547,1898,907,-468,-1777,1973,1309,1483,33,52,843
934326,11025660,12301864,11026976,12304928,1597,2149,1197,-1089,-1913,2055,258,1731,44,53,841
935327,11025776,12302072,11027173,12305125,1782,2069,1390,-1669,-1863,1869,-248,1626,44,53,841
936328,11025912,12302276,11027370,12305322,1685,2092,1532,-2264,-1700,1761,-673,1393,20,50,842
937329,11026032,12302456,11027567,12305519,1819,2250,1630,-2833,-1439,1549,-1124,1620,20,50,842
938330,11026132,12302676,11027764,12305716,1987,1990,1724,-3365,-1071,1052,-1211,1985,39,32,841
939331,11026284,12302860,11027961,12305913,1682,2222,1788,-3659,-644,816,-1141,2643,39,32,841
940332,11026452,12303068,11028158,12306110,1595,2067,1830,-3745,-210,621,-854,2898,42,42,839
941332,11026608,12303276,11028355,12306307,1688,2063,1872,-3643,218,446,-504,3437,42,42,839
942334,11026744,12303464,11028552,12306504,1840,2192,1924,-3391,638,212,-319,3704,41,37,837
943335,11026888,12303680,11028749,12306701,1814,2010,1975,-3061,1077,-80,-254,4111,41,37,837
944336,11027040,12303944,11028946,12306898,1784,1681,2013,-2592,1528,-419,-64,4371,27,51,839
945337,11027176,12304176,11029143,12307095,1912,1866,2071,-2145,1962,-740,57,4093,27,51,839
946338,11027304,12304444,11029340,12307292,1992,1611,2131,-1628,2340,-1143,91,4367,41,40,840
947339,11027456,12304672,11029537,12307489,1862,1847,2204,-992,2681,-1426,-212,4609,41,40,840
948340,11027584,12304908,11029734,12307686,2043,1781,2304,-278,2987,-1567,-533,4811,39,52,839
949350,11027716,12305216,11029964,12307916,2061,1297,2417,548,3269,-1616,-1209,5031,39,52,839
950342,11027860,12305500,11030161,12308113,2011,1410,2532,1352,3539,-1718,-1816,4855,22,43,839
951343,11027992,12305796,11030358,12308310,2114,1291,2628,2043,3752,-1745,-1904,4558,22,43,839
952344,11028120,12306172,11030555,12308507,2170,714,2714,2594,3875,-1719,-1007,3977,21,51,839
953345,11028244,12306376,11030752,12308704,2228,1786,2775,2967,3914,-1524,-140,3278,21,51,839
954346,11028364,12306560,11030949,12308901,2286,1917,2776,3154,3887,-1306,145,2527,23,50,840
955347,11028484,12306732,11031146,12309098,2321,2003,2690,3108,3812,-1184,70,1856,23,50,840
956348,11028628,12306936,11031343,12309295,2195,1800,2574,2865,3697,-1002,-305,1226,25,38,841
957349,11028760,12307164,11031540,12309492,2299,1638,2464,2522,3542,-813,-487,974,25,38,841
958350,11028904,12307416,11031737,12309689,2247,1463,2359,2171,3377,-572,-272,872,42,39,839
959351,11029064,12307720,11031934,12309886,2165,1092,2210,1850,3183,-309,230,792,42,39,839
960351,11029208,12308060,11032131,12310083,2289,805,2002,1449,2931,-100,694,425,28,55,837
961352,11029336,12308240,11032328,12310280,2419,1813,1767,990,2637,135,1102,374,28,55,837
962353,11029496,12308508,11032525,12310477,2237,1232,1542,585,2331,306,1345,554,41,67,839
963355,11029656,12308788,11032722,12310674,2253,1120,1298,279,2028,361,1391,820,41,67,839
964356,11029780,12309016,11032919,12310871,2511,1433,995,60,1738,345,1226,1225,28,50,840
965357,11029940,12309284,11033116,12311068,2302,1151,631,-54,1478,335,1049,1520,28,50,840
966358,11030088,12309588,11033313,12311265,2400,879,192,-30,1236,321,725,1970,43,48,838
967359,11030228,12309876,11033510,12311462,2476,940,-274,71,975,142,576,1969,43,48,838
968360,11030376,12310220,11033707,12311659,2447,526,-729,146,700,48,629,2103,29,54,841
969361,11030544,12310544,11033904,12311856,2336,595,-1172,270,431,67,929,2418,29,54,841
970362,11030712,12310828,11034101,12312053,2350,807,-1609,462,216,121,874,2756,23,64,840
971363,11030892,12311088,11034298,12312250,2282,930,-2017,666,31,224,1477,2769,23,64,840
972364,11031076,12311284,11034495,12312447,2264,1331,-2372,751,-150,482,2106,2525,32,47,840
973364,11031276,12311500,11034692,12312644,2163,1197,-2672,833,-300,570,2429,2505,32,47,840
974366,11031456,12311764,11034889,12312841,2296,868,-2884,770,-400,573,2393,2336,47,54,841
975367,11031668,12312068,11035086,12313038,2091,572,-3029,721,-487,633,2521,2615,47,54,841
976368,11031884,12312432,11035283,12313235,2057,123,-3136,750,-507,829,2429,3084,43,58,840
977369,11032068,12312760,11035480,12313432,2264,291,-3228,841,-498,846,2580,3288,43,58,840
978370,11032284,12313032,11035677,12313629,2057,608,-3254,1071,-527,623,2783,3684,36,65,841
979371,11032480,12313328,11035874,12313826,2182,414,-3205,1417,-563,382,2318,4158,36,65,841
980372,11032648,12313728,11036071,12314023,2371,-325,-3124,1820,-622,291,2693,4481,38,51,843
981373,11032856,12314048,11036268,12314220,2117,121,-3063,2351,-682,134,3521,5155,38,51,843
982374,11033036,12314168,11036465,12314417,2299,1405,-3055,3092,-725,-218,3551,5855,40,61,843
983375,11033216,12314396,11036662,12314614,2308,716,-3047,3880,-786,-503,3280,6069,40,61,843
984376,11033400,12314616,11036859,12314811,2290,756,-1885,6413,-653,-1094,1523,22381,35,51,843
985377,11033580,12314880,11037056,12315008,2322,452,677,11524,-267,-1697,915,32767,35,51,843
986378,11033764,12315080,11037253,12315205,2304,850,2146,13351,-221,-495,2974,4754,49,44,843
987379,11033952,12315304,11037450,12315402,2284,689,2160,12481,-397,-255,3273,1877,49,44,843
988380,11034148,12315488,11037647,12315599,2234,945,1668,10750,-613,233,3290,1082,32,57,842
989381,11034344,12315652,11037844,12315796,2236,1085,1215,9625,-771,42,2696,1647,32,57,842
990382,11034572,12315804,11038041,12315993,2023,1180,866,8990,-930,-934,2304,1842,49,48,842
991383,11034800,12315924,11038238,12316190,2009,1413,526,8266,-1338,-1459,2284,1406,49,48,842
992384,11035008,12316064,11038435,12316387,2131,1313,90,7523,-1835,-1782,1200,1795,36,41,842
993385,11035236,12316204,11038632,12316584,1993,1338,-404,6634,-2225,-2370,248,1628,36,41,842
994386,11035476,12316316,11038829,12316781,1899,1551,-976,5618,-2641,-2565,470,1187,58,37,841
995387,11035680,12316412,11039026,12316978,2122,1695,-1497,4474,-3129,-3063,1509,1021,58,37,841
996388,11035908,12316500,11039223,12317175,1958,1793,-1275,3220,-3497,-4904,1553,6885,49,18,839
997389,11036156,12316572,11039420,12317372,1812,1948,1351,1713,-3277,-9282,-1214,30163,49,18,839
998390,11036380,12316636,11039617,12317569,1951,2057,3157,890,-3056,-5447,227,12351,45,11,840
999391,11036600,12316696,11039814,12317766,1966,2142,2697,403,-3172,-3437,1639,3224,45,11,840
1000392,11036844,12316756,11040011,12317963,1796,2203,1407,-63,-3498,-3037,1759,2815,48,19,839
1001393,11037076,12316832,11040208,12318160,1857,2156,397,-727,-3686,-3059,1408,2657,48,19,839
1002394,11037300,12316912,11040405,12318357,1895,2183,-324,-1253,-3535,-2408,254,3606,45,8,839
1003395,11037584,12316976,11040602,12318554,1483,2341,-1057,-1454,-3032,-1817,-614,3835,45,8,839
1004396,11037856,12317028,11040799,12318751,1525,2481,-1601,-2173,-2685,-2383,1196,1896,47,16,838
1005396,11038092,12317096,11040996,12318948,1734,2437,-1946,-3032,-2696,-2177,1877,2110,47,16,838
1006398,11038368,12317188,11041193,12319145,1449,2334,-2215,-4018,-2746,-1803,1207,1830,60,19,838
1007399,11038624,12317288,11041390,12319342,1549,2327,-2561,-4665,-2553,-1400,386,3331,60,19,838
1008400,11038892,12317396,11041587,12319539,1443,2316,-2957,-4899,-2109,-1155,-354,3962,44,29,838
1009401,11039172,12317512,11041784,12319736,1332,2303,-3251,-5237,-1602,-1060,-594,3697,44,29,838
1010401,11039408,12317624,11041981,12319933,1590,2365,-2846,-5684,-1041,-596,-369,8312,61,16,837
1011402,11039656,12317740,11042178,12320130,1494,2376,-1909,-5651,-1007,-260,-870,11901,61,16,837
1012404,11039952,12317856,11042375,12320327,1150,2412,-1216,-5475,-896,-955,-1340,7804,51,26,839
1013405,11040228,12317992,11042572,12320524,1242,2314,-1020,-5515,-708,-1332,-1152,4981,51,26,839
1014406,11040476,12318124,11042769,12320721,1394,2369,-1054,-5530,-521,-1309,-1292,4773,48,29,839
1015407,11040724,12318248,11042966,12320918,1373,2451,-998,-5643,-375,-1425,-1026,4257,48,29,839
1016408,11040952,12318376,11043163,12321115,1484,2457,-836,-5646,-279,-1114,-980,4373,57,29,839
1017409,11041180,12318472,11043360,12321312,1472,2702,-618,-5611,-200,-850,-793,4154,57,29,839
1018410,11041440,12318608,11043557,12321509,1244,2479,-380,-5642,-123,-756,-925,3996,48,26,839
1019410,11041700,12318764,11043754,12321706,1216,2372,-132,-5666,-61,-644,-1308,3887,48,26,839
1020412,11041948,12318900,11043951,12321903,1270,2525,149,-5789,-36,-681,-1295,3386,41,36,837
1021412,11042176,12319020,11044148,12322100,1381,2660,464,-5877,-27,-521,-1455,3536,41,36,837
1022414,11042424,12319148,11044345,12322297,1235,2640,770,-5900,-21,-355,-1541,3546,57,39,837
1023415,11042652,12319272,11044542,12322494,1346,2698,1074,-5860,-17,-180,-1358,3611,57,39,837
1024416,11042880,12319412,11044739,12322691,1332,2623,1358,-5730,-22,216,-1052,3659,41,31,839
1025417,11043124,12319520,11044936,12322888,1213,2864,1663,-5622,-40,457,-703,3452,41,31,839
1026418,11043348,12319616,11045133,12323085,1326,2984,1935,-5475,-70,548,-849,3694,51,32,837
1027418,11043584,12319716,11045330,12323282,1234,3002,2188,-5237,-118,566,-988,3685,51,32,837
1028420,11043828,12319828,11045527,12323479,1164,2965,2401,-4991,-146,749,-1036,3669,57,17,837
1029421,11044060,12319944,11045724,12323676,1224,2977,2569,-4556,-133,848,-1080,4009,57,17,837
1030422,11044264,12320064,11045921,12323873,1396,2985,2708,-4123,-101,911,-769,3912,36,21,836
1031423,11044512,12320176,11046118,12324070,1099,3074,2824,-3681,-85,1120,-436,3707,36,21,836
1032431,11044728,12320280,11046348,12324300,1305,3180,2916,-3252,-72,1287,-178,3661,51,34,836
1033424,11044920,12320384,11046545,12324497,1458,3222,2945,-2805,-41,1412,148,3678,51,34,836
1034426,11045180,12320508,11046742,12324694,1006,3129,2900,-2333,19,1620,-203,3630,41,19,835
1035426,11045424,12320600,11046939,12324891,1085,3376,2824,-1926,107,1610,-505,3179,41,19,835
1036428,11045676,12320720,11047136,12325088,1011,3236,2760,-1629,199,1535,-663,2840,56,18,835
1037428,11045932,12320828,11047333,12325285,960,3351,2685,-1331,275,1418,-901,2689,56,18,835
1038430,11046148,12320936,11047530,12325482,1203,3391,2582,-1062,353,1365,-1055,2556,48,24,834
1039431,11046392,12321048,11047727,12325679,1007,3405,2453,-839,432,1526,-1143,2307,48,24,834
1040432,11046628,12321176,11047924,12325876,1040,3335,2311,-723,490,1577,-960,1894,54,21,833
1041433,11046916,12321320,11048121,12326073,675,3259,2139,-626,519,1555,-772,1764,54,21,833
1042434,11047180,12321440,11048318,12326270,797,3444,1922,-591,533,1533,-918,1549,42,19,833
1043434,11047436,12321576,11048515,12326467,821,3372,1672,-561,562,1463,-1236,1430,42,19,833
1044436,11047704,12321700,11048712,12326664,714,3480,1418,-588,612,1278,-1577,1222,48,27,834
1045437,11047968,12321860,11048909,12326861,710,3272,1174,-654,664,1082,-1725,1108,48,27,834
1046438,11048164,12322048,11049106,12327058,1136,3102,904,-683,706,873,-1816,1359,41,30,836
1047439,11048432,12322188,11049303,12327255,655,3428,595,-631,742,810,-1475,1425,41,30,836
1048440,11048652,12322328,11049500,12327452,945,3454,277,-592,755,899,-1336,1318,57,42,835
1049441,11048868,12322468,11049697,12327649,962,3480,-56,-629,760,927,-1549,1241,57,42,835
1050442,11049128,12322628,11049894,12327846,659,3373,-364,-692,775,958,-1908,994,36,39,836
1051443,11049324,12322804,11050091,12328043,1060,3283,-672,-839,796,1042,-2247,877,36,39,836
1052444,11049488,12322980,11050288,12328240,1274,3293,-966,-1068,822,968,-2287,812,40,34,834
1053445,11049700,12323140,11050485,12328437,968,3410,-1276,-1249,855,1008,-2542,1017,40,34,834
1054446,11049880,12323300,11050682,12328634,1176,3428,-1573,-1368,885,1069,-2467,1047,38,26,834
1055447,11050044,12323480,11050879,12328831,1290,3311,-1858,-1546,896,1098,-2205,1131,38,26,834
1056448,11050224,12323648,11051076,12329028,1198,3400,-2127,-1651,883,1150,-1845,1285,28,27,835
1057449,11050412,12323860,11051273,12329225,1152,3119,-2394,-1753,852,1140,-1325,1423,28,27,835
1058450,11050572,12324060,11051470,12329422,1343,3194,-2666,-1816,825,1243,-1531,1736,39,29,834
1059451,11050756,12324252,11051667,12329619,1200,3247,-2913,-1954,814,1361,-2061,1647,39,29,834
1060451,11050904,12324448,11051864,12329816,1446,3223,-3133,-2095,789,1428,-2143,1645,46,46,834
1061453,11051068,12324636,11052061,12330013,1361,3278,-3352,-2225,728,1427,-1855,1885,46,46,834
1062454,11051244,12324816,11052258,12330210,1295,3337,-3601,-2299,658,1446,-2063,2231,41,47,835
1063455,11051424,12325020,11052455,12330407,1278,3185,-3853,-2291,603,1547,-2411,2553,41,47,835
1064456,11051620,12325192,11052652,12330604,1178,3397,-4076,-2256,548,1551,-2519,2718,37,45,834
1065457,11051836,12325388,11052849,12330801,1046,3248,-4240,-2245,476,1571,-2652,2903,37,45,834
1066458,11052000,12325604,11053046,12330998,1385,3116,-4350,-2251,390,1503,-2576,3000,41,49,834
1067459,11052168,12325832,11053243,12331195,1373,3028,-4437,-2206,301,1498,-2518,3185,41,49,834
1068460,11052324,12326092,11053440,12331392,1466,2802,-4495,-2162,206,1483,-2285,3271,34,54,835
1069461,11052504,12326340,11053637,12331589,1323,2855,-4535,-2217,88,1373,-1904,3250,34,54,835
1070462,11052660,12326576,11053834,12331786,1492,2914,-4557,-2326,-62,1200,-1551,3357,44,60,835
1071463,11052824,12326852,11054031,12331983,1457,2630,-4588,-2346,-214,1012,-1480,3658,44,60,835
1072463,11052988,12327108,11054228,12332180,1471,2730,-4613,-2329,-329,950,-1800,3968,46,42,835
1073465,11053172,12327360,11054425,12332377,1352,2732,-4628,-2322,-384,1041,-2053,4045,46,42,835
1074466,11053316,12327644,11054622,12332574,1626,2495,-4275,-2088,-387,1065,-2263,6728,32,60,835
1075467,11053496,12327900,11054819,12332771,1409,2645,-1355,3141,-153,1251,-3168,32767,32,60,835
1076467,11053656,12328180,11055016,12332968,1550,2460,2215,8384,20,215,-1792,29450,38,49,837
1077469,11053788,12328448,11055213,12333165,1754,2504,3307,8682,-92,602,-235,918,38,49,837
1078470,11053928,12328724,11055410,12333362,1730,2421,2853,6183,-120,822,-1427,-354,39,51,838
1079471,11054068,12328996,11055607,12333559,1755,2414,2179,3457,47,1214,-2473,-776,39,51,838
1080472,11054212,12329276,11055804,12333756,1753,2328,1848,1816,334,749,-2206,271,37,59,838
1081473,11054396,12329508,11056001,12333953,1510,2613,1715,324,606,376,-1868,-724,37,59,838
1082474,11054556,12329784,11056198,12334150,1676,2304,1561,-1228,700,649,-1571,-608,38,54,837
1083475,11054696,12330020,11056395,12334347,1826,2538,1399,-2862,714,74,-512,-487,38,54,837
1084476,11054864,12330260,11056592,12334544,1664,2495,1157,-4434,673,19,-142,116,30,47,837
1085477,11055008,12330484,11056789,12334741,1838,2584,842,-5579,598,61,-329,1158,30,47,837
1086478,11055176,12330680,11056986,12334938,1701,2760,459,-6350,631,-522,-468,2594,32,44,836
1087479,11055320,12330896,11057183,12335135,1874,2627,23,-6536,665,-531,-335,4211,32,44,836
1088480,11055492,12331104,11057380,12335332,1711,2674,-419,-6689,646,-942,-79,4306,39,38,836
1089481,11055656,12331284,11057577,12335529,1776,2857,-818,-6570,638,-1569,220,5782,39,38,836
1090482,11055840,12331472,11057774,12335726,1657,2812,-1245,-6006,626,-1747,462,7020,32,32,835
1091483,11056004,12331668,11057971,12335923,1797,2763,-1637,-5401,652,-1963,646,7056,32,32,835
1092484,11056144,12331832,11058168,12336120,1972,2978,-1772,-4457,771,-1935,757,9522,45,33,835
1093485,11056284,12331988,11058365,12336317,1998,3047,-1015,-2235,918,-823,1216,22370,45,33,835
1094486,11056440,12332136,11058562,12336514,1916,3119,-88,-183,1075,-1094,1397,14747,24,44,834
1095487,11056580,12332304,11058759,12336711,2041,3008,122,372,1324,-1863,1518,5784,24,44,834
1096488,11056700,12332460,11058956,12336908,2201,3102,-18,-323,1628,-1737,1568,3586,42,42,834
1097488,11056864,12332592,11059153,12337105,1940,3282,-141,-1279,1972,-1443,1288,3220,42,42,834
1098490,11057008,12332692,11059350,12337302,2090,3524,-112,-2095,2400,-1605,1019,2664,24,37,832
1099490,11057148,12332824,11059547,12337499,2140,3354,-9,-2951,2855,-1412,406,2240,24,37,832
1100491,11057308,12332940,11059744,12337696,2032,3491,83,-3686,3285,-1447,28,2620,32,21,832
1101492,11057428,12333056,11059941,12337893,2316,3527,201,-4390,3695,-1644,18,2723,32,21,832
1102494,11057572,12333172,11060138,12338090,2190,3564,334,-5030,4018,-1382,-180,2828,26,17,831
1103495,11057708,12333276,11060335,12338287,2267,3681,475,-5573,4287,-1453,-441,3294,26,17,831
1104496,11057852,12333416,11060532,12338484,2241,3482,585,-5831,4513,-1395,-584,4134,24,23,829
1105496,11057964,12333560,11060729,12338681,2479,3481,664,-5879,4660,-1141,-940,4439,24,23,829
1106498,11058080,12333736,11060926,12338878,2490,3291,736,-5856,4773,-1203,-1079,4825,37,37,827
1107498,11058204,12333872,11061123,12339075,2472,3569,792,-5602,4835,-1137,-851,5437,37,37,827
1108499,11058312,12334004,11061320,12339272,2612,3624,844,-5339,4803,-904,-516,5295,34,24,826
1109500,11058472,12334152,11061517,12339469,2304,3546,892,-5030,4705,-704,23,5781,34,24,826
1110502,11058628,12334304,11061714,12339666,2348,3542,941,-4570,4579,-484,257,5976,30,31,827
1111503,11058740,12334468,11061911,12339863,2660,3482,1004,-4152,4421,-70,357,5682,30,31,827
1112504,11058888,12334664,11062108,12340060,2458,3284,1080,-3673,4241,181,526,6001,24,26,827
1113505,11059004,12334832,11062305,12340257,2694,3473,1174,-3276,4040,529,851,5622,24,26,827
1114506,11059112,12335020,11062502,12340454,2783,3352,1275,-3020,3818,1274,915,5012,31,27,828
1115513,11059236,12335196,11062732,12340684,2731,3452,1386,-2878,3609,1774,1026,4630,31,27,828
1116508,11059356,12335396,11062929,12340881,2791,3302,1515,-2890,3403,2160,1189,4078,26,27,826
1117508,11059472,12335624,11063126,12341078,2851,3114,1606,-2911,3197,2556,873,4029,26,27,826
1118510,11059616,12335824,11063323,12341275,2701,3289,1668,-2935,3043,2701,501,3902,35,31,825
1119511,11059752,12336040,11063520,12341472,2778,3182,1695,-2909,2914,2798,31,3925,35,31,825
1120512,11059868,12336272,11063717,12341669,2939,3067,1695,-2928,2780,2681,-273,3721,21,37,827
1121513,11059960,12336572,11063914,12341866,3136,2598,1700,-2960,2651,2446,-485,3625,21,37,827
1122514,11060072,12336852,11064111,12342063,3049,2687,1701,-2946,2536,2630,-688,3728,25,44,829
1123515,11060144,12337108,11064308,12342260,3355,2813,1675,-2866,2451,3134,-437,3622,25,44,829
1124516,11060200,12337344,11064505,12342457,3517,2921,1629,-2718,2402,3401,-303,3783,36,45,828
1125516,11060280,12337636,11064702,12342654,3420,2531,1604,-2559,2298,3287,-141,3633,36,45,828
1126518,11060356,12337960,11064899,12342851,3499,2276,1605,-2372,2151,3108,-223,3648,11,62,828
1127519,11060424,12338236,11065096,12343048,3607,2542,1592,-2094,2032,3069,-296,3881,11,62,828
1128520,11060508,12338524,11065293,12343245,3557,2428,1553,-1780,1921,2916,-420,3847,15,65,826
1129521,11060620,12338824,11065490,12343442,3421,2309,1511,-1414,1822,2736,-571,3770,15,65,826
1130522,11060736,12339128,11065687,12343639,3432,2238,1476,-1011,1758,2246,-1004,3894,31,54,827
1131523,11060920,12339440,11065884,12343836,3014,2138,1432,-543,1723,1513,-1677,4078,31,54,827
1132524,11061104,12339712,11066081,12344033,3021,2355,1366,23,1673,853,-1661,4356,18,63,826
1133524,11061296,12340000,11066278,12344230,2974,2216,1305,685,1608,239,-850,4268,18,63,826
1134526,11061508,12340276,11066475,12344427,2843,2258,1305,1188,1499,144,90,3535,42,49,829
1135527,11061688,12340596,11066672,12344624,3051,1930,1352,1436,1365,617,810,3093,42,49,829
1136528,11061888,12340892,11066869,12344821,2925,2037,1429,1630,1250,911,1424,2738,54,52,832
1137529,11062076,12341188,11067066,12345018,3005,1994,1556,1642,1114,745,1582,2025,54,52,832
1138529,11062288,12341464,11067263,12345215,2850,2085,1717,1545,1026,502,1336,1665,56,64,833
1139530,11062488,12341788,11067460,12345412,2924,1730,1851,1521,1026,59,1264,2023,56,64,833
1140531,11062696,12342120,11067657,12345609,2871,1621,1945,1665,1101,-464,813,2397,39,59,832
1141532,11062880,12342436,11067854,12345806,3027,1669,2051,1843,1164,-869,1069,2240,39,59,832
1142533,11063036,12342708,11068051,12346003,3221,1912,2200,1860,1153,-795,1656,1670,36,63,833
1143535,11063228,12343040,11068248,12346200,3000,1478,2347,1795,1095,-152,1718,1397,36,63,833
1144536,11063456,12343420,11068445,12346397,2762,1099,2444,1775,1071,372,1404,1474,40,67,834
1145537,11063708,12343764,11068642,12346594,2589,1260,2507,1799,1122,112,550,1628,40,67,834
1146538,11063936,12344100,11068839,12346791,2726,1249,2543,1887,1206,-362,67,1751,49,57,835
1147539,11064176,12344456,11069036,12346988,2633,1055,2565,2030,1314,-583,59,1885,49,57,835
1148540,11064396,12344800,11069233,12347185,2749,1066,2583,2131,1430,-247,446,1645,44,65,835
1149540,11064612,12345176,11069430,12347382,2767,788,2609,2098,1500,416,910,1214,44,65,835
1150541,11064860,12345504,11069627,12347579,2545,1030,2634,2026,1531,1054,1195,1214,54,70,837
1151543,11065108,12345816,11069824,12347776,2524,1080,2652,2047,1581,1337,1185,1315,54,70,837
1152544,11065324,12346168,11070021,12347973,2716,763,2626,2204,1654,1033,770,1839,41,64,838
1153545,11065584,12346548,11070218,12348170,2414,507,2535,2485,1726,551,779,2268,41,64,838
1154545,11065804,12346804,11070415,12348367,2655,1256,2390,2791,1773,843,1170,2138,61,71,839
1155547,11066068,12347144,11070612,12348564,2351,670,2229,3073,1746,1706,1671,1925,61,71,839
1156547,11066348,12347500,11070809,12348761,2216,500,2071,3238,1689,2192,1779,1538,41,74,840
1157548,11066640,12347832,11071006,12348958,2100,590,1872,3455,1606,2061,1721,1969,41,74,840
1158550,11066912,12348164,11071203,12349155,2193,531,1605,3802,1518,1438,1578,2445,52,61,841
1159551,11067196,12348548,11071400,12349352,2080,125,1352,4119,1418,1321,2049,2014,52,61,841
1160552,11067444,12348980,11071597,12349549,2284,-278,1113,4363,1246,1750,2509,1794,69,71,842
1161552,11067732,12349208,11071794,12349746,1995,983,882,4523,1038,2312,2625,1374,69,71,842
1162554,11068056,12349448,11071991,12349943,1715,889,646,4584,852,2596,2533,1255,67,58,842
1163554,11068356,12349652,11072188,12350140,1820,1111,381,4643,669,1994,2627,1110,67,58,842
1164555,11068624,12349868,11072385,12350337,1989,1028,89,4578,438,1411,2819,867,66,48,844
1165556,11068896,12350132,11072582,12350534,1932,698,-207,4497,145,1698,2856,872,66,48,844
1166557,11069232,12350280,11072779,12350731,1472,1445,-518,4425,-159,1761,2833,639,48,40,842
1167559,11069520,12350452,11072976,12350928,1732,1306,-858,4360,-472,1405,2583,597,48,40,842
1168560,11069792,12350624,11073173,12351125,1800,1317,-1191,4244,-792,676,2110,412,49,49,843
1169561,11070084,12350800,11073370,12351322,1635,1302,-1520,4074,-1119,225,1734,589,49,49,843
1170562,11070360,12350956,11073567,12351519,1700,1445,-1949,4130,-1461,364,1725,1616,72,31,844
1171563,11070684,12351172,11073764,12351716,1345,1062,-2469,4355,-1733,379,1560,1669,72,31,844
1172563,11070996,12351308,11073961,12351913,1369,1588,-2948,4445,-1976,1,1576,914,49,42,842
1173564,11071304,12351400,11074158,12352110,1347,1910,-3339,4294,-2272,-463,1564,378,49,42,842
1174566,11071544,12351636,11074355,12352307,1754,992,-3721,4136,-2581,-651,838,793,69,34,842
1175567,11071840,12351840,11074552,12352504,1360,1189,-4171,4176,-2794,-830,-113,1381,69,34,842
1176568,11072152,12352048,11074749,12352701,1211,1159,-4638,4243,-2924,-1397,-579,1213,50,32,845
1177569,11072436,12352272,11074946,12352898,1348,1048,-5058,4068,-3082,-1761,-257,661,50,32,845
1178570,11072748,12352436,11075143,12353095,1123,1438,-5441,3728,-3300,-2035,-152,398,50,35,842
1179571,11073040,12352648,11075340,12353292,1206,1132,-5792,3201,-3528,-2352,-655,27,50,35,842
1180572,11073344,12352876,11075537,12353489,1084,1018,-6089,2641,-3658,-2423,-1943,168,59,35,844
1181573,11073636,12353108,11075734,12353686,1118,978,-6347,2196,-3642,-2296,-2610,903,59,35,844
1182574,11073888,12353364,11075931,12353883,1344,802,-6569,1849,-3582,-2234,-1944,1093,68,39,845
1183575,11074120,12353556,11076128,12354080,1455,1204,-6739,1360,-3527,-2447,-1687,957,68,39,845
1184576,11074448,12353732,11076325,12354277,797,1313,-6823,629,-3428,-2566,-2611,746,57,47,844
1185577,11074724,12353892,11076522,12354474,1088,1429,-6828,-54,-3278,-2333,-3028,1196,57,47,844
1186578,11075016,12354008,11076719,12354671,947,1740,-6820,-543,-3128,-2176,-2791,2030,54,44,846
1187579,11075260,12354144,11076916,12354868,1226,1643,-6786,-1001,-3019,-2179,-2495,2377,54,44,846
1188580,11075620,12354288,11077113,12355065,430,1616,-6699,-1503,-2964,-2071,-2022,2316,57,30,844
1189581,11075864,12354468,11077310,12355262,1135,1398,-6586,-2043,-2932,-1821,-1648,2673,57,30,844
1190582,11076168,12354588,11077507,12355459,713,1807,-6459,-2557,-2876,-1588,-1692,3172,64,38,844
1191583,11076412,12354740,11077704,12355656,1067,1627,-6318,-2998,-2780,-1421,-1629,3636,64,38,844
1192584,11076648,12354880,11077901,12355853,1100,1727,-6377,-2868,-2703,-776,-712,5936,46,23,843
1193585,11076868,12354992,11078098,12356050,1191,1940,-6441,-2586,-2677,-515,-668,5374,46,23,843
1194586,11077132,12355088,11078295,12356247,887,2085,-6338,-2853,-2639,-178,-1052,4170,59,27,844
1195587,11077340,12355208,11078492,12356444,1232,1969,-6084,-3309,-2570,419,-780,4549,59,27,844
1196588,11077676,12355304,11078689,12356641,371,2163,-4996,-2992,-2502,2106,-979,11822,36,27,843
1197589,11077952,12355392,11078886,12356838,712,2261,-1009,3801,-2912,9837,-1423,32767,36,27,843
1198597,11078228,12355504,11079116,12357068,692,2164,2539,8697,-3247,3997,-1516,19845,63,15,841
1199591,11078492,12355616,11079313,12357265,737,2201,3084,8488,-3148,1518,-1089,2571,63,15,841
1200592,11078776,12355712,11079510,12357462,574,2346,2355,5454,-2923,1663,-1126,-400,53,22,841
1201593,11079088,12355816,11079707,12357659,349,2337,1672,2510,-2697,1949,-2718,-185,53,22,841
1202594,11079384,12355896,11079904,12357856,405,2539,1281,714,-2439,1366,-3043,589,43,14,841
1203595,11079720,12355972,11080101,12358053,94,2617,882,-683,-2303,1228,-2584,820,43,14,841
1204596,11080024,12356064,11080298,12358250,247,2564,345,-1807,-2333,1266,-2489,1549,45,24,841
1205596,11080324,12356144,11080495,12358447,228,2691,-246,-2844,-2435,541,-1760,2252,45,24,841
1206598,11080664,12356220,11080692,12358644,-85,2770,-808,-3703,-2592,421,-2071,2844,70,25,841
1207599,11080944,12356312,11080889,12358841,253,2716,-1256,-4469,-2759,317,-2029,2860,70,25,841
1208600,11081176,12356408,11081086,12359038,538,2736,-1562,-5241,-2859,243,-1773,3143,48,16,841
1209601,11081532,12356552,11081283,12359235,-307,2460,-1757,-5840,-3014,662,-1403,3290,48,16,841
1210602,11081820,12356664,11081480,12359432,78,2698,-1837,-6465,-3240,462,-939,3203,49,20,840
1211603,11082084,12356772,11081677,12359629,198,2762,-1780,-6938,-3456,544,-1150,3652,49,20,840
1212604,11082364,12356892,11081874,12359826,61,2722,-1651,-7333,-3646,1195,-1512,3770,44,21,840
1213605,11082604,12357076,11082071,12360023,292,2328,-1577,-7507,-3794,1401,-1381,4802,44,21,840
1214606,11082804,12357292,11082268,12360220,541,2120,-1544,-7282,-3906,1144,-1197,5296,50,24,840
1215607,11083092,12357504,11082465,12360417,-49,2139,-1520,-7214,-4030,959,-513,4764,50,24,840
1216608,11083340,12357720,11082662,12360614,179,2106,-1506,-7195,-4113,922,40,4900,37,48,839
1217609,11083572,12357876,11082859,12360811,263,2499,-1452,-7116,-4054,800,295,4596,37,48,839
1218610,11083684,12358044,11083056,12361008,1051,2438,-1486,-6961,-3811,894,24,5098,32,46,841
1219611,11083912,12358192,11083253,12361205,312,2586,-1613,-6585,-3434,924,24,5744,32,46,841
1220612,11084132,12358356,11083450,12361402,351,2500,-1755,-6109,-3057,1090,659,5469,53,36,843
1221613,11084296,12358480,11083647,12361599,715,2783,-1927,-5563,-2755,1658,492,5598,53,36,843
1222614,11084488,12358608,11083844,12361796,542,2788,-2091,-5011,-2483,2032,493,5379,45,33,841
1223615,11084636,12358716,11084041,12361993,839,2954,-2151,-4798,-2187,2591,491,4097,45,33,841
1224616,11084776,12358820,11084238,12362190,914,3020,-2155,-4677,-1816,3630,313,3936,41,33,840
1225617,11084920,12358924,11084435,12362387,912,3061,-2126,-4626,-1440,3893,528,3544,41,33,840
1226618,11085080,12359056,11084632,12362584,829,2916,-2077,-4436,-1205,3828,691,3818,25,26,838
1227618,11085236,12359188,11084829,12362781,872,2945,-2050,-4039,-1085,3271,-153,4437,25,26,838
1228619,11085396,12359304,11085026,12362978,863,3081,-2074,-3308,-888,2415,-1331,5490,25,22,836
1229620,11085540,12359424,11085223,12363175,985,3091,-2074,-2488,-602,1696,-2063,5171,25,22,836
1230622,11085692,12359548,11085420,12363372,955,3099,-1953,-1962,-325,997,-2472,4344,18,31,836
1231623,11085844,12359656,11085617,12363569,975,3238,-1809,-1456,-62,439,-3131,4992,18,31,836
1232623,11085984,12359772,11085814,12363766,1075,3225,-1713,-809,205,209,-3708,4968,18,18,837
1233625,11086104,12359876,11086011,12363963,1234,3342,-1656,-183,463,152,-4042,4829,18,18,837
1234626,11086268,12359960,11086208,12364160,973,3517,-1596,401,720,172,-4382,4773,21,25,835
1235627,11086400,12360064,11086405,12364357,1202,3433,-1516,891,984,322,-4692,4513,21,25,835
1236627,11086556,12360164,11086602,12364554,1070,3502,-1523,1405,1242,542,-4998,4706,33,29,835
1237629,11086716,12360260,11086799,12364751,1061,3572,-1635,1975,1474,659,-4985,4623,33,29,835
1238630,11086864,12360376,11086996,12364948,1158,3484,-1773,2447,1675,762,-5006,4294,41,17,832
1239630,11087000,12360504,11087193,12365145,1259,3440,-1901,2764,1859,835,-5247,4085,41,17,832
1240632,11087112,12360700,11087390,12365342,1447,3016,-1994,2919,2034,953,-5018,3706,36,29,831
1241633,11087268,12360952,11087587,12365539,1190,2643,-2013,2822,2214,1194,-4505,2957,36,29,831
1242634,11087396,12361268,11087784,12365736,1395,2191,-1944,2515,2385,1680,-3599,2354,41,42,832
1243635,11087556,12361588,11087981,12365933,1212,2113,-1356,2730,2476,3558,-2190,8658,41,42,832
1244636,11087708,12361880,11088178,12366130,1282,2247,-256,3855,2456,5299,-1243,15010,30,51,833
1245637,11087872,12362152,11088375,12366327,1222,2340,338,4004,2556,3658,-1364,2499,30,51,833
1246638,11088028,12362368,11088572,12366524,1290,2683,312,3286,2720,3336,-857,1799,41,51,838
1247639,11088220,12362588,11088769,12366721,1067,2649,171,2303,2886,3277,-906,1377,41,51,838
1248640,11088372,12362832,11088966,12366918,1337,2478,118,1615,2981,3322,-661,2164,39,57,841
1249641,11088528,12363112,11089163,12367115,1330,2218,91,1369,2978,3173,-266,3082,39,57,841
1250642,11088748,12363412,11089360,12367312,919,2048,18,1372,2885,3075,-163,3578,49,48,839
1251643,11088924,12363680,11089557,12367509,1204,2218,-87,1508,2723,2712,-11,4040,49,48,839
1252644,11089100,12364016,11089754,12367706,1213,1732,-186,1565,2530,2267,156,4148,33,62,839
1253645,11089276,12364320,11089951,12367903,1223,1886,-305,1745,2290,2240,152,4475,33,62,839
1254646,11089444,12364600,11090148,12368100,1286,2001,-437,1997,2031,1949,57,4704,30,65,840
1255647,11089612,12364864,11090345,12368297,1299,2071,-572,2187,1761,1663,6,4692,30,65,840
1256648,11089772,12365124,11090542,12368494,1365,2069,-669,2331,1472,1593,-171,4462,39,51,840
1257649,11089944,12365440,11090739,12368691,1301,1668,-713,2331,1193,1394,-264,4173,39,51,840
1258650,11090084,12365712,11090936,12368888,1526,1910,-722,2295,954,1314,-133,4194,36,60,842
1259651,11090256,12365952,11091133,12369085,1337,2092,-704,2088,728,1185,233,3665,36,60,842
1260652,11090436,12366180,11091330,12369282,1295,2155,-637,1765,506,1045,534,3257,27,49,840
1261653,11090552,12366400,11091527,12369479,1731,2195,-535,1384,313,947,559,2978,27,49,840
1262654,11090704,12366636,11091724,12369676,1526,2078,-391,814,163,716,747,2459,25,49,842
1263655,11090824,12366872,11091921,12369873,1760,2061,-240,206,124,584,69,2673,25,49,842
1264656,11090920,12367084,11092118,12370070,1954,2206,-94,-344,185,493,-21,2678,19,36,841
1265657,11091044,12367276,11092315,12370267,1812,2333,95,-873,288,381,-285,3229,19,36,841
1266658,11091152,12367480,11092512,12370464,1951,2256,647,-744,483,-442,-1221,9157,20,48,839
1267659,11091248,12367676,11092709,12370661,2071,2307,1501,-107,791,-1046,-2017,11298,20,48,839
1268660,11091340,12367900,11092906,12370858,2142,2120,1998,-120,982,-620,-921,3934,26,36,838
1269661,11091452,12368088,11093103,12371055,2055,2350,2110,-706,1081,-563,-607,2978,26,36,838
1270662,11091548,12368272,11093300,12371252,2199,2381,2108,-1330,1203,-488,-946,3066,21,38,837
1271663,11091644,12368496,11093497,12371449,2244,2120,2148,-1759,1386,-573,-1019,3340,21,38,837
1272663,11091804,12368704,11093694,12371646,1861,2215,2253,-2016,1589,-850,-377,3386,37,31,835
1273664,11091944,12368944,11093891,12371843,2011,1997,2381,-2191,1766,-961,-228,3423,37,31,835
1274666,11092080,12369176,11094088,12372040,2063,2032,2507,-2328,1938,-1043,-494,3440,20,34,836
1275667,11092244,12369412,11094285,12372237,1903,1991,2609,-2434,2108,-1192,-615,3768,20,34,836
1276668,11092360,12369700,11094482,12372434,2239,1627,2679,-2464,2272,-1350,-839,3944,34,53,836
1277668,11092508,12369988,11094679,12372631,2062,1587,2721,-2474,2438,-1558,-864,3851,34,53,836
1278670,11092652,12370260,11094876,12372828,2110,1655,2740,-2485,2628,-1715,-1169,3984,42,52,838
1279671,11092788,12370540,11095073,12373025,2187,1569,2748,-2406,2833,-1865,-1187,4138,42,52,838
1280672,11092928,12370844,11095270,12373222,2188,1373,2737,-2191,3034,-2052,-903,4399,24,60,839
1281682,11093064,12371140,11095500,12373452,2254,1394,2728,-1878,3201,-1971,-931,4587,24,60,839
1282674,11093188,12371444,11095697,12373649,2362,1296,2739,-1579,3316,-1887,-630,4474,36,64,839
1283675,11093332,12371820,11095894,12373846,2260,769,2769,-1214,3418,-1711,-571,4670,36,64,839
1284676,11093488,12372052,11096091,12374043,2204,1653,2796,-857,3519,-1532,-1256,4497,43,73,838
1285676,11093612,12372252,11096288,12374240,2436,1853,2796,-540,3597,-1348,-1438,4220,43,73,838
1286678,11093732,12372456,11096485,12374437,2496,1825,2729,-348,3611,-1123,-892,3779,25,57,839
1287679,11093876,12372688,11096682,12374634,2370,1635,2601,-287,3577,-805,9,3288,25,57,839
1288680,11094004,12372968,11096879,12374831,2501,1299,2441,-290,3577,-396,580,3101,40,44,841
1289680,11094152,12373280,11097076,12375028,2397,1049,2292,-296,3628,-81,689,3033,40,44,841
1290682,11094320,12373684,11097273,12375225,2286,383,2195,-372,3649,186,1218,2635,34,43,836
1291683,11094500,12373964,11097470,12375422,2219,1122,2126,-444,3627,469,1528,2656,34,43,836
1292684,11094648,12374108,11097667,12375619,2441,1996,2032,-535,3569,784,1968,2674,37,65,838
1293684,11094836,12374384,11097864,12375816,2196,1136,1899,-595,3481,995,2277,2454,37,65,838
